Participant Device,Participant OS,Participant Browser,Participant Monitor Size,Participant Viewport Size,Task Name,Current Spreadsheet,Trial Number,Display,Screen,Screen ID,Screen Counter,Response Type,Response,Onset Time,Clock Time,Reaction Time,Absolute Onset Time,Absolute Clock Time,Absolute Reaction Time,Correct,Response Duration,Proportion,Tag,Component Name,Object Name,Object Number,Object ID,Spreadsheet: display,Spreadsheet: trial,Spreadsheet: stimulus_id,Spreadsheet: expected_goal,Spreadsheet: stimulus_name,Spreadsheet: c_group,Spreadsheet: condition,Spreadsheet: paired_status,Spreadsheet: stimulus_path,Spreadsheet: block_type,Manipulation: Spreadsheet,Store: enc_test_acc,sub_label
Desktop or Laptop,Windows 10,Chrome 138.0.0.0,1920x1080,2133x1200,Temporal Distance Task,,,,,,,info,BEGIN,,,,,,,,,,,,,,,,,,,,,,,,,$${counterbalance_group},,sub-84
Desktop or Laptop,Windows 10,Chrome 138.0.0.0,1920x1080,2133x1200,Temporal Distance Task,cb_03,1.0,temp_instructions,intro_screen,3tnme7,1.0,continue,,9634.40000000298,9627.1,9634.40000000298,9634.40000000298,9627.1,9634.40000000298,1.0,0.0,0.0,,Click To Continue,Continue Button,4.0,object-29,temp_instructions,,,Student,,,,,,,$${counterbalance_group},,sub-84
Desktop or Laptop,Windows 10,Chrome 138.0.0.0,1920x1080,2133x1200,Temporal Distance Task,cb_03,1.0,temp_instructions,intro_screen_2,52v7ur,2.0,continue,,10958.900000000003,10943.000000000002,10958.900000000003,10958.900000000003,10943.000000000002,10958.900000000003,1.0,0.0,0.0,,Click To Continue,Continue Button,4.0,object-39,temp_instructions,,,Student,,,,,,,$${counterbalance_group},,sub-84
Desktop or Laptop,Windows 10,Chrome 138.0.0.0,1920x1080,2133x1200,Temporal Distance Task,cb_03,1.0,temp_instructions,intro_screen_3,i7lvwx,3.0,continue,,7868.800000002979,7861.699999999998,7868.800000002979,7868.800000002979,7861.699999999998,7868.800000002979,1.0,0.0,0.0,,Click To Continue,Continue Button,4.0,object-67,temp_instructions,,,Student,,,,,,,$${counterbalance_group},,sub-84
Desktop or Laptop,Windows 10,Chrome 138.0.0.0,1920x1080,2133x1200,Temporal Distance Task,cb_03,1.0,temp_instructions,test_q1,5ieqx1,4.0,response,choice_3,6347.700000004472,6330.400000000002,6347.700000004472,6347.700000004472,6330.400000000002,6347.700000004472,1.0,0.0,0.0,,Click Response,choice_3,5.0,object-345,temp_instructions,,,Student,,,,,,,$${counterbalance_group},,sub-84
Desktop or Laptop,Windows 10,Chrome 138.0.0.0,1920x1080,2133x1200,Temporal Distance Task,cb_03,1.0,temp_instructions,score_corr,7ilvjr,5.0,continue,,1479.5,1464.6999999999966,1479.5,1479.5,1464.6999999999966,1479.5,1.0,0.0,0.0,,Click To Continue,Continue Button,3.0,object-23,temp_instructions,,,Student,,,,,,,$${counterbalance_group},,sub-84
Desktop or Laptop,Windows 10,Chrome 138.0.0.0,1920x1080,2133x1200,Temporal Distance Task,cb_03,1.0,temp_eventStart,Screen 1,dgtyxe,1.0,continue,,3825.800000000003,3814.800000000003,3825.800000000003,3825.800000000003,3814.800000000003,3825.800000000003,1.0,0.0,0.0,,Click To Continue,Next Button,3.0,object-43,temp_eventStart,,,Student,,,,,,,$${counterbalance_group},,sub-84
Desktop or Laptop,Windows 10,Chrome 138.0.0.0,1920x1080,2133x1200,Temporal Distance Task,cb_03,1.0,temp_dist_trial,num_items,zn7si1,1.0,response,2_ITEM,2073.8000000044703,2064.900000000001,2073.8000000044703,2073.8000000044703,2064.900000000001,2073.8000000044703,1.0,0.0,0.0,,Click Response,2_count,5.0,object-49,temp_dist_trial,1.0,s_sh_21_1,student_shared,file holder,3.0,competing,single,s_sh_21_1.jpg,Student,$${counterbalance_group},,sub-84
Desktop or Laptop,Windows 10,Chrome 138.0.0.0,1920x1080,2133x1200,Temporal Distance Task,cb_03,1.0,temp_dist_trial,dist_items,qkpkxw,2.0,info,,5.300000002978777,0.0,5.300000002978777,5.300000002978777,0.0,5.300000002978777,1.0,0.0,0.0,,Slider,Slider,4.0,object-56,temp_dist_trial,1.0,s_sh_21_1,student_shared,file holder,3.0,competing,single,s_sh_21_1.jpg,Student,$${counterbalance_group},,sub-84
Desktop or Laptop,Windows 10,Chrome 138.0.0.0,1920x1080,2133x1200,Temporal Distance Task,cb_03,1.0,temp_dist_trial,dist_items,qkpkxw,2.0,continue,,3545.9999999985084,3530.7999999999956,3545.9999999985084,3545.9999999985084,3530.7999999999956,3545.9999999985084,1.0,0.0,0.0,,Click To Continue,Next button,7.0,object-60,temp_dist_trial,1.0,s_sh_21_1,student_shared,file holder,3.0,competing,single,s_sh_21_1.jpg,Student,$${counterbalance_group},,sub-84
Desktop or Laptop,Windows 10,Chrome 138.0.0.0,1920x1080,2133x1200,Temporal Distance Task,cb_03,1.0,temp_dist_trial,dist_items,qkpkxw,2.0,response,46,1348.9000000000015,3530.7999999999956,3547.499999999993,1348.9000000000015,3530.7999999999956,3547.499999999993,1.0,2198.5999999999913,0.0,,Slider,Slider,4.0,object-56,temp_dist_trial,1.0,s_sh_21_1,student_shared,file holder,3.0,competing,single,s_sh_21_1.jpg,Student,$${counterbalance_group},,sub-84
Desktop or Laptop,Windows 10,Chrome 138.0.0.0,1920x1080,2133x1200,Temporal Distance Task,cb_03,2.0,temp_dist_trial,num_items,zn7si1,1.0,response,1_ITEM,2464.600000004473,2448.5,2464.600000004473,2464.600000004473,2448.5,2464.600000004473,1.0,0.0,0.0,,Click Response,1_count,3.0,object-46,temp_dist_trial,2.0,s_a_11_1,student_art,clapperboard,3.0,unique,paired,s_a_11_1.jpg,Student,$${counterbalance_group},,sub-84
Desktop or Laptop,Windows 10,Chrome 138.0.0.0,1920x1080,2133x1200,Temporal Distance Task,cb_03,3.0,temp_dist_trial,num_items,zn7si1,1.0,response,1_ITEM,1697.7999999985113,1682.2000000000046,1697.7999999985113,1697.7999999985113,1682.2000000000046,1697.7999999985113,1.0,0.0,0.0,,Click Response,1_count,3.0,object-46,temp_dist_trial,3.0,s_a_08_1,student_art,sewing machine,3.0,unique,paired,s_a_08_1.jpg,Student,$${counterbalance_group},,sub-84
Desktop or Laptop,Windows 10,Chrome 138.0.0.0,1920x1080,2133x1200,Temporal Distance Task,cb_03,4.0,temp_dist_trial,num_items,zn7si1,1.0,response,1_ITEM,1308.5000000044674,1298.8999999999942,1308.5000000044674,1308.5000000044674,1298.8999999999942,1308.5000000044674,1.0,0.0,0.0,,Click Response,1_count,3.0,object-46,temp_dist_trial,4.0,s_sh_23_1,student_shared,ballpoint pen,3.0,competing,single,s_sh_23_1.jpg,Student,$${counterbalance_group},,sub-84
Desktop or Laptop,Windows 10,Chrome 138.0.0.0,1920x1080,2133x1200,Temporal Distance Task,cb_03,5.0,temp_dist_trial,num_items,zn7si1,1.0,response,2_ITEM,1630.8999999985099,1615.6999999999966,1630.8999999985099,1630.8999999985099,1615.6999999999966,1630.8999999985099,1.0,0.0,0.0,,Click Response,2_count,5.0,object-49,temp_dist_trial,5.0,s_sh_16_1,student_shared,stapler,3.0,competing,single,s_sh_16_1.jpg,Student,$${counterbalance_group},,sub-84
Desktop or Laptop,Windows 10,Chrome 138.0.0.0,1920x1080,2133x1200,Temporal Distance Task,cb_03,5.0,temp_dist_trial,dist_items,qkpkxw,2.0,info,,12.800000004470348,0.0,12.800000004470348,12.800000004470348,0.0,12.800000004470348,1.0,0.0,0.0,,Slider,Slider,4.0,object-56,temp_dist_trial,5.0,s_sh_16_1,student_shared,stapler,3.0,competing,single,s_sh_16_1.jpg,Student,$${counterbalance_group},,sub-84
Desktop or Laptop,Windows 10,Chrome 138.0.0.0,1920x1080,2133x1200,Temporal Distance Task,cb_03,5.0,temp_dist_trial,dist_items,qkpkxw,2.0,continue,,4518.39999999851,4513.9000000000015,4518.39999999851,4518.39999999851,4513.9000000000015,4518.39999999851,1.0,0.0,0.0,,Click To Continue,Next button,7.0,object-60,temp_dist_trial,5.0,s_sh_16_1,student_shared,stapler,3.0,competing,single,s_sh_16_1.jpg,Student,$${counterbalance_group},,sub-84
Desktop or Laptop,Windows 10,Chrome 138.0.0.0,1920x1080,2133x1200,Temporal Distance Task,cb_03,5.0,temp_dist_trial,dist_items,qkpkxw,2.0,response,19,1365.9000000000015,4513.9000000000015,4522.0,1365.9000000000015,4513.9000000000015,4522.0,1.0,3156.099999999999,0.0,,Slider,Slider,4.0,object-56,temp_dist_trial,5.0,s_sh_16_1,student_shared,stapler,3.0,competing,single,s_sh_16_1.jpg,Student,$${counterbalance_group},,sub-84
Desktop or Laptop,Windows 10,Chrome 138.0.0.0,1920x1080,2133x1200,Temporal Distance Task,cb_03,6.0,temp_dist_trial,num_items,zn7si1,1.0,response,1_ITEM,1716.3000000029788,1715.4000000000015,1716.3000000029788,1716.3000000029788,1715.4000000000015,1716.3000000029788,1.0,0.0,0.0,,Click Response,1_count,3.0,object-46,temp_dist_trial,6.0,s_a_10_1,student_art,tripod,3.0,unique,paired,s_a_10_1.jpg,Student,$${counterbalance_group},,sub-84
Desktop or Laptop,Windows 10,Chrome 138.0.0.0,1920x1080,2133x1200,Temporal Distance Task,cb_03,7.0,temp_dist_trial,num_items,zn7si1,1.0,response,2_ITEM,2077.099999998507,2065.299999999996,2077.099999998507,2077.099999998507,2065.299999999996,2077.099999998507,1.0,0.0,0.0,,Click Response,2_count,5.0,object-49,temp_dist_trial,7.0,s_sh_20_1,student_shared,tape,3.0,competing,paired,s_sh_20_1.jpg,Student,$${counterbalance_group},,sub-84
Desktop or Laptop,Windows 10,Chrome 138.0.0.0,1920x1080,2133x1200,Temporal Distance Task,cb_03,7.0,temp_dist_trial,dist_items,qkpkxw,2.0,info,,3.3000000000029104,0.0,3.3000000000029104,3.3000000000029104,0.0,3.3000000000029104,1.0,0.0,0.0,,Slider,Slider,4.0,object-56,temp_dist_trial,7.0,s_sh_20_1,student_shared,tape,3.0,competing,paired,s_sh_20_1.jpg,Student,$${counterbalance_group},,sub-84
Desktop or Laptop,Windows 10,Chrome 138.0.0.0,1920x1080,2133x1200,Temporal Distance Task,cb_03,7.0,temp_dist_trial,dist_items,qkpkxw,2.0,continue,,2548.100000004473,2531.699999999997,2548.100000004473,2548.100000004473,2531.699999999997,2548.100000004473,1.0,0.0,0.0,,Click To Continue,Next button,7.0,object-60,temp_dist_trial,7.0,s_sh_20_1,student_shared,tape,3.0,competing,paired,s_sh_20_1.jpg,Student,$${counterbalance_group},,sub-84
Desktop or Laptop,Windows 10,Chrome 138.0.0.0,1920x1080,2133x1200,Temporal Distance Task,cb_03,7.0,temp_dist_trial,dist_items,qkpkxw,2.0,response,33,1465.5,2531.699999999997,2548.199999999997,1465.5,2531.699999999997,2548.199999999997,1.0,1082.6999999999969,0.0,,Slider,Slider,4.0,object-56,temp_dist_trial,7.0,s_sh_20_1,student_shared,tape,3.0,competing,paired,s_sh_20_1.jpg,Student,$${counterbalance_group},,sub-84
Desktop or Laptop,Windows 10,Chrome 138.0.0.0,1920x1080,2133x1200,Temporal Distance Task,cb_03,8.0,temp_dist_trial,num_items,zn7si1,1.0,response,2_ITEM,2063.700000001496,2048.700000000012,2063.700000001496,2063.700000001496,2048.700000000012,2063.700000001496,1.0,0.0,0.0,,Click Response,2_count,5.0,object-49,temp_dist_trial,8.0,s_sh_04_1,student_shared,laptop stand,3.0,competing,paired,s_sh_04_1.jpg,Student,$${counterbalance_group},,sub-84
Desktop or Laptop,Windows 10,Chrome 138.0.0.0,1920x1080,2133x1200,Temporal Distance Task,cb_03,8.0,temp_dist_trial,dist_items,qkpkxw,2.0,info,,4.000000004467438,0.0,4.000000004467438,4.000000004467438,0.0,4.000000004467438,1.0,0.0,0.0,,Slider,Slider,4.0,object-56,temp_dist_trial,8.0,s_sh_04_1,student_shared,laptop stand,3.0,competing,paired,s_sh_04_1.jpg,Student,$${counterbalance_group},,sub-84
Desktop or Laptop,Windows 10,Chrome 138.0.0.0,1920x1080,2133x1200,Temporal Distance Task,cb_03,8.0,temp_dist_trial,dist_items,qkpkxw,2.0,continue,,2595.0000000044674,2581.800000000003,2595.0000000044674,2595.0000000044674,2581.800000000003,2595.0000000044674,1.0,0.0,0.0,,Click To Continue,Next button,7.0,object-60,temp_dist_trial,8.0,s_sh_04_1,student_shared,laptop stand,3.0,competing,paired,s_sh_04_1.jpg,Student,$${counterbalance_group},,sub-84
Desktop or Laptop,Windows 10,Chrome 138.0.0.0,1920x1080,2133x1200,Temporal Distance Task,cb_03,8.0,temp_dist_trial,dist_items,qkpkxw,2.0,response,43,1382.3999999999942,2581.800000000003,2598.199999999997,1382.3999999999942,2581.800000000003,2598.199999999997,1.0,1215.8000000000031,0.0,,Slider,Slider,4.0,object-56,temp_dist_trial,8.0,s_sh_04_1,student_shared,laptop stand,3.0,competing,paired,s_sh_04_1.jpg,Student,$${counterbalance_group},,sub-84
Desktop or Laptop,Windows 10,Chrome 138.0.0.0,1920x1080,2133x1200,Temporal Distance Task,cb_03,9.0,temp_dist_trial,num_items,zn7si1,1.0,response,1_ITEM,1103.0000000014843,1099.1999999999969,1103.0000000014843,1103.0000000014843,1099.1999999999969,1103.0000000014843,1.0,0.0,0.0,,Click Response,1_count,3.0,object-46,temp_dist_trial,9.0,s_a_17_1,student_art,microphone,3.0,unique,single,s_a_17_1.jpg,Student,$${counterbalance_group},,sub-84
Desktop or Laptop,Windows 10,Chrome 138.0.0.0,1920x1080,2133x1200,Temporal Distance Task,cb_03,10.0,temp_dist_trial,num_items,zn7si1,1.0,response,1_ITEM,1260.599999998507,1249.5,1260.599999998507,1260.599999998507,1249.5,1260.599999998507,1.0,0.0,0.0,,Click Response,1_count,3.0,object-46,temp_dist_trial,10.0,s_s_03_1,student_stem,petri dish,3.0,unique,paired,s_s_03_1.jpg,Student,$${counterbalance_group},,sub-84
Desktop or Laptop,Windows 10,Chrome 138.0.0.0,1920x1080,2133x1200,Temporal Distance Task,cb_03,11.0,temp_dist_trial,num_items,zn7si1,1.0,response,2_ITEM,1742.6000000044733,1732.1999999999966,1742.6000000044733,1742.6000000044733,1732.1999999999966,1742.6000000044733,1.0,0.0,0.0,,Click Response,2_count,5.0,object-49,temp_dist_trial,11.0,s_s_02_1,student_stem,flask,3.0,unique,single,s_s_02_1.jpg,Student,$${counterbalance_group},,sub-84
Desktop or Laptop,Windows 10,Chrome 138.0.0.0,1920x1080,2133x1200,Temporal Distance Task,cb_03,11.0,temp_dist_trial,dist_items,qkpkxw,2.0,info,,4.600000004473259,0.0,4.600000004473259,4.600000004473259,0.0,4.600000004473259,1.0,0.0,0.0,,Slider,Slider,4.0,object-56,temp_dist_trial,11.0,s_s_02_1,student_stem,flask,3.0,unique,single,s_s_02_1.jpg,Student,$${counterbalance_group},,sub-84
Desktop or Laptop,Windows 10,Chrome 138.0.0.0,1920x1080,2133x1200,Temporal Distance Task,cb_03,11.0,temp_dist_trial,dist_items,qkpkxw,2.0,continue,,2934.6000000044733,2931.5,2934.6000000044733,2934.6000000044733,2931.5,2934.6000000044733,1.0,0.0,0.0,,Click To Continue,Next button,7.0,object-60,temp_dist_trial,11.0,s_s_02_1,student_stem,flask,3.0,unique,single,s_s_02_1.jpg,Student,$${counterbalance_group},,sub-84
Desktop or Laptop,Windows 10,Chrome 138.0.0.0,1920x1080,2133x1200,Temporal Distance Task,cb_03,11.0,temp_dist_trial,dist_items,qkpkxw,2.0,response,42,1216.0,2931.5,2935.0000000029827,1216.0,2931.5,2935.0000000029827,1.0,1719.0000000029834,0.0,,Slider,Slider,4.0,object-56,temp_dist_trial,11.0,s_s_02_1,student_stem,flask,3.0,unique,single,s_s_02_1.jpg,Student,$${counterbalance_group},,sub-84
Desktop or Laptop,Windows 10,Chrome 138.0.0.0,1920x1080,2133x1200,Temporal Distance Task,cb_03,12.0,temp_dist_trial,num_items,zn7si1,1.0,response,1_ITEM,1679.5000000029834,1665.900000000009,1679.5000000029834,1679.5000000029834,1665.900000000009,1679.5000000029834,1.0,0.0,0.0,,Click Response,1_count,3.0,object-46,temp_dist_trial,12.0,s_s_05_1,student_stem,lab goggles,3.0,unique,paired,s_s_05_1.jpg,Student,$${counterbalance_group},,sub-84
Desktop or Laptop,Windows 10,Chrome 138.0.0.0,1920x1080,2133x1200,Temporal Distance Task,cb_03,13.0,temp_dist_trial,num_items,zn7si1,1.0,response,2_ITEM,1378.800000002986,1365.5,1378.800000002986,1378.800000002986,1365.5,1378.800000002986,1.0,0.0,0.0,,Click Response,2_count,5.0,object-49,temp_dist_trial,13.0,s_sh_08_1,student_shared,post-its,3.0,competing,paired,s_sh_08_1.jpg,Student,$${counterbalance_group},,sub-84
Desktop or Laptop,Windows 10,Chrome 138.0.0.0,1920x1080,2133x1200,Temporal Distance Task,cb_03,13.0,temp_dist_trial,dist_items,qkpkxw,2.0,info,,4.100000000005822,0.0,4.100000000005822,4.100000000005822,0.0,4.100000000005822,1.0,0.0,0.0,,Slider,Slider,4.0,object-56,temp_dist_trial,13.0,s_sh_08_1,student_shared,post-its,3.0,competing,paired,s_sh_08_1.jpg,Student,$${counterbalance_group},,sub-84
Desktop or Laptop,Windows 10,Chrome 138.0.0.0,1920x1080,2133x1200,Temporal Distance Task,cb_03,13.0,temp_dist_trial,dist_items,qkpkxw,2.0,continue,,2221.1000000000063,2215.1000000000063,2221.1000000000063,2221.1000000000063,2215.1000000000063,2221.1000000000063,1.0,0.0,0.0,,Click To Continue,Next button,7.0,object-60,temp_dist_trial,13.0,s_sh_08_1,student_shared,post-its,3.0,competing,paired,s_sh_08_1.jpg,Student,$${counterbalance_group},,sub-84
Desktop or Laptop,Windows 10,Chrome 138.0.0.0,1920x1080,2133x1200,Temporal Distance Task,cb_03,13.0,temp_dist_trial,dist_items,qkpkxw,2.0,response,81,1182.4000000000087,2215.1000000000063,2221.400000004476,1182.4000000000087,2215.1000000000063,2221.400000004476,1.0,1039.0000000044672,0.0,,Slider,Slider,4.0,object-56,temp_dist_trial,13.0,s_sh_08_1,student_shared,post-its,3.0,competing,paired,s_sh_08_1.jpg,Student,$${counterbalance_group},,sub-84
Desktop or Laptop,Windows 10,Chrome 138.0.0.0,1920x1080,2133x1200,Temporal Distance Task,cb_03,14.0,temp_dist_trial,num_items,zn7si1,1.0,response,1_ITEM,1945.10000000149,1933.0,1945.10000000149,1945.10000000149,1933.0,1945.10000000149,1.0,0.0,0.0,,Click Response,1_count,3.0,object-46,temp_dist_trial,14.0,s_a_03_1,student_art,palette,3.0,unique,paired,s_a_03_1.jpg,Student,$${counterbalance_group},,sub-84
Desktop or Laptop,Windows 10,Chrome 138.0.0.0,1920x1080,2133x1200,Temporal Distance Task,cb_03,15.0,temp_dist_trial,num_items,zn7si1,1.0,response,2_ITEM,1436.8000000044706,1432.3999999999942,1436.8000000044706,1436.8000000044706,1432.3999999999942,1436.8000000044706,1.0,0.0,0.0,,Click Response,2_count,5.0,object-49,temp_dist_trial,15.0,s_sh_11_1,student_shared,pencil case,3.0,competing,paired,s_sh_11_1.jpg,Student,$${counterbalance_group},,sub-84
Desktop or Laptop,Windows 10,Chrome 138.0.0.0,1920x1080,2133x1200,Temporal Distance Task,cb_03,15.0,temp_dist_trial,dist_items,qkpkxw,2.0,info,,5.500000002983144,0.0,5.500000002983144,5.500000002983144,0.0,5.500000002983144,1.0,0.0,0.0,,Slider,Slider,4.0,object-56,temp_dist_trial,15.0,s_sh_11_1,student_shared,pencil case,3.0,competing,paired,s_sh_11_1.jpg,Student,$${counterbalance_group},,sub-84
Desktop or Laptop,Windows 10,Chrome 138.0.0.0,1920x1080,2133x1200,Temporal Distance Task,cb_03,15.0,temp_dist_trial,dist_items,qkpkxw,2.0,continue,,2043.6999999985128,2032.1000000000056,2043.6999999985128,2043.6999999985128,2032.1000000000056,2043.6999999985128,1.0,0.0,0.0,,Click To Continue,Next button,7.0,object-60,temp_dist_trial,15.0,s_sh_11_1,student_shared,pencil case,3.0,competing,paired,s_sh_11_1.jpg,Student,$${counterbalance_group},,sub-84
Desktop or Laptop,Windows 10,Chrome 138.0.0.0,1920x1080,2133x1200,Temporal Distance Task,cb_03,15.0,temp_dist_trial,dist_items,qkpkxw,2.0,response,43,1099.3000000000031,2032.1000000000056,2044.1999999985128,1099.3000000000031,2032.1000000000056,2044.1999999985128,1.0,944.89999999851,0.0,,Slider,Slider,4.0,object-56,temp_dist_trial,15.0,s_sh_11_1,student_shared,pencil case,3.0,competing,paired,s_sh_11_1.jpg,Student,$${counterbalance_group},,sub-84
Desktop or Laptop,Windows 10,Chrome 138.0.0.0,1920x1080,2133x1200,Temporal Distance Task,cb_03,16.0,temp_dist_trial,num_items,zn7si1,1.0,response,2_ITEM,1994.099999998507,1982.0999999999915,1994.099999998507,1994.099999998507,1982.0999999999915,1994.099999998507,1.0,0.0,0.0,,Click Response,2_count,5.0,object-49,temp_dist_trial,16.0,s_s_01_1,student_stem,microscope,3.0,unique,single,s_s_01_1.jpg,Student,$${counterbalance_group},,sub-84
Desktop or Laptop,Windows 10,Chrome 138.0.0.0,1920x1080,2133x1200,Temporal Distance Task,cb_03,16.0,temp_dist_trial,dist_items,qkpkxw,2.0,info,,5.8000000000029095,0.0,5.8000000000029095,5.8000000000029095,0.0,5.8000000000029095,1.0,0.0,0.0,,Slider,Slider,4.0,object-56,temp_dist_trial,16.0,s_s_01_1,student_stem,microscope,3.0,unique,single,s_s_01_1.jpg,Student,$${counterbalance_group},,sub-84
Desktop or Laptop,Windows 10,Chrome 138.0.0.0,1920x1080,2133x1200,Temporal Distance Task,cb_03,16.0,temp_dist_trial,dist_items,qkpkxw,2.0,continue,,2285.100000004473,2282.0,2285.100000004473,2285.100000004473,2282.0,2285.100000004473,1.0,0.0,0.0,,Click To Continue,Next button,7.0,object-60,temp_dist_trial,16.0,s_s_01_1,student_stem,microscope,3.0,unique,single,s_s_01_1.jpg,Student,$${counterbalance_group},,sub-84
Desktop or Laptop,Windows 10,Chrome 138.0.0.0,1920x1080,2133x1200,Temporal Distance Task,cb_03,16.0,temp_dist_trial,dist_items,qkpkxw,2.0,response,60,1049.4000000000087,2282.0,2285.300000000003,1049.4000000000087,2282.0,2285.300000000003,1.0,1235.8999999999942,0.0,,Slider,Slider,4.0,object-56,temp_dist_trial,16.0,s_s_01_1,student_stem,microscope,3.0,unique,single,s_s_01_1.jpg,Student,$${counterbalance_group},,sub-84
Desktop or Laptop,Windows 10,Chrome 138.0.0.0,1920x1080,2133x1200,Temporal Distance Task,cb_03,17.0,temp_dist_trial,num_items,zn7si1,1.0,response,2_ITEM,1948.3000000000034,1931.900000000009,1948.3000000000034,1948.3000000000034,1931.900000000009,1948.3000000000034,1.0,0.0,0.0,,Click Response,2_count,5.0,object-49,temp_dist_trial,17.0,s_s_12_1,student_stem,robotic arm,3.0,unique,paired,s_s_12_1.jpg,Student,$${counterbalance_group},,sub-84
Desktop or Laptop,Windows 10,Chrome 138.0.0.0,1920x1080,2133x1200,Temporal Distance Task,cb_03,17.0,temp_dist_trial,dist_items,qkpkxw,2.0,info,,4.000000001484295,0.0,4.000000001484295,4.000000001484295,0.0,4.000000001484295,1.0,0.0,0.0,,Slider,Slider,4.0,object-56,temp_dist_trial,17.0,s_s_12_1,student_stem,robotic arm,3.0,unique,paired,s_s_12_1.jpg,Student,$${counterbalance_group},,sub-84
Desktop or Laptop,Windows 10,Chrome 138.0.0.0,1920x1080,2133x1200,Temporal Distance Task,cb_03,17.0,temp_dist_trial,dist_items,qkpkxw,2.0,continue,,2655.5000000014843,2648.199999999997,2655.5000000014843,2655.5000000014843,2648.199999999997,2655.5000000014843,1.0,0.0,0.0,,Click To Continue,Next button,7.0,object-60,temp_dist_trial,17.0,s_s_12_1,student_stem,robotic arm,3.0,unique,paired,s_s_12_1.jpg,Student,$${counterbalance_group},,sub-84
Desktop or Laptop,Windows 10,Chrome 138.0.0.0,1920x1080,2133x1200,Temporal Distance Task,cb_03,17.0,temp_dist_trial,dist_items,qkpkxw,2.0,response,59,1399.1999999999966,2648.199999999997,2655.799999998504,1399.1999999999966,2648.199999999997,2655.799999998504,1.0,1256.599999998507,0.0,,Slider,Slider,4.0,object-56,temp_dist_trial,17.0,s_s_12_1,student_stem,robotic arm,3.0,unique,paired,s_s_12_1.jpg,Student,$${counterbalance_group},,sub-84
Desktop or Laptop,Windows 10,Chrome 138.0.0.0,1920x1080,2133x1200,Temporal Distance Task,cb_03,18.0,temp_dist_trial,num_items,zn7si1,1.0,response,1_ITEM,1345.5000000044674,1332.5999999999913,1345.5000000044674,1345.5000000044674,1332.5999999999913,1345.5000000044674,1.0,0.0,0.0,,Click Response,1_count,3.0,object-46,temp_dist_trial,18.0,s_s_18_1,student_stem,brain model,3.0,unique,paired,s_s_18_1.jpg,Student,$${counterbalance_group},,sub-84
Desktop or Laptop,Windows 10,Chrome 138.0.0.0,1920x1080,2133x1200,Temporal Distance Task,cb_03,19.0,temp_dist_trial,num_items,zn7si1,1.0,response,2_ITEM,1453.7000000044645,1449.099999999991,1453.7000000044645,1453.7000000044645,1449.099999999991,1453.7000000044645,1.0,0.0,0.0,,Click Response,2_count,5.0,object-49,temp_dist_trial,19.0,s_sh_09_1,student_shared,paper clips,3.0,competing,paired,s_sh_09_1.jpg,Student,$${counterbalance_group},,sub-84
Desktop or Laptop,Windows 10,Chrome 138.0.0.0,1920x1080,2133x1200,Temporal Distance Task,cb_03,19.0,temp_dist_trial,dist_items,qkpkxw,2.0,info,,3.900000002977322,0.0,3.900000002977322,3.900000002977322,0.0,3.900000002977322,1.0,0.0,0.0,,Slider,Slider,4.0,object-56,temp_dist_trial,19.0,s_sh_09_1,student_shared,paper clips,3.0,competing,paired,s_sh_09_1.jpg,Student,$${counterbalance_group},,sub-84
Desktop or Laptop,Windows 10,Chrome 138.0.0.0,1920x1080,2133x1200,Temporal Distance Task,cb_03,19.0,temp_dist_trial,dist_items,qkpkxw,2.0,continue,,2577.599999998507,2565.0,2577.599999998507,2577.599999998507,2565.0,2577.599999998507,1.0,0.0,0.0,,Click To Continue,Next button,7.0,object-60,temp_dist_trial,19.0,s_sh_09_1,student_shared,paper clips,3.0,competing,paired,s_sh_09_1.jpg,Student,$${counterbalance_group},,sub-84
Desktop or Laptop,Windows 10,Chrome 138.0.0.0,1920x1080,2133x1200,Temporal Distance Task,cb_03,19.0,temp_dist_trial,dist_items,qkpkxw,2.0,response,48,1115.8000000000031,2565.0,2577.900000002977,1115.8000000000031,2565.0,2577.900000002977,1.0,1462.1000000029746,0.0,,Slider,Slider,4.0,object-56,temp_dist_trial,19.0,s_sh_09_1,student_shared,paper clips,3.0,competing,paired,s_sh_09_1.jpg,Student,$${counterbalance_group},,sub-84
Desktop or Laptop,Windows 10,Chrome 138.0.0.0,1920x1080,2133x1200,Temporal Distance Task,cb_03,20.0,temp_dist_trial,num_items,zn7si1,1.0,response,1_ITEM,1555.9000000029773,1548.8000000000034,1555.9000000029773,1555.9000000029773,1548.8000000000034,1555.9000000029773,1.0,0.0,0.0,,Click Response,1_count,3.0,object-46,temp_dist_trial,20.0,s_s_07_1,student_stem,periodic table,3.0,unique,single,s_s_07_1.jpg,Student,$${counterbalance_group},,sub-84
Desktop or Laptop,Windows 10,Chrome 138.0.0.0,1920x1080,2133x1200,Temporal Distance Task,cb_03,21.0,temp_dist_trial,num_items,zn7si1,1.0,response,1_ITEM,1119.1000000014901,1115.8999999999942,1119.1000000014901,1119.1000000014901,1115.8999999999942,1119.1000000014901,1.0,0.0,0.0,,Click Response,1_count,3.0,object-46,temp_dist_trial,21.0,s_sh_15_1,student_shared,usb drive,3.0,competing,paired,s_sh_15_1.jpg,Student,$${counterbalance_group},,sub-84
Desktop or Laptop,Windows 10,Chrome 138.0.0.0,1920x1080,2133x1200,Temporal Distance Task,cb_03,22.0,temp_dist_trial,num_items,zn7si1,1.0,response,1_ITEM,892.9000000029773,882.6999999999971,892.9000000029773,892.9000000029773,882.6999999999971,892.9000000029773,1.0,0.0,0.0,,Click Response,1_count,3.0,object-46,temp_dist_trial,22.0,s_a_16_1,student_art,piano,3.0,unique,single,s_a_16_1.jpg,Student,$${counterbalance_group},,sub-84
Desktop or Laptop,Windows 10,Chrome 138.0.0.0,1920x1080,2133x1200,Temporal Distance Task,cb_03,23.0,temp_dist_trial,num_items,zn7si1,1.0,response,1_ITEM,950.8000000029859,949.3000000000028,950.8000000029859,950.8000000029859,949.3000000000028,950.8000000029859,1.0,0.0,0.0,,Click Response,1_count,3.0,object-46,temp_dist_trial,23.0,s_a_19_1,student_art,ballet shoes,3.0,unique,single,s_a_19_1.jpg,Student,$${counterbalance_group},,sub-84
Desktop or Laptop,Windows 10,Chrome 138.0.0.0,1920x1080,2133x1200,Temporal Distance Task,cb_03,24.0,temp_dist_trial,num_items,zn7si1,1.0,response,2_ITEM,1589.0000000029834,1582.1999999999966,1589.0000000029834,1589.0000000029834,1582.1999999999966,1589.0000000029834,1.0,0.0,0.0,,Click Response,2_count,5.0,object-49,temp_dist_trial,24.0,s_sh_06_1,student_shared,clipboard,3.0,competing,paired,s_sh_06_1.jpg,Student,$${counterbalance_group},,sub-84
Desktop or Laptop,Windows 10,Chrome 138.0.0.0,1920x1080,2133x1200,Temporal Distance Task,cb_03,24.0,temp_dist_trial,dist_items,qkpkxw,2.0,info,,4.000000004467438,0.0,4.000000004467438,4.000000004467438,0.0,4.000000004467438,1.0,0.0,0.0,,Slider,Slider,4.0,object-56,temp_dist_trial,24.0,s_sh_06_1,student_shared,clipboard,3.0,competing,paired,s_sh_06_1.jpg,Student,$${counterbalance_group},,sub-84
Desktop or Laptop,Windows 10,Chrome 138.0.0.0,1920x1080,2133x1200,Temporal Distance Task,cb_03,24.0,temp_dist_trial,dist_items,qkpkxw,2.0,continue,,2813.8000000014868,2798.0999999999913,2813.8000000014868,2813.8000000014868,2798.0999999999913,2813.8000000014868,1.0,0.0,0.0,,Click To Continue,Next button,7.0,object-60,temp_dist_trial,24.0,s_sh_06_1,student_shared,clipboard,3.0,competing,paired,s_sh_06_1.jpg,Student,$${counterbalance_group},,sub-84
Desktop or Laptop,Windows 10,Chrome 138.0.0.0,1920x1080,2133x1200,Temporal Distance Task,cb_03,24.0,temp_dist_trial,dist_items,qkpkxw,2.0,response,57,1549.0,2798.0999999999913,2814.099999998507,1549.0,2798.0999999999913,2814.099999998507,1.0,1265.099999998507,0.0,,Slider,Slider,4.0,object-56,temp_dist_trial,24.0,s_sh_06_1,student_shared,clipboard,3.0,competing,paired,s_sh_06_1.jpg,Student,$${counterbalance_group},,sub-84
Desktop or Laptop,Windows 10,Chrome 138.0.0.0,1920x1080,2133x1200,Temporal Distance Task,cb_03,25.0,temp_dist_trial,num_items,zn7si1,1.0,response,1_ITEM,1998.1000000000056,1982.2000000000119,1998.1000000000056,1998.1000000000056,1982.2000000000119,1998.1000000000056,1.0,0.0,0.0,,Click Response,1_count,3.0,object-46,temp_dist_trial,25.0,s_a_20_1,student_art,pin cushion,3.0,unique,paired,s_a_20_1.jpg,Student,$${counterbalance_group},,sub-84
Desktop or Laptop,Windows 10,Chrome 138.0.0.0,1920x1080,2133x1200,Temporal Distance Task,cb_03,26.0,temp_dist_trial,num_items,zn7si1,1.0,response,1_ITEM,1025.5,1016.3000000000028,1025.5,1025.5,1016.3000000000028,1025.5,1.0,0.0,0.0,,Click Response,1_count,3.0,object-46,temp_dist_trial,26.0,s_s_04_1,student_stem,bunsen burner,3.0,unique,paired,s_s_04_1.jpg,Student,$${counterbalance_group},,sub-84
Desktop or Laptop,Windows 10,Chrome 138.0.0.0,1920x1080,2133x1200,Temporal Distance Task,cb_03,27.0,temp_dist_trial,num_items,zn7si1,1.0,response,2_ITEM,1068.1999999999969,1066.0999999999913,1068.1999999999969,1068.1999999999969,1066.0999999999913,1068.1999999999969,1.0,0.0,0.0,,Click Response,2_count,5.0,object-49,temp_dist_trial,27.0,s_sh_01_1,student_shared,notebook,3.0,competing,paired,s_sh_01_1.jpg,Student,$${counterbalance_group},,sub-84
Desktop or Laptop,Windows 10,Chrome 138.0.0.0,1920x1080,2133x1200,Temporal Distance Task,cb_03,27.0,temp_dist_trial,dist_items,qkpkxw,2.0,info,,3.000000004467438,0.0,3.000000004467438,3.000000004467438,0.0,3.000000004467438,1.0,0.0,0.0,,Slider,Slider,4.0,object-56,temp_dist_trial,27.0,s_sh_01_1,student_shared,notebook,3.0,competing,paired,s_sh_01_1.jpg,Student,$${counterbalance_group},,sub-84
Desktop or Laptop,Windows 10,Chrome 138.0.0.0,1920x1080,2133x1200,Temporal Distance Task,cb_03,27.0,temp_dist_trial,dist_items,qkpkxw,2.0,continue,,2465.699999999997,2448.699999999997,2465.699999999997,2465.699999999997,2448.699999999997,2465.699999999997,1.0,0.0,0.0,,Click To Continue,Next button,7.0,object-60,temp_dist_trial,27.0,s_sh_01_1,student_shared,notebook,3.0,competing,paired,s_sh_01_1.jpg,Student,$${counterbalance_group},,sub-84
Desktop or Laptop,Windows 10,Chrome 138.0.0.0,1920x1080,2133x1200,Temporal Distance Task,cb_03,27.0,temp_dist_trial,dist_items,qkpkxw,2.0,response,61,1265.6999999999969,2448.699999999997,2465.800000000003,1265.6999999999969,2448.699999999997,2465.800000000003,1.0,1200.1000000000058,0.0,,Slider,Slider,4.0,object-56,temp_dist_trial,27.0,s_sh_01_1,student_shared,notebook,3.0,competing,paired,s_sh_01_1.jpg,Student,$${counterbalance_group},,sub-84
Desktop or Laptop,Windows 10,Chrome 138.0.0.0,1920x1080,2133x1200,Temporal Distance Task,cb_03,28.0,temp_dist_trial,num_items,zn7si1,1.0,response,1_ITEM,1158.7000000029802,1148.8000000000031,1158.7000000029802,1158.7000000029802,1148.8000000000031,1158.7000000029802,1.0,0.0,0.0,,Click Response,1_count,3.0,object-46,temp_dist_trial,28.0,s_a_04_1,student_art,easel,3.0,unique,paired,s_a_04_1.jpg,Student,$${counterbalance_group},,sub-84
Desktop or Laptop,Windows 10,Chrome 138.0.0.0,1920x1080,2133x1200,Temporal Distance Task,cb_03,29.0,temp_dist_trial,num_items,zn7si1,1.0,response,1_ITEM,989.3000000000028,982.9000000000087,989.3000000000028,989.3000000000028,982.9000000000087,989.3000000000028,1.0,0.0,0.0,,Click Response,1_count,3.0,object-46,temp_dist_trial,29.0,s_s_14_1,student_stem,funnel,3.0,unique,paired,s_s_14_1.jpg,Student,$${counterbalance_group},,sub-84
Desktop or Laptop,Windows 10,Chrome 138.0.0.0,1920x1080,2133x1200,Temporal Distance Task,cb_03,30.0,temp_dist_trial,num_items,zn7si1,1.0,response,2_ITEM,1226.8000000014872,1215.8000000000031,1226.8000000014872,1226.8000000014872,1215.8000000000031,1226.8000000014872,1.0,0.0,0.0,,Click Response,2_count,5.0,object-49,temp_dist_trial,30.0,s_sh_14_1,student_shared,printer,3.0,competing,paired,s_sh_14_1.jpg,Student,$${counterbalance_group},,sub-84
Desktop or Laptop,Windows 10,Chrome 138.0.0.0,1920x1080,2133x1200,Temporal Distance Task,cb_03,30.0,temp_dist_trial,dist_items,qkpkxw,2.0,info,,3.8000000044703484,0.0,3.8000000044703484,3.8000000044703484,0.0,3.8000000044703484,1.0,0.0,0.0,,Slider,Slider,4.0,object-56,temp_dist_trial,30.0,s_sh_14_1,student_shared,printer,3.0,competing,paired,s_sh_14_1.jpg,Student,$${counterbalance_group},,sub-84
Desktop or Laptop,Windows 10,Chrome 138.0.0.0,1920x1080,2133x1200,Temporal Distance Task,cb_03,30.0,temp_dist_trial,dist_items,qkpkxw,2.0,continue,,2964.700000000012,2948.1000000000067,2964.700000000012,2964.700000000012,2948.1000000000067,2964.700000000012,1.0,0.0,0.0,,Click To Continue,Next button,7.0,object-60,temp_dist_trial,30.0,s_sh_14_1,student_shared,printer,3.0,competing,paired,s_sh_14_1.jpg,Student,$${counterbalance_group},,sub-84
Desktop or Laptop,Windows 10,Chrome 138.0.0.0,1920x1080,2133x1200,Temporal Distance Task,cb_03,30.0,temp_dist_trial,dist_items,qkpkxw,2.0,response,41,1799.0,2948.1000000000067,2964.700000000012,1799.0,2948.1000000000067,2964.700000000012,1.0,1165.7000000000114,0.0,,Slider,Slider,4.0,object-56,temp_dist_trial,30.0,s_sh_14_1,student_shared,printer,3.0,competing,paired,s_sh_14_1.jpg,Student,$${counterbalance_group},,sub-84
Desktop or Laptop,Windows 10,Chrome 138.0.0.0,1920x1080,2133x1200,Temporal Distance Task,cb_03,31.0,temp_dist_trial,num_items,zn7si1,1.0,response,2_ITEM,1881.8999999999944,1865.5,1881.8999999999944,1881.8999999999944,1865.5,1881.8999999999944,1.0,0.0,0.0,,Click Response,2_count,5.0,object-49,temp_dist_trial,31.0,s_s_17_1,student_stem,ring stand,3.0,unique,paired,s_s_17_1.jpg,Student,$${counterbalance_group},,sub-84
Desktop or Laptop,Windows 10,Chrome 138.0.0.0,1920x1080,2133x1200,Temporal Distance Task,cb_03,31.0,temp_dist_trial,dist_items,qkpkxw,2.0,info,,4.999999998515705,0.0,4.999999998515705,4.999999998515705,0.0,4.999999998515705,1.0,0.0,0.0,,Slider,Slider,4.0,object-56,temp_dist_trial,31.0,s_s_17_1,student_stem,ring stand,3.0,unique,paired,s_s_17_1.jpg,Student,$${counterbalance_group},,sub-84
Desktop or Laptop,Windows 10,Chrome 138.0.0.0,1920x1080,2133x1200,Temporal Distance Task,cb_03,31.0,temp_dist_trial,dist_items,qkpkxw,2.0,continue,,2333.800000002986,2332.0,2333.800000002986,2333.800000002986,2332.0,2333.800000002986,1.0,0.0,0.0,,Click To Continue,Next button,7.0,object-60,temp_dist_trial,31.0,s_s_17_1,student_stem,ring stand,3.0,unique,paired,s_s_17_1.jpg,Student,$${counterbalance_group},,sub-84
Desktop or Laptop,Windows 10,Chrome 138.0.0.0,1920x1080,2133x1200,Temporal Distance Task,cb_03,31.0,temp_dist_trial,dist_items,qkpkxw,2.0,response,60,1216.0,2332.0,2338.1000000000063,1216.0,2332.0,2338.1000000000063,1.0,1122.1000000000058,0.0,,Slider,Slider,4.0,object-56,temp_dist_trial,31.0,s_s_17_1,student_stem,ring stand,3.0,unique,paired,s_s_17_1.jpg,Student,$${counterbalance_group},,sub-84
Desktop or Laptop,Windows 10,Chrome 138.0.0.0,1920x1080,2133x1200,Temporal Distance Task,cb_03,32.0,temp_dist_trial,num_items,zn7si1,1.0,response,1_ITEM,1355.4000000044764,1349.0,1355.4000000044764,1355.4000000044764,1349.0,1355.4000000044764,1.0,0.0,0.0,,Click Response,1_count,3.0,object-46,temp_dist_trial,32.0,s_s_09_1,student_stem,multimeter,3.0,unique,single,s_s_09_1.jpg,Student,$${counterbalance_group},,sub-84
Desktop or Laptop,Windows 10,Chrome 138.0.0.0,1920x1080,2133x1200,Temporal Distance Task,cb_03,33.0,temp_dist_trial,num_items,zn7si1,1.0,response,2_ITEM,1116.000000000029,1099.3000000000177,1116.000000000029,1116.000000000029,1099.3000000000177,1116.000000000029,1.0,0.0,0.0,,Click Response,2_count,5.0,object-49,temp_dist_trial,33.0,s_a_02_1,student_art,canvas,3.0,unique,single,s_a_02_1.jpg,Student,$${counterbalance_group},,sub-84
Desktop or Laptop,Windows 10,Chrome 138.0.0.0,1920x1080,2133x1200,Temporal Distance Task,cb_03,33.0,temp_dist_trial,dist_items,qkpkxw,2.0,info,,4.400000004476169,0.0,4.400000004476169,4.400000004476169,0.0,4.400000004476169,1.0,0.0,0.0,,Slider,Slider,4.0,object-56,temp_dist_trial,33.0,s_a_02_1,student_art,canvas,3.0,unique,single,s_a_02_1.jpg,Student,$${counterbalance_group},,sub-84
Desktop or Laptop,Windows 10,Chrome 138.0.0.0,1920x1080,2133x1200,Temporal Distance Task,cb_03,33.0,temp_dist_trial,dist_items,qkpkxw,2.0,continue,,2313.4999999985157,2298.6000000000063,2313.4999999985157,2313.4999999985157,2298.6000000000063,2313.4999999985157,1.0,0.0,0.0,,Click To Continue,Next button,7.0,object-60,temp_dist_trial,33.0,s_a_02_1,student_art,canvas,3.0,unique,single,s_a_02_1.jpg,Student,$${counterbalance_group},,sub-84
Desktop or Laptop,Windows 10,Chrome 138.0.0.0,1920x1080,2133x1200,Temporal Distance Task,cb_03,33.0,temp_dist_trial,dist_items,qkpkxw,2.0,response,57,1199.3000000000175,2298.6000000000063,2313.800000002986,1199.3000000000175,2298.6000000000063,2313.800000002986,1.0,1114.5000000029686,0.0,,Slider,Slider,4.0,object-56,temp_dist_trial,33.0,s_a_02_1,student_art,canvas,3.0,unique,single,s_a_02_1.jpg,Student,$${counterbalance_group},,sub-84
Desktop or Laptop,Windows 10,Chrome 138.0.0.0,1920x1080,2133x1200,Temporal Distance Task,cb_03,34.0,temp_dist_trial,num_items,zn7si1,1.0,response,1_ITEM,1053.1000000014901,1049.2999999999884,1053.1000000014901,1053.1000000014901,1049.2999999999884,1053.1000000014901,1.0,0.0,0.0,,Click Response,1_count,3.0,object-46,temp_dist_trial,34.0,s_a_13_1,student_art,violin,3.0,unique,paired,s_a_13_1.jpg,Student,$${counterbalance_group},,sub-84
Desktop or Laptop,Windows 10,Chrome 138.0.0.0,1920x1080,2133x1200,Temporal Distance Task,cb_03,35.0,temp_dist_trial,num_items,zn7si1,1.0,response,2_ITEM,1298.300000002986,1282.3000000000175,1298.300000002986,1298.300000002986,1282.3000000000175,1298.300000002986,1.0,0.0,0.0,,Click Response,2_count,5.0,object-49,temp_dist_trial,35.0,s_sh_10_1,student_shared,scissors,3.0,competing,paired,s_sh_10_1.jpg,Student,$${counterbalance_group},,sub-84
Desktop or Laptop,Windows 10,Chrome 138.0.0.0,1920x1080,2133x1200,Temporal Distance Task,cb_03,35.0,temp_dist_trial,dist_items,qkpkxw,2.0,info,,4.1000000029744115,0.0,4.1000000029744115,4.1000000029744115,0.0,4.1000000029744115,1.0,0.0,0.0,,Slider,Slider,4.0,object-56,temp_dist_trial,35.0,s_sh_10_1,student_shared,scissors,3.0,competing,paired,s_sh_10_1.jpg,Student,$${counterbalance_group},,sub-84
Desktop or Laptop,Windows 10,Chrome 138.0.0.0,1920x1080,2133x1200,Temporal Distance Task,cb_03,35.0,temp_dist_trial,dist_items,qkpkxw,2.0,continue,,2326.1000000029744,2315.3999999999937,2326.1000000029744,2326.1000000029744,2315.3999999999937,2326.1000000029744,1.0,0.0,0.0,,Click To Continue,Next button,7.0,object-60,temp_dist_trial,35.0,s_sh_10_1,student_shared,scissors,3.0,competing,paired,s_sh_10_1.jpg,Student,$${counterbalance_group},,sub-84
Desktop or Laptop,Windows 10,Chrome 138.0.0.0,1920x1080,2133x1200,Temporal Distance Task,cb_03,35.0,temp_dist_trial,dist_items,qkpkxw,2.0,response,46,1149.2999999999886,2315.3999999999937,2329.8999999999937,1149.2999999999886,2315.3999999999937,2329.8999999999937,1.0,1180.6000000000058,0.0,,Slider,Slider,4.0,object-56,temp_dist_trial,35.0,s_sh_10_1,student_shared,scissors,3.0,competing,paired,s_sh_10_1.jpg,Student,$${counterbalance_group},,sub-84
Desktop or Laptop,Windows 10,Chrome 138.0.0.0,1920x1080,2133x1200,Temporal Distance Task,cb_03,36.0,temp_dist_trial,num_items,zn7si1,1.0,response,1_ITEM,2060.3999999985103,2048.5,2060.3999999985103,2060.3999999985103,2048.5,2060.3999999985103,1.0,0.0,0.0,,Click Response,1_count,3.0,object-46,temp_dist_trial,36.0,s_sh_03_1,student_shared,highlighter,3.0,competing,single,s_sh_03_1.jpg,Student,$${counterbalance_group},,sub-84
Desktop or Laptop,Windows 10,Chrome 138.0.0.0,1920x1080,2133x1200,Temporal Distance Task,cb_03,37.0,temp_dist_trial,num_items,zn7si1,1.0,response,2_ITEM,1084.799999998504,1082.2999999999884,1084.799999998504,1084.799999998504,1082.2999999999884,1084.799999998504,1.0,0.0,0.0,,Click Response,2_count,5.0,object-49,temp_dist_trial,37.0,s_sh_12_1,student_shared,binder,3.0,competing,paired,s_sh_12_1.jpg,Student,$${counterbalance_group},,sub-84
Desktop or Laptop,Windows 10,Chrome 138.0.0.0,1920x1080,2133x1200,Temporal Distance Task,cb_03,37.0,temp_dist_trial,dist_items,qkpkxw,2.0,info,,4.0999999985215245,0.0,4.0999999985215245,4.0999999985215245,0.0,4.0999999985215245,1.0,0.0,0.0,,Slider,Slider,4.0,object-56,temp_dist_trial,37.0,s_sh_12_1,student_shared,binder,3.0,competing,paired,s_sh_12_1.jpg,Student,$${counterbalance_group},,sub-84
Desktop or Laptop,Windows 10,Chrome 138.0.0.0,1920x1080,2133x1200,Temporal Distance Task,cb_03,37.0,temp_dist_trial,dist_items,qkpkxw,2.0,continue,,1822.4000000029919,1815.6000000000056,1822.4000000029919,1822.4000000029919,1815.6000000000056,1822.4000000029919,1.0,0.0,0.0,,Click To Continue,Next button,7.0,object-60,temp_dist_trial,37.0,s_sh_12_1,student_shared,binder,3.0,competing,paired,s_sh_12_1.jpg,Student,$${counterbalance_group},,sub-84
Desktop or Laptop,Windows 10,Chrome 138.0.0.0,1920x1080,2133x1200,Temporal Distance Task,cb_03,37.0,temp_dist_trial,dist_items,qkpkxw,2.0,response,48,916.0,1815.6000000000056,1822.599999998521,916.0,1815.6000000000056,1822.599999998521,1.0,906.5999999985215,0.0,,Slider,Slider,4.0,object-56,temp_dist_trial,37.0,s_sh_12_1,student_shared,binder,3.0,competing,paired,s_sh_12_1.jpg,Student,$${counterbalance_group},,sub-84
Desktop or Laptop,Windows 10,Chrome 138.0.0.0,1920x1080,2133x1200,Temporal Distance Task,cb_03,38.0,temp_dist_trial,num_items,zn7si1,1.0,response,2_ITEM,1600.700000001496,1598.8000000000175,1600.700000001496,1600.700000001496,1598.8000000000175,1600.700000001496,1.0,0.0,0.0,,Click Response,2_count,5.0,object-49,temp_dist_trial,38.0,s_s_13_1,student_stem,telescope,3.0,unique,paired,s_s_13_1.jpg,Student,$${counterbalance_group},,sub-84
Desktop or Laptop,Windows 10,Chrome 138.0.0.0,1920x1080,2133x1200,Temporal Distance Task,cb_03,38.0,temp_dist_trial,dist_items,qkpkxw,2.0,info,,3.1000000000058208,0.0,3.1000000000058208,3.1000000000058208,0.0,3.1000000000058208,1.0,0.0,0.0,,Slider,Slider,4.0,object-56,temp_dist_trial,38.0,s_s_13_1,student_stem,telescope,3.0,unique,paired,s_s_13_1.jpg,Student,$${counterbalance_group},,sub-84
Desktop or Laptop,Windows 10,Chrome 138.0.0.0,1920x1080,2133x1200,Temporal Distance Task,cb_03,38.0,temp_dist_trial,dist_items,qkpkxw,2.0,continue,,2898.6000000000067,2897.8999999999933,2898.6000000000067,2898.6000000000067,2897.8999999999933,2898.6000000000067,1.0,0.0,0.0,,Click To Continue,Next button,7.0,object-60,temp_dist_trial,38.0,s_s_13_1,student_stem,telescope,3.0,unique,paired,s_s_13_1.jpg,Student,$${counterbalance_group},,sub-84
Desktop or Laptop,Windows 10,Chrome 138.0.0.0,1920x1080,2133x1200,Temporal Distance Task,cb_03,38.0,temp_dist_trial,dist_items,qkpkxw,2.0,response,53,1548.8000000000175,2897.8999999999933,2902.200000001496,1548.8000000000175,2897.8999999999933,2902.200000001496,1.0,1353.4000000014785,0.0,,Slider,Slider,4.0,object-56,temp_dist_trial,38.0,s_s_13_1,student_stem,telescope,3.0,unique,paired,s_s_13_1.jpg,Student,$${counterbalance_group},,sub-84
Desktop or Laptop,Windows 10,Chrome 138.0.0.0,1920x1080,2133x1200,Temporal Distance Task,cb_03,39.0,temp_dist_trial,num_items,zn7si1,1.0,response,1_ITEM,1917.9000000029919,1915.6000000000056,1917.9000000029919,1917.9000000029919,1915.6000000000056,1917.9000000029919,1.0,0.0,0.0,,Click Response,1_count,3.0,object-46,temp_dist_trial,39.0,s_sh_19_1,student_shared,portable plastic drawer,3.0,competing,single,s_sh_19_1.jpg,Student,$${counterbalance_group},,sub-84
Desktop or Laptop,Windows 10,Chrome 138.0.0.0,1920x1080,2133x1200,Temporal Distance Task,cb_03,40.0,temp_dist_trial,num_items,zn7si1,1.0,response,2_ITEM,1428.3000000044706,1416.1000000000058,1428.3000000044706,1428.3000000044706,1416.1000000000058,1428.3000000044706,1.0,0.0,0.0,,Click Response,2_count,5.0,object-49,temp_dist_trial,40.0,s_a_09_1,student_art,picture frame,3.0,unique,paired,s_a_09_1.jpg,Student,$${counterbalance_group},,sub-84
Desktop or Laptop,Windows 10,Chrome 138.0.0.0,1920x1080,2133x1200,Temporal Distance Task,cb_03,40.0,temp_dist_trial,dist_items,qkpkxw,2.0,info,,4.6999999984982415,0.0,4.6999999984982415,4.6999999984982415,0.0,4.6999999984982415,1.0,0.0,0.0,,Slider,Slider,4.0,object-56,temp_dist_trial,40.0,s_a_09_1,student_art,picture frame,3.0,unique,paired,s_a_09_1.jpg,Student,$${counterbalance_group},,sub-84
Desktop or Laptop,Windows 10,Chrome 138.0.0.0,1920x1080,2133x1200,Temporal Distance Task,cb_03,40.0,temp_dist_trial,dist_items,qkpkxw,2.0,continue,,2755.2999999999884,2748.2999999999884,2755.2999999999884,2755.2999999999884,2748.2999999999884,2755.2999999999884,1.0,0.0,0.0,,Click To Continue,Next button,7.0,object-60,temp_dist_trial,40.0,s_a_09_1,student_art,picture frame,3.0,unique,paired,s_a_09_1.jpg,Student,$${counterbalance_group},,sub-84
Desktop or Laptop,Windows 10,Chrome 138.0.0.0,1920x1080,2133x1200,Temporal Distance Task,cb_03,40.0,temp_dist_trial,dist_items,qkpkxw,2.0,response,41,1199.1999999999825,2748.2999999999884,2755.5000000029686,1199.1999999999825,2748.2999999999884,2755.5000000029686,1.0,1556.300000002986,0.0,,Slider,Slider,4.0,object-56,temp_dist_trial,40.0,s_a_09_1,student_art,picture frame,3.0,unique,paired,s_a_09_1.jpg,Student,$${counterbalance_group},,sub-84
Desktop or Laptop,Windows 10,Chrome 138.0.0.0,1920x1080,2133x1200,Temporal Distance Task,cb_03,41.0,temp_dist_trial,num_items,zn7si1,1.0,response,1_ITEM,1469.8000000044706,1466.2000000000116,1469.8000000044706,1469.8000000044706,1466.2000000000116,1469.8000000044706,1.0,0.0,0.0,,Click Response,1_count,3.0,object-46,temp_dist_trial,41.0,s_sh_22_1,student_shared,hole puncher,3.0,competing,paired,s_sh_22_1.jpg,Student,$${counterbalance_group},,sub-84
Desktop or Laptop,Windows 10,Chrome 138.0.0.0,1920x1080,2133x1200,Temporal Distance Task,cb_03,42.0,temp_dist_trial,num_items,zn7si1,1.0,response,1_ITEM,1445.0999999985215,1432.2000000000116,1445.0999999985215,1445.0999999985215,1432.2000000000116,1445.0999999985215,1.0,0.0,0.0,,Click Response,1_count,3.0,object-46,temp_dist_trial,42.0,s_sh_02_1,student_shared,eraser,3.0,competing,single,s_sh_02_1.jpg,Student,$${counterbalance_group},,sub-84
Desktop or Laptop,Windows 10,Chrome 138.0.0.0,1920x1080,2133x1200,Temporal Distance Task,cb_03,43.0,temp_dist_trial,num_items,zn7si1,1.0,response,2_ITEM,1598.2000000000116,1582.1000000000058,1598.2000000000116,1598.2000000000116,1582.1000000000058,1598.2000000000116,1.0,0.0,0.0,,Click Response,2_count,5.0,object-49,temp_dist_trial,43.0,s_sh_18_1,student_shared,wall calendar,3.0,competing,paired,s_sh_18_1.jpg,Student,$${counterbalance_group},,sub-84
Desktop or Laptop,Windows 10,Chrome 138.0.0.0,1920x1080,2133x1200,Temporal Distance Task,cb_03,43.0,temp_dist_trial,dist_items,qkpkxw,2.0,info,,3.1000000000058208,0.0,3.1000000000058208,3.1000000000058208,0.0,3.1000000000058208,1.0,0.0,0.0,,Slider,Slider,4.0,object-56,temp_dist_trial,43.0,s_sh_18_1,student_shared,wall calendar,3.0,competing,paired,s_sh_18_1.jpg,Student,$${counterbalance_group},,sub-84
Desktop or Laptop,Windows 10,Chrome 138.0.0.0,1920x1080,2133x1200,Temporal Distance Task,cb_03,43.0,temp_dist_trial,dist_items,qkpkxw,2.0,continue,,2319.900000004476,2315.300000000017,2319.900000004476,2319.900000004476,2315.300000000017,2319.900000004476,1.0,0.0,0.0,,Click To Continue,Next button,7.0,object-60,temp_dist_trial,43.0,s_sh_18_1,student_shared,wall calendar,3.0,competing,paired,s_sh_18_1.jpg,Student,$${counterbalance_group},,sub-84
Desktop or Laptop,Windows 10,Chrome 138.0.0.0,1920x1080,2133x1200,Temporal Distance Task,cb_03,43.0,temp_dist_trial,dist_items,qkpkxw,2.0,response,39,1265.8000000000175,2315.300000000017,2320.1000000000063,1265.8000000000175,2315.300000000017,2320.1000000000063,1.0,1054.2999999999884,0.0,,Slider,Slider,4.0,object-56,temp_dist_trial,43.0,s_sh_18_1,student_shared,wall calendar,3.0,competing,paired,s_sh_18_1.jpg,Student,$${counterbalance_group},,sub-84
Desktop or Laptop,Windows 10,Chrome 138.0.0.0,1920x1080,2133x1200,Temporal Distance Task,cb_03,44.0,temp_dist_trial,num_items,zn7si1,1.0,response,1_ITEM,1365.6000000000058,1349.0,1365.6000000000058,1365.6000000000058,1349.0,1365.6000000000058,1.0,0.0,0.0,,Click Response,1_count,3.0,object-46,temp_dist_trial,44.0,s_sh_13_1,student_shared,index cards,3.0,competing,paired,s_sh_13_1.jpg,Student,$${counterbalance_group},,sub-84
Desktop or Laptop,Windows 10,Chrome 138.0.0.0,1920x1080,2133x1200,Temporal Distance Task,cb_03,45.0,temp_dist_trial,num_items,zn7si1,1.0,response,1_ITEM,1398.6000000000058,1382.5,1398.6000000000058,1398.6000000000058,1382.5,1398.6000000000058,1.0,0.0,0.0,,Click Response,1_count,3.0,object-46,temp_dist_trial,45.0,s_sh_24_1,student_shared,desk organizer,3.0,competing,paired,s_sh_24_1.jpg,Student,$${counterbalance_group},,sub-84
Desktop or Laptop,Windows 10,Chrome 138.0.0.0,1920x1080,2133x1200,Temporal Distance Task,cb_03,46.0,temp_dist_trial,num_items,zn7si1,1.0,response,1_ITEM,1728.0000000029684,1715.3999999999942,1728.0000000029684,1728.0000000029684,1715.3999999999942,1728.0000000029684,1.0,0.0,0.0,,Click Response,1_count,3.0,object-46,temp_dist_trial,46.0,s_sh_07_1,student_shared,ruler,3.0,competing,single,s_sh_07_1.jpg,Student,$${counterbalance_group},,sub-84
Desktop or Laptop,Windows 10,Chrome 138.0.0.0,1920x1080,2133x1200,Temporal Distance Task,cb_03,47.0,temp_dist_trial,num_items,zn7si1,1.0,response,1_ITEM,1284.4999999985155,1282.5,1284.4999999985155,1284.4999999985155,1282.5,1284.4999999985155,1.0,0.0,0.0,,Click Response,1_count,3.0,object-46,temp_dist_trial,47.0,s_sh_17_1,student_shared,wireless mouse,3.0,competing,paired,s_sh_17_1.jpg,Student,$${counterbalance_group},,sub-84
Desktop or Laptop,Windows 10,Chrome 138.0.0.0,1920x1080,2133x1200,Temporal Distance Task,cb_03,48.0,temp_dist_trial,num_items,zn7si1,1.0,response,2_ITEM,1714.2000000000116,1698.9000000000233,1714.2000000000116,1714.2000000000116,1698.9000000000233,1714.2000000000116,1.0,0.0,0.0,,Click Response,2_count,5.0,object-49,temp_dist_trial,48.0,s_sh_05_1,student_shared,laptop,3.0,competing,single,s_sh_05_1.jpg,Student,$${counterbalance_group},,sub-84
Desktop or Laptop,Windows 10,Chrome 138.0.0.0,1920x1080,2133x1200,Temporal Distance Task,cb_03,48.0,temp_dist_trial,dist_items,qkpkxw,2.0,info,,2.9000000044761687,0.0,2.9000000044761687,2.9000000044761687,0.0,2.9000000044761687,1.0,0.0,0.0,,Slider,Slider,4.0,object-56,temp_dist_trial,48.0,s_sh_05_1,student_shared,laptop,3.0,competing,single,s_sh_05_1.jpg,Student,$${counterbalance_group},,sub-84
Desktop or Laptop,Windows 10,Chrome 138.0.0.0,1920x1080,2133x1200,Temporal Distance Task,cb_03,48.0,temp_dist_trial,dist_items,qkpkxw,2.0,continue,,2591.6000000000063,2581.8999999999937,2591.6000000000063,2591.6000000000063,2581.8999999999937,2591.6000000000063,1.0,0.0,0.0,,Click To Continue,Next button,7.0,object-60,temp_dist_trial,48.0,s_sh_05_1,student_shared,laptop,3.0,competing,single,s_sh_05_1.jpg,Student,$${counterbalance_group},,sub-84
Desktop or Laptop,Windows 10,Chrome 138.0.0.0,1920x1080,2133x1200,Temporal Distance Task,cb_03,48.0,temp_dist_trial,dist_items,qkpkxw,2.0,response,61,1432.5,2581.8999999999937,2591.700000001496,1432.5,2581.8999999999937,2591.700000001496,1.0,1159.200000001496,0.0,,Slider,Slider,4.0,object-56,temp_dist_trial,48.0,s_sh_05_1,student_shared,laptop,3.0,competing,single,s_sh_05_1.jpg,Student,$${counterbalance_group},,sub-84
Desktop or Laptop,Windows 10,Chrome 138.0.0.0,1920x1080,2133x1200,Temporal Distance Task,cb_03,2.0,temp_eventStart,Screen 1,dgtyxe,1.0,continue,,3806.5999999985215,3797.700000000012,3806.5999999985215,3806.5999999985215,3797.700000000012,3806.5999999985215,1.0,0.0,0.0,,Click To Continue,Next Button,3.0,object-43,temp_eventStart,,,Travel,,,,,,,$${counterbalance_group},,sub-84
Desktop or Laptop,Windows 10,Chrome 138.0.0.0,1920x1080,2133x1200,Temporal Distance Task,cb_03,49.0,temp_dist_trial,num_items,zn7si1,1.0,response,2_ITEM,2461.8999999985103,2448.3999999999937,2461.8999999985103,2461.8999999985103,2448.3999999999937,2461.8999999985103,1.0,0.0,0.0,,Click Response,2_count,5.0,object-49,temp_dist_trial,1.0,t_s_14_1,travel_shared,hand sanitizer,3.0,competing,paired,t_s_14_1.jpg,Travel,$${counterbalance_group},,sub-84
Desktop or Laptop,Windows 10,Chrome 138.0.0.0,1920x1080,2133x1200,Temporal Distance Task,cb_03,49.0,temp_dist_trial,dist_items,qkpkxw,2.0,info,,3.1000000029744115,0.0,3.1000000029744115,3.1000000029744115,0.0,3.1000000029744115,1.0,0.0,0.0,,Slider,Slider,4.0,object-56,temp_dist_trial,1.0,t_s_14_1,travel_shared,hand sanitizer,3.0,competing,paired,t_s_14_1.jpg,Travel,$${counterbalance_group},,sub-84
Desktop or Laptop,Windows 10,Chrome 138.0.0.0,1920x1080,2133x1200,Temporal Distance Task,cb_03,49.0,temp_dist_trial,dist_items,qkpkxw,2.0,continue,,2427.2000000044645,2415.1000000000063,2427.2000000044645,2427.2000000044645,2415.1000000000063,2427.2000000044645,1.0,0.0,0.0,,Click To Continue,Next button,7.0,object-60,temp_dist_trial,1.0,t_s_14_1,travel_shared,hand sanitizer,3.0,competing,paired,t_s_14_1.jpg,Travel,$${counterbalance_group},,sub-84
Desktop or Laptop,Windows 10,Chrome 138.0.0.0,1920x1080,2133x1200,Temporal Distance Task,cb_03,49.0,temp_dist_trial,dist_items,qkpkxw,2.0,response,58,1365.8999999999942,2415.1000000000063,2430.1000000029744,1365.8999999999942,2415.1000000000063,2430.1000000029744,1.0,1064.2000000029802,0.0,,Slider,Slider,4.0,object-56,temp_dist_trial,1.0,t_s_14_1,travel_shared,hand sanitizer,3.0,competing,paired,t_s_14_1.jpg,Travel,$${counterbalance_group},,sub-84
Desktop or Laptop,Windows 10,Chrome 138.0.0.0,1920x1080,2133x1200,Temporal Distance Task,cb_03,50.0,temp_dist_trial,num_items,zn7si1,1.0,response,2_ITEM,1219.1999999984982,1215.8999999999942,1219.1999999984982,1219.1999999984982,1215.8999999999942,1219.1999999984982,1.0,0.0,0.0,,Click Response,2_count,5.0,object-49,temp_dist_trial,2.0,t_s_01_1,travel_shared,fanny pack,3.0,competing,paired,t_s_01_1.jpg,Travel,$${counterbalance_group},,sub-84
Desktop or Laptop,Windows 10,Chrome 138.0.0.0,1920x1080,2133x1200,Temporal Distance Task,cb_03,50.0,temp_dist_trial,dist_items,qkpkxw,2.0,info,,3.2000000000116415,0.0,3.2000000000116415,3.2000000000116415,0.0,3.2000000000116415,1.0,0.0,0.0,,Slider,Slider,4.0,object-56,temp_dist_trial,2.0,t_s_01_1,travel_shared,fanny pack,3.0,competing,paired,t_s_01_1.jpg,Travel,$${counterbalance_group},,sub-84
Desktop or Laptop,Windows 10,Chrome 138.0.0.0,1920x1080,2133x1200,Temporal Distance Task,cb_03,50.0,temp_dist_trial,dist_items,qkpkxw,2.0,continue,,2059.200000000012,2048.8000000000175,2059.200000000012,2059.200000000012,2048.8000000000175,2059.200000000012,1.0,0.0,0.0,,Click To Continue,Next button,7.0,object-60,temp_dist_trial,2.0,t_s_01_1,travel_shared,fanny pack,3.0,competing,paired,t_s_01_1.jpg,Travel,$${counterbalance_group},,sub-84
Desktop or Laptop,Windows 10,Chrome 138.0.0.0,1920x1080,2133x1200,Temporal Distance Task,cb_03,50.0,temp_dist_trial,dist_items,qkpkxw,2.0,response,53,1016.2000000000116,2048.8000000000175,2059.500000004482,1016.2000000000116,2048.8000000000175,2059.500000004482,1.0,1043.3000000044703,0.0,,Slider,Slider,4.0,object-56,temp_dist_trial,2.0,t_s_01_1,travel_shared,fanny pack,3.0,competing,paired,t_s_01_1.jpg,Travel,$${counterbalance_group},,sub-84
Desktop or Laptop,Windows 10,Chrome 138.0.0.0,1920x1080,2133x1200,Temporal Distance Task,cb_03,51.0,temp_dist_trial,num_items,zn7si1,1.0,response,1_ITEM,2594.799999998504,2581.6000000000063,2594.799999998504,2594.799999998504,2581.6000000000063,2594.799999998504,1.0,0.0,0.0,,Click Response,1_count,3.0,object-46,temp_dist_trial,3.0,t_m_16_1,travel_Miami,flippers,3.0,unique,single,t_m_16_1.jpg,Travel,$${counterbalance_group},,sub-84
Desktop or Laptop,Windows 10,Chrome 138.0.0.0,1920x1080,2133x1200,Temporal Distance Task,cb_03,52.0,temp_dist_trial,num_items,zn7si1,1.0,response,2_ITEM,1292.4000000014785,1282.5,1292.4000000014785,1292.4000000014785,1282.5,1292.4000000014785,1.0,0.0,0.0,,Click Response,2_count,5.0,object-49,temp_dist_trial,4.0,t_s_06_1,travel_shared,luggage,3.0,competing,paired,t_s_06_1.jpg,Travel,$${counterbalance_group},,sub-84
Desktop or Laptop,Windows 10,Chrome 138.0.0.0,1920x1080,2133x1200,Temporal Distance Task,cb_03,52.0,temp_dist_trial,dist_items,qkpkxw,2.0,info,,6.300000001501759,0.0,6.300000001501759,6.300000001501759,0.0,6.300000001501759,1.0,0.0,0.0,,Slider,Slider,4.0,object-56,temp_dist_trial,4.0,t_s_06_1,travel_shared,luggage,3.0,competing,paired,t_s_06_1.jpg,Travel,$${counterbalance_group},,sub-84
Desktop or Laptop,Windows 10,Chrome 138.0.0.0,1920x1080,2133x1200,Temporal Distance Task,cb_03,52.0,temp_dist_trial,dist_items,qkpkxw,2.0,continue,,2264.700000000012,2248.700000000012,2264.700000000012,2264.700000000012,2248.700000000012,2264.700000000012,1.0,0.0,0.0,,Click To Continue,Next button,7.0,object-60,temp_dist_trial,4.0,t_s_06_1,travel_shared,luggage,3.0,competing,paired,t_s_06_1.jpg,Travel,$${counterbalance_group},,sub-84
Desktop or Laptop,Windows 10,Chrome 138.0.0.0,1920x1080,2133x1200,Temporal Distance Task,cb_03,52.0,temp_dist_trial,dist_items,qkpkxw,2.0,response,56,1133.3000000000175,2248.700000000012,2265.300000000017,1133.3000000000175,2248.700000000012,2265.300000000017,1.0,1132.0,0.0,,Slider,Slider,4.0,object-56,temp_dist_trial,4.0,t_s_06_1,travel_shared,luggage,3.0,competing,paired,t_s_06_1.jpg,Travel,$${counterbalance_group},,sub-84
Desktop or Laptop,Windows 10,Chrome 138.0.0.0,1920x1080,2133x1200,Temporal Distance Task,cb_03,53.0,temp_dist_trial,num_items,zn7si1,1.0,response,1_ITEM,1222.8999999985099,1216.1000000000058,1222.8999999985099,1222.8999999985099,1216.1000000000058,1222.8999999985099,1.0,0.0,0.0,,Click Response,1_count,3.0,object-46,temp_dist_trial,5.0,t_i_19_1,travel_Iceland,rope,3.0,unique,single,t_i_19_1.jpg,Travel,$${counterbalance_group},,sub-84
Desktop or Laptop,Windows 10,Chrome 138.0.0.0,1920x1080,2133x1200,Temporal Distance Task,cb_03,54.0,temp_dist_trial,num_items,zn7si1,1.0,response,2_ITEM,1169.3000000015018,1165.9000000000233,1169.3000000015018,1169.3000000015018,1165.9000000000233,1169.3000000015018,1.0,0.0,0.0,,Click Response,2_count,5.0,object-49,temp_dist_trial,6.0,t_s_19_1,travel_shared,pajamas,3.0,competing,paired,t_s_19_1.jpg,Travel,$${counterbalance_group},,sub-84
Desktop or Laptop,Windows 10,Chrome 138.0.0.0,1920x1080,2133x1200,Temporal Distance Task,cb_03,54.0,temp_dist_trial,dist_items,qkpkxw,2.0,info,,6.200000002980232,0.0,6.200000002980232,6.200000002980232,0.0,6.200000002980232,1.0,0.0,0.0,,Slider,Slider,4.0,object-56,temp_dist_trial,6.0,t_s_19_1,travel_shared,pajamas,3.0,competing,paired,t_s_19_1.jpg,Travel,$${counterbalance_group},,sub-84
Desktop or Laptop,Windows 10,Chrome 138.0.0.0,1920x1080,2133x1200,Temporal Distance Task,cb_03,54.0,temp_dist_trial,dist_items,qkpkxw,2.0,continue,,1934.3999999985092,1932.6000000000056,1934.3999999985092,1934.3999999985092,1932.6000000000056,1934.3999999985092,1.0,0.0,0.0,,Click To Continue,Next button,7.0,object-60,temp_dist_trial,6.0,t_s_19_1,travel_shared,pajamas,3.0,competing,paired,t_s_19_1.jpg,Travel,$${counterbalance_group},,sub-84
Desktop or Laptop,Windows 10,Chrome 138.0.0.0,1920x1080,2133x1200,Temporal Distance Task,cb_03,54.0,temp_dist_trial,dist_items,qkpkxw,2.0,response,55,982.7999999999884,1932.6000000000056,1934.60000000149,982.7999999999884,1932.6000000000056,1934.60000000149,1.0,951.8000000015018,0.0,,Slider,Slider,4.0,object-56,temp_dist_trial,6.0,t_s_19_1,travel_shared,pajamas,3.0,competing,paired,t_s_19_1.jpg,Travel,$${counterbalance_group},,sub-84
Desktop or Laptop,Windows 10,Chrome 138.0.0.0,1920x1080,2133x1200,Temporal Distance Task,cb_03,55.0,temp_dist_trial,num_items,zn7si1,1.0,response,1_ITEM,1327.299999998504,1315.8999999999942,1327.299999998504,1327.299999998504,1315.8999999999942,1327.299999998504,1.0,0.0,0.0,,Click Response,1_count,3.0,object-46,temp_dist_trial,7.0,t_s_17_1,travel_shared,toothbrush,3.0,competing,single,t_s_17_1.jpg,Travel,$${counterbalance_group},,sub-84
Desktop or Laptop,Windows 10,Chrome 138.0.0.0,1920x1080,2133x1200,Temporal Distance Task,cb_03,56.0,temp_dist_trial,num_items,zn7si1,1.0,response,1_ITEM,1188.300000002986,1182.7000000000114,1188.300000002986,1188.300000002986,1182.7000000000114,1188.300000002986,1.0,0.0,0.0,,Click Response,1_count,3.0,object-46,temp_dist_trial,8.0,t_s_11_1,travel_shared,eye mask,3.0,competing,single,t_s_11_1.jpg,Travel,$${counterbalance_group},,sub-84
Desktop or Laptop,Windows 10,Chrome 138.0.0.0,1920x1080,2133x1200,Temporal Distance Task,cb_03,57.0,temp_dist_trial,num_items,zn7si1,1.0,response,2_ITEM,1518.9000000029919,1515.6000000000058,1518.9000000029919,1518.9000000029919,1515.6000000000058,1518.9000000029919,1.0,0.0,0.0,,Click Response,2_count,5.0,object-49,temp_dist_trial,9.0,t_s_23_1,travel_shared,ball cap,3.0,competing,paired,t_s_23_1.jpg,Travel,$${counterbalance_group},,sub-84
Desktop or Laptop,Windows 10,Chrome 138.0.0.0,1920x1080,2133x1200,Temporal Distance Task,cb_03,57.0,temp_dist_trial,dist_items,qkpkxw,2.0,info,,3.0999999985215254,0.0,3.0999999985215254,3.0999999985215254,0.0,3.0999999985215254,1.0,0.0,0.0,,Slider,Slider,4.0,object-56,temp_dist_trial,9.0,t_s_23_1,travel_shared,ball cap,3.0,competing,paired,t_s_23_1.jpg,Travel,$${counterbalance_group},,sub-84
Desktop or Laptop,Windows 10,Chrome 138.0.0.0,1920x1080,2133x1200,Temporal Distance Task,cb_03,57.0,temp_dist_trial,dist_items,qkpkxw,2.0,continue,,2425.000000004482,2415.200000000012,2425.000000004482,2425.000000004482,2415.200000000012,2425.000000004482,1.0,0.0,0.0,,Click To Continue,Next button,7.0,object-60,temp_dist_trial,9.0,t_s_23_1,travel_shared,ball cap,3.0,competing,paired,t_s_23_1.jpg,Travel,$${counterbalance_group},,sub-84
Desktop or Laptop,Windows 10,Chrome 138.0.0.0,1920x1080,2133x1200,Temporal Distance Task,cb_03,57.0,temp_dist_trial,dist_items,qkpkxw,2.0,response,58,1116.1000000000058,2415.200000000012,2429.000000004482,1116.1000000000058,2415.200000000012,2429.000000004482,1.0,1312.9000000044764,0.0,,Slider,Slider,4.0,object-56,temp_dist_trial,9.0,t_s_23_1,travel_shared,ball cap,3.0,competing,paired,t_s_23_1.jpg,Travel,$${counterbalance_group},,sub-84
Desktop or Laptop,Windows 10,Chrome 138.0.0.0,1920x1080,2133x1200,Temporal Distance Task,cb_03,58.0,temp_dist_trial,num_items,zn7si1,1.0,response,2_ITEM,2744.8999999985103,2731.5,2744.8999999985103,2744.8999999985103,2731.5,2744.8999999985103,1.0,0.0,0.0,,Click Response,2_count,5.0,object-49,temp_dist_trial,10.0,t_s_13_1,travel_shared,contact lens case,3.0,competing,paired,t_s_13_1.jpg,Travel,$${counterbalance_group},,sub-84
Desktop or Laptop,Windows 10,Chrome 138.0.0.0,1920x1080,2133x1200,Temporal Distance Task,cb_03,58.0,temp_dist_trial,dist_items,qkpkxw,2.0,info,,3.2999999985040627,0.0,3.2999999985040627,3.2999999985040627,0.0,3.2999999985040627,1.0,0.0,0.0,,Slider,Slider,4.0,object-56,temp_dist_trial,10.0,t_s_13_1,travel_shared,contact lens case,3.0,competing,paired,t_s_13_1.jpg,Travel,$${counterbalance_group},,sub-84
Desktop or Laptop,Windows 10,Chrome 138.0.0.0,1920x1080,2133x1200,Temporal Distance Task,cb_03,58.0,temp_dist_trial,dist_items,qkpkxw,2.0,continue,,2421.0000000014843,2415.0,2421.0000000014843,2421.0000000014843,2415.0,2421.0000000014843,1.0,0.0,0.0,,Click To Continue,Next button,7.0,object-60,temp_dist_trial,10.0,t_s_13_1,travel_shared,contact lens case,3.0,competing,paired,t_s_13_1.jpg,Travel,$${counterbalance_group},,sub-84
Desktop or Laptop,Windows 10,Chrome 138.0.0.0,1920x1080,2133x1200,Temporal Distance Task,cb_03,58.0,temp_dist_trial,dist_items,qkpkxw,2.0,response,41,1432.5,2415.0,2421.1000000029744,1432.5,2415.0,2421.1000000029744,1.0,988.6000000029744,0.0,,Slider,Slider,4.0,object-56,temp_dist_trial,10.0,t_s_13_1,travel_shared,contact lens case,3.0,competing,paired,t_s_13_1.jpg,Travel,$${counterbalance_group},,sub-84
Desktop or Laptop,Windows 10,Chrome 138.0.0.0,1920x1080,2133x1200,Temporal Distance Task,cb_03,59.0,temp_dist_trial,num_items,zn7si1,1.0,response,2_ITEM,1198.6000000029746,1182.6999999999825,1198.6000000029746,1198.6000000029746,1182.6999999999825,1198.6000000029746,1.0,0.0,0.0,,Click Response,2_count,5.0,object-49,temp_dist_trial,11.0,t_m_04_1,travel_Miami,UV jacket,3.0,unique,paired,t_m_04_1.jpg,Travel,$${counterbalance_group},,sub-84
Desktop or Laptop,Windows 10,Chrome 138.0.0.0,1920x1080,2133x1200,Temporal Distance Task,cb_03,59.0,temp_dist_trial,dist_items,qkpkxw,2.0,info,,3.3000000044703484,0.0,3.3000000044703484,3.3000000044703484,0.0,3.3000000044703484,1.0,0.0,0.0,,Slider,Slider,4.0,object-56,temp_dist_trial,11.0,t_m_04_1,travel_Miami,UV jacket,3.0,unique,paired,t_m_04_1.jpg,Travel,$${counterbalance_group},,sub-84
Desktop or Laptop,Windows 10,Chrome 138.0.0.0,1920x1080,2133x1200,Temporal Distance Task,cb_03,59.0,temp_dist_trial,dist_items,qkpkxw,2.0,continue,,2591.3999999985103,2581.700000000012,2591.3999999985103,2591.3999999985103,2581.700000000012,2591.3999999985103,1.0,0.0,0.0,,Click To Continue,Next button,7.0,object-60,temp_dist_trial,11.0,t_m_04_1,travel_Miami,UV jacket,3.0,unique,paired,t_m_04_1.jpg,Travel,$${counterbalance_group},,sub-84
Desktop or Laptop,Windows 10,Chrome 138.0.0.0,1920x1080,2133x1200,Temporal Distance Task,cb_03,59.0,temp_dist_trial,dist_items,qkpkxw,2.0,response,38,1282.5,2581.700000000012,2591.8999999985103,1282.5,2581.700000000012,2591.8999999985103,1.0,1309.3999999985099,0.0,,Slider,Slider,4.0,object-56,temp_dist_trial,11.0,t_m_04_1,travel_Miami,UV jacket,3.0,unique,paired,t_m_04_1.jpg,Travel,$${counterbalance_group},,sub-84
Desktop or Laptop,Windows 10,Chrome 138.0.0.0,1920x1080,2133x1200,Temporal Distance Task,cb_03,60.0,temp_dist_trial,num_items,zn7si1,1.0,response,1_ITEM,1384.6000000044587,1382.5,1384.6000000044587,1384.6000000044587,1382.5,1384.6000000044587,1.0,0.0,0.0,,Click Response,1_count,3.0,object-46,temp_dist_trial,12.0,t_s_08_1,travel_shared,hand lotion,3.0,competing,single,t_s_08_1.jpg,Travel,$${counterbalance_group},,sub-84
Desktop or Laptop,Windows 10,Chrome 138.0.0.0,1920x1080,2133x1200,Temporal Distance Task,cb_03,61.0,temp_dist_trial,num_items,zn7si1,1.0,response,2_ITEM,1567.5999999985215,1565.9000000000233,1567.5999999985215,1567.5999999985215,1565.9000000000233,1567.5999999985215,1.0,0.0,0.0,,Click Response,2_count,5.0,object-49,temp_dist_trial,13.0,t_m_15_1,travel_Miami,shorts,3.0,unique,single,t_m_15_1.jpg,Travel,$${counterbalance_group},,sub-84
Desktop or Laptop,Windows 10,Chrome 138.0.0.0,1920x1080,2133x1200,Temporal Distance Task,cb_03,61.0,temp_dist_trial,dist_items,qkpkxw,2.0,info,,3.200000002980232,0.0,3.200000002980232,3.200000002980232,0.0,3.200000002980232,1.0,0.0,0.0,,Slider,Slider,4.0,object-56,temp_dist_trial,13.0,t_m_15_1,travel_Miami,shorts,3.0,unique,single,t_m_15_1.jpg,Travel,$${counterbalance_group},,sub-84
Desktop or Laptop,Windows 10,Chrome 138.0.0.0,1920x1080,2133x1200,Temporal Distance Task,cb_03,61.0,temp_dist_trial,dist_items,qkpkxw,2.0,continue,,2342.7000000029802,2331.8999999999937,2342.7000000029802,2342.7000000029802,2331.8999999999937,2342.7000000029802,1.0,0.0,0.0,,Click To Continue,Next button,7.0,object-60,temp_dist_trial,13.0,t_m_15_1,travel_Miami,shorts,3.0,unique,single,t_m_15_1.jpg,Travel,$${counterbalance_group},,sub-84
Desktop or Laptop,Windows 10,Chrome 138.0.0.0,1920x1080,2133x1200,Temporal Distance Task,cb_03,61.0,temp_dist_trial,dist_items,qkpkxw,2.0,response,38,1116.0,2331.8999999999937,2342.8999999985103,1116.0,2331.8999999999937,2342.8999999985103,1.0,1226.8999999985099,0.0,,Slider,Slider,4.0,object-56,temp_dist_trial,13.0,t_m_15_1,travel_Miami,shorts,3.0,unique,single,t_m_15_1.jpg,Travel,$${counterbalance_group},,sub-84
Desktop or Laptop,Windows 10,Chrome 138.0.0.0,1920x1080,2133x1200,Temporal Distance Task,cb_03,62.0,temp_dist_trial,num_items,zn7si1,1.0,response,1_ITEM,1019.9999999985156,1016.6000000000058,1019.9999999985156,1019.9999999985156,1016.6000000000058,1019.9999999985156,1.0,0.0,0.0,,Click Response,1_count,3.0,object-46,temp_dist_trial,14.0,t_s_22_1,travel_shared,belt,3.0,competing,single,t_s_22_1.jpg,Travel,$${counterbalance_group},,sub-84
Desktop or Laptop,Windows 10,Chrome 138.0.0.0,1920x1080,2133x1200,Temporal Distance Task,cb_03,63.0,temp_dist_trial,num_items,zn7si1,1.0,response,2_ITEM,1137.6000000044587,1132.6999999999825,1137.6000000044587,1137.6000000044587,1132.6999999999825,1137.6000000044587,1.0,0.0,0.0,,Click Response,2_count,5.0,object-49,temp_dist_trial,15.0,t_m_01_1,travel_Miami,sandals,3.0,unique,paired,t_m_01_1.jpg,Travel,$${counterbalance_group},,sub-84
Desktop or Laptop,Windows 10,Chrome 138.0.0.0,1920x1080,2133x1200,Temporal Distance Task,cb_03,63.0,temp_dist_trial,dist_items,qkpkxw,2.0,info,,3.5000000044819903,0.0,3.5000000044819903,3.5000000044819903,0.0,3.5000000044819903,1.0,0.0,0.0,,Slider,Slider,4.0,object-56,temp_dist_trial,15.0,t_m_01_1,travel_Miami,sandals,3.0,unique,paired,t_m_01_1.jpg,Travel,$${counterbalance_group},,sub-84
Desktop or Laptop,Windows 10,Chrome 138.0.0.0,1920x1080,2133x1200,Temporal Distance Task,cb_03,63.0,temp_dist_trial,dist_items,qkpkxw,2.0,continue,,2836.000000004482,2831.800000000017,2836.000000004482,2836.000000004482,2831.800000000017,2836.000000004482,1.0,0.0,0.0,,Click To Continue,Next button,7.0,object-60,temp_dist_trial,15.0,t_m_01_1,travel_Miami,sandals,3.0,unique,paired,t_m_01_1.jpg,Travel,$${counterbalance_group},,sub-84
Desktop or Laptop,Windows 10,Chrome 138.0.0.0,1920x1080,2133x1200,Temporal Distance Task,cb_03,63.0,temp_dist_trial,dist_items,qkpkxw,2.0,response,57,1465.5,2831.800000000017,2836.400000002992,1465.5,2831.800000000017,2836.400000002992,1.0,1370.9000000029919,0.0,,Slider,Slider,4.0,object-56,temp_dist_trial,15.0,t_m_01_1,travel_Miami,sandals,3.0,unique,paired,t_m_01_1.jpg,Travel,$${counterbalance_group},,sub-84
Desktop or Laptop,Windows 10,Chrome 138.0.0.0,1920x1080,2133x1200,Temporal Distance Task,cb_03,64.0,temp_dist_trial,num_items,zn7si1,1.0,response,1_ITEM,1780.8999999999646,1765.1999999999825,1780.8999999999646,1780.8999999999646,1765.1999999999825,1780.8999999999646,1.0,0.0,0.0,,Click Response,1_count,3.0,object-46,temp_dist_trial,16.0,t_s_15_1,travel_shared,luggage tag,3.0,competing,paired,t_s_15_1.jpg,Travel,$${counterbalance_group},,sub-84
Desktop or Laptop,Windows 10,Chrome 138.0.0.0,1920x1080,2133x1200,Temporal Distance Task,cb_03,65.0,temp_dist_trial,num_items,zn7si1,1.0,response,1_ITEM,1800.5000000014843,1798.7999999999884,1800.5000000014843,1800.5000000014843,1798.7999999999884,1800.5000000014843,1.0,0.0,0.0,,Click Response,1_count,3.0,object-46,temp_dist_trial,17.0,t_s_20_1,travel_shared,travel pill case,3.0,competing,single,t_s_20_1.jpg,Travel,$${counterbalance_group},,sub-84
Desktop or Laptop,Windows 10,Chrome 138.0.0.0,1920x1080,2133x1200,Temporal Distance Task,cb_03,66.0,temp_dist_trial,num_items,zn7si1,1.0,response,1_ITEM,1339.5000000029684,1332.5999999999767,1339.5000000029684,1339.5000000029684,1332.5999999999767,1339.5000000029684,1.0,0.0,0.0,,Click Response,1_count,3.0,object-46,temp_dist_trial,18.0,t_i_15_1,travel_Iceland,compass,3.0,unique,paired,t_i_15_1.jpg,Travel,$${counterbalance_group},,sub-84
Desktop or Laptop,Windows 10,Chrome 138.0.0.0,1920x1080,2133x1200,Temporal Distance Task,cb_03,67.0,temp_dist_trial,num_items,zn7si1,1.0,response,2_ITEM,1439.5000000014843,1432.5,1439.5000000014843,1439.5000000014843,1432.5,1439.5000000014843,1.0,0.0,0.0,,Click Response,2_count,5.0,object-49,temp_dist_trial,19.0,t_m_10_1,travel_Miami,tanktop,3.0,unique,paired,t_m_10_1.jpg,Travel,$${counterbalance_group},,sub-84
Desktop or Laptop,Windows 10,Chrome 138.0.0.0,1920x1080,2133x1200,Temporal Distance Task,cb_03,67.0,temp_dist_trial,dist_items,qkpkxw,2.0,info,,3.4000000044761687,0.0,3.4000000044761687,3.4000000044761687,0.0,3.4000000044761687,1.0,0.0,0.0,,Slider,Slider,4.0,object-56,temp_dist_trial,19.0,t_m_10_1,travel_Miami,tanktop,3.0,unique,paired,t_m_10_1.jpg,Travel,$${counterbalance_group},,sub-84
Desktop or Laptop,Windows 10,Chrome 138.0.0.0,1920x1080,2133x1200,Temporal Distance Task,cb_03,67.0,temp_dist_trial,dist_items,qkpkxw,2.0,continue,,2816.0999999999767,2798.8999999999933,2816.0999999999767,2816.0999999999767,2798.8999999999933,2816.0999999999767,1.0,0.0,0.0,,Click To Continue,Next button,7.0,object-60,temp_dist_trial,19.0,t_m_10_1,travel_Miami,tanktop,3.0,unique,paired,t_m_10_1.jpg,Travel,$${counterbalance_group},,sub-84
Desktop or Laptop,Windows 10,Chrome 138.0.0.0,1920x1080,2133x1200,Temporal Distance Task,cb_03,67.0,temp_dist_trial,dist_items,qkpkxw,2.0,response,34,1382.5,2798.8999999999933,2816.0999999999767,1382.5,2798.8999999999933,2816.0999999999767,1.0,1433.5999999999767,0.0,,Slider,Slider,4.0,object-56,temp_dist_trial,19.0,t_m_10_1,travel_Miami,tanktop,3.0,unique,paired,t_m_10_1.jpg,Travel,$${counterbalance_group},,sub-84
Desktop or Laptop,Windows 10,Chrome 138.0.0.0,1920x1080,2133x1200,Temporal Distance Task,cb_03,68.0,temp_dist_trial,num_items,zn7si1,1.0,response,2_ITEM,1458.7000000000116,1448.4000000000233,1458.7000000000116,1458.7000000000116,1448.4000000000233,1458.7000000000116,1.0,0.0,0.0,,Click Response,2_count,5.0,object-49,temp_dist_trial,20.0,t_m_17_1,travel_Miami,water gun,3.0,unique,paired,t_m_17_1.jpg,Travel,$${counterbalance_group},,sub-84
Desktop or Laptop,Windows 10,Chrome 138.0.0.0,1920x1080,2133x1200,Temporal Distance Task,cb_03,68.0,temp_dist_trial,dist_items,qkpkxw,2.0,info,,3.700000002980232,0.0,3.700000002980232,3.700000002980232,0.0,3.700000002980232,1.0,0.0,0.0,,Slider,Slider,4.0,object-56,temp_dist_trial,20.0,t_m_17_1,travel_Miami,water gun,3.0,unique,paired,t_m_17_1.jpg,Travel,$${counterbalance_group},,sub-84
Desktop or Laptop,Windows 10,Chrome 138.0.0.0,1920x1080,2133x1200,Temporal Distance Task,cb_03,68.0,temp_dist_trial,dist_items,qkpkxw,2.0,continue,,2264.0,2248.6000000000063,2264.0,2264.0,2248.6000000000063,2264.0,1.0,0.0,0.0,,Click To Continue,Next button,7.0,object-60,temp_dist_trial,20.0,t_m_17_1,travel_Miami,water gun,3.0,unique,paired,t_m_17_1.jpg,Travel,$${counterbalance_group},,sub-84
Desktop or Laptop,Windows 10,Chrome 138.0.0.0,1920x1080,2133x1200,Temporal Distance Task,cb_03,68.0,temp_dist_trial,dist_items,qkpkxw,2.0,response,60,1166.1000000000058,2248.6000000000063,2264.2000000029802,1166.1000000000058,2248.6000000000063,2264.2000000029802,1.0,1098.1000000029744,0.0,,Slider,Slider,4.0,object-56,temp_dist_trial,20.0,t_m_17_1,travel_Miami,water gun,3.0,unique,paired,t_m_17_1.jpg,Travel,$${counterbalance_group},,sub-84
Desktop or Laptop,Windows 10,Chrome 138.0.0.0,1920x1080,2133x1200,Temporal Distance Task,cb_03,69.0,temp_dist_trial,num_items,zn7si1,1.0,response,2_ITEM,1222.0000000014845,1215.8999999999942,1222.0000000014845,1222.0000000014845,1215.8999999999942,1222.0000000014845,1.0,0.0,0.0,,Click Response,2_count,5.0,object-49,temp_dist_trial,21.0,t_s_16_1,travel_shared,chapstick,3.0,competing,paired,t_s_16_1.jpg,Travel,$${counterbalance_group},,sub-84
Desktop or Laptop,Windows 10,Chrome 138.0.0.0,1920x1080,2133x1200,Temporal Distance Task,cb_03,69.0,temp_dist_trial,dist_items,qkpkxw,2.0,info,,3.0999999985215254,0.0,3.0999999985215254,3.0999999985215254,0.0,3.0999999985215254,1.0,0.0,0.0,,Slider,Slider,4.0,object-56,temp_dist_trial,21.0,t_s_16_1,travel_shared,chapstick,3.0,competing,paired,t_s_16_1.jpg,Travel,$${counterbalance_group},,sub-84
Desktop or Laptop,Windows 10,Chrome 138.0.0.0,1920x1080,2133x1200,Temporal Distance Task,cb_03,69.0,temp_dist_trial,dist_items,qkpkxw,2.0,continue,,2544.700000000012,2531.800000000017,2544.700000000012,2544.700000000012,2531.800000000017,2544.700000000012,1.0,0.0,0.0,,Click To Continue,Next button,7.0,object-60,temp_dist_trial,21.0,t_s_16_1,travel_shared,chapstick,3.0,competing,paired,t_s_16_1.jpg,Travel,$${counterbalance_group},,sub-84
Desktop or Laptop,Windows 10,Chrome 138.0.0.0,1920x1080,2133x1200,Temporal Distance Task,cb_03,69.0,temp_dist_trial,dist_items,qkpkxw,2.0,response,35,1415.7000000000116,2531.800000000017,2545.000000004482,1415.7000000000116,2531.800000000017,2545.000000004482,1.0,1129.3000000044706,0.0,,Slider,Slider,4.0,object-56,temp_dist_trial,21.0,t_s_16_1,travel_shared,chapstick,3.0,competing,paired,t_s_16_1.jpg,Travel,$${counterbalance_group},,sub-84
Desktop or Laptop,Windows 10,Chrome 138.0.0.0,1920x1080,2133x1200,Temporal Distance Task,cb_03,70.0,temp_dist_trial,num_items,zn7si1,1.0,response,1_ITEM,2179.2000000044645,2165.2999999999884,2179.2000000044645,2179.2000000044645,2165.2999999999884,2179.2000000044645,1.0,0.0,0.0,,Click Response,1_count,3.0,object-46,temp_dist_trial,22.0,t_i_09_1,travel_Iceland,ear muffs,3.0,unique,paired,t_i_09_1.jpg,Travel,$${counterbalance_group},,sub-84
Desktop or Laptop,Windows 10,Chrome 138.0.0.0,1920x1080,2133x1200,Temporal Distance Task,cb_03,71.0,temp_dist_trial,num_items,zn7si1,1.0,response,2_ITEM,1410.6000000029746,1399.8999999999942,1410.6000000029746,1410.6000000029746,1399.8999999999942,1410.6000000029746,1.0,0.0,0.0,,Click Response,2_count,5.0,object-49,temp_dist_trial,23.0,t_s_24_1,travel_shared,ear plugs,3.0,competing,paired,t_s_24_1.jpg,Travel,$${counterbalance_group},,sub-84
Desktop or Laptop,Windows 10,Chrome 138.0.0.0,1920x1080,2133x1200,Temporal Distance Task,cb_03,71.0,temp_dist_trial,dist_items,qkpkxw,2.0,info,,3.3000000044703484,0.0,3.3000000044703484,3.3000000044703484,0.0,3.3000000044703484,1.0,0.0,0.0,,Slider,Slider,4.0,object-56,temp_dist_trial,23.0,t_s_24_1,travel_shared,ear plugs,3.0,competing,paired,t_s_24_1.jpg,Travel,$${counterbalance_group},,sub-84
Desktop or Laptop,Windows 10,Chrome 138.0.0.0,1920x1080,2133x1200,Temporal Distance Task,cb_03,71.0,temp_dist_trial,dist_items,qkpkxw,2.0,continue,,3807.5,3797.6000000000067,3807.5,3807.5,3797.6000000000067,3807.5,1.0,0.0,0.0,,Click To Continue,Next button,7.0,object-60,temp_dist_trial,23.0,t_s_24_1,travel_shared,ear plugs,3.0,competing,paired,t_s_24_1.jpg,Travel,$${counterbalance_group},,sub-84
Desktop or Laptop,Windows 10,Chrome 138.0.0.0,1920x1080,2133x1200,Temporal Distance Task,cb_03,71.0,temp_dist_trial,dist_items,qkpkxw,2.0,response,64,1582.2999999999884,3797.6000000000067,3807.8000000044703,1582.2999999999884,3797.6000000000067,3807.8000000044703,1.0,2225.500000004482,0.0,,Slider,Slider,4.0,object-56,temp_dist_trial,23.0,t_s_24_1,travel_shared,ear plugs,3.0,competing,paired,t_s_24_1.jpg,Travel,$${counterbalance_group},,sub-84
Desktop or Laptop,Windows 10,Chrome 138.0.0.0,1920x1080,2133x1200,Temporal Distance Task,cb_03,72.0,temp_dist_trial,num_items,zn7si1,1.0,response,2_ITEM,1350.0000000014845,1349.1999999999825,1350.0000000014845,1350.0000000014845,1349.1999999999825,1350.0000000014845,1.0,0.0,0.0,,Click Response,2_count,5.0,object-49,temp_dist_trial,24.0,t_s_03_1,travel_shared,portable charger,3.0,competing,paired,t_s_03_1.jpg,Travel,$${counterbalance_group},,sub-84
Desktop or Laptop,Windows 10,Chrome 138.0.0.0,1920x1080,2133x1200,Temporal Distance Task,cb_03,72.0,temp_dist_trial,dist_items,qkpkxw,2.0,info,,3.2999999999883585,0.0,3.2999999999883585,3.2999999999883585,0.0,3.2999999999883585,1.0,0.0,0.0,,Slider,Slider,4.0,object-56,temp_dist_trial,24.0,t_s_03_1,travel_shared,portable charger,3.0,competing,paired,t_s_03_1.jpg,Travel,$${counterbalance_group},,sub-84
Desktop or Laptop,Windows 10,Chrome 138.0.0.0,1920x1080,2133x1200,Temporal Distance Task,cb_03,72.0,temp_dist_trial,dist_items,qkpkxw,2.0,continue,,2840.600000004459,2831.5,2840.600000004459,2840.600000004459,2831.5,2840.600000004459,1.0,0.0,0.0,,Click To Continue,Next button,7.0,object-60,temp_dist_trial,24.0,t_s_03_1,travel_shared,portable charger,3.0,competing,paired,t_s_03_1.jpg,Travel,$${counterbalance_group},,sub-84
Desktop or Laptop,Windows 10,Chrome 138.0.0.0,1920x1080,2133x1200,Temporal Distance Task,cb_03,72.0,temp_dist_trial,dist_items,qkpkxw,2.0,response,44,1532.3999999999646,2831.5,2840.9000000014785,1532.3999999999646,2831.5,2840.9000000014785,1.0,1308.5000000015136,0.0,,Slider,Slider,4.0,object-56,temp_dist_trial,24.0,t_s_03_1,travel_shared,portable charger,3.0,competing,paired,t_s_03_1.jpg,Travel,$${counterbalance_group},,sub-84
Desktop or Laptop,Windows 10,Chrome 138.0.0.0,1920x1080,2133x1200,Temporal Distance Task,cb_03,73.0,temp_dist_trial,num_items,zn7si1,1.0,response,1_ITEM,2136.9000000014785,2132.0,2136.9000000014785,2136.9000000014785,2132.0,2136.9000000014785,1.0,0.0,0.0,,Click Response,1_count,3.0,object-46,temp_dist_trial,25.0,t_s_07_1,travel_shared,phone charger cable,3.0,competing,single,t_s_07_1.jpg,Travel,$${counterbalance_group},,sub-84
Desktop or Laptop,Windows 10,Chrome 138.0.0.0,1920x1080,2133x1200,Temporal Distance Task,cb_03,74.0,temp_dist_trial,num_items,zn7si1,1.0,response,2_ITEM,1481.6999999999537,1465.5999999999767,1481.6999999999537,1481.6999999999537,1465.5999999999767,1481.6999999999537,1.0,0.0,0.0,,Click Response,2_count,5.0,object-49,temp_dist_trial,26.0,t_i_13_1,travel_Iceland,sleeping bag,3.0,unique,paired,t_i_13_1.jpg,Travel,$${counterbalance_group},,sub-84
Desktop or Laptop,Windows 10,Chrome 138.0.0.0,1920x1080,2133x1200,Temporal Distance Task,cb_03,74.0,temp_dist_trial,dist_items,qkpkxw,2.0,info,,3.2999999999883585,0.0,3.2999999999883585,3.2999999999883585,0.0,3.2999999999883585,1.0,0.0,0.0,,Slider,Slider,4.0,object-56,temp_dist_trial,26.0,t_i_13_1,travel_Iceland,sleeping bag,3.0,unique,paired,t_i_13_1.jpg,Travel,$${counterbalance_group},,sub-84
Desktop or Laptop,Windows 10,Chrome 138.0.0.0,1920x1080,2133x1200,Temporal Distance Task,cb_03,74.0,temp_dist_trial,dist_items,qkpkxw,2.0,continue,,3345.699999998499,3331.200000000012,3345.699999998499,3345.699999998499,3331.200000000012,3345.699999998499,1.0,0.0,0.0,,Click To Continue,Next button,7.0,object-60,temp_dist_trial,26.0,t_i_13_1,travel_Iceland,sleeping bag,3.0,unique,paired,t_i_13_1.jpg,Travel,$${counterbalance_group},,sub-84
Desktop or Laptop,Windows 10,Chrome 138.0.0.0,1920x1080,2133x1200,Temporal Distance Task,cb_03,74.0,temp_dist_trial,dist_items,qkpkxw,2.0,response,44,2098.5999999999767,3331.200000000012,3346.0000000029686,2098.5999999999767,3331.200000000012,3346.0000000029686,1.0,1247.4000000029919,0.0,,Slider,Slider,4.0,object-56,temp_dist_trial,26.0,t_i_13_1,travel_Iceland,sleeping bag,3.0,unique,paired,t_i_13_1.jpg,Travel,$${counterbalance_group},,sub-84
Desktop or Laptop,Windows 10,Chrome 138.0.0.0,1920x1080,2133x1200,Temporal Distance Task,cb_03,75.0,temp_dist_trial,num_items,zn7si1,1.0,response,1_ITEM,2240.300000002957,2232.0,2240.300000002957,2240.300000002957,2232.0,2240.300000002957,1.0,0.0,0.0,,Click Response,1_count,3.0,object-46,temp_dist_trial,27.0,t_m_14_1,travel_Miami,swim goggles,3.0,unique,paired,t_m_14_1.jpg,Travel,$${counterbalance_group},,sub-84
Desktop or Laptop,Windows 10,Chrome 138.0.0.0,1920x1080,2133x1200,Temporal Distance Task,cb_03,76.0,temp_dist_trial,num_items,zn7si1,1.0,response,1_ITEM,986.39999999851,982.9000000000232,986.39999999851,986.39999999851,982.9000000000232,986.39999999851,1.0,0.0,0.0,,Click Response,1_count,3.0,object-46,temp_dist_trial,28.0,t_i_17_1,travel_Iceland,binoculars,3.0,unique,paired,t_i_17_1.jpg,Travel,$${counterbalance_group},,sub-84
Desktop or Laptop,Windows 10,Chrome 138.0.0.0,1920x1080,2133x1200,Temporal Distance Task,cb_03,77.0,temp_dist_trial,num_items,zn7si1,1.0,response,1_ITEM,1904.6000000044587,1898.8999999999646,1904.6000000044587,1904.6000000044587,1898.8999999999646,1904.6000000044587,1.0,0.0,0.0,,Click Response,1_count,3.0,object-46,temp_dist_trial,29.0,t_m_18_1,travel_Miami,waterproof tote,3.0,unique,single,t_m_18_1.jpg,Travel,$${counterbalance_group},,sub-84
Desktop or Laptop,Windows 10,Chrome 138.0.0.0,1920x1080,2133x1200,Temporal Distance Task,cb_03,78.0,temp_dist_trial,num_items,zn7si1,1.0,response,1_ITEM,1621.0999999985215,1615.6000000000354,1621.0999999985215,1621.0999999985215,1615.6000000000354,1621.0999999985215,1.0,0.0,0.0,,Click Response,1_count,3.0,object-46,temp_dist_trial,30.0,t_m_20_1,travel_Miami,inflatable beachball,3.0,unique,paired,t_m_20_1.jpg,Travel,$${counterbalance_group},,sub-84
Desktop or Laptop,Windows 10,Chrome 138.0.0.0,1920x1080,2133x1200,Temporal Distance Task,cb_03,79.0,temp_dist_trial,num_items,zn7si1,1.0,response,1_ITEM,1161.1000000030035,1150.5,1161.1000000030035,1161.1000000030035,1150.5,1161.1000000030035,1.0,0.0,0.0,,Click Response,1_count,3.0,object-46,temp_dist_trial,31.0,t_s_05_1,travel_shared,neck pillow,3.0,competing,single,t_s_05_1.jpg,Travel,$${counterbalance_group},,sub-84
Desktop or Laptop,Windows 10,Chrome 138.0.0.0,1920x1080,2133x1200,Temporal Distance Task,cb_03,80.0,temp_dist_trial,num_items,zn7si1,1.0,response,1_ITEM,845.2000000014667,833.7999999999884,845.2000000014667,845.2000000014667,833.7999999999884,845.2000000014667,1.0,0.0,0.0,,Click Response,1_count,3.0,object-46,temp_dist_trial,32.0,t_m_19_1,travel_Miami,surfboard,3.0,unique,single,t_m_19_1.jpg,Travel,$${counterbalance_group},,sub-84
Desktop or Laptop,Windows 10,Chrome 138.0.0.0,1920x1080,2133x1200,Temporal Distance Task,cb_03,81.0,temp_dist_trial,num_items,zn7si1,1.0,response,1_ITEM,953.7999999999884,949.2000000000116,953.7999999999884,953.7999999999884,949.2000000000116,953.7999999999884,1.0,0.0,0.0,,Click Response,1_count,3.0,object-46,temp_dist_trial,33.0,t_i_20_1,travel_Iceland,lantern,3.0,unique,single,t_i_20_1.jpg,Travel,$${counterbalance_group},,sub-84
Desktop or Laptop,Windows 10,Chrome 138.0.0.0,1920x1080,2133x1200,Temporal Distance Task,cb_03,82.0,temp_dist_trial,num_items,zn7si1,1.0,response,1_ITEM,1298.5000000000582,1282.600000000035,1298.5000000000582,1298.5000000000582,1282.600000000035,1298.5000000000582,1.0,0.0,0.0,,Click Response,1_count,3.0,object-46,temp_dist_trial,34.0,t_s_21_1,travel_shared,umbrella,3.0,competing,paired,t_s_21_1.jpg,Travel,$${counterbalance_group},,sub-84
Desktop or Laptop,Windows 10,Chrome 138.0.0.0,1920x1080,2133x1200,Temporal Distance Task,cb_03,83.0,temp_dist_trial,num_items,zn7si1,1.0,response,2_ITEM,1859.7999999999884,1848.7999999999884,1859.7999999999884,1859.7999999999884,1848.7999999999884,1859.7999999999884,1.0,0.0,0.0,,Click Response,2_count,5.0,object-49,temp_dist_trial,35.0,t_i_03_1,travel_Iceland,winter jacket,3.0,unique,paired,t_i_03_1.jpg,Travel,$${counterbalance_group},,sub-84
Desktop or Laptop,Windows 10,Chrome 138.0.0.0,1920x1080,2133x1200,Temporal Distance Task,cb_03,83.0,temp_dist_trial,dist_items,qkpkxw,2.0,info,,3.2999999999883585,0.0,3.2999999999883585,3.2999999999883585,0.0,3.2999999999883585,1.0,0.0,0.0,,Slider,Slider,4.0,object-56,temp_dist_trial,35.0,t_i_03_1,travel_Iceland,winter jacket,3.0,unique,paired,t_i_03_1.jpg,Travel,$${counterbalance_group},,sub-84
Desktop or Laptop,Windows 10,Chrome 138.0.0.0,1920x1080,2133x1200,Temporal Distance Task,cb_03,83.0,temp_dist_trial,dist_items,qkpkxw,2.0,continue,,2334.9000000014785,2331.7999999999884,2334.9000000014785,2334.9000000014785,2331.7999999999884,2334.9000000014785,1.0,0.0,0.0,,Click To Continue,Next button,7.0,object-60,temp_dist_trial,35.0,t_i_03_1,travel_Iceland,winter jacket,3.0,unique,paired,t_i_03_1.jpg,Travel,$${counterbalance_group},,sub-84
Desktop or Laptop,Windows 10,Chrome 138.0.0.0,1920x1080,2133x1200,Temporal Distance Task,cb_03,83.0,temp_dist_trial,dist_items,qkpkxw,2.0,response,61,1332.5,2331.7999999999884,2338.4000000014785,1332.5,2331.7999999999884,2338.4000000014785,1.0,1005.9000000014785,0.0,,Slider,Slider,4.0,object-56,temp_dist_trial,35.0,t_i_03_1,travel_Iceland,winter jacket,3.0,unique,paired,t_i_03_1.jpg,Travel,$${counterbalance_group},,sub-84
Desktop or Laptop,Windows 10,Chrome 138.0.0.0,1920x1080,2133x1200,Temporal Distance Task,cb_03,84.0,temp_dist_trial,num_items,zn7si1,1.0,response,2_ITEM,2039.60000000149,2032.2999999999884,2039.60000000149,2039.60000000149,2032.2999999999884,2039.60000000149,1.0,0.0,0.0,,Click Response,2_count,5.0,object-49,temp_dist_trial,36.0,t_m_12_1,travel_Miami,foldable pail and shovel,3.0,unique,paired,t_m_12_1.jpg,Travel,$${counterbalance_group},,sub-84
Desktop or Laptop,Windows 10,Chrome 138.0.0.0,1920x1080,2133x1200,Temporal Distance Task,cb_03,84.0,temp_dist_trial,dist_items,qkpkxw,2.0,info,,3.600000001490116,0.0,3.600000001490116,3.600000001490116,0.0,3.600000001490116,1.0,0.0,0.0,,Slider,Slider,4.0,object-56,temp_dist_trial,36.0,t_m_12_1,travel_Miami,foldable pail and shovel,3.0,unique,paired,t_m_12_1.jpg,Travel,$${counterbalance_group},,sub-84
Desktop or Laptop,Windows 10,Chrome 138.0.0.0,1920x1080,2133x1200,Temporal Distance Task,cb_03,84.0,temp_dist_trial,dist_items,qkpkxw,2.0,continue,,2032.1000000000354,2015.4000000000235,2032.1000000000354,2032.1000000000354,2015.4000000000235,2032.1000000000354,1.0,0.0,0.0,,Click To Continue,Next button,7.0,object-60,temp_dist_trial,36.0,t_m_12_1,travel_Miami,foldable pail and shovel,3.0,unique,paired,t_m_12_1.jpg,Travel,$${counterbalance_group},,sub-84
Desktop or Laptop,Windows 10,Chrome 138.0.0.0,1920x1080,2133x1200,Temporal Distance Task,cb_03,84.0,temp_dist_trial,dist_items,qkpkxw,2.0,response,61,1082.7000000000116,2015.4000000000235,2032.1000000000354,1082.7000000000116,2015.4000000000235,2032.1000000000354,1.0,949.4000000000232,0.0,,Slider,Slider,4.0,object-56,temp_dist_trial,36.0,t_m_12_1,travel_Miami,foldable pail and shovel,3.0,unique,paired,t_m_12_1.jpg,Travel,$${counterbalance_group},,sub-84
Desktop or Laptop,Windows 10,Chrome 138.0.0.0,1920x1080,2133x1200,Temporal Distance Task,cb_03,85.0,temp_dist_trial,num_items,zn7si1,1.0,response,2_ITEM,1868.400000004447,1865.5999999999767,1868.400000004447,1868.400000004447,1865.5999999999767,1868.400000004447,1.0,0.0,0.0,,Click Response,2_count,5.0,object-49,temp_dist_trial,37.0,t_i_10_1,travel_Iceland,trekking poles,3.0,unique,single,t_i_10_1.jpg,Travel,$${counterbalance_group},,sub-84
Desktop or Laptop,Windows 10,Chrome 138.0.0.0,1920x1080,2133x1200,Temporal Distance Task,cb_03,85.0,temp_dist_trial,dist_items,qkpkxw,2.0,info,,3.0000000044819903,0.0,3.0000000044819903,3.0000000044819903,0.0,3.0000000044819903,1.0,0.0,0.0,,Slider,Slider,4.0,object-56,temp_dist_trial,37.0,t_i_10_1,travel_Iceland,trekking poles,3.0,unique,single,t_i_10_1.jpg,Travel,$${counterbalance_group},,sub-84
Desktop or Laptop,Windows 10,Chrome 138.0.0.0,1920x1080,2133x1200,Temporal Distance Task,cb_03,85.0,temp_dist_trial,dist_items,qkpkxw,2.0,continue,,2380.500000004482,2365.100000000035,2380.500000004482,2380.500000004482,2365.100000000035,2380.500000004482,1.0,0.0,0.0,,Click To Continue,Next button,7.0,object-60,temp_dist_trial,37.0,t_i_10_1,travel_Iceland,trekking poles,3.0,unique,single,t_i_10_1.jpg,Travel,$${counterbalance_group},,sub-84
Desktop or Laptop,Windows 10,Chrome 138.0.0.0,1920x1080,2133x1200,Temporal Distance Task,cb_03,85.0,temp_dist_trial,dist_items,qkpkxw,2.0,response,42,1215.7000000000114,2365.100000000035,2380.800000001501,1215.7000000000114,2365.100000000035,2380.800000001501,1.0,1165.1000000014901,0.0,,Slider,Slider,4.0,object-56,temp_dist_trial,37.0,t_i_10_1,travel_Iceland,trekking poles,3.0,unique,single,t_i_10_1.jpg,Travel,$${counterbalance_group},,sub-84
Desktop or Laptop,Windows 10,Chrome 138.0.0.0,1920x1080,2133x1200,Temporal Distance Task,cb_03,86.0,temp_dist_trial,num_items,zn7si1,1.0,response,2_ITEM,1668.400000004447,1665.5999999999767,1668.400000004447,1668.400000004447,1665.5999999999767,1668.400000004447,1.0,0.0,0.0,,Click Response,2_count,5.0,object-49,temp_dist_trial,38.0,t_s_10_1,travel_shared,luggage lock,3.0,competing,paired,t_s_10_1.jpg,Travel,$${counterbalance_group},,sub-84
Desktop or Laptop,Windows 10,Chrome 138.0.0.0,1920x1080,2133x1200,Temporal Distance Task,cb_03,86.0,temp_dist_trial,dist_items,qkpkxw,2.0,info,,4.400000000023283,0.0,4.400000000023283,4.400000000023283,0.0,4.400000000023283,1.0,0.0,0.0,,Slider,Slider,4.0,object-56,temp_dist_trial,38.0,t_s_10_1,travel_shared,luggage lock,3.0,competing,paired,t_s_10_1.jpg,Travel,$${counterbalance_group},,sub-84
Desktop or Laptop,Windows 10,Chrome 138.0.0.0,1920x1080,2133x1200,Temporal Distance Task,cb_03,86.0,temp_dist_trial,dist_items,qkpkxw,2.0,continue,,2271.1000000030035,2265.5,2271.1000000030035,2271.1000000030035,2265.5,2271.1000000030035,1.0,0.0,0.0,,Click To Continue,Next button,7.0,object-60,temp_dist_trial,38.0,t_s_10_1,travel_shared,luggage lock,3.0,competing,paired,t_s_10_1.jpg,Travel,$${counterbalance_group},,sub-84
Desktop or Laptop,Windows 10,Chrome 138.0.0.0,1920x1080,2133x1200,Temporal Distance Task,cb_03,86.0,temp_dist_trial,dist_items,qkpkxw,2.0,response,68,1299.5,2265.5,2271.299999998533,1299.5,2265.5,2271.299999998533,1.0,971.7999999985333,0.0,,Slider,Slider,4.0,object-56,temp_dist_trial,38.0,t_s_10_1,travel_shared,luggage lock,3.0,competing,paired,t_s_10_1.jpg,Travel,$${counterbalance_group},,sub-84
Desktop or Laptop,Windows 10,Chrome 138.0.0.0,1920x1080,2133x1200,Temporal Distance Task,cb_03,87.0,temp_dist_trial,num_items,zn7si1,1.0,response,2_ITEM,1550.2000000044934,1548.9000000000233,1550.2000000044934,1550.2000000044934,1548.9000000000233,1550.2000000044934,1.0,0.0,0.0,,Click Response,2_count,5.0,object-49,temp_dist_trial,39.0,t_i_02_1,travel_Iceland,scarf,3.0,unique,paired,t_i_02_1.jpg,Travel,$${counterbalance_group},,sub-84
Desktop or Laptop,Windows 10,Chrome 138.0.0.0,1920x1080,2133x1200,Temporal Distance Task,cb_03,87.0,temp_dist_trial,dist_items,qkpkxw,2.0,info,,3.100000001490116,0.0,3.100000001490116,3.100000001490116,0.0,3.100000001490116,1.0,0.0,0.0,,Slider,Slider,4.0,object-56,temp_dist_trial,39.0,t_i_02_1,travel_Iceland,scarf,3.0,unique,paired,t_i_02_1.jpg,Travel,$${counterbalance_group},,sub-84
Desktop or Laptop,Windows 10,Chrome 138.0.0.0,1920x1080,2133x1200,Temporal Distance Task,cb_03,87.0,temp_dist_trial,dist_items,qkpkxw,2.0,continue,,1917.3999999985092,1915.5999999999767,1917.3999999985092,1917.3999999985092,1915.5999999999767,1917.3999999985092,1.0,0.0,0.0,,Click To Continue,Next button,7.0,object-60,temp_dist_trial,39.0,t_i_02_1,travel_Iceland,scarf,3.0,unique,paired,t_i_02_1.jpg,Travel,$${counterbalance_group},,sub-84
Desktop or Laptop,Windows 10,Chrome 138.0.0.0,1920x1080,2133x1200,Temporal Distance Task,cb_03,87.0,temp_dist_trial,dist_items,qkpkxw,2.0,response,70,932.9000000000232,1915.5999999999767,1917.70000000298,932.9000000000232,1915.5999999999767,1917.70000000298,1.0,984.800000002957,0.0,,Slider,Slider,4.0,object-56,temp_dist_trial,39.0,t_i_02_1,travel_Iceland,scarf,3.0,unique,paired,t_i_02_1.jpg,Travel,$${counterbalance_group},,sub-84
Desktop or Laptop,Windows 10,Chrome 138.0.0.0,1920x1080,2133x1200,Temporal Distance Task,cb_03,88.0,temp_dist_trial,num_items,zn7si1,1.0,response,2_ITEM,1472.2999999985336,1465.5,1472.2999999985336,1472.2999999985336,1465.5,1472.2999999985336,1.0,0.0,0.0,,Click Response,2_count,5.0,object-49,temp_dist_trial,40.0,t_i_07_1,travel_Iceland,hiking backpack,3.0,unique,paired,t_i_07_1.jpg,Travel,$${counterbalance_group},,sub-84
Desktop or Laptop,Windows 10,Chrome 138.0.0.0,1920x1080,2133x1200,Temporal Distance Task,cb_03,88.0,temp_dist_trial,dist_items,qkpkxw,2.0,info,,3.4000000000232835,0.0,3.4000000000232835,3.4000000000232835,0.0,3.4000000000232835,1.0,0.0,0.0,,Slider,Slider,4.0,object-56,temp_dist_trial,40.0,t_i_07_1,travel_Iceland,hiking backpack,3.0,unique,paired,t_i_07_1.jpg,Travel,$${counterbalance_group},,sub-84
Desktop or Laptop,Windows 10,Chrome 138.0.0.0,1920x1080,2133x1200,Temporal Distance Task,cb_03,88.0,temp_dist_trial,dist_items,qkpkxw,2.0,continue,,1865.1000000030035,1848.8000000000463,1865.1000000030035,1865.1000000030035,1848.8000000000463,1865.1000000030035,1.0,0.0,0.0,,Click To Continue,Next button,7.0,object-60,temp_dist_trial,40.0,t_i_07_1,travel_Iceland,hiking backpack,3.0,unique,paired,t_i_07_1.jpg,Travel,$${counterbalance_group},,sub-84
Desktop or Laptop,Windows 10,Chrome 138.0.0.0,1920x1080,2133x1200,Temporal Distance Task,cb_03,88.0,temp_dist_trial,dist_items,qkpkxw,2.0,response,65,949.1000000000348,1848.8000000000463,1865.500000000059,949.1000000000348,1848.8000000000463,1865.500000000059,1.0,916.4000000000232,0.0,,Slider,Slider,4.0,object-56,temp_dist_trial,40.0,t_i_07_1,travel_Iceland,hiking backpack,3.0,unique,paired,t_i_07_1.jpg,Travel,$${counterbalance_group},,sub-84
Desktop or Laptop,Windows 10,Chrome 138.0.0.0,1920x1080,2133x1200,Temporal Distance Task,cb_03,89.0,temp_dist_trial,num_items,zn7si1,1.0,response,1_ITEM,1581.8999999999646,1565.3999999999646,1581.8999999999646,1581.8999999999646,1565.3999999999646,1581.8999999999646,1.0,0.0,0.0,,Click Response,1_count,3.0,object-46,temp_dist_trial,41.0,t_i_05_1,travel_Iceland,hiking boots,3.0,unique,paired,t_i_05_1.jpg,Travel,$${counterbalance_group},,sub-84
Desktop or Laptop,Windows 10,Chrome 138.0.0.0,1920x1080,2133x1200,Temporal Distance Task,cb_03,90.0,temp_dist_trial,num_items,zn7si1,1.0,response,1_ITEM,1282.0000000029684,1266.0,1282.0000000029684,1282.0000000029684,1266.0,1282.0000000029684,1.0,0.0,0.0,,Click Response,1_count,3.0,object-46,temp_dist_trial,42.0,t_s_18_1,travel_shared,first aid kit,3.0,competing,single,t_s_18_1.jpg,Travel,$${counterbalance_group},,sub-84
Desktop or Laptop,Windows 10,Chrome 138.0.0.0,1920x1080,2133x1200,Temporal Distance Task,cb_03,91.0,temp_dist_trial,num_items,zn7si1,1.0,response,1_ITEM,1506.8000000044706,1498.9000000000233,1506.8000000044706,1506.8000000044706,1498.9000000000233,1506.8000000044706,1.0,0.0,0.0,,Click Response,1_count,3.0,object-46,temp_dist_trial,43.0,t_s_12_1,travel_shared,clear toiletry bag,3.0,competing,paired,t_s_12_1.jpg,Travel,$${counterbalance_group},,sub-84
Desktop or Laptop,Windows 10,Chrome 138.0.0.0,1920x1080,2133x1200,Temporal Distance Task,cb_03,92.0,temp_dist_trial,num_items,zn7si1,1.0,response,1_ITEM,1113.0999999985215,1099.4000000000233,1113.0999999985215,1113.0999999985215,1099.4000000000233,1113.0999999985215,1.0,0.0,0.0,,Click Response,1_count,3.0,object-46,temp_dist_trial,44.0,t_s_09_1,travel_shared,wallet,3.0,competing,paired,t_s_09_1.jpg,Travel,$${counterbalance_group},,sub-84
Desktop or Laptop,Windows 10,Chrome 138.0.0.0,1920x1080,2133x1200,Temporal Distance Task,cb_03,93.0,temp_dist_trial,num_items,zn7si1,1.0,response,1_ITEM,1167.8999999985099,1165.4000000000233,1167.8999999985099,1167.8999999985099,1165.4000000000233,1167.8999999985099,1.0,0.0,0.0,,Click Response,1_count,3.0,object-46,temp_dist_trial,45.0,t_i_08_1,travel_Iceland,thick socks,3.0,unique,single,t_i_08_1.jpg,Travel,$${counterbalance_group},,sub-84
Desktop or Laptop,Windows 10,Chrome 138.0.0.0,1920x1080,2133x1200,Temporal Distance Task,cb_03,94.0,temp_dist_trial,num_items,zn7si1,1.0,response,1_ITEM,1414.3000000015018,1399.2000000000116,1414.3000000015018,1414.3000000015018,1399.2000000000116,1414.3000000015018,1.0,0.0,0.0,,Click Response,1_count,3.0,object-46,temp_dist_trial,46.0,t_m_02_1,travel_Miami,t-shirt,3.0,unique,paired,t_m_02_1.jpg,Travel,$${counterbalance_group},,sub-84
Desktop or Laptop,Windows 10,Chrome 138.0.0.0,1920x1080,2133x1200,Temporal Distance Task,cb_03,95.0,temp_dist_trial,num_items,zn7si1,1.0,response,1_ITEM,1096.2000000000116,1082.7999999999884,1096.2000000000116,1096.2000000000116,1082.7999999999884,1096.2000000000116,1.0,0.0,0.0,,Click Response,1_count,3.0,object-46,temp_dist_trial,47.0,t_s_02_1,travel_shared,water bottle,3.0,competing,paired,t_s_02_1.jpg,Travel,$${counterbalance_group},,sub-84
Desktop or Laptop,Windows 10,Chrome 138.0.0.0,1920x1080,2133x1200,Temporal Distance Task,cb_03,96.0,temp_dist_trial,num_items,zn7si1,1.0,response,2_ITEM,1226.6000000044587,1215.7999999999886,1226.6000000044587,1226.6000000044587,1215.7999999999886,1226.6000000044587,1.0,0.0,0.0,,Click Response,2_count,5.0,object-49,temp_dist_trial,48.0,t_s_04_1,travel_shared,instant camera,3.0,competing,paired,t_s_04_1.jpg,Travel,$${counterbalance_group},,sub-84
Desktop or Laptop,Windows 10,Chrome 138.0.0.0,1920x1080,2133x1200,Temporal Distance Task,cb_03,96.0,temp_dist_trial,dist_items,qkpkxw,2.0,info,,3.2000000000116415,0.0,3.2000000000116415,3.2000000000116415,0.0,3.2000000000116415,1.0,0.0,0.0,,Slider,Slider,4.0,object-56,temp_dist_trial,48.0,t_s_04_1,travel_shared,instant camera,3.0,competing,paired,t_s_04_1.jpg,Travel,$${counterbalance_group},,sub-84
Desktop or Laptop,Windows 10,Chrome 138.0.0.0,1920x1080,2133x1200,Temporal Distance Task,cb_03,96.0,temp_dist_trial,dist_items,qkpkxw,2.0,continue,,2235.3000000015013,2232.200000000012,2235.3000000015013,2235.3000000015013,2232.200000000012,2235.3000000015013,1.0,0.0,0.0,,Click To Continue,Next button,7.0,object-60,temp_dist_trial,48.0,t_s_04_1,travel_shared,instant camera,3.0,competing,paired,t_s_04_1.jpg,Travel,$${counterbalance_group},,sub-84
