Participant Device,Participant OS,Participant Browser,Participant Monitor Size,Participant Viewport Size,Task Name,Current Spreadsheet,Trial Number,Display,Screen,Screen ID,Screen Counter,Response Type,Response,Onset Time,Clock Time,Reaction Time,Absolute Onset Time,Absolute Clock Time,Absolute Reaction Time,Correct,Response Duration,Proportion,Tag,Component Name,Object Name,Object Number,Object ID,Spreadsheet: display,Spreadsheet: trial,Spreadsheet: stimulus_id,Spreadsheet: expected_goal,Spreadsheet: stimulus_name,Spreadsheet: c_group,Spreadsheet: condition,Spreadsheet: paired_status,Spreadsheet: stimulus_path,Spreadsheet: block_type,Manipulation: Spreadsheet,Store: enc_test_acc,sub_label
Desktop or Laptop,Windows 10,Chrome 138.0.0.0,3440x1440,3440x1351,Temporal Distance Task,$${counterbalance_group},,,,,,info,BEGIN,,,,,,,0.0,,,,,,,,,,,,,,,,,,,,sub-47
Desktop or Laptop,Windows 10,Chrome 138.0.0.0,3440x1440,3440x1351,Temporal Distance Task,cb_08,1.0,temp_instructions,intro_screen,3tnme7,1.0,continue,,8204.299999952316,8201.7,8204.299999952316,8204.299999952316,8201.7,8204.299999952316,1.0,0.0,0.0,,Click To Continue,Continue Button,4.0,object-29,temp_instructions,,,Travel,,,,,,,,,sub-47
Desktop or Laptop,Windows 10,Chrome 138.0.0.0,3440x1440,3440x1351,Temporal Distance Task,cb_08,1.0,temp_instructions,intro_screen_2,52v7ur,2.0,continue,,4009.000000047683,4006.699999999999,4009.000000047683,4009.000000047683,4006.699999999999,4009.000000047683,1.0,0.0,0.0,,Click To Continue,Continue Button,4.0,object-39,temp_instructions,,,Travel,,,,,,,,,sub-47
Desktop or Laptop,Windows 10,Chrome 138.0.0.0,3440x1440,3440x1351,Temporal Distance Task,cb_08,1.0,temp_instructions,intro_screen_3,i7lvwx,3.0,continue,,9561.1,9556.4,9561.1,9561.1,9556.4,9561.1,1.0,0.0,0.0,,Click To Continue,Continue Button,4.0,object-67,temp_instructions,,,Travel,,,,,,,,,sub-47
Desktop or Laptop,Windows 10,Chrome 138.0.0.0,3440x1440,3440x1351,Temporal Distance Task,cb_08,1.0,temp_instructions,test_q1,5ieqx1,4.0,response,choice_3,5870.000000000004,5864.100000000002,5870.000000000004,5870.000000000004,5864.100000000002,5870.000000000004,1.0,0.0,0.0,,Click Response,choice_3,5.0,object-345,temp_instructions,,,Travel,,,,,,,,,sub-47
Desktop or Laptop,Windows 10,Chrome 138.0.0.0,3440x1440,3440x1351,Temporal Distance Task,cb_08,1.0,temp_instructions,score_corr,7ilvjr,5.0,continue,,1266.500000095366,1263.0,1266.500000095366,1266.500000095366,1263.0,1266.500000095366,1.0,0.0,0.0,,Click To Continue,Continue Button,3.0,object-23,temp_instructions,,,Travel,,,,,,,,,sub-47
Desktop or Laptop,Windows 10,Chrome 138.0.0.0,3440x1440,3440x1351,Temporal Distance Task,cb_08,1.0,temp_eventStart,Screen 1,dgtyxe,1.0,continue,,1763.500000095366,1760.2999999999995,1763.500000095366,1763.500000095366,1760.2999999999995,1763.500000095366,1.0,0.0,0.0,,Click To Continue,Next Button,3.0,object-43,temp_eventStart,,,Travel,,,,,,,,,sub-47
Desktop or Laptop,Windows 10,Chrome 138.0.0.0,3440x1440,3440x1351,Temporal Distance Task,cb_08,1.0,temp_dist_trial,num_items,zn7si1,1.0,response,2_ITEM,1533.2000000953672,1531.7999999999995,1533.2000000953672,1533.2000000953672,1531.7999999999995,1533.2000000953672,1.0,0.0,0.0,,Click Response,2_count,5.0,object-49,temp_dist_trial,1.0,t_s_23_1,travel_shared,ball cap,8.0,competing,paired,t_s_23_1.jpg,Travel,,,sub-47
Desktop or Laptop,Windows 10,Chrome 138.0.0.0,3440x1440,3440x1351,Temporal Distance Task,cb_08,1.0,temp_dist_trial,dist_items,qkpkxw,2.0,info,,2.999999952313374,0.0,2.999999952313374,2.999999952313374,0.0,2.999999952313374,1.0,0.0,0.0,,Slider,Slider,4.0,object-56,temp_dist_trial,1.0,t_s_23_1,travel_shared,ball cap,8.0,competing,paired,t_s_23_1.jpg,Travel,,,sub-47
Desktop or Laptop,Windows 10,Chrome 138.0.0.0,3440x1440,3440x1351,Temporal Distance Task,cb_08,1.0,temp_dist_trial,dist_items,qkpkxw,2.0,continue,,3020.199999999997,3017.7999999999956,3020.199999999997,3020.199999999997,3017.7999999999956,3020.199999999997,1.0,0.0,0.0,,Click To Continue,Next button,7.0,object-60,temp_dist_trial,1.0,t_s_23_1,travel_shared,ball cap,8.0,competing,paired,t_s_23_1.jpg,Travel,,,sub-47
Desktop or Laptop,Windows 10,Chrome 138.0.0.0,3440x1440,3440x1351,Temporal Distance Task,cb_08,1.0,temp_dist_trial,dist_items,qkpkxw,2.0,response,83,1686.0999999999985,3017.7999999999956,3020.4000000476813,1686.0999999999985,3017.7999999999956,3020.4000000476813,1.0,1334.3000000476825,0.0,,Slider,Slider,4.0,object-56,temp_dist_trial,1.0,t_s_23_1,travel_shared,ball cap,8.0,competing,paired,t_s_23_1.jpg,Travel,,,sub-47
Desktop or Laptop,Windows 10,Chrome 138.0.0.0,3440x1440,3440x1351,Temporal Distance Task,cb_08,2.0,temp_dist_trial,num_items,zn7si1,1.0,response,2_ITEM,1792.300000095369,1788.9000000000015,1792.300000095369,1792.300000095369,1788.9000000000015,1792.300000095369,1.0,0.0,0.0,,Click Response,2_count,5.0,object-49,temp_dist_trial,2.0,t_s_20_1,travel_shared,travel pill case,8.0,competing,paired,t_s_20_1.jpg,Travel,,,sub-47
Desktop or Laptop,Windows 10,Chrome 138.0.0.0,3440x1440,3440x1351,Temporal Distance Task,cb_08,2.0,temp_dist_trial,dist_items,qkpkxw,2.0,info,,2.5,0.0,2.5,2.5,0.0,2.5,1.0,0.0,0.0,,Slider,Slider,4.0,object-56,temp_dist_trial,2.0,t_s_20_1,travel_shared,travel pill case,8.0,competing,paired,t_s_20_1.jpg,Travel,,,sub-47
Desktop or Laptop,Windows 10,Chrome 138.0.0.0,3440x1440,3440x1351,Temporal Distance Task,cb_08,2.0,temp_dist_trial,dist_items,qkpkxw,2.0,continue,,1886.1999999999966,1880.5,1886.1999999999966,1886.1999999999966,1880.5,1886.1999999999966,1.0,0.0,0.0,,Click To Continue,Next button,7.0,object-60,temp_dist_trial,2.0,t_s_20_1,travel_shared,travel pill case,8.0,competing,paired,t_s_20_1.jpg,Travel,,,sub-47
Desktop or Laptop,Windows 10,Chrome 138.0.0.0,3440x1440,3440x1351,Temporal Distance Task,cb_08,2.0,temp_dist_trial,dist_items,qkpkxw,2.0,response,80,983.0999999999983,1880.5,1886.1999999999966,983.0999999999983,1880.5,1886.1999999999966,1.0,903.0999999999983,0.0,,Slider,Slider,4.0,object-56,temp_dist_trial,2.0,t_s_20_1,travel_shared,travel pill case,8.0,competing,paired,t_s_20_1.jpg,Travel,,,sub-47
Desktop or Laptop,Windows 10,Chrome 138.0.0.0,3440x1440,3440x1351,Temporal Distance Task,cb_08,3.0,temp_dist_trial,num_items,zn7si1,1.0,response,2_ITEM,1301.4000000953674,1297.4000000000015,1301.4000000953674,1301.4000000953674,1297.4000000000015,1301.4000000953674,1.0,0.0,0.0,,Click Response,2_count,5.0,object-49,temp_dist_trial,3.0,t_s_17_1,travel_shared,toothbrush,8.0,competing,paired,t_s_17_1.jpg,Travel,,,sub-47
Desktop or Laptop,Windows 10,Chrome 138.0.0.0,3440x1440,3440x1351,Temporal Distance Task,cb_08,3.0,temp_dist_trial,dist_items,qkpkxw,2.0,info,,1.9999999523133736,0.0,1.9999999523133736,1.9999999523133736,0.0,1.9999999523133736,1.0,0.0,0.0,,Slider,Slider,4.0,object-56,temp_dist_trial,3.0,t_s_17_1,travel_shared,toothbrush,8.0,competing,paired,t_s_17_1.jpg,Travel,,,sub-47
Desktop or Laptop,Windows 10,Chrome 138.0.0.0,3440x1440,3440x1351,Temporal Distance Task,cb_08,3.0,temp_dist_trial,dist_items,qkpkxw,2.0,continue,,1572.6000000953643,1571.8999999999942,1572.6000000953643,1572.6000000953643,1571.8999999999942,1572.6000000953643,1.0,0.0,0.0,,Click To Continue,Next button,7.0,object-60,temp_dist_trial,3.0,t_s_17_1,travel_shared,toothbrush,8.0,competing,paired,t_s_17_1.jpg,Travel,,,sub-47
Desktop or Laptop,Windows 10,Chrome 138.0.0.0,3440x1440,3440x1351,Temporal Distance Task,cb_08,3.0,temp_dist_trial,dist_items,qkpkxw,2.0,response,74,703.0999999999983,1571.8999999999942,1572.6999999999966,703.0999999999983,1571.8999999999942,1572.6999999999966,1.0,869.5999999999983,0.0,,Slider,Slider,4.0,object-56,temp_dist_trial,3.0,t_s_17_1,travel_shared,toothbrush,8.0,competing,paired,t_s_17_1.jpg,Travel,,,sub-47
Desktop or Laptop,Windows 10,Chrome 138.0.0.0,3440x1440,3440x1351,Temporal Distance Task,cb_08,4.0,temp_dist_trial,num_items,zn7si1,1.0,response,2_ITEM,814.7000000953702,811.6000000000058,814.7000000953702,814.7000000953702,811.6000000000058,814.7000000953702,1.0,0.0,0.0,,Click Response,2_count,5.0,object-49,temp_dist_trial,4.0,t_m_08_1,travel_Miami,flipflops,8.0,unique,paired,t_m_08_1.jpg,Travel,,,sub-47
Desktop or Laptop,Windows 10,Chrome 138.0.0.0,3440x1440,3440x1351,Temporal Distance Task,cb_08,4.0,temp_dist_trial,dist_items,qkpkxw,2.0,info,,1.9000001430540576,0.0,1.9000001430540576,1.9000001430540576,0.0,1.9000001430540576,1.0,0.0,0.0,,Slider,Slider,4.0,object-56,temp_dist_trial,4.0,t_m_08_1,travel_Miami,flipflops,8.0,unique,paired,t_m_08_1.jpg,Travel,,,sub-47
Desktop or Laptop,Windows 10,Chrome 138.0.0.0,3440x1440,3440x1351,Temporal Distance Task,cb_08,4.0,temp_dist_trial,dist_items,qkpkxw,2.0,continue,,1411.5999999999985,1406.0,1411.5999999999985,1411.5999999999985,1406.0,1411.5999999999985,1.0,0.0,0.0,,Click To Continue,Next button,7.0,object-60,temp_dist_trial,4.0,t_m_08_1,travel_Miami,flipflops,8.0,unique,paired,t_m_08_1.jpg,Travel,,,sub-47
Desktop or Laptop,Windows 10,Chrome 138.0.0.0,3440x1440,3440x1351,Temporal Distance Task,cb_08,4.0,temp_dist_trial,dist_items,qkpkxw,2.0,response,80,594.4000000000016,1406.0,1411.5999999999985,594.4000000000016,1406.0,1411.5999999999985,1.0,817.1999999999971,0.0,,Slider,Slider,4.0,object-56,temp_dist_trial,4.0,t_m_08_1,travel_Miami,flipflops,8.0,unique,paired,t_m_08_1.jpg,Travel,,,sub-47
Desktop or Laptop,Windows 10,Chrome 138.0.0.0,3440x1440,3440x1351,Temporal Distance Task,cb_08,5.0,temp_dist_trial,num_items,zn7si1,1.0,response,1_ITEM,1391.5999999523196,1388.9000000000015,1391.5999999523196,1391.5999999523196,1388.9000000000015,1391.5999999523196,1.0,0.0,0.0,,Click Response,1_count,3.0,object-46,temp_dist_trial,5.0,t_s_03_1,travel_shared,portable charger,8.0,competing,single,t_s_03_1.jpg,Travel,,,sub-47
Desktop or Laptop,Windows 10,Chrome 138.0.0.0,3440x1440,3440x1351,Temporal Distance Task,cb_08,6.0,temp_dist_trial,num_items,zn7si1,1.0,response,2_ITEM,1566.4000000953674,1566.0999999999985,1566.4000000953674,1566.4000000953674,1566.0999999999985,1566.4000000953674,1.0,0.0,0.0,,Click Response,2_count,5.0,object-49,temp_dist_trial,6.0,t_s_24_1,travel_shared,ear plugs,8.0,competing,paired,t_s_24_1.jpg,Travel,,,sub-47
Desktop or Laptop,Windows 10,Chrome 138.0.0.0,3440x1440,3440x1351,Temporal Distance Task,cb_08,6.0,temp_dist_trial,dist_items,qkpkxw,2.0,info,,2.6000001430511475,0.0,2.6000001430511475,2.6000001430511475,0.0,2.6000001430511475,1.0,0.0,0.0,,Slider,Slider,4.0,object-56,temp_dist_trial,6.0,t_s_24_1,travel_shared,ear plugs,8.0,competing,paired,t_s_24_1.jpg,Travel,,,sub-47
Desktop or Laptop,Windows 10,Chrome 138.0.0.0,3440x1440,3440x1351,Temporal Distance Task,cb_08,6.0,temp_dist_trial,dist_items,qkpkxw,2.0,continue,,2483.700000047684,2480.5999999999985,2483.700000047684,2483.700000047684,2480.5999999999985,2483.700000047684,1.0,0.0,0.0,,Click To Continue,Next button,7.0,object-60,temp_dist_trial,6.0,t_s_24_1,travel_shared,ear plugs,8.0,competing,paired,t_s_24_1.jpg,Travel,,,sub-47
Desktop or Laptop,Windows 10,Chrome 138.0.0.0,3440x1440,3440x1351,Temporal Distance Task,cb_08,6.0,temp_dist_trial,dist_items,qkpkxw,2.0,response,95,703.0999999999983,2480.5999999999985,2485.600000143051,703.0999999999983,2480.5999999999985,2485.600000143051,1.0,1782.5000001430524,0.0,,Slider,Slider,4.0,object-56,temp_dist_trial,6.0,t_s_24_1,travel_shared,ear plugs,8.0,competing,paired,t_s_24_1.jpg,Travel,,,sub-47
Desktop or Laptop,Windows 10,Chrome 138.0.0.0,3440x1440,3440x1351,Temporal Distance Task,cb_08,7.0,temp_dist_trial,num_items,zn7si1,1.0,response,2_ITEM,992.1000000476853,988.7000000000045,992.1000000476853,992.1000000476853,988.7000000000045,992.1000000476853,1.0,0.0,0.0,,Click Response,2_count,5.0,object-49,temp_dist_trial,7.0,t_i_12_1,travel_Iceland,tent,8.0,unique,paired,t_i_12_1.jpg,Travel,,,sub-47
Desktop or Laptop,Windows 10,Chrome 138.0.0.0,3440x1440,3440x1351,Temporal Distance Task,cb_08,7.0,temp_dist_trial,dist_items,qkpkxw,2.0,info,,2.000000047686626,0.0,2.000000047686626,2.000000047686626,0.0,2.000000047686626,1.0,0.0,0.0,,Slider,Slider,4.0,object-56,temp_dist_trial,7.0,t_i_12_1,travel_Iceland,tent,8.0,unique,paired,t_i_12_1.jpg,Travel,,,sub-47
Desktop or Laptop,Windows 10,Chrome 138.0.0.0,3440x1440,3440x1351,Temporal Distance Task,cb_08,7.0,temp_dist_trial,dist_items,qkpkxw,2.0,continue,,3683.0999999523187,3680.900000000001,3683.0999999523187,3683.0999999523187,3680.900000000001,3683.0999999523187,1.0,0.0,0.0,,Click To Continue,Next button,7.0,object-60,temp_dist_trial,7.0,t_i_12_1,travel_Iceland,tent,8.0,unique,paired,t_i_12_1.jpg,Travel,,,sub-47
Desktop or Laptop,Windows 10,Chrome 138.0.0.0,3440x1440,3440x1351,Temporal Distance Task,cb_08,7.0,temp_dist_trial,dist_items,qkpkxw,2.0,response,89,686.0,3680.900000000001,3683.400000143054,686.0,3680.900000000001,3683.400000143054,1.0,2997.400000143054,0.0,,Slider,Slider,4.0,object-56,temp_dist_trial,7.0,t_i_12_1,travel_Iceland,tent,8.0,unique,paired,t_i_12_1.jpg,Travel,,,sub-47
Desktop or Laptop,Windows 10,Chrome 138.0.0.0,3440x1440,3440x1351,Temporal Distance Task,cb_08,8.0,temp_dist_trial,num_items,zn7si1,1.0,response,2_ITEM,1106.9000000000017,1103.2000000000044,1106.9000000000017,1106.9000000000017,1103.2000000000044,1106.9000000000017,1.0,0.0,0.0,,Click Response,2_count,5.0,object-49,temp_dist_trial,8.0,t_s_10_1,travel_shared,luggage lock,8.0,competing,paired,t_s_10_1.jpg,Travel,,,sub-47
Desktop or Laptop,Windows 10,Chrome 138.0.0.0,3440x1440,3440x1351,Temporal Distance Task,cb_08,8.0,temp_dist_trial,dist_items,qkpkxw,2.0,info,,2.1000000476851706,0.0,2.1000000476851706,2.1000000476851706,0.0,2.1000000476851706,1.0,0.0,0.0,,Slider,Slider,4.0,object-56,temp_dist_trial,8.0,t_s_10_1,travel_shared,luggage lock,8.0,competing,paired,t_s_10_1.jpg,Travel,,,sub-47
Desktop or Laptop,Windows 10,Chrome 138.0.0.0,3440x1440,3440x1351,Temporal Distance Task,cb_08,8.0,temp_dist_trial,dist_items,qkpkxw,2.0,continue,,1671.800000095369,1669.0,1671.800000095369,1671.800000095369,1669.0,1671.800000095369,1.0,0.0,0.0,,Click To Continue,Next button,7.0,object-60,temp_dist_trial,8.0,t_s_10_1,travel_shared,luggage lock,8.0,competing,paired,t_s_10_1.jpg,Travel,,,sub-47
Desktop or Laptop,Windows 10,Chrome 138.0.0.0,3440x1440,3440x1351,Temporal Distance Task,cb_08,8.0,temp_dist_trial,dist_items,qkpkxw,2.0,response,83,628.8000000000029,1669.0,1672.0000001430524,628.8000000000029,1669.0,1672.0000001430524,1.0,1043.2000001430497,0.0,,Slider,Slider,4.0,object-56,temp_dist_trial,8.0,t_s_10_1,travel_shared,luggage lock,8.0,competing,paired,t_s_10_1.jpg,Travel,,,sub-47
Desktop or Laptop,Windows 10,Chrome 138.0.0.0,3440x1440,3440x1351,Temporal Distance Task,cb_08,9.0,temp_dist_trial,num_items,zn7si1,1.0,response,1_ITEM,1622.6999999523175,1617.4000000000015,1622.6999999523175,1622.6999999523175,1617.4000000000015,1622.6999999523175,1.0,0.0,0.0,,Click Response,1_count,3.0,object-46,temp_dist_trial,9.0,t_m_20_1,travel_Miami,inflatable beachball,8.0,unique,single,t_m_20_1.jpg,Travel,,,sub-47
Desktop or Laptop,Windows 10,Chrome 138.0.0.0,3440x1440,3440x1351,Temporal Distance Task,cb_08,10.0,temp_dist_trial,num_items,zn7si1,1.0,response,1_ITEM,1698.7000000476835,1697.5,1698.7000000476835,1698.7000000476835,1697.5,1698.7000000476835,1.0,0.0,0.0,,Click Response,1_count,3.0,object-46,temp_dist_trial,10.0,t_i_03_1,travel_Iceland,winter jacket,8.0,unique,single,t_i_03_1.jpg,Travel,,,sub-47
Desktop or Laptop,Windows 10,Chrome 138.0.0.0,3440x1440,3440x1351,Temporal Distance Task,cb_08,11.0,temp_dist_trial,num_items,zn7si1,1.0,response,2_ITEM,1840.7999999523165,1840.3999999999944,1840.7999999523165,1840.7999999523165,1840.3999999999944,1840.7999999523165,1.0,0.0,0.0,,Click Response,2_count,5.0,object-49,temp_dist_trial,11.0,t_s_22_1,travel_shared,belt,8.0,competing,paired,t_s_22_1.jpg,Travel,,,sub-47
Desktop or Laptop,Windows 10,Chrome 138.0.0.0,3440x1440,3440x1351,Temporal Distance Task,cb_08,11.0,temp_dist_trial,dist_items,qkpkxw,2.0,info,,1.8000001430482366,0.0,1.8000001430482366,1.8000001430482366,0.0,1.8000001430482366,1.0,0.0,0.0,,Slider,Slider,4.0,object-56,temp_dist_trial,11.0,t_s_22_1,travel_shared,belt,8.0,competing,paired,t_s_22_1.jpg,Travel,,,sub-47
Desktop or Laptop,Windows 10,Chrome 138.0.0.0,3440x1440,3440x1351,Temporal Distance Task,cb_08,11.0,temp_dist_trial,dist_items,qkpkxw,2.0,continue,,1994.1000000953643,1989.1999999999966,1994.1000000953643,1994.1000000953643,1989.1999999999966,1994.1000000953643,1.0,0.0,0.0,,Click To Continue,Next button,7.0,object-60,temp_dist_trial,11.0,t_s_22_1,travel_shared,belt,8.0,competing,paired,t_s_22_1.jpg,Travel,,,sub-47
Desktop or Laptop,Windows 10,Chrome 138.0.0.0,3440x1440,3440x1351,Temporal Distance Task,cb_08,11.0,temp_dist_trial,dist_items,qkpkxw,2.0,response,24,674.5,1989.1999999999966,1994.1999999999966,674.5,1989.1999999999966,1994.1999999999966,1.0,1319.6999999999969,0.0,,Slider,Slider,4.0,object-56,temp_dist_trial,11.0,t_s_22_1,travel_shared,belt,8.0,competing,paired,t_s_22_1.jpg,Travel,,,sub-47
Desktop or Laptop,Windows 10,Chrome 138.0.0.0,3440x1440,3440x1351,Temporal Distance Task,cb_08,12.0,temp_dist_trial,num_items,zn7si1,1.0,response,2_ITEM,1239.7999999523165,1234.3999999999942,1239.7999999523165,1239.7999999523165,1234.3999999999942,1239.7999999523165,1.0,0.0,0.0,,Click Response,2_count,5.0,object-49,temp_dist_trial,12.0,t_s_05_1,travel_shared,neck pillow,8.0,competing,paired,t_s_05_1.jpg,Travel,,,sub-47
Desktop or Laptop,Windows 10,Chrome 138.0.0.0,3440x1440,3440x1351,Temporal Distance Task,cb_08,12.0,temp_dist_trial,dist_items,qkpkxw,2.0,info,,1.9000000476808048,0.0,1.9000000476808048,1.9000000476808048,0.0,1.9000000476808048,1.0,0.0,0.0,,Slider,Slider,4.0,object-56,temp_dist_trial,12.0,t_s_05_1,travel_shared,neck pillow,8.0,competing,paired,t_s_05_1.jpg,Travel,,,sub-47
Desktop or Laptop,Windows 10,Chrome 138.0.0.0,3440x1440,3440x1351,Temporal Distance Task,cb_08,12.0,temp_dist_trial,dist_items,qkpkxw,2.0,continue,,1348.7999999999886,1343.0999999999913,1348.7999999999886,1348.7999999999886,1343.0999999999913,1348.7999999999886,1.0,0.0,0.0,,Click To Continue,Next button,7.0,object-60,temp_dist_trial,12.0,t_s_05_1,travel_shared,neck pillow,8.0,competing,paired,t_s_05_1.jpg,Travel,,,sub-47
Desktop or Laptop,Windows 10,Chrome 138.0.0.0,3440x1440,3440x1351,Temporal Distance Task,cb_08,12.0,temp_dist_trial,dist_items,qkpkxw,2.0,response,87,617.3000000000029,1343.0999999999913,1348.7999999999886,617.3000000000029,1343.0999999999913,1348.7999999999886,1.0,731.4999999999852,0.0,,Slider,Slider,4.0,object-56,temp_dist_trial,12.0,t_s_05_1,travel_shared,neck pillow,8.0,competing,paired,t_s_05_1.jpg,Travel,,,sub-47
Desktop or Laptop,Windows 10,Chrome 138.0.0.0,3440x1440,3440x1351,Temporal Distance Task,cb_08,13.0,temp_dist_trial,num_items,zn7si1,1.0,response,2_ITEM,865.1000000000058,863.1000000000058,865.1000000000058,865.1000000000058,863.1000000000058,865.1000000000058,1.0,0.0,0.0,,Click Response,2_count,5.0,object-49,temp_dist_trial,13.0,t_s_19_1,travel_shared,pajamas,8.0,competing,paired,t_s_19_1.jpg,Travel,,,sub-47
Desktop or Laptop,Windows 10,Chrome 138.0.0.0,3440x1440,3440x1351,Temporal Distance Task,cb_08,13.0,temp_dist_trial,dist_items,qkpkxw,2.0,info,,2.0,0.0,2.0,2.0,0.0,2.0,1.0,0.0,0.0,,Slider,Slider,4.0,object-56,temp_dist_trial,13.0,t_s_19_1,travel_shared,pajamas,8.0,competing,paired,t_s_19_1.jpg,Travel,,,sub-47
Desktop or Laptop,Windows 10,Chrome 138.0.0.0,3440x1440,3440x1351,Temporal Distance Task,cb_08,13.0,temp_dist_trial,dist_items,qkpkxw,2.0,continue,,1226.2000000476835,1223.1000000000058,1226.2000000476835,1226.2000000476835,1223.1000000000058,1226.2000000476835,1.0,0.0,0.0,,Click To Continue,Next button,7.0,object-60,temp_dist_trial,13.0,t_s_19_1,travel_shared,pajamas,8.0,competing,paired,t_s_19_1.jpg,Travel,,,sub-47
Desktop or Laptop,Windows 10,Chrome 138.0.0.0,3440x1440,3440x1351,Temporal Distance Task,cb_08,13.0,temp_dist_trial,dist_items,qkpkxw,2.0,response,86,434.3999999999942,1223.1000000000058,1226.4000000953674,434.3999999999942,1223.1000000000058,1226.4000000953674,1.0,792.0000000953733,0.0,,Slider,Slider,4.0,object-56,temp_dist_trial,13.0,t_s_19_1,travel_shared,pajamas,8.0,competing,paired,t_s_19_1.jpg,Travel,,,sub-47
Desktop or Laptop,Windows 10,Chrome 138.0.0.0,3440x1440,3440x1351,Temporal Distance Task,cb_08,14.0,temp_dist_trial,num_items,zn7si1,1.0,response,2_ITEM,757.1999999523105,754.3999999999942,757.1999999523105,757.1999999523105,754.3999999999942,757.1999999523105,1.0,0.0,0.0,,Click Response,2_count,5.0,object-49,temp_dist_trial,14.0,t_m_09_1,travel_Miami,beach towel,8.0,unique,paired,t_m_09_1.jpg,Travel,,,sub-47
Desktop or Laptop,Windows 10,Chrome 138.0.0.0,3440x1440,3440x1351,Temporal Distance Task,cb_08,14.0,temp_dist_trial,dist_items,qkpkxw,2.0,info,,2.1000001430511475,0.0,2.1000001430511475,2.1000001430511475,0.0,2.1000001430511475,1.0,0.0,0.0,,Slider,Slider,4.0,object-56,temp_dist_trial,14.0,t_m_09_1,travel_Miami,beach towel,8.0,unique,paired,t_m_09_1.jpg,Travel,,,sub-47
Desktop or Laptop,Windows 10,Chrome 138.0.0.0,3440x1440,3440x1351,Temporal Distance Task,cb_08,14.0,temp_dist_trial,dist_items,qkpkxw,2.0,continue,,1517.2999999523165,1514.5,1517.2999999523165,1517.2999999523165,1514.5,1517.2999999523165,1.0,0.0,0.0,,Click To Continue,Next button,7.0,object-60,temp_dist_trial,14.0,t_m_09_1,travel_Miami,beach towel,8.0,unique,paired,t_m_09_1.jpg,Travel,,,sub-47
Desktop or Laptop,Windows 10,Chrome 138.0.0.0,3440x1440,3440x1351,Temporal Distance Task,cb_08,14.0,temp_dist_trial,dist_items,qkpkxw,2.0,response,85,760.3999999999942,1514.5,1517.5,760.3999999999942,1514.5,1517.5,1.0,757.1000000000058,0.0,,Slider,Slider,4.0,object-56,temp_dist_trial,14.0,t_m_09_1,travel_Miami,beach towel,8.0,unique,paired,t_m_09_1.jpg,Travel,,,sub-47
Desktop or Laptop,Windows 10,Chrome 138.0.0.0,3440x1440,3440x1351,Temporal Distance Task,cb_08,15.0,temp_dist_trial,num_items,zn7si1,1.0,response,1_ITEM,1127.0,1126.1000000000058,1127.0,1127.0,1126.1000000000058,1127.0,1.0,0.0,0.0,,Click Response,1_count,3.0,object-46,temp_dist_trial,15.0,t_s_21_1,travel_shared,umbrella,8.0,competing,single,t_s_21_1.jpg,Travel,,,sub-47
Desktop or Laptop,Windows 10,Chrome 138.0.0.0,3440x1440,3440x1351,Temporal Distance Task,cb_08,16.0,temp_dist_trial,num_items,zn7si1,1.0,response,1_ITEM,1140.5,1137.5,1140.5,1140.5,1137.5,1140.5,1.0,0.0,0.0,,Click Response,1_count,3.0,object-46,temp_dist_trial,16.0,t_m_14_1,travel_Miami,swim goggles,8.0,unique,single,t_m_14_1.jpg,Travel,,,sub-47
Desktop or Laptop,Windows 10,Chrome 138.0.0.0,3440x1440,3440x1351,Temporal Distance Task,cb_08,17.0,temp_dist_trial,num_items,zn7si1,1.0,response,1_ITEM,861.3999999523221,857.4000000000087,861.3999999523221,861.3999999523221,857.4000000000087,861.3999999523221,1.0,0.0,0.0,,Click Response,1_count,3.0,object-46,temp_dist_trial,17.0,t_m_05_1,travel_Miami,sunscreen,8.0,unique,paired,t_m_05_1.jpg,Travel,,,sub-47
Desktop or Laptop,Windows 10,Chrome 138.0.0.0,3440x1440,3440x1351,Temporal Distance Task,cb_08,18.0,temp_dist_trial,num_items,zn7si1,1.0,response,1_ITEM,871.6000000953645,868.6999999999971,871.6000000953645,871.6000000953645,868.6999999999971,871.6000000953645,1.0,0.0,0.0,,Click Response,1_count,3.0,object-46,temp_dist_trial,18.0,t_i_07_1,travel_Iceland,hiking backpack,8.0,unique,single,t_i_07_1.jpg,Travel,,,sub-47
Desktop or Laptop,Windows 10,Chrome 138.0.0.0,3440x1440,3440x1351,Temporal Distance Task,cb_08,19.0,temp_dist_trial,num_items,zn7si1,1.0,response,2_ITEM,932.5000000953733,931.9000000000087,932.5000000953733,932.5000000953733,931.9000000000087,932.5000000953733,1.0,0.0,0.0,,Click Response,2_count,5.0,object-49,temp_dist_trial,19.0,t_m_13_1,travel_Miami,floatie,8.0,unique,paired,t_m_13_1.jpg,Travel,,,sub-47
Desktop or Laptop,Windows 10,Chrome 138.0.0.0,3440x1440,3440x1351,Temporal Distance Task,cb_08,19.0,temp_dist_trial,dist_items,qkpkxw,2.0,info,,1.7000000476837158,0.0,1.7000000476837158,1.7000000476837158,0.0,1.7000000476837158,1.0,0.0,0.0,,Slider,Slider,4.0,object-56,temp_dist_trial,19.0,t_m_13_1,travel_Miami,floatie,8.0,unique,paired,t_m_13_1.jpg,Travel,,,sub-47
Desktop or Laptop,Windows 10,Chrome 138.0.0.0,3440x1440,3440x1351,Temporal Distance Task,cb_08,19.0,temp_dist_trial,dist_items,qkpkxw,2.0,continue,,1414.2999999523165,1411.8000000000034,1414.2999999523165,1414.2999999523165,1411.8000000000034,1414.2999999523165,1.0,0.0,0.0,,Click To Continue,Next button,7.0,object-60,temp_dist_trial,19.0,t_m_13_1,travel_Miami,floatie,8.0,unique,paired,t_m_13_1.jpg,Travel,,,sub-47
Desktop or Laptop,Windows 10,Chrome 138.0.0.0,3440x1440,3440x1351,Temporal Distance Task,cb_08,19.0,temp_dist_trial,dist_items,qkpkxw,2.0,response,42,543.1000000000058,1411.8000000000034,1414.5,543.1000000000058,1411.8000000000034,1414.5,1.0,871.3999999999942,0.0,,Slider,Slider,4.0,object-56,temp_dist_trial,19.0,t_m_13_1,travel_Miami,floatie,8.0,unique,paired,t_m_13_1.jpg,Travel,,,sub-47
Desktop or Laptop,Windows 10,Chrome 138.0.0.0,3440x1440,3440x1351,Temporal Distance Task,cb_08,20.0,temp_dist_trial,num_items,zn7si1,1.0,response,1_ITEM,1387.4000000476804,1383.099999999991,1387.4000000476804,1387.4000000476804,1383.099999999991,1387.4000000476804,1.0,0.0,0.0,,Click Response,1_count,3.0,object-46,temp_dist_trial,20.0,t_s_14_1,travel_shared,hand sanitizer,8.0,competing,single,t_s_14_1.jpg,Travel,,,sub-47
Desktop or Laptop,Windows 10,Chrome 138.0.0.0,3440x1440,3440x1351,Temporal Distance Task,cb_08,21.0,temp_dist_trial,num_items,zn7si1,1.0,response,1_ITEM,1007.8000000476897,1006.0,1007.8000000476897,1007.8000000476897,1006.0,1007.8000000476897,1.0,0.0,0.0,,Click Response,1_count,3.0,object-46,temp_dist_trial,21.0,t_s_12_1,travel_shared,clear toiletry bag,8.0,competing,single,t_s_12_1.jpg,Travel,,,sub-47
Desktop or Laptop,Windows 10,Chrome 138.0.0.0,3440x1440,3440x1351,Temporal Distance Task,cb_08,22.0,temp_dist_trial,num_items,zn7si1,1.0,response,1_ITEM,929.6000000953644,926.0,929.6000000953644,929.6000000953644,926.0,929.6000000953644,1.0,0.0,0.0,,Click Response,1_count,3.0,object-46,temp_dist_trial,22.0,t_s_01_1,travel_shared,fanny pack,8.0,competing,paired,t_s_01_1.jpg,Travel,,,sub-47
Desktop or Laptop,Windows 10,Chrome 138.0.0.0,3440x1440,3440x1351,Temporal Distance Task,cb_08,23.0,temp_dist_trial,num_items,zn7si1,1.0,response,1_ITEM,1177.1000000476781,1172.6999999999969,1177.1000000476781,1177.1000000476781,1172.6999999999969,1177.1000000476781,1.0,0.0,0.0,,Click Response,1_count,3.0,object-46,temp_dist_trial,23.0,t_s_02_1,travel_shared,water bottle,8.0,competing,single,t_s_02_1.jpg,Travel,,,sub-47
Desktop or Laptop,Windows 10,Chrome 138.0.0.0,3440x1440,3440x1351,Temporal Distance Task,cb_08,24.0,temp_dist_trial,num_items,zn7si1,1.0,response,2_ITEM,1100.1000000953643,1097.3000000000031,1100.1000000953643,1100.1000000953643,1097.3000000000031,1100.1000000953643,1.0,0.0,0.0,,Click Response,2_count,5.0,object-49,temp_dist_trial,24.0,t_m_06_1,travel_Miami,handheld fan,8.0,unique,paired,t_m_06_1.jpg,Travel,,,sub-47
Desktop or Laptop,Windows 10,Chrome 138.0.0.0,3440x1440,3440x1351,Temporal Distance Task,cb_08,24.0,temp_dist_trial,dist_items,qkpkxw,2.0,info,,1.8999999999941792,0.0,1.8999999999941792,1.8999999999941792,0.0,1.8999999999941792,1.0,0.0,0.0,,Slider,Slider,4.0,object-56,temp_dist_trial,24.0,t_m_06_1,travel_Miami,handheld fan,8.0,unique,paired,t_m_06_1.jpg,Travel,,,sub-47
Desktop or Laptop,Windows 10,Chrome 138.0.0.0,3440x1440,3440x1351,Temporal Distance Task,cb_08,24.0,temp_dist_trial,dist_items,qkpkxw,2.0,continue,,1346.1000000476781,1343.1999999999969,1346.1000000476781,1346.1000000476781,1343.1999999999969,1346.1000000476781,1.0,0.0,0.0,,Click To Continue,Next button,7.0,object-60,temp_dist_trial,24.0,t_m_06_1,travel_Miami,handheld fan,8.0,unique,paired,t_m_06_1.jpg,Travel,,,sub-47
Desktop or Laptop,Windows 10,Chrome 138.0.0.0,3440x1440,3440x1351,Temporal Distance Task,cb_08,24.0,temp_dist_trial,dist_items,qkpkxw,2.0,response,77,697.2999999999884,1343.1999999999969,1346.3000000953614,697.2999999999884,1343.1999999999969,1346.3000000953614,1.0,649.0000000953733,0.0,,Slider,Slider,4.0,object-56,temp_dist_trial,24.0,t_m_06_1,travel_Miami,handheld fan,8.0,unique,paired,t_m_06_1.jpg,Travel,,,sub-47
Desktop or Laptop,Windows 10,Chrome 138.0.0.0,3440x1440,3440x1351,Temporal Distance Task,cb_08,25.0,temp_dist_trial,num_items,zn7si1,1.0,response,1_ITEM,796.9000000476808,794.5999999999913,796.9000000476808,796.9000000476808,794.5999999999913,796.9000000476808,1.0,0.0,0.0,,Click Response,1_count,3.0,object-46,temp_dist_trial,25.0,t_i_16_1,travel_Iceland,skis,8.0,unique,paired,t_i_16_1.jpg,Travel,,,sub-47
Desktop or Laptop,Windows 10,Chrome 138.0.0.0,3440x1440,3440x1351,Temporal Distance Task,cb_08,26.0,temp_dist_trial,num_items,zn7si1,1.0,response,2_ITEM,942.0999999523192,937.5,942.0999999523192,942.0999999523192,937.5,942.0999999523192,1.0,0.0,0.0,,Click Response,2_count,5.0,object-49,temp_dist_trial,26.0,t_i_01_1,travel_Iceland,gloves,8.0,unique,paired,t_i_01_1.jpg,Travel,,,sub-47
Desktop or Laptop,Windows 10,Chrome 138.0.0.0,3440x1440,3440x1351,Temporal Distance Task,cb_08,26.0,temp_dist_trial,dist_items,qkpkxw,2.0,info,,1.5999999523191946,0.0,1.5999999523191946,1.5999999523191946,0.0,1.5999999523191946,1.0,0.0,0.0,,Slider,Slider,4.0,object-56,temp_dist_trial,26.0,t_i_01_1,travel_Iceland,gloves,8.0,unique,paired,t_i_01_1.jpg,Travel,,,sub-47
Desktop or Laptop,Windows 10,Chrome 138.0.0.0,3440x1440,3440x1351,Temporal Distance Task,cb_08,26.0,temp_dist_trial,dist_items,qkpkxw,2.0,continue,,1103.1000000000204,1097.4000000000087,1103.1000000000204,1103.1000000000204,1097.4000000000087,1103.1000000000204,1.0,0.0,0.0,,Click To Continue,Next button,7.0,object-60,temp_dist_trial,26.0,t_i_01_1,travel_Iceland,gloves,8.0,unique,paired,t_i_01_1.jpg,Travel,,,sub-47
Desktop or Laptop,Windows 10,Chrome 138.0.0.0,3440x1440,3440x1351,Temporal Distance Task,cb_08,26.0,temp_dist_trial,dist_items,qkpkxw,2.0,response,41,445.6999999999971,1097.4000000000087,1103.1000000000204,445.6999999999971,1097.4000000000087,1103.1000000000204,1.0,657.4000000000233,0.0,,Slider,Slider,4.0,object-56,temp_dist_trial,26.0,t_i_01_1,travel_Iceland,gloves,8.0,unique,paired,t_i_01_1.jpg,Travel,,,sub-47
Desktop or Laptop,Windows 10,Chrome 138.0.0.0,3440x1440,3440x1351,Temporal Distance Task,cb_08,27.0,temp_dist_trial,num_items,zn7si1,1.0,response,2_ITEM,1640.099999999991,1634.3999999999942,1640.099999999991,1640.099999999991,1634.3999999999942,1640.099999999991,1.0,0.0,0.0,,Click Response,2_count,5.0,object-49,temp_dist_trial,27.0,t_m_10_1,travel_Miami,tanktop,8.0,unique,single,t_m_10_1.jpg,Travel,,,sub-47
Desktop or Laptop,Windows 10,Chrome 138.0.0.0,3440x1440,3440x1351,Temporal Distance Task,cb_08,27.0,temp_dist_trial,dist_items,qkpkxw,2.0,info,,1.7999999523162842,0.0,1.7999999523162842,1.7999999523162842,0.0,1.7999999523162842,1.0,0.0,0.0,,Slider,Slider,4.0,object-56,temp_dist_trial,27.0,t_m_10_1,travel_Miami,tanktop,8.0,unique,single,t_m_10_1.jpg,Travel,,,sub-47
Desktop or Laptop,Windows 10,Chrome 138.0.0.0,3440x1440,3440x1351,Temporal Distance Task,cb_08,27.0,temp_dist_trial,dist_items,qkpkxw,2.0,continue,,2388.600000143051,2383.300000000003,2388.600000143051,2388.600000143051,2383.300000000003,2388.600000143051,1.0,0.0,0.0,,Click To Continue,Next button,7.0,object-60,temp_dist_trial,27.0,t_m_10_1,travel_Miami,tanktop,8.0,unique,single,t_m_10_1.jpg,Travel,,,sub-47
Desktop or Laptop,Windows 10,Chrome 138.0.0.0,3440x1440,3440x1351,Temporal Distance Task,cb_08,27.0,temp_dist_trial,dist_items,qkpkxw,2.0,response,83,886.0,2383.300000000003,2388.7999999523167,886.0,2383.300000000003,2388.7999999523167,1.0,1502.7999999523165,0.0,,Slider,Slider,4.0,object-56,temp_dist_trial,27.0,t_m_10_1,travel_Miami,tanktop,8.0,unique,single,t_m_10_1.jpg,Travel,,,sub-47
Desktop or Laptop,Windows 10,Chrome 138.0.0.0,3440x1440,3440x1351,Temporal Distance Task,cb_08,28.0,temp_dist_trial,num_items,zn7si1,1.0,response,1_ITEM,1585.4999999523136,1583.3999999999942,1585.4999999523136,1585.4999999523136,1583.3999999999942,1585.4999999523136,1.0,0.0,0.0,,Click Response,1_count,3.0,object-46,temp_dist_trial,28.0,t_s_15_1,travel_shared,luggage tag,8.0,competing,paired,t_s_15_1.jpg,Travel,,,sub-47
Desktop or Laptop,Windows 10,Chrome 138.0.0.0,3440x1440,3440x1351,Temporal Distance Task,cb_08,29.0,temp_dist_trial,num_items,zn7si1,1.0,response,2_ITEM,886.7000000476837,886.0,886.7000000476837,886.7000000476837,886.0,886.7000000476837,1.0,0.0,0.0,,Click Response,2_count,5.0,object-49,temp_dist_trial,29.0,t_s_13_1,travel_shared,contact lens case,8.0,competing,paired,t_s_13_1.jpg,Travel,,,sub-47
Desktop or Laptop,Windows 10,Chrome 138.0.0.0,3440x1440,3440x1351,Temporal Distance Task,cb_08,29.0,temp_dist_trial,dist_items,qkpkxw,2.0,info,,2.0000000953732524,0.0,2.0000000953732524,2.0000000953732524,0.0,2.0000000953732524,1.0,0.0,0.0,,Slider,Slider,4.0,object-56,temp_dist_trial,29.0,t_s_13_1,travel_shared,contact lens case,8.0,competing,paired,t_s_13_1.jpg,Travel,,,sub-47
Desktop or Laptop,Windows 10,Chrome 138.0.0.0,3440x1440,3440x1351,Temporal Distance Task,cb_08,29.0,temp_dist_trial,dist_items,qkpkxw,2.0,continue,,1424.5000000953733,1423.2000000000116,1424.5000000953733,1424.5000000953733,1423.2000000000116,1424.5000000953733,1.0,0.0,0.0,,Click To Continue,Next button,7.0,object-60,temp_dist_trial,29.0,t_s_13_1,travel_shared,contact lens case,8.0,competing,paired,t_s_13_1.jpg,Travel,,,sub-47
Desktop or Laptop,Windows 10,Chrome 138.0.0.0,3440x1440,3440x1351,Temporal Distance Task,cb_08,29.0,temp_dist_trial,dist_items,qkpkxw,2.0,response,85,651.5,1423.2000000000116,1424.700000143057,651.5,1423.2000000000116,1424.700000143057,1.0,773.200000143057,0.0,,Slider,Slider,4.0,object-56,temp_dist_trial,29.0,t_s_13_1,travel_shared,contact lens case,8.0,competing,paired,t_s_13_1.jpg,Travel,,,sub-47
Desktop or Laptop,Windows 10,Chrome 138.0.0.0,3440x1440,3440x1351,Temporal Distance Task,cb_08,30.0,temp_dist_trial,num_items,zn7si1,1.0,response,2_ITEM,1710.3000000953616,1708.8999999999942,1710.3000000953616,1710.3000000953616,1708.8999999999942,1710.3000000953616,1.0,0.0,0.0,,Click Response,2_count,5.0,object-49,temp_dist_trial,30.0,t_m_03_1,travel_Miami,wetsuit,8.0,unique,paired,t_m_03_1.jpg,Travel,,,sub-47
Desktop or Laptop,Windows 10,Chrome 138.0.0.0,3440x1440,3440x1351,Temporal Distance Task,cb_08,30.0,temp_dist_trial,dist_items,qkpkxw,2.0,info,,2.0,0.0,2.0,2.0,0.0,2.0,1.0,0.0,0.0,,Slider,Slider,4.0,object-56,temp_dist_trial,30.0,t_m_03_1,travel_Miami,wetsuit,8.0,unique,paired,t_m_03_1.jpg,Travel,,,sub-47
Desktop or Laptop,Windows 10,Chrome 138.0.0.0,3440x1440,3440x1351,Temporal Distance Task,cb_08,30.0,temp_dist_trial,dist_items,qkpkxw,2.0,continue,,1360.2000000000114,1354.6000000000058,1360.2000000000114,1360.2000000000114,1354.6000000000058,1360.2000000000114,1.0,0.0,0.0,,Click To Continue,Next button,7.0,object-60,temp_dist_trial,30.0,t_m_03_1,travel_Miami,wetsuit,8.0,unique,paired,t_m_03_1.jpg,Travel,,,sub-47
Desktop or Laptop,Windows 10,Chrome 138.0.0.0,3440x1440,3440x1351,Temporal Distance Task,cb_08,30.0,temp_dist_trial,dist_items,qkpkxw,2.0,response,85,651.5,1354.6000000000058,1360.2000000000114,651.5,1354.6000000000058,1360.2000000000114,1.0,708.7000000000116,0.0,,Slider,Slider,4.0,object-56,temp_dist_trial,30.0,t_m_03_1,travel_Miami,wetsuit,8.0,unique,paired,t_m_03_1.jpg,Travel,,,sub-47
Desktop or Laptop,Windows 10,Chrome 138.0.0.0,3440x1440,3440x1351,Temporal Distance Task,cb_08,31.0,temp_dist_trial,num_items,zn7si1,1.0,response,1_ITEM,1661.3000000953616,1657.3999999999942,1661.3000000953616,1661.3000000953616,1657.3999999999942,1661.3000000953616,1.0,0.0,0.0,,Click Response,1_count,3.0,object-46,temp_dist_trial,31.0,t_i_02_1,travel_Iceland,scarf,8.0,unique,single,t_i_02_1.jpg,Travel,,,sub-47
Desktop or Laptop,Windows 10,Chrome 138.0.0.0,3440x1440,3440x1351,Temporal Distance Task,cb_08,32.0,temp_dist_trial,num_items,zn7si1,1.0,response,1_ITEM,1926.1000000000056,1920.5,1926.1000000000056,1926.1000000000056,1920.5,1926.1000000000056,1.0,0.0,0.0,,Click Response,1_count,3.0,object-46,temp_dist_trial,32.0,t_s_16_1,travel_shared,chapstick,8.0,competing,single,t_s_16_1.jpg,Travel,,,sub-47
Desktop or Laptop,Windows 10,Chrome 138.0.0.0,3440x1440,3440x1351,Temporal Distance Task,cb_08,33.0,temp_dist_trial,num_items,zn7si1,1.0,response,1_ITEM,974.4000000953674,971.6999999999972,974.4000000953674,974.4000000953674,971.6999999999972,974.4000000953674,1.0,0.0,0.0,,Click Response,1_count,3.0,object-46,temp_dist_trial,33.0,t_i_17_1,travel_Iceland,binoculars,8.0,unique,single,t_i_17_1.jpg,Travel,,,sub-47
Desktop or Laptop,Windows 10,Chrome 138.0.0.0,3440x1440,3440x1351,Temporal Distance Task,cb_08,34.0,temp_dist_trial,num_items,zn7si1,1.0,response,1_ITEM,1322.5000000953733,1320.4000000000087,1322.5000000953733,1322.5000000953733,1320.4000000000087,1322.5000000953733,1.0,0.0,0.0,,Click Response,1_count,3.0,object-46,temp_dist_trial,34.0,t_s_04_1,travel_shared,instant camera,8.0,competing,paired,t_s_04_1.jpg,Travel,,,sub-47
Desktop or Laptop,Windows 10,Chrome 138.0.0.0,3440x1440,3440x1351,Temporal Distance Task,cb_08,35.0,temp_dist_trial,num_items,zn7si1,1.0,response,1_ITEM,755.5000000953733,754.2000000000116,755.5000000953733,755.5000000953733,754.2000000000116,755.5000000953733,1.0,0.0,0.0,,Click Response,1_count,3.0,object-46,temp_dist_trial,35.0,t_s_08_1,travel_shared,hand lotion,8.0,competing,paired,t_s_08_1.jpg,Travel,,,sub-47
Desktop or Laptop,Windows 10,Chrome 138.0.0.0,3440x1440,3440x1351,Temporal Distance Task,cb_08,36.0,temp_dist_trial,num_items,zn7si1,1.0,response,1_ITEM,1554.599999999991,1548.8999999999942,1554.599999999991,1554.599999999991,1548.8999999999942,1554.599999999991,1.0,0.0,0.0,,Click Response,1_count,3.0,object-46,temp_dist_trial,36.0,t_i_04_1,travel_Iceland,portable camping stove,8.0,unique,paired,t_i_04_1.jpg,Travel,,,sub-47
Desktop or Laptop,Windows 10,Chrome 138.0.0.0,3440x1440,3440x1351,Temporal Distance Task,cb_08,37.0,temp_dist_trial,num_items,zn7si1,1.0,response,1_ITEM,923.1000000953644,920.0999999999913,923.1000000953644,923.1000000953644,920.0999999999913,923.1000000953644,1.0,0.0,0.0,,Click Response,1_count,3.0,object-46,temp_dist_trial,37.0,t_m_04_1,travel_Miami,UV jacket,8.0,unique,single,t_m_04_1.jpg,Travel,,,sub-47
Desktop or Laptop,Windows 10,Chrome 138.0.0.0,3440x1440,3440x1351,Temporal Distance Task,cb_08,38.0,temp_dist_trial,num_items,zn7si1,1.0,response,1_ITEM,876.6000000953645,874.5,876.6000000953645,876.6000000953645,874.5,876.6000000953645,1.0,0.0,0.0,,Click Response,1_count,3.0,object-46,temp_dist_trial,38.0,t_i_14_1,travel_Iceland,snow pants,8.0,unique,paired,t_i_14_1.jpg,Travel,,,sub-47
Desktop or Laptop,Windows 10,Chrome 138.0.0.0,3440x1440,3440x1351,Temporal Distance Task,cb_08,39.0,temp_dist_trial,num_items,zn7si1,1.0,response,1_ITEM,981.6000000953644,977.3000000000028,981.6000000953644,981.6000000953644,977.3000000000028,981.6000000953644,1.0,0.0,0.0,,Click Response,1_count,3.0,object-46,temp_dist_trial,39.0,t_i_06_1,travel_Iceland,knit hat,8.0,unique,paired,t_i_06_1.jpg,Travel,,,sub-47
Desktop or Laptop,Windows 10,Chrome 138.0.0.0,3440x1440,3440x1351,Temporal Distance Task,cb_08,40.0,temp_dist_trial,num_items,zn7si1,1.0,response,2_ITEM,1012.6999999523103,1011.5999999999913,1012.6999999523103,1012.6999999523103,1011.5999999999913,1012.6999999523103,1.0,0.0,0.0,,Click Response,2_count,5.0,object-49,temp_dist_trial,40.0,t_s_07_1,travel_shared,phone charger cable,8.0,competing,paired,t_s_07_1.jpg,Travel,,,sub-47
Desktop or Laptop,Windows 10,Chrome 138.0.0.0,3440x1440,3440x1351,Temporal Distance Task,cb_08,40.0,temp_dist_trial,dist_items,qkpkxw,2.0,info,,1.600000047677895,0.0,1.600000047677895,1.600000047677895,0.0,1.600000047677895,1.0,0.0,0.0,,Slider,Slider,4.0,object-56,temp_dist_trial,40.0,t_s_07_1,travel_shared,phone charger cable,8.0,competing,paired,t_s_07_1.jpg,Travel,,,sub-47
Desktop or Laptop,Windows 10,Chrome 138.0.0.0,3440x1440,3440x1351,Temporal Distance Task,cb_08,40.0,temp_dist_trial,dist_items,qkpkxw,2.0,continue,,1193.500000143045,1188.7999999999886,1193.500000143045,1193.500000143045,1188.7999999999886,1193.500000143045,1.0,0.0,0.0,,Click To Continue,Next button,7.0,object-60,temp_dist_trial,40.0,t_s_07_1,travel_shared,phone charger cable,8.0,competing,paired,t_s_07_1.jpg,Travel,,,sub-47
Desktop or Laptop,Windows 10,Chrome 138.0.0.0,3440x1440,3440x1351,Temporal Distance Task,cb_08,40.0,temp_dist_trial,dist_items,qkpkxw,2.0,response,83,491.5,1188.7999999999886,1193.8000000953614,491.5,1188.7999999999886,1193.8000000953614,1.0,702.3000000953616,0.0,,Slider,Slider,4.0,object-56,temp_dist_trial,40.0,t_s_07_1,travel_shared,phone charger cable,8.0,competing,paired,t_s_07_1.jpg,Travel,,,sub-47
Desktop or Laptop,Windows 10,Chrome 138.0.0.0,3440x1440,3440x1351,Temporal Distance Task,cb_08,41.0,temp_dist_trial,num_items,zn7si1,1.0,response,2_ITEM,1124.8999999523219,1120.4000000000087,1124.8999999523219,1124.8999999523219,1120.4000000000087,1124.8999999523219,1.0,0.0,0.0,,Click Response,2_count,5.0,object-49,temp_dist_trial,41.0,t_m_07_1,travel_Miami,sunglasses,8.0,unique,paired,t_m_07_1.jpg,Travel,,,sub-47
Desktop or Laptop,Windows 10,Chrome 138.0.0.0,3440x1440,3440x1351,Temporal Distance Task,cb_08,41.0,temp_dist_trial,dist_items,qkpkxw,2.0,info,,1.8000000953616109,0.0,1.8000000953616109,1.8000000953616109,0.0,1.8000000953616109,1.0,0.0,0.0,,Slider,Slider,4.0,object-56,temp_dist_trial,41.0,t_m_07_1,travel_Miami,sunglasses,8.0,unique,paired,t_m_07_1.jpg,Travel,,,sub-47
Desktop or Laptop,Windows 10,Chrome 138.0.0.0,3440x1440,3440x1351,Temporal Distance Task,cb_08,41.0,temp_dist_trial,dist_items,qkpkxw,2.0,continue,,1219.1000000476781,1217.5999999999913,1219.1000000476781,1219.1000000476781,1217.5999999999913,1219.1000000476781,1.0,0.0,0.0,,Click To Continue,Next button,7.0,object-60,temp_dist_trial,41.0,t_m_07_1,travel_Miami,sunglasses,8.0,unique,paired,t_m_07_1.jpg,Travel,,,sub-47
Desktop or Laptop,Windows 10,Chrome 138.0.0.0,3440x1440,3440x1351,Temporal Distance Task,cb_08,41.0,temp_dist_trial,dist_items,qkpkxw,2.0,response,85,474.5,1217.5999999999913,1219.3999999999942,474.5,1217.5999999999913,1219.3999999999942,1.0,744.8999999999942,0.0,,Slider,Slider,4.0,object-56,temp_dist_trial,41.0,t_m_07_1,travel_Miami,sunglasses,8.0,unique,paired,t_m_07_1.jpg,Travel,,,sub-47
Desktop or Laptop,Windows 10,Chrome 138.0.0.0,3440x1440,3440x1351,Temporal Distance Task,cb_08,42.0,temp_dist_trial,num_items,zn7si1,1.0,response,1_ITEM,1005.9999999999852,1000.1999999999972,1005.9999999999852,1005.9999999999852,1000.1999999999972,1005.9999999999852,1.0,0.0,0.0,,Click Response,1_count,3.0,object-46,temp_dist_trial,42.0,t_i_11_1,travel_Iceland,headlamp,8.0,unique,paired,t_i_11_1.jpg,Travel,,,sub-47
Desktop or Laptop,Windows 10,Chrome 138.0.0.0,3440x1440,3440x1351,Temporal Distance Task,cb_08,43.0,temp_dist_trial,num_items,zn7si1,1.0,response,2_ITEM,1093.8000000476898,1091.5,1093.8000000476898,1093.8000000476898,1091.5,1093.8000000476898,1.0,0.0,0.0,,Click Response,2_count,5.0,object-49,temp_dist_trial,43.0,t_i_18_1,travel_Iceland,ski mask,8.0,unique,paired,t_i_18_1.jpg,Travel,,,sub-47
Desktop or Laptop,Windows 10,Chrome 138.0.0.0,3440x1440,3440x1351,Temporal Distance Task,cb_08,43.0,temp_dist_trial,dist_items,qkpkxw,2.0,info,,1.6999999999970896,0.0,1.6999999999970896,1.6999999999970896,0.0,1.6999999999970896,1.0,0.0,0.0,,Slider,Slider,4.0,object-56,temp_dist_trial,43.0,t_i_18_1,travel_Iceland,ski mask,8.0,unique,paired,t_i_18_1.jpg,Travel,,,sub-47
Desktop or Laptop,Windows 10,Chrome 138.0.0.0,3440x1440,3440x1351,Temporal Distance Task,cb_08,43.0,temp_dist_trial,dist_items,qkpkxw,2.0,continue,,2012.1999999999966,2006.3999999999944,2012.1999999999966,2012.1999999999966,2006.3999999999944,2012.1999999999966,1.0,0.0,0.0,,Click To Continue,Next button,7.0,object-60,temp_dist_trial,43.0,t_i_18_1,travel_Iceland,ski mask,8.0,unique,paired,t_i_18_1.jpg,Travel,,,sub-47
Desktop or Laptop,Windows 10,Chrome 138.0.0.0,3440x1440,3440x1351,Temporal Distance Task,cb_08,43.0,temp_dist_trial,dist_items,qkpkxw,2.0,response,34,514.5,2006.3999999999944,2012.1999999999966,514.5,2006.3999999999944,2012.1999999999966,1.0,1497.6999999999966,0.0,,Slider,Slider,4.0,object-56,temp_dist_trial,43.0,t_i_18_1,travel_Iceland,ski mask,8.0,unique,paired,t_i_18_1.jpg,Travel,,,sub-47
Desktop or Laptop,Windows 10,Chrome 138.0.0.0,3440x1440,3440x1351,Temporal Distance Task,cb_08,44.0,temp_dist_trial,num_items,zn7si1,1.0,response,1_ITEM,1009.5000000476866,1005.8000000000028,1009.5000000476866,1009.5000000476866,1005.8000000000028,1009.5000000476866,1.0,0.0,0.0,,Click Response,1_count,3.0,object-46,temp_dist_trial,44.0,t_s_18_1,travel_shared,first aid kit,8.0,competing,paired,t_s_18_1.jpg,Travel,,,sub-47
Desktop or Laptop,Windows 10,Chrome 138.0.0.0,3440x1440,3440x1351,Temporal Distance Task,cb_08,45.0,temp_dist_trial,num_items,zn7si1,1.0,response,2_ITEM,1177.2000000000114,1171.7000000000114,1177.2000000000114,1177.2000000000114,1171.7000000000114,1177.2000000000114,1.0,0.0,0.0,,Click Response,2_count,5.0,object-49,temp_dist_trial,45.0,t_s_11_1,travel_shared,eye mask,8.0,competing,paired,t_s_11_1.jpg,Travel,,,sub-47
Desktop or Laptop,Windows 10,Chrome 138.0.0.0,3440x1440,3440x1351,Temporal Distance Task,cb_08,45.0,temp_dist_trial,dist_items,qkpkxw,2.0,info,,1.7000000476837158,0.0,1.7000000476837158,1.7000000476837158,0.0,1.7000000476837158,1.0,0.0,0.0,,Slider,Slider,4.0,object-56,temp_dist_trial,45.0,t_s_11_1,travel_shared,eye mask,8.0,competing,paired,t_s_11_1.jpg,Travel,,,sub-47
Desktop or Laptop,Windows 10,Chrome 138.0.0.0,3440x1440,3440x1351,Temporal Distance Task,cb_08,45.0,temp_dist_trial,dist_items,qkpkxw,2.0,continue,,1269.1999999999825,1263.2999999999886,1269.1999999999825,1269.1999999999825,1263.2999999999886,1269.1999999999825,1.0,0.0,0.0,,Click To Continue,Next button,7.0,object-60,temp_dist_trial,45.0,t_s_11_1,travel_shared,eye mask,8.0,competing,paired,t_s_11_1.jpg,Travel,,,sub-47
Desktop or Laptop,Windows 10,Chrome 138.0.0.0,3440x1440,3440x1351,Temporal Distance Task,cb_08,45.0,temp_dist_trial,dist_items,qkpkxw,2.0,response,84,566.0,1263.2999999999886,1269.1999999999825,566.0,1263.2999999999886,1269.1999999999825,1.0,703.1999999999823,0.0,,Slider,Slider,4.0,object-56,temp_dist_trial,45.0,t_s_11_1,travel_shared,eye mask,8.0,competing,paired,t_s_11_1.jpg,Travel,,,sub-47
Desktop or Laptop,Windows 10,Chrome 138.0.0.0,3440x1440,3440x1351,Temporal Distance Task,cb_08,46.0,temp_dist_trial,num_items,zn7si1,1.0,response,1_ITEM,1256.8000001430628,1251.5,1256.8000001430628,1256.8000001430628,1251.5,1256.8000001430628,1.0,0.0,0.0,,Click Response,1_count,3.0,object-46,temp_dist_trial,46.0,t_m_11_1,travel_Miami,collapsible beach chair,8.0,unique,paired,t_m_11_1.jpg,Travel,,,sub-47
Desktop or Laptop,Windows 10,Chrome 138.0.0.0,3440x1440,3440x1351,Temporal Distance Task,cb_08,47.0,temp_dist_trial,num_items,zn7si1,1.0,response,1_ITEM,978.999999952328,977.5,978.999999952328,978.999999952328,977.5,978.999999952328,1.0,0.0,0.0,,Click Response,1_count,3.0,object-46,temp_dist_trial,47.0,t_s_09_1,travel_shared,wallet,8.0,competing,single,t_s_09_1.jpg,Travel,,,sub-47
Desktop or Laptop,Windows 10,Chrome 138.0.0.0,3440x1440,3440x1351,Temporal Distance Task,cb_08,48.0,temp_dist_trial,num_items,zn7si1,1.0,response,1_ITEM,1019.3999999999942,1017.5,1019.3999999999942,1019.3999999999942,1017.5,1019.3999999999942,1.0,0.0,0.0,,Click Response,1_count,3.0,object-46,temp_dist_trial,48.0,t_s_06_1,travel_shared,luggage,8.0,competing,single,t_s_06_1.jpg,Travel,,,sub-47
Desktop or Laptop,Windows 10,Chrome 138.0.0.0,3440x1440,3440x1351,Temporal Distance Task,cb_08,2.0,temp_eventStart,Screen 1,dgtyxe,1.0,continue,,1636.4000000953674,1634.7999999999884,1636.4000000953674,1636.4000000953674,1634.7999999999884,1636.4000000953674,1.0,0.0,0.0,,Click To Continue,Next Button,3.0,object-43,temp_eventStart,,,Student,,,,,,,,,sub-47
Desktop or Laptop,Windows 10,Chrome 138.0.0.0,3440x1440,3440x1351,Temporal Distance Task,cb_08,49.0,temp_dist_trial,num_items,zn7si1,1.0,response,1_ITEM,1270.499999952328,1268.8000000000175,1270.499999952328,1270.499999952328,1268.8000000000175,1270.499999952328,1.0,0.0,0.0,,Click Response,1_count,3.0,object-46,temp_dist_trial,1.0,s_sh_11_1,student_shared,pencil case,8.0,competing,single,s_sh_11_1.jpg,Student,,,sub-47
Desktop or Laptop,Windows 10,Chrome 138.0.0.0,3440x1440,3440x1351,Temporal Distance Task,cb_08,50.0,temp_dist_trial,num_items,zn7si1,1.0,response,2_ITEM,951.3000000476897,948.8999999999942,951.3000000476897,951.3000000476897,948.8999999999942,951.3000000476897,1.0,0.0,0.0,,Click Response,2_count,5.0,object-49,temp_dist_trial,2.0,s_a_14_1,student_art,guitar pick,8.0,unique,paired,s_a_14_1.jpg,Student,,,sub-47
Desktop or Laptop,Windows 10,Chrome 138.0.0.0,3440x1440,3440x1351,Temporal Distance Task,cb_08,50.0,temp_dist_trial,dist_items,qkpkxw,2.0,info,,2.300000143062789,0.0,2.300000143062789,2.300000143062789,0.0,2.300000143062789,1.0,0.0,0.0,,Slider,Slider,4.0,object-56,temp_dist_trial,2.0,s_a_14_1,student_art,guitar pick,8.0,unique,paired,s_a_14_1.jpg,Student,,,sub-47
Desktop or Laptop,Windows 10,Chrome 138.0.0.0,3440x1440,3440x1351,Temporal Distance Task,cb_08,50.0,temp_dist_trial,dist_items,qkpkxw,2.0,continue,,2074.8999999999937,2069.1000000000063,2074.8999999999937,2074.8999999999937,2069.1000000000063,2074.8999999999937,1.0,0.0,0.0,,Click To Continue,Next button,7.0,object-60,temp_dist_trial,2.0,s_a_14_1,student_art,guitar pick,8.0,unique,paired,s_a_14_1.jpg,Student,,,sub-47
Desktop or Laptop,Windows 10,Chrome 138.0.0.0,3440x1440,3440x1351,Temporal Distance Task,cb_08,50.0,temp_dist_trial,dist_items,qkpkxw,2.0,response,71,685.9000000000233,2069.1000000000063,2074.8999999999937,685.9000000000233,2069.1000000000063,2074.8999999999937,1.0,1388.999999999971,0.0,,Slider,Slider,4.0,object-56,temp_dist_trial,2.0,s_a_14_1,student_art,guitar pick,8.0,unique,paired,s_a_14_1.jpg,Student,,,sub-47
Desktop or Laptop,Windows 10,Chrome 138.0.0.0,3440x1440,3440x1351,Temporal Distance Task,cb_08,51.0,temp_dist_trial,num_items,zn7si1,1.0,response,1_ITEM,1390.8000000476895,1388.7000000000116,1390.8000000476895,1390.8000000476895,1388.7000000000116,1390.8000000476895,1.0,0.0,0.0,,Click Response,1_count,3.0,object-46,temp_dist_trial,3.0,s_sh_06_1,student_shared,clipboard,8.0,competing,single,s_sh_06_1.jpg,Student,,,sub-47
Desktop or Laptop,Windows 10,Chrome 138.0.0.0,3440x1440,3440x1351,Temporal Distance Task,cb_08,52.0,temp_dist_trial,num_items,zn7si1,1.0,response,1_ITEM,821.9000000953674,817.3999999999942,821.9000000953674,821.9000000953674,817.3999999999942,821.9000000953674,1.0,0.0,0.0,,Click Response,1_count,3.0,object-46,temp_dist_trial,4.0,s_sh_16_1,student_shared,stapler,8.0,competing,paired,s_sh_16_1.jpg,Student,,,sub-47
Desktop or Laptop,Windows 10,Chrome 138.0.0.0,3440x1440,3440x1351,Temporal Distance Task,cb_08,53.0,temp_dist_trial,num_items,zn7si1,1.0,response,1_ITEM,988.0000000953733,983.1000000000058,988.0000000953733,988.0000000953733,983.1000000000058,988.0000000953733,1.0,0.0,0.0,,Click Response,1_count,3.0,object-46,temp_dist_trial,5.0,s_a_12_1,student_art,saxophone,8.0,unique,paired,s_a_12_1.jpg,Student,,,sub-47
Desktop or Laptop,Windows 10,Chrome 138.0.0.0,3440x1440,3440x1351,Temporal Distance Task,cb_08,54.0,temp_dist_trial,num_items,zn7si1,1.0,response,1_ITEM,792.1999999523105,788.6000000000058,792.1999999523105,792.1999999523105,788.6000000000058,792.1999999523105,1.0,0.0,0.0,,Click Response,1_count,3.0,object-46,temp_dist_trial,6.0,s_a_03_1,student_art,palette,8.0,unique,single,s_a_03_1.jpg,Student,,,sub-47
Desktop or Laptop,Windows 10,Chrome 138.0.0.0,3440x1440,3440x1351,Temporal Distance Task,cb_08,55.0,temp_dist_trial,num_items,zn7si1,1.0,response,1_ITEM,883.2000000953557,880.0999999999768,883.2000000953557,883.2000000953557,880.0999999999768,883.2000000953557,1.0,0.0,0.0,,Click Response,1_count,3.0,object-46,temp_dist_trial,7.0,s_s_08_1,student_stem,soldering iron,8.0,unique,paired,s_s_08_1.jpg,Student,,,sub-47
Desktop or Laptop,Windows 10,Chrome 138.0.0.0,3440x1440,3440x1351,Temporal Distance Task,cb_08,56.0,temp_dist_trial,num_items,zn7si1,1.0,response,1_ITEM,916.2999999523164,914.2000000000116,916.2999999523164,916.2999999523164,914.2000000000116,916.2999999523164,1.0,0.0,0.0,,Click Response,1_count,3.0,object-46,temp_dist_trial,8.0,s_s_03_1,student_stem,petri dish,8.0,unique,single,s_s_03_1.jpg,Student,,,sub-47
Desktop or Laptop,Windows 10,Chrome 138.0.0.0,3440x1440,3440x1351,Temporal Distance Task,cb_08,57.0,temp_dist_trial,num_items,zn7si1,1.0,response,1_ITEM,1108.7999999999593,1103.0999999999767,1108.7999999999593,1108.7999999999593,1103.0999999999767,1108.7999999999593,1.0,0.0,0.0,,Click Response,1_count,3.0,object-46,temp_dist_trial,9.0,s_sh_14_1,student_shared,printer,8.0,competing,single,s_sh_14_1.jpg,Student,,,sub-47
Desktop or Laptop,Windows 10,Chrome 138.0.0.0,3440x1440,3440x1351,Temporal Distance Task,cb_08,58.0,temp_dist_trial,num_items,zn7si1,1.0,response,1_ITEM,686.1000000000057,680.3999999999943,686.1000000000057,686.1000000000057,680.3999999999943,686.1000000000057,1.0,0.0,0.0,,Click Response,1_count,3.0,object-46,temp_dist_trial,10.0,s_sh_02_1,student_shared,eraser,8.0,competing,paired,s_sh_02_1.jpg,Student,,,sub-47
Desktop or Laptop,Windows 10,Chrome 138.0.0.0,3440x1440,3440x1351,Temporal Distance Task,cb_08,59.0,temp_dist_trial,num_items,zn7si1,1.0,response,1_ITEM,744.5000000953733,743.1000000000058,744.5000000953733,744.5000000953733,743.1000000000058,744.5000000953733,1.0,0.0,0.0,,Click Response,1_count,3.0,object-46,temp_dist_trial,11.0,s_s_19_1,student_stem,circuit board,8.0,unique,paired,s_s_19_1.jpg,Student,,,sub-47
Desktop or Laptop,Windows 10,Chrome 138.0.0.0,3440x1440,3440x1351,Temporal Distance Task,cb_08,60.0,temp_dist_trial,num_items,zn7si1,1.0,response,1_ITEM,874.1000001430511,868.7000000000116,874.1000001430511,874.1000001430511,868.7000000000116,874.1000001430511,1.0,0.0,0.0,,Click Response,1_count,3.0,object-46,temp_dist_trial,12.0,s_s_11_1,student_stem,scientific scale,8.0,unique,paired,s_s_11_1.jpg,Student,,,sub-47
Desktop or Laptop,Windows 10,Chrome 138.0.0.0,3440x1440,3440x1351,Temporal Distance Task,cb_08,61.0,temp_dist_trial,num_items,zn7si1,1.0,response,1_ITEM,1343.4000000000233,1337.5,1343.4000000000233,1343.4000000000233,1337.5,1343.4000000000233,1.0,0.0,0.0,,Click Response,1_count,3.0,object-46,temp_dist_trial,13.0,s_s_14_1,student_stem,funnel,8.0,unique,single,s_s_14_1.jpg,Student,,,sub-47
Desktop or Laptop,Windows 10,Chrome 138.0.0.0,3440x1440,3440x1351,Temporal Distance Task,cb_08,62.0,temp_dist_trial,num_items,zn7si1,1.0,response,2_ITEM,1104.7000000476835,1103.1000000000058,1104.7000000476835,1104.7000000476835,1103.1000000000058,1104.7000000476835,1.0,0.0,0.0,,Click Response,2_count,5.0,object-49,temp_dist_trial,14.0,s_sh_04_1,student_shared,laptop stand,8.0,competing,paired,s_sh_04_1.jpg,Student,,,sub-47
Desktop or Laptop,Windows 10,Chrome 138.0.0.0,3440x1440,3440x1351,Temporal Distance Task,cb_08,62.0,temp_dist_trial,dist_items,qkpkxw,2.0,info,,1.6999999523104634,0.0,1.6999999523104634,1.6999999523104634,0.0,1.6999999523104634,1.0,0.0,0.0,,Slider,Slider,4.0,object-56,temp_dist_trial,14.0,s_sh_04_1,student_shared,laptop stand,8.0,competing,paired,s_sh_04_1.jpg,Student,,,sub-47
Desktop or Laptop,Windows 10,Chrome 138.0.0.0,3440x1440,3440x1351,Temporal Distance Task,cb_08,62.0,temp_dist_trial,dist_items,qkpkxw,2.0,continue,,1381.3000000953616,1377.3999999999942,1381.3000000953616,1381.3000000953616,1377.3999999999942,1381.3000000953616,1.0,0.0,0.0,,Click To Continue,Next button,7.0,object-60,temp_dist_trial,14.0,s_sh_04_1,student_shared,laptop stand,8.0,competing,paired,s_sh_04_1.jpg,Student,,,sub-47
Desktop or Laptop,Windows 10,Chrome 138.0.0.0,3440x1440,3440x1351,Temporal Distance Task,cb_08,62.0,temp_dist_trial,dist_items,qkpkxw,2.0,response,35,623.0,1377.3999999999942,1382.600000047678,623.0,1377.3999999999942,1382.600000047678,1.0,759.6000000476779,0.0,,Slider,Slider,4.0,object-56,temp_dist_trial,14.0,s_sh_04_1,student_shared,laptop stand,8.0,competing,paired,s_sh_04_1.jpg,Student,,,sub-47
Desktop or Laptop,Windows 10,Chrome 138.0.0.0,3440x1440,3440x1351,Temporal Distance Task,cb_08,63.0,temp_dist_trial,num_items,zn7si1,1.0,response,2_ITEM,933.6000001430513,931.7000000000116,933.6000001430513,933.6000001430513,931.7000000000116,933.6000001430513,1.0,0.0,0.0,,Click Response,2_count,5.0,object-49,temp_dist_trial,15.0,s_a_05_1,student_art,clay,8.0,unique,paired,s_a_05_1.jpg,Student,,,sub-47
Desktop or Laptop,Windows 10,Chrome 138.0.0.0,3440x1440,3440x1351,Temporal Distance Task,cb_08,63.0,temp_dist_trial,dist_items,qkpkxw,2.0,info,,1.7000000476837158,0.0,1.7000000476837158,1.7000000476837158,0.0,1.7000000476837158,1.0,0.0,0.0,,Slider,Slider,4.0,object-56,temp_dist_trial,15.0,s_a_05_1,student_art,clay,8.0,unique,paired,s_a_05_1.jpg,Student,,,sub-47
Desktop or Laptop,Windows 10,Chrome 138.0.0.0,3440x1440,3440x1351,Temporal Distance Task,cb_08,63.0,temp_dist_trial,dist_items,qkpkxw,2.0,continue,,2056.0,2052.0,2056.0,2056.0,2052.0,2056.0,1.0,0.0,0.0,,Click To Continue,Next button,7.0,object-60,temp_dist_trial,15.0,s_a_05_1,student_art,clay,8.0,unique,paired,s_a_05_1.jpg,Student,,,sub-47
Desktop or Laptop,Windows 10,Chrome 138.0.0.0,3440x1440,3440x1351,Temporal Distance Task,cb_08,63.0,temp_dist_trial,dist_items,qkpkxw,2.0,response,67,1286.1000000000058,2052.0,2056.100000143051,1286.1000000000058,2052.0,2056.100000143051,1.0,770.0000001430452,0.0,,Slider,Slider,4.0,object-56,temp_dist_trial,15.0,s_a_05_1,student_art,clay,8.0,unique,paired,s_a_05_1.jpg,Student,,,sub-47
Desktop or Laptop,Windows 10,Chrome 138.0.0.0,3440x1440,3440x1351,Temporal Distance Task,cb_08,64.0,temp_dist_trial,num_items,zn7si1,1.0,response,2_ITEM,1128.7999999523165,1125.8999999999942,1128.7999999523165,1128.7999999523165,1125.8999999999942,1128.7999999523165,1.0,0.0,0.0,,Click Response,2_count,5.0,object-49,temp_dist_trial,16.0,s_sh_05_1,student_shared,laptop,8.0,competing,paired,s_sh_05_1.jpg,Student,,,sub-47
Desktop or Laptop,Windows 10,Chrome 138.0.0.0,3440x1440,3440x1351,Temporal Distance Task,cb_08,64.0,temp_dist_trial,dist_items,qkpkxw,2.0,info,,1.7000000000116415,0.0,1.7000000000116415,1.7000000000116415,0.0,1.7000000000116415,1.0,0.0,0.0,,Slider,Slider,4.0,object-56,temp_dist_trial,16.0,s_sh_05_1,student_shared,laptop,8.0,competing,paired,s_sh_05_1.jpg,Student,,,sub-47
Desktop or Laptop,Windows 10,Chrome 138.0.0.0,3440x1440,3440x1351,Temporal Distance Task,cb_08,64.0,temp_dist_trial,dist_items,qkpkxw,2.0,continue,,2110.400000047696,2109.200000000012,2110.400000047696,2110.400000047696,2109.200000000012,2110.400000047696,1.0,0.0,0.0,,Click To Continue,Next button,7.0,object-60,temp_dist_trial,16.0,s_sh_05_1,student_shared,laptop,8.0,competing,paired,s_sh_05_1.jpg,Student,,,sub-47
Desktop or Laptop,Windows 10,Chrome 138.0.0.0,3440x1440,3440x1351,Temporal Distance Task,cb_08,64.0,temp_dist_trial,dist_items,qkpkxw,2.0,response,28,571.7000000000116,2109.200000000012,2110.600000095379,571.7000000000116,2109.200000000012,2110.600000095379,1.0,1538.9000000953674,0.0,,Slider,Slider,4.0,object-56,temp_dist_trial,16.0,s_sh_05_1,student_shared,laptop,8.0,competing,paired,s_sh_05_1.jpg,Student,,,sub-47
Desktop or Laptop,Windows 10,Chrome 138.0.0.0,3440x1440,3440x1351,Temporal Distance Task,cb_08,65.0,temp_dist_trial,num_items,zn7si1,1.0,response,1_ITEM,917.2000000476836,914.3999999999942,917.2000000476836,917.2000000476836,914.3999999999942,917.2000000476836,1.0,0.0,0.0,,Click Response,1_count,3.0,object-46,temp_dist_trial,17.0,s_a_06_1,student_art,pastels,8.0,unique,paired,s_a_06_1.jpg,Student,,,sub-47
Desktop or Laptop,Windows 10,Chrome 138.0.0.0,3440x1440,3440x1351,Temporal Distance Task,cb_08,66.0,temp_dist_trial,num_items,zn7si1,1.0,response,1_ITEM,790.2999999523163,788.6000000000058,790.2999999523163,790.2999999523163,788.6000000000058,790.2999999523163,1.0,0.0,0.0,,Click Response,1_count,3.0,object-46,temp_dist_trial,18.0,s_sh_07_1,student_shared,ruler,8.0,competing,paired,s_sh_07_1.jpg,Student,,,sub-47
Desktop or Laptop,Windows 10,Chrome 138.0.0.0,3440x1440,3440x1351,Temporal Distance Task,cb_08,67.0,temp_dist_trial,num_items,zn7si1,1.0,response,1_ITEM,576.2000000000116,571.4000000000233,576.2000000000116,576.2000000000116,571.4000000000233,576.2000000000116,1.0,0.0,0.0,,Click Response,1_count,3.0,object-46,temp_dist_trial,19.0,s_sh_21_1,student_shared,file holder,8.0,competing,paired,s_sh_21_1.jpg,Student,,,sub-47
Desktop or Laptop,Windows 10,Chrome 138.0.0.0,3440x1440,3440x1351,Temporal Distance Task,cb_08,68.0,temp_dist_trial,num_items,zn7si1,1.0,response,1_ITEM,1403.2000000953558,1400.1999999999825,1403.2000000953558,1403.2000000953558,1400.1999999999825,1403.2000000953558,1.0,0.0,0.0,,Click Response,1_count,3.0,object-46,temp_dist_trial,20.0,s_sh_01_1,student_shared,notebook,8.0,competing,paired,s_sh_01_1.jpg,Student,,,sub-47
Desktop or Laptop,Windows 10,Chrome 138.0.0.0,3440x1440,3440x1351,Temporal Distance Task,cb_08,69.0,temp_dist_trial,num_items,zn7si1,1.0,response,1_ITEM,971.4999999999707,965.7999999999884,971.4999999999707,971.4999999999707,965.7999999999884,971.4999999999707,1.0,0.0,0.0,,Click Response,1_count,3.0,object-46,temp_dist_trial,21.0,s_s_13_1,student_stem,telescope,8.0,unique,single,s_s_13_1.jpg,Student,,,sub-47
Desktop or Laptop,Windows 10,Chrome 138.0.0.0,3440x1440,3440x1351,Temporal Distance Task,cb_08,70.0,temp_dist_trial,num_items,zn7si1,1.0,response,1_ITEM,1118.2000000000116,1114.5,1118.2000000000116,1118.2000000000116,1114.5,1118.2000000000116,1.0,0.0,0.0,,Click Response,1_count,3.0,object-46,temp_dist_trial,22.0,s_sh_19_1,student_shared,portable plastic drawer,8.0,competing,paired,s_sh_19_1.jpg,Student,,,sub-47
Desktop or Laptop,Windows 10,Chrome 138.0.0.0,3440x1440,3440x1351,Temporal Distance Task,cb_08,71.0,temp_dist_trial,num_items,zn7si1,1.0,response,1_ITEM,1767.999999952328,1766.1000000000058,1767.999999952328,1767.999999952328,1766.1000000000058,1767.999999952328,1.0,0.0,0.0,,Click Response,1_count,3.0,object-46,temp_dist_trial,23.0,s_sh_10_1,student_shared,scissors,8.0,competing,single,s_sh_10_1.jpg,Student,,,sub-47
Desktop or Laptop,Windows 10,Chrome 138.0.0.0,3440x1440,3440x1351,Temporal Distance Task,cb_08,72.0,temp_dist_trial,num_items,zn7si1,1.0,response,1_ITEM,1249.5000000953733,1246.0,1249.5000000953733,1249.5000000953733,1246.0,1249.5000000953733,1.0,0.0,0.0,,Click Response,1_count,3.0,object-46,temp_dist_trial,24.0,s_a_09_1,student_art,picture frame,8.0,unique,single,s_a_09_1.jpg,Student,,,sub-47
Desktop or Laptop,Windows 10,Chrome 138.0.0.0,3440x1440,3440x1351,Temporal Distance Task,cb_08,73.0,temp_dist_trial,num_items,zn7si1,1.0,response,1_ITEM,1211.600000000035,1205.9000000000233,1211.600000000035,1211.600000000035,1205.9000000000233,1211.600000000035,1.0,0.0,0.0,,Click Response,1_count,3.0,object-46,temp_dist_trial,25.0,s_a_13_1,student_art,violin,8.0,unique,single,s_a_13_1.jpg,Student,,,sub-47
Desktop or Laptop,Windows 10,Chrome 138.0.0.0,3440x1440,3440x1351,Temporal Distance Task,cb_08,74.0,temp_dist_trial,num_items,zn7si1,1.0,response,1_ITEM,1100.600000095379,1097.3000000000177,1100.600000095379,1100.600000095379,1097.3000000000177,1100.600000095379,1.0,0.0,0.0,,Click Response,1_count,3.0,object-46,temp_dist_trial,26.0,s_sh_13_1,student_shared,index cards,8.0,competing,single,s_sh_13_1.jpg,Student,,,sub-47
Desktop or Laptop,Windows 10,Chrome 138.0.0.0,3440x1440,3440x1351,Temporal Distance Task,cb_08,75.0,temp_dist_trial,num_items,zn7si1,1.0,response,1_ITEM,1375.6999999523105,1371.6999999999825,1375.6999999523105,1375.6999999523105,1371.6999999999825,1375.6999999523105,1.0,0.0,0.0,,Click Response,1_count,3.0,object-46,temp_dist_trial,27.0,s_sh_15_1,student_shared,usb drive,8.0,competing,single,s_sh_15_1.jpg,Student,,,sub-47
Desktop or Laptop,Windows 10,Chrome 138.0.0.0,3440x1440,3440x1351,Temporal Distance Task,cb_08,76.0,temp_dist_trial,num_items,zn7si1,1.0,response,1_ITEM,688.7999999999884,686.0999999999767,688.7999999999884,688.7999999999884,686.0999999999767,688.7999999999884,1.0,0.0,0.0,,Click Response,1_count,3.0,object-46,temp_dist_trial,28.0,s_sh_12_1,student_shared,binder,8.0,competing,single,s_sh_12_1.jpg,Student,,,sub-47
Desktop or Laptop,Windows 10,Chrome 138.0.0.0,3440x1440,3440x1351,Temporal Distance Task,cb_08,77.0,temp_dist_trial,num_items,zn7si1,1.0,response,1_ITEM,535.3999999999942,531.6000000000058,535.3999999999942,535.3999999999942,531.6000000000058,535.3999999999942,1.0,0.0,0.0,,Click Response,1_count,3.0,object-46,temp_dist_trial,29.0,s_a_15_1,student_art,drum kit,8.0,unique,paired,s_a_15_1.jpg,Student,,,sub-47
Desktop or Laptop,Windows 10,Chrome 138.0.0.0,3440x1440,3440x1351,Temporal Distance Task,cb_08,78.0,temp_dist_trial,num_items,zn7si1,1.0,response,1_ITEM,798.2000000953557,794.3999999999942,798.2000000953557,798.2000000953557,794.3999999999942,798.2000000953557,1.0,0.0,0.0,,Click Response,1_count,3.0,object-46,temp_dist_trial,30.0,s_s_15_1,student_stem,jumper cables,8.0,unique,paired,s_s_15_1.jpg,Student,,,sub-47
Desktop or Laptop,Windows 10,Chrome 138.0.0.0,3440x1440,3440x1351,Temporal Distance Task,cb_08,79.0,temp_dist_trial,num_items,zn7si1,1.0,response,1_ITEM,1211.7000000000114,1206.1000000000058,1211.7000000000114,1211.7000000000114,1206.1000000000058,1211.7000000000114,1.0,0.0,0.0,,Click Response,1_count,3.0,object-46,temp_dist_trial,31.0,s_sh_17_1,student_shared,wireless mouse,8.0,competing,paired,s_sh_17_1.jpg,Student,,,sub-47
Desktop or Laptop,Windows 10,Chrome 138.0.0.0,3440x1440,3440x1351,Temporal Distance Task,cb_08,80.0,temp_dist_trial,num_items,zn7si1,1.0,response,1_ITEM,769.1000000000058,766.2000000000116,769.1000000000058,769.1000000000058,766.2000000000116,769.1000000000058,1.0,0.0,0.0,,Click Response,1_count,3.0,object-46,temp_dist_trial,32.0,s_s_10_1,student_stem,3d molecule,8.0,unique,paired,s_s_10_1.jpg,Student,,,sub-47
Desktop or Laptop,Windows 10,Chrome 138.0.0.0,3440x1440,3440x1351,Temporal Distance Task,cb_08,81.0,temp_dist_trial,num_items,zn7si1,1.0,response,2_ITEM,1812.8000000476893,1812.0,1812.8000000476893,1812.8000000476893,1812.0,1812.8000000476893,1.0,0.0,0.0,,Click Response,2_count,5.0,object-49,temp_dist_trial,33.0,s_sh_08_1,student_shared,post-its,8.0,competing,paired,s_sh_08_1.jpg,Student,,,sub-47
Desktop or Laptop,Windows 10,Chrome 138.0.0.0,3440x1440,3440x1351,Temporal Distance Task,cb_08,81.0,temp_dist_trial,dist_items,qkpkxw,2.0,info,,1.600000047677895,0.0,1.600000047677895,1.600000047677895,0.0,1.600000047677895,1.0,0.0,0.0,,Slider,Slider,4.0,object-56,temp_dist_trial,33.0,s_sh_08_1,student_shared,post-its,8.0,competing,paired,s_sh_08_1.jpg,Student,,,sub-47
Desktop or Laptop,Windows 10,Chrome 138.0.0.0,3440x1440,3440x1351,Temporal Distance Task,cb_08,81.0,temp_dist_trial,dist_items,qkpkxw,2.0,continue,,1249.1999999523105,1246.1000000000058,1249.1999999523105,1249.1999999523105,1246.1000000000058,1249.1999999523105,1.0,0.0,0.0,,Click To Continue,Next button,7.0,object-60,temp_dist_trial,33.0,s_sh_08_1,student_shared,post-its,8.0,competing,paired,s_sh_08_1.jpg,Student,,,sub-47
Desktop or Laptop,Windows 10,Chrome 138.0.0.0,3440x1440,3440x1351,Temporal Distance Task,cb_08,81.0,temp_dist_trial,dist_items,qkpkxw,2.0,response,71,605.8999999999943,1246.1000000000058,1249.3999999999942,605.8999999999943,1246.1000000000058,1249.3999999999942,1.0,643.5,0.0,,Slider,Slider,4.0,object-56,temp_dist_trial,33.0,s_sh_08_1,student_shared,post-its,8.0,competing,paired,s_sh_08_1.jpg,Student,,,sub-47
Desktop or Laptop,Windows 10,Chrome 138.0.0.0,3440x1440,3440x1351,Temporal Distance Task,cb_08,82.0,temp_dist_trial,num_items,zn7si1,1.0,response,1_ITEM,838.0999999523046,834.3999999999942,838.0999999523046,838.0999999523046,834.3999999999942,838.0999999523046,1.0,0.0,0.0,,Click Response,1_count,3.0,object-46,temp_dist_trial,34.0,s_s_17_1,student_stem,ring stand,8.0,unique,single,s_s_17_1.jpg,Student,,,sub-47
Desktop or Laptop,Windows 10,Chrome 138.0.0.0,3440x1440,3440x1351,Temporal Distance Task,cb_08,83.0,temp_dist_trial,num_items,zn7si1,1.0,response,2_ITEM,1506.0000001430453,1503.0,1506.0000001430453,1506.0000001430453,1503.0,1506.0000001430453,1.0,0.0,0.0,,Click Response,2_count,5.0,object-49,temp_dist_trial,35.0,s_s_06_1,student_stem,calculator,8.0,unique,paired,s_s_06_1.jpg,Student,,,sub-47
Desktop or Laptop,Windows 10,Chrome 138.0.0.0,3440x1440,3440x1351,Temporal Distance Task,cb_08,83.0,temp_dist_trial,dist_items,qkpkxw,2.0,info,,1.7000000000116415,0.0,1.7000000000116415,1.7000000000116415,0.0,1.7000000000116415,1.0,0.0,0.0,,Slider,Slider,4.0,object-56,temp_dist_trial,35.0,s_s_06_1,student_stem,calculator,8.0,unique,paired,s_s_06_1.jpg,Student,,,sub-47
Desktop or Laptop,Windows 10,Chrome 138.0.0.0,3440x1440,3440x1351,Temporal Distance Task,cb_08,83.0,temp_dist_trial,dist_items,qkpkxw,2.0,continue,,1297.2999999999886,1291.6000000000058,1297.2999999999886,1297.2999999999886,1291.6000000000058,1297.2999999999886,1.0,0.0,0.0,,Click To Continue,Next button,7.0,object-60,temp_dist_trial,35.0,s_s_06_1,student_stem,calculator,8.0,unique,paired,s_s_06_1.jpg,Student,,,sub-47
Desktop or Laptop,Windows 10,Chrome 138.0.0.0,3440x1440,3440x1351,Temporal Distance Task,cb_08,83.0,temp_dist_trial,dist_items,qkpkxw,2.0,response,73,605.7000000000116,1291.6000000000058,1297.2999999999886,605.7000000000116,1291.6000000000058,1297.2999999999886,1.0,691.5999999999768,0.0,,Slider,Slider,4.0,object-56,temp_dist_trial,35.0,s_s_06_1,student_stem,calculator,8.0,unique,paired,s_s_06_1.jpg,Student,,,sub-47
Desktop or Laptop,Windows 10,Chrome 138.0.0.0,3440x1440,3440x1351,Temporal Distance Task,cb_08,84.0,temp_dist_trial,num_items,zn7si1,1.0,response,1_ITEM,769.700000143057,765.8000000000177,769.700000143057,769.700000143057,765.8000000000177,769.700000143057,1.0,0.0,0.0,,Click Response,1_count,3.0,object-46,temp_dist_trial,36.0,s_s_20_1,student_stem,dna model,8.0,unique,paired,s_s_20_1.jpg,Student,,,sub-47
Desktop or Laptop,Windows 10,Chrome 138.0.0.0,3440x1440,3440x1351,Temporal Distance Task,cb_08,85.0,temp_dist_trial,num_items,zn7si1,1.0,response,1_ITEM,1197.700000143057,1194.3999999999942,1197.700000143057,1197.700000143057,1194.3999999999942,1197.700000143057,1.0,0.0,0.0,,Click Response,1_count,3.0,object-46,temp_dist_trial,37.0,s_sh_09_1,student_shared,paper clips,8.0,competing,paired,s_sh_09_1.jpg,Student,,,sub-47
Desktop or Laptop,Windows 10,Chrome 138.0.0.0,3440x1440,3440x1351,Temporal Distance Task,cb_08,86.0,temp_dist_trial,num_items,zn7si1,1.0,response,2_ITEM,1246.0,1240.2999999999886,1246.0,1246.0,1240.2999999999886,1246.0,1.0,0.0,0.0,,Click Response,2_count,5.0,object-49,temp_dist_trial,38.0,s_a_01_1,student_art,paintbrush,8.0,unique,paired,s_a_01_1.jpg,Student,,,sub-47
Desktop or Laptop,Windows 10,Chrome 138.0.0.0,3440x1440,3440x1351,Temporal Distance Task,cb_08,86.0,temp_dist_trial,dist_items,qkpkxw,2.0,info,,1.5000000476720745,0.0,1.5000000476720745,1.5000000476720745,0.0,1.5000000476720745,1.0,0.0,0.0,,Slider,Slider,4.0,object-56,temp_dist_trial,38.0,s_a_01_1,student_art,paintbrush,8.0,unique,paired,s_a_01_1.jpg,Student,,,sub-47
Desktop or Laptop,Windows 10,Chrome 138.0.0.0,3440x1440,3440x1351,Temporal Distance Task,cb_08,86.0,temp_dist_trial,dist_items,qkpkxw,2.0,continue,,2234.9000000000233,2229.0,2234.9000000000233,2234.9000000000233,2229.0,2234.9000000000233,1.0,0.0,0.0,,Click To Continue,Next button,7.0,object-60,temp_dist_trial,38.0,s_a_01_1,student_art,paintbrush,8.0,unique,paired,s_a_01_1.jpg,Student,,,sub-47
Desktop or Laptop,Windows 10,Chrome 138.0.0.0,3440x1440,3440x1351,Temporal Distance Task,cb_08,86.0,temp_dist_trial,dist_items,qkpkxw,2.0,response,30,925.7999999999884,2229.0,2234.9000000000233,925.7999999999884,2229.0,2234.9000000000233,1.0,1309.100000000035,0.0,,Slider,Slider,4.0,object-56,temp_dist_trial,38.0,s_a_01_1,student_art,paintbrush,8.0,unique,paired,s_a_01_1.jpg,Student,,,sub-47
Desktop or Laptop,Windows 10,Chrome 138.0.0.0,3440x1440,3440x1351,Temporal Distance Task,cb_08,87.0,temp_dist_trial,num_items,zn7si1,1.0,response,1_ITEM,715.4000001430395,714.1999999999823,715.4000001430395,715.4000001430395,714.1999999999823,715.4000001430395,1.0,0.0,0.0,,Click Response,1_count,3.0,object-46,temp_dist_trial,39.0,s_s_16_1,student_stem,toolbox,8.0,unique,paired,s_s_16_1.jpg,Student,,,sub-47
Desktop or Laptop,Windows 10,Chrome 138.0.0.0,3440x1440,3440x1351,Temporal Distance Task,cb_08,88.0,temp_dist_trial,num_items,zn7si1,1.0,response,2_ITEM,980.9000000953674,977.2000000000116,980.9000000953674,980.9000000953674,977.2000000000116,980.9000000953674,1.0,0.0,0.0,,Click Response,2_count,5.0,object-49,temp_dist_trial,40.0,s_a_18_1,student_art,tutu,8.0,unique,paired,s_a_18_1.jpg,Student,,,sub-47
Desktop or Laptop,Windows 10,Chrome 138.0.0.0,3440x1440,3440x1351,Temporal Distance Task,cb_08,88.0,temp_dist_trial,dist_items,qkpkxw,2.0,info,,1.5999999523046426,0.0,1.5999999523046426,1.5999999523046426,0.0,1.5999999523046426,1.0,0.0,0.0,,Slider,Slider,4.0,object-56,temp_dist_trial,40.0,s_a_18_1,student_art,tutu,8.0,unique,paired,s_a_18_1.jpg,Student,,,sub-47
Desktop or Laptop,Windows 10,Chrome 138.0.0.0,3440x1440,3440x1351,Temporal Distance Task,cb_08,88.0,temp_dist_trial,dist_items,qkpkxw,2.0,continue,,1317.0999999523046,1314.5999999999767,1317.0999999523046,1317.0999999523046,1314.5999999999767,1317.0999999523046,1.0,0.0,0.0,,Click To Continue,Next button,7.0,object-60,temp_dist_trial,40.0,s_a_18_1,student_art,tutu,8.0,unique,paired,s_a_18_1.jpg,Student,,,sub-47
Desktop or Laptop,Windows 10,Chrome 138.0.0.0,3440x1440,3440x1351,Temporal Distance Task,cb_08,88.0,temp_dist_trial,dist_items,qkpkxw,2.0,response,29,543.0,1314.5999999999767,1319.7999999999886,543.0,1314.5999999999767,1319.7999999999886,1.0,776.7999999999884,0.0,,Slider,Slider,4.0,object-56,temp_dist_trial,40.0,s_a_18_1,student_art,tutu,8.0,unique,paired,s_a_18_1.jpg,Student,,,sub-47
Desktop or Laptop,Windows 10,Chrome 138.0.0.0,3440x1440,3440x1351,Temporal Distance Task,cb_08,89.0,temp_dist_trial,num_items,zn7si1,1.0,response,1_ITEM,896.3000001430628,891.6000000000058,896.3000001430628,896.3000001430628,891.6000000000058,896.3000001430628,1.0,0.0,0.0,,Click Response,1_count,3.0,object-46,temp_dist_trial,41.0,s_sh_18_1,student_shared,wall calendar,8.0,competing,paired,s_sh_18_1.jpg,Student,,,sub-47
Desktop or Laptop,Windows 10,Chrome 138.0.0.0,3440x1440,3440x1351,Temporal Distance Task,cb_08,90.0,temp_dist_trial,num_items,zn7si1,1.0,response,1_ITEM,1989.2999999999884,1983.3999999999944,1989.2999999999884,1989.2999999999884,1983.3999999999944,1989.2999999999884,1.0,0.0,0.0,,Click Response,1_count,3.0,object-46,temp_dist_trial,42.0,s_a_08_1,student_art,sewing machine,8.0,unique,single,s_a_08_1.jpg,Student,,,sub-47
Desktop or Laptop,Windows 10,Chrome 138.0.0.0,3440x1440,3440x1351,Temporal Distance Task,cb_08,91.0,temp_dist_trial,num_items,zn7si1,1.0,response,2_ITEM,1049.3000001430628,1045.8000000000177,1049.3000001430628,1049.3000001430628,1045.8000000000177,1049.3000001430628,1.0,0.0,0.0,,Click Response,2_count,5.0,object-49,temp_dist_trial,43.0,s_sh_23_1,student_shared,ballpoint pen,8.0,competing,paired,s_sh_23_1.jpg,Student,,,sub-47
Desktop or Laptop,Windows 10,Chrome 138.0.0.0,3440x1440,3440x1351,Temporal Distance Task,cb_08,91.0,temp_dist_trial,dist_items,qkpkxw,2.0,info,,2.1999999523104634,0.0,2.1999999523104634,2.1999999523104634,0.0,2.1999999523104634,1.0,0.0,0.0,,Slider,Slider,4.0,object-56,temp_dist_trial,43.0,s_sh_23_1,student_shared,ballpoint pen,8.0,competing,paired,s_sh_23_1.jpg,Student,,,sub-47
Desktop or Laptop,Windows 10,Chrome 138.0.0.0,3440x1440,3440x1351,Temporal Distance Task,cb_08,91.0,temp_dist_trial,dist_items,qkpkxw,2.0,continue,,1417.3999999999646,1411.6999999999825,1417.3999999999646,1417.3999999999646,1411.6999999999825,1417.3999999999646,1.0,0.0,0.0,,Click To Continue,Next button,7.0,object-60,temp_dist_trial,43.0,s_sh_23_1,student_shared,ballpoint pen,8.0,competing,paired,s_sh_23_1.jpg,Student,,,sub-47
Desktop or Laptop,Windows 10,Chrome 138.0.0.0,3440x1440,3440x1351,Temporal Distance Task,cb_08,91.0,temp_dist_trial,dist_items,qkpkxw,2.0,response,31,617.2999999999884,1411.6999999999825,1417.3999999999646,617.2999999999884,1411.6999999999825,1417.3999999999646,1.0,800.0999999999768,0.0,,Slider,Slider,4.0,object-56,temp_dist_trial,43.0,s_sh_23_1,student_shared,ballpoint pen,8.0,competing,paired,s_sh_23_1.jpg,Student,,,sub-47
Desktop or Laptop,Windows 10,Chrome 138.0.0.0,3440x1440,3440x1351,Temporal Distance Task,cb_08,92.0,temp_dist_trial,num_items,zn7si1,1.0,response,1_ITEM,740.4999999523279,737.4000000000232,740.4999999523279,740.4999999523279,737.4000000000232,740.4999999523279,1.0,0.0,0.0,,Click Response,1_count,3.0,object-46,temp_dist_trial,44.0,s_sh_03_1,student_shared,highlighter,8.0,competing,paired,s_sh_03_1.jpg,Student,,,sub-47
Desktop or Laptop,Windows 10,Chrome 138.0.0.0,3440x1440,3440x1351,Temporal Distance Task,cb_08,93.0,temp_dist_trial,num_items,zn7si1,1.0,response,1_ITEM,1046.1999999999823,1040.3999999999942,1046.1999999999823,1046.1999999999823,1040.3999999999942,1046.1999999999823,1.0,0.0,0.0,,Click Response,1_count,3.0,object-46,temp_dist_trial,45.0,s_a_07_1,student_art,yarn,8.0,unique,paired,s_a_07_1.jpg,Student,,,sub-47
Desktop or Laptop,Windows 10,Chrome 138.0.0.0,3440x1440,3440x1351,Temporal Distance Task,cb_08,94.0,temp_dist_trial,num_items,zn7si1,1.0,response,1_ITEM,769.2000000953557,766.1999999999823,769.2000000953557,769.2000000953557,766.1999999999823,769.2000000953557,1.0,0.0,0.0,,Click Response,1_count,3.0,object-46,temp_dist_trial,46.0,s_sh_22_1,student_shared,hole puncher,8.0,competing,paired,s_sh_22_1.jpg,Student,,,sub-47
Desktop or Laptop,Windows 10,Chrome 138.0.0.0,3440x1440,3440x1351,Temporal Distance Task,cb_08,95.0,temp_dist_trial,num_items,zn7si1,1.0,response,2_ITEM,1076.4000001430395,1074.3999999999942,1076.4000001430395,1076.4000001430395,1074.3999999999942,1076.4000001430395,1.0,0.0,0.0,,Click Response,2_count,5.0,object-49,temp_dist_trial,47.0,s_sh_24_1,student_shared,desk organizer,8.0,competing,single,s_sh_24_1.jpg,Student,,,sub-47
Desktop or Laptop,Windows 10,Chrome 138.0.0.0,3440x1440,3440x1351,Temporal Distance Task,cb_08,95.0,temp_dist_trial,dist_items,qkpkxw,2.0,info,,2.100000047677895,0.0,2.100000047677895,2.100000047677895,0.0,2.100000047677895,1.0,0.0,0.0,,Slider,Slider,4.0,object-56,temp_dist_trial,47.0,s_sh_24_1,student_shared,desk organizer,8.0,competing,single,s_sh_24_1.jpg,Student,,,sub-47
Desktop or Laptop,Windows 10,Chrome 138.0.0.0,3440x1440,3440x1351,Temporal Distance Task,cb_08,95.0,temp_dist_trial,dist_items,qkpkxw,2.0,continue,,1730.600000047678,1726.1999999999825,1730.600000047678,1730.600000047678,1726.1999999999825,1730.600000047678,1.0,0.0,0.0,,Click To Continue,Next button,7.0,object-60,temp_dist_trial,47.0,s_sh_24_1,student_shared,desk organizer,8.0,competing,single,s_sh_24_1.jpg,Student,,,sub-47
Desktop or Laptop,Windows 10,Chrome 138.0.0.0,3440x1440,3440x1351,Temporal Distance Task,cb_08,95.0,temp_dist_trial,dist_items,qkpkxw,2.0,response,74,1080.3999999999942,1726.1999999999825,1730.6999999523105,1080.3999999999942,1726.1999999999825,1730.6999999523105,1.0,650.2999999523163,0.0,,Slider,Slider,4.0,object-56,temp_dist_trial,47.0,s_sh_24_1,student_shared,desk organizer,8.0,competing,single,s_sh_24_1.jpg,Student,,,sub-47
Desktop or Laptop,Windows 10,Chrome 138.0.0.0,3440x1440,3440x1351,Temporal Distance Task,cb_08,96.0,temp_dist_trial,num_items,zn7si1,1.0,response,1_ITEM,545.2000000000116,542.9000000000234,545.2000000000116,545.2000000000116,542.9000000000234,545.2000000000116,1.0,0.0,0.0,,Click Response,1_count,3.0,object-46,temp_dist_trial,48.0,s_sh_20_1,student_shared,tape,8.0,competing,paired,s_sh_20_1.jpg,Student,,,sub-47
Desktop or Laptop,Windows 10,Chrome 138.0.0.0,3440x1440,3440x1351,Temporal Distance Task,$${counterbalance_group},,,,,,info,END,,,216338.0,,,,0.0,,,,,,,,,,,,,,,,,,,,sub-47
