Participant Device,Participant OS,Participant Browser,Participant Monitor Size,Participant Viewport Size,Task Name,Current Spreadsheet,Trial Number,Display,Screen,Screen ID,Screen Counter,Response Type,Response,Onset Time,Clock Time,Reaction Time,Absolute Onset Time,Absolute Clock Time,Absolute Reaction Time,Correct,Response Duration,Proportion,Tag,Component Name,Object Name,Object Number,Object ID,Spreadsheet: display,Spreadsheet: trial,Spreadsheet: stimulus_id,Spreadsheet: expected_goal,Spreadsheet: stimulus_name,Spreadsheet: c_group,Spreadsheet: condition,Spreadsheet: paired_status,Spreadsheet: stimulus_path,Spreadsheet: block_type,Manipulation: Spreadsheet,Store: enc_test_acc,sub_label
Desktop or Laptop,Windows 10,Chrome 137.0.0.0,1280x720,1280x720,Temporal Distance Task,$${counterbalance_group},,,,,,info,BEGIN,,,,,,,0.0,,,,,,,,,,,,,,,,,,,,sub-50
Desktop or Laptop,Windows 10,Chrome 137.0.0.0,1280x720,1280x720,Temporal Distance Task,cb_01,1.0,temp_instructions,intro_screen,3tnme7,1.0,continue,,14219.700000000745,14203.4,14219.700000000745,14219.700000000745,14203.4,14219.700000000745,1.0,0.0,0.0,,Click To Continue,Continue Button,4.0,object-29,temp_instructions,,,Student,,,,,,,,,sub-50
Desktop or Laptop,Windows 10,Chrome 137.0.0.0,1280x720,1280x720,Temporal Distance Task,cb_01,1.0,temp_instructions,intro_screen_2,52v7ur,2.0,continue,,7065.0,7059.799999999997,7065.0,7065.0,7059.799999999997,7065.0,1.0,0.0,0.0,,Click To Continue,Continue Button,4.0,object-39,temp_instructions,,,Student,,,,,,,,,sub-50
Desktop or Laptop,Windows 10,Chrome 137.0.0.0,1280x720,1280x720,Temporal Distance Task,cb_01,1.0,temp_instructions,intro_screen_3,i7lvwx,3.0,continue,,10240.599999999997,10223.899999999998,10240.599999999997,10240.599999999997,10223.899999999998,10240.599999999997,1.0,0.0,0.0,,Click To Continue,Continue Button,4.0,object-67,temp_instructions,,,Student,,,,,,,,,sub-50
Desktop or Laptop,Windows 10,Chrome 137.0.0.0,1280x720,1280x720,Temporal Distance Task,cb_01,1.0,temp_instructions,test_q1,5ieqx1,4.0,response,choice_3,13284.700000000375,13270.700000000004,13284.700000000375,13284.700000000375,13270.700000000004,13284.700000000375,1.0,0.0,0.0,,Click Response,choice_3,5.0,object-345,temp_instructions,,,Student,,,,,,,,,sub-50
Desktop or Laptop,Windows 10,Chrome 137.0.0.0,1280x720,1280x720,Temporal Distance Task,cb_01,1.0,temp_instructions,score_corr,7ilvjr,5.0,continue,,1277.0000000003708,1265.2999999999956,1277.0000000003708,1277.0000000003708,1265.2999999999956,1277.0000000003708,1.0,0.0,0.0,,Click To Continue,Continue Button,3.0,object-23,temp_instructions,,,Student,,,,,,,,,sub-50
Desktop or Laptop,Windows 10,Chrome 137.0.0.0,1280x720,1280x720,Temporal Distance Task,cb_01,1.0,temp_eventStart,Screen 1,dgtyxe,1.0,continue,,2203.9999999992583,2198.0,2203.9999999992583,2203.9999999992583,2198.0,2203.9999999992583,1.0,0.0,0.0,,Click To Continue,Next Button,3.0,object-43,temp_eventStart,,,Student,,,,,,,,,sub-50
Desktop or Laptop,Windows 10,Chrome 137.0.0.0,1280x720,1280x720,Temporal Distance Task,cb_01,1.0,temp_dist_trial,num_items,zn7si1,1.0,response,1_ITEM,1978.9999999992572,1964.8000000000034,1978.9999999992572,1978.9999999992572,1964.8000000000034,1978.9999999992572,1.0,0.0,0.0,,Click Response,1_count,3.0,object-46,temp_dist_trial,1.0,s_sh_22_1,student_shared,hole puncher,1.0,competing,single,s_sh_22_1.jpg,Student,,,sub-50
Desktop or Laptop,Windows 10,Chrome 137.0.0.0,1280x720,1280x720,Temporal Distance Task,cb_01,2.0,temp_dist_trial,num_items,zn7si1,1.0,response,1_ITEM,1708.9000000003725,1698.3000000000034,1708.9000000003725,1708.9000000003725,1698.3000000000034,1708.9000000003725,1.0,0.0,0.0,,Click Response,1_count,3.0,object-46,temp_dist_trial,2.0,s_sh_08_1,student_shared,post-its,1.0,competing,single,s_sh_08_1.jpg,Student,,,sub-50
Desktop or Laptop,Windows 10,Chrome 137.0.0.0,1280x720,1280x720,Temporal Distance Task,cb_01,3.0,temp_dist_trial,num_items,zn7si1,1.0,response,2_ITEM,1180.6000000003696,1165.5,1180.6000000003696,1180.6000000003696,1165.5,1180.6000000003696,1.0,0.0,0.0,,Click Response,2_count,5.0,object-49,temp_dist_trial,3.0,s_sh_10_1,student_shared,scissors,1.0,competing,paired,s_sh_10_1.jpg,Student,,,sub-50
Desktop or Laptop,Windows 10,Chrome 137.0.0.0,1280x720,1280x720,Temporal Distance Task,cb_01,3.0,temp_dist_trial,dist_items,qkpkxw,2.0,info,,4.8999999996303805,0.0,4.8999999996303805,4.8999999996303805,0.0,4.8999999996303805,1.0,0.0,0.0,,Slider,Slider,4.0,object-56,temp_dist_trial,3.0,s_sh_10_1,student_shared,scissors,1.0,competing,paired,s_sh_10_1.jpg,Student,,,sub-50
Desktop or Laptop,Windows 10,Chrome 137.0.0.0,1280x720,1280x720,Temporal Distance Task,cb_01,3.0,temp_dist_trial,dist_items,qkpkxw,2.0,continue,,4084.899999999631,4079.1000000000067,4084.899999999631,4084.899999999631,4079.1000000000067,4084.899999999631,1.0,0.0,0.0,,Click To Continue,Next button,7.0,object-60,temp_dist_trial,3.0,s_sh_10_1,student_shared,scissors,1.0,competing,paired,s_sh_10_1.jpg,Student,,,sub-50
Desktop or Laptop,Windows 10,Chrome 137.0.0.0,1280x720,1280x720,Temporal Distance Task,cb_01,3.0,temp_dist_trial,dist_items,qkpkxw,2.0,response,50,2414.0,4079.1000000000067,4088.200000000376,2414.0,4079.1000000000067,4088.200000000376,1.0,1674.2000000003754,0.0,,Slider,Slider,4.0,object-56,temp_dist_trial,3.0,s_sh_10_1,student_shared,scissors,1.0,competing,paired,s_sh_10_1.jpg,Student,,,sub-50
Desktop or Laptop,Windows 10,Chrome 137.0.0.0,1280x720,1280x720,Temporal Distance Task,cb_01,4.0,temp_dist_trial,num_items,zn7si1,1.0,response,2_ITEM,2430.799999999625,2414.5,2430.799999999625,2430.799999999625,2414.5,2430.799999999625,1.0,0.0,0.0,,Click Response,2_count,5.0,object-49,temp_dist_trial,4.0,s_s_07_1,student_stem,periodic table,1.0,unique,paired,s_s_07_1.jpg,Student,,,sub-50
Desktop or Laptop,Windows 10,Chrome 137.0.0.0,1280x720,1280x720,Temporal Distance Task,cb_01,4.0,temp_dist_trial,dist_items,qkpkxw,2.0,info,,5.099999999627472,0.0,5.099999999627472,5.099999999627472,0.0,5.099999999627472,1.0,0.0,0.0,,Slider,Slider,4.0,object-56,temp_dist_trial,4.0,s_s_07_1,student_stem,periodic table,1.0,unique,paired,s_s_07_1.jpg,Student,,,sub-50
Desktop or Laptop,Windows 10,Chrome 137.0.0.0,1280x720,1280x720,Temporal Distance Task,cb_01,4.0,temp_dist_trial,dist_items,qkpkxw,2.0,continue,,4482.300000000745,4479.0,4482.300000000745,4482.300000000745,4479.0,4482.300000000745,1.0,0.0,0.0,,Click To Continue,Next button,7.0,object-60,temp_dist_trial,4.0,s_s_07_1,student_stem,periodic table,1.0,unique,paired,s_s_07_1.jpg,Student,,,sub-50
Desktop or Laptop,Windows 10,Chrome 137.0.0.0,1280x720,1280x720,Temporal Distance Task,cb_01,4.0,temp_dist_trial,dist_items,qkpkxw,2.0,response,87,2297.800000000003,4479.0,4482.699999999255,2297.800000000003,4479.0,4482.699999999255,1.0,2184.899999999252,0.0,,Slider,Slider,4.0,object-56,temp_dist_trial,4.0,s_s_07_1,student_stem,periodic table,1.0,unique,paired,s_s_07_1.jpg,Student,,,sub-50
Desktop or Laptop,Windows 10,Chrome 137.0.0.0,1280x720,1280x720,Temporal Distance Task,cb_01,5.0,temp_dist_trial,num_items,zn7si1,1.0,response,1_ITEM,1692.5999999996275,1681.8999999999942,1692.5999999996275,1692.5999999996275,1681.8999999999942,1692.5999999996275,1.0,0.0,0.0,,Click Response,1_count,3.0,object-46,temp_dist_trial,5.0,s_sh_04_1,student_shared,laptop stand,1.0,competing,single,s_sh_04_1.jpg,Student,,,sub-50
Desktop or Laptop,Windows 10,Chrome 137.0.0.0,1280x720,1280x720,Temporal Distance Task,cb_01,6.0,temp_dist_trial,num_items,zn7si1,1.0,response,1_ITEM,2330.099999999249,2314.7999999999884,2330.099999999249,2330.099999999249,2314.7999999999884,2330.099999999249,1.0,0.0,0.0,,Click Response,1_count,3.0,object-46,temp_dist_trial,6.0,s_sh_11_1,student_shared,pencil case,1.0,competing,paired,s_sh_11_1.jpg,Student,,,sub-50
Desktop or Laptop,Windows 10,Chrome 137.0.0.0,1280x720,1280x720,Temporal Distance Task,cb_01,7.0,temp_dist_trial,num_items,zn7si1,1.0,response,2_ITEM,1291.5000000007421,1282.1999999999969,1291.5000000007421,1291.5000000007421,1282.1999999999969,1291.5000000007421,1.0,0.0,0.0,,Click Response,2_count,5.0,object-49,temp_dist_trial,7.0,s_a_10_1,student_art,tripod,1.0,unique,paired,s_a_10_1.jpg,Student,,,sub-50
Desktop or Laptop,Windows 10,Chrome 137.0.0.0,1280x720,1280x720,Temporal Distance Task,cb_01,7.0,temp_dist_trial,dist_items,qkpkxw,2.0,info,,5.099999999627472,0.0,5.099999999627472,5.099999999627472,0.0,5.099999999627472,1.0,0.0,0.0,,Slider,Slider,4.0,object-56,temp_dist_trial,7.0,s_a_10_1,student_art,tripod,1.0,unique,paired,s_a_10_1.jpg,Student,,,sub-50
Desktop or Laptop,Windows 10,Chrome 137.0.0.0,1280x720,1280x720,Temporal Distance Task,cb_01,7.0,temp_dist_trial,dist_items,qkpkxw,2.0,continue,,3177.5999999996275,3163.699999999997,3177.5999999996275,3177.5999999996275,3163.699999999997,3177.5999999996275,1.0,0.0,0.0,,Click To Continue,Next button,7.0,object-60,temp_dist_trial,7.0,s_a_10_1,student_art,tripod,1.0,unique,paired,s_a_10_1.jpg,Student,,,sub-50
Desktop or Laptop,Windows 10,Chrome 137.0.0.0,1280x720,1280x720,Temporal Distance Task,cb_01,7.0,temp_dist_trial,dist_items,qkpkxw,2.0,response,69,1798.3000000000034,3163.699999999997,3178.0,1798.3000000000034,3163.699999999997,3178.0,1.0,1379.6999999999966,0.0,,Slider,Slider,4.0,object-56,temp_dist_trial,7.0,s_a_10_1,student_art,tripod,1.0,unique,paired,s_a_10_1.jpg,Student,,,sub-50
Desktop or Laptop,Windows 10,Chrome 137.0.0.0,1280x720,1280x720,Temporal Distance Task,cb_01,8.0,temp_dist_trial,num_items,zn7si1,1.0,response,1_ITEM,1346.8999999996304,1332.1000000000058,1346.8999999996304,1346.8999999996304,1332.1000000000058,1346.8999999996304,1.0,0.0,0.0,,Click Response,1_count,3.0,object-46,temp_dist_trial,8.0,s_a_12_1,student_art,saxophone,1.0,unique,single,s_a_12_1.jpg,Student,,,sub-50
Desktop or Laptop,Windows 10,Chrome 137.0.0.0,1280x720,1280x720,Temporal Distance Task,cb_01,9.0,temp_dist_trial,num_items,zn7si1,1.0,response,1_ITEM,2320.5,2314.199999999997,2320.5,2320.5,2314.199999999997,2320.5,1.0,0.0,0.0,,Click Response,1_count,3.0,object-46,temp_dist_trial,9.0,s_s_02_1,student_stem,flask,1.0,unique,paired,s_s_02_1.jpg,Student,,,sub-50
Desktop or Laptop,Windows 10,Chrome 137.0.0.0,1280x720,1280x720,Temporal Distance Task,cb_01,10.0,temp_dist_trial,num_items,zn7si1,1.0,response,2_ITEM,1722.4999999996217,1715.099999999991,1722.4999999996217,1722.4999999996217,1715.099999999991,1722.4999999996217,1.0,0.0,0.0,,Click Response,2_count,5.0,object-49,temp_dist_trial,10.0,s_sh_03_1,student_shared,highlighter,1.0,competing,paired,s_sh_03_1.jpg,Student,,,sub-50
Desktop or Laptop,Windows 10,Chrome 137.0.0.0,1280x720,1280x720,Temporal Distance Task,cb_01,10.0,temp_dist_trial,dist_items,qkpkxw,2.0,info,,4.00000000037835,0.0,4.00000000037835,4.00000000037835,0.0,4.00000000037835,1.0,0.0,0.0,,Slider,Slider,4.0,object-56,temp_dist_trial,10.0,s_sh_03_1,student_shared,highlighter,1.0,competing,paired,s_sh_03_1.jpg,Student,,,sub-50
Desktop or Laptop,Windows 10,Chrome 137.0.0.0,1280x720,1280x720,Temporal Distance Task,cb_01,10.0,temp_dist_trial,dist_items,qkpkxw,2.0,continue,,3999.900000000751,3996.200000000012,3999.900000000751,3999.900000000751,3996.200000000012,3999.900000000751,1.0,0.0,0.0,,Click To Continue,Next button,7.0,object-60,temp_dist_trial,10.0,s_sh_03_1,student_shared,highlighter,1.0,competing,paired,s_sh_03_1.jpg,Student,,,sub-50
Desktop or Laptop,Windows 10,Chrome 137.0.0.0,1280x720,1280x720,Temporal Distance Task,cb_01,10.0,temp_dist_trial,dist_items,qkpkxw,2.0,response,39,2031.5,3996.200000000012,4000.400000000751,2031.5,3996.200000000012,4000.400000000751,1.0,1968.9000000007507,0.0,,Slider,Slider,4.0,object-56,temp_dist_trial,10.0,s_sh_03_1,student_shared,highlighter,1.0,competing,paired,s_sh_03_1.jpg,Student,,,sub-50
Desktop or Laptop,Windows 10,Chrome 137.0.0.0,1280x720,1280x720,Temporal Distance Task,cb_01,11.0,temp_dist_trial,num_items,zn7si1,1.0,response,1_ITEM,1229.3999999999942,1215.5,1229.3999999999942,1229.3999999999942,1215.5,1229.3999999999942,1.0,0.0,0.0,,Click Response,1_count,3.0,object-46,temp_dist_trial,11.0,s_s_05_1,student_stem,lab goggles,1.0,unique,paired,s_s_05_1.jpg,Student,,,sub-50
Desktop or Laptop,Windows 10,Chrome 137.0.0.0,1280x720,1280x720,Temporal Distance Task,cb_01,12.0,temp_dist_trial,num_items,zn7si1,1.0,response,2_ITEM,1729.5999999992493,1714.7999999999884,1729.5999999992493,1729.5999999992493,1714.7999999999884,1729.5999999992493,1.0,0.0,0.0,,Click Response,2_count,5.0,object-49,temp_dist_trial,12.0,s_s_01_1,student_stem,microscope,1.0,unique,paired,s_s_01_1.jpg,Student,,,sub-50
Desktop or Laptop,Windows 10,Chrome 137.0.0.0,1280x720,1280x720,Temporal Distance Task,cb_01,12.0,temp_dist_trial,dist_items,qkpkxw,2.0,info,,4.100000000369619,0.0,4.100000000369619,4.100000000369619,0.0,4.100000000369619,1.0,0.0,0.0,,Slider,Slider,4.0,object-56,temp_dist_trial,12.0,s_s_01_1,student_stem,microscope,1.0,unique,paired,s_s_01_1.jpg,Student,,,sub-50
Desktop or Laptop,Windows 10,Chrome 137.0.0.0,1280x720,1280x720,Temporal Distance Task,cb_01,12.0,temp_dist_trial,dist_items,qkpkxw,2.0,continue,,3297.2999999999884,3280.5999999999913,3297.2999999999884,3297.2999999999884,3280.5999999999913,3297.2999999999884,1.0,0.0,0.0,,Click To Continue,Next button,7.0,object-60,temp_dist_trial,12.0,s_s_01_1,student_stem,microscope,1.0,unique,paired,s_s_01_1.jpg,Student,,,sub-50
Desktop or Laptop,Windows 10,Chrome 137.0.0.0,1280x720,1280x720,Temporal Distance Task,cb_01,12.0,temp_dist_trial,dist_items,qkpkxw,2.0,response,68,2148.199999999997,3280.5999999999913,3297.2999999999884,2148.199999999997,3280.5999999999913,3297.2999999999884,1.0,1149.0999999999913,0.0,,Slider,Slider,4.0,object-56,temp_dist_trial,12.0,s_s_01_1,student_stem,microscope,1.0,unique,paired,s_s_01_1.jpg,Student,,,sub-50
Desktop or Laptop,Windows 10,Chrome 137.0.0.0,1280x720,1280x720,Temporal Distance Task,cb_01,13.0,temp_dist_trial,num_items,zn7si1,1.0,response,2_ITEM,1388.0000000003783,1381.5,1388.0000000003783,1388.0000000003783,1381.5,1388.0000000003783,1.0,0.0,0.0,,Click Response,2_count,5.0,object-49,temp_dist_trial,13.0,s_a_04_1,student_art,easel,1.0,unique,paired,s_a_04_1.jpg,Student,,,sub-50
Desktop or Laptop,Windows 10,Chrome 137.0.0.0,1280x720,1280x720,Temporal Distance Task,cb_01,13.0,temp_dist_trial,dist_items,qkpkxw,2.0,info,,4.1999999999970905,0.0,4.1999999999970905,4.1999999999970905,0.0,4.1999999999970905,1.0,0.0,0.0,,Slider,Slider,4.0,object-56,temp_dist_trial,13.0,s_a_04_1,student_art,easel,1.0,unique,paired,s_a_04_1.jpg,Student,,,sub-50
Desktop or Laptop,Windows 10,Chrome 137.0.0.0,1280x720,1280x720,Temporal Distance Task,cb_01,13.0,temp_dist_trial,dist_items,qkpkxw,2.0,continue,,2356.899999999252,2347.800000000003,2356.899999999252,2356.899999999252,2347.800000000003,2356.899999999252,1.0,0.0,0.0,,Click To Continue,Next button,7.0,object-60,temp_dist_trial,13.0,s_a_04_1,student_art,easel,1.0,unique,paired,s_a_04_1.jpg,Student,,,sub-50
Desktop or Laptop,Windows 10,Chrome 137.0.0.0,1280x720,1280x720,Temporal Distance Task,cb_01,13.0,temp_dist_trial,dist_items,qkpkxw,2.0,response,39,932.3999999999942,2347.800000000003,2357.399999999252,932.3999999999942,2347.800000000003,2357.399999999252,1.0,1424.999999999258,0.0,,Slider,Slider,4.0,object-56,temp_dist_trial,13.0,s_a_04_1,student_art,easel,1.0,unique,paired,s_a_04_1.jpg,Student,,,sub-50
Desktop or Laptop,Windows 10,Chrome 137.0.0.0,1280x720,1280x720,Temporal Distance Task,cb_01,14.0,temp_dist_trial,num_items,zn7si1,1.0,response,2_ITEM,1887.5999999992487,1881.5,1887.5999999992487,1887.5999999992487,1881.5,1887.5999999992487,1.0,0.0,0.0,,Click Response,2_count,5.0,object-49,temp_dist_trial,14.0,s_sh_17_1,student_shared,wireless mouse,1.0,competing,single,s_sh_17_1.jpg,Student,,,sub-50
Desktop or Laptop,Windows 10,Chrome 137.0.0.0,1280x720,1280x720,Temporal Distance Task,cb_01,14.0,temp_dist_trial,dist_items,qkpkxw,2.0,info,,3.699999999633292,0.0,3.699999999633292,3.699999999633292,0.0,3.699999999633292,1.0,0.0,0.0,,Slider,Slider,4.0,object-56,temp_dist_trial,14.0,s_sh_17_1,student_shared,wireless mouse,1.0,competing,single,s_sh_17_1.jpg,Student,,,sub-50
Desktop or Laptop,Windows 10,Chrome 137.0.0.0,1280x720,1280x720,Temporal Distance Task,cb_01,14.0,temp_dist_trial,dist_items,qkpkxw,2.0,continue,,3089.1999999996333,3080.400000000009,3089.1999999996333,3089.1999999996333,3080.400000000009,3089.1999999996333,1.0,0.0,0.0,,Click To Continue,Next button,7.0,object-60,temp_dist_trial,14.0,s_sh_17_1,student_shared,wireless mouse,1.0,competing,single,s_sh_17_1.jpg,Student,,,sub-50
Desktop or Laptop,Windows 10,Chrome 137.0.0.0,1280x720,1280x720,Temporal Distance Task,cb_01,14.0,temp_dist_trial,dist_items,qkpkxw,2.0,response,58,1648.400000000009,3080.400000000009,3089.900000000751,1648.400000000009,3080.400000000009,3089.900000000751,1.0,1441.500000000742,0.0,,Slider,Slider,4.0,object-56,temp_dist_trial,14.0,s_sh_17_1,student_shared,wireless mouse,1.0,competing,single,s_sh_17_1.jpg,Student,,,sub-50
Desktop or Laptop,Windows 10,Chrome 137.0.0.0,1280x720,1280x720,Temporal Distance Task,cb_01,15.0,temp_dist_trial,num_items,zn7si1,1.0,response,2_ITEM,1301.0000000007421,1298.8000000000031,1301.0000000007421,1301.0000000007421,1298.8000000000031,1301.0000000007421,1.0,0.0,0.0,,Click Response,2_count,5.0,object-49,temp_dist_trial,15.0,s_sh_13_1,student_shared,index cards,1.0,competing,paired,s_sh_13_1.jpg,Student,,,sub-50
Desktop or Laptop,Windows 10,Chrome 137.0.0.0,1280x720,1280x720,Temporal Distance Task,cb_01,15.0,temp_dist_trial,dist_items,qkpkxw,2.0,info,,4.1999999999970905,0.0,4.1999999999970905,4.1999999999970905,0.0,4.1999999999970905,1.0,0.0,0.0,,Slider,Slider,4.0,object-56,temp_dist_trial,15.0,s_sh_13_1,student_shared,index cards,1.0,competing,paired,s_sh_13_1.jpg,Student,,,sub-50
Desktop or Laptop,Windows 10,Chrome 137.0.0.0,1280x720,1280x720,Temporal Distance Task,cb_01,15.0,temp_dist_trial,dist_items,qkpkxw,2.0,continue,,3243.8999999992516,3230.0999999999913,3243.8999999992516,3243.8999999992516,3230.0999999999913,3243.8999999992516,1.0,0.0,0.0,,Click To Continue,Next button,7.0,object-60,temp_dist_trial,15.0,s_sh_13_1,student_shared,index cards,1.0,competing,paired,s_sh_13_1.jpg,Student,,,sub-50
Desktop or Laptop,Windows 10,Chrome 137.0.0.0,1280x720,1280x720,Temporal Distance Task,cb_01,15.0,temp_dist_trial,dist_items,qkpkxw,2.0,response,70,1298.5999999999913,3230.0999999999913,3244.2999999996255,1298.5999999999913,3230.0999999999913,3244.2999999996255,1.0,1945.6999999996333,0.0,,Slider,Slider,4.0,object-56,temp_dist_trial,15.0,s_sh_13_1,student_shared,index cards,1.0,competing,paired,s_sh_13_1.jpg,Student,,,sub-50
Desktop or Laptop,Windows 10,Chrome 137.0.0.0,1280x720,1280x720,Temporal Distance Task,cb_01,16.0,temp_dist_trial,num_items,zn7si1,1.0,response,2_ITEM,1665.6999999996333,1664.8000000000034,1665.6999999996333,1665.6999999996333,1664.8000000000034,1665.6999999996333,1.0,0.0,0.0,,Click Response,2_count,5.0,object-49,temp_dist_trial,16.0,s_sh_06_1,student_shared,clipboard,1.0,competing,paired,s_sh_06_1.jpg,Student,,,sub-50
Desktop or Laptop,Windows 10,Chrome 137.0.0.0,1280x720,1280x720,Temporal Distance Task,cb_01,16.0,temp_dist_trial,dist_items,qkpkxw,2.0,info,,3.700000000739237,0.0,3.700000000739237,3.700000000739237,0.0,3.700000000739237,1.0,0.0,0.0,,Slider,Slider,4.0,object-56,temp_dist_trial,16.0,s_sh_06_1,student_shared,clipboard,1.0,competing,paired,s_sh_06_1.jpg,Student,,,sub-50
Desktop or Laptop,Windows 10,Chrome 137.0.0.0,1280x720,1280x720,Temporal Distance Task,cb_01,16.0,temp_dist_trial,dist_items,qkpkxw,2.0,continue,,2158.7000000007392,2147.8999999999937,2158.7000000007392,2158.7000000007392,2147.8999999999937,2158.7000000007392,1.0,0.0,0.0,,Click To Continue,Next button,7.0,object-60,temp_dist_trial,16.0,s_sh_06_1,student_shared,clipboard,1.0,competing,paired,s_sh_06_1.jpg,Student,,,sub-50
Desktop or Laptop,Windows 10,Chrome 137.0.0.0,1280x720,1280x720,Temporal Distance Task,cb_01,16.0,temp_dist_trial,dist_items,qkpkxw,2.0,response,35,1132.1999999999969,2147.8999999999937,2159.3000000003667,1132.1999999999969,2147.8999999999937,2159.3000000003667,1.0,1027.1000000003696,0.0,,Slider,Slider,4.0,object-56,temp_dist_trial,16.0,s_sh_06_1,student_shared,clipboard,1.0,competing,paired,s_sh_06_1.jpg,Student,,,sub-50
Desktop or Laptop,Windows 10,Chrome 137.0.0.0,1280x720,1280x720,Temporal Distance Task,cb_01,17.0,temp_dist_trial,num_items,zn7si1,1.0,response,2_ITEM,1213.3000000007448,1199.1000000000058,1213.3000000007448,1213.3000000007448,1199.1000000000058,1213.3000000007448,1.0,0.0,0.0,,Click Response,2_count,5.0,object-49,temp_dist_trial,17.0,s_sh_16_1,student_shared,stapler,1.0,competing,paired,s_sh_16_1.jpg,Student,,,sub-50
Desktop or Laptop,Windows 10,Chrome 137.0.0.0,1280x720,1280x720,Temporal Distance Task,cb_01,17.0,temp_dist_trial,dist_items,qkpkxw,2.0,info,,4.699999999633292,0.0,4.699999999633292,4.699999999633292,0.0,4.699999999633292,1.0,0.0,0.0,,Slider,Slider,4.0,object-56,temp_dist_trial,17.0,s_sh_16_1,student_shared,stapler,1.0,competing,paired,s_sh_16_1.jpg,Student,,,sub-50
Desktop or Laptop,Windows 10,Chrome 137.0.0.0,1280x720,1280x720,Temporal Distance Task,cb_01,17.0,temp_dist_trial,dist_items,qkpkxw,2.0,continue,,2267.400000000751,2264.300000000003,2267.400000000751,2267.400000000751,2264.300000000003,2267.400000000751,1.0,0.0,0.0,,Click To Continue,Next button,7.0,object-60,temp_dist_trial,17.0,s_sh_16_1,student_shared,stapler,1.0,competing,paired,s_sh_16_1.jpg,Student,,,sub-50
Desktop or Laptop,Windows 10,Chrome 137.0.0.0,1280x720,1280x720,Temporal Distance Task,cb_01,17.0,temp_dist_trial,dist_items,qkpkxw,2.0,response,50,832.5,2264.300000000003,2271.199999999633,832.5,2264.300000000003,2271.199999999633,1.0,1438.6999999996333,0.0,,Slider,Slider,4.0,object-56,temp_dist_trial,17.0,s_sh_16_1,student_shared,stapler,1.0,competing,paired,s_sh_16_1.jpg,Student,,,sub-50
Desktop or Laptop,Windows 10,Chrome 137.0.0.0,1280x720,1280x720,Temporal Distance Task,cb_01,18.0,temp_dist_trial,num_items,zn7si1,1.0,response,1_ITEM,2775.499999999258,2764.0,2775.499999999258,2775.499999999258,2764.0,2775.499999999258,1.0,0.0,0.0,,Click Response,1_count,3.0,object-46,temp_dist_trial,18.0,s_a_05_1,student_art,clay,1.0,unique,single,s_a_05_1.jpg,Student,,,sub-50
Desktop or Laptop,Windows 10,Chrome 137.0.0.0,1280x720,1280x720,Temporal Distance Task,cb_01,19.0,temp_dist_trial,num_items,zn7si1,1.0,response,2_ITEM,1837.8000000007446,1831.6000000000056,1837.8000000007446,1837.8000000007446,1831.6000000000056,1837.8000000007446,1.0,0.0,0.0,,Click Response,2_count,5.0,object-49,temp_dist_trial,19.0,s_s_12_1,student_stem,robotic arm,1.0,unique,paired,s_s_12_1.jpg,Student,,,sub-50
Desktop or Laptop,Windows 10,Chrome 137.0.0.0,1280x720,1280x720,Temporal Distance Task,cb_01,19.0,temp_dist_trial,dist_items,qkpkxw,2.0,info,,4.299999999260763,0.0,4.299999999260763,4.299999999260763,0.0,4.299999999260763,1.0,0.0,0.0,,Slider,Slider,4.0,object-56,temp_dist_trial,19.0,s_s_12_1,student_stem,robotic arm,1.0,unique,paired,s_s_12_1.jpg,Student,,,sub-50
Desktop or Laptop,Windows 10,Chrome 137.0.0.0,1280x720,1280x720,Temporal Distance Task,cb_01,19.0,temp_dist_trial,dist_items,qkpkxw,2.0,continue,,3748.900000000751,3746.400000000009,3748.900000000751,3748.900000000751,3746.400000000009,3748.900000000751,1.0,0.0,0.0,,Click To Continue,Next button,7.0,object-60,temp_dist_trial,19.0,s_s_12_1,student_stem,robotic arm,1.0,unique,paired,s_s_12_1.jpg,Student,,,sub-50
Desktop or Laptop,Windows 10,Chrome 137.0.0.0,1280x720,1280x720,Temporal Distance Task,cb_01,19.0,temp_dist_trial,dist_items,qkpkxw,2.0,response,33,1215.7000000000114,3746.400000000009,3749.400000000751,1215.7000000000114,3746.400000000009,3749.400000000751,1.0,2533.7000000007392,0.0,,Slider,Slider,4.0,object-56,temp_dist_trial,19.0,s_s_12_1,student_stem,robotic arm,1.0,unique,paired,s_s_12_1.jpg,Student,,,sub-50
Desktop or Laptop,Windows 10,Chrome 137.0.0.0,1280x720,1280x720,Temporal Distance Task,cb_01,20.0,temp_dist_trial,num_items,zn7si1,1.0,response,1_ITEM,1909.6000000003696,1898.3999999999944,1909.6000000003696,1909.6000000003696,1898.3999999999944,1909.6000000003696,1.0,0.0,0.0,,Click Response,1_count,3.0,object-46,temp_dist_trial,20.0,s_sh_14_1,student_shared,printer,1.0,competing,paired,s_sh_14_1.jpg,Student,,,sub-50
Desktop or Laptop,Windows 10,Chrome 137.0.0.0,1280x720,1280x720,Temporal Distance Task,cb_01,21.0,temp_dist_trial,num_items,zn7si1,1.0,response,num_miss,2996.900000000009,2996.900000000009,2996.900000000009,2996.900000000009,2996.900000000009,2996.900000000009,1.0,0.0,0.0,num_miss_tag,Time Limit,screen,0.0,screen,temp_dist_trial,21.0,s_sh_24_1,student_shared,desk organizer,1.0,competing,paired,s_sh_24_1.jpg,Student,,,sub-50
Desktop or Laptop,Windows 10,Chrome 137.0.0.0,1280x720,1280x720,Temporal Distance Task,cb_01,22.0,temp_dist_trial,num_items,zn7si1,1.0,response,1_ITEM,243.899999999252,233.1999999999971,243.899999999252,243.899999999252,233.1999999999971,243.899999999252,1.0,0.0,0.0,,Click Response,1_count,3.0,object-46,temp_dist_trial,22.0,s_sh_07_1,student_shared,ruler,1.0,competing,paired,s_sh_07_1.jpg,Student,,,sub-50
Desktop or Laptop,Windows 10,Chrome 137.0.0.0,1280x720,1280x720,Temporal Distance Task,cb_01,23.0,temp_dist_trial,num_items,zn7si1,1.0,response,2_ITEM,1875.6999999996333,1864.6000000000056,1875.6999999996333,1875.6999999996333,1864.6000000000056,1875.6999999996333,1.0,0.0,0.0,,Click Response,2_count,5.0,object-49,temp_dist_trial,23.0,s_sh_12_1,student_shared,binder,1.0,competing,paired,s_sh_12_1.jpg,Student,,,sub-50
Desktop or Laptop,Windows 10,Chrome 137.0.0.0,1280x720,1280x720,Temporal Distance Task,cb_01,23.0,temp_dist_trial,dist_items,qkpkxw,2.0,info,,3.7000000003608884,0.0,3.7000000003608884,3.7000000003608884,0.0,3.7000000003608884,1.0,0.0,0.0,,Slider,Slider,4.0,object-56,temp_dist_trial,23.0,s_sh_12_1,student_shared,binder,1.0,competing,paired,s_sh_12_1.jpg,Student,,,sub-50
Desktop or Laptop,Windows 10,Chrome 137.0.0.0,1280x720,1280x720,Temporal Distance Task,cb_01,23.0,temp_dist_trial,dist_items,qkpkxw,2.0,continue,,3219.4999999992438,3213.5999999999767,3219.4999999992438,3219.4999999992438,3213.5999999999767,3219.4999999992438,1.0,0.0,0.0,,Click To Continue,Next button,7.0,object-60,temp_dist_trial,23.0,s_sh_12_1,student_shared,binder,1.0,competing,paired,s_sh_12_1.jpg,Student,,,sub-50
Desktop or Laptop,Windows 10,Chrome 137.0.0.0,1280x720,1280x720,Temporal Distance Task,cb_01,23.0,temp_dist_trial,dist_items,qkpkxw,2.0,response,71,1115.5999999999767,3213.5999999999767,3219.9999999992438,1115.5999999999767,3213.5999999999767,3219.9999999992438,1.0,2104.3999999992666,0.0,,Slider,Slider,4.0,object-56,temp_dist_trial,23.0,s_sh_12_1,student_shared,binder,1.0,competing,paired,s_sh_12_1.jpg,Student,,,sub-50
Desktop or Laptop,Windows 10,Chrome 137.0.0.0,1280x720,1280x720,Temporal Distance Task,cb_01,24.0,temp_dist_trial,num_items,zn7si1,1.0,response,2_ITEM,1349.2000000000407,1332.4000000000233,1349.2000000000407,1349.2000000000407,1332.4000000000233,1349.2000000000407,1.0,0.0,0.0,,Click Response,2_count,5.0,object-49,temp_dist_trial,24.0,s_sh_23_1,student_shared,ballpoint pen,1.0,competing,paired,s_sh_23_1.jpg,Student,,,sub-50
Desktop or Laptop,Windows 10,Chrome 137.0.0.0,1280x720,1280x720,Temporal Distance Task,cb_01,24.0,temp_dist_trial,dist_items,qkpkxw,2.0,info,,3.6000000003841706,0.0,3.6000000003841706,3.6000000003841706,0.0,3.6000000003841706,1.0,0.0,0.0,,Slider,Slider,4.0,object-56,temp_dist_trial,24.0,s_sh_23_1,student_shared,ballpoint pen,1.0,competing,paired,s_sh_23_1.jpg,Student,,,sub-50
Desktop or Laptop,Windows 10,Chrome 137.0.0.0,1280x720,1280x720,Temporal Distance Task,cb_01,24.0,temp_dist_trial,dist_items,qkpkxw,2.0,continue,,5681.799999999639,5677.900000000023,5681.799999999639,5681.799999999639,5677.900000000023,5681.799999999639,1.0,0.0,0.0,,Click To Continue,Next button,7.0,object-60,temp_dist_trial,24.0,s_sh_23_1,student_shared,ballpoint pen,1.0,competing,paired,s_sh_23_1.jpg,Student,,,sub-50
Desktop or Laptop,Windows 10,Chrome 137.0.0.0,1280x720,1280x720,Temporal Distance Task,cb_01,24.0,temp_dist_trial,dist_items,qkpkxw,2.0,response,89,1115.8000000000177,5677.900000000023,5682.100000000384,1115.8000000000177,5677.900000000023,5682.100000000384,1.0,4566.300000000367,0.0,,Slider,Slider,4.0,object-56,temp_dist_trial,24.0,s_sh_23_1,student_shared,ballpoint pen,1.0,competing,paired,s_sh_23_1.jpg,Student,,,sub-50
Desktop or Laptop,Windows 10,Chrome 137.0.0.0,1280x720,1280x720,Temporal Distance Task,cb_01,25.0,temp_dist_trial,num_items,zn7si1,1.0,response,2_ITEM,1063.1000000007334,1049.0,1063.1000000007334,1063.1000000007334,1049.0,1063.1000000007334,1.0,0.0,0.0,,Click Response,2_count,5.0,object-49,temp_dist_trial,25.0,s_a_02_1,student_art,canvas,1.0,unique,paired,s_a_02_1.jpg,Student,,,sub-50
Desktop or Laptop,Windows 10,Chrome 137.0.0.0,1280x720,1280x720,Temporal Distance Task,cb_01,25.0,temp_dist_trial,dist_items,qkpkxw,2.0,info,,4.199999999633292,0.0,4.199999999633292,4.199999999633292,0.0,4.199999999633292,1.0,0.0,0.0,,Slider,Slider,4.0,object-56,temp_dist_trial,25.0,s_a_02_1,student_art,canvas,1.0,unique,paired,s_a_02_1.jpg,Student,,,sub-50
Desktop or Laptop,Windows 10,Chrome 137.0.0.0,1280x720,1280x720,Temporal Distance Task,cb_01,25.0,temp_dist_trial,dist_items,qkpkxw,2.0,continue,,1952.4000000007507,1948.1000000000056,1952.4000000007507,1952.4000000007507,1948.1000000000056,1952.4000000007507,1.0,0.0,0.0,,Click To Continue,Next button,7.0,object-60,temp_dist_trial,25.0,s_a_02_1,student_art,canvas,1.0,unique,paired,s_a_02_1.jpg,Student,,,sub-50
Desktop or Laptop,Windows 10,Chrome 137.0.0.0,1280x720,1280x720,Temporal Distance Task,cb_01,25.0,temp_dist_trial,dist_items,qkpkxw,2.0,response,80,949.2000000000116,1948.1000000000056,1952.9000000007507,949.2000000000116,1948.1000000000056,1952.9000000007507,1.0,1003.7000000007392,0.0,,Slider,Slider,4.0,object-56,temp_dist_trial,25.0,s_a_02_1,student_art,canvas,1.0,unique,paired,s_a_02_1.jpg,Student,,,sub-50
Desktop or Laptop,Windows 10,Chrome 137.0.0.0,1280x720,1280x720,Temporal Distance Task,cb_01,26.0,temp_dist_trial,num_items,zn7si1,1.0,response,2_ITEM,2177.0,2164.7999999999884,2177.0,2177.0,2164.7999999999884,2177.0,1.0,0.0,0.0,,Click Response,2_count,5.0,object-49,temp_dist_trial,26.0,s_s_19_1,student_stem,circuit board,1.0,unique,single,s_s_19_1.jpg,Student,,,sub-50
Desktop or Laptop,Windows 10,Chrome 137.0.0.0,1280x720,1280x720,Temporal Distance Task,cb_01,26.0,temp_dist_trial,dist_items,qkpkxw,2.0,info,,4.1000000007334165,0.0,4.1000000007334165,4.1000000007334165,0.0,4.1000000007334165,1.0,0.0,0.0,,Slider,Slider,4.0,object-56,temp_dist_trial,26.0,s_s_19_1,student_stem,circuit board,1.0,unique,single,s_s_19_1.jpg,Student,,,sub-50
Desktop or Laptop,Windows 10,Chrome 137.0.0.0,1280x720,1280x720,Temporal Distance Task,cb_01,26.0,temp_dist_trial,dist_items,qkpkxw,2.0,continue,,2571.8999999996163,2564.1999999999825,2571.8999999996163,2571.8999999996163,2564.1999999999825,2571.8999999996163,1.0,0.0,0.0,,Click To Continue,Next button,7.0,object-60,temp_dist_trial,26.0,s_s_19_1,student_stem,circuit board,1.0,unique,single,s_s_19_1.jpg,Student,,,sub-50
Desktop or Laptop,Windows 10,Chrome 137.0.0.0,1280x720,1280x720,Temporal Distance Task,cb_01,26.0,temp_dist_trial,dist_items,qkpkxw,2.0,response,34,1232.1999999999825,2564.1999999999825,2572.200000000361,1232.1999999999825,2564.1999999999825,2572.200000000361,1.0,1340.0000000003786,0.0,,Slider,Slider,4.0,object-56,temp_dist_trial,26.0,s_s_19_1,student_stem,circuit board,1.0,unique,single,s_s_19_1.jpg,Student,,,sub-50
Desktop or Laptop,Windows 10,Chrome 137.0.0.0,1280x720,1280x720,Temporal Distance Task,cb_01,27.0,temp_dist_trial,num_items,zn7si1,1.0,response,1_ITEM,1332.0,1315.5,1332.0,1332.0,1315.5,1332.0,1.0,0.0,0.0,,Click Response,1_count,3.0,object-46,temp_dist_trial,27.0,s_a_14_1,student_art,guitar pick,1.0,unique,single,s_a_14_1.jpg,Student,,,sub-50
Desktop or Laptop,Windows 10,Chrome 137.0.0.0,1280x720,1280x720,Temporal Distance Task,cb_01,28.0,temp_dist_trial,num_items,zn7si1,1.0,response,2_ITEM,1202.8999999996158,1198.5999999999767,1202.8999999996158,1202.8999999996158,1198.5999999999767,1202.8999999996158,1.0,0.0,0.0,,Click Response,2_count,5.0,object-49,temp_dist_trial,28.0,s_s_09_1,student_stem,multimeter,1.0,unique,paired,s_s_09_1.jpg,Student,,,sub-50
Desktop or Laptop,Windows 10,Chrome 137.0.0.0,1280x720,1280x720,Temporal Distance Task,cb_01,28.0,temp_dist_trial,dist_items,qkpkxw,2.0,info,,3.5000000007567,0.0,3.5000000007567,3.5000000007567,0.0,3.5000000007567,1.0,0.0,0.0,,Slider,Slider,4.0,object-56,temp_dist_trial,28.0,s_s_09_1,student_stem,multimeter,1.0,unique,paired,s_s_09_1.jpg,Student,,,sub-50
Desktop or Laptop,Windows 10,Chrome 137.0.0.0,1280x720,1280x720,Temporal Distance Task,cb_01,28.0,temp_dist_trial,dist_items,qkpkxw,2.0,continue,,2147.299999999639,2131.3000000000175,2147.299999999639,2147.299999999639,2131.3000000000175,2147.299999999639,1.0,0.0,0.0,,Click To Continue,Next button,7.0,object-60,temp_dist_trial,28.0,s_s_09_1,student_stem,multimeter,1.0,unique,paired,s_s_09_1.jpg,Student,,,sub-50
Desktop or Laptop,Windows 10,Chrome 137.0.0.0,1280x720,1280x720,Temporal Distance Task,cb_01,28.0,temp_dist_trial,dist_items,qkpkxw,2.0,response,87,815.6000000000058,2131.3000000000175,2147.8000000000175,815.6000000000058,2131.3000000000175,2147.8000000000175,1.0,1332.2000000000114,0.0,,Slider,Slider,4.0,object-56,temp_dist_trial,28.0,s_s_09_1,student_stem,multimeter,1.0,unique,paired,s_s_09_1.jpg,Student,,,sub-50
Desktop or Laptop,Windows 10,Chrome 137.0.0.0,1280x720,1280x720,Temporal Distance Task,cb_01,29.0,temp_dist_trial,num_items,zn7si1,1.0,response,2_ITEM,1375.8999999999942,1365.1999999999825,1375.8999999999942,1375.8999999999942,1365.1999999999825,1375.8999999999942,1.0,0.0,0.0,,Click Response,2_count,5.0,object-49,temp_dist_trial,29.0,s_a_20_1,student_art,pin cushion,1.0,unique,paired,s_a_20_1.jpg,Student,,,sub-50
Desktop or Laptop,Windows 10,Chrome 137.0.0.0,1280x720,1280x720,Temporal Distance Task,cb_01,29.0,temp_dist_trial,dist_items,qkpkxw,2.0,info,,3.8999999999941792,0.0,3.8999999999941792,3.8999999999941792,0.0,3.8999999999941792,1.0,0.0,0.0,,Slider,Slider,4.0,object-56,temp_dist_trial,29.0,s_a_20_1,student_art,pin cushion,1.0,unique,paired,s_a_20_1.jpg,Student,,,sub-50
Desktop or Laptop,Windows 10,Chrome 137.0.0.0,1280x720,1280x720,Temporal Distance Task,cb_01,29.0,temp_dist_trial,dist_items,qkpkxw,2.0,continue,,2264.1999999999825,2247.8999999999937,2264.1999999999825,2264.1999999999825,2247.8999999999937,2264.1999999999825,1.0,0.0,0.0,,Click To Continue,Next button,7.0,object-60,temp_dist_trial,29.0,s_a_20_1,student_art,pin cushion,1.0,unique,paired,s_a_20_1.jpg,Student,,,sub-50
Desktop or Laptop,Windows 10,Chrome 137.0.0.0,1280x720,1280x720,Temporal Distance Task,cb_01,29.0,temp_dist_trial,dist_items,qkpkxw,2.0,response,13,899.2999999999884,2247.8999999999937,2264.1999999999825,899.2999999999884,2247.8999999999937,2264.1999999999825,1.0,1364.8999999999942,0.0,,Slider,Slider,4.0,object-56,temp_dist_trial,29.0,s_a_20_1,student_art,pin cushion,1.0,unique,paired,s_a_20_1.jpg,Student,,,sub-50
Desktop or Laptop,Windows 10,Chrome 137.0.0.0,1280x720,1280x720,Temporal Distance Task,cb_01,30.0,temp_dist_trial,num_items,zn7si1,1.0,response,2_ITEM,1569.0,1565.1000000000058,1569.0,1569.0,1565.1000000000058,1569.0,1.0,0.0,0.0,,Click Response,2_count,5.0,object-49,temp_dist_trial,30.0,s_s_18_1,student_stem,brain model,1.0,unique,paired,s_s_18_1.jpg,Student,,,sub-50
Desktop or Laptop,Windows 10,Chrome 137.0.0.0,1280x720,1280x720,Temporal Distance Task,cb_01,30.0,temp_dist_trial,dist_items,qkpkxw,2.0,info,,3.79999999998836,0.0,3.79999999998836,3.79999999998836,0.0,3.79999999998836,1.0,0.0,0.0,,Slider,Slider,4.0,object-56,temp_dist_trial,30.0,s_s_18_1,student_stem,brain model,1.0,unique,paired,s_s_18_1.jpg,Student,,,sub-50
Desktop or Laptop,Windows 10,Chrome 137.0.0.0,1280x720,1280x720,Temporal Distance Task,cb_01,30.0,temp_dist_trial,dist_items,qkpkxw,2.0,continue,,3493.7999999999884,3479.7999999999884,3493.7999999999884,3493.7999999999884,3479.7999999999884,3493.7999999999884,1.0,0.0,0.0,,Click To Continue,Next button,7.0,object-60,temp_dist_trial,30.0,s_s_18_1,student_stem,brain model,1.0,unique,paired,s_s_18_1.jpg,Student,,,sub-50
Desktop or Laptop,Windows 10,Chrome 137.0.0.0,1280x720,1280x720,Temporal Distance Task,cb_01,30.0,temp_dist_trial,dist_items,qkpkxw,2.0,response,29,1465.0,3479.7999999999884,3494.200000000361,1465.0,3479.7999999999884,3494.200000000361,1.0,2029.2000000003607,0.0,,Slider,Slider,4.0,object-56,temp_dist_trial,30.0,s_s_18_1,student_stem,brain model,1.0,unique,paired,s_s_18_1.jpg,Student,,,sub-50
Desktop or Laptop,Windows 10,Chrome 137.0.0.0,1280x720,1280x720,Temporal Distance Task,cb_01,31.0,temp_dist_trial,num_items,zn7si1,1.0,response,2_ITEM,1334.6999999992552,1332.0,1334.6999999992552,1334.6999999992552,1332.0,1334.6999999992552,1.0,0.0,0.0,,Click Response,2_count,5.0,object-49,temp_dist_trial,31.0,s_s_04_1,student_stem,bunsen burner,1.0,unique,paired,s_s_04_1.jpg,Student,,,sub-50
Desktop or Laptop,Windows 10,Chrome 137.0.0.0,1280x720,1280x720,Temporal Distance Task,cb_01,31.0,temp_dist_trial,dist_items,qkpkxw,2.0,info,,4.400000000372528,0.0,4.400000000372528,4.400000000372528,0.0,4.400000000372528,1.0,0.0,0.0,,Slider,Slider,4.0,object-56,temp_dist_trial,31.0,s_s_04_1,student_stem,bunsen burner,1.0,unique,paired,s_s_04_1.jpg,Student,,,sub-50
Desktop or Laptop,Windows 10,Chrome 137.0.0.0,1280x720,1280x720,Temporal Distance Task,cb_01,31.0,temp_dist_trial,dist_items,qkpkxw,2.0,continue,,3028.0999999996275,3013.700000000012,3028.0999999996275,3028.0999999996275,3013.700000000012,3028.0999999996275,1.0,0.0,0.0,,Click To Continue,Next button,7.0,object-60,temp_dist_trial,31.0,s_s_04_1,student_stem,bunsen burner,1.0,unique,paired,s_s_04_1.jpg,Student,,,sub-50
Desktop or Laptop,Windows 10,Chrome 137.0.0.0,1280x720,1280x720,Temporal Distance Task,cb_01,31.0,temp_dist_trial,dist_items,qkpkxw,2.0,response,3,749.2000000000116,3013.700000000012,3028.5999999996275,749.2000000000116,3013.700000000012,3028.5999999996275,1.0,2279.3999999996163,0.0,,Slider,Slider,4.0,object-56,temp_dist_trial,31.0,s_s_04_1,student_stem,bunsen burner,1.0,unique,paired,s_s_04_1.jpg,Student,,,sub-50
Desktop or Laptop,Windows 10,Chrome 137.0.0.0,1280x720,1280x720,Temporal Distance Task,cb_01,32.0,temp_dist_trial,num_items,zn7si1,1.0,response,2_ITEM,1371.2000000003611,1365.2999999999886,1371.2000000003611,1371.2000000003611,1365.2999999999886,1371.2000000003611,1.0,0.0,0.0,,Click Response,2_count,5.0,object-49,temp_dist_trial,32.0,s_a_19_1,student_art,ballet shoes,1.0,unique,paired,s_a_19_1.jpg,Student,,,sub-50
Desktop or Laptop,Windows 10,Chrome 137.0.0.0,1280x720,1280x720,Temporal Distance Task,cb_01,32.0,temp_dist_trial,dist_items,qkpkxw,2.0,info,,4.699999999633292,0.0,4.699999999633292,4.699999999633292,0.0,4.699999999633292,1.0,0.0,0.0,,Slider,Slider,4.0,object-56,temp_dist_trial,32.0,s_a_19_1,student_art,ballet shoes,1.0,unique,paired,s_a_19_1.jpg,Student,,,sub-50
Desktop or Laptop,Windows 10,Chrome 137.0.0.0,1280x720,1280x720,Temporal Distance Task,cb_01,32.0,temp_dist_trial,dist_items,qkpkxw,2.0,continue,,2441.900000000751,2430.8999999999937,2441.900000000751,2441.900000000751,2430.8999999999937,2441.900000000751,1.0,0.0,0.0,,Click To Continue,Next button,7.0,object-60,temp_dist_trial,32.0,s_a_19_1,student_art,ballet shoes,1.0,unique,paired,s_a_19_1.jpg,Student,,,sub-50
Desktop or Laptop,Windows 10,Chrome 137.0.0.0,1280x720,1280x720,Temporal Distance Task,cb_01,32.0,temp_dist_trial,dist_items,qkpkxw,2.0,response,85,1115.8000000000177,2430.8999999999937,2442.2999999992608,1115.8000000000177,2430.8999999999937,2442.2999999992608,1.0,1326.4999999992433,0.0,,Slider,Slider,4.0,object-56,temp_dist_trial,32.0,s_a_19_1,student_art,ballet shoes,1.0,unique,paired,s_a_19_1.jpg,Student,,,sub-50
Desktop or Laptop,Windows 10,Chrome 137.0.0.0,1280x720,1280x720,Temporal Distance Task,cb_01,33.0,temp_dist_trial,num_items,zn7si1,1.0,response,1_ITEM,1331.6000000003842,1315.7000000000114,1331.6000000003842,1331.6000000003842,1315.7000000000114,1331.6000000003842,1.0,0.0,0.0,,Click Response,1_count,3.0,object-46,temp_dist_trial,33.0,s_a_18_1,student_art,tutu,1.0,unique,single,s_a_18_1.jpg,Student,,,sub-50
Desktop or Laptop,Windows 10,Chrome 137.0.0.0,1280x720,1280x720,Temporal Distance Task,cb_01,34.0,temp_dist_trial,num_items,zn7si1,1.0,response,2_ITEM,1509.8000000003667,1498.8999999999942,1509.8000000003667,1509.8000000003667,1498.8999999999942,1509.8000000003667,1.0,0.0,0.0,,Click Response,2_count,5.0,object-49,temp_dist_trial,34.0,s_sh_02_1,student_shared,eraser,1.0,competing,paired,s_sh_02_1.jpg,Student,,,sub-50
Desktop or Laptop,Windows 10,Chrome 137.0.0.0,1280x720,1280x720,Temporal Distance Task,cb_01,34.0,temp_dist_trial,dist_items,qkpkxw,2.0,info,,4.00000000037835,0.0,4.00000000037835,4.00000000037835,0.0,4.00000000037835,1.0,0.0,0.0,,Slider,Slider,4.0,object-56,temp_dist_trial,34.0,s_sh_02_1,student_shared,eraser,1.0,competing,paired,s_sh_02_1.jpg,Student,,,sub-50
Desktop or Laptop,Windows 10,Chrome 137.0.0.0,1280x720,1280x720,Temporal Distance Task,cb_01,34.0,temp_dist_trial,dist_items,qkpkxw,2.0,continue,,1541.6000000000058,1531.8000000000175,1541.6000000000058,1541.6000000000058,1531.8000000000175,1541.6000000000058,1.0,0.0,0.0,,Click To Continue,Next button,7.0,object-60,temp_dist_trial,34.0,s_sh_02_1,student_shared,eraser,1.0,competing,paired,s_sh_02_1.jpg,Student,,,sub-50
Desktop or Laptop,Windows 10,Chrome 137.0.0.0,1280x720,1280x720,Temporal Distance Task,cb_01,34.0,temp_dist_trial,dist_items,qkpkxw,2.0,response,42,649.3999999999943,1531.8000000000175,1542.0000000003783,649.3999999999943,1531.8000000000175,1542.0000000003783,1.0,892.6000000003842,0.0,,Slider,Slider,4.0,object-56,temp_dist_trial,34.0,s_sh_02_1,student_shared,eraser,1.0,competing,paired,s_sh_02_1.jpg,Student,,,sub-50
Desktop or Laptop,Windows 10,Chrome 137.0.0.0,1280x720,1280x720,Temporal Distance Task,cb_01,35.0,temp_dist_trial,num_items,zn7si1,1.0,response,2_ITEM,2008.2000000003607,1998.2999999999884,2008.2000000003607,2008.2000000003607,1998.2999999999884,2008.2000000003607,1.0,0.0,0.0,,Click Response,2_count,5.0,object-49,temp_dist_trial,35.0,s_sh_19_1,student_shared,portable plastic drawer,1.0,competing,paired,s_sh_19_1.jpg,Student,,,sub-50
Desktop or Laptop,Windows 10,Chrome 137.0.0.0,1280x720,1280x720,Temporal Distance Task,cb_01,35.0,temp_dist_trial,dist_items,qkpkxw,2.0,info,,3.2999999996391125,0.0,3.2999999996391125,3.2999999996391125,0.0,3.2999999996391125,1.0,0.0,0.0,,Slider,Slider,4.0,object-56,temp_dist_trial,35.0,s_sh_19_1,student_shared,portable plastic drawer,1.0,competing,paired,s_sh_19_1.jpg,Student,,,sub-50
Desktop or Laptop,Windows 10,Chrome 137.0.0.0,1280x720,1280x720,Temporal Distance Task,cb_01,35.0,temp_dist_trial,dist_items,qkpkxw,2.0,continue,,2119.0000000007567,2114.5,2119.0000000007567,2119.0000000007567,2114.5,2119.0000000007567,1.0,0.0,0.0,,Click To Continue,Next button,7.0,object-60,temp_dist_trial,35.0,s_sh_19_1,student_shared,portable plastic drawer,1.0,competing,paired,s_sh_19_1.jpg,Student,,,sub-50
Desktop or Laptop,Windows 10,Chrome 137.0.0.0,1280x720,1280x720,Temporal Distance Task,cb_01,35.0,temp_dist_trial,dist_items,qkpkxw,2.0,response,87,766.2000000000116,2114.5,2123.1000000003837,766.2000000000116,2114.5,2123.1000000003837,1.0,1356.9000000003725,0.0,,Slider,Slider,4.0,object-56,temp_dist_trial,35.0,s_sh_19_1,student_shared,portable plastic drawer,1.0,competing,paired,s_sh_19_1.jpg,Student,,,sub-50
Desktop or Laptop,Windows 10,Chrome 137.0.0.0,1280x720,1280x720,Temporal Distance Task,cb_01,36.0,temp_dist_trial,num_items,zn7si1,1.0,response,1_ITEM,2060.6000000003837,2048.3000000000175,2060.6000000003837,2060.6000000003837,2048.3000000000175,2060.6000000003837,1.0,0.0,0.0,,Click Response,1_count,3.0,object-46,temp_dist_trial,36.0,s_sh_20_1,student_shared,tape,1.0,competing,single,s_sh_20_1.jpg,Student,,,sub-50
Desktop or Laptop,Windows 10,Chrome 137.0.0.0,1280x720,1280x720,Temporal Distance Task,cb_01,37.0,temp_dist_trial,num_items,zn7si1,1.0,response,1_ITEM,1402.4999999992428,1398.5999999999767,1402.4999999992428,1402.4999999992428,1398.5999999999767,1402.4999999992428,1.0,0.0,0.0,,Click Response,1_count,3.0,object-46,temp_dist_trial,37.0,s_sh_09_1,student_shared,paper clips,1.0,competing,single,s_sh_09_1.jpg,Student,,,sub-50
Desktop or Laptop,Windows 10,Chrome 137.0.0.0,1280x720,1280x720,Temporal Distance Task,cb_01,38.0,temp_dist_trial,num_items,zn7si1,1.0,response,2_ITEM,1306.0999999996275,1298.3999999999942,1306.0999999996275,1306.0999999996275,1298.3999999999942,1306.0999999996275,1.0,0.0,0.0,,Click Response,2_count,5.0,object-49,temp_dist_trial,38.0,s_sh_15_1,student_shared,usb drive,1.0,competing,paired,s_sh_15_1.jpg,Student,,,sub-50
Desktop or Laptop,Windows 10,Chrome 137.0.0.0,1280x720,1280x720,Temporal Distance Task,cb_01,38.0,temp_dist_trial,dist_items,qkpkxw,2.0,info,,3.700000000739237,0.0,3.700000000739237,3.700000000739237,0.0,3.700000000739237,1.0,0.0,0.0,,Slider,Slider,4.0,object-56,temp_dist_trial,38.0,s_sh_15_1,student_shared,usb drive,1.0,competing,paired,s_sh_15_1.jpg,Student,,,sub-50
Desktop or Laptop,Windows 10,Chrome 137.0.0.0,1280x720,1280x720,Temporal Distance Task,cb_01,38.0,temp_dist_trial,dist_items,qkpkxw,2.0,continue,,2334.9999999996217,2331.1999999999825,2334.9999999996217,2334.9999999996217,2331.1999999999825,2334.9999999996217,1.0,0.0,0.0,,Click To Continue,Next button,7.0,object-60,temp_dist_trial,38.0,s_sh_15_1,student_shared,usb drive,1.0,competing,paired,s_sh_15_1.jpg,Student,,,sub-50
Desktop or Laptop,Windows 10,Chrome 137.0.0.0,1280x720,1280x720,Temporal Distance Task,cb_01,38.0,temp_dist_trial,dist_items,qkpkxw,2.0,response,30,932.6999999999823,2331.1999999999825,2335.7000000007392,932.6999999999823,2331.1999999999825,2335.7000000007392,1.0,1403.0000000007572,0.0,,Slider,Slider,4.0,object-56,temp_dist_trial,38.0,s_sh_15_1,student_shared,usb drive,1.0,competing,paired,s_sh_15_1.jpg,Student,,,sub-50
Desktop or Laptop,Windows 10,Chrome 137.0.0.0,1280x720,1280x720,Temporal Distance Task,cb_01,39.0,temp_dist_trial,num_items,zn7si1,1.0,response,2_ITEM,1248.7000000000114,1232.3000000000175,1248.7000000000114,1248.7000000000114,1232.3000000000175,1248.7000000000114,1.0,0.0,0.0,,Click Response,2_count,5.0,object-49,temp_dist_trial,39.0,s_a_11_1,student_art,clapperboard,1.0,unique,paired,s_a_11_1.jpg,Student,,,sub-50
Desktop or Laptop,Windows 10,Chrome 137.0.0.0,1280x720,1280x720,Temporal Distance Task,cb_01,39.0,temp_dist_trial,dist_items,qkpkxw,2.0,info,,3.6000000003841706,0.0,3.6000000003841706,3.6000000003841706,0.0,3.6000000003841706,1.0,0.0,0.0,,Slider,Slider,4.0,object-56,temp_dist_trial,39.0,s_a_11_1,student_art,clapperboard,1.0,unique,paired,s_a_11_1.jpg,Student,,,sub-50
Desktop or Laptop,Windows 10,Chrome 137.0.0.0,1280x720,1280x720,Temporal Distance Task,cb_01,39.0,temp_dist_trial,dist_items,qkpkxw,2.0,continue,,2335.6000000003837,2331.1000000000063,2335.6000000003837,2335.6000000003837,2331.1000000000063,2335.6000000003837,1.0,0.0,0.0,,Click To Continue,Next button,7.0,object-60,temp_dist_trial,39.0,s_a_11_1,student_art,clapperboard,1.0,unique,paired,s_a_11_1.jpg,Student,,,sub-50
Desktop or Laptop,Windows 10,Chrome 137.0.0.0,1280x720,1280x720,Temporal Distance Task,cb_01,39.0,temp_dist_trial,dist_items,qkpkxw,2.0,response,81,949.5,2331.1000000000063,2339.3999999992666,949.5,2331.1000000000063,2339.3999999992666,1.0,1389.8999999992664,0.0,,Slider,Slider,4.0,object-56,temp_dist_trial,39.0,s_a_11_1,student_art,clapperboard,1.0,unique,paired,s_a_11_1.jpg,Student,,,sub-50
Desktop or Laptop,Windows 10,Chrome 137.0.0.0,1280x720,1280x720,Temporal Distance Task,cb_01,40.0,temp_dist_trial,num_items,zn7si1,1.0,response,2_ITEM,1807.4000000007507,1798.3999999999942,1807.4000000007507,1807.4000000007507,1798.3999999999942,1807.4000000007507,1.0,0.0,0.0,,Click Response,2_count,5.0,object-49,temp_dist_trial,40.0,s_sh_21_1,student_shared,file holder,1.0,competing,paired,s_sh_21_1.jpg,Student,,,sub-50
Desktop or Laptop,Windows 10,Chrome 137.0.0.0,1280x720,1280x720,Temporal Distance Task,cb_01,40.0,temp_dist_trial,dist_items,qkpkxw,2.0,info,,3.6000000007334165,0.0,3.6000000007334165,3.6000000007334165,0.0,3.6000000007334165,1.0,0.0,0.0,,Slider,Slider,4.0,object-56,temp_dist_trial,40.0,s_sh_21_1,student_shared,file holder,1.0,competing,paired,s_sh_21_1.jpg,Student,,,sub-50
Desktop or Laptop,Windows 10,Chrome 137.0.0.0,1280x720,1280x720,Temporal Distance Task,cb_01,40.0,temp_dist_trial,dist_items,qkpkxw,2.0,continue,,2438.2999999999884,2430.7999999999884,2438.2999999999884,2438.2999999999884,2430.7999999999884,2438.2999999999884,1.0,0.0,0.0,,Click To Continue,Next button,7.0,object-60,temp_dist_trial,40.0,s_sh_21_1,student_shared,file holder,1.0,competing,paired,s_sh_21_1.jpg,Student,,,sub-50
Desktop or Laptop,Windows 10,Chrome 137.0.0.0,1280x720,1280x720,Temporal Distance Task,cb_01,40.0,temp_dist_trial,dist_items,qkpkxw,2.0,response,31,1215.3999999999942,2430.7999999999884,2438.700000000361,1215.3999999999942,2430.7999999999884,2438.700000000361,1.0,1223.3000000003667,0.0,,Slider,Slider,4.0,object-56,temp_dist_trial,40.0,s_sh_21_1,student_shared,file holder,1.0,competing,paired,s_sh_21_1.jpg,Student,,,sub-50
Desktop or Laptop,Windows 10,Chrome 137.0.0.0,1280x720,1280x720,Temporal Distance Task,cb_01,41.0,temp_dist_trial,num_items,zn7si1,1.0,response,2_ITEM,1553.5999999996275,1548.5,1553.5999999996275,1553.5999999996275,1548.5,1553.5999999996275,1.0,0.0,0.0,,Click Response,2_count,5.0,object-49,temp_dist_trial,41.0,s_sh_05_1,student_shared,laptop,1.0,competing,paired,s_sh_05_1.jpg,Student,,,sub-50
Desktop or Laptop,Windows 10,Chrome 137.0.0.0,1280x720,1280x720,Temporal Distance Task,cb_01,41.0,temp_dist_trial,dist_items,qkpkxw,2.0,info,,3.6000000000058208,0.0,3.6000000000058208,3.6000000000058208,0.0,3.6000000000058208,1.0,0.0,0.0,,Slider,Slider,4.0,object-56,temp_dist_trial,41.0,s_sh_05_1,student_shared,laptop,1.0,competing,paired,s_sh_05_1.jpg,Student,,,sub-50
Desktop or Laptop,Windows 10,Chrome 137.0.0.0,1280x720,1280x720,Temporal Distance Task,cb_01,41.0,temp_dist_trial,dist_items,qkpkxw,2.0,continue,,3184.400000000751,3180.300000000017,3184.400000000751,3184.400000000751,3180.300000000017,3184.400000000751,1.0,0.0,0.0,,Click To Continue,Next button,7.0,object-60,temp_dist_trial,41.0,s_sh_05_1,student_shared,laptop,1.0,competing,paired,s_sh_05_1.jpg,Student,,,sub-50
Desktop or Laptop,Windows 10,Chrome 137.0.0.0,1280x720,1280x720,Temporal Distance Task,cb_01,41.0,temp_dist_trial,dist_items,qkpkxw,2.0,response,24,966.1000000000058,3180.300000000017,3185.0000000003783,966.1000000000058,3180.300000000017,3185.0000000003783,1.0,2218.9000000003725,0.0,,Slider,Slider,4.0,object-56,temp_dist_trial,41.0,s_sh_05_1,student_shared,laptop,1.0,competing,paired,s_sh_05_1.jpg,Student,,,sub-50
Desktop or Laptop,Windows 10,Chrome 137.0.0.0,1280x720,1280x720,Temporal Distance Task,cb_01,42.0,temp_dist_trial,num_items,zn7si1,1.0,response,1_ITEM,972.2999999999884,965.7999999999884,972.2999999999884,972.2999999999884,965.7999999999884,972.2999999999884,1.0,0.0,0.0,,Click Response,1_count,3.0,object-46,temp_dist_trial,42.0,s_s_10_1,student_stem,3d molecule,1.0,unique,single,s_s_10_1.jpg,Student,,,sub-50
Desktop or Laptop,Windows 10,Chrome 137.0.0.0,1280x720,1280x720,Temporal Distance Task,cb_01,43.0,temp_dist_trial,num_items,zn7si1,1.0,response,1_ITEM,1494.2999999996387,1481.8000000000175,1494.2999999996387,1494.2999999996387,1481.8000000000175,1494.2999999996387,1.0,0.0,0.0,,Click Response,1_count,3.0,object-46,temp_dist_trial,43.0,s_s_08_1,student_stem,soldering iron,1.0,unique,single,s_s_08_1.jpg,Student,,,sub-50
Desktop or Laptop,Windows 10,Chrome 137.0.0.0,1280x720,1280x720,Temporal Distance Task,cb_01,44.0,temp_dist_trial,num_items,zn7si1,1.0,response,1_ITEM,1309.1999999992552,1298.7000000000114,1309.1999999992552,1309.1999999992552,1298.7000000000114,1309.1999999992552,1.0,0.0,0.0,,Click Response,1_count,3.0,object-46,temp_dist_trial,44.0,s_sh_18_1,student_shared,wall calendar,1.0,competing,single,s_sh_18_1.jpg,Student,,,sub-50
Desktop or Laptop,Windows 10,Chrome 137.0.0.0,1280x720,1280x720,Temporal Distance Task,cb_01,45.0,temp_dist_trial,num_items,zn7si1,1.0,response,1_ITEM,1249.0999999999767,1232.1999999999825,1249.0999999999767,1249.0999999999767,1232.1999999999825,1249.0999999999767,1.0,0.0,0.0,,Click Response,1_count,3.0,object-46,temp_dist_trial,45.0,s_s_15_1,student_stem,jumper cables,1.0,unique,single,s_s_15_1.jpg,Student,,,sub-50
Desktop or Laptop,Windows 10,Chrome 137.0.0.0,1280x720,1280x720,Temporal Distance Task,cb_01,46.0,temp_dist_trial,num_items,zn7si1,1.0,response,1_ITEM,1331.1000000007334,1315.2999999999886,1331.1000000007334,1331.1000000007334,1315.2999999999886,1331.1000000007334,1.0,0.0,0.0,,Click Response,1_count,3.0,object-46,temp_dist_trial,46.0,s_a_17_1,student_art,microphone,1.0,unique,paired,s_a_17_1.jpg,Student,,,sub-50
Desktop or Laptop,Windows 10,Chrome 137.0.0.0,1280x720,1280x720,Temporal Distance Task,cb_01,47.0,temp_dist_trial,num_items,zn7si1,1.0,response,1_ITEM,1414.9999999996217,1398.7999999999884,1414.9999999996217,1414.9999999996217,1398.7999999999884,1414.9999999996217,1.0,0.0,0.0,,Click Response,1_count,3.0,object-46,temp_dist_trial,47.0,s_a_16_1,student_art,piano,1.0,unique,paired,s_a_16_1.jpg,Student,,,sub-50
Desktop or Laptop,Windows 10,Chrome 137.0.0.0,1280x720,1280x720,Temporal Distance Task,cb_01,48.0,temp_dist_trial,num_items,zn7si1,1.0,response,1_ITEM,1865.4999999996217,1864.8999999999944,1865.4999999996217,1865.4999999996217,1864.8999999999944,1865.4999999996217,1.0,0.0,0.0,,Click Response,1_count,3.0,object-46,temp_dist_trial,48.0,s_sh_01_1,student_shared,notebook,1.0,competing,single,s_sh_01_1.jpg,Student,,,sub-50
Desktop or Laptop,Windows 10,Chrome 137.0.0.0,1280x720,1280x720,Temporal Distance Task,cb_01,2.0,temp_eventStart,Screen 1,dgtyxe,1.0,continue,,20258.59999999925,20247.600000000006,20258.59999999925,20258.59999999925,20247.600000000006,20258.59999999925,1.0,0.0,0.0,,Click To Continue,Next Button,3.0,object-43,temp_eventStart,,,Travel,,,,,,,,,sub-50
Desktop or Laptop,Windows 10,Chrome 137.0.0.0,1280x720,1280x720,Temporal Distance Task,cb_01,49.0,temp_dist_trial,num_items,zn7si1,1.0,response,2_ITEM,2650.9999999992433,2647.099999999977,2650.9999999992433,2650.9999999992433,2647.099999999977,2650.9999999992433,1.0,0.0,0.0,,Click Response,2_count,5.0,object-49,temp_dist_trial,1.0,t_s_02_1,travel_shared,water bottle,1.0,competing,paired,t_s_02_1.jpg,Travel,,,sub-50
Desktop or Laptop,Windows 10,Chrome 137.0.0.0,1280x720,1280x720,Temporal Distance Task,cb_01,49.0,temp_dist_trial,dist_items,qkpkxw,2.0,info,,3.400000000372529,0.0,3.400000000372529,3.400000000372529,0.0,3.400000000372529,1.0,0.0,0.0,,Slider,Slider,4.0,object-56,temp_dist_trial,1.0,t_s_02_1,travel_shared,water bottle,1.0,competing,paired,t_s_02_1.jpg,Travel,,,sub-50
Desktop or Laptop,Windows 10,Chrome 137.0.0.0,1280x720,1280x720,Temporal Distance Task,cb_01,49.0,temp_dist_trial,dist_items,qkpkxw,2.0,continue,,3294.9000000003725,3280.200000000012,3294.9000000003725,3294.9000000003725,3280.200000000012,3294.9000000003725,1.0,0.0,0.0,,Click To Continue,Next button,7.0,object-60,temp_dist_trial,1.0,t_s_02_1,travel_shared,water bottle,1.0,competing,paired,t_s_02_1.jpg,Travel,,,sub-50
Desktop or Laptop,Windows 10,Chrome 137.0.0.0,1280x720,1280x720,Temporal Distance Task,cb_01,49.0,temp_dist_trial,dist_items,qkpkxw,2.0,response,65,1365.0,3280.200000000012,3295.300000000745,1365.0,3280.200000000012,3295.300000000745,1.0,1930.3000000007446,0.0,,Slider,Slider,4.0,object-56,temp_dist_trial,1.0,t_s_02_1,travel_shared,water bottle,1.0,competing,paired,t_s_02_1.jpg,Travel,,,sub-50
Desktop or Laptop,Windows 10,Chrome 137.0.0.0,1280x720,1280x720,Temporal Distance Task,cb_01,50.0,temp_dist_trial,num_items,zn7si1,1.0,response,2_ITEM,1807.2000000003607,1798.0,1807.2000000003607,1807.2000000003607,1798.0,1807.2000000003607,1.0,0.0,0.0,,Click Response,2_count,5.0,object-49,temp_dist_trial,2.0,t_m_18_1,travel_Miami,waterproof tote,1.0,unique,paired,t_m_18_1.jpg,Travel,,,sub-50
Desktop or Laptop,Windows 10,Chrome 137.0.0.0,1280x720,1280x720,Temporal Distance Task,cb_01,50.0,temp_dist_trial,dist_items,qkpkxw,2.0,info,,3.5000000003783502,0.0,3.5000000003783502,3.5000000003783502,0.0,3.5000000003783502,1.0,0.0,0.0,,Slider,Slider,4.0,object-56,temp_dist_trial,2.0,t_m_18_1,travel_Miami,waterproof tote,1.0,unique,paired,t_m_18_1.jpg,Travel,,,sub-50
Desktop or Laptop,Windows 10,Chrome 137.0.0.0,1280x720,1280x720,Temporal Distance Task,cb_01,50.0,temp_dist_trial,dist_items,qkpkxw,2.0,continue,,3354.5000000003783,3346.8999999999933,3354.5000000003783,3354.5000000003783,3346.8999999999933,3354.5000000003783,1.0,0.0,0.0,,Click To Continue,Next button,7.0,object-60,temp_dist_trial,2.0,t_m_18_1,travel_Miami,waterproof tote,1.0,unique,paired,t_m_18_1.jpg,Travel,,,sub-50
Desktop or Laptop,Windows 10,Chrome 137.0.0.0,1280x720,1280x720,Temporal Distance Task,cb_01,50.0,temp_dist_trial,dist_items,qkpkxw,2.0,response,36,1965.1000000000056,3346.8999999999933,3357.2999999992608,1965.1000000000056,3346.8999999999933,3357.2999999992608,1.0,1392.1999999992554,0.0,,Slider,Slider,4.0,object-56,temp_dist_trial,2.0,t_m_18_1,travel_Miami,waterproof tote,1.0,unique,paired,t_m_18_1.jpg,Travel,,,sub-50
Desktop or Laptop,Windows 10,Chrome 137.0.0.0,1280x720,1280x720,Temporal Distance Task,cb_01,51.0,temp_dist_trial,num_items,zn7si1,1.0,response,1_ITEM,1898.600000000384,1881.9000000000235,1898.600000000384,1898.600000000384,1881.9000000000235,1898.600000000384,1.0,0.0,0.0,,Click Response,1_count,3.0,object-46,temp_dist_trial,3.0,t_s_01_1,travel_shared,fanny pack,1.0,competing,single,t_s_01_1.jpg,Travel,,,sub-50
Desktop or Laptop,Windows 10,Chrome 137.0.0.0,1280x720,1280x720,Temporal Distance Task,cb_01,52.0,temp_dist_trial,num_items,zn7si1,1.0,response,2_ITEM,2413.5999999996275,2397.6000000000063,2413.5999999996275,2413.5999999996275,2397.6000000000063,2413.5999999996275,1.0,0.0,0.0,,Click Response,2_count,5.0,object-49,temp_dist_trial,4.0,t_s_12_1,travel_shared,clear toiletry bag,1.0,competing,paired,t_s_12_1.jpg,Travel,,,sub-50
Desktop or Laptop,Windows 10,Chrome 137.0.0.0,1280x720,1280x720,Temporal Distance Task,cb_01,52.0,temp_dist_trial,dist_items,qkpkxw,2.0,info,,3.699999999633292,0.0,3.699999999633292,3.699999999633292,0.0,3.699999999633292,1.0,0.0,0.0,,Slider,Slider,4.0,object-56,temp_dist_trial,4.0,t_s_12_1,travel_shared,clear toiletry bag,1.0,competing,paired,t_s_12_1.jpg,Travel,,,sub-50
Desktop or Laptop,Windows 10,Chrome 137.0.0.0,1280x720,1280x720,Temporal Distance Task,cb_01,52.0,temp_dist_trial,dist_items,qkpkxw,2.0,continue,,3902.1999999996333,3896.0,3902.1999999996333,3902.1999999996333,3896.0,3902.1999999996333,1.0,0.0,0.0,,Click To Continue,Next button,7.0,object-60,temp_dist_trial,4.0,t_s_12_1,travel_shared,clear toiletry bag,1.0,competing,paired,t_s_12_1.jpg,Travel,,,sub-50
Desktop or Laptop,Windows 10,Chrome 137.0.0.0,1280x720,1280x720,Temporal Distance Task,cb_01,52.0,temp_dist_trial,dist_items,qkpkxw,2.0,response,27,1714.8000000000175,3896.0,3902.7999999992608,1714.8000000000175,3896.0,3902.7999999992608,1.0,2187.9999999992433,0.0,,Slider,Slider,4.0,object-56,temp_dist_trial,4.0,t_s_12_1,travel_shared,clear toiletry bag,1.0,competing,paired,t_s_12_1.jpg,Travel,,,sub-50
Desktop or Laptop,Windows 10,Chrome 137.0.0.0,1280x720,1280x720,Temporal Distance Task,cb_01,53.0,temp_dist_trial,num_items,zn7si1,1.0,response,1_ITEM,1734.5000000003783,1731.7000000000116,1734.5000000003783,1734.5000000003783,1731.7000000000116,1734.5000000003783,1.0,0.0,0.0,,Click Response,1_count,3.0,object-46,temp_dist_trial,5.0,t_s_06_1,travel_shared,luggage,1.0,competing,paired,t_s_06_1.jpg,Travel,,,sub-50
Desktop or Laptop,Windows 10,Chrome 137.0.0.0,1280x720,1280x720,Temporal Distance Task,cb_01,54.0,temp_dist_trial,num_items,zn7si1,1.0,response,1_ITEM,2169.5,2164.5,2169.5,2169.5,2164.5,2169.5,1.0,0.0,0.0,,Click Response,1_count,3.0,object-46,temp_dist_trial,6.0,t_i_20_1,travel_Iceland,lantern,1.0,unique,paired,t_i_20_1.jpg,Travel,,,sub-50
Desktop or Laptop,Windows 10,Chrome 137.0.0.0,1280x720,1280x720,Temporal Distance Task,cb_01,55.0,temp_dist_trial,num_items,zn7si1,1.0,response,2_ITEM,1365.499999999971,1348.5999999999767,1365.499999999971,1365.499999999971,1348.5999999999767,1365.499999999971,1.0,0.0,0.0,,Click Response,2_count,5.0,object-49,temp_dist_trial,7.0,t_s_16_1,travel_shared,chapstick,1.0,competing,paired,t_s_16_1.jpg,Travel,,,sub-50
Desktop or Laptop,Windows 10,Chrome 137.0.0.0,1280x720,1280x720,Temporal Distance Task,cb_01,55.0,temp_dist_trial,dist_items,qkpkxw,2.0,info,,3.400000000372529,0.0,3.400000000372529,3.400000000372529,0.0,3.400000000372529,1.0,0.0,0.0,,Slider,Slider,4.0,object-56,temp_dist_trial,7.0,t_s_16_1,travel_shared,chapstick,1.0,competing,paired,t_s_16_1.jpg,Travel,,,sub-50
Desktop or Laptop,Windows 10,Chrome 137.0.0.0,1280x720,1280x720,Temporal Distance Task,cb_01,55.0,temp_dist_trial,dist_items,qkpkxw,2.0,continue,,2565.699999999255,2564.099999999977,2565.699999999255,2565.699999999255,2564.099999999977,2565.699999999255,1.0,0.0,0.0,,Click To Continue,Next button,7.0,object-60,temp_dist_trial,7.0,t_s_16_1,travel_shared,chapstick,1.0,competing,paired,t_s_16_1.jpg,Travel,,,sub-50
Desktop or Laptop,Windows 10,Chrome 137.0.0.0,1280x720,1280x720,Temporal Distance Task,cb_01,55.0,temp_dist_trial,dist_items,qkpkxw,2.0,response,87,1148.9000000000233,2564.099999999977,2566.4000000003725,1148.9000000000233,2564.099999999977,2566.4000000003725,1.0,1417.500000000349,0.0,,Slider,Slider,4.0,object-56,temp_dist_trial,7.0,t_s_16_1,travel_shared,chapstick,1.0,competing,paired,t_s_16_1.jpg,Travel,,,sub-50
Desktop or Laptop,Windows 10,Chrome 137.0.0.0,1280x720,1280x720,Temporal Distance Task,cb_01,56.0,temp_dist_trial,num_items,zn7si1,1.0,response,1_ITEM,2733.7000000007683,2730.700000000012,2733.7000000007683,2733.7000000007683,2730.700000000012,2733.7000000007683,1.0,0.0,0.0,,Click Response,1_count,3.0,object-46,temp_dist_trial,8.0,t_s_07_1,travel_shared,phone charger cable,1.0,competing,paired,t_s_07_1.jpg,Travel,,,sub-50
Desktop or Laptop,Windows 10,Chrome 137.0.0.0,1280x720,1280x720,Temporal Distance Task,cb_01,57.0,temp_dist_trial,num_items,zn7si1,1.0,response,2_ITEM,1725.0999999999767,1714.8999999999646,1725.0999999999767,1725.0999999999767,1714.8999999999646,1725.0999999999767,1.0,0.0,0.0,,Click Response,2_count,5.0,object-49,temp_dist_trial,9.0,t_m_17_1,travel_Miami,water gun,1.0,unique,paired,t_m_17_1.jpg,Travel,,,sub-50
Desktop or Laptop,Windows 10,Chrome 137.0.0.0,1280x720,1280x720,Temporal Distance Task,cb_01,57.0,temp_dist_trial,dist_items,qkpkxw,2.0,info,,3.5,0.0,3.5,3.5,0.0,3.5,1.0,0.0,0.0,,Slider,Slider,4.0,object-56,temp_dist_trial,9.0,t_m_17_1,travel_Miami,water gun,1.0,unique,paired,t_m_17_1.jpg,Travel,,,sub-50
Desktop or Laptop,Windows 10,Chrome 137.0.0.0,1280x720,1280x720,Temporal Distance Task,cb_01,57.0,temp_dist_trial,dist_items,qkpkxw,2.0,continue,,2191.0,2181.2999999999884,2191.0,2191.0,2181.2999999999884,2191.0,1.0,0.0,0.0,,Click To Continue,Next button,7.0,object-60,temp_dist_trial,9.0,t_m_17_1,travel_Miami,water gun,1.0,unique,paired,t_m_17_1.jpg,Travel,,,sub-50
Desktop or Laptop,Windows 10,Chrome 137.0.0.0,1280x720,1280x720,Temporal Distance Task,cb_01,57.0,temp_dist_trial,dist_items,qkpkxw,2.0,response,50,1032.5999999999767,2181.2999999999884,2191.5,1032.5999999999767,2181.2999999999884,2191.5,1.0,1158.9000000000233,0.0,,Slider,Slider,4.0,object-56,temp_dist_trial,9.0,t_m_17_1,travel_Miami,water gun,1.0,unique,paired,t_m_17_1.jpg,Travel,,,sub-50
Desktop or Laptop,Windows 10,Chrome 137.0.0.0,1280x720,1280x720,Temporal Distance Task,cb_01,58.0,temp_dist_trial,num_items,zn7si1,1.0,response,1_ITEM,1098.0000000007567,1082.4000000000233,1098.0000000007567,1098.0000000007567,1082.4000000000233,1098.0000000007567,1.0,0.0,0.0,,Click Response,1_count,3.0,object-46,temp_dist_trial,10.0,t_m_03_1,travel_Miami,wetsuit,1.0,unique,single,t_m_03_1.jpg,Travel,,,sub-50
Desktop or Laptop,Windows 10,Chrome 137.0.0.0,1280x720,1280x720,Temporal Distance Task,cb_01,59.0,temp_dist_trial,num_items,zn7si1,1.0,response,1_ITEM,958.9000000000232,948.8000000000467,958.9000000000232,958.9000000000232,948.8000000000467,958.9000000000232,1.0,0.0,0.0,,Click Response,1_count,3.0,object-46,temp_dist_trial,11.0,t_i_16_1,travel_Iceland,skis,1.0,unique,single,t_i_16_1.jpg,Travel,,,sub-50
Desktop or Laptop,Windows 10,Chrome 137.0.0.0,1280x720,1280x720,Temporal Distance Task,cb_01,60.0,temp_dist_trial,num_items,zn7si1,1.0,response,2_ITEM,1213.3000000007448,1198.5999999999767,1213.3000000007448,1213.3000000007448,1198.5999999999767,1213.3000000007448,1.0,0.0,0.0,,Click Response,2_count,5.0,object-49,temp_dist_trial,12.0,t_s_09_1,travel_shared,wallet,1.0,competing,paired,t_s_09_1.jpg,Travel,,,sub-50
Desktop or Laptop,Windows 10,Chrome 137.0.0.0,1280x720,1280x720,Temporal Distance Task,cb_01,60.0,temp_dist_trial,dist_items,qkpkxw,2.0,info,,4.5000000007567005,0.0,4.5000000007567005,4.5000000007567005,0.0,4.5000000007567005,1.0,0.0,0.0,,Slider,Slider,4.0,object-56,temp_dist_trial,12.0,t_s_09_1,travel_shared,wallet,1.0,competing,paired,t_s_09_1.jpg,Travel,,,sub-50
Desktop or Laptop,Windows 10,Chrome 137.0.0.0,1280x720,1280x720,Temporal Distance Task,cb_01,60.0,temp_dist_trial,dist_items,qkpkxw,2.0,continue,,2814.3000000000466,2797.600000000035,2814.3000000000466,2814.3000000000466,2797.600000000035,2814.3000000000466,1.0,0.0,0.0,,Click To Continue,Next button,7.0,object-60,temp_dist_trial,12.0,t_s_09_1,travel_shared,wallet,1.0,competing,paired,t_s_09_1.jpg,Travel,,,sub-50
Desktop or Laptop,Windows 10,Chrome 137.0.0.0,1280x720,1280x720,Temporal Distance Task,cb_01,60.0,temp_dist_trial,dist_items,qkpkxw,2.0,response,79,1282.4000000000233,2797.600000000035,2814.3000000000466,1282.4000000000233,2797.600000000035,2814.3000000000466,1.0,1531.9000000000233,0.0,,Slider,Slider,4.0,object-56,temp_dist_trial,12.0,t_s_09_1,travel_shared,wallet,1.0,competing,paired,t_s_09_1.jpg,Travel,,,sub-50
Desktop or Laptop,Windows 10,Chrome 137.0.0.0,1280x720,1280x720,Temporal Distance Task,cb_01,61.0,temp_dist_trial,num_items,zn7si1,1.0,response,1_ITEM,1480.5999999999767,1465.3999999999646,1480.5999999999767,1480.5999999999767,1465.3999999999646,1480.5999999999767,1.0,0.0,0.0,,Click Response,1_count,3.0,object-46,temp_dist_trial,13.0,t_s_13_1,travel_shared,contact lens case,1.0,competing,single,t_s_13_1.jpg,Travel,,,sub-50
Desktop or Laptop,Windows 10,Chrome 137.0.0.0,1280x720,1280x720,Temporal Distance Task,cb_01,62.0,temp_dist_trial,num_items,zn7si1,1.0,response,1_ITEM,1148.7999999999886,1132.2999999999886,1148.7999999999886,1148.7999999999886,1132.2999999999886,1148.7999999999886,1.0,0.0,0.0,,Click Response,1_count,3.0,object-46,temp_dist_trial,14.0,t_i_18_1,travel_Iceland,ski mask,1.0,unique,single,t_i_18_1.jpg,Travel,,,sub-50
Desktop or Laptop,Windows 10,Chrome 137.0.0.0,1280x720,1280x720,Temporal Distance Task,cb_01,63.0,temp_dist_trial,num_items,zn7si1,1.0,response,2_ITEM,1346.8000000003958,1332.100000000035,1346.8000000003958,1346.8000000003958,1332.100000000035,1346.8000000003958,1.0,0.0,0.0,,Click Response,2_count,5.0,object-49,temp_dist_trial,15.0,t_s_05_1,travel_shared,neck pillow,1.0,competing,paired,t_s_05_1.jpg,Travel,,,sub-50
Desktop or Laptop,Windows 10,Chrome 137.0.0.0,1280x720,1280x720,Temporal Distance Task,cb_01,63.0,temp_dist_trial,dist_items,qkpkxw,2.0,info,,3.2999999999883585,0.0,3.2999999999883585,3.2999999999883585,0.0,3.2999999999883585,1.0,0.0,0.0,,Slider,Slider,4.0,object-56,temp_dist_trial,15.0,t_s_05_1,travel_shared,neck pillow,1.0,competing,paired,t_s_05_1.jpg,Travel,,,sub-50
Desktop or Laptop,Windows 10,Chrome 137.0.0.0,1280x720,1280x720,Temporal Distance Task,cb_01,63.0,temp_dist_trial,dist_items,qkpkxw,2.0,continue,,3397.000000000058,3380.200000000012,3397.000000000058,3397.000000000058,3380.200000000012,3397.000000000058,1.0,0.0,0.0,,Click To Continue,Next button,7.0,object-60,temp_dist_trial,15.0,t_s_05_1,travel_shared,neck pillow,1.0,competing,paired,t_s_05_1.jpg,Travel,,,sub-50
Desktop or Laptop,Windows 10,Chrome 137.0.0.0,1280x720,1280x720,Temporal Distance Task,cb_01,63.0,temp_dist_trial,dist_items,qkpkxw,2.0,response,31,2464.200000000012,3380.200000000012,3397.000000000058,2464.200000000012,3380.200000000012,3397.000000000058,1.0,932.8000000000467,0.0,,Slider,Slider,4.0,object-56,temp_dist_trial,15.0,t_s_05_1,travel_shared,neck pillow,1.0,competing,paired,t_s_05_1.jpg,Travel,,,sub-50
Desktop or Laptop,Windows 10,Chrome 137.0.0.0,1280x720,1280x720,Temporal Distance Task,cb_01,64.0,temp_dist_trial,num_items,zn7si1,1.0,response,2_ITEM,1739.4000000007218,1731.5999999999767,1739.4000000007218,1739.4000000007218,1731.5999999999767,1739.4000000007218,1.0,0.0,0.0,,Click Response,2_count,5.0,object-49,temp_dist_trial,16.0,t_i_19_1,travel_Iceland,rope,1.0,unique,paired,t_i_19_1.jpg,Travel,,,sub-50
Desktop or Laptop,Windows 10,Chrome 137.0.0.0,1280x720,1280x720,Temporal Distance Task,cb_01,64.0,temp_dist_trial,dist_items,qkpkxw,2.0,info,,4.100000000384172,0.0,4.100000000384172,4.100000000384172,0.0,4.100000000384172,1.0,0.0,0.0,,Slider,Slider,4.0,object-56,temp_dist_trial,16.0,t_i_19_1,travel_Iceland,rope,1.0,unique,paired,t_i_19_1.jpg,Travel,,,sub-50
Desktop or Laptop,Windows 10,Chrome 137.0.0.0,1280x720,1280x720,Temporal Distance Task,cb_01,64.0,temp_dist_trial,dist_items,qkpkxw,2.0,continue,,2149.0000000007567,2147.9000000000233,2149.0000000007567,2149.0000000007567,2147.9000000000233,2149.0000000007567,1.0,0.0,0.0,,Click To Continue,Next button,7.0,object-60,temp_dist_trial,16.0,t_i_19_1,travel_Iceland,rope,1.0,unique,paired,t_i_19_1.jpg,Travel,,,sub-50
Desktop or Laptop,Windows 10,Chrome 137.0.0.0,1280x720,1280x720,Temporal Distance Task,cb_01,64.0,temp_dist_trial,dist_items,qkpkxw,2.0,response,74,999.2999999999884,2147.9000000000233,2152.5000000007567,999.2999999999884,2147.9000000000233,2152.5000000007567,1.0,1153.2000000007683,0.0,,Slider,Slider,4.0,object-56,temp_dist_trial,16.0,t_i_19_1,travel_Iceland,rope,1.0,unique,paired,t_i_19_1.jpg,Travel,,,sub-50
Desktop or Laptop,Windows 10,Chrome 137.0.0.0,1280x720,1280x720,Temporal Distance Task,cb_01,65.0,temp_dist_trial,num_items,zn7si1,1.0,response,2_ITEM,1208.2000000003611,1198.7999999999886,1208.2000000003611,1208.2000000003611,1198.7999999999886,1208.2000000003611,1.0,0.0,0.0,,Click Response,2_count,5.0,object-49,temp_dist_trial,17.0,t_i_08_1,travel_Iceland,thick socks,1.0,unique,paired,t_i_08_1.jpg,Travel,,,sub-50
Desktop or Laptop,Windows 10,Chrome 137.0.0.0,1280x720,1280x720,Temporal Distance Task,cb_01,65.0,temp_dist_trial,dist_items,qkpkxw,2.0,info,,3.9999999992433013,0.0,3.9999999992433013,3.9999999992433013,0.0,3.9999999992433013,1.0,0.0,0.0,,Slider,Slider,4.0,object-56,temp_dist_trial,17.0,t_i_08_1,travel_Iceland,thick socks,1.0,unique,paired,t_i_08_1.jpg,Travel,,,sub-50
Desktop or Laptop,Windows 10,Chrome 137.0.0.0,1280x720,1280x720,Temporal Distance Task,cb_01,65.0,temp_dist_trial,dist_items,qkpkxw,2.0,continue,,2037.1000000007334,2031.0,2037.1000000007334,2037.1000000007334,2031.0,2037.1000000007334,1.0,0.0,0.0,,Click To Continue,Next button,7.0,object-60,temp_dist_trial,17.0,t_i_08_1,travel_Iceland,thick socks,1.0,unique,paired,t_i_08_1.jpg,Travel,,,sub-50
Desktop or Laptop,Windows 10,Chrome 137.0.0.0,1280x720,1280x720,Temporal Distance Task,cb_01,65.0,temp_dist_trial,dist_items,qkpkxw,2.0,response,58,782.5999999999768,2031.0,2037.399999999616,782.5999999999768,2031.0,2037.399999999616,1.0,1254.7999999996389,0.0,,Slider,Slider,4.0,object-56,temp_dist_trial,17.0,t_i_08_1,travel_Iceland,thick socks,1.0,unique,paired,t_i_08_1.jpg,Travel,,,sub-50
Desktop or Laptop,Windows 10,Chrome 137.0.0.0,1280x720,1280x720,Temporal Distance Task,cb_01,66.0,temp_dist_trial,num_items,zn7si1,1.0,response,2_ITEM,992.8999999996158,982.5,992.8999999996158,992.8999999996158,982.5,992.8999999996158,1.0,0.0,0.0,,Click Response,2_count,5.0,object-49,temp_dist_trial,18.0,t_m_01_1,travel_Miami,sandals,1.0,unique,paired,t_m_01_1.jpg,Travel,,,sub-50
Desktop or Laptop,Windows 10,Chrome 137.0.0.0,1280x720,1280x720,Temporal Distance Task,cb_01,66.0,temp_dist_trial,dist_items,qkpkxw,2.0,info,,3.5999999999767165,0.0,3.5999999999767165,3.5999999999767165,0.0,3.5999999999767165,1.0,0.0,0.0,,Slider,Slider,4.0,object-56,temp_dist_trial,18.0,t_m_01_1,travel_Miami,sandals,1.0,unique,paired,t_m_01_1.jpg,Travel,,,sub-50
Desktop or Laptop,Windows 10,Chrome 137.0.0.0,1280x720,1280x720,Temporal Distance Task,cb_01,66.0,temp_dist_trial,dist_items,qkpkxw,2.0,continue,,1847.999999999941,1831.3999999999646,1847.999999999941,1847.999999999941,1831.3999999999646,1847.999999999941,1.0,0.0,0.0,,Click To Continue,Next button,7.0,object-60,temp_dist_trial,18.0,t_m_01_1,travel_Miami,sandals,1.0,unique,paired,t_m_01_1.jpg,Travel,,,sub-50
Desktop or Laptop,Windows 10,Chrome 137.0.0.0,1280x720,1280x720,Temporal Distance Task,cb_01,66.0,temp_dist_trial,dist_items,qkpkxw,2.0,response,50,1048.7999999999884,1831.3999999999646,1847.999999999941,1048.7999999999884,1831.3999999999646,1847.999999999941,1.0,799.1999999999533,0.0,,Slider,Slider,4.0,object-56,temp_dist_trial,18.0,t_m_01_1,travel_Miami,sandals,1.0,unique,paired,t_m_01_1.jpg,Travel,,,sub-50
Desktop or Laptop,Windows 10,Chrome 137.0.0.0,1280x720,1280x720,Temporal Distance Task,cb_01,67.0,temp_dist_trial,num_items,zn7si1,1.0,response,1_ITEM,2023.7999999996387,2014.6000000000354,2023.7999999996387,2023.7999999996387,2014.6000000000354,2023.7999999996387,1.0,0.0,0.0,,Click Response,1_count,3.0,object-46,temp_dist_trial,19.0,t_i_14_1,travel_Iceland,snow pants,1.0,unique,single,t_i_14_1.jpg,Travel,,,sub-50
Desktop or Laptop,Windows 10,Chrome 137.0.0.0,1280x720,1280x720,Temporal Distance Task,cb_01,68.0,temp_dist_trial,num_items,zn7si1,1.0,response,2_ITEM,1729.0000000007572,1715.1000000000354,1729.0000000007572,1729.0000000007572,1715.1000000000354,1729.0000000007572,1.0,0.0,0.0,,Click Response,2_count,5.0,object-49,temp_dist_trial,20.0,t_s_22_1,travel_shared,belt,1.0,competing,paired,t_s_22_1.jpg,Travel,,,sub-50
Desktop or Laptop,Windows 10,Chrome 137.0.0.0,1280x720,1280x720,Temporal Distance Task,cb_01,68.0,temp_dist_trial,dist_items,qkpkxw,2.0,info,,3.5,0.0,3.5,3.5,0.0,3.5,1.0,0.0,0.0,,Slider,Slider,4.0,object-56,temp_dist_trial,20.0,t_s_22_1,travel_shared,belt,1.0,competing,paired,t_s_22_1.jpg,Travel,,,sub-50
Desktop or Laptop,Windows 10,Chrome 137.0.0.0,1280x720,1280x720,Temporal Distance Task,cb_01,68.0,temp_dist_trial,dist_items,qkpkxw,2.0,continue,,1723.8000000007446,1714.9000000000233,1723.8000000007446,1723.8000000007446,1714.9000000000233,1723.8000000007446,1.0,0.0,0.0,,Click To Continue,Next button,7.0,object-60,temp_dist_trial,20.0,t_s_22_1,travel_shared,belt,1.0,competing,paired,t_s_22_1.jpg,Travel,,,sub-50
Desktop or Laptop,Windows 10,Chrome 137.0.0.0,1280x720,1280x720,Temporal Distance Task,cb_01,68.0,temp_dist_trial,dist_items,qkpkxw,2.0,response,36,816.0999999999768,1714.9000000000233,1724.0999999996275,816.0999999999768,1714.9000000000233,1724.0999999996275,1.0,907.9999999996508,0.0,,Slider,Slider,4.0,object-56,temp_dist_trial,20.0,t_s_22_1,travel_shared,belt,1.0,competing,paired,t_s_22_1.jpg,Travel,,,sub-50
Desktop or Laptop,Windows 10,Chrome 137.0.0.0,1280x720,1280x720,Temporal Distance Task,cb_01,69.0,temp_dist_trial,num_items,zn7si1,1.0,response,2_ITEM,1576.500000000349,1565.1999999999537,1576.500000000349,1576.500000000349,1565.1999999999537,1576.500000000349,1.0,0.0,0.0,,Click Response,2_count,5.0,object-49,temp_dist_trial,21.0,t_i_13_1,travel_Iceland,sleeping bag,1.0,unique,paired,t_i_13_1.jpg,Travel,,,sub-50
Desktop or Laptop,Windows 10,Chrome 137.0.0.0,1280x720,1280x720,Temporal Distance Task,cb_01,69.0,temp_dist_trial,dist_items,qkpkxw,2.0,info,,3.099999999627471,0.0,3.099999999627471,3.099999999627471,0.0,3.099999999627471,1.0,0.0,0.0,,Slider,Slider,4.0,object-56,temp_dist_trial,21.0,t_i_13_1,travel_Iceland,sleeping bag,1.0,unique,paired,t_i_13_1.jpg,Travel,,,sub-50
Desktop or Laptop,Windows 10,Chrome 137.0.0.0,1280x720,1280x720,Temporal Distance Task,cb_01,69.0,temp_dist_trial,dist_items,qkpkxw,2.0,continue,,1893.5999999996275,1881.5,1893.5999999996275,1893.5999999996275,1881.5,1893.5999999996275,1.0,0.0,0.0,,Click To Continue,Next button,7.0,object-60,temp_dist_trial,21.0,t_i_13_1,travel_Iceland,sleeping bag,1.0,unique,paired,t_i_13_1.jpg,Travel,,,sub-50
Desktop or Laptop,Windows 10,Chrome 137.0.0.0,1280x720,1280x720,Temporal Distance Task,cb_01,69.0,temp_dist_trial,dist_items,qkpkxw,2.0,response,39,649.2999999999884,1881.5,1894.0999999996275,649.2999999999884,1881.5,1894.0999999996275,1.0,1244.7999999996389,0.0,,Slider,Slider,4.0,object-56,temp_dist_trial,21.0,t_i_13_1,travel_Iceland,sleeping bag,1.0,unique,paired,t_i_13_1.jpg,Travel,,,sub-50
Desktop or Laptop,Windows 10,Chrome 137.0.0.0,1280x720,1280x720,Temporal Distance Task,cb_01,70.0,temp_dist_trial,num_items,zn7si1,1.0,response,1_ITEM,1602.4000000003725,1598.4000000000233,1602.4000000003725,1602.4000000003725,1598.4000000000233,1602.4000000003725,1.0,0.0,0.0,,Click Response,1_count,3.0,object-46,temp_dist_trial,22.0,t_s_24_1,travel_shared,ear plugs,1.0,competing,single,t_s_24_1.jpg,Travel,,,sub-50
Desktop or Laptop,Windows 10,Chrome 137.0.0.0,1280x720,1280x720,Temporal Distance Task,cb_01,71.0,temp_dist_trial,num_items,zn7si1,1.0,response,1_ITEM,1277.5999999996275,1265.2000000000114,1277.5999999996275,1277.5999999996275,1265.2000000000114,1277.5999999996275,1.0,0.0,0.0,,Click Response,1_count,3.0,object-46,temp_dist_trial,23.0,t_i_10_1,travel_Iceland,trekking poles,1.0,unique,paired,t_i_10_1.jpg,Travel,,,sub-50
Desktop or Laptop,Windows 10,Chrome 137.0.0.0,1280x720,1280x720,Temporal Distance Task,cb_01,72.0,temp_dist_trial,num_items,zn7si1,1.0,response,2_ITEM,1479.0999999996275,1465.5,1479.0999999996275,1479.0999999996275,1465.5,1479.0999999996275,1.0,0.0,0.0,,Click Response,2_count,5.0,object-49,temp_dist_trial,24.0,t_i_05_1,travel_Iceland,hiking boots,1.0,unique,paired,t_i_05_1.jpg,Travel,,,sub-50
Desktop or Laptop,Windows 10,Chrome 137.0.0.0,1280x720,1280x720,Temporal Distance Task,cb_01,72.0,temp_dist_trial,dist_items,qkpkxw,2.0,info,,3.699999999604188,0.0,3.699999999604188,3.699999999604188,0.0,3.699999999604188,1.0,0.0,0.0,,Slider,Slider,4.0,object-56,temp_dist_trial,24.0,t_i_05_1,travel_Iceland,hiking boots,1.0,unique,paired,t_i_05_1.jpg,Travel,,,sub-50
Desktop or Laptop,Windows 10,Chrome 137.0.0.0,1280x720,1280x720,Temporal Distance Task,cb_01,72.0,temp_dist_trial,dist_items,qkpkxw,2.0,continue,,2041.0999999999767,2031.0,2041.0999999999767,2041.0999999999767,2031.0,2041.0999999999767,1.0,0.0,0.0,,Click To Continue,Next button,7.0,object-60,temp_dist_trial,24.0,t_i_05_1,travel_Iceland,hiking boots,1.0,unique,paired,t_i_05_1.jpg,Travel,,,sub-50
Desktop or Laptop,Windows 10,Chrome 137.0.0.0,1280x720,1280x720,Temporal Distance Task,cb_01,72.0,temp_dist_trial,dist_items,qkpkxw,2.0,response,22,849.0,2031.0,2041.400000000721,849.0,2031.0,2041.400000000721,1.0,1192.4000000007218,0.0,,Slider,Slider,4.0,object-56,temp_dist_trial,24.0,t_i_05_1,travel_Iceland,hiking boots,1.0,unique,paired,t_i_05_1.jpg,Travel,,,sub-50
Desktop or Laptop,Windows 10,Chrome 137.0.0.0,1280x720,1280x720,Temporal Distance Task,cb_01,73.0,temp_dist_trial,num_items,zn7si1,1.0,response,1_ITEM,1548.9000000007218,1532.3999999999646,1548.9000000007218,1548.9000000007218,1532.3999999999646,1548.9000000007218,1.0,0.0,0.0,,Click Response,1_count,3.0,object-46,temp_dist_trial,25.0,t_s_10_1,travel_shared,luggage lock,1.0,competing,single,t_s_10_1.jpg,Travel,,,sub-50
Desktop or Laptop,Windows 10,Chrome 137.0.0.0,1280x720,1280x720,Temporal Distance Task,cb_01,74.0,temp_dist_trial,num_items,zn7si1,1.0,response,1_ITEM,1625.9000000000233,1615.2000000000116,1625.9000000000233,1625.9000000000233,1615.2000000000116,1625.9000000000233,1.0,0.0,0.0,,Click Response,1_count,3.0,object-46,temp_dist_trial,26.0,t_m_07_1,travel_Miami,sunglasses,1.0,unique,single,t_m_07_1.jpg,Travel,,,sub-50
Desktop or Laptop,Windows 10,Chrome 137.0.0.0,1280x720,1280x720,Temporal Distance Task,cb_01,75.0,temp_dist_trial,num_items,zn7si1,1.0,response,1_ITEM,980.4000000000232,965.9000000000232,980.4000000000232,980.4000000000232,965.9000000000232,980.4000000000232,1.0,0.0,0.0,,Click Response,1_count,3.0,object-46,temp_dist_trial,27.0,t_i_09_1,travel_Iceland,ear muffs,1.0,unique,paired,t_i_09_1.jpg,Travel,,,sub-50
Desktop or Laptop,Windows 10,Chrome 137.0.0.0,1280x720,1280x720,Temporal Distance Task,cb_01,76.0,temp_dist_trial,num_items,zn7si1,1.0,response,1_ITEM,1122.4999999996508,1115.600000000035,1122.4999999996508,1122.4999999996508,1115.600000000035,1122.4999999996508,1.0,0.0,0.0,,Click Response,1_count,3.0,object-46,temp_dist_trial,28.0,t_m_06_1,travel_Miami,handheld fan,1.0,unique,single,t_m_06_1.jpg,Travel,,,sub-50
Desktop or Laptop,Windows 10,Chrome 137.0.0.0,1280x720,1280x720,Temporal Distance Task,cb_01,77.0,temp_dist_trial,num_items,zn7si1,1.0,response,1_ITEM,1336.1999999992552,1332.0,1336.1999999992552,1336.1999999992552,1332.0,1336.1999999992552,1.0,0.0,0.0,,Click Response,1_count,3.0,object-46,temp_dist_trial,29.0,t_s_20_1,travel_shared,travel pill case,1.0,competing,paired,t_s_20_1.jpg,Travel,,,sub-50
Desktop or Laptop,Windows 10,Chrome 137.0.0.0,1280x720,1280x720,Temporal Distance Task,cb_01,78.0,temp_dist_trial,num_items,zn7si1,1.0,response,1_ITEM,1152.6999999996042,1148.7999999999886,1152.6999999996042,1152.6999999996042,1148.7999999999886,1152.6999999996042,1.0,0.0,0.0,,Click Response,1_count,3.0,object-46,temp_dist_trial,30.0,t_s_23_1,travel_shared,ball cap,1.0,competing,single,t_s_23_1.jpg,Travel,,,sub-50
Desktop or Laptop,Windows 10,Chrome 137.0.0.0,1280x720,1280x720,Temporal Distance Task,cb_01,79.0,temp_dist_trial,num_items,zn7si1,1.0,response,1_ITEM,1230.8000000003958,1215.7000000000114,1230.8000000003958,1230.8000000003958,1215.7000000000114,1230.8000000003958,1.0,0.0,0.0,,Click Response,1_count,3.0,object-46,temp_dist_trial,31.0,t_s_14_1,travel_shared,hand sanitizer,1.0,competing,paired,t_s_14_1.jpg,Travel,,,sub-50
Desktop or Laptop,Windows 10,Chrome 137.0.0.0,1280x720,1280x720,Temporal Distance Task,cb_01,80.0,temp_dist_trial,num_items,zn7si1,1.0,response,2_ITEM,2028.100000000384,2015.0,2028.100000000384,2028.100000000384,2015.0,2028.100000000384,1.0,0.0,0.0,,Click Response,2_count,5.0,object-49,temp_dist_trial,32.0,t_s_21_1,travel_shared,umbrella,1.0,competing,paired,t_s_21_1.jpg,Travel,,,sub-50
Desktop or Laptop,Windows 10,Chrome 137.0.0.0,1280x720,1280x720,Temporal Distance Task,cb_01,80.0,temp_dist_trial,dist_items,qkpkxw,2.0,info,,3.300000000745058,0.0,3.300000000745058,3.300000000745058,0.0,3.300000000745058,1.0,0.0,0.0,,Slider,Slider,4.0,object-56,temp_dist_trial,32.0,t_s_21_1,travel_shared,umbrella,1.0,competing,paired,t_s_21_1.jpg,Travel,,,sub-50
Desktop or Laptop,Windows 10,Chrome 137.0.0.0,1280x720,1280x720,Temporal Distance Task,cb_01,80.0,temp_dist_trial,dist_items,qkpkxw,2.0,continue,,2140.699999999255,2131.200000000012,2140.699999999255,2140.699999999255,2131.200000000012,2140.699999999255,1.0,0.0,0.0,,Click To Continue,Next button,7.0,object-60,temp_dist_trial,32.0,t_s_21_1,travel_shared,umbrella,1.0,competing,paired,t_s_21_1.jpg,Travel,,,sub-50
Desktop or Laptop,Windows 10,Chrome 137.0.0.0,1280x720,1280x720,Temporal Distance Task,cb_01,80.0,temp_dist_trial,dist_items,qkpkxw,2.0,response,97,799.5,2131.200000000012,2141.0,799.5,2131.200000000012,2141.0,1.0,1341.5,0.0,,Slider,Slider,4.0,object-56,temp_dist_trial,32.0,t_s_21_1,travel_shared,umbrella,1.0,competing,paired,t_s_21_1.jpg,Travel,,,sub-50
Desktop or Laptop,Windows 10,Chrome 137.0.0.0,1280x720,1280x720,Temporal Distance Task,cb_01,81.0,temp_dist_trial,num_items,zn7si1,1.0,response,1_ITEM,1674.1000000007336,1665.0999999999767,1674.1000000007336,1674.1000000007336,1665.0999999999767,1674.1000000007336,1.0,0.0,0.0,,Click Response,1_count,3.0,object-46,temp_dist_trial,33.0,t_s_08_1,travel_shared,hand lotion,1.0,competing,paired,t_s_08_1.jpg,Travel,,,sub-50
Desktop or Laptop,Windows 10,Chrome 137.0.0.0,1280x720,1280x720,Temporal Distance Task,cb_01,82.0,temp_dist_trial,num_items,zn7si1,1.0,response,2_ITEM,1389.9000000007218,1381.6999999999537,1389.9000000007218,1389.9000000007218,1381.6999999999537,1389.9000000007218,1.0,0.0,0.0,,Click Response,2_count,5.0,object-49,temp_dist_trial,34.0,t_i_15_1,travel_Iceland,compass,1.0,unique,paired,t_i_15_1.jpg,Travel,,,sub-50
Desktop or Laptop,Windows 10,Chrome 137.0.0.0,1280x720,1280x720,Temporal Distance Task,cb_01,82.0,temp_dist_trial,dist_items,qkpkxw,2.0,info,,3.5000000007567,0.0,3.5000000007567,3.5000000007567,0.0,3.5000000007567,1.0,0.0,0.0,,Slider,Slider,4.0,object-56,temp_dist_trial,34.0,t_i_15_1,travel_Iceland,compass,1.0,unique,paired,t_i_15_1.jpg,Travel,,,sub-50
Desktop or Laptop,Windows 10,Chrome 137.0.0.0,1280x720,1280x720,Temporal Distance Task,cb_01,82.0,temp_dist_trial,dist_items,qkpkxw,2.0,continue,,2435.500000000757,2431.0,2435.500000000757,2435.500000000757,2431.0,2435.500000000757,1.0,0.0,0.0,,Click To Continue,Next button,7.0,object-60,temp_dist_trial,34.0,t_i_15_1,travel_Iceland,compass,1.0,unique,paired,t_i_15_1.jpg,Travel,,,sub-50
Desktop or Laptop,Windows 10,Chrome 137.0.0.0,1280x720,1280x720,Temporal Distance Task,cb_01,82.0,temp_dist_trial,dist_items,qkpkxw,2.0,response,18,782.5,2431.0,2438.799999999639,782.5,2431.0,2438.799999999639,1.0,1656.2999999996387,0.0,,Slider,Slider,4.0,object-56,temp_dist_trial,34.0,t_i_15_1,travel_Iceland,compass,1.0,unique,paired,t_i_15_1.jpg,Travel,,,sub-50
Desktop or Laptop,Windows 10,Chrome 137.0.0.0,1280x720,1280x720,Temporal Distance Task,cb_01,83.0,temp_dist_trial,num_items,zn7si1,1.0,response,2_ITEM,2993.8999999992666,2980.700000000012,2993.8999999992666,2993.8999999992666,2980.700000000012,2993.8999999992666,1.0,0.0,0.0,,Click Response,2_count,5.0,object-49,temp_dist_trial,35.0,t_s_03_1,travel_shared,portable charger,1.0,competing,paired,t_s_03_1.jpg,Travel,,,sub-50
Desktop or Laptop,Windows 10,Chrome 137.0.0.0,1280x720,1280x720,Temporal Distance Task,cb_01,83.0,temp_dist_trial,dist_items,qkpkxw,2.0,info,,4.300000000395812,0.0,4.300000000395812,4.300000000395812,0.0,4.300000000395812,1.0,0.0,0.0,,Slider,Slider,4.0,object-56,temp_dist_trial,35.0,t_s_03_1,travel_shared,portable charger,1.0,competing,paired,t_s_03_1.jpg,Travel,,,sub-50
Desktop or Laptop,Windows 10,Chrome 137.0.0.0,1280x720,1280x720,Temporal Distance Task,cb_01,83.0,temp_dist_trial,dist_items,qkpkxw,2.0,continue,,2669.3000000003963,2664.100000000035,2669.3000000003963,2669.3000000003963,2664.100000000035,2669.3000000003963,1.0,0.0,0.0,,Click To Continue,Next button,7.0,object-60,temp_dist_trial,35.0,t_s_03_1,travel_shared,portable charger,1.0,competing,paired,t_s_03_1.jpg,Travel,,,sub-50
Desktop or Laptop,Windows 10,Chrome 137.0.0.0,1280x720,1280x720,Temporal Distance Task,cb_01,83.0,temp_dist_trial,dist_items,qkpkxw,2.0,response,70,732.7000000000116,2664.100000000035,2669.7000000007683,732.7000000000116,2664.100000000035,2669.7000000007683,1.0,1937.0000000007572,0.0,,Slider,Slider,4.0,object-56,temp_dist_trial,35.0,t_s_03_1,travel_shared,portable charger,1.0,competing,paired,t_s_03_1.jpg,Travel,,,sub-50
Desktop or Laptop,Windows 10,Chrome 137.0.0.0,1280x720,1280x720,Temporal Distance Task,cb_01,84.0,temp_dist_trial,num_items,zn7si1,1.0,response,1_ITEM,1359.4999999992433,1348.899999999965,1359.4999999992433,1359.4999999992433,1348.899999999965,1359.4999999992433,1.0,0.0,0.0,,Click Response,1_count,3.0,object-46,temp_dist_trial,36.0,t_s_19_1,travel_shared,pajamas,1.0,competing,single,t_s_19_1.jpg,Travel,,,sub-50
Desktop or Laptop,Windows 10,Chrome 137.0.0.0,1280x720,1280x720,Temporal Distance Task,cb_01,85.0,temp_dist_trial,num_items,zn7si1,1.0,response,1_ITEM,2170.5999999999767,2164.5,2170.5999999999767,2170.5999999999767,2164.5,2170.5999999999767,1.0,0.0,0.0,,Click Response,1_count,3.0,object-46,temp_dist_trial,37.0,t_i_04_1,travel_Iceland,portable camping stove,1.0,unique,single,t_i_04_1.jpg,Travel,,,sub-50
Desktop or Laptop,Windows 10,Chrome 137.0.0.0,1280x720,1280x720,Temporal Distance Task,cb_01,86.0,temp_dist_trial,num_items,zn7si1,1.0,response,1_ITEM,1763.2999999999884,1748.3999999999646,1763.2999999999884,1763.2999999999884,1748.3999999999646,1763.2999999999884,1.0,0.0,0.0,,Click Response,1_count,3.0,object-46,temp_dist_trial,38.0,t_s_17_1,travel_shared,toothbrush,1.0,competing,paired,t_s_17_1.jpg,Travel,,,sub-50
Desktop or Laptop,Windows 10,Chrome 137.0.0.0,1280x720,1280x720,Temporal Distance Task,cb_01,87.0,temp_dist_trial,num_items,zn7si1,1.0,response,1_ITEM,1962.3999999992664,1948.5,1962.3999999992664,1962.3999999992664,1948.5,1962.3999999992664,1.0,0.0,0.0,,Click Response,1_count,3.0,object-46,temp_dist_trial,39.0,t_m_16_1,travel_Miami,flippers,1.0,unique,paired,t_m_16_1.jpg,Travel,,,sub-50
Desktop or Laptop,Windows 10,Chrome 137.0.0.0,1280x720,1280x720,Temporal Distance Task,cb_01,88.0,temp_dist_trial,num_items,zn7si1,1.0,response,2_ITEM,2361.4000000003725,2347.9000000000233,2361.4000000003725,2361.4000000003725,2347.9000000000233,2361.4000000003725,1.0,0.0,0.0,,Click Response,2_count,5.0,object-49,temp_dist_trial,40.0,t_s_11_1,travel_shared,eye mask,1.0,competing,paired,t_s_11_1.jpg,Travel,,,sub-50
Desktop or Laptop,Windows 10,Chrome 137.0.0.0,1280x720,1280x720,Temporal Distance Task,cb_01,88.0,temp_dist_trial,dist_items,qkpkxw,2.0,info,,3.699999999604188,0.0,3.699999999604188,3.699999999604188,0.0,3.699999999604188,1.0,0.0,0.0,,Slider,Slider,4.0,object-56,temp_dist_trial,40.0,t_s_11_1,travel_shared,eye mask,1.0,competing,paired,t_s_11_1.jpg,Travel,,,sub-50
Desktop or Laptop,Windows 10,Chrome 137.0.0.0,1280x720,1280x720,Temporal Distance Task,cb_01,88.0,temp_dist_trial,dist_items,qkpkxw,2.0,continue,,2508.1999999996037,2497.7999999999884,2508.1999999996037,2508.1999999996037,2497.7999999999884,2508.1999999996037,1.0,0.0,0.0,,Click To Continue,Next button,7.0,object-60,temp_dist_trial,40.0,t_s_11_1,travel_shared,eye mask,1.0,competing,paired,t_s_11_1.jpg,Travel,,,sub-50
Desktop or Laptop,Windows 10,Chrome 137.0.0.0,1280x720,1280x720,Temporal Distance Task,cb_01,88.0,temp_dist_trial,dist_items,qkpkxw,2.0,response,35,999.0,2497.7999999999884,2508.5000000003492,999.0,2497.7999999999884,2508.5000000003492,1.0,1509.500000000349,0.0,,Slider,Slider,4.0,object-56,temp_dist_trial,40.0,t_s_11_1,travel_shared,eye mask,1.0,competing,paired,t_s_11_1.jpg,Travel,,,sub-50
Desktop or Laptop,Windows 10,Chrome 137.0.0.0,1280x720,1280x720,Temporal Distance Task,cb_01,89.0,temp_dist_trial,num_items,zn7si1,1.0,response,1_ITEM,1282.0999999999767,1265.2999999999886,1282.0999999999767,1282.0999999999767,1265.2999999999886,1282.0999999999767,1.0,0.0,0.0,,Click Response,1_count,3.0,object-46,temp_dist_trial,41.0,t_s_04_1,travel_shared,instant camera,1.0,competing,single,t_s_04_1.jpg,Travel,,,sub-50
Desktop or Laptop,Windows 10,Chrome 137.0.0.0,1280x720,1280x720,Temporal Distance Task,cb_01,90.0,temp_dist_trial,num_items,zn7si1,1.0,response,1_ITEM,2668.100000000733,2664.099999999977,2668.100000000733,2668.100000000733,2664.099999999977,2668.100000000733,1.0,0.0,0.0,,Click Response,1_count,3.0,object-46,temp_dist_trial,42.0,t_m_12_1,travel_Miami,foldable pail and shovel,1.0,unique,paired,t_m_12_1.jpg,Travel,,,sub-50
Desktop or Laptop,Windows 10,Chrome 137.0.0.0,1280x720,1280x720,Temporal Distance Task,cb_01,91.0,temp_dist_trial,num_items,zn7si1,1.0,response,1_ITEM,2879.9999999992438,2864.0,2879.9999999992438,2879.9999999992438,2864.0,2879.9999999992438,1.0,0.0,0.0,,Click Response,1_count,3.0,object-46,temp_dist_trial,43.0,t_m_19_1,travel_Miami,surfboard,1.0,unique,paired,t_m_19_1.jpg,Travel,,,sub-50
Desktop or Laptop,Windows 10,Chrome 137.0.0.0,1280x720,1280x720,Temporal Distance Task,cb_01,92.0,temp_dist_trial,num_items,zn7si1,1.0,response,2_ITEM,1590.6999999996042,1581.7999999999884,1590.6999999996042,1590.6999999996042,1581.7999999999884,1590.6999999996042,1.0,0.0,0.0,,Click Response,2_count,5.0,object-49,temp_dist_trial,44.0,t_s_18_1,travel_shared,first aid kit,1.0,competing,paired,t_s_18_1.jpg,Travel,,,sub-50
Desktop or Laptop,Windows 10,Chrome 137.0.0.0,1280x720,1280x720,Temporal Distance Task,cb_01,92.0,temp_dist_trial,dist_items,qkpkxw,2.0,info,,3.300000000745058,0.0,3.300000000745058,3.300000000745058,0.0,3.300000000745058,1.0,0.0,0.0,,Slider,Slider,4.0,object-56,temp_dist_trial,44.0,t_s_18_1,travel_shared,first aid kit,1.0,competing,paired,t_s_18_1.jpg,Travel,,,sub-50
Desktop or Laptop,Windows 10,Chrome 137.0.0.0,1280x720,1280x720,Temporal Distance Task,cb_01,92.0,temp_dist_trial,dist_items,qkpkxw,2.0,continue,,2670.199999999255,2664.099999999977,2670.199999999255,2670.199999999255,2664.099999999977,2670.199999999255,1.0,0.0,0.0,,Click To Continue,Next button,7.0,object-60,temp_dist_trial,44.0,t_s_18_1,travel_shared,first aid kit,1.0,competing,paired,t_s_18_1.jpg,Travel,,,sub-50
Desktop or Laptop,Windows 10,Chrome 137.0.0.0,1280x720,1280x720,Temporal Distance Task,cb_01,92.0,temp_dist_trial,dist_items,qkpkxw,2.0,response,50,1332.0999999999767,2664.099999999977,2670.5,1332.0999999999767,2664.099999999977,2670.5,1.0,1338.4000000000233,0.0,,Slider,Slider,4.0,object-56,temp_dist_trial,44.0,t_s_18_1,travel_shared,first aid kit,1.0,competing,paired,t_s_18_1.jpg,Travel,,,sub-50
Desktop or Laptop,Windows 10,Chrome 137.0.0.0,1280x720,1280x720,Temporal Distance Task,cb_01,93.0,temp_dist_trial,num_items,zn7si1,1.0,response,1_ITEM,2636.0999999992778,2630.9000000000233,2636.0999999992778,2636.0999999992778,2630.9000000000233,2636.0999999992778,1.0,0.0,0.0,,Click Response,1_count,3.0,object-46,temp_dist_trial,45.0,t_m_15_1,travel_Miami,shorts,1.0,unique,paired,t_m_15_1.jpg,Travel,,,sub-50
Desktop or Laptop,Windows 10,Chrome 137.0.0.0,1280x720,1280x720,Temporal Distance Task,cb_01,94.0,temp_dist_trial,num_items,zn7si1,1.0,response,1_ITEM,1346.0999999999767,1331.899999999965,1346.0999999999767,1346.0999999999767,1331.899999999965,1346.0999999999767,1.0,0.0,0.0,,Click Response,1_count,3.0,object-46,temp_dist_trial,46.0,t_s_15_1,travel_shared,luggage tag,1.0,competing,single,t_s_15_1.jpg,Travel,,,sub-50
Desktop or Laptop,Windows 10,Chrome 137.0.0.0,1280x720,1280x720,Temporal Distance Task,cb_01,95.0,temp_dist_trial,num_items,zn7si1,1.0,response,2_ITEM,1329.0999999999767,1315.2999999999886,1329.0999999999767,1329.0999999999767,1315.2999999999886,1329.0999999999767,1.0,0.0,0.0,,Click Response,2_count,5.0,object-49,temp_dist_trial,47.0,t_m_02_1,travel_Miami,t-shirt,1.0,unique,paired,t_m_02_1.jpg,Travel,,,sub-50
Desktop or Laptop,Windows 10,Chrome 137.0.0.0,1280x720,1280x720,Temporal Distance Task,cb_01,95.0,temp_dist_trial,dist_items,qkpkxw,2.0,info,,5.4999999992433,0.0,5.4999999992433,5.4999999992433,0.0,5.4999999992433,1.0,0.0,0.0,,Slider,Slider,4.0,object-56,temp_dist_trial,47.0,t_m_02_1,travel_Miami,t-shirt,1.0,unique,paired,t_m_02_1.jpg,Travel,,,sub-50
Desktop or Laptop,Windows 10,Chrome 137.0.0.0,1280x720,1280x720,Temporal Distance Task,cb_01,95.0,temp_dist_trial,dist_items,qkpkxw,2.0,continue,,2906.8999999996167,2897.399999999965,2906.8999999996167,2906.8999999996167,2897.399999999965,2906.8999999996167,1.0,0.0,0.0,,Click To Continue,Next button,7.0,object-60,temp_dist_trial,47.0,t_m_02_1,travel_Miami,t-shirt,1.0,unique,paired,t_m_02_1.jpg,Travel,,,sub-50
Desktop or Laptop,Windows 10,Chrome 137.0.0.0,1280x720,1280x720,Temporal Distance Task,cb_01,95.0,temp_dist_trial,dist_items,qkpkxw,2.0,response,1,866.2999999999884,2897.399999999965,2907.3999999996167,866.2999999999884,2897.399999999965,2907.3999999996167,1.0,2041.0999999996275,0.0,,Slider,Slider,4.0,object-56,temp_dist_trial,47.0,t_m_02_1,travel_Miami,t-shirt,1.0,unique,paired,t_m_02_1.jpg,Travel,,,sub-50
Desktop or Laptop,Windows 10,Chrome 137.0.0.0,1280x720,1280x720,Temporal Distance Task,cb_01,96.0,temp_dist_trial,num_items,zn7si1,1.0,response,1_ITEM,1934.499999999651,1931.5,1934.499999999651,1934.499999999651,1931.5,1934.499999999651,1.0,0.0,0.0,,Click Response,1_count,3.0,object-46,temp_dist_trial,48.0,t_m_08_1,travel_Miami,flipflops,1.0,unique,single,t_m_08_1.jpg,Travel,,,sub-50
Desktop or Laptop,Windows 10,Chrome 137.0.0.0,1280x720,1280x720,Temporal Distance Task,$${counterbalance_group},,,,,,info,END,,,374760.0,,,,0.0,,,,,,,,,,,,,,,,,,,,sub-50
