Participant Device,Participant OS,Participant Browser,Participant Monitor Size,Participant Viewport Size,Task Name,Current Spreadsheet,Trial Number,Display,Screen,Screen ID,Screen Counter,Response Type,Response,Onset Time,Clock Time,Reaction Time,Absolute Onset Time,Absolute Clock Time,Absolute Reaction Time,Correct,Response Duration,Proportion,Tag,Component Name,Object Name,Object Number,Object ID,Spreadsheet: display,Spreadsheet: trial,Spreadsheet: stimulus_id,Spreadsheet: expected_goal,Spreadsheet: stimulus_name,Spreadsheet: c_group,Spreadsheet: condition,Spreadsheet: paired_status,Spreadsheet: stimulus_path,Spreadsheet: block_type,Manipulation: Spreadsheet,Store: enc_test_acc,sub_label
Desktop or Laptop,Mac OS 10.15.7,Chrome 138.0.0.0,1440x900,1440x876,Temporal Distance Task,,,,,,,info,BEGIN,,,,,,,,,,,,,,,,,,,,,,,,,$${counterbalance_group},,sub-79
Desktop or Laptop,Mac OS 10.15.7,Chrome 138.0.0.0,1440x900,1440x876,Temporal Distance Task,cb_05,1.0,temp_instructions,intro_screen,3tnme7,1.0,continue,,6615.100000002235,6599.7,6615.100000002235,6615.100000002235,6599.7,6615.100000002235,1.0,0.0,0.0,,Click To Continue,Continue Button,4.0,object-29,temp_instructions,,,Student,,,,,,,$${counterbalance_group},,sub-79
Desktop or Laptop,Mac OS 10.15.7,Chrome 138.0.0.0,1440x900,1440x876,Temporal Distance Task,cb_05,1.0,temp_instructions,intro_screen_2,52v7ur,2.0,continue,,6566.400000002235,6550.299999999997,6566.400000002235,6566.400000002235,6550.299999999997,6566.400000002235,1.0,0.0,0.0,,Click To Continue,Continue Button,4.0,object-39,temp_instructions,,,Student,,,,,,,$${counterbalance_group},,sub-79
Desktop or Laptop,Mac OS 10.15.7,Chrome 138.0.0.0,1440x900,1440x876,Temporal Distance Task,cb_05,1.0,temp_instructions,intro_screen_3,i7lvwx,3.0,continue,,4232.000000000746,4216.600000000002,4232.000000000746,4232.000000000746,4216.600000000002,4232.000000000746,1.0,0.0,0.0,,Click To Continue,Continue Button,4.0,object-67,temp_instructions,,,Student,,,,,,,$${counterbalance_group},,sub-79
Desktop or Laptop,Mac OS 10.15.7,Chrome 138.0.0.0,1440x900,1440x876,Temporal Distance Task,cb_05,1.0,temp_instructions,test_q1,5ieqx1,4.0,response,choice_3,6215.5999999999985,6200.0999999999985,6215.5999999999985,6215.5999999999985,6200.0999999999985,6215.5999999999985,1.0,0.0,0.0,,Click Response,choice_3,5.0,object-345,temp_instructions,,,Student,,,,,,,$${counterbalance_group},,sub-79
Desktop or Laptop,Mac OS 10.15.7,Chrome 138.0.0.0,1440x900,1440x876,Temporal Distance Task,cb_05,1.0,temp_instructions,score_corr,7ilvjr,5.0,continue,,1547.8000000007446,1533.2999999999995,1547.8000000007446,1547.8000000007446,1533.2999999999995,1547.8000000007446,1.0,0.0,0.0,,Click To Continue,Continue Button,3.0,object-23,temp_instructions,,,Student,,,,,,,$${counterbalance_group},,sub-79
Desktop or Laptop,Mac OS 10.15.7,Chrome 138.0.0.0,1440x900,1440x876,Temporal Distance Task,cb_05,1.0,temp_eventStart,Screen 1,dgtyxe,1.0,continue,,1963.399999999256,1949.9000000000005,1963.399999999256,1963.399999999256,1949.9000000000005,1963.399999999256,1.0,0.0,0.0,,Click To Continue,Next Button,3.0,object-43,temp_eventStart,,,Student,,,,,,,$${counterbalance_group},,sub-79
Desktop or Laptop,Mac OS 10.15.7,Chrome 138.0.0.0,1440x900,1440x876,Temporal Distance Task,cb_05,1.0,temp_dist_trial,num_items,zn7si1,1.0,response,2_ITEM,2364.2000000022344,2349.2999999999993,2364.2000000022344,2364.2000000022344,2349.2999999999993,2364.2000000022344,1.0,0.0,0.0,,Click Response,2_count,5.0,object-49,temp_dist_trial,1.0,s_a_08_1,student_art,sewing machine,5.0,unique,paired,s_a_08_1.jpg,Student,$${counterbalance_group},,sub-79
Desktop or Laptop,Mac OS 10.15.7,Chrome 138.0.0.0,1440x900,1440x876,Temporal Distance Task,cb_05,1.0,temp_dist_trial,dist_items,qkpkxw,2.0,info,,10.099999999256397,0.0,10.099999999256397,10.099999999256397,0.0,10.099999999256397,1.0,0.0,0.0,,Slider,Slider,4.0,object-56,temp_dist_trial,1.0,s_a_08_1,student_art,sewing machine,5.0,unique,paired,s_a_08_1.jpg,Student,$${counterbalance_group},,sub-79
Desktop or Laptop,Mac OS 10.15.7,Chrome 138.0.0.0,1440x900,1440x876,Temporal Distance Task,cb_05,1.0,temp_dist_trial,dist_items,qkpkxw,2.0,continue,,4049.2000000007465,4033.400000000001,4049.2000000007465,4049.2000000007465,4033.400000000001,4049.2000000007465,1.0,0.0,0.0,,Click To Continue,Next button,7.0,object-60,temp_dist_trial,1.0,s_a_08_1,student_art,sewing machine,5.0,unique,paired,s_a_08_1.jpg,Student,$${counterbalance_group},,sub-79
Desktop or Laptop,Mac OS 10.15.7,Chrome 138.0.0.0,1440x900,1440x876,Temporal Distance Task,cb_05,1.0,temp_dist_trial,dist_items,qkpkxw,2.0,response,53,2133.5,4033.400000000001,4050.200000000005,2133.5,4033.400000000001,4050.200000000005,1.0,1916.7000000000048,0.0,,Slider,Slider,4.0,object-56,temp_dist_trial,1.0,s_a_08_1,student_art,sewing machine,5.0,unique,paired,s_a_08_1.jpg,Student,$${counterbalance_group},,sub-79
Desktop or Laptop,Mac OS 10.15.7,Chrome 138.0.0.0,1440x900,1440x876,Temporal Distance Task,cb_05,2.0,temp_dist_trial,num_items,zn7si1,1.0,response,2_ITEM,2081.199999999255,2066.699999999997,2081.199999999255,2081.199999999255,2066.699999999997,2081.199999999255,1.0,0.0,0.0,,Click Response,2_count,5.0,object-49,temp_dist_trial,2.0,s_s_03_1,student_stem,petri dish,5.0,unique,paired,s_s_03_1.jpg,Student,$${counterbalance_group},,sub-79
Desktop or Laptop,Mac OS 10.15.7,Chrome 138.0.0.0,1440x900,1440x876,Temporal Distance Task,cb_05,2.0,temp_dist_trial,dist_items,qkpkxw,2.0,info,,7.900000001493026,0.0,7.900000001493026,7.900000001493026,0.0,7.900000001493026,1.0,0.0,0.0,,Slider,Slider,4.0,object-56,temp_dist_trial,2.0,s_s_03_1,student_stem,petri dish,5.0,unique,paired,s_s_03_1.jpg,Student,$${counterbalance_group},,sub-79
Desktop or Laptop,Mac OS 10.15.7,Chrome 138.0.0.0,1440x900,1440x876,Temporal Distance Task,cb_05,2.0,temp_dist_trial,dist_items,qkpkxw,2.0,continue,,2298.2000000022376,2283.300000000003,2298.2000000022376,2298.2000000022376,2283.300000000003,2298.2000000022376,1.0,0.0,0.0,,Click To Continue,Next button,7.0,object-60,temp_dist_trial,2.0,s_s_03_1,student_stem,petri dish,5.0,unique,paired,s_s_03_1.jpg,Student,$${counterbalance_group},,sub-79
Desktop or Laptop,Mac OS 10.15.7,Chrome 138.0.0.0,1440x900,1440x876,Temporal Distance Task,cb_05,2.0,temp_dist_trial,dist_items,qkpkxw,2.0,response,58,950.0,2283.300000000003,2298.900000001493,950.0,2283.300000000003,2298.900000001493,1.0,1348.900000001493,0.0,,Slider,Slider,4.0,object-56,temp_dist_trial,2.0,s_s_03_1,student_stem,petri dish,5.0,unique,paired,s_s_03_1.jpg,Student,$${counterbalance_group},,sub-79
Desktop or Laptop,Mac OS 10.15.7,Chrome 138.0.0.0,1440x900,1440x876,Temporal Distance Task,cb_05,3.0,temp_dist_trial,num_items,zn7si1,1.0,response,2_ITEM,1347.5,1333.4000000000015,1347.5,1347.5,1333.4000000000015,1347.5,1.0,0.0,0.0,,Click Response,2_count,5.0,object-49,temp_dist_trial,3.0,s_sh_02_1,student_shared,eraser,5.0,competing,paired,s_sh_02_1.jpg,Student,$${counterbalance_group},,sub-79
Desktop or Laptop,Mac OS 10.15.7,Chrome 138.0.0.0,1440x900,1440x876,Temporal Distance Task,cb_05,3.0,temp_dist_trial,dist_items,qkpkxw,2.0,info,,7.700000001488661,0.0,7.700000001488661,7.700000001488661,0.0,7.700000001488661,1.0,0.0,0.0,,Slider,Slider,4.0,object-56,temp_dist_trial,3.0,s_sh_02_1,student_shared,eraser,5.0,competing,paired,s_sh_02_1.jpg,Student,$${counterbalance_group},,sub-79
Desktop or Laptop,Mac OS 10.15.7,Chrome 138.0.0.0,1440x900,1440x876,Temporal Distance Task,cb_05,3.0,temp_dist_trial,dist_items,qkpkxw,2.0,continue,,2964.400000000744,2949.900000000001,2964.400000000744,2964.400000000744,2949.900000000001,2964.400000000744,1.0,0.0,0.0,,Click To Continue,Next button,7.0,object-60,temp_dist_trial,3.0,s_sh_02_1,student_shared,eraser,5.0,competing,paired,s_sh_02_1.jpg,Student,$${counterbalance_group},,sub-79
Desktop or Laptop,Mac OS 10.15.7,Chrome 138.0.0.0,1440x900,1440x876,Temporal Distance Task,cb_05,3.0,temp_dist_trial,dist_items,qkpkxw,2.0,response,58,1716.5999999999985,2949.900000000001,2965.299999999253,1716.5999999999985,2949.900000000001,2965.299999999253,1.0,1248.6999999992552,0.0,,Slider,Slider,4.0,object-56,temp_dist_trial,3.0,s_sh_02_1,student_shared,eraser,5.0,competing,paired,s_sh_02_1.jpg,Student,$${counterbalance_group},,sub-79
Desktop or Laptop,Mac OS 10.15.7,Chrome 138.0.0.0,1440x900,1440x876,Temporal Distance Task,cb_05,4.0,temp_dist_trial,num_items,zn7si1,1.0,response,2_ITEM,1081.399999999252,1066.6999999999969,1081.399999999252,1081.399999999252,1066.6999999999969,1081.399999999252,1.0,0.0,0.0,,Click Response,2_count,5.0,object-49,temp_dist_trial,4.0,s_a_01_1,student_art,paintbrush,5.0,unique,paired,s_a_01_1.jpg,Student,$${counterbalance_group},,sub-79
Desktop or Laptop,Mac OS 10.15.7,Chrome 138.0.0.0,1440x900,1440x876,Temporal Distance Task,cb_05,4.0,temp_dist_trial,dist_items,qkpkxw,2.0,info,,7.800000000745058,0.0,7.800000000745058,7.800000000745058,0.0,7.800000000745058,1.0,0.0,0.0,,Slider,Slider,4.0,object-56,temp_dist_trial,4.0,s_a_01_1,student_art,paintbrush,5.0,unique,paired,s_a_01_1.jpg,Student,$${counterbalance_group},,sub-79
Desktop or Laptop,Mac OS 10.15.7,Chrome 138.0.0.0,1440x900,1440x876,Temporal Distance Task,cb_05,4.0,temp_dist_trial,dist_items,qkpkxw,2.0,continue,,2080.800000000745,2066.0,2080.800000000745,2080.800000000745,2066.0,2080.800000000745,1.0,0.0,0.0,,Click To Continue,Next button,7.0,object-60,temp_dist_trial,4.0,s_a_01_1,student_art,paintbrush,5.0,unique,paired,s_a_01_1.jpg,Student,$${counterbalance_group},,sub-79
Desktop or Laptop,Mac OS 10.15.7,Chrome 138.0.0.0,1440x900,1440x876,Temporal Distance Task,cb_05,4.0,temp_dist_trial,dist_items,qkpkxw,2.0,response,35,933.3000000000028,2066.0,2081.400000002235,933.3000000000028,2066.0,2081.400000002235,1.0,1148.1000000022325,0.0,,Slider,Slider,4.0,object-56,temp_dist_trial,4.0,s_a_01_1,student_art,paintbrush,5.0,unique,paired,s_a_01_1.jpg,Student,$${counterbalance_group},,sub-79
Desktop or Laptop,Mac OS 10.15.7,Chrome 138.0.0.0,1440x900,1440x876,Temporal Distance Task,cb_05,5.0,temp_dist_trial,num_items,zn7si1,1.0,response,1_ITEM,2365.300000000745,2350.5999999999985,2365.300000000745,2365.300000000745,2350.5999999999985,2365.300000000745,1.0,0.0,0.0,,Click Response,1_count,3.0,object-46,temp_dist_trial,5.0,s_s_17_1,student_stem,ring stand,5.0,unique,paired,s_s_17_1.jpg,Student,$${counterbalance_group},,sub-79
Desktop or Laptop,Mac OS 10.15.7,Chrome 138.0.0.0,1440x900,1440x876,Temporal Distance Task,cb_05,6.0,temp_dist_trial,num_items,zn7si1,1.0,response,num_miss,3000.099999999999,3000.099999999999,3000.099999999999,3000.099999999999,3000.099999999999,3000.099999999999,1.0,0.0,0.0,num_miss_tag,Time Limit,screen,0.0,screen,temp_dist_trial,6.0,s_sh_11_1,student_shared,pencil case,5.0,competing,single,s_sh_11_1.jpg,Student,$${counterbalance_group},,sub-79
Desktop or Laptop,Mac OS 10.15.7,Chrome 138.0.0.0,1440x900,1440x876,Temporal Distance Task,cb_05,7.0,temp_dist_trial,num_items,zn7si1,1.0,response,1_ITEM,515.5999999999984,500.09999999999854,515.5999999999984,515.5999999999984,500.09999999999854,515.5999999999984,1.0,0.0,0.0,,Click Response,1_count,3.0,object-46,temp_dist_trial,7.0,s_a_07_1,student_art,yarn,5.0,unique,paired,s_a_07_1.jpg,Student,$${counterbalance_group},,sub-79
Desktop or Laptop,Mac OS 10.15.7,Chrome 138.0.0.0,1440x900,1440x876,Temporal Distance Task,cb_05,8.0,temp_dist_trial,num_items,zn7si1,1.0,response,2_ITEM,1114.0000000022335,1100.0999999999983,1114.0000000022335,1114.0000000022335,1100.0999999999983,1114.0000000022335,1.0,0.0,0.0,,Click Response,2_count,5.0,object-49,temp_dist_trial,8.0,s_a_13_1,student_art,violin,5.0,unique,paired,s_a_13_1.jpg,Student,$${counterbalance_group},,sub-79
Desktop or Laptop,Mac OS 10.15.7,Chrome 138.0.0.0,1440x900,1440x876,Temporal Distance Task,cb_05,8.0,temp_dist_trial,dist_items,qkpkxw,2.0,info,,3.0999999999985453,0.0,3.0999999999985453,3.0999999999985453,0.0,3.0999999999985453,1.0,0.0,0.0,,Slider,Slider,4.0,object-56,temp_dist_trial,8.0,s_a_13_1,student_art,violin,5.0,unique,paired,s_a_13_1.jpg,Student,$${counterbalance_group},,sub-79
Desktop or Laptop,Mac OS 10.15.7,Chrome 138.0.0.0,1440x900,1440x876,Temporal Distance Task,cb_05,8.0,temp_dist_trial,dist_items,qkpkxw,2.0,continue,,3698.0000000022333,3683.400000000001,3698.0000000022333,3698.0000000022333,3683.400000000001,3698.0000000022333,1.0,0.0,0.0,,Click To Continue,Next button,7.0,object-60,temp_dist_trial,8.0,s_a_13_1,student_art,violin,5.0,unique,paired,s_a_13_1.jpg,Student,$${counterbalance_group},,sub-79
Desktop or Laptop,Mac OS 10.15.7,Chrome 138.0.0.0,1440x900,1440x876,Temporal Distance Task,cb_05,8.0,temp_dist_trial,dist_items,qkpkxw,2.0,response,43,1183.4000000000015,3683.400000000001,3698.700000001489,1183.4000000000015,3683.400000000001,3698.700000001489,1.0,2515.300000001487,0.0,,Slider,Slider,4.0,object-56,temp_dist_trial,8.0,s_a_13_1,student_art,violin,5.0,unique,paired,s_a_13_1.jpg,Student,$${counterbalance_group},,sub-79
Desktop or Laptop,Mac OS 10.15.7,Chrome 138.0.0.0,1440x900,1440x876,Temporal Distance Task,cb_05,9.0,temp_dist_trial,num_items,zn7si1,1.0,response,num_miss,2999.8999999999933,2999.8999999999933,2999.8999999999933,2999.8999999999933,2999.8999999999933,2999.8999999999933,1.0,0.0,0.0,num_miss_tag,Time Limit,screen,0.0,screen,temp_dist_trial,9.0,s_sh_17_1,student_shared,wireless mouse,5.0,competing,paired,s_sh_17_1.jpg,Student,$${counterbalance_group},,sub-79
Desktop or Laptop,Mac OS 10.15.7,Chrome 138.0.0.0,1440x900,1440x876,Temporal Distance Task,cb_05,10.0,temp_dist_trial,num_items,zn7si1,1.0,response,1_ITEM,1665.0000000014913,1649.4000000000015,1665.0000000014913,1665.0000000014913,1649.4000000000015,1665.0000000014913,1.0,0.0,0.0,,Click Response,1_count,3.0,object-46,temp_dist_trial,10.0,s_s_05_1,student_stem,lab goggles,5.0,unique,single,s_s_05_1.jpg,Student,$${counterbalance_group},,sub-79
Desktop or Laptop,Mac OS 10.15.7,Chrome 138.0.0.0,1440x900,1440x876,Temporal Distance Task,cb_05,11.0,temp_dist_trial,num_items,zn7si1,1.0,response,2_ITEM,1264.5999999992493,1250.0,1264.5999999992493,1264.5999999992493,1250.0,1264.5999999992493,1.0,0.0,0.0,,Click Response,2_count,5.0,object-49,temp_dist_trial,11.0,s_s_16_1,student_stem,toolbox,5.0,unique,paired,s_s_16_1.jpg,Student,$${counterbalance_group},,sub-79
Desktop or Laptop,Mac OS 10.15.7,Chrome 138.0.0.0,1440x900,1440x876,Temporal Distance Task,cb_05,11.0,temp_dist_trial,dist_items,qkpkxw,2.0,info,,7.599999999249121,0.0,7.599999999249121,7.599999999249121,0.0,7.599999999249121,1.0,0.0,0.0,,Slider,Slider,4.0,object-56,temp_dist_trial,11.0,s_s_16_1,student_stem,toolbox,5.0,unique,paired,s_s_16_1.jpg,Student,$${counterbalance_group},,sub-79
Desktop or Laptop,Mac OS 10.15.7,Chrome 138.0.0.0,1440x900,1440x876,Temporal Distance Task,cb_05,11.0,temp_dist_trial,dist_items,qkpkxw,2.0,continue,,2214.8999999999937,2200.0,2214.8999999999937,2214.8999999999937,2200.0,2214.8999999999937,1.0,0.0,0.0,,Click To Continue,Next button,7.0,object-60,temp_dist_trial,11.0,s_s_16_1,student_stem,toolbox,5.0,unique,paired,s_s_16_1.jpg,Student,$${counterbalance_group},,sub-79
Desktop or Laptop,Mac OS 10.15.7,Chrome 138.0.0.0,1440x900,1440x876,Temporal Distance Task,cb_05,11.0,temp_dist_trial,dist_items,qkpkxw,2.0,response,56,1133.2999999999886,2200.0,2215.599999999249,1133.2999999999886,2200.0,2215.599999999249,1.0,1082.2999999992608,0.0,,Slider,Slider,4.0,object-56,temp_dist_trial,11.0,s_s_16_1,student_stem,toolbox,5.0,unique,paired,s_s_16_1.jpg,Student,$${counterbalance_group},,sub-79
Desktop or Laptop,Mac OS 10.15.7,Chrome 138.0.0.0,1440x900,1440x876,Temporal Distance Task,cb_05,12.0,temp_dist_trial,num_items,zn7si1,1.0,response,2_ITEM,1764.8999999999942,1750.0,1764.8999999999942,1764.8999999999942,1750.0,1764.8999999999942,1.0,0.0,0.0,,Click Response,2_count,5.0,object-49,temp_dist_trial,12.0,s_sh_24_1,student_shared,desk organizer,5.0,competing,single,s_sh_24_1.jpg,Student,$${counterbalance_group},,sub-79
Desktop or Laptop,Mac OS 10.15.7,Chrome 138.0.0.0,1440x900,1440x876,Temporal Distance Task,cb_05,12.0,temp_dist_trial,dist_items,qkpkxw,2.0,info,,7.500000001484295,0.0,7.500000001484295,7.500000001484295,0.0,7.500000001484295,1.0,0.0,0.0,,Slider,Slider,4.0,object-56,temp_dist_trial,12.0,s_sh_24_1,student_shared,desk organizer,5.0,competing,single,s_sh_24_1.jpg,Student,$${counterbalance_group},,sub-79
Desktop or Laptop,Mac OS 10.15.7,Chrome 138.0.0.0,1440x900,1440x876,Temporal Distance Task,cb_05,12.0,temp_dist_trial,dist_items,qkpkxw,2.0,continue,,4664.899999999994,4649.899999999994,4664.899999999994,4664.899999999994,4649.899999999994,4664.899999999994,1.0,0.0,0.0,,Click To Continue,Next button,7.0,object-60,temp_dist_trial,12.0,s_sh_24_1,student_shared,desk organizer,5.0,competing,single,s_sh_24_1.jpg,Student,$${counterbalance_group},,sub-79
Desktop or Laptop,Mac OS 10.15.7,Chrome 138.0.0.0,1440x900,1440x876,Temporal Distance Task,cb_05,12.0,temp_dist_trial,dist_items,qkpkxw,2.0,response,44,2600.0,4649.899999999994,4665.599999999249,2600.0,4649.899999999994,4665.599999999249,1.0,2065.599999999249,0.0,,Slider,Slider,4.0,object-56,temp_dist_trial,12.0,s_sh_24_1,student_shared,desk organizer,5.0,competing,single,s_sh_24_1.jpg,Student,$${counterbalance_group},,sub-79
Desktop or Laptop,Mac OS 10.15.7,Chrome 138.0.0.0,1440x900,1440x876,Temporal Distance Task,cb_05,13.0,temp_dist_trial,num_items,zn7si1,1.0,response,2_ITEM,1063.4000000022352,1050.1000000000058,1063.4000000022352,1063.4000000022352,1050.1000000000058,1063.4000000022352,1.0,0.0,0.0,,Click Response,2_count,5.0,object-49,temp_dist_trial,13.0,s_a_15_1,student_art,drum kit,5.0,unique,paired,s_a_15_1.jpg,Student,$${counterbalance_group},,sub-79
Desktop or Laptop,Mac OS 10.15.7,Chrome 138.0.0.0,1440x900,1440x876,Temporal Distance Task,cb_05,13.0,temp_dist_trial,dist_items,qkpkxw,2.0,info,,7.300000000745058,0.0,7.300000000745058,7.300000000745058,0.0,7.300000000745058,1.0,0.0,0.0,,Slider,Slider,4.0,object-56,temp_dist_trial,13.0,s_a_15_1,student_art,drum kit,5.0,unique,paired,s_a_15_1.jpg,Student,$${counterbalance_group},,sub-79
Desktop or Laptop,Mac OS 10.15.7,Chrome 138.0.0.0,1440x900,1440x876,Temporal Distance Task,cb_05,13.0,temp_dist_trial,dist_items,qkpkxw,2.0,continue,,2681.400000002235,2666.699999999997,2681.400000002235,2681.400000002235,2666.699999999997,2681.400000002235,1.0,0.0,0.0,,Click To Continue,Next button,7.0,object-60,temp_dist_trial,13.0,s_a_15_1,student_art,drum kit,5.0,unique,paired,s_a_15_1.jpg,Student,$${counterbalance_group},,sub-79
Desktop or Laptop,Mac OS 10.15.7,Chrome 138.0.0.0,1440x900,1440x876,Temporal Distance Task,cb_05,13.0,temp_dist_trial,dist_items,qkpkxw,2.0,response,59,1483.3000000000034,2666.699999999997,2681.900000002235,1483.3000000000034,2666.699999999997,2681.900000002235,1.0,1198.6000000022325,0.0,,Slider,Slider,4.0,object-56,temp_dist_trial,13.0,s_a_15_1,student_art,drum kit,5.0,unique,paired,s_a_15_1.jpg,Student,$${counterbalance_group},,sub-79
Desktop or Laptop,Mac OS 10.15.7,Chrome 138.0.0.0,1440x900,1440x876,Temporal Distance Task,cb_05,14.0,temp_dist_trial,num_items,zn7si1,1.0,response,2_ITEM,1013.600000000748,1000.0,1013.600000000748,1013.600000000748,1000.0,1013.600000000748,1.0,0.0,0.0,,Click Response,2_count,5.0,object-49,temp_dist_trial,14.0,s_a_06_1,student_art,pastels,5.0,unique,paired,s_a_06_1.jpg,Student,$${counterbalance_group},,sub-79
Desktop or Laptop,Mac OS 10.15.7,Chrome 138.0.0.0,1440x900,1440x876,Temporal Distance Task,cb_05,14.0,temp_dist_trial,dist_items,qkpkxw,2.0,info,,6.7000000022380855,0.0,6.7000000022380855,6.7000000022380855,0.0,6.7000000022380855,1.0,0.0,0.0,,Slider,Slider,4.0,object-56,temp_dist_trial,14.0,s_a_06_1,student_art,pastels,5.0,unique,paired,s_a_06_1.jpg,Student,$${counterbalance_group},,sub-79
Desktop or Laptop,Mac OS 10.15.7,Chrome 138.0.0.0,1440x900,1440x876,Temporal Distance Task,cb_05,14.0,temp_dist_trial,dist_items,qkpkxw,2.0,continue,,1964.900000001493,1950.0,1964.900000001493,1964.900000001493,1950.0,1964.900000001493,1.0,0.0,0.0,,Click To Continue,Next button,7.0,object-60,temp_dist_trial,14.0,s_a_06_1,student_art,pastels,5.0,unique,paired,s_a_06_1.jpg,Student,$${counterbalance_group},,sub-79
Desktop or Laptop,Mac OS 10.15.7,Chrome 138.0.0.0,1440x900,1440x876,Temporal Distance Task,cb_05,14.0,temp_dist_trial,dist_items,qkpkxw,2.0,response,42,1016.6999999999972,1950.0,1965.8000000000034,1016.6999999999972,1950.0,1965.8000000000034,1.0,949.1000000000058,0.0,,Slider,Slider,4.0,object-56,temp_dist_trial,14.0,s_a_06_1,student_art,pastels,5.0,unique,paired,s_a_06_1.jpg,Student,$${counterbalance_group},,sub-79
Desktop or Laptop,Mac OS 10.15.7,Chrome 138.0.0.0,1440x900,1440x876,Temporal Distance Task,cb_05,15.0,temp_dist_trial,num_items,zn7si1,1.0,response,2_ITEM,1363.400000001493,1349.1999999999969,1363.400000001493,1363.400000001493,1349.1999999999969,1363.400000001493,1.0,0.0,0.0,,Click Response,2_count,5.0,object-49,temp_dist_trial,15.0,s_sh_20_1,student_shared,tape,5.0,competing,paired,s_sh_20_1.jpg,Student,$${counterbalance_group},,sub-79
Desktop or Laptop,Mac OS 10.15.7,Chrome 138.0.0.0,1440x900,1440x876,Temporal Distance Task,cb_05,15.0,temp_dist_trial,dist_items,qkpkxw,2.0,info,,7.400000001493026,0.0,7.400000001493026,7.400000001493026,0.0,7.400000001493026,1.0,0.0,0.0,,Slider,Slider,4.0,object-56,temp_dist_trial,15.0,s_sh_20_1,student_shared,tape,5.0,competing,paired,s_sh_20_1.jpg,Student,$${counterbalance_group},,sub-79
Desktop or Laptop,Mac OS 10.15.7,Chrome 138.0.0.0,1440x900,1440x876,Temporal Distance Task,cb_05,15.0,temp_dist_trial,dist_items,qkpkxw,2.0,continue,,2213.800000000003,2199.9000000000087,2213.800000000003,2213.800000000003,2199.9000000000087,2213.800000000003,1.0,0.0,0.0,,Click To Continue,Next button,7.0,object-60,temp_dist_trial,15.0,s_sh_20_1,student_shared,tape,5.0,competing,paired,s_sh_20_1.jpg,Student,$${counterbalance_group},,sub-79
Desktop or Laptop,Mac OS 10.15.7,Chrome 138.0.0.0,1440x900,1440x876,Temporal Distance Task,cb_05,15.0,temp_dist_trial,dist_items,qkpkxw,2.0,response,59,916.6999999999972,2199.9000000000087,2214.4999999992583,916.6999999999972,2199.9000000000087,2214.4999999992583,1.0,1297.7999999992608,0.0,,Slider,Slider,4.0,object-56,temp_dist_trial,15.0,s_sh_20_1,student_shared,tape,5.0,competing,paired,s_sh_20_1.jpg,Student,$${counterbalance_group},,sub-79
Desktop or Laptop,Mac OS 10.15.7,Chrome 138.0.0.0,1440x900,1440x876,Temporal Distance Task,cb_05,16.0,temp_dist_trial,num_items,zn7si1,1.0,response,2_ITEM,931.0000000014844,916.6999999999972,931.0000000014844,931.0000000014844,916.6999999999972,931.0000000014844,1.0,0.0,0.0,,Click Response,2_count,5.0,object-49,temp_dist_trial,16.0,s_a_03_1,student_art,palette,5.0,unique,paired,s_a_03_1.jpg,Student,$${counterbalance_group},,sub-79
Desktop or Laptop,Mac OS 10.15.7,Chrome 138.0.0.0,1440x900,1440x876,Temporal Distance Task,cb_05,16.0,temp_dist_trial,dist_items,qkpkxw,2.0,info,,9.299999999260764,0.0,9.299999999260764,9.299999999260764,0.0,9.299999999260764,1.0,0.0,0.0,,Slider,Slider,4.0,object-56,temp_dist_trial,16.0,s_a_03_1,student_art,palette,5.0,unique,paired,s_a_03_1.jpg,Student,$${counterbalance_group},,sub-79
Desktop or Laptop,Mac OS 10.15.7,Chrome 138.0.0.0,1440x900,1440x876,Temporal Distance Task,cb_05,16.0,temp_dist_trial,dist_items,qkpkxw,2.0,continue,,1981.200000001496,1967.5,1981.200000001496,1981.200000001496,1967.5,1981.200000001496,1.0,0.0,0.0,,Click To Continue,Next button,7.0,object-60,temp_dist_trial,16.0,s_a_03_1,student_art,palette,5.0,unique,paired,s_a_03_1.jpg,Student,$${counterbalance_group},,sub-79
Desktop or Laptop,Mac OS 10.15.7,Chrome 138.0.0.0,1440x900,1440x876,Temporal Distance Task,cb_05,16.0,temp_dist_trial,dist_items,qkpkxw,2.0,response,28,734.3000000000029,1967.5,1981.6000000000056,734.3000000000029,1967.5,1981.6000000000056,1.0,1247.3000000000031,0.0,,Slider,Slider,4.0,object-56,temp_dist_trial,16.0,s_a_03_1,student_art,palette,5.0,unique,paired,s_a_03_1.jpg,Student,$${counterbalance_group},,sub-79
Desktop or Laptop,Mac OS 10.15.7,Chrome 138.0.0.0,1440x900,1440x876,Temporal Distance Task,cb_05,17.0,temp_dist_trial,num_items,zn7si1,1.0,response,2_ITEM,1731.200000001496,1715.900000000009,1731.200000001496,1731.200000001496,1715.900000000009,1731.200000001496,1.0,0.0,0.0,,Click Response,2_count,5.0,object-49,temp_dist_trial,17.0,s_sh_16_1,student_shared,stapler,5.0,competing,paired,s_sh_16_1.jpg,Student,$${counterbalance_group},,sub-79
Desktop or Laptop,Mac OS 10.15.7,Chrome 138.0.0.0,1440x900,1440x876,Temporal Distance Task,cb_05,17.0,temp_dist_trial,dist_items,qkpkxw,2.0,info,,8.500000002240995,0.0,8.500000002240995,8.500000002240995,0.0,8.500000002240995,1.0,0.0,0.0,,Slider,Slider,4.0,object-56,temp_dist_trial,17.0,s_sh_16_1,student_shared,stapler,5.0,competing,paired,s_sh_16_1.jpg,Student,$${counterbalance_group},,sub-79
Desktop or Laptop,Mac OS 10.15.7,Chrome 138.0.0.0,1440x900,1440x876,Temporal Distance Task,cb_05,17.0,temp_dist_trial,dist_items,qkpkxw,2.0,continue,,2498.1000000000063,2483.6000000000063,2498.1000000000063,2498.1000000000063,2483.6000000000063,2498.1000000000063,1.0,0.0,0.0,,Click To Continue,Next button,7.0,object-60,temp_dist_trial,17.0,s_sh_16_1,student_shared,stapler,5.0,competing,paired,s_sh_16_1.jpg,Student,$${counterbalance_group},,sub-79
Desktop or Laptop,Mac OS 10.15.7,Chrome 138.0.0.0,1440x900,1440x876,Temporal Distance Task,cb_05,17.0,temp_dist_trial,dist_items,qkpkxw,2.0,response,42,1333.6000000000058,2483.6000000000063,2498.700000001496,1333.6000000000058,2483.6000000000063,2498.700000001496,1.0,1165.1000000014901,0.0,,Slider,Slider,4.0,object-56,temp_dist_trial,17.0,s_sh_16_1,student_shared,stapler,5.0,competing,paired,s_sh_16_1.jpg,Student,$${counterbalance_group},,sub-79
Desktop or Laptop,Mac OS 10.15.7,Chrome 138.0.0.0,1440x900,1440x876,Temporal Distance Task,cb_05,18.0,temp_dist_trial,num_items,zn7si1,1.0,response,2_ITEM,1513.9000000022352,1499.8999999999942,1513.9000000022352,1513.9000000022352,1499.8999999999942,1513.9000000022352,1.0,0.0,0.0,,Click Response,2_count,5.0,object-49,temp_dist_trial,18.0,s_sh_14_1,student_shared,printer,5.0,competing,single,s_sh_14_1.jpg,Student,$${counterbalance_group},,sub-79
Desktop or Laptop,Mac OS 10.15.7,Chrome 138.0.0.0,1440x900,1440x876,Temporal Distance Task,cb_05,18.0,temp_dist_trial,dist_items,qkpkxw,2.0,info,,7.0,0.0,7.0,7.0,0.0,7.0,1.0,0.0,0.0,,Slider,Slider,4.0,object-56,temp_dist_trial,18.0,s_sh_14_1,student_shared,printer,5.0,competing,single,s_sh_14_1.jpg,Student,$${counterbalance_group},,sub-79
Desktop or Laptop,Mac OS 10.15.7,Chrome 138.0.0.0,1440x900,1440x876,Temporal Distance Task,cb_05,18.0,temp_dist_trial,dist_items,qkpkxw,2.0,continue,,2748.199999999255,2733.300000000003,2748.199999999255,2748.199999999255,2733.300000000003,2748.199999999255,1.0,0.0,0.0,,Click To Continue,Next button,7.0,object-60,temp_dist_trial,18.0,s_sh_14_1,student_shared,printer,5.0,competing,single,s_sh_14_1.jpg,Student,$${counterbalance_group},,sub-79
Desktop or Laptop,Mac OS 10.15.7,Chrome 138.0.0.0,1440x900,1440x876,Temporal Distance Task,cb_05,18.0,temp_dist_trial,dist_items,qkpkxw,2.0,response,44,1266.6999999999969,2733.300000000003,2750.0,1266.6999999999969,2733.300000000003,2750.0,1.0,1483.3000000000034,0.0,,Slider,Slider,4.0,object-56,temp_dist_trial,18.0,s_sh_14_1,student_shared,printer,5.0,competing,single,s_sh_14_1.jpg,Student,$${counterbalance_group},,sub-79
Desktop or Laptop,Mac OS 10.15.7,Chrome 138.0.0.0,1440x900,1440x876,Temporal Distance Task,cb_05,19.0,temp_dist_trial,num_items,zn7si1,1.0,response,2_ITEM,1064.3000000014872,1050.0,1064.3000000014872,1064.3000000014872,1050.0,1064.3000000014872,1.0,0.0,0.0,,Click Response,2_count,5.0,object-49,temp_dist_trial,19.0,s_sh_19_1,student_shared,portable plastic drawer,5.0,competing,paired,s_sh_19_1.jpg,Student,$${counterbalance_group},,sub-79
Desktop or Laptop,Mac OS 10.15.7,Chrome 138.0.0.0,1440x900,1440x876,Temporal Distance Task,cb_05,19.0,temp_dist_trial,dist_items,qkpkxw,2.0,info,,7.8000000014872075,0.0,7.8000000014872075,7.8000000014872075,0.0,7.8000000014872075,1.0,0.0,0.0,,Slider,Slider,4.0,object-56,temp_dist_trial,19.0,s_sh_19_1,student_shared,portable plastic drawer,5.0,competing,paired,s_sh_19_1.jpg,Student,$${counterbalance_group},,sub-79
Desktop or Laptop,Mac OS 10.15.7,Chrome 138.0.0.0,1440x900,1440x876,Temporal Distance Task,cb_05,19.0,temp_dist_trial,dist_items,qkpkxw,2.0,continue,,2814.3000000014868,2799.8999999999933,2814.3000000014868,2814.3000000014868,2799.8999999999933,2814.3000000014868,1.0,0.0,0.0,,Click To Continue,Next button,7.0,object-60,temp_dist_trial,19.0,s_sh_19_1,student_shared,portable plastic drawer,5.0,competing,paired,s_sh_19_1.jpg,Student,$${counterbalance_group},,sub-79
Desktop or Laptop,Mac OS 10.15.7,Chrome 138.0.0.0,1440x900,1440x876,Temporal Distance Task,cb_05,19.0,temp_dist_trial,dist_items,qkpkxw,2.0,response,61,1266.6999999999969,2799.8999999999933,2814.8999999992516,1266.6999999999969,2799.8999999999933,2814.8999999992516,1.0,1548.1999999992554,0.0,,Slider,Slider,4.0,object-56,temp_dist_trial,19.0,s_sh_19_1,student_shared,portable plastic drawer,5.0,competing,paired,s_sh_19_1.jpg,Student,$${counterbalance_group},,sub-79
Desktop or Laptop,Mac OS 10.15.7,Chrome 138.0.0.0,1440x900,1440x876,Temporal Distance Task,cb_05,20.0,temp_dist_trial,num_items,zn7si1,1.0,response,1_ITEM,2229.9999999992583,2216.800000000003,2229.9999999992583,2229.9999999992583,2216.800000000003,2229.9999999992583,1.0,0.0,0.0,,Click Response,1_count,3.0,object-46,temp_dist_trial,20.0,s_s_04_1,student_stem,bunsen burner,5.0,unique,single,s_s_04_1.jpg,Student,$${counterbalance_group},,sub-79
Desktop or Laptop,Mac OS 10.15.7,Chrome 138.0.0.0,1440x900,1440x876,Temporal Distance Task,cb_05,21.0,temp_dist_trial,num_items,zn7si1,1.0,response,2_ITEM,1064.4000000007507,1050.1000000000058,1064.4000000007507,1064.4000000007507,1050.1000000000058,1064.4000000007507,1.0,0.0,0.0,,Click Response,2_count,5.0,object-49,temp_dist_trial,21.0,s_s_14_1,student_stem,funnel,5.0,unique,paired,s_s_14_1.jpg,Student,$${counterbalance_group},,sub-79
Desktop or Laptop,Mac OS 10.15.7,Chrome 138.0.0.0,1440x900,1440x876,Temporal Distance Task,cb_05,21.0,temp_dist_trial,dist_items,qkpkxw,2.0,info,,6.699999999254942,0.0,6.699999999254942,6.699999999254942,0.0,6.699999999254942,1.0,0.0,0.0,,Slider,Slider,4.0,object-56,temp_dist_trial,21.0,s_s_14_1,student_stem,funnel,5.0,unique,paired,s_s_14_1.jpg,Student,$${counterbalance_group},,sub-79
Desktop or Laptop,Mac OS 10.15.7,Chrome 138.0.0.0,1440x900,1440x876,Temporal Distance Task,cb_05,21.0,temp_dist_trial,dist_items,qkpkxw,2.0,continue,,2298.900000002235,2283.300000000003,2298.900000002235,2298.900000002235,2283.300000000003,2298.900000002235,1.0,0.0,0.0,,Click To Continue,Next button,7.0,object-60,temp_dist_trial,21.0,s_s_14_1,student_stem,funnel,5.0,unique,paired,s_s_14_1.jpg,Student,$${counterbalance_group},,sub-79
Desktop or Laptop,Mac OS 10.15.7,Chrome 138.0.0.0,1440x900,1440x876,Temporal Distance Task,cb_05,21.0,temp_dist_trial,dist_items,qkpkxw,2.0,response,49,1266.6000000000058,2283.300000000003,2300.0,1266.6000000000058,2283.300000000003,2300.0,1.0,1033.3999999999942,0.0,,Slider,Slider,4.0,object-56,temp_dist_trial,21.0,s_s_14_1,student_stem,funnel,5.0,unique,paired,s_s_14_1.jpg,Student,$${counterbalance_group},,sub-79
Desktop or Laptop,Mac OS 10.15.7,Chrome 138.0.0.0,1440x900,1440x876,Temporal Distance Task,cb_05,22.0,temp_dist_trial,num_items,zn7si1,1.0,response,1_ITEM,1564.8000000014872,1549.8999999999942,1564.8000000014872,1564.8000000014872,1549.8999999999942,1564.8000000014872,1.0,0.0,0.0,,Click Response,1_count,3.0,object-46,temp_dist_trial,22.0,s_sh_15_1,student_shared,usb drive,5.0,competing,single,s_sh_15_1.jpg,Student,$${counterbalance_group},,sub-79
Desktop or Laptop,Mac OS 10.15.7,Chrome 138.0.0.0,1440x900,1440x876,Temporal Distance Task,cb_05,23.0,temp_dist_trial,num_items,zn7si1,1.0,response,1_ITEM,1914.3000000014872,1900.0,1914.3000000014872,1914.3000000014872,1900.0,1914.3000000014872,1.0,0.0,0.0,,Click Response,1_count,3.0,object-46,temp_dist_trial,23.0,s_sh_10_1,student_shared,scissors,5.0,competing,single,s_sh_10_1.jpg,Student,$${counterbalance_group},,sub-79
Desktop or Laptop,Mac OS 10.15.7,Chrome 138.0.0.0,1440x900,1440x876,Temporal Distance Task,cb_05,24.0,temp_dist_trial,num_items,zn7si1,1.0,response,1_ITEM,1715.100000000748,1700.0,1715.100000000748,1715.100000000748,1700.0,1715.100000000748,1.0,0.0,0.0,,Click Response,1_count,3.0,object-46,temp_dist_trial,24.0,s_s_12_1,student_stem,robotic arm,5.0,unique,single,s_s_12_1.jpg,Student,$${counterbalance_group},,sub-79
Desktop or Laptop,Mac OS 10.15.7,Chrome 138.0.0.0,1440x900,1440x876,Temporal Distance Task,cb_05,25.0,temp_dist_trial,num_items,zn7si1,1.0,response,2_ITEM,1114.900000001493,1100.0,1114.900000001493,1114.900000001493,1100.0,1114.900000001493,1.0,0.0,0.0,,Click Response,2_count,5.0,object-49,temp_dist_trial,25.0,s_sh_23_1,student_shared,ballpoint pen,5.0,competing,paired,s_sh_23_1.jpg,Student,$${counterbalance_group},,sub-79
Desktop or Laptop,Mac OS 10.15.7,Chrome 138.0.0.0,1440x900,1440x876,Temporal Distance Task,cb_05,25.0,temp_dist_trial,dist_items,qkpkxw,2.0,info,,6.8000000000029095,0.0,6.8000000000029095,6.8000000000029095,0.0,6.8000000000029095,1.0,0.0,0.0,,Slider,Slider,4.0,object-56,temp_dist_trial,25.0,s_sh_23_1,student_shared,ballpoint pen,5.0,competing,paired,s_sh_23_1.jpg,Student,$${counterbalance_group},,sub-79
Desktop or Laptop,Mac OS 10.15.7,Chrome 138.0.0.0,1440x900,1440x876,Temporal Distance Task,cb_05,25.0,temp_dist_trial,dist_items,qkpkxw,2.0,continue,,1897.900000001493,1883.400000000009,1897.900000001493,1897.900000001493,1883.400000000009,1897.900000001493,1.0,0.0,0.0,,Click To Continue,Next button,7.0,object-60,temp_dist_trial,25.0,s_sh_23_1,student_shared,ballpoint pen,5.0,competing,paired,s_sh_23_1.jpg,Student,$${counterbalance_group},,sub-79
Desktop or Laptop,Mac OS 10.15.7,Chrome 138.0.0.0,1440x900,1440x876,Temporal Distance Task,cb_05,25.0,temp_dist_trial,dist_items,qkpkxw,2.0,response,76,750.0,1883.400000000009,1898.4999999992572,750.0,1883.400000000009,1898.4999999992572,1.0,1148.4999999992579,0.0,,Slider,Slider,4.0,object-56,temp_dist_trial,25.0,s_sh_23_1,student_shared,ballpoint pen,5.0,competing,paired,s_sh_23_1.jpg,Student,$${counterbalance_group},,sub-79
Desktop or Laptop,Mac OS 10.15.7,Chrome 138.0.0.0,1440x900,1440x876,Temporal Distance Task,cb_05,26.0,temp_dist_trial,num_items,zn7si1,1.0,response,1_ITEM,1446.3999999999942,1433.2999999999884,1446.3999999999942,1446.3999999999942,1433.2999999999884,1446.3999999999942,1.0,0.0,0.0,,Click Response,1_count,3.0,object-46,temp_dist_trial,26.0,s_sh_06_1,student_shared,clipboard,5.0,competing,single,s_sh_06_1.jpg,Student,$${counterbalance_group},,sub-79
Desktop or Laptop,Mac OS 10.15.7,Chrome 138.0.0.0,1440x900,1440x876,Temporal Distance Task,cb_05,27.0,temp_dist_trial,num_items,zn7si1,1.0,response,1_ITEM,2481.1000000000063,2466.700000000012,2481.1000000000063,2481.1000000000063,2466.700000000012,2481.1000000000063,1.0,0.0,0.0,,Click Response,1_count,3.0,object-46,temp_dist_trial,27.0,s_s_18_1,student_stem,brain model,5.0,unique,single,s_s_18_1.jpg,Student,$${counterbalance_group},,sub-79
Desktop or Laptop,Mac OS 10.15.7,Chrome 138.0.0.0,1440x900,1440x876,Temporal Distance Task,cb_05,28.0,temp_dist_trial,num_items,zn7si1,1.0,response,2_ITEM,1130.3000000007448,1116.6999999999969,1130.3000000007448,1130.3000000007448,1116.6999999999969,1130.3000000007448,1.0,0.0,0.0,,Click Response,2_count,5.0,object-49,temp_dist_trial,28.0,s_sh_08_1,student_shared,post-its,5.0,competing,paired,s_sh_08_1.jpg,Student,$${counterbalance_group},,sub-79
Desktop or Laptop,Mac OS 10.15.7,Chrome 138.0.0.0,1440x900,1440x876,Temporal Distance Task,cb_05,28.0,temp_dist_trial,dist_items,qkpkxw,2.0,info,,7.300000000002909,0.0,7.300000000002909,7.300000000002909,0.0,7.300000000002909,1.0,0.0,0.0,,Slider,Slider,4.0,object-56,temp_dist_trial,28.0,s_sh_08_1,student_shared,post-its,5.0,competing,paired,s_sh_08_1.jpg,Student,$${counterbalance_group},,sub-79
Desktop or Laptop,Mac OS 10.15.7,Chrome 138.0.0.0,1440x900,1440x876,Temporal Distance Task,cb_05,28.0,temp_dist_trial,dist_items,qkpkxw,2.0,continue,,1830.4999999992572,1816.6000000000056,1830.4999999992572,1830.4999999992572,1816.6000000000056,1830.4999999992572,1.0,0.0,0.0,,Click To Continue,Next button,7.0,object-60,temp_dist_trial,28.0,s_sh_08_1,student_shared,post-its,5.0,competing,paired,s_sh_08_1.jpg,Student,$${counterbalance_group},,sub-79
Desktop or Laptop,Mac OS 10.15.7,Chrome 138.0.0.0,1440x900,1440x876,Temporal Distance Task,cb_05,28.0,temp_dist_trial,dist_items,qkpkxw,2.0,response,58,733.4000000000087,1816.6000000000056,1830.8000000000034,733.4000000000087,1816.6000000000056,1830.8000000000034,1.0,1097.3999999999942,0.0,,Slider,Slider,4.0,object-56,temp_dist_trial,28.0,s_sh_08_1,student_shared,post-its,5.0,competing,paired,s_sh_08_1.jpg,Student,$${counterbalance_group},,sub-79
Desktop or Laptop,Mac OS 10.15.7,Chrome 138.0.0.0,1440x900,1440x876,Temporal Distance Task,cb_05,29.0,temp_dist_trial,num_items,zn7si1,1.0,response,1_ITEM,2612.899999999252,2600.0,2612.899999999252,2612.899999999252,2600.0,2612.899999999252,1.0,0.0,0.0,,Click Response,1_count,3.0,object-46,temp_dist_trial,29.0,s_a_20_1,student_art,pin cushion,5.0,unique,single,s_a_20_1.jpg,Student,$${counterbalance_group},,sub-79
Desktop or Laptop,Mac OS 10.15.7,Chrome 138.0.0.0,1440x900,1440x876,Temporal Distance Task,cb_05,30.0,temp_dist_trial,num_items,zn7si1,1.0,response,1_ITEM,1113.8000000014872,1100.0,1113.8000000014872,1113.8000000014872,1100.0,1113.8000000014872,1.0,0.0,0.0,,Click Response,1_count,3.0,object-46,temp_dist_trial,30.0,s_s_13_1,student_stem,telescope,5.0,unique,paired,s_s_13_1.jpg,Student,$${counterbalance_group},,sub-79
Desktop or Laptop,Mac OS 10.15.7,Chrome 138.0.0.0,1440x900,1440x876,Temporal Distance Task,cb_05,31.0,temp_dist_trial,num_items,zn7si1,1.0,response,1_ITEM,1347.6999999999969,1332.9000000000087,1347.6999999999969,1347.6999999999969,1332.9000000000087,1347.6999999999969,1.0,0.0,0.0,,Click Response,1_count,3.0,object-46,temp_dist_trial,31.0,s_sh_13_1,student_shared,index cards,5.0,competing,single,s_sh_13_1.jpg,Student,$${counterbalance_group},,sub-79
Desktop or Laptop,Mac OS 10.15.7,Chrome 138.0.0.0,1440x900,1440x876,Temporal Distance Task,cb_05,32.0,temp_dist_trial,num_items,zn7si1,1.0,response,2_ITEM,1264.6000000007334,1249.8999999999942,1264.6000000007334,1264.6000000007334,1249.8999999999942,1264.6000000007334,1.0,0.0,0.0,,Click Response,2_count,5.0,object-49,temp_dist_trial,32.0,s_sh_05_1,student_shared,laptop,5.0,competing,paired,s_sh_05_1.jpg,Student,$${counterbalance_group},,sub-79
Desktop or Laptop,Mac OS 10.15.7,Chrome 138.0.0.0,1440x900,1440x876,Temporal Distance Task,cb_05,32.0,temp_dist_trial,dist_items,qkpkxw,2.0,info,,8.600000000733418,0.0,8.600000000733418,8.600000000733418,0.0,8.600000000733418,1.0,0.0,0.0,,Slider,Slider,4.0,object-56,temp_dist_trial,32.0,s_sh_05_1,student_shared,laptop,5.0,competing,paired,s_sh_05_1.jpg,Student,$${counterbalance_group},,sub-79
Desktop or Laptop,Mac OS 10.15.7,Chrome 138.0.0.0,1440x900,1440x876,Temporal Distance Task,cb_05,32.0,temp_dist_trial,dist_items,qkpkxw,2.0,continue,,1731.6000000007336,1716.5999999999767,1731.6000000007336,1731.6000000007336,1716.5999999999767,1731.6000000007336,1.0,0.0,0.0,,Click To Continue,Next button,7.0,object-60,temp_dist_trial,32.0,s_sh_05_1,student_shared,laptop,5.0,competing,paired,s_sh_05_1.jpg,Student,$${counterbalance_group},,sub-79
Desktop or Laptop,Mac OS 10.15.7,Chrome 138.0.0.0,1440x900,1440x876,Temporal Distance Task,cb_05,32.0,temp_dist_trial,dist_items,qkpkxw,2.0,response,68,666.5999999999767,1716.5999999999767,1732.1000000007336,666.5999999999767,1716.5999999999767,1732.1000000007336,1.0,1065.5000000007567,0.0,,Slider,Slider,4.0,object-56,temp_dist_trial,32.0,s_sh_05_1,student_shared,laptop,5.0,competing,paired,s_sh_05_1.jpg,Student,$${counterbalance_group},,sub-79
Desktop or Laptop,Mac OS 10.15.7,Chrome 138.0.0.0,1440x900,1440x876,Temporal Distance Task,cb_05,33.0,temp_dist_trial,num_items,zn7si1,1.0,response,2_ITEM,2581.100000002247,2566.6000000000063,2581.100000002247,2581.100000002247,2566.6000000000063,2581.100000002247,1.0,0.0,0.0,,Click Response,2_count,5.0,object-49,temp_dist_trial,33.0,s_sh_21_1,student_shared,file holder,5.0,competing,paired,s_sh_21_1.jpg,Student,$${counterbalance_group},,sub-79
Desktop or Laptop,Mac OS 10.15.7,Chrome 138.0.0.0,1440x900,1440x876,Temporal Distance Task,cb_05,33.0,temp_dist_trial,dist_items,qkpkxw,2.0,info,,8.600000000005819,0.0,8.600000000005819,8.600000000005819,0.0,8.600000000005819,1.0,0.0,0.0,,Slider,Slider,4.0,object-56,temp_dist_trial,33.0,s_sh_21_1,student_shared,file holder,5.0,competing,paired,s_sh_21_1.jpg,Student,$${counterbalance_group},,sub-79
Desktop or Laptop,Mac OS 10.15.7,Chrome 138.0.0.0,1440x900,1440x876,Temporal Distance Task,cb_05,33.0,temp_dist_trial,dist_items,qkpkxw,2.0,continue,,2516.000000002241,2500.6000000000063,2516.000000002241,2516.000000002241,2500.6000000000063,2516.000000002241,1.0,0.0,0.0,,Click To Continue,Next button,7.0,object-60,temp_dist_trial,33.0,s_sh_21_1,student_shared,file holder,5.0,competing,paired,s_sh_21_1.jpg,Student,$${counterbalance_group},,sub-79
Desktop or Laptop,Mac OS 10.15.7,Chrome 138.0.0.0,1440x900,1440x876,Temporal Distance Task,cb_05,33.0,temp_dist_trial,dist_items,qkpkxw,2.0,response,43,1433.8999999999942,2500.6000000000063,2517.300000000017,1433.8999999999942,2500.6000000000063,2517.300000000017,1.0,1083.4000000000233,0.0,,Slider,Slider,4.0,object-56,temp_dist_trial,33.0,s_sh_21_1,student_shared,file holder,5.0,competing,paired,s_sh_21_1.jpg,Student,$${counterbalance_group},,sub-79
Desktop or Laptop,Mac OS 10.15.7,Chrome 138.0.0.0,1440x900,1440x876,Temporal Distance Task,cb_05,34.0,temp_dist_trial,num_items,zn7si1,1.0,response,1_ITEM,1847.4000000022352,1833.2999999999884,1847.4000000022352,1847.4000000022352,1833.2999999999884,1847.4000000022352,1.0,0.0,0.0,,Click Response,1_count,3.0,object-46,temp_dist_trial,34.0,s_sh_03_1,student_shared,highlighter,5.0,competing,paired,s_sh_03_1.jpg,Student,$${counterbalance_group},,sub-79
Desktop or Laptop,Mac OS 10.15.7,Chrome 138.0.0.0,1440x900,1440x876,Temporal Distance Task,cb_05,35.0,temp_dist_trial,num_items,zn7si1,1.0,response,2_ITEM,1129.6000000022468,1116.6000000000058,1129.6000000022468,1129.6000000022468,1116.6000000000058,1129.6000000022468,1.0,0.0,0.0,,Click Response,2_count,5.0,object-49,temp_dist_trial,35.0,s_s_20_1,student_stem,dna model,5.0,unique,paired,s_s_20_1.jpg,Student,$${counterbalance_group},,sub-79
Desktop or Laptop,Mac OS 10.15.7,Chrome 138.0.0.0,1440x900,1440x876,Temporal Distance Task,cb_05,35.0,temp_dist_trial,dist_items,qkpkxw,2.0,info,,6.199999999254942,0.0,6.199999999254942,6.199999999254942,0.0,6.199999999254942,1.0,0.0,0.0,,Slider,Slider,4.0,object-56,temp_dist_trial,35.0,s_s_20_1,student_stem,dna model,5.0,unique,paired,s_s_20_1.jpg,Student,$${counterbalance_group},,sub-79
Desktop or Laptop,Mac OS 10.15.7,Chrome 138.0.0.0,1440x900,1440x876,Temporal Distance Task,cb_05,35.0,temp_dist_trial,dist_items,qkpkxw,2.0,continue,,2297.900000002235,2282.7999999999884,2297.900000002235,2297.900000002235,2282.7999999999884,2297.900000002235,1.0,0.0,0.0,,Click To Continue,Next button,7.0,object-60,temp_dist_trial,35.0,s_s_20_1,student_stem,dna model,5.0,unique,paired,s_s_20_1.jpg,Student,$${counterbalance_group},,sub-79
Desktop or Laptop,Mac OS 10.15.7,Chrome 138.0.0.0,1440x900,1440x876,Temporal Distance Task,cb_05,35.0,temp_dist_trial,dist_items,qkpkxw,2.0,response,43,666.6000000000057,2282.7999999999884,2298.400000002235,666.6000000000057,2282.7999999999884,2298.400000002235,1.0,1631.8000000022296,0.0,,Slider,Slider,4.0,object-56,temp_dist_trial,35.0,s_s_20_1,student_stem,dna model,5.0,unique,paired,s_s_20_1.jpg,Student,$${counterbalance_group},,sub-79
Desktop or Laptop,Mac OS 10.15.7,Chrome 138.0.0.0,1440x900,1440x876,Temporal Distance Task,cb_05,36.0,temp_dist_trial,num_items,zn7si1,1.0,response,1_ITEM,1347.8000000015018,1333.8000000000175,1347.8000000015018,1347.8000000015018,1333.8000000000175,1347.8000000015018,1.0,0.0,0.0,,Click Response,1_count,3.0,object-46,temp_dist_trial,36.0,s_a_10_1,student_art,tripod,5.0,unique,single,s_a_10_1.jpg,Student,$${counterbalance_group},,sub-79
Desktop or Laptop,Mac OS 10.15.7,Chrome 138.0.0.0,1440x900,1440x876,Temporal Distance Task,cb_05,37.0,temp_dist_trial,num_items,zn7si1,1.0,response,1_ITEM,1997.8999999999944,1983.2999999999884,1997.8999999999944,1997.8999999999944,1983.2999999999884,1997.8999999999944,1.0,0.0,0.0,,Click Response,1_count,3.0,object-46,temp_dist_trial,37.0,s_a_09_1,student_art,picture frame,5.0,unique,paired,s_a_09_1.jpg,Student,$${counterbalance_group},,sub-79
Desktop or Laptop,Mac OS 10.15.7,Chrome 138.0.0.0,1440x900,1440x876,Temporal Distance Task,cb_05,38.0,temp_dist_trial,num_items,zn7si1,1.0,response,1_ITEM,1998.3000000007446,1982.7000000000119,1998.3000000007446,1998.3000000007446,1982.7000000000119,1998.3000000007446,1.0,0.0,0.0,,Click Response,1_count,3.0,object-46,temp_dist_trial,38.0,s_a_11_1,student_art,clapperboard,5.0,unique,single,s_a_11_1.jpg,Student,$${counterbalance_group},,sub-79
Desktop or Laptop,Mac OS 10.15.7,Chrome 138.0.0.0,1440x900,1440x876,Temporal Distance Task,cb_05,39.0,temp_dist_trial,num_items,zn7si1,1.0,response,2_ITEM,1147.7999999999886,1133.2999999999886,1147.7999999999886,1147.7999999999886,1133.2999999999886,1147.7999999999886,1.0,0.0,0.0,,Click Response,2_count,5.0,object-49,temp_dist_trial,39.0,s_sh_04_1,student_shared,laptop stand,5.0,competing,paired,s_sh_04_1.jpg,Student,$${counterbalance_group},,sub-79
Desktop or Laptop,Mac OS 10.15.7,Chrome 138.0.0.0,1440x900,1440x876,Temporal Distance Task,cb_05,39.0,temp_dist_trial,dist_items,qkpkxw,2.0,info,,6.599999999249121,0.0,6.599999999249121,6.599999999249121,0.0,6.599999999249121,1.0,0.0,0.0,,Slider,Slider,4.0,object-56,temp_dist_trial,39.0,s_sh_04_1,student_shared,laptop stand,5.0,competing,paired,s_sh_04_1.jpg,Student,$${counterbalance_group},,sub-79
Desktop or Laptop,Mac OS 10.15.7,Chrome 138.0.0.0,1440x900,1440x876,Temporal Distance Task,cb_05,39.0,temp_dist_trial,dist_items,qkpkxw,2.0,continue,,1881.5000000014843,1866.6999999999825,1881.5000000014843,1881.5000000014843,1866.6999999999825,1881.5000000014843,1.0,0.0,0.0,,Click To Continue,Next button,7.0,object-60,temp_dist_trial,39.0,s_sh_04_1,student_shared,laptop stand,5.0,competing,paired,s_sh_04_1.jpg,Student,$${counterbalance_group},,sub-79
Desktop or Laptop,Mac OS 10.15.7,Chrome 138.0.0.0,1440x900,1440x876,Temporal Distance Task,cb_05,39.0,temp_dist_trial,dist_items,qkpkxw,2.0,response,60,999.8999999999942,1866.6999999999825,1882.2000000007392,999.8999999999942,1866.6999999999825,1882.2000000007392,1.0,882.3000000007451,0.0,,Slider,Slider,4.0,object-56,temp_dist_trial,39.0,s_sh_04_1,student_shared,laptop stand,5.0,competing,paired,s_sh_04_1.jpg,Student,$${counterbalance_group},,sub-79
Desktop or Laptop,Mac OS 10.15.7,Chrome 138.0.0.0,1440x900,1440x876,Temporal Distance Task,cb_05,40.0,temp_dist_trial,num_items,zn7si1,1.0,response,1_ITEM,1714.6000000022468,1699.9000000000233,1714.6000000022468,1714.6000000022468,1699.9000000000233,1714.6000000022468,1.0,0.0,0.0,,Click Response,1_count,3.0,object-46,temp_dist_trial,40.0,s_sh_09_1,student_shared,paper clips,5.0,competing,paired,s_sh_09_1.jpg,Student,$${counterbalance_group},,sub-79
Desktop or Laptop,Mac OS 10.15.7,Chrome 138.0.0.0,1440x900,1440x876,Temporal Distance Task,cb_05,41.0,temp_dist_trial,num_items,zn7si1,1.0,response,2_ITEM,1531.5999999999767,1515.7999999999884,1531.5999999999767,1531.5999999999767,1515.7999999999884,1531.5999999999767,1.0,0.0,0.0,,Click Response,2_count,5.0,object-49,temp_dist_trial,41.0,s_sh_22_1,student_shared,hole puncher,5.0,competing,paired,s_sh_22_1.jpg,Student,$${counterbalance_group},,sub-79
Desktop or Laptop,Mac OS 10.15.7,Chrome 138.0.0.0,1440x900,1440x876,Temporal Distance Task,cb_05,41.0,temp_dist_trial,dist_items,qkpkxw,2.0,info,,7.500000002240995,0.0,7.500000002240995,7.500000002240995,0.0,7.500000002240995,1.0,0.0,0.0,,Slider,Slider,4.0,object-56,temp_dist_trial,41.0,s_sh_22_1,student_shared,hole puncher,5.0,competing,paired,s_sh_22_1.jpg,Student,$${counterbalance_group},,sub-79
Desktop or Laptop,Mac OS 10.15.7,Chrome 138.0.0.0,1440x900,1440x876,Temporal Distance Task,cb_05,41.0,temp_dist_trial,dist_items,qkpkxw,2.0,continue,,2231.400000000751,2216.6000000000063,2231.400000000751,2231.400000000751,2216.6000000000063,2231.400000000751,1.0,0.0,0.0,,Click To Continue,Next button,7.0,object-60,temp_dist_trial,41.0,s_sh_22_1,student_shared,hole puncher,5.0,competing,paired,s_sh_22_1.jpg,Student,$${counterbalance_group},,sub-79
Desktop or Laptop,Mac OS 10.15.7,Chrome 138.0.0.0,1440x900,1440x876,Temporal Distance Task,cb_05,41.0,temp_dist_trial,dist_items,qkpkxw,2.0,response,55,1316.7000000000114,2216.6000000000063,2232.1000000000063,1316.7000000000114,2216.6000000000063,2232.1000000000063,1.0,915.3999999999942,0.0,,Slider,Slider,4.0,object-56,temp_dist_trial,41.0,s_sh_22_1,student_shared,hole puncher,5.0,competing,paired,s_sh_22_1.jpg,Student,$${counterbalance_group},,sub-79
Desktop or Laptop,Mac OS 10.15.7,Chrome 138.0.0.0,1440x900,1440x876,Temporal Distance Task,cb_05,42.0,temp_dist_trial,num_items,zn7si1,1.0,response,2_ITEM,1098.4000000022352,1083.3999999999942,1098.4000000022352,1098.4000000022352,1083.3999999999942,1098.4000000022352,1.0,0.0,0.0,,Click Response,2_count,5.0,object-49,temp_dist_trial,42.0,s_sh_01_1,student_shared,notebook,5.0,competing,paired,s_sh_01_1.jpg,Student,$${counterbalance_group},,sub-79
Desktop or Laptop,Mac OS 10.15.7,Chrome 138.0.0.0,1440x900,1440x876,Temporal Distance Task,cb_05,42.0,temp_dist_trial,dist_items,qkpkxw,2.0,info,,9.000000002240991,0.0,9.000000002240991,9.000000002240991,0.0,9.000000002240991,1.0,0.0,0.0,,Slider,Slider,4.0,object-56,temp_dist_trial,42.0,s_sh_01_1,student_shared,notebook,5.0,competing,paired,s_sh_01_1.jpg,Student,$${counterbalance_group},,sub-79
Desktop or Laptop,Mac OS 10.15.7,Chrome 138.0.0.0,1440x900,1440x876,Temporal Distance Task,cb_05,42.0,temp_dist_trial,dist_items,qkpkxw,2.0,continue,,1664.6000000000058,1650.0,1664.6000000000058,1664.6000000000058,1650.0,1664.6000000000058,1.0,0.0,0.0,,Click To Continue,Next button,7.0,object-60,temp_dist_trial,42.0,s_sh_01_1,student_shared,notebook,5.0,competing,paired,s_sh_01_1.jpg,Student,$${counterbalance_group},,sub-79
Desktop or Laptop,Mac OS 10.15.7,Chrome 138.0.0.0,1440x900,1440x876,Temporal Distance Task,cb_05,42.0,temp_dist_trial,dist_items,qkpkxw,2.0,response,78,716.7000000000116,1650.0,1665.200000001496,716.7000000000116,1650.0,1665.200000001496,1.0,948.5000000014844,0.0,,Slider,Slider,4.0,object-56,temp_dist_trial,42.0,s_sh_01_1,student_shared,notebook,5.0,competing,paired,s_sh_01_1.jpg,Student,$${counterbalance_group},,sub-79
Desktop or Laptop,Mac OS 10.15.7,Chrome 138.0.0.0,1440x900,1440x876,Temporal Distance Task,cb_05,43.0,temp_dist_trial,num_items,zn7si1,1.0,response,1_ITEM,1164.700000001496,1149.8999999999942,1164.700000001496,1164.700000001496,1149.8999999999942,1164.700000001496,1.0,0.0,0.0,,Click Response,1_count,3.0,object-46,temp_dist_trial,43.0,s_s_11_1,student_stem,scientific scale,5.0,unique,paired,s_s_11_1.jpg,Student,$${counterbalance_group},,sub-79
Desktop or Laptop,Mac OS 10.15.7,Chrome 138.0.0.0,1440x900,1440x876,Temporal Distance Task,cb_05,44.0,temp_dist_trial,num_items,zn7si1,1.0,response,2_ITEM,1431.1000000022468,1416.7000000000116,1431.1000000022468,1431.1000000022468,1416.7000000000116,1431.1000000022468,1.0,0.0,0.0,,Click Response,2_count,5.0,object-49,temp_dist_trial,44.0,s_sh_07_1,student_shared,ruler,5.0,competing,paired,s_sh_07_1.jpg,Student,$${counterbalance_group},,sub-79
Desktop or Laptop,Mac OS 10.15.7,Chrome 138.0.0.0,1440x900,1440x876,Temporal Distance Task,cb_05,44.0,temp_dist_trial,dist_items,qkpkxw,2.0,info,,8.699999999254942,0.0,8.699999999254942,8.699999999254942,0.0,8.699999999254942,1.0,0.0,0.0,,Slider,Slider,4.0,object-56,temp_dist_trial,44.0,s_sh_07_1,student_shared,ruler,5.0,competing,paired,s_sh_07_1.jpg,Student,$${counterbalance_group},,sub-79
Desktop or Laptop,Mac OS 10.15.7,Chrome 138.0.0.0,1440x900,1440x876,Temporal Distance Task,cb_05,44.0,temp_dist_trial,dist_items,qkpkxw,2.0,continue,,1963.0,1950.0,1963.0,1963.0,1950.0,1963.0,1.0,0.0,0.0,,Click To Continue,Next button,7.0,object-60,temp_dist_trial,44.0,s_sh_07_1,student_shared,ruler,5.0,competing,paired,s_sh_07_1.jpg,Student,$${counterbalance_group},,sub-79
Desktop or Laptop,Mac OS 10.15.7,Chrome 138.0.0.0,1440x900,1440x876,Temporal Distance Task,cb_05,44.0,temp_dist_trial,dist_items,qkpkxw,2.0,response,72,783.3999999999942,1950.0,1963.4000000022352,783.3999999999942,1950.0,1963.4000000022352,1.0,1180.000000002241,0.0,,Slider,Slider,4.0,object-56,temp_dist_trial,44.0,s_sh_07_1,student_shared,ruler,5.0,competing,paired,s_sh_07_1.jpg,Student,$${counterbalance_group},,sub-79
Desktop or Laptop,Mac OS 10.15.7,Chrome 138.0.0.0,1440x900,1440x876,Temporal Distance Task,cb_05,45.0,temp_dist_trial,num_items,zn7si1,1.0,response,1_ITEM,1281.1999999992552,1266.6000000000058,1281.1999999992552,1281.1999999992552,1266.6000000000058,1281.1999999992552,1.0,0.0,0.0,,Click Response,1_count,3.0,object-46,temp_dist_trial,45.0,s_a_04_1,student_art,easel,5.0,unique,single,s_a_04_1.jpg,Student,$${counterbalance_group},,sub-79
Desktop or Laptop,Mac OS 10.15.7,Chrome 138.0.0.0,1440x900,1440x876,Temporal Distance Task,cb_05,46.0,temp_dist_trial,num_items,zn7si1,1.0,response,2_ITEM,1097.9000000014785,1083.2999999999884,1097.9000000014785,1097.9000000014785,1083.2999999999884,1097.9000000014785,1.0,0.0,0.0,,Click Response,2_count,5.0,object-49,temp_dist_trial,46.0,s_s_06_1,student_stem,calculator,5.0,unique,paired,s_s_06_1.jpg,Student,$${counterbalance_group},,sub-79
Desktop or Laptop,Mac OS 10.15.7,Chrome 138.0.0.0,1440x900,1440x876,Temporal Distance Task,cb_05,46.0,temp_dist_trial,dist_items,qkpkxw,2.0,info,,7.699999999254942,0.0,7.699999999254942,7.699999999254942,0.0,7.699999999254942,1.0,0.0,0.0,,Slider,Slider,4.0,object-56,temp_dist_trial,46.0,s_s_06_1,student_stem,calculator,5.0,unique,paired,s_s_06_1.jpg,Student,$${counterbalance_group},,sub-79
Desktop or Laptop,Mac OS 10.15.7,Chrome 138.0.0.0,1440x900,1440x876,Temporal Distance Task,cb_05,46.0,temp_dist_trial,dist_items,qkpkxw,2.0,continue,,2797.5,2783.3999999999933,2797.5,2797.5,2783.3999999999933,2797.5,1.0,0.0,0.0,,Click To Continue,Next button,7.0,object-60,temp_dist_trial,46.0,s_s_06_1,student_stem,calculator,5.0,unique,paired,s_s_06_1.jpg,Student,$${counterbalance_group},,sub-79
Desktop or Laptop,Mac OS 10.15.7,Chrome 138.0.0.0,1440x900,1440x876,Temporal Distance Task,cb_05,46.0,temp_dist_trial,dist_items,qkpkxw,2.0,response,59,1716.6000000000058,2783.3999999999933,2800.0999999999767,1716.6000000000058,2783.3999999999933,2800.0999999999767,1.0,1083.499999999971,0.0,,Slider,Slider,4.0,object-56,temp_dist_trial,46.0,s_s_06_1,student_stem,calculator,5.0,unique,paired,s_s_06_1.jpg,Student,$${counterbalance_group},,sub-79
Desktop or Laptop,Mac OS 10.15.7,Chrome 138.0.0.0,1440x900,1440x876,Temporal Distance Task,cb_05,47.0,temp_dist_trial,num_items,zn7si1,1.0,response,2_ITEM,1214.700000001496,1199.8999999999942,1214.700000001496,1214.700000001496,1199.8999999999942,1214.700000001496,1.0,0.0,0.0,,Click Response,2_count,5.0,object-49,temp_dist_trial,47.0,s_sh_12_1,student_shared,binder,5.0,competing,single,s_sh_12_1.jpg,Student,$${counterbalance_group},,sub-79
Desktop or Laptop,Mac OS 10.15.7,Chrome 138.0.0.0,1440x900,1440x876,Temporal Distance Task,cb_05,47.0,temp_dist_trial,dist_items,qkpkxw,2.0,info,,7.3000000015017585,0.0,7.3000000015017585,7.3000000015017585,0.0,7.3000000015017585,1.0,0.0,0.0,,Slider,Slider,4.0,object-56,temp_dist_trial,47.0,s_sh_12_1,student_shared,binder,5.0,competing,single,s_sh_12_1.jpg,Student,$${counterbalance_group},,sub-79
Desktop or Laptop,Mac OS 10.15.7,Chrome 138.0.0.0,1440x900,1440x876,Temporal Distance Task,cb_05,47.0,temp_dist_trial,dist_items,qkpkxw,2.0,continue,,1981.3999999992664,1966.7000000000119,1981.3999999992664,1981.3999999992664,1966.7000000000119,1981.3999999992664,1.0,0.0,0.0,,Click To Continue,Next button,7.0,object-60,temp_dist_trial,47.0,s_sh_12_1,student_shared,binder,5.0,competing,single,s_sh_12_1.jpg,Student,$${counterbalance_group},,sub-79
Desktop or Laptop,Mac OS 10.15.7,Chrome 138.0.0.0,1440x900,1440x876,Temporal Distance Task,cb_05,47.0,temp_dist_trial,dist_items,qkpkxw,2.0,response,80,716.7000000000116,1966.7000000000119,1982.1000000022468,716.7000000000116,1966.7000000000119,1982.1000000022468,1.0,1265.4000000022352,0.0,,Slider,Slider,4.0,object-56,temp_dist_trial,47.0,s_sh_12_1,student_shared,binder,5.0,competing,single,s_sh_12_1.jpg,Student,$${counterbalance_group},,sub-79
Desktop or Laptop,Mac OS 10.15.7,Chrome 138.0.0.0,1440x900,1440x876,Temporal Distance Task,cb_05,48.0,temp_dist_trial,num_items,zn7si1,1.0,response,2_ITEM,1031.0,1016.6000000000058,1031.0,1031.0,1016.6000000000058,1031.0,1.0,0.0,0.0,,Click Response,2_count,5.0,object-49,temp_dist_trial,48.0,s_sh_18_1,student_shared,wall calendar,5.0,competing,paired,s_sh_18_1.jpg,Student,$${counterbalance_group},,sub-79
Desktop or Laptop,Mac OS 10.15.7,Chrome 138.0.0.0,1440x900,1440x876,Temporal Distance Task,cb_05,48.0,temp_dist_trial,dist_items,qkpkxw,2.0,info,,6.399999999994179,0.0,6.399999999994179,6.399999999994179,0.0,6.399999999994179,1.0,0.0,0.0,,Slider,Slider,4.0,object-56,temp_dist_trial,48.0,s_sh_18_1,student_shared,wall calendar,5.0,competing,paired,s_sh_18_1.jpg,Student,$${counterbalance_group},,sub-79
Desktop or Laptop,Mac OS 10.15.7,Chrome 138.0.0.0,1440x900,1440x876,Temporal Distance Task,cb_05,48.0,temp_dist_trial,dist_items,qkpkxw,2.0,continue,,3081.5000000014843,3066.699999999982,3081.5000000014843,3081.5000000014843,3066.699999999982,3081.5000000014843,1.0,0.0,0.0,,Click To Continue,Next button,7.0,object-60,temp_dist_trial,48.0,s_sh_18_1,student_shared,wall calendar,5.0,competing,paired,s_sh_18_1.jpg,Student,$${counterbalance_group},,sub-79
Desktop or Laptop,Mac OS 10.15.7,Chrome 138.0.0.0,1440x900,1440x876,Temporal Distance Task,cb_05,48.0,temp_dist_trial,dist_items,qkpkxw,2.0,response,33,1750.0,3066.699999999982,3082.300000002229,1750.0,3066.699999999982,3082.300000002229,1.0,1332.3000000022294,0.0,,Slider,Slider,4.0,object-56,temp_dist_trial,48.0,s_sh_18_1,student_shared,wall calendar,5.0,competing,paired,s_sh_18_1.jpg,Student,$${counterbalance_group},,sub-79
Desktop or Laptop,Mac OS 10.15.7,Chrome 138.0.0.0,1440x900,1440x876,Temporal Distance Task,cb_05,2.0,temp_eventStart,Screen 1,dgtyxe,1.0,continue,,1882.0000000007572,1866.6000000000056,1882.0000000007572,1882.0000000007572,1866.6000000000056,1882.0000000007572,1.0,0.0,0.0,,Click To Continue,Next Button,3.0,object-43,temp_eventStart,,,Travel,,,,,,,$${counterbalance_group},,sub-79
Desktop or Laptop,Mac OS 10.15.7,Chrome 138.0.0.0,1440x900,1440x876,Temporal Distance Task,cb_05,49.0,temp_dist_trial,num_items,zn7si1,1.0,response,1_ITEM,2146.6000000000063,2133.3999999999937,2146.6000000000063,2146.6000000000063,2133.3999999999937,2146.6000000000063,1.0,0.0,0.0,,Click Response,1_count,3.0,object-46,temp_dist_trial,1.0,t_m_20_1,travel_Miami,inflatable beachball,5.0,unique,paired,t_m_20_1.jpg,Travel,$${counterbalance_group},,sub-79
Desktop or Laptop,Mac OS 10.15.7,Chrome 138.0.0.0,1440x900,1440x876,Temporal Distance Task,cb_05,50.0,temp_dist_trial,num_items,zn7si1,1.0,response,1_ITEM,1114.9999999992433,1100.0999999999767,1114.9999999992433,1114.9999999992433,1100.0999999999767,1114.9999999992433,1.0,0.0,0.0,,Click Response,1_count,3.0,object-46,temp_dist_trial,2.0,t_i_13_1,travel_Iceland,sleeping bag,5.0,unique,single,t_i_13_1.jpg,Travel,$${counterbalance_group},,sub-79
Desktop or Laptop,Mac OS 10.15.7,Chrome 138.0.0.0,1440x900,1440x876,Temporal Distance Task,cb_05,51.0,temp_dist_trial,num_items,zn7si1,1.0,response,2_ITEM,2198.6000000007334,2183.3999999999937,2198.6000000007334,2198.6000000007334,2183.3999999999937,2198.6000000007334,1.0,0.0,0.0,,Click Response,2_count,5.0,object-49,temp_dist_trial,3.0,t_s_05_1,travel_shared,neck pillow,5.0,competing,paired,t_s_05_1.jpg,Travel,$${counterbalance_group},,sub-79
Desktop or Laptop,Mac OS 10.15.7,Chrome 138.0.0.0,1440x900,1440x876,Temporal Distance Task,cb_05,51.0,temp_dist_trial,dist_items,qkpkxw,2.0,info,,6.300000002229352,0.0,6.300000002229352,6.300000002229352,0.0,6.300000002229352,1.0,0.0,0.0,,Slider,Slider,4.0,object-56,temp_dist_trial,3.0,t_s_05_1,travel_shared,neck pillow,5.0,competing,paired,t_s_05_1.jpg,Travel,$${counterbalance_group},,sub-79
Desktop or Laptop,Mac OS 10.15.7,Chrome 138.0.0.0,1440x900,1440x876,Temporal Distance Task,cb_05,51.0,temp_dist_trial,dist_items,qkpkxw,2.0,continue,,1997.3999999999944,1982.7999999999884,1997.3999999999944,1997.3999999999944,1982.7999999999884,1997.3999999999944,1.0,0.0,0.0,,Click To Continue,Next button,7.0,object-60,temp_dist_trial,3.0,t_s_05_1,travel_shared,neck pillow,5.0,competing,paired,t_s_05_1.jpg,Travel,$${counterbalance_group},,sub-79
Desktop or Laptop,Mac OS 10.15.7,Chrome 138.0.0.0,1440x900,1440x876,Temporal Distance Task,cb_05,51.0,temp_dist_trial,dist_items,qkpkxw,2.0,response,79,999.6999999999823,1982.7999999999884,1998.2000000007392,999.6999999999823,1982.7999999999884,1998.2000000007392,1.0,998.5000000007567,0.0,,Slider,Slider,4.0,object-56,temp_dist_trial,3.0,t_s_05_1,travel_shared,neck pillow,5.0,competing,paired,t_s_05_1.jpg,Travel,$${counterbalance_group},,sub-79
Desktop or Laptop,Mac OS 10.15.7,Chrome 138.0.0.0,1440x900,1440x876,Temporal Distance Task,cb_05,52.0,temp_dist_trial,num_items,zn7si1,1.0,response,2_ITEM,1114.6000000000058,1099.7000000000116,1114.6000000000058,1114.6000000000058,1099.7000000000116,1114.6000000000058,1.0,0.0,0.0,,Click Response,2_count,5.0,object-49,temp_dist_trial,4.0,t_s_07_1,travel_shared,phone charger cable,5.0,competing,paired,t_s_07_1.jpg,Travel,$${counterbalance_group},,sub-79
Desktop or Laptop,Mac OS 10.15.7,Chrome 138.0.0.0,1440x900,1440x876,Temporal Distance Task,cb_05,52.0,temp_dist_trial,dist_items,qkpkxw,2.0,info,,7.100000000005821,0.0,7.100000000005821,7.100000000005821,0.0,7.100000000005821,1.0,0.0,0.0,,Slider,Slider,4.0,object-56,temp_dist_trial,4.0,t_s_07_1,travel_shared,phone charger cable,5.0,competing,paired,t_s_07_1.jpg,Travel,$${counterbalance_group},,sub-79
Desktop or Laptop,Mac OS 10.15.7,Chrome 138.0.0.0,1440x900,1440x876,Temporal Distance Task,cb_05,52.0,temp_dist_trial,dist_items,qkpkxw,2.0,continue,,2014.7999999992608,2000.0,2014.7999999992608,2014.7999999992608,2000.0,2014.7999999992608,1.0,0.0,0.0,,Click To Continue,Next button,7.0,object-60,temp_dist_trial,4.0,t_s_07_1,travel_shared,phone charger cable,5.0,competing,paired,t_s_07_1.jpg,Travel,$${counterbalance_group},,sub-79
Desktop or Laptop,Mac OS 10.15.7,Chrome 138.0.0.0,1440x900,1440x876,Temporal Distance Task,cb_05,52.0,temp_dist_trial,dist_items,qkpkxw,2.0,response,33,783.3000000000177,2000.0,2015.4000000007507,783.3000000000177,2000.0,2015.4000000007507,1.0,1232.1000000007334,0.0,,Slider,Slider,4.0,object-56,temp_dist_trial,4.0,t_s_07_1,travel_shared,phone charger cable,5.0,competing,paired,t_s_07_1.jpg,Travel,$${counterbalance_group},,sub-79
Desktop or Laptop,Mac OS 10.15.7,Chrome 138.0.0.0,1440x900,1440x876,Temporal Distance Task,cb_05,53.0,temp_dist_trial,num_items,zn7si1,1.0,response,1_ITEM,1047.000000002241,1033.3000000000177,1047.000000002241,1047.000000002241,1033.3000000000177,1047.000000002241,1.0,0.0,0.0,,Click Response,1_count,3.0,object-46,temp_dist_trial,5.0,t_i_03_1,travel_Iceland,winter jacket,5.0,unique,paired,t_i_03_1.jpg,Travel,$${counterbalance_group},,sub-79
Desktop or Laptop,Mac OS 10.15.7,Chrome 138.0.0.0,1440x900,1440x876,Temporal Distance Task,cb_05,54.0,temp_dist_trial,num_items,zn7si1,1.0,response,1_ITEM,1847.7999999999884,1833.3999999999944,1847.7999999999884,1847.7999999999884,1833.3999999999944,1847.7999999999884,1.0,0.0,0.0,,Click Response,1_count,3.0,object-46,temp_dist_trial,6.0,t_m_10_1,travel_Miami,tanktop,5.0,unique,paired,t_m_10_1.jpg,Travel,$${counterbalance_group},,sub-79
Desktop or Laptop,Mac OS 10.15.7,Chrome 138.0.0.0,1440x900,1440x876,Temporal Distance Task,cb_05,55.0,temp_dist_trial,num_items,zn7si1,1.0,response,2_ITEM,964.9000000022353,950.0,964.9000000022353,964.9000000022353,950.0,964.9000000022353,1.0,0.0,0.0,,Click Response,2_count,5.0,object-49,temp_dist_trial,7.0,t_s_01_1,travel_shared,fanny pack,5.0,competing,paired,t_s_01_1.jpg,Travel,$${counterbalance_group},,sub-79
Desktop or Laptop,Mac OS 10.15.7,Chrome 138.0.0.0,1440x900,1440x876,Temporal Distance Task,cb_05,55.0,temp_dist_trial,dist_items,qkpkxw,2.0,info,,6.699999999254942,0.0,6.699999999254942,6.699999999254942,0.0,6.699999999254942,1.0,0.0,0.0,,Slider,Slider,4.0,object-56,temp_dist_trial,7.0,t_s_01_1,travel_shared,fanny pack,5.0,competing,paired,t_s_01_1.jpg,Travel,$${counterbalance_group},,sub-79
Desktop or Laptop,Mac OS 10.15.7,Chrome 138.0.0.0,1440x900,1440x876,Temporal Distance Task,cb_05,55.0,temp_dist_trial,dist_items,qkpkxw,2.0,continue,,1781.8000000007446,1766.7000000000116,1781.8000000007446,1781.8000000007446,1766.7000000000116,1781.8000000007446,1.0,0.0,0.0,,Click To Continue,Next button,7.0,object-60,temp_dist_trial,7.0,t_s_01_1,travel_shared,fanny pack,5.0,competing,paired,t_s_01_1.jpg,Travel,$${counterbalance_group},,sub-79
Desktop or Laptop,Mac OS 10.15.7,Chrome 138.0.0.0,1440x900,1440x876,Temporal Distance Task,cb_05,55.0,temp_dist_trial,dist_items,qkpkxw,2.0,response,40,666.7999999999884,1766.7000000000116,1782.4000000022352,666.7999999999884,1766.7000000000116,1782.4000000022352,1.0,1115.6000000022468,0.0,,Slider,Slider,4.0,object-56,temp_dist_trial,7.0,t_s_01_1,travel_shared,fanny pack,5.0,competing,paired,t_s_01_1.jpg,Travel,$${counterbalance_group},,sub-79
Desktop or Laptop,Mac OS 10.15.7,Chrome 138.0.0.0,1440x900,1440x876,Temporal Distance Task,cb_05,56.0,temp_dist_trial,num_items,zn7si1,1.0,response,2_ITEM,1780.9000000014785,1766.5999999999767,1780.9000000014785,1780.9000000014785,1766.5999999999767,1780.9000000014785,1.0,0.0,0.0,,Click Response,2_count,5.0,object-49,temp_dist_trial,8.0,t_i_02_1,travel_Iceland,scarf,5.0,unique,paired,t_i_02_1.jpg,Travel,$${counterbalance_group},,sub-79
Desktop or Laptop,Mac OS 10.15.7,Chrome 138.0.0.0,1440x900,1440x876,Temporal Distance Task,cb_05,56.0,temp_dist_trial,dist_items,qkpkxw,2.0,info,,7.3000000015017585,0.0,7.3000000015017585,7.3000000015017585,0.0,7.3000000015017585,1.0,0.0,0.0,,Slider,Slider,4.0,object-56,temp_dist_trial,8.0,t_i_02_1,travel_Iceland,scarf,5.0,unique,paired,t_i_02_1.jpg,Travel,$${counterbalance_group},,sub-79
Desktop or Laptop,Mac OS 10.15.7,Chrome 138.0.0.0,1440x900,1440x876,Temporal Distance Task,cb_05,56.0,temp_dist_trial,dist_items,qkpkxw,2.0,continue,,1731.2000000000116,1716.7000000000116,1731.2000000000116,1731.2000000000116,1716.7000000000116,1731.2000000000116,1.0,0.0,0.0,,Click To Continue,Next button,7.0,object-60,temp_dist_trial,8.0,t_i_02_1,travel_Iceland,scarf,5.0,unique,paired,t_i_02_1.jpg,Travel,$${counterbalance_group},,sub-79
Desktop or Laptop,Mac OS 10.15.7,Chrome 138.0.0.0,1440x900,1440x876,Temporal Distance Task,cb_05,56.0,temp_dist_trial,dist_items,qkpkxw,2.0,response,36,782.4000000000232,1716.7000000000116,1732.0000000007572,782.4000000000232,1716.7000000000116,1732.0000000007572,1.0,949.6000000007332,0.0,,Slider,Slider,4.0,object-56,temp_dist_trial,8.0,t_i_02_1,travel_Iceland,scarf,5.0,unique,paired,t_i_02_1.jpg,Travel,$${counterbalance_group},,sub-79
Desktop or Laptop,Mac OS 10.15.7,Chrome 138.0.0.0,1440x900,1440x876,Temporal Distance Task,cb_05,57.0,temp_dist_trial,num_items,zn7si1,1.0,response,1_ITEM,1117.6999999992552,1116.6000000000058,1117.6999999992552,1117.6999999992552,1116.6000000000058,1117.6999999992552,1.0,0.0,0.0,,Click Response,1_count,3.0,object-46,temp_dist_trial,9.0,t_m_12_1,travel_Miami,foldable pail and shovel,5.0,unique,single,t_m_12_1.jpg,Travel,$${counterbalance_group},,sub-79
Desktop or Laptop,Mac OS 10.15.7,Chrome 138.0.0.0,1440x900,1440x876,Temporal Distance Task,cb_05,58.0,temp_dist_trial,num_items,zn7si1,1.0,response,2_ITEM,1063.7000000007392,1050.1000000000058,1063.7000000007392,1063.7000000007392,1050.1000000000058,1063.7000000007392,1.0,0.0,0.0,,Click Response,2_count,5.0,object-49,temp_dist_trial,10.0,t_s_19_1,travel_shared,pajamas,5.0,competing,paired,t_s_19_1.jpg,Travel,$${counterbalance_group},,sub-79
Desktop or Laptop,Mac OS 10.15.7,Chrome 138.0.0.0,1440x900,1440x876,Temporal Distance Task,cb_05,58.0,temp_dist_trial,dist_items,qkpkxw,2.0,info,,8.9999999992433,0.0,8.9999999992433,8.9999999992433,0.0,8.9999999992433,1.0,0.0,0.0,,Slider,Slider,4.0,object-56,temp_dist_trial,10.0,t_s_19_1,travel_shared,pajamas,5.0,competing,paired,t_s_19_1.jpg,Travel,$${counterbalance_group},,sub-79
Desktop or Laptop,Mac OS 10.15.7,Chrome 138.0.0.0,1440x900,1440x876,Temporal Distance Task,cb_05,58.0,temp_dist_trial,dist_items,qkpkxw,2.0,continue,,1581.4999999992428,1566.5999999999767,1581.4999999992428,1581.4999999992428,1566.5999999999767,1581.4999999992428,1.0,0.0,0.0,,Click To Continue,Next button,7.0,object-60,temp_dist_trial,10.0,t_s_19_1,travel_shared,pajamas,5.0,competing,paired,t_s_19_1.jpg,Travel,$${counterbalance_group},,sub-79
Desktop or Laptop,Mac OS 10.15.7,Chrome 138.0.0.0,1440x900,1440x876,Temporal Distance Task,cb_05,58.0,temp_dist_trial,dist_items,qkpkxw,2.0,response,54,766.6999999999823,1566.5999999999767,1581.7999999999884,766.6999999999823,1566.5999999999767,1581.7999999999884,1.0,815.1000000000058,0.0,,Slider,Slider,4.0,object-56,temp_dist_trial,10.0,t_s_19_1,travel_shared,pajamas,5.0,competing,paired,t_s_19_1.jpg,Travel,$${counterbalance_group},,sub-79
Desktop or Laptop,Mac OS 10.15.7,Chrome 138.0.0.0,1440x900,1440x876,Temporal Distance Task,cb_05,59.0,temp_dist_trial,num_items,zn7si1,1.0,response,1_ITEM,1263.5000000007567,1250.0,1263.5000000007567,1263.5000000007567,1250.0,1263.5000000007567,1.0,0.0,0.0,,Click Response,1_count,3.0,object-46,temp_dist_trial,11.0,t_s_12_1,travel_shared,clear toiletry bag,5.0,competing,single,t_s_12_1.jpg,Travel,$${counterbalance_group},,sub-79
Desktop or Laptop,Mac OS 10.15.7,Chrome 138.0.0.0,1440x900,1440x876,Temporal Distance Task,cb_05,60.0,temp_dist_trial,num_items,zn7si1,1.0,response,2_ITEM,1730.6000000022468,1716.7000000000116,1730.6000000022468,1730.6000000022468,1716.7000000000116,1730.6000000022468,1.0,0.0,0.0,,Click Response,2_count,5.0,object-49,temp_dist_trial,12.0,t_s_20_1,travel_shared,travel pill case,5.0,competing,paired,t_s_20_1.jpg,Travel,$${counterbalance_group},,sub-79
Desktop or Laptop,Mac OS 10.15.7,Chrome 138.0.0.0,1440x900,1440x876,Temporal Distance Task,cb_05,60.0,temp_dist_trial,dist_items,qkpkxw,2.0,info,,6.700000001495937,0.0,6.700000001495937,6.700000001495937,0.0,6.700000001495937,1.0,0.0,0.0,,Slider,Slider,4.0,object-56,temp_dist_trial,12.0,t_s_20_1,travel_shared,travel pill case,5.0,competing,paired,t_s_20_1.jpg,Travel,$${counterbalance_group},,sub-79
Desktop or Laptop,Mac OS 10.15.7,Chrome 138.0.0.0,1440x900,1440x876,Temporal Distance Task,cb_05,60.0,temp_dist_trial,dist_items,qkpkxw,2.0,continue,,1698.500000002241,1683.3000000000175,1698.500000002241,1698.500000002241,1683.3000000000175,1698.500000002241,1.0,0.0,0.0,,Click To Continue,Next button,7.0,object-60,temp_dist_trial,12.0,t_s_20_1,travel_shared,travel pill case,5.0,competing,paired,t_s_20_1.jpg,Travel,$${counterbalance_group},,sub-79
Desktop or Laptop,Mac OS 10.15.7,Chrome 138.0.0.0,1440x900,1440x876,Temporal Distance Task,cb_05,60.0,temp_dist_trial,dist_items,qkpkxw,2.0,response,40,666.8000000000175,1683.3000000000175,1699.200000001496,666.8000000000175,1683.3000000000175,1699.200000001496,1.0,1032.4000000014785,0.0,,Slider,Slider,4.0,object-56,temp_dist_trial,12.0,t_s_20_1,travel_shared,travel pill case,5.0,competing,paired,t_s_20_1.jpg,Travel,$${counterbalance_group},,sub-79
Desktop or Laptop,Mac OS 10.15.7,Chrome 138.0.0.0,1440x900,1440x876,Temporal Distance Task,cb_05,61.0,temp_dist_trial,num_items,zn7si1,1.0,response,1_ITEM,2164.2000000022235,2150.0999999999767,2164.2000000022235,2164.2000000022235,2150.0999999999767,2164.2000000022235,1.0,0.0,0.0,,Click Response,1_count,3.0,object-46,temp_dist_trial,13.0,t_s_21_1,travel_shared,umbrella,5.0,competing,single,t_s_21_1.jpg,Travel,$${counterbalance_group},,sub-79
Desktop or Laptop,Mac OS 10.15.7,Chrome 138.0.0.0,1440x900,1440x876,Temporal Distance Task,cb_05,62.0,temp_dist_trial,num_items,zn7si1,1.0,response,2_ITEM,1080.5000000007567,1066.7000000000116,1080.5000000007567,1080.5000000007567,1066.7000000000116,1080.5000000007567,1.0,0.0,0.0,,Click Response,2_count,5.0,object-49,temp_dist_trial,14.0,t_m_04_1,travel_Miami,UV jacket,5.0,unique,paired,t_m_04_1.jpg,Travel,$${counterbalance_group},,sub-79
Desktop or Laptop,Mac OS 10.15.7,Chrome 138.0.0.0,1440x900,1440x876,Temporal Distance Task,cb_05,62.0,temp_dist_trial,dist_items,qkpkxw,2.0,info,,6.700000001495937,0.0,6.700000001495937,6.700000001495937,0.0,6.700000001495937,1.0,0.0,0.0,,Slider,Slider,4.0,object-56,temp_dist_trial,14.0,t_m_04_1,travel_Miami,UV jacket,5.0,unique,paired,t_m_04_1.jpg,Travel,$${counterbalance_group},,sub-79
Desktop or Laptop,Mac OS 10.15.7,Chrome 138.0.0.0,1440x900,1440x876,Temporal Distance Task,cb_05,62.0,temp_dist_trial,dist_items,qkpkxw,2.0,continue,,1647.000000002241,1633.3999999999942,1647.000000002241,1647.000000002241,1633.3999999999942,1647.000000002241,1.0,0.0,0.0,,Click To Continue,Next button,7.0,object-60,temp_dist_trial,14.0,t_m_04_1,travel_Miami,UV jacket,5.0,unique,paired,t_m_04_1.jpg,Travel,$${counterbalance_group},,sub-79
Desktop or Laptop,Mac OS 10.15.7,Chrome 138.0.0.0,1440x900,1440x876,Temporal Distance Task,cb_05,62.0,temp_dist_trial,dist_items,qkpkxw,2.0,response,33,666.8000000000175,1633.3999999999942,1647.500000002241,666.8000000000175,1633.3999999999942,1647.500000002241,1.0,980.7000000022236,0.0,,Slider,Slider,4.0,object-56,temp_dist_trial,14.0,t_m_04_1,travel_Miami,UV jacket,5.0,unique,paired,t_m_04_1.jpg,Travel,$${counterbalance_group},,sub-79
Desktop or Laptop,Mac OS 10.15.7,Chrome 138.0.0.0,1440x900,1440x876,Temporal Distance Task,cb_05,63.0,temp_dist_trial,num_items,zn7si1,1.0,response,1_ITEM,1547.7000000000116,1533.4000000000233,1547.7000000000116,1547.7000000000116,1533.4000000000233,1547.7000000000116,1.0,0.0,0.0,,Click Response,1_count,3.0,object-46,temp_dist_trial,15.0,t_m_14_1,travel_Miami,swim goggles,5.0,unique,paired,t_m_14_1.jpg,Travel,$${counterbalance_group},,sub-79
Desktop or Laptop,Mac OS 10.15.7,Chrome 138.0.0.0,1440x900,1440x876,Temporal Distance Task,cb_05,64.0,temp_dist_trial,num_items,zn7si1,1.0,response,1_ITEM,997.5000000014844,983.1999999999823,997.5000000014844,997.5000000014844,983.1999999999823,997.5000000014844,1.0,0.0,0.0,,Click Response,1_count,3.0,object-46,temp_dist_trial,16.0,t_i_17_1,travel_Iceland,binoculars,5.0,unique,paired,t_i_17_1.jpg,Travel,$${counterbalance_group},,sub-79
Desktop or Laptop,Mac OS 10.15.7,Chrome 138.0.0.0,1440x900,1440x876,Temporal Distance Task,cb_05,65.0,temp_dist_trial,num_items,zn7si1,1.0,response,1_ITEM,964.7000000014959,950.1000000000058,964.7000000014959,964.7000000014959,950.1000000000058,964.7000000014959,1.0,0.0,0.0,,Click Response,1_count,3.0,object-46,temp_dist_trial,17.0,t_s_18_1,travel_shared,first aid kit,5.0,competing,paired,t_s_18_1.jpg,Travel,$${counterbalance_group},,sub-79
Desktop or Laptop,Mac OS 10.15.7,Chrome 138.0.0.0,1440x900,1440x876,Temporal Distance Task,cb_05,66.0,temp_dist_trial,num_items,zn7si1,1.0,response,2_ITEM,1098.1999999999823,1082.3999999999942,1098.1999999999823,1098.1999999999823,1082.3999999999942,1098.1999999999823,1.0,0.0,0.0,,Click Response,2_count,5.0,object-49,temp_dist_trial,18.0,t_i_11_1,travel_Iceland,headlamp,5.0,unique,paired,t_i_11_1.jpg,Travel,$${counterbalance_group},,sub-79
Desktop or Laptop,Mac OS 10.15.7,Chrome 138.0.0.0,1440x900,1440x876,Temporal Distance Task,cb_05,66.0,temp_dist_trial,dist_items,qkpkxw,2.0,info,,6.6000000022468175,0.0,6.6000000022468175,6.6000000022468175,0.0,6.6000000022468175,1.0,0.0,0.0,,Slider,Slider,4.0,object-56,temp_dist_trial,18.0,t_i_11_1,travel_Iceland,headlamp,5.0,unique,paired,t_i_11_1.jpg,Travel,$${counterbalance_group},,sub-79
Desktop or Laptop,Mac OS 10.15.7,Chrome 138.0.0.0,1440x900,1440x876,Temporal Distance Task,cb_05,66.0,temp_dist_trial,dist_items,qkpkxw,2.0,continue,,2097.0000000007567,2083.3000000000175,2097.0000000007567,2097.0000000007567,2083.3000000000175,2097.0000000007567,1.0,0.0,0.0,,Click To Continue,Next button,7.0,object-60,temp_dist_trial,18.0,t_i_11_1,travel_Iceland,headlamp,5.0,unique,paired,t_i_11_1.jpg,Travel,$${counterbalance_group},,sub-79
Desktop or Laptop,Mac OS 10.15.7,Chrome 138.0.0.0,1440x900,1440x876,Temporal Distance Task,cb_05,66.0,temp_dist_trial,dist_items,qkpkxw,2.0,response,24,800.0,2083.3000000000175,2100.000000000029,800.0,2083.3000000000175,2100.000000000029,1.0,1300.000000000029,0.0,,Slider,Slider,4.0,object-56,temp_dist_trial,18.0,t_i_11_1,travel_Iceland,headlamp,5.0,unique,paired,t_i_11_1.jpg,Travel,$${counterbalance_group},,sub-79
Desktop or Laptop,Mac OS 10.15.7,Chrome 138.0.0.0,1440x900,1440x876,Temporal Distance Task,cb_05,67.0,temp_dist_trial,num_items,zn7si1,1.0,response,2_ITEM,2463.8999999999937,2450.0,2463.8999999999937,2463.8999999999937,2450.0,2463.8999999999937,1.0,0.0,0.0,,Click Response,2_count,5.0,object-49,temp_dist_trial,19.0,t_s_04_1,travel_shared,instant camera,5.0,competing,paired,t_s_04_1.jpg,Travel,$${counterbalance_group},,sub-79
Desktop or Laptop,Mac OS 10.15.7,Chrome 138.0.0.0,1440x900,1440x876,Temporal Distance Task,cb_05,67.0,temp_dist_trial,dist_items,qkpkxw,2.0,info,,7.099999999249121,0.0,7.099999999249121,7.099999999249121,0.0,7.099999999249121,1.0,0.0,0.0,,Slider,Slider,4.0,object-56,temp_dist_trial,19.0,t_s_04_1,travel_shared,instant camera,5.0,competing,paired,t_s_04_1.jpg,Travel,$${counterbalance_group},,sub-79
Desktop or Laptop,Mac OS 10.15.7,Chrome 138.0.0.0,1440x900,1440x876,Temporal Distance Task,cb_05,67.0,temp_dist_trial,dist_items,qkpkxw,2.0,continue,,2131.0000000014843,2116.6000000000063,2131.0000000014843,2131.0000000014843,2116.6000000000063,2131.0000000014843,1.0,0.0,0.0,,Click To Continue,Next button,7.0,object-60,temp_dist_trial,19.0,t_s_04_1,travel_shared,instant camera,5.0,competing,paired,t_s_04_1.jpg,Travel,$${counterbalance_group},,sub-79
Desktop or Laptop,Mac OS 10.15.7,Chrome 138.0.0.0,1440x900,1440x876,Temporal Distance Task,cb_05,67.0,temp_dist_trial,dist_items,qkpkxw,2.0,response,42,966.6000000000058,2116.6000000000063,2131.8999999999937,966.6000000000058,2116.6000000000063,2131.8999999999937,1.0,1165.2999999999886,0.0,,Slider,Slider,4.0,object-56,temp_dist_trial,19.0,t_s_04_1,travel_shared,instant camera,5.0,competing,paired,t_s_04_1.jpg,Travel,$${counterbalance_group},,sub-79
Desktop or Laptop,Mac OS 10.15.7,Chrome 138.0.0.0,1440x900,1440x876,Temporal Distance Task,cb_05,68.0,temp_dist_trial,num_items,zn7si1,1.0,response,1_ITEM,2481.4000000014785,2466.6999999999825,2481.4000000014785,2481.4000000014785,2466.6999999999825,2481.4000000014785,1.0,0.0,0.0,,Click Response,1_count,3.0,object-46,temp_dist_trial,20.0,t_i_12_1,travel_Iceland,tent,5.0,unique,paired,t_i_12_1.jpg,Travel,$${counterbalance_group},,sub-79
Desktop or Laptop,Mac OS 10.15.7,Chrome 138.0.0.0,1440x900,1440x876,Temporal Distance Task,cb_05,69.0,temp_dist_trial,num_items,zn7si1,1.0,response,1_ITEM,915.2000000000116,899.2000000000116,915.2000000000116,915.2000000000116,899.2000000000116,915.2000000000116,1.0,0.0,0.0,,Click Response,1_count,3.0,object-46,temp_dist_trial,21.0,t_i_07_1,travel_Iceland,hiking backpack,5.0,unique,paired,t_i_07_1.jpg,Travel,$${counterbalance_group},,sub-79
Desktop or Laptop,Mac OS 10.15.7,Chrome 138.0.0.0,1440x900,1440x876,Temporal Distance Task,cb_05,70.0,temp_dist_trial,num_items,zn7si1,1.0,response,2_ITEM,2148.1000000000063,2133.3000000000175,2148.1000000000063,2148.1000000000063,2133.3000000000175,2148.1000000000063,1.0,0.0,0.0,,Click Response,2_count,5.0,object-49,temp_dist_trial,22.0,t_m_05_1,travel_Miami,sunscreen,5.0,unique,paired,t_m_05_1.jpg,Travel,$${counterbalance_group},,sub-79
Desktop or Laptop,Mac OS 10.15.7,Chrome 138.0.0.0,1440x900,1440x876,Temporal Distance Task,cb_05,70.0,temp_dist_trial,dist_items,qkpkxw,2.0,info,,6.900000001478474,0.0,6.900000001478474,6.900000001478474,0.0,6.900000001478474,1.0,0.0,0.0,,Slider,Slider,4.0,object-56,temp_dist_trial,22.0,t_m_05_1,travel_Miami,sunscreen,5.0,unique,paired,t_m_05_1.jpg,Travel,$${counterbalance_group},,sub-79
Desktop or Laptop,Mac OS 10.15.7,Chrome 138.0.0.0,1440x900,1440x876,Temporal Distance Task,cb_05,70.0,temp_dist_trial,dist_items,qkpkxw,2.0,continue,,1598.4000000014785,1583.3999999999942,1598.4000000014785,1598.4000000014785,1583.3999999999942,1598.4000000014785,1.0,0.0,0.0,,Click To Continue,Next button,7.0,object-60,temp_dist_trial,22.0,t_m_05_1,travel_Miami,sunscreen,5.0,unique,paired,t_m_05_1.jpg,Travel,$${counterbalance_group},,sub-79
Desktop or Laptop,Mac OS 10.15.7,Chrome 138.0.0.0,1440x900,1440x876,Temporal Distance Task,cb_05,70.0,temp_dist_trial,dist_items,qkpkxw,2.0,response,60,750.0,1583.3999999999942,1598.7999999999884,750.0,1583.3999999999942,1598.7999999999884,1.0,848.7999999999884,0.0,,Slider,Slider,4.0,object-56,temp_dist_trial,22.0,t_m_05_1,travel_Miami,sunscreen,5.0,unique,paired,t_m_05_1.jpg,Travel,$${counterbalance_group},,sub-79
Desktop or Laptop,Mac OS 10.15.7,Chrome 138.0.0.0,1440x900,1440x876,Temporal Distance Task,cb_05,71.0,temp_dist_trial,num_items,zn7si1,1.0,response,2_ITEM,1514.5999999992493,1499.8999999999942,1514.5999999992493,1514.5999999992493,1499.8999999999942,1514.5999999992493,1.0,0.0,0.0,,Click Response,2_count,5.0,object-49,temp_dist_trial,23.0,t_i_01_1,travel_Iceland,gloves,5.0,unique,paired,t_i_01_1.jpg,Travel,$${counterbalance_group},,sub-79
Desktop or Laptop,Mac OS 10.15.7,Chrome 138.0.0.0,1440x900,1440x876,Temporal Distance Task,cb_05,71.0,temp_dist_trial,dist_items,qkpkxw,2.0,info,,7.000000001484295,0.0,7.000000001484295,7.000000001484295,0.0,7.000000001484295,1.0,0.0,0.0,,Slider,Slider,4.0,object-56,temp_dist_trial,23.0,t_i_01_1,travel_Iceland,gloves,5.0,unique,paired,t_i_01_1.jpg,Travel,$${counterbalance_group},,sub-79
Desktop or Laptop,Mac OS 10.15.7,Chrome 138.0.0.0,1440x900,1440x876,Temporal Distance Task,cb_05,71.0,temp_dist_trial,dist_items,qkpkxw,2.0,continue,,2129.8999999999937,2116.6000000000063,2129.8999999999937,2129.8999999999937,2116.6000000000063,2129.8999999999937,1.0,0.0,0.0,,Click To Continue,Next button,7.0,object-60,temp_dist_trial,23.0,t_i_01_1,travel_Iceland,gloves,5.0,unique,paired,t_i_01_1.jpg,Travel,$${counterbalance_group},,sub-79
Desktop or Laptop,Mac OS 10.15.7,Chrome 138.0.0.0,1440x900,1440x876,Temporal Distance Task,cb_05,71.0,temp_dist_trial,dist_items,qkpkxw,2.0,response,40,733.2999999999884,2116.6000000000063,2130.3000000022294,733.2999999999884,2116.6000000000063,2130.3000000022294,1.0,1397.000000002241,0.0,,Slider,Slider,4.0,object-56,temp_dist_trial,23.0,t_i_01_1,travel_Iceland,gloves,5.0,unique,paired,t_i_01_1.jpg,Travel,$${counterbalance_group},,sub-79
Desktop or Laptop,Mac OS 10.15.7,Chrome 138.0.0.0,1440x900,1440x876,Temporal Distance Task,cb_05,72.0,temp_dist_trial,num_items,zn7si1,1.0,response,1_ITEM,1196.7000000022235,1183.2999999999886,1196.7000000022235,1196.7000000022235,1183.2999999999886,1196.7000000022235,1.0,0.0,0.0,,Click Response,1_count,3.0,object-46,temp_dist_trial,24.0,t_m_17_1,travel_Miami,water gun,5.0,unique,single,t_m_17_1.jpg,Travel,$${counterbalance_group},,sub-79
Desktop or Laptop,Mac OS 10.15.7,Chrome 138.0.0.0,1440x900,1440x876,Temporal Distance Task,cb_05,73.0,temp_dist_trial,num_items,zn7si1,1.0,response,2_ITEM,1014.3000000007453,1000.0,1014.3000000007453,1014.3000000007453,1000.0,1014.3000000007453,1.0,0.0,0.0,,Click Response,2_count,5.0,object-49,temp_dist_trial,25.0,t_s_03_1,travel_shared,portable charger,5.0,competing,single,t_s_03_1.jpg,Travel,$${counterbalance_group},,sub-79
Desktop or Laptop,Mac OS 10.15.7,Chrome 138.0.0.0,1440x900,1440x876,Temporal Distance Task,cb_05,73.0,temp_dist_trial,dist_items,qkpkxw,2.0,info,,7.699999999254942,0.0,7.699999999254942,7.699999999254942,0.0,7.699999999254942,1.0,0.0,0.0,,Slider,Slider,4.0,object-56,temp_dist_trial,25.0,t_s_03_1,travel_shared,portable charger,5.0,competing,single,t_s_03_1.jpg,Travel,$${counterbalance_group},,sub-79
Desktop or Laptop,Mac OS 10.15.7,Chrome 138.0.0.0,1440x900,1440x876,Temporal Distance Task,cb_05,73.0,temp_dist_trial,dist_items,qkpkxw,2.0,continue,,2247.900000002235,2233.3999999999937,2247.900000002235,2247.900000002235,2233.3999999999937,2247.900000002235,1.0,0.0,0.0,,Click To Continue,Next button,7.0,object-60,temp_dist_trial,25.0,t_s_03_1,travel_shared,portable charger,5.0,competing,single,t_s_03_1.jpg,Travel,$${counterbalance_group},,sub-79
Desktop or Laptop,Mac OS 10.15.7,Chrome 138.0.0.0,1440x900,1440x876,Temporal Distance Task,cb_05,73.0,temp_dist_trial,dist_items,qkpkxw,2.0,response,24,1216.7000000000114,2233.3999999999937,2250.1999999999825,1216.7000000000114,2233.3999999999937,2250.1999999999825,1.0,1033.499999999971,0.0,,Slider,Slider,4.0,object-56,temp_dist_trial,25.0,t_s_03_1,travel_shared,portable charger,5.0,competing,single,t_s_03_1.jpg,Travel,$${counterbalance_group},,sub-79
Desktop or Laptop,Mac OS 10.15.7,Chrome 138.0.0.0,1440x900,1440x876,Temporal Distance Task,cb_05,74.0,temp_dist_trial,num_items,zn7si1,1.0,response,1_ITEM,996.6000000000058,983.2000000000116,996.6000000000058,996.6000000000058,983.2000000000116,996.6000000000058,1.0,0.0,0.0,,Click Response,1_count,3.0,object-46,temp_dist_trial,26.0,t_i_06_1,travel_Iceland,knit hat,5.0,unique,paired,t_i_06_1.jpg,Travel,$${counterbalance_group},,sub-79
Desktop or Laptop,Mac OS 10.15.7,Chrome 138.0.0.0,1440x900,1440x876,Temporal Distance Task,cb_05,75.0,temp_dist_trial,num_items,zn7si1,1.0,response,1_ITEM,1164.7000000007392,1150.1000000000058,1164.7000000007392,1164.7000000007392,1150.1000000000058,1164.7000000007392,1.0,0.0,0.0,,Click Response,1_count,3.0,object-46,temp_dist_trial,27.0,t_m_01_1,travel_Miami,sandals,5.0,unique,single,t_m_01_1.jpg,Travel,$${counterbalance_group},,sub-79
Desktop or Laptop,Mac OS 10.15.7,Chrome 138.0.0.0,1440x900,1440x876,Temporal Distance Task,cb_05,76.0,temp_dist_trial,num_items,zn7si1,1.0,response,2_ITEM,1064.7000000022238,1050.0,1064.7000000022238,1064.7000000022238,1050.0,1064.7000000022238,1.0,0.0,0.0,,Click Response,2_count,5.0,object-49,temp_dist_trial,28.0,t_s_15_1,travel_shared,luggage tag,5.0,competing,paired,t_s_15_1.jpg,Travel,$${counterbalance_group},,sub-79
Desktop or Laptop,Mac OS 10.15.7,Chrome 138.0.0.0,1440x900,1440x876,Temporal Distance Task,cb_05,76.0,temp_dist_trial,dist_items,qkpkxw,2.0,info,,9.000000002240991,0.0,9.000000002240991,9.000000002240991,0.0,9.000000002240991,1.0,0.0,0.0,,Slider,Slider,4.0,object-56,temp_dist_trial,28.0,t_s_15_1,travel_shared,luggage tag,5.0,competing,paired,t_s_15_1.jpg,Travel,$${counterbalance_group},,sub-79
Desktop or Laptop,Mac OS 10.15.7,Chrome 138.0.0.0,1440x900,1440x876,Temporal Distance Task,cb_05,76.0,temp_dist_trial,dist_items,qkpkxw,2.0,continue,,1765.6000000000058,1750.8000000000175,1765.6000000000058,1765.6000000000058,1750.8000000000175,1765.6000000000058,1.0,0.0,0.0,,Click To Continue,Next button,7.0,object-60,temp_dist_trial,28.0,t_s_15_1,travel_shared,luggage tag,5.0,competing,paired,t_s_15_1.jpg,Travel,$${counterbalance_group},,sub-79
Desktop or Laptop,Mac OS 10.15.7,Chrome 138.0.0.0,1440x900,1440x876,Temporal Distance Task,cb_05,76.0,temp_dist_trial,dist_items,qkpkxw,2.0,response,40,684.1000000000057,1750.8000000000175,1766.2999999992608,684.1000000000057,1750.8000000000175,1766.2999999992608,1.0,1082.1999999992552,0.0,,Slider,Slider,4.0,object-56,temp_dist_trial,28.0,t_s_15_1,travel_shared,luggage tag,5.0,competing,paired,t_s_15_1.jpg,Travel,$${counterbalance_group},,sub-79
Desktop or Laptop,Mac OS 10.15.7,Chrome 138.0.0.0,1440x900,1440x876,Temporal Distance Task,cb_05,77.0,temp_dist_trial,num_items,zn7si1,1.0,response,1_ITEM,2731.7999999999884,2716.599999999977,2731.7999999999884,2731.7999999999884,2716.599999999977,2731.7999999999884,1.0,0.0,0.0,,Click Response,1_count,3.0,object-46,temp_dist_trial,29.0,t_s_02_1,travel_shared,water bottle,5.0,competing,single,t_s_02_1.jpg,Travel,$${counterbalance_group},,sub-79
Desktop or Laptop,Mac OS 10.15.7,Chrome 138.0.0.0,1440x900,1440x876,Temporal Distance Task,cb_05,78.0,temp_dist_trial,num_items,zn7si1,1.0,response,1_ITEM,1598.1000000022468,1583.3000000000175,1598.1000000022468,1598.1000000022468,1583.3000000000175,1598.1000000022468,1.0,0.0,0.0,,Click Response,1_count,3.0,object-46,temp_dist_trial,30.0,t_m_11_1,travel_Miami,collapsible beach chair,5.0,unique,paired,t_m_11_1.jpg,Travel,$${counterbalance_group},,sub-79
Desktop or Laptop,Mac OS 10.15.7,Chrome 138.0.0.0,1440x900,1440x876,Temporal Distance Task,cb_05,79.0,temp_dist_trial,num_items,zn7si1,1.0,response,2_ITEM,1548.0000000014843,1533.3999999999942,1548.0000000014843,1548.0000000014843,1533.3999999999942,1548.0000000014843,1.0,0.0,0.0,,Click Response,2_count,5.0,object-49,temp_dist_trial,31.0,t_s_22_1,travel_shared,belt,5.0,competing,paired,t_s_22_1.jpg,Travel,$${counterbalance_group},,sub-79
Desktop or Laptop,Mac OS 10.15.7,Chrome 138.0.0.0,1440x900,1440x876,Temporal Distance Task,cb_05,79.0,temp_dist_trial,dist_items,qkpkxw,2.0,info,,6.800000000745058,0.0,6.800000000745058,6.800000000745058,0.0,6.800000000745058,1.0,0.0,0.0,,Slider,Slider,4.0,object-56,temp_dist_trial,31.0,t_s_22_1,travel_shared,belt,5.0,competing,paired,t_s_22_1.jpg,Travel,$${counterbalance_group},,sub-79
Desktop or Laptop,Mac OS 10.15.7,Chrome 138.0.0.0,1440x900,1440x876,Temporal Distance Task,cb_05,79.0,temp_dist_trial,dist_items,qkpkxw,2.0,continue,,1947.8000000007446,1933.2000000000119,1947.8000000007446,1947.8000000007446,1933.2000000000119,1947.8000000007446,1.0,0.0,0.0,,Click To Continue,Next button,7.0,object-60,temp_dist_trial,31.0,t_s_22_1,travel_shared,belt,5.0,competing,paired,t_s_22_1.jpg,Travel,$${counterbalance_group},,sub-79
Desktop or Laptop,Mac OS 10.15.7,Chrome 138.0.0.0,1440x900,1440x876,Temporal Distance Task,cb_05,79.0,temp_dist_trial,dist_items,qkpkxw,2.0,response,39,1033.0,1933.2000000000119,1948.4000000022352,1033.0,1933.2000000000119,1948.4000000022352,1.0,915.4000000022353,0.0,,Slider,Slider,4.0,object-56,temp_dist_trial,31.0,t_s_22_1,travel_shared,belt,5.0,competing,paired,t_s_22_1.jpg,Travel,$${counterbalance_group},,sub-79
Desktop or Laptop,Mac OS 10.15.7,Chrome 138.0.0.0,1440x900,1440x876,Temporal Distance Task,cb_05,80.0,temp_dist_trial,num_items,zn7si1,1.0,response,2_ITEM,1347.9000000014785,1333.399999999965,1347.9000000014785,1347.9000000014785,1333.399999999965,1347.9000000014785,1.0,0.0,0.0,,Click Response,2_count,5.0,object-49,temp_dist_trial,32.0,t_s_24_1,travel_shared,ear plugs,5.0,competing,paired,t_s_24_1.jpg,Travel,$${counterbalance_group},,sub-79
Desktop or Laptop,Mac OS 10.15.7,Chrome 138.0.0.0,1440x900,1440x876,Temporal Distance Task,cb_05,80.0,temp_dist_trial,dist_items,qkpkxw,2.0,info,,7.000000001513399,0.0,7.000000001513399,7.000000001513399,0.0,7.000000001513399,1.0,0.0,0.0,,Slider,Slider,4.0,object-56,temp_dist_trial,32.0,t_s_24_1,travel_shared,ear plugs,5.0,competing,paired,t_s_24_1.jpg,Travel,$${counterbalance_group},,sub-79
Desktop or Laptop,Mac OS 10.15.7,Chrome 138.0.0.0,1440x900,1440x876,Temporal Distance Task,cb_05,80.0,temp_dist_trial,dist_items,qkpkxw,2.0,continue,,5814.3000000022585,5800.0,5814.3000000022585,5814.3000000022585,5800.0,5814.3000000022585,1.0,0.0,0.0,,Click To Continue,Next button,7.0,object-60,temp_dist_trial,32.0,t_s_24_1,travel_shared,ear plugs,5.0,competing,paired,t_s_24_1.jpg,Travel,$${counterbalance_group},,sub-79
Desktop or Laptop,Mac OS 10.15.7,Chrome 138.0.0.0,1440x900,1440x876,Temporal Distance Task,cb_05,80.0,temp_dist_trial,dist_items,qkpkxw,2.0,response,37,816.4000000000232,5800.0,5817.5,816.4000000000232,5800.0,5817.5,1.0,5001.099999999977,0.0,,Slider,Slider,4.0,object-56,temp_dist_trial,32.0,t_s_24_1,travel_shared,ear plugs,5.0,competing,paired,t_s_24_1.jpg,Travel,$${counterbalance_group},,sub-79
Desktop or Laptop,Mac OS 10.15.7,Chrome 138.0.0.0,1440x900,1440x876,Temporal Distance Task,cb_05,81.0,temp_dist_trial,num_items,zn7si1,1.0,response,1_ITEM,2179.0999999992778,2165.8000000000466,2179.0999999992778,2179.0999999992778,2165.8000000000466,2179.0999999992778,1.0,0.0,0.0,,Click Response,1_count,3.0,object-46,temp_dist_trial,33.0,t_s_09_1,travel_shared,wallet,5.0,competing,single,t_s_09_1.jpg,Travel,$${counterbalance_group},,sub-79
Desktop or Laptop,Mac OS 10.15.7,Chrome 138.0.0.0,1440x900,1440x876,Temporal Distance Task,cb_05,82.0,temp_dist_trial,num_items,zn7si1,1.0,response,1_ITEM,1098.1000000007334,1083.399999999965,1098.1000000007334,1098.1000000007334,1083.399999999965,1098.1000000007334,1.0,0.0,0.0,,Click Response,1_count,3.0,object-46,temp_dist_trial,34.0,t_i_15_1,travel_Iceland,compass,5.0,unique,single,t_i_15_1.jpg,Travel,$${counterbalance_group},,sub-79
Desktop or Laptop,Mac OS 10.15.7,Chrome 138.0.0.0,1440x900,1440x876,Temporal Distance Task,cb_05,83.0,temp_dist_trial,num_items,zn7si1,1.0,response,1_ITEM,1230.9000000022352,1216.7000000000114,1230.9000000022352,1230.9000000022352,1216.7000000000114,1230.9000000022352,1.0,0.0,0.0,,Click Response,1_count,3.0,object-46,temp_dist_trial,35.0,t_m_13_1,travel_Miami,floatie,5.0,unique,paired,t_m_13_1.jpg,Travel,$${counterbalance_group},,sub-79
Desktop or Laptop,Mac OS 10.15.7,Chrome 138.0.0.0,1440x900,1440x876,Temporal Distance Task,cb_05,84.0,temp_dist_trial,num_items,zn7si1,1.0,response,1_ITEM,1881.7000000022235,1866.5999999999767,1881.7000000022235,1881.7000000022235,1866.5999999999767,1881.7000000022235,1.0,0.0,0.0,,Click Response,1_count,3.0,object-46,temp_dist_trial,36.0,t_i_05_1,travel_Iceland,hiking boots,5.0,unique,single,t_i_05_1.jpg,Travel,$${counterbalance_group},,sub-79
Desktop or Laptop,Mac OS 10.15.7,Chrome 138.0.0.0,1440x900,1440x876,Temporal Distance Task,cb_05,85.0,temp_dist_trial,num_items,zn7si1,1.0,response,1_ITEM,1347.2999999992317,1333.0999999999767,1347.2999999992317,1347.2999999992317,1333.0999999999767,1347.2999999992317,1.0,0.0,0.0,,Click Response,1_count,3.0,object-46,temp_dist_trial,37.0,t_i_09_1,travel_Iceland,ear muffs,5.0,unique,single,t_i_09_1.jpg,Travel,$${counterbalance_group},,sub-79
Desktop or Laptop,Mac OS 10.15.7,Chrome 138.0.0.0,1440x900,1440x876,Temporal Distance Task,cb_05,86.0,temp_dist_trial,num_items,zn7si1,1.0,response,2_ITEM,1498.2999999999884,1483.3999999999646,1498.2999999999884,1498.2999999999884,1483.3999999999646,1498.2999999999884,1.0,0.0,0.0,,Click Response,2_count,5.0,object-49,temp_dist_trial,38.0,t_s_08_1,travel_shared,hand lotion,5.0,competing,paired,t_s_08_1.jpg,Travel,$${counterbalance_group},,sub-79
Desktop or Laptop,Mac OS 10.15.7,Chrome 138.0.0.0,1440x900,1440x876,Temporal Distance Task,cb_05,86.0,temp_dist_trial,dist_items,qkpkxw,2.0,info,,6.300000002258457,0.0,6.300000002258457,6.300000002258457,0.0,6.300000002258457,1.0,0.0,0.0,,Slider,Slider,4.0,object-56,temp_dist_trial,38.0,t_s_08_1,travel_shared,hand lotion,5.0,competing,paired,t_s_08_1.jpg,Travel,$${counterbalance_group},,sub-79
Desktop or Laptop,Mac OS 10.15.7,Chrome 138.0.0.0,1440x900,1440x876,Temporal Distance Task,cb_05,86.0,temp_dist_trial,dist_items,qkpkxw,2.0,continue,,2699.7999999999884,2683.200000000012,2699.7999999999884,2699.7999999999884,2683.200000000012,2699.7999999999884,1.0,0.0,0.0,,Click To Continue,Next button,7.0,object-60,temp_dist_trial,38.0,t_s_08_1,travel_shared,hand lotion,5.0,competing,paired,t_s_08_1.jpg,Travel,$${counterbalance_group},,sub-79
Desktop or Laptop,Mac OS 10.15.7,Chrome 138.0.0.0,1440x900,1440x876,Temporal Distance Task,cb_05,86.0,temp_dist_trial,dist_items,qkpkxw,2.0,response,72,1600.0,2683.200000000012,2699.7999999999884,1600.0,2683.200000000012,2699.7999999999884,1.0,1099.7999999999884,0.0,,Slider,Slider,4.0,object-56,temp_dist_trial,38.0,t_s_08_1,travel_shared,hand lotion,5.0,competing,paired,t_s_08_1.jpg,Travel,$${counterbalance_group},,sub-79
Desktop or Laptop,Mac OS 10.15.7,Chrome 138.0.0.0,1440x900,1440x876,Temporal Distance Task,cb_05,87.0,temp_dist_trial,num_items,zn7si1,1.0,response,1_ITEM,1097.8999999992666,1083.4000000000233,1097.8999999992666,1097.8999999992666,1083.4000000000233,1097.8999999992666,1.0,0.0,0.0,,Click Response,1_count,3.0,object-46,temp_dist_trial,39.0,t_s_11_1,travel_shared,eye mask,5.0,competing,paired,t_s_11_1.jpg,Travel,$${counterbalance_group},,sub-79
Desktop or Laptop,Mac OS 10.15.7,Chrome 138.0.0.0,1440x900,1440x876,Temporal Distance Task,cb_05,88.0,temp_dist_trial,num_items,zn7si1,1.0,response,1_ITEM,1815.9000000014785,1799.8999999999646,1815.9000000014785,1815.9000000014785,1799.8999999999646,1815.9000000014785,1.0,0.0,0.0,,Click Response,1_count,3.0,object-46,temp_dist_trial,40.0,t_m_02_1,travel_Miami,t-shirt,5.0,unique,single,t_m_02_1.jpg,Travel,$${counterbalance_group},,sub-79
Desktop or Laptop,Mac OS 10.15.7,Chrome 138.0.0.0,1440x900,1440x876,Temporal Distance Task,cb_05,89.0,temp_dist_trial,num_items,zn7si1,1.0,response,1_ITEM,2347.000000001513,2333.4000000000233,2347.000000001513,2347.000000001513,2333.4000000000233,2347.000000001513,1.0,0.0,0.0,,Click Response,1_count,3.0,object-46,temp_dist_trial,41.0,t_s_23_1,travel_shared,ball cap,5.0,competing,paired,t_s_23_1.jpg,Travel,$${counterbalance_group},,sub-79
Desktop or Laptop,Mac OS 10.15.7,Chrome 138.0.0.0,1440x900,1440x876,Temporal Distance Task,cb_05,90.0,temp_dist_trial,num_items,zn7si1,1.0,response,1_ITEM,1798.2000000014664,1783.3999999999646,1798.2000000014664,1798.2000000014664,1783.3999999999646,1798.2000000014664,1.0,0.0,0.0,,Click Response,1_count,3.0,object-46,temp_dist_trial,42.0,t_s_13_1,travel_shared,contact lens case,5.0,competing,paired,t_s_13_1.jpg,Travel,$${counterbalance_group},,sub-79
Desktop or Laptop,Mac OS 10.15.7,Chrome 138.0.0.0,1440x900,1440x876,Temporal Distance Task,cb_05,91.0,temp_dist_trial,num_items,zn7si1,1.0,response,2_ITEM,947.7000000000116,933.2999999999884,947.7000000000116,947.7000000000116,933.2999999999884,947.7000000000116,1.0,0.0,0.0,,Click Response,2_count,5.0,object-49,temp_dist_trial,43.0,t_s_06_1,travel_shared,luggage,5.0,competing,single,t_s_06_1.jpg,Travel,$${counterbalance_group},,sub-79
Desktop or Laptop,Mac OS 10.15.7,Chrome 138.0.0.0,1440x900,1440x876,Temporal Distance Task,cb_05,91.0,temp_dist_trial,dist_items,qkpkxw,2.0,info,,7.7999999999883585,0.0,7.7999999999883585,7.7999999999883585,0.0,7.7999999999883585,1.0,0.0,0.0,,Slider,Slider,4.0,object-56,temp_dist_trial,43.0,t_s_06_1,travel_shared,luggage,5.0,competing,single,t_s_06_1.jpg,Travel,$${counterbalance_group},,sub-79
Desktop or Laptop,Mac OS 10.15.7,Chrome 138.0.0.0,1440x900,1440x876,Temporal Distance Task,cb_05,91.0,temp_dist_trial,dist_items,qkpkxw,2.0,continue,,2096.9999999992433,2083.2999999999884,2096.9999999992433,2096.9999999992433,2083.2999999999884,2096.9999999992433,1.0,0.0,0.0,,Click To Continue,Next button,7.0,object-60,temp_dist_trial,43.0,t_s_06_1,travel_shared,luggage,5.0,competing,single,t_s_06_1.jpg,Travel,$${counterbalance_group},,sub-79
Desktop or Laptop,Mac OS 10.15.7,Chrome 138.0.0.0,1440x900,1440x876,Temporal Distance Task,cb_05,91.0,temp_dist_trial,dist_items,qkpkxw,2.0,response,37,766.5999999999768,2083.2999999999884,2097.6000000007334,766.5999999999768,2083.2999999999884,2097.6000000007334,1.0,1331.0000000007567,0.0,,Slider,Slider,4.0,object-56,temp_dist_trial,43.0,t_s_06_1,travel_shared,luggage,5.0,competing,single,t_s_06_1.jpg,Travel,$${counterbalance_group},,sub-79
