Participant Device,Participant OS,Participant Browser,Participant Monitor Size,Participant Viewport Size,Task Name,Current Spreadsheet,Trial Number,Display,Screen,Screen ID,Screen Counter,Response Type,Response,Onset Time,Clock Time,Reaction Time,Absolute Onset Time,Absolute Clock Time,Absolute Reaction Time,Correct,Response Duration,Proportion,Tag,Component Name,Object Name,Object Number,Object ID,Spreadsheet: display,Spreadsheet: trial,Spreadsheet: stimulus_id,Spreadsheet: expected_goal,Spreadsheet: stimulus_name,Spreadsheet: c_group,Spreadsheet: condition,Spreadsheet: paired_status,Spreadsheet: stimulus_path,Spreadsheet: block_type,Manipulation: Spreadsheet,Store: enc_test_acc,sub_label
Desktop or Laptop,Windows 10,Firefox 140.0,1920x1080,1920x918,Temporal Distance Task,$${counterbalance_group},,,,,,info,BEGIN,,,,,,,0.0,,,,,,,,,,,,,,,,,,,,sub-45
Desktop or Laptop,Windows 10,Firefox 140.0,1920x1080,1920x918,Temporal Distance Task,cb_09,1.0,temp_instructions,intro_screen,3tnme7,1.0,continue,,23435.74,23419.08,23435.74,23435.74,23419.08,23435.74,1.0,0.0,0.0,,Click To Continue,Continue Button,4.0,object-29,temp_instructions,,,Student,,,,,,,,,sub-45
Desktop or Laptop,Windows 10,Firefox 140.0,1920x1080,1920x918,Temporal Distance Task,cb_09,1.0,temp_instructions,intro_screen_2,52v7ur,2.0,continue,,15902.44,15891.7,15902.44,15902.44,15891.7,15902.44,1.0,0.0,0.0,,Click To Continue,Continue Button,4.0,object-39,temp_instructions,,,Student,,,,,,,,,sub-45
Desktop or Laptop,Windows 10,Firefox 140.0,1920x1080,1920x918,Temporal Distance Task,cb_09,1.0,temp_instructions,intro_screen_3,i7lvwx,3.0,continue,,4014.739999999998,4004.5799999999945,4014.739999999998,4014.739999999998,4004.5799999999945,4014.739999999998,1.0,0.0,0.0,,Click To Continue,Continue Button,4.0,object-67,temp_instructions,,,Student,,,,,,,,,sub-45
Desktop or Laptop,Windows 10,Firefox 140.0,1920x1080,1920x918,Temporal Distance Task,cb_09,1.0,temp_instructions,test_q1,5ieqx1,4.0,response,choice_3,2725.1600000000035,2721.480000000003,2725.1600000000035,2725.1600000000035,2721.480000000003,2725.1600000000035,1.0,0.0,0.0,,Click Response,choice_3,5.0,object-345,temp_instructions,,,Student,,,,,,,,,sub-45
Desktop or Laptop,Windows 10,Firefox 140.0,1920x1080,1920x918,Temporal Distance Task,cb_09,1.0,temp_instructions,score_corr,7ilvjr,5.0,continue,,1112.6800000000003,1101.9400000000023,1112.6800000000003,1112.6800000000003,1101.9400000000023,1112.6800000000003,1.0,0.0,0.0,,Click To Continue,Continue Button,3.0,object-23,temp_instructions,,,Student,,,,,,,,,sub-45
Desktop or Laptop,Windows 10,Firefox 140.0,1920x1080,1920x918,Temporal Distance Task,cb_09,1.0,temp_eventStart,Screen 1,dgtyxe,1.0,continue,,1371.739999999998,1368.5799999999945,1371.739999999998,1371.739999999998,1368.5799999999945,1371.739999999998,1.0,0.0,0.0,,Click To Continue,Next Button,3.0,object-43,temp_eventStart,,,Student,,,,,,,,,sub-45
Desktop or Laptop,Windows 10,Firefox 140.0,1920x1080,1920x918,Temporal Distance Task,cb_09,1.0,temp_dist_trial,num_items,zn7si1,1.0,response,1_ITEM,1202.0199999999968,1185.3600000000004,1202.0199999999968,1202.0199999999968,1185.3600000000004,1202.0199999999968,1.0,0.0,0.0,,Click Response,1_count,3.0,object-46,temp_dist_trial,1.0,s_a_05_1,student_art,clay,9.0,unique,paired,s_a_05_1.jpg,Student,,,sub-45
Desktop or Laptop,Windows 10,Firefox 140.0,1920x1080,1920x918,Temporal Distance Task,cb_09,2.0,temp_dist_trial,num_items,zn7si1,1.0,response,1_ITEM,1802.8000000000034,1786.9000000000015,1802.8000000000034,1802.8000000000034,1786.9000000000015,1802.8000000000034,1.0,0.0,0.0,,Click Response,1_count,3.0,object-46,temp_dist_trial,2.0,s_sh_23_1,student_shared,ballpoint pen,9.0,competing,single,s_sh_23_1.jpg,Student,,,sub-45
Desktop or Laptop,Windows 10,Firefox 140.0,1920x1080,1920x918,Temporal Distance Task,cb_09,3.0,temp_dist_trial,num_items,zn7si1,1.0,response,1_ITEM,1878.9000000000005,1869.82,1878.9000000000005,1878.9000000000005,1869.82,1878.9000000000005,1.0,0.0,0.0,,Click Response,1_count,3.0,object-46,temp_dist_trial,3.0,s_s_11_1,student_stem,scientific scale,9.0,unique,single,s_s_11_1.jpg,Student,,,sub-45
Desktop or Laptop,Windows 10,Firefox 140.0,1920x1080,1920x918,Temporal Distance Task,cb_09,4.0,temp_dist_trial,num_items,zn7si1,1.0,response,2_ITEM,1259.0800000000015,1251.4400000000023,1259.0800000000015,1259.0800000000015,1251.4400000000023,1259.0800000000015,1.0,0.0,0.0,,Click Response,2_count,5.0,object-49,temp_dist_trial,4.0,s_sh_16_1,student_shared,stapler,9.0,competing,single,s_sh_16_1.jpg,Student,,,sub-45
Desktop or Laptop,Windows 10,Firefox 140.0,1920x1080,1920x918,Temporal Distance Task,cb_09,4.0,temp_dist_trial,dist_items,qkpkxw,2.0,info,,10.639999999999418,0.0,10.639999999999418,10.639999999999418,0.0,10.639999999999418,1.0,0.0,0.0,,Slider,Slider,4.0,object-56,temp_dist_trial,4.0,s_sh_16_1,student_shared,stapler,9.0,competing,single,s_sh_16_1.jpg,Student,,,sub-45
Desktop or Laptop,Windows 10,Firefox 140.0,1920x1080,1920x918,Temporal Distance Task,cb_09,4.0,temp_dist_trial,dist_items,qkpkxw,2.0,continue,,4828.6399999999985,4824.3399999999965,4828.6399999999985,4828.6399999999985,4824.3399999999965,4828.6399999999985,1.0,0.0,0.0,,Click To Continue,Next button,7.0,object-60,temp_dist_trial,4.0,s_sh_16_1,student_shared,stapler,9.0,competing,single,s_sh_16_1.jpg,Student,,,sub-45
Desktop or Laptop,Windows 10,Firefox 140.0,1920x1080,1920x918,Temporal Distance Task,cb_09,4.0,temp_dist_trial,dist_items,qkpkxw,2.0,response,83,1853.7799999999988,4824.3399999999965,4832.6399999999985,1853.7799999999988,4824.3399999999965,4832.6399999999985,1.0,2978.860000000001,0.0,,Slider,Slider,4.0,object-56,temp_dist_trial,4.0,s_sh_16_1,student_shared,stapler,9.0,competing,single,s_sh_16_1.jpg,Student,,,sub-45
Desktop or Laptop,Windows 10,Firefox 140.0,1920x1080,1920x918,Temporal Distance Task,cb_09,5.0,temp_dist_trial,num_items,zn7si1,1.0,response,2_ITEM,1200.3000000000031,1184.9000000000087,1200.3000000000031,1200.3000000000031,1184.9000000000087,1200.3000000000031,1.0,0.0,0.0,,Click Response,2_count,5.0,object-49,temp_dist_trial,5.0,s_sh_01_1,student_shared,notebook,9.0,competing,paired,s_sh_01_1.jpg,Student,,,sub-45
Desktop or Laptop,Windows 10,Firefox 140.0,1920x1080,1920x918,Temporal Distance Task,cb_09,5.0,temp_dist_trial,dist_items,qkpkxw,2.0,info,,9.039999999993595,0.0,9.039999999993595,9.039999999993595,0.0,9.039999999993595,1.0,0.0,0.0,,Slider,Slider,4.0,object-56,temp_dist_trial,5.0,s_sh_01_1,student_shared,notebook,9.0,competing,paired,s_sh_01_1.jpg,Student,,,sub-45
Desktop or Laptop,Windows 10,Firefox 140.0,1920x1080,1920x918,Temporal Distance Task,cb_09,5.0,temp_dist_trial,dist_items,qkpkxw,2.0,continue,,3049.039999999993,3038.519999999989,3049.039999999993,3049.039999999993,3038.519999999989,3049.039999999993,1.0,0.0,0.0,,Click To Continue,Next button,7.0,object-60,temp_dist_trial,5.0,s_sh_01_1,student_shared,notebook,9.0,competing,paired,s_sh_01_1.jpg,Student,,,sub-45
Desktop or Laptop,Windows 10,Firefox 140.0,1920x1080,1920x918,Temporal Distance Task,cb_09,5.0,temp_dist_trial,dist_items,qkpkxw,2.0,response,38,1235.1199999999953,3038.519999999989,3049.039999999993,1235.1199999999953,3038.519999999989,3049.039999999993,1.0,1813.9199999999985,0.0,,Slider,Slider,4.0,object-56,temp_dist_trial,5.0,s_sh_01_1,student_shared,notebook,9.0,competing,paired,s_sh_01_1.jpg,Student,,,sub-45
Desktop or Laptop,Windows 10,Firefox 140.0,1920x1080,1920x918,Temporal Distance Task,cb_09,6.0,temp_dist_trial,num_items,zn7si1,1.0,response,1_ITEM,1584.7600000000089,1568.1000000000058,1584.7600000000089,1584.7600000000089,1568.1000000000058,1584.7600000000089,1.0,0.0,0.0,,Click Response,1_count,3.0,object-46,temp_dist_trial,6.0,s_sh_19_1,student_shared,portable plastic drawer,9.0,competing,single,s_sh_19_1.jpg,Student,,,sub-45
Desktop or Laptop,Windows 10,Firefox 140.0,1920x1080,1920x918,Temporal Distance Task,cb_09,7.0,temp_dist_trial,num_items,zn7si1,1.0,response,1_ITEM,1001.4600000000064,984.8000000000028,1001.4600000000064,1001.4600000000064,984.8000000000028,1001.4600000000064,1.0,0.0,0.0,,Click Response,1_count,3.0,object-46,temp_dist_trial,7.0,s_sh_21_1,student_shared,file holder,9.0,competing,single,s_sh_21_1.jpg,Student,,,sub-45
Desktop or Laptop,Windows 10,Firefox 140.0,1920x1080,1920x918,Temporal Distance Task,cb_09,8.0,temp_dist_trial,num_items,zn7si1,1.0,response,2_ITEM,1163.6199999999953,1151.679999999993,1163.6199999999953,1163.6199999999953,1151.679999999993,1163.6199999999953,1.0,0.0,0.0,,Click Response,2_count,5.0,object-49,temp_dist_trial,8.0,s_a_18_1,student_art,tutu,9.0,unique,paired,s_a_18_1.jpg,Student,,,sub-45
Desktop or Laptop,Windows 10,Firefox 140.0,1920x1080,1920x918,Temporal Distance Task,cb_09,8.0,temp_dist_trial,dist_items,qkpkxw,2.0,info,,5.419999999998254,0.0,5.419999999998254,5.419999999998254,0.0,5.419999999998254,1.0,0.0,0.0,,Slider,Slider,4.0,object-56,temp_dist_trial,8.0,s_a_18_1,student_art,tutu,9.0,unique,paired,s_a_18_1.jpg,Student,,,sub-45
Desktop or Laptop,Windows 10,Firefox 140.0,1920x1080,1920x918,Temporal Distance Task,cb_09,8.0,temp_dist_trial,dist_items,qkpkxw,2.0,continue,,2774.4199999999987,2770.0800000000013,2774.4199999999987,2774.4199999999987,2770.0800000000013,2774.4199999999987,1.0,0.0,0.0,,Click To Continue,Next button,7.0,object-60,temp_dist_trial,8.0,s_a_18_1,student_art,tutu,9.0,unique,paired,s_a_18_1.jpg,Student,,,sub-45
Desktop or Laptop,Windows 10,Firefox 140.0,1920x1080,1920x918,Temporal Distance Task,cb_09,8.0,temp_dist_trial,dist_items,qkpkxw,2.0,response,23,984.8000000000028,2770.0800000000013,2776.4199999999987,984.8000000000028,2770.0800000000013,2776.4199999999987,1.0,1791.6199999999951,0.0,,Slider,Slider,4.0,object-56,temp_dist_trial,8.0,s_a_18_1,student_art,tutu,9.0,unique,paired,s_a_18_1.jpg,Student,,,sub-45
Desktop or Laptop,Windows 10,Firefox 140.0,1920x1080,1920x918,Temporal Distance Task,cb_09,9.0,temp_dist_trial,num_items,zn7si1,1.0,response,2_ITEM,1575.3399999999967,1568.4400000000023,1575.3399999999967,1575.3399999999967,1568.4400000000023,1575.3399999999967,1.0,0.0,0.0,,Click Response,2_count,5.0,object-49,temp_dist_trial,9.0,s_s_07_1,student_stem,periodic table,9.0,unique,paired,s_s_07_1.jpg,Student,,,sub-45
Desktop or Laptop,Windows 10,Firefox 140.0,1920x1080,1920x918,Temporal Distance Task,cb_09,9.0,temp_dist_trial,dist_items,qkpkxw,2.0,info,,8.259999999994761,0.0,8.259999999994761,8.259999999994761,0.0,8.259999999994761,1.0,0.0,0.0,,Slider,Slider,4.0,object-56,temp_dist_trial,9.0,s_s_07_1,student_stem,periodic table,9.0,unique,paired,s_s_07_1.jpg,Student,,,sub-45
Desktop or Laptop,Windows 10,Firefox 140.0,1920x1080,1920x918,Temporal Distance Task,cb_09,9.0,temp_dist_trial,dist_items,qkpkxw,2.0,continue,,2477.259999999995,2469.87999999999,2477.259999999995,2477.259999999995,2469.87999999999,2477.259999999995,1.0,0.0,0.0,,Click To Continue,Next button,7.0,object-60,temp_dist_trial,9.0,s_s_07_1,student_stem,periodic table,9.0,unique,paired,s_s_07_1.jpg,Student,,,sub-45
Desktop or Laptop,Windows 10,Firefox 140.0,1920x1080,1920x918,Temporal Distance Task,cb_09,9.0,temp_dist_trial,dist_items,qkpkxw,2.0,response,69,1101.3399999999963,2469.87999999999,2478.259999999995,1101.3399999999963,2469.87999999999,2478.259999999995,1.0,1376.9199999999985,0.0,,Slider,Slider,4.0,object-56,temp_dist_trial,9.0,s_s_07_1,student_stem,periodic table,9.0,unique,paired,s_s_07_1.jpg,Student,,,sub-45
Desktop or Laptop,Windows 10,Firefox 140.0,1920x1080,1920x918,Temporal Distance Task,cb_09,10.0,temp_dist_trial,num_items,zn7si1,1.0,response,1_ITEM,1556.3800000000049,1553.2000000000116,1556.3800000000049,1556.3800000000049,1553.2000000000116,1556.3800000000049,1.0,0.0,0.0,,Click Response,1_count,3.0,object-46,temp_dist_trial,10.0,s_sh_02_1,student_shared,eraser,9.0,competing,single,s_sh_02_1.jpg,Student,,,sub-45
Desktop or Laptop,Windows 10,Firefox 140.0,1920x1080,1920x918,Temporal Distance Task,cb_09,11.0,temp_dist_trial,num_items,zn7si1,1.0,response,1_ITEM,2925.1799999999935,2921.5,2925.1799999999935,2925.1799999999935,2921.5,2925.1799999999935,1.0,0.0,0.0,,Click Response,1_count,3.0,object-46,temp_dist_trial,11.0,s_sh_06_1,student_shared,clipboard,9.0,competing,paired,s_sh_06_1.jpg,Student,,,sub-45
Desktop or Laptop,Windows 10,Firefox 140.0,1920x1080,1920x918,Temporal Distance Task,cb_09,12.0,temp_dist_trial,num_items,zn7si1,1.0,response,2_ITEM,1905.6999999999966,1901.8799999999896,1905.6999999999966,1905.6999999999966,1901.8799999999896,1905.6999999999966,1.0,0.0,0.0,,Click Response,2_count,5.0,object-49,temp_dist_trial,12.0,s_sh_17_1,student_shared,wireless mouse,9.0,competing,paired,s_sh_17_1.jpg,Student,,,sub-45
Desktop or Laptop,Windows 10,Firefox 140.0,1920x1080,1920x918,Temporal Distance Task,cb_09,12.0,temp_dist_trial,dist_items,qkpkxw,2.0,info,,7.179999999993013,0.0,7.179999999993013,7.179999999993013,0.0,7.179999999993013,1.0,0.0,0.0,,Slider,Slider,4.0,object-56,temp_dist_trial,12.0,s_sh_17_1,student_shared,wireless mouse,9.0,competing,paired,s_sh_17_1.jpg,Student,,,sub-45
Desktop or Laptop,Windows 10,Firefox 140.0,1920x1080,1920x918,Temporal Distance Task,cb_09,12.0,temp_dist_trial,dist_items,qkpkxw,2.0,continue,,2807.1799999999935,2803.8999999999933,2807.1799999999935,2807.1799999999935,2803.8999999999933,2807.1799999999935,1.0,0.0,0.0,,Click To Continue,Next button,7.0,object-60,temp_dist_trial,12.0,s_sh_17_1,student_shared,wireless mouse,9.0,competing,paired,s_sh_17_1.jpg,Student,,,sub-45
Desktop or Laptop,Windows 10,Firefox 140.0,1920x1080,1920x918,Temporal Distance Task,cb_09,12.0,temp_dist_trial,dist_items,qkpkxw,2.0,response,72,983.3399999999964,2803.8999999999933,2807.1799999999935,983.3399999999964,2803.8999999999933,2807.1799999999935,1.0,1823.8399999999967,0.0,,Slider,Slider,4.0,object-56,temp_dist_trial,12.0,s_sh_17_1,student_shared,wireless mouse,9.0,competing,paired,s_sh_17_1.jpg,Student,,,sub-45
Desktop or Laptop,Windows 10,Firefox 140.0,1920x1080,1920x918,Temporal Distance Task,cb_09,13.0,temp_dist_trial,num_items,zn7si1,1.0,response,num_miss,3004.1000000000067,3004.1000000000067,3004.1000000000067,3004.1000000000067,3004.1000000000067,3004.1000000000067,1.0,0.0,0.0,num_miss_tag,Time Limit,screen,0.0,screen,temp_dist_trial,13.0,s_s_20_1,student_stem,dna model,9.0,unique,single,s_s_20_1.jpg,Student,,,sub-45
Desktop or Laptop,Windows 10,Firefox 140.0,1920x1080,1920x918,Temporal Distance Task,cb_09,14.0,temp_dist_trial,num_items,zn7si1,1.0,response,1_ITEM,1184.9400000000023,1168.2799999999988,1184.9400000000023,1184.9400000000023,1168.2799999999988,1184.9400000000023,1.0,0.0,0.0,,Click Response,1_count,3.0,object-46,temp_dist_trial,14.0,s_s_16_1,student_stem,toolbox,9.0,unique,single,s_s_16_1.jpg,Student,,,sub-45
Desktop or Laptop,Windows 10,Firefox 140.0,1920x1080,1920x918,Temporal Distance Task,cb_09,15.0,temp_dist_trial,num_items,zn7si1,1.0,response,1_ITEM,1060.0599999999977,1051.4199999999983,1060.0599999999977,1060.0599999999977,1051.4199999999983,1060.0599999999977,1.0,0.0,0.0,,Click Response,1_count,3.0,object-46,temp_dist_trial,15.0,s_a_07_1,student_art,yarn,9.0,unique,single,s_a_07_1.jpg,Student,,,sub-45
Desktop or Laptop,Windows 10,Firefox 140.0,1920x1080,1920x918,Temporal Distance Task,cb_09,16.0,temp_dist_trial,num_items,zn7si1,1.0,response,2_ITEM,1034.6399999999994,1018.2599999999948,1034.6399999999994,1034.6399999999994,1018.2599999999948,1034.6399999999994,1.0,0.0,0.0,,Click Response,2_count,5.0,object-49,temp_dist_trial,16.0,s_sh_13_1,student_shared,index cards,9.0,competing,paired,s_sh_13_1.jpg,Student,,,sub-45
Desktop or Laptop,Windows 10,Firefox 140.0,1920x1080,1920x918,Temporal Distance Task,cb_09,16.0,temp_dist_trial,dist_items,qkpkxw,2.0,info,,7.3800000000046575,0.0,7.3800000000046575,7.3800000000046575,0.0,7.3800000000046575,1.0,0.0,0.0,,Slider,Slider,4.0,object-56,temp_dist_trial,16.0,s_sh_13_1,student_shared,index cards,9.0,competing,paired,s_sh_13_1.jpg,Student,,,sub-45
Desktop or Laptop,Windows 10,Firefox 140.0,1920x1080,1920x918,Temporal Distance Task,cb_09,16.0,temp_dist_trial,dist_items,qkpkxw,2.0,continue,,1652.3800000000049,1636.7400000000052,1652.3800000000049,1652.3800000000049,1636.7400000000052,1652.3800000000049,1.0,0.0,0.0,,Click To Continue,Next button,7.0,object-60,temp_dist_trial,16.0,s_sh_13_1,student_shared,index cards,9.0,competing,paired,s_sh_13_1.jpg,Student,,,sub-45
Desktop or Laptop,Windows 10,Firefox 140.0,1920x1080,1920x918,Temporal Distance Task,cb_09,16.0,temp_dist_trial,dist_items,qkpkxw,2.0,response,67,884.8600000000006,1636.7400000000052,1653.3800000000049,884.8600000000006,1636.7400000000052,1653.3800000000049,1.0,768.5200000000041,0.0,,Slider,Slider,4.0,object-56,temp_dist_trial,16.0,s_sh_13_1,student_shared,index cards,9.0,competing,paired,s_sh_13_1.jpg,Student,,,sub-45
Desktop or Laptop,Windows 10,Firefox 140.0,1920x1080,1920x918,Temporal Distance Task,cb_09,17.0,temp_dist_trial,num_items,zn7si1,1.0,response,1_ITEM,1138.6399999999996,1134.8000000000031,1138.6399999999996,1138.6399999999996,1134.8000000000031,1138.6399999999996,1.0,0.0,0.0,,Click Response,1_count,3.0,object-46,temp_dist_trial,17.0,s_a_17_1,student_art,microphone,9.0,unique,paired,s_a_17_1.jpg,Student,,,sub-45
Desktop or Laptop,Windows 10,Firefox 140.0,1920x1080,1920x918,Temporal Distance Task,cb_09,18.0,temp_dist_trial,num_items,zn7si1,1.0,response,1_ITEM,1083.8399999999963,1068.479999999996,1083.8399999999963,1083.8399999999963,1068.479999999996,1083.8399999999963,1.0,0.0,0.0,,Click Response,1_count,3.0,object-46,temp_dist_trial,18.0,s_s_02_1,student_stem,flask,9.0,unique,paired,s_s_02_1.jpg,Student,,,sub-45
Desktop or Laptop,Windows 10,Firefox 140.0,1920x1080,1920x918,Temporal Distance Task,cb_09,19.0,temp_dist_trial,num_items,zn7si1,1.0,response,1_ITEM,947.3600000000006,934.8800000000048,947.3600000000006,947.3600000000006,934.8800000000048,947.3600000000006,1.0,0.0,0.0,,Click Response,1_count,3.0,object-46,temp_dist_trial,19.0,s_a_19_1,student_art,ballet shoes,9.0,unique,paired,s_a_19_1.jpg,Student,,,sub-45
Desktop or Laptop,Windows 10,Firefox 140.0,1920x1080,1920x918,Temporal Distance Task,cb_09,20.0,temp_dist_trial,num_items,zn7si1,1.0,response,1_ITEM,1095.479999999996,1085.0399999999936,1095.479999999996,1095.479999999996,1085.0399999999936,1095.479999999996,1.0,0.0,0.0,,Click Response,1_count,3.0,object-46,temp_dist_trial,20.0,s_sh_12_1,student_shared,binder,9.0,competing,paired,s_sh_12_1.jpg,Student,,,sub-45
Desktop or Laptop,Windows 10,Firefox 140.0,1920x1080,1920x918,Temporal Distance Task,cb_09,21.0,temp_dist_trial,num_items,zn7si1,1.0,response,1_ITEM,945.320000000007,933.3000000000028,945.320000000007,945.320000000007,933.3000000000028,945.320000000007,1.0,0.0,0.0,,Click Response,1_count,3.0,object-46,temp_dist_trial,21.0,s_a_12_1,student_art,saxophone,9.0,unique,paired,s_a_12_1.jpg,Student,,,sub-45
Desktop or Laptop,Windows 10,Firefox 140.0,1920x1080,1920x918,Temporal Distance Task,cb_09,22.0,temp_dist_trial,num_items,zn7si1,1.0,response,2_ITEM,1066.020000000004,1051.4800000000105,1066.020000000004,1066.020000000004,1051.4800000000105,1066.020000000004,1.0,0.0,0.0,,Click Response,2_count,5.0,object-49,temp_dist_trial,22.0,s_sh_22_1,student_shared,hole puncher,9.0,competing,paired,s_sh_22_1.jpg,Student,,,sub-45
Desktop or Laptop,Windows 10,Firefox 140.0,1920x1080,1920x918,Temporal Distance Task,cb_09,22.0,temp_dist_trial,dist_items,qkpkxw,2.0,info,,7.039999999993597,0.0,7.039999999993597,7.039999999993597,0.0,7.039999999993597,1.0,0.0,0.0,,Slider,Slider,4.0,object-56,temp_dist_trial,22.0,s_sh_22_1,student_shared,hole puncher,9.0,competing,paired,s_sh_22_1.jpg,Student,,,sub-45
Desktop or Laptop,Windows 10,Firefox 140.0,1920x1080,1920x918,Temporal Distance Task,cb_09,22.0,temp_dist_trial,dist_items,qkpkxw,2.0,continue,,1943.0399999999936,1936.679999999993,1943.0399999999936,1943.0399999999936,1936.679999999993,1943.0399999999936,1.0,0.0,0.0,,Click To Continue,Next button,7.0,object-60,temp_dist_trial,22.0,s_sh_22_1,student_shared,hole puncher,9.0,competing,paired,s_sh_22_1.jpg,Student,,,sub-45
Desktop or Laptop,Windows 10,Firefox 140.0,1920x1080,1920x918,Temporal Distance Task,cb_09,22.0,temp_dist_trial,dist_items,qkpkxw,2.0,response,65,1051.6399999999994,1936.679999999993,1945.0399999999936,1051.6399999999994,1936.679999999993,1945.0399999999936,1.0,893.3999999999942,0.0,,Slider,Slider,4.0,object-56,temp_dist_trial,22.0,s_sh_22_1,student_shared,hole puncher,9.0,competing,paired,s_sh_22_1.jpg,Student,,,sub-45
Desktop or Laptop,Windows 10,Firefox 140.0,1920x1080,1920x918,Temporal Distance Task,cb_09,23.0,temp_dist_trial,num_items,zn7si1,1.0,response,1_ITEM,1303.3600000000004,1301.2799999999988,1303.3600000000004,1303.3600000000004,1301.2799999999988,1303.3600000000004,1.0,0.0,0.0,,Click Response,1_count,3.0,object-46,temp_dist_trial,23.0,s_s_06_1,student_stem,calculator,9.0,unique,single,s_s_06_1.jpg,Student,,,sub-45
Desktop or Laptop,Windows 10,Firefox 140.0,1920x1080,1920x918,Temporal Distance Task,cb_09,24.0,temp_dist_trial,num_items,zn7si1,1.0,response,1_ITEM,1161.0800000000015,1151.5,1161.0800000000015,1161.0800000000015,1151.5,1161.0800000000015,1.0,0.0,0.0,,Click Response,1_count,3.0,object-46,temp_dist_trial,24.0,s_s_19_1,student_stem,circuit board,9.0,unique,paired,s_s_19_1.jpg,Student,,,sub-45
Desktop or Laptop,Windows 10,Firefox 140.0,1920x1080,1920x918,Temporal Distance Task,cb_09,25.0,temp_dist_trial,num_items,zn7si1,1.0,response,1_ITEM,1365.6000000000058,1353.1399999999996,1365.6000000000058,1365.6000000000058,1353.1399999999996,1365.6000000000058,1.0,0.0,0.0,,Click Response,1_count,3.0,object-46,temp_dist_trial,25.0,s_a_06_1,student_art,pastels,9.0,unique,single,s_a_06_1.jpg,Student,,,sub-45
Desktop or Laptop,Windows 10,Firefox 140.0,1920x1080,1920x918,Temporal Distance Task,cb_09,26.0,temp_dist_trial,num_items,zn7si1,1.0,response,1_ITEM,865.4600000000064,851.8800000000048,865.4600000000064,865.4600000000064,851.8800000000048,865.4600000000064,1.0,0.0,0.0,,Click Response,1_count,3.0,object-46,temp_dist_trial,26.0,s_a_01_1,student_art,paintbrush,9.0,unique,single,s_a_01_1.jpg,Student,,,sub-45
Desktop or Laptop,Windows 10,Firefox 140.0,1920x1080,1920x918,Temporal Distance Task,cb_09,27.0,temp_dist_trial,num_items,zn7si1,1.0,response,1_ITEM,1247.5800000000015,1235.1199999999953,1247.5800000000015,1247.5800000000015,1235.1199999999953,1247.5800000000015,1.0,0.0,0.0,,Click Response,1_count,3.0,object-46,temp_dist_trial,27.0,s_s_09_1,student_stem,multimeter,9.0,unique,paired,s_s_09_1.jpg,Student,,,sub-45
Desktop or Laptop,Windows 10,Firefox 140.0,1920x1080,1920x918,Temporal Distance Task,cb_09,28.0,temp_dist_trial,num_items,zn7si1,1.0,response,2_ITEM,1075.4600000000064,1068.2600000000093,1075.4600000000064,1075.4600000000064,1068.2600000000093,1075.4600000000064,1.0,0.0,0.0,,Click Response,2_count,5.0,object-49,temp_dist_trial,28.0,s_sh_03_1,student_shared,highlighter,9.0,competing,single,s_sh_03_1.jpg,Student,,,sub-45
Desktop or Laptop,Windows 10,Firefox 140.0,1920x1080,1920x918,Temporal Distance Task,cb_09,28.0,temp_dist_trial,dist_items,qkpkxw,2.0,info,,9.19999999999709,0.0,9.19999999999709,9.19999999999709,0.0,9.19999999999709,1.0,0.0,0.0,,Slider,Slider,4.0,object-56,temp_dist_trial,28.0,s_sh_03_1,student_shared,highlighter,9.0,competing,single,s_sh_03_1.jpg,Student,,,sub-45
Desktop or Laptop,Windows 10,Firefox 140.0,1920x1080,1920x918,Temporal Distance Task,cb_09,28.0,temp_dist_trial,dist_items,qkpkxw,2.0,continue,,2141.199999999997,2136.7799999999993,2141.199999999997,2141.199999999997,2136.7799999999993,2141.199999999997,1.0,0.0,0.0,,Click To Continue,Next button,7.0,object-60,temp_dist_trial,28.0,s_sh_03_1,student_shared,highlighter,9.0,competing,single,s_sh_03_1.jpg,Student,,,sub-45
Desktop or Laptop,Windows 10,Firefox 140.0,1920x1080,1920x918,Temporal Distance Task,cb_09,28.0,temp_dist_trial,dist_items,qkpkxw,2.0,response,79,852.0399999999936,2136.7799999999993,2143.199999999997,852.0399999999936,2136.7799999999993,2143.199999999997,1.0,1291.1600000000035,0.0,,Slider,Slider,4.0,object-56,temp_dist_trial,28.0,s_sh_03_1,student_shared,highlighter,9.0,competing,single,s_sh_03_1.jpg,Student,,,sub-45
Desktop or Laptop,Windows 10,Firefox 140.0,1920x1080,1920x918,Temporal Distance Task,cb_09,29.0,temp_dist_trial,num_items,zn7si1,1.0,response,1_ITEM,816.4199999999984,802.0,816.4199999999984,816.4199999999984,802.0,816.4199999999984,1.0,0.0,0.0,,Click Response,1_count,3.0,object-46,temp_dist_trial,29.0,s_sh_24_1,student_shared,desk organizer,9.0,competing,paired,s_sh_24_1.jpg,Student,,,sub-45
Desktop or Laptop,Windows 10,Firefox 140.0,1920x1080,1920x918,Temporal Distance Task,cb_09,30.0,temp_dist_trial,num_items,zn7si1,1.0,response,1_ITEM,1414.4199999999985,1401.520000000004,1414.4199999999985,1414.4199999999985,1401.520000000004,1414.4199999999985,1.0,0.0,0.0,,Click Response,1_count,3.0,object-46,temp_dist_trial,30.0,s_a_15_1,student_art,drum kit,9.0,unique,single,s_a_15_1.jpg,Student,,,sub-45
Desktop or Laptop,Windows 10,Firefox 140.0,1920x1080,1920x918,Temporal Distance Task,cb_09,31.0,temp_dist_trial,num_items,zn7si1,1.0,response,1_ITEM,1006.8999999999942,1002.1199999999952,1006.8999999999942,1006.8999999999942,1002.1199999999952,1006.8999999999942,1.0,0.0,0.0,,Click Response,1_count,3.0,object-46,temp_dist_trial,31.0,s_s_10_1,student_stem,3d molecule,9.0,unique,paired,s_s_10_1.jpg,Student,,,sub-45
Desktop or Laptop,Windows 10,Firefox 140.0,1920x1080,1920x918,Temporal Distance Task,cb_09,32.0,temp_dist_trial,num_items,zn7si1,1.0,response,1_ITEM,1631.7799999999988,1620.4199999999985,1631.7799999999988,1631.7799999999988,1620.4199999999985,1631.7799999999988,1.0,0.0,0.0,,Click Response,1_count,3.0,object-46,temp_dist_trial,32.0,s_sh_14_1,student_shared,printer,9.0,competing,paired,s_sh_14_1.jpg,Student,,,sub-45
Desktop or Laptop,Windows 10,Firefox 140.0,1920x1080,1920x918,Temporal Distance Task,cb_09,33.0,temp_dist_trial,num_items,zn7si1,1.0,response,2_ITEM,1215.3600000000004,1201.4400000000023,1215.3600000000004,1215.3600000000004,1201.4400000000023,1215.3600000000004,1.0,0.0,0.0,,Click Response,2_count,5.0,object-49,temp_dist_trial,33.0,s_s_15_1,student_stem,jumper cables,9.0,unique,paired,s_s_15_1.jpg,Student,,,sub-45
Desktop or Laptop,Windows 10,Firefox 140.0,1920x1080,1920x918,Temporal Distance Task,cb_09,33.0,temp_dist_trial,dist_items,qkpkxw,2.0,info,,6.919999999998254,0.0,6.919999999998254,6.919999999998254,0.0,6.919999999998254,1.0,0.0,0.0,,Slider,Slider,4.0,object-56,temp_dist_trial,33.0,s_s_15_1,student_stem,jumper cables,9.0,unique,paired,s_s_15_1.jpg,Student,,,sub-45
Desktop or Laptop,Windows 10,Firefox 140.0,1920x1080,1920x918,Temporal Distance Task,cb_09,33.0,temp_dist_trial,dist_items,qkpkxw,2.0,continue,,2266.9199999999983,2253.8800000000047,2266.9199999999983,2266.9199999999983,2253.8800000000047,2266.9199999999983,1.0,0.0,0.0,,Click To Continue,Next button,7.0,object-60,temp_dist_trial,33.0,s_s_15_1,student_stem,jumper cables,9.0,unique,paired,s_s_15_1.jpg,Student,,,sub-45
Desktop or Laptop,Windows 10,Firefox 140.0,1920x1080,1920x918,Temporal Distance Task,cb_09,33.0,temp_dist_trial,dist_items,qkpkxw,2.0,response,33,1052.0399999999936,2253.8800000000047,2267.9199999999983,1052.0399999999936,2253.8800000000047,2267.9199999999983,1.0,1215.8800000000047,0.0,,Slider,Slider,4.0,object-56,temp_dist_trial,33.0,s_s_15_1,student_stem,jumper cables,9.0,unique,paired,s_s_15_1.jpg,Student,,,sub-45
Desktop or Laptop,Windows 10,Firefox 140.0,1920x1080,1920x918,Temporal Distance Task,cb_09,34.0,temp_dist_trial,num_items,zn7si1,1.0,response,1_ITEM,1035.0399999999936,1018.4999999999852,1035.0399999999936,1035.0399999999936,1018.4999999999852,1035.0399999999936,1.0,0.0,0.0,,Click Response,1_count,3.0,object-46,temp_dist_trial,34.0,s_sh_10_1,student_shared,scissors,9.0,competing,paired,s_sh_10_1.jpg,Student,,,sub-45
Desktop or Laptop,Windows 10,Firefox 140.0,1920x1080,1920x918,Temporal Distance Task,cb_09,35.0,temp_dist_trial,num_items,zn7si1,1.0,response,1_ITEM,2103.040000000008,2086.3800000000047,2103.040000000008,2103.040000000008,2086.3800000000047,2103.040000000008,1.0,0.0,0.0,,Click Response,1_count,3.0,object-46,temp_dist_trial,35.0,s_sh_09_1,student_shared,paper clips,9.0,competing,paired,s_sh_09_1.jpg,Student,,,sub-45
Desktop or Laptop,Windows 10,Firefox 140.0,1920x1080,1920x918,Temporal Distance Task,cb_09,36.0,temp_dist_trial,num_items,zn7si1,1.0,response,1_ITEM,1227.1600000000035,1219.8999999999942,1227.1600000000035,1227.1600000000035,1219.8999999999942,1227.1600000000035,1.0,0.0,0.0,,Click Response,1_count,3.0,object-46,temp_dist_trial,36.0,s_a_14_1,student_art,guitar pick,9.0,unique,paired,s_a_14_1.jpg,Student,,,sub-45
Desktop or Laptop,Windows 10,Firefox 140.0,1920x1080,1920x918,Temporal Distance Task,cb_09,37.0,temp_dist_trial,num_items,zn7si1,1.0,response,2_ITEM,1048.2600000000093,1035.3399999999963,1048.2600000000093,1048.2600000000093,1035.3399999999963,1048.2600000000093,1.0,0.0,0.0,,Click Response,2_count,5.0,object-49,temp_dist_trial,37.0,s_a_02_1,student_art,canvas,9.0,unique,paired,s_a_02_1.jpg,Student,,,sub-45
Desktop or Laptop,Windows 10,Firefox 140.0,1920x1080,1920x918,Temporal Distance Task,cb_09,37.0,temp_dist_trial,dist_items,qkpkxw,2.0,info,,6.9200000000128075,0.0,6.9200000000128075,6.9200000000128075,0.0,6.9200000000128075,1.0,0.0,0.0,,Slider,Slider,4.0,object-56,temp_dist_trial,37.0,s_a_02_1,student_art,canvas,9.0,unique,paired,s_a_02_1.jpg,Student,,,sub-45
Desktop or Laptop,Windows 10,Firefox 140.0,1920x1080,1920x918,Temporal Distance Task,cb_09,37.0,temp_dist_trial,dist_items,qkpkxw,2.0,continue,,2050.9200000000133,2036.7200000000007,2050.9200000000133,2050.9200000000133,2036.7200000000007,2050.9200000000133,1.0,0.0,0.0,,Click To Continue,Next button,7.0,object-60,temp_dist_trial,37.0,s_a_02_1,student_art,canvas,9.0,unique,paired,s_a_02_1.jpg,Student,,,sub-45
Desktop or Laptop,Windows 10,Firefox 140.0,1920x1080,1920x918,Temporal Distance Task,cb_09,37.0,temp_dist_trial,dist_items,qkpkxw,2.0,response,41,650.0,2036.7200000000007,2050.9200000000133,650.0,2036.7200000000007,2050.9200000000133,1.0,1400.9200000000128,0.0,,Slider,Slider,4.0,object-56,temp_dist_trial,37.0,s_a_02_1,student_art,canvas,9.0,unique,paired,s_a_02_1.jpg,Student,,,sub-45
Desktop or Laptop,Windows 10,Firefox 140.0,1920x1080,1920x918,Temporal Distance Task,cb_09,38.0,temp_dist_trial,num_items,zn7si1,1.0,response,1_ITEM,812.2000000000116,799.9800000000105,812.2000000000116,812.2000000000116,799.9800000000105,812.2000000000116,1.0,0.0,0.0,,Click Response,1_count,3.0,object-46,temp_dist_trial,38.0,s_s_01_1,student_stem,microscope,9.0,unique,paired,s_s_01_1.jpg,Student,,,sub-45
Desktop or Laptop,Windows 10,Firefox 140.0,1920x1080,1920x918,Temporal Distance Task,cb_09,39.0,temp_dist_trial,num_items,zn7si1,1.0,response,1_ITEM,1424.2200000000012,1420.3600000000156,1424.2200000000012,1424.2200000000012,1420.3600000000156,1424.2200000000012,1.0,0.0,0.0,,Click Response,1_count,3.0,object-46,temp_dist_trial,39.0,s_sh_20_1,student_shared,tape,9.0,competing,paired,s_sh_20_1.jpg,Student,,,sub-45
Desktop or Laptop,Windows 10,Firefox 140.0,1920x1080,1920x918,Temporal Distance Task,cb_09,40.0,temp_dist_trial,num_items,zn7si1,1.0,response,1_ITEM,1222.859999999986,1218.2799999999988,1222.859999999986,1222.859999999986,1218.2799999999988,1222.859999999986,1.0,0.0,0.0,,Click Response,1_count,3.0,object-46,temp_dist_trial,40.0,s_sh_18_1,student_shared,wall calendar,9.0,competing,paired,s_sh_18_1.jpg,Student,,,sub-45
Desktop or Laptop,Windows 10,Firefox 140.0,1920x1080,1920x918,Temporal Distance Task,cb_09,41.0,temp_dist_trial,num_items,zn7si1,1.0,response,1_ITEM,906.5799999999872,901.679999999993,906.5799999999872,906.5799999999872,901.679999999993,906.5799999999872,1.0,0.0,0.0,,Click Response,1_count,3.0,object-46,temp_dist_trial,41.0,s_sh_11_1,student_shared,pencil case,9.0,competing,paired,s_sh_11_1.jpg,Student,,,sub-45
Desktop or Laptop,Windows 10,Firefox 140.0,1920x1080,1920x918,Temporal Distance Task,cb_09,42.0,temp_dist_trial,num_items,zn7si1,1.0,response,2_ITEM,1095.8999999999942,1085.0,1095.8999999999942,1095.8999999999942,1085.0,1095.8999999999942,1.0,0.0,0.0,,Click Response,2_count,5.0,object-49,temp_dist_trial,42.0,s_sh_04_1,student_shared,laptop stand,9.0,competing,paired,s_sh_04_1.jpg,Student,,,sub-45
Desktop or Laptop,Windows 10,Firefox 140.0,1920x1080,1920x918,Temporal Distance Task,cb_09,42.0,temp_dist_trial,dist_items,qkpkxw,2.0,info,,6.519999999989523,0.0,6.519999999989523,6.519999999989523,0.0,6.519999999989523,1.0,0.0,0.0,,Slider,Slider,4.0,object-56,temp_dist_trial,42.0,s_sh_04_1,student_shared,laptop stand,9.0,competing,paired,s_sh_04_1.jpg,Student,,,sub-45
Desktop or Laptop,Windows 10,Firefox 140.0,1920x1080,1920x918,Temporal Distance Task,cb_09,42.0,temp_dist_trial,dist_items,qkpkxw,2.0,continue,,1533.5199999999895,1518.0799999999872,1533.5199999999895,1533.5199999999895,1518.0799999999872,1533.5199999999895,1.0,0.0,0.0,,Click To Continue,Next button,7.0,object-60,temp_dist_trial,42.0,s_sh_04_1,student_shared,laptop stand,9.0,competing,paired,s_sh_04_1.jpg,Student,,,sub-45
Desktop or Laptop,Windows 10,Firefox 140.0,1920x1080,1920x918,Temporal Distance Task,cb_09,42.0,temp_dist_trial,dist_items,qkpkxw,2.0,response,66,633.3399999999965,1518.0799999999872,1533.5199999999895,633.3399999999965,1518.0799999999872,1533.5199999999895,1.0,900.179999999993,0.0,,Slider,Slider,4.0,object-56,temp_dist_trial,42.0,s_sh_04_1,student_shared,laptop stand,9.0,competing,paired,s_sh_04_1.jpg,Student,,,sub-45
Desktop or Laptop,Windows 10,Firefox 140.0,1920x1080,1920x918,Temporal Distance Task,cb_09,43.0,temp_dist_trial,num_items,zn7si1,1.0,response,2_ITEM,1072.4400000000023,1069.0199999999895,1072.4400000000023,1072.4400000000023,1069.0199999999895,1072.4400000000023,1.0,0.0,0.0,,Click Response,2_count,5.0,object-49,temp_dist_trial,43.0,s_s_08_1,student_stem,soldering iron,9.0,unique,paired,s_s_08_1.jpg,Student,,,sub-45
Desktop or Laptop,Windows 10,Firefox 140.0,1920x1080,1920x918,Temporal Distance Task,cb_09,43.0,temp_dist_trial,dist_items,qkpkxw,2.0,info,,7.4200000000128075,0.0,7.4200000000128075,7.4200000000128075,0.0,7.4200000000128075,1.0,0.0,0.0,,Slider,Slider,4.0,object-56,temp_dist_trial,43.0,s_s_08_1,student_stem,soldering iron,9.0,unique,paired,s_s_08_1.jpg,Student,,,sub-45
Desktop or Laptop,Windows 10,Firefox 140.0,1920x1080,1920x918,Temporal Distance Task,cb_09,43.0,temp_dist_trial,dist_items,qkpkxw,2.0,continue,,1723.4200000000128,1718.2400000000198,1723.4200000000128,1723.4200000000128,1718.2400000000198,1723.4200000000128,1.0,0.0,0.0,,Click To Continue,Next button,7.0,object-60,temp_dist_trial,43.0,s_s_08_1,student_stem,soldering iron,9.0,unique,paired,s_s_08_1.jpg,Student,,,sub-45
Desktop or Laptop,Windows 10,Firefox 140.0,1920x1080,1920x918,Temporal Distance Task,cb_09,43.0,temp_dist_trial,dist_items,qkpkxw,2.0,response,32,868.2400000000197,1718.2400000000198,1723.4200000000128,868.2400000000197,1718.2400000000198,1723.4200000000128,1.0,855.179999999993,0.0,,Slider,Slider,4.0,object-56,temp_dist_trial,43.0,s_s_08_1,student_stem,soldering iron,9.0,unique,paired,s_s_08_1.jpg,Student,,,sub-45
Desktop or Laptop,Windows 10,Firefox 140.0,1920x1080,1920x918,Temporal Distance Task,cb_09,44.0,temp_dist_trial,num_items,zn7si1,1.0,response,1_ITEM,1147.179999999993,1136.7200000000012,1147.179999999993,1147.179999999993,1136.7200000000012,1147.179999999993,1.0,0.0,0.0,,Click Response,1_count,3.0,object-46,temp_dist_trial,44.0,s_sh_15_1,student_shared,usb drive,9.0,competing,paired,s_sh_15_1.jpg,Student,,,sub-45
Desktop or Laptop,Windows 10,Firefox 140.0,1920x1080,1920x918,Temporal Distance Task,cb_09,45.0,temp_dist_trial,num_items,zn7si1,1.0,response,1_ITEM,821.4599999999921,818.179999999993,821.4599999999921,821.4599999999921,818.179999999993,821.4599999999921,1.0,0.0,0.0,,Click Response,1_count,3.0,object-46,temp_dist_trial,45.0,s_a_16_1,student_art,piano,9.0,unique,paired,s_a_16_1.jpg,Student,,,sub-45
Desktop or Laptop,Windows 10,Firefox 140.0,1920x1080,1920x918,Temporal Distance Task,cb_09,46.0,temp_dist_trial,num_items,zn7si1,1.0,response,1_ITEM,1295.2799999999988,1284.820000000007,1295.2799999999988,1295.2799999999988,1284.820000000007,1295.2799999999988,1.0,0.0,0.0,,Click Response,1_count,3.0,object-46,temp_dist_trial,46.0,s_sh_08_1,student_shared,post-its,9.0,competing,paired,s_sh_08_1.jpg,Student,,,sub-45
Desktop or Laptop,Windows 10,Firefox 140.0,1920x1080,1920x918,Temporal Distance Task,cb_09,47.0,temp_dist_trial,num_items,zn7si1,1.0,response,1_ITEM,1001.6999999999533,985.0399999999788,1001.6999999999533,1001.6999999999533,985.0399999999788,1001.6999999999533,1.0,0.0,0.0,,Click Response,1_count,3.0,object-46,temp_dist_trial,47.0,s_sh_07_1,student_shared,ruler,9.0,competing,single,s_sh_07_1.jpg,Student,,,sub-45
Desktop or Laptop,Windows 10,Firefox 140.0,1920x1080,1920x918,Temporal Distance Task,cb_09,48.0,temp_dist_trial,num_items,zn7si1,1.0,response,1_ITEM,1125.4200000000128,1118.6600000000037,1125.4200000000128,1125.4200000000128,1118.6600000000037,1125.4200000000128,1.0,0.0,0.0,,Click Response,1_count,3.0,object-46,temp_dist_trial,48.0,s_sh_05_1,student_shared,laptop,9.0,competing,single,s_sh_05_1.jpg,Student,,,sub-45
Desktop or Laptop,Windows 10,Firefox 140.0,1920x1080,1920x918,Temporal Distance Task,cb_09,2.0,temp_eventStart,Screen 1,dgtyxe,1.0,continue,,1337.140000000014,1335.320000000007,1337.140000000014,1337.140000000014,1335.320000000007,1337.140000000014,1.0,0.0,0.0,,Click To Continue,Next Button,3.0,object-43,temp_eventStart,,,Travel,,,,,,,,,sub-45
Desktop or Laptop,Windows 10,Firefox 140.0,1920x1080,1920x918,Temporal Distance Task,cb_09,49.0,temp_dist_trial,num_items,zn7si1,1.0,response,1_ITEM,1815.820000000007,1801.8600000000156,1815.820000000007,1815.820000000007,1801.8600000000156,1815.820000000007,1.0,0.0,0.0,,Click Response,1_count,3.0,object-46,temp_dist_trial,1.0,t_i_01_1,travel_Iceland,gloves,9.0,unique,single,t_i_01_1.jpg,Travel,,,sub-45
Desktop or Laptop,Windows 10,Firefox 140.0,1920x1080,1920x918,Temporal Distance Task,cb_09,50.0,temp_dist_trial,num_items,zn7si1,1.0,response,1_ITEM,1090.959999999992,1086.2599999999802,1090.959999999992,1090.959999999992,1086.2599999999802,1090.959999999992,1.0,0.0,0.0,,Click Response,1_count,3.0,object-46,temp_dist_trial,2.0,t_s_08_1,travel_shared,hand lotion,9.0,competing,single,t_s_08_1.jpg,Travel,,,sub-45
Desktop or Laptop,Windows 10,Firefox 140.0,1920x1080,1920x918,Temporal Distance Task,cb_09,51.0,temp_dist_trial,num_items,zn7si1,1.0,response,2_ITEM,1099.7200000000012,1084.8600000000154,1099.7200000000012,1099.7200000000012,1084.8600000000154,1099.7200000000012,1.0,0.0,0.0,,Click Response,2_count,5.0,object-49,temp_dist_trial,3.0,t_s_24_1,travel_shared,ear plugs,9.0,competing,paired,t_s_24_1.jpg,Travel,,,sub-45
Desktop or Laptop,Windows 10,Firefox 140.0,1920x1080,1920x918,Temporal Distance Task,cb_09,51.0,temp_dist_trial,dist_items,qkpkxw,2.0,info,,5.85999999998603,0.0,5.85999999998603,5.85999999998603,0.0,5.85999999998603,1.0,0.0,0.0,,Slider,Slider,4.0,object-56,temp_dist_trial,3.0,t_s_24_1,travel_shared,ear plugs,9.0,competing,paired,t_s_24_1.jpg,Travel,,,sub-45
Desktop or Laptop,Windows 10,Firefox 140.0,1920x1080,1920x918,Temporal Distance Task,cb_09,51.0,temp_dist_trial,dist_items,qkpkxw,2.0,continue,,2223.859999999986,2219.639999999985,2223.859999999986,2223.859999999986,2219.639999999985,2223.859999999986,1.0,0.0,0.0,,Click To Continue,Next button,7.0,object-60,temp_dist_trial,3.0,t_s_24_1,travel_shared,ear plugs,9.0,competing,paired,t_s_24_1.jpg,Travel,,,sub-45
Desktop or Laptop,Windows 10,Firefox 140.0,1920x1080,1920x918,Temporal Distance Task,cb_09,51.0,temp_dist_trial,dist_items,qkpkxw,2.0,response,76,851.6399999999849,2219.639999999985,2225.859999999986,851.6399999999849,2219.639999999985,2225.859999999986,1.0,1374.2200000000012,0.0,,Slider,Slider,4.0,object-56,temp_dist_trial,3.0,t_s_24_1,travel_shared,ear plugs,9.0,competing,paired,t_s_24_1.jpg,Travel,,,sub-45
Desktop or Laptop,Windows 10,Firefox 140.0,1920x1080,1920x918,Temporal Distance Task,cb_09,52.0,temp_dist_trial,num_items,zn7si1,1.0,response,1_ITEM,825.2200000000012,818.2200000000012,825.2200000000012,825.2200000000012,818.2200000000012,825.2200000000012,1.0,0.0,0.0,,Click Response,1_count,3.0,object-46,temp_dist_trial,4.0,t_m_13_1,travel_Miami,floatie,9.0,unique,single,t_m_13_1.jpg,Travel,,,sub-45
Desktop or Laptop,Windows 10,Firefox 140.0,1920x1080,1920x918,Temporal Distance Task,cb_09,53.0,temp_dist_trial,num_items,zn7si1,1.0,response,1_ITEM,1122.0,1118.4800000000105,1122.0,1122.0,1118.4800000000105,1122.0,1.0,0.0,0.0,,Click Response,1_count,3.0,object-46,temp_dist_trial,5.0,t_i_20_1,travel_Iceland,lantern,9.0,unique,paired,t_i_20_1.jpg,Travel,,,sub-45
Desktop or Laptop,Windows 10,Firefox 140.0,1920x1080,1920x918,Temporal Distance Task,cb_09,54.0,temp_dist_trial,num_items,zn7si1,1.0,response,1_ITEM,1074.0199999999895,1068.9400000000023,1074.0199999999895,1074.0199999999895,1068.9400000000023,1074.0199999999895,1.0,0.0,0.0,,Click Response,1_count,3.0,object-46,temp_dist_trial,6.0,t_s_12_1,travel_shared,clear toiletry bag,9.0,competing,paired,t_s_12_1.jpg,Travel,,,sub-45
Desktop or Laptop,Windows 10,Firefox 140.0,1920x1080,1920x918,Temporal Distance Task,cb_09,55.0,temp_dist_trial,num_items,zn7si1,1.0,response,1_ITEM,2046.6199999999953,2036.5599999999977,2046.6199999999953,2046.6199999999953,2036.5599999999977,2046.6199999999953,1.0,0.0,0.0,,Click Response,1_count,3.0,object-46,temp_dist_trial,7.0,t_m_11_1,travel_Miami,collapsible beach chair,9.0,unique,single,t_m_11_1.jpg,Travel,,,sub-45
Desktop or Laptop,Windows 10,Firefox 140.0,1920x1080,1920x918,Temporal Distance Task,cb_09,56.0,temp_dist_trial,num_items,zn7si1,1.0,response,1_ITEM,1365.0599999999977,1351.320000000007,1365.0599999999977,1365.0599999999977,1351.320000000007,1365.0599999999977,1.0,0.0,0.0,,Click Response,1_count,3.0,object-46,temp_dist_trial,8.0,t_m_18_1,travel_Miami,waterproof tote,9.0,unique,paired,t_m_18_1.jpg,Travel,,,sub-45
Desktop or Laptop,Windows 10,Firefox 140.0,1920x1080,1920x918,Temporal Distance Task,cb_09,57.0,temp_dist_trial,num_items,zn7si1,1.0,response,2_ITEM,1046.140000000014,1033.3400000000256,1046.140000000014,1046.140000000014,1033.3400000000256,1046.140000000014,1.0,0.0,0.0,,Click Response,2_count,5.0,object-49,temp_dist_trial,9.0,t_s_15_1,travel_shared,luggage tag,9.0,competing,paired,t_s_15_1.jpg,Travel,,,sub-45
Desktop or Laptop,Windows 10,Firefox 140.0,1920x1080,1920x918,Temporal Distance Task,cb_09,57.0,temp_dist_trial,dist_items,qkpkxw,2.0,info,,6.1600000000034925,0.0,6.1600000000034925,6.1600000000034925,0.0,6.1600000000034925,1.0,0.0,0.0,,Slider,Slider,4.0,object-56,temp_dist_trial,9.0,t_s_15_1,travel_shared,luggage tag,9.0,competing,paired,t_s_15_1.jpg,Travel,,,sub-45
Desktop or Laptop,Windows 10,Firefox 140.0,1920x1080,1920x918,Temporal Distance Task,cb_09,57.0,temp_dist_trial,dist_items,qkpkxw,2.0,continue,,1410.1600000000033,1402.4200000000128,1410.1600000000033,1410.1600000000033,1402.4200000000128,1410.1600000000033,1.0,0.0,0.0,,Click To Continue,Next button,7.0,object-60,temp_dist_trial,9.0,t_s_15_1,travel_shared,luggage tag,9.0,competing,paired,t_s_15_1.jpg,Travel,,,sub-45
Desktop or Laptop,Windows 10,Firefox 140.0,1920x1080,1920x918,Temporal Distance Task,cb_09,57.0,temp_dist_trial,dist_items,qkpkxw,2.0,response,30,683.320000000007,1402.4200000000128,1412.1600000000033,683.320000000007,1402.4200000000128,1412.1600000000033,1.0,728.8399999999965,0.0,,Slider,Slider,4.0,object-56,temp_dist_trial,9.0,t_s_15_1,travel_shared,luggage tag,9.0,competing,paired,t_s_15_1.jpg,Travel,,,sub-45
Desktop or Laptop,Windows 10,Firefox 140.0,1920x1080,1920x918,Temporal Distance Task,cb_09,58.0,temp_dist_trial,num_items,zn7si1,1.0,response,2_ITEM,1020.7399999999907,1016.6600000000036,1020.7399999999907,1020.7399999999907,1016.6600000000036,1020.7399999999907,1.0,0.0,0.0,,Click Response,2_count,5.0,object-49,temp_dist_trial,10.0,t_i_04_1,travel_Iceland,portable camping stove,9.0,unique,paired,t_i_04_1.jpg,Travel,,,sub-45
Desktop or Laptop,Windows 10,Firefox 140.0,1920x1080,1920x918,Temporal Distance Task,cb_09,58.0,temp_dist_trial,dist_items,qkpkxw,2.0,info,,7.4400000000023265,0.0,7.4400000000023265,7.4400000000023265,0.0,7.4400000000023265,1.0,0.0,0.0,,Slider,Slider,4.0,object-56,temp_dist_trial,10.0,t_i_04_1,travel_Iceland,portable camping stove,9.0,unique,paired,t_i_04_1.jpg,Travel,,,sub-45
Desktop or Laptop,Windows 10,Firefox 140.0,1920x1080,1920x918,Temporal Distance Task,cb_09,58.0,temp_dist_trial,dist_items,qkpkxw,2.0,continue,,2874.4400000000023,2871.2399999999907,2874.4400000000023,2874.4400000000023,2871.2399999999907,2874.4400000000023,1.0,0.0,0.0,,Click To Continue,Next button,7.0,object-60,temp_dist_trial,10.0,t_i_04_1,travel_Iceland,portable camping stove,9.0,unique,paired,t_i_04_1.jpg,Travel,,,sub-45
Desktop or Laptop,Windows 10,Firefox 140.0,1920x1080,1920x918,Temporal Distance Task,cb_09,58.0,temp_dist_trial,dist_items,qkpkxw,2.0,response,37,1134.7999999999886,2871.2399999999907,2875.4400000000023,1134.7999999999886,2871.2399999999907,2875.4400000000023,1.0,1740.640000000014,0.0,,Slider,Slider,4.0,object-56,temp_dist_trial,10.0,t_i_04_1,travel_Iceland,portable camping stove,9.0,unique,paired,t_i_04_1.jpg,Travel,,,sub-45
Desktop or Laptop,Windows 10,Firefox 140.0,1920x1080,1920x918,Temporal Distance Task,cb_09,59.0,temp_dist_trial,num_items,zn7si1,1.0,response,1_ITEM,789.2000000000116,783.320000000007,789.2000000000116,789.2000000000116,783.320000000007,789.2000000000116,1.0,0.0,0.0,,Click Response,1_count,3.0,object-46,temp_dist_trial,11.0,t_m_05_1,travel_Miami,sunscreen,9.0,unique,single,t_m_05_1.jpg,Travel,,,sub-45
Desktop or Laptop,Windows 10,Firefox 140.0,1920x1080,1920x918,Temporal Distance Task,cb_09,60.0,temp_dist_trial,num_items,zn7si1,1.0,response,1_ITEM,906.2600000000093,900.0,906.2600000000093,906.2600000000093,900.0,906.2600000000093,1.0,0.0,0.0,,Click Response,1_count,3.0,object-46,temp_dist_trial,12.0,t_s_17_1,travel_shared,toothbrush,9.0,competing,single,t_s_17_1.jpg,Travel,,,sub-45
Desktop or Laptop,Windows 10,Firefox 140.0,1920x1080,1920x918,Temporal Distance Task,cb_09,61.0,temp_dist_trial,num_items,zn7si1,1.0,response,1_ITEM,956.6000000000058,951.5800000000163,956.6000000000058,956.6000000000058,951.5800000000163,956.6000000000058,1.0,0.0,0.0,,Click Response,1_count,3.0,object-46,temp_dist_trial,13.0,t_s_18_1,travel_shared,first aid kit,9.0,competing,single,t_s_18_1.jpg,Travel,,,sub-45
Desktop or Laptop,Windows 10,Firefox 140.0,1920x1080,1920x918,Temporal Distance Task,cb_09,62.0,temp_dist_trial,num_items,zn7si1,1.0,response,2_ITEM,1510.0199999999895,1501.5199999999895,1510.0199999999895,1510.0199999999895,1501.5199999999895,1510.0199999999895,1.0,0.0,0.0,,Click Response,2_count,5.0,object-49,temp_dist_trial,14.0,t_s_10_1,travel_shared,luggage lock,9.0,competing,paired,t_s_10_1.jpg,Travel,,,sub-45
Desktop or Laptop,Windows 10,Firefox 140.0,1920x1080,1920x918,Temporal Distance Task,cb_09,62.0,temp_dist_trial,dist_items,qkpkxw,2.0,info,,7.5,0.0,7.5,7.5,0.0,7.5,1.0,0.0,0.0,,Slider,Slider,4.0,object-56,temp_dist_trial,14.0,t_s_10_1,travel_shared,luggage lock,9.0,competing,paired,t_s_10_1.jpg,Travel,,,sub-45
Desktop or Laptop,Windows 10,Firefox 140.0,1920x1080,1920x918,Temporal Distance Task,cb_09,62.0,temp_dist_trial,dist_items,qkpkxw,2.0,continue,,2391.5,2388.1199999999953,2391.5,2391.5,2388.1199999999953,2391.5,1.0,0.0,0.0,,Click To Continue,Next button,7.0,object-60,temp_dist_trial,14.0,t_s_10_1,travel_shared,luggage lock,9.0,competing,paired,t_s_10_1.jpg,Travel,,,sub-45
Desktop or Laptop,Windows 10,Firefox 140.0,1920x1080,1920x918,Temporal Distance Task,cb_09,62.0,temp_dist_trial,dist_items,qkpkxw,2.0,response,62,1119.8800000000047,2388.1199999999953,2392.5,1119.8800000000047,2388.1199999999953,2392.5,1.0,1272.6199999999953,0.0,,Slider,Slider,4.0,object-56,temp_dist_trial,14.0,t_s_10_1,travel_shared,luggage lock,9.0,competing,paired,t_s_10_1.jpg,Travel,,,sub-45
Desktop or Laptop,Windows 10,Firefox 140.0,1920x1080,1920x918,Temporal Distance Task,cb_09,63.0,temp_dist_trial,num_items,zn7si1,1.0,response,1_ITEM,909.3800000000048,901.5200000000186,909.3800000000048,909.3800000000048,901.5200000000186,909.3800000000048,1.0,0.0,0.0,,Click Response,1_count,3.0,object-46,temp_dist_trial,15.0,t_i_08_1,travel_Iceland,thick socks,9.0,unique,paired,t_i_08_1.jpg,Travel,,,sub-45
Desktop or Laptop,Windows 10,Firefox 140.0,1920x1080,1920x918,Temporal Distance Task,cb_09,64.0,temp_dist_trial,num_items,zn7si1,1.0,response,2_ITEM,1079.859999999986,1068.1999999999823,1079.859999999986,1079.859999999986,1068.1999999999823,1079.859999999986,1.0,0.0,0.0,,Click Response,2_count,5.0,object-49,temp_dist_trial,16.0,t_s_04_1,travel_shared,instant camera,9.0,competing,paired,t_s_04_1.jpg,Travel,,,sub-45
Desktop or Laptop,Windows 10,Firefox 140.0,1920x1080,1920x918,Temporal Distance Task,cb_09,64.0,temp_dist_trial,dist_items,qkpkxw,2.0,info,,6.6600000000034925,0.0,6.6600000000034925,6.6600000000034925,0.0,6.6600000000034925,1.0,0.0,0.0,,Slider,Slider,4.0,object-56,temp_dist_trial,16.0,t_s_04_1,travel_shared,instant camera,9.0,competing,paired,t_s_04_1.jpg,Travel,,,sub-45
Desktop or Laptop,Windows 10,Firefox 140.0,1920x1080,1920x918,Temporal Distance Task,cb_09,64.0,temp_dist_trial,dist_items,qkpkxw,2.0,continue,,3336.6600000000035,3321.720000000001,3336.6600000000035,3336.6600000000035,3321.720000000001,3336.6600000000035,1.0,0.0,0.0,,Click To Continue,Next button,7.0,object-60,temp_dist_trial,16.0,t_s_04_1,travel_shared,instant camera,9.0,competing,paired,t_s_04_1.jpg,Travel,,,sub-45
Desktop or Laptop,Windows 10,Firefox 140.0,1920x1080,1920x918,Temporal Distance Task,cb_09,64.0,temp_dist_trial,dist_items,qkpkxw,2.0,response,33,735.1199999999952,3321.720000000001,3337.6600000000035,735.1199999999952,3321.720000000001,3337.6600000000035,1.0,2602.540000000008,0.0,,Slider,Slider,4.0,object-56,temp_dist_trial,16.0,t_s_04_1,travel_shared,instant camera,9.0,competing,paired,t_s_04_1.jpg,Travel,,,sub-45
Desktop or Laptop,Windows 10,Firefox 140.0,1920x1080,1920x918,Temporal Distance Task,cb_09,65.0,temp_dist_trial,num_items,zn7si1,1.0,response,1_ITEM,818.5599999999977,801.8800000000048,818.5599999999977,818.5599999999977,801.8800000000048,818.5599999999977,1.0,0.0,0.0,,Click Response,1_count,3.0,object-46,temp_dist_trial,17.0,t_m_15_1,travel_Miami,shorts,9.0,unique,paired,t_m_15_1.jpg,Travel,,,sub-45
Desktop or Laptop,Windows 10,Firefox 140.0,1920x1080,1920x918,Temporal Distance Task,cb_09,66.0,temp_dist_trial,num_items,zn7si1,1.0,response,1_ITEM,1095.0799999999872,1084.7999999999884,1095.0799999999872,1095.0799999999872,1084.7999999999884,1095.0799999999872,1.0,0.0,0.0,,Click Response,1_count,3.0,object-46,temp_dist_trial,18.0,t_m_09_1,travel_Miami,beach towel,9.0,unique,single,t_m_09_1.jpg,Travel,,,sub-45
Desktop or Laptop,Windows 10,Firefox 140.0,1920x1080,1920x918,Temporal Distance Task,cb_09,67.0,temp_dist_trial,num_items,zn7si1,1.0,response,1_ITEM,1039.2799999999988,1035.6199999999953,1039.2799999999988,1039.2799999999988,1035.6199999999953,1039.2799999999988,1.0,0.0,0.0,,Click Response,1_count,3.0,object-46,temp_dist_trial,19.0,t_i_18_1,travel_Iceland,ski mask,9.0,unique,paired,t_i_18_1.jpg,Travel,,,sub-45
Desktop or Laptop,Windows 10,Firefox 140.0,1920x1080,1920x918,Temporal Distance Task,cb_09,68.0,temp_dist_trial,num_items,zn7si1,1.0,response,2_ITEM,843.6600000000035,834.7000000000116,843.6600000000035,843.6600000000035,834.7000000000116,843.6600000000035,1.0,0.0,0.0,,Click Response,2_count,5.0,object-49,temp_dist_trial,20.0,t_s_06_1,travel_shared,luggage,9.0,competing,paired,t_s_06_1.jpg,Travel,,,sub-45
Desktop or Laptop,Windows 10,Firefox 140.0,1920x1080,1920x918,Temporal Distance Task,cb_09,68.0,temp_dist_trial,dist_items,qkpkxw,2.0,info,,6.959999999991852,0.0,6.959999999991852,6.959999999991852,0.0,6.959999999991852,1.0,0.0,0.0,,Slider,Slider,4.0,object-56,temp_dist_trial,20.0,t_s_06_1,travel_shared,luggage,9.0,competing,paired,t_s_06_1.jpg,Travel,,,sub-45
Desktop or Laptop,Windows 10,Firefox 140.0,1920x1080,1920x918,Temporal Distance Task,cb_09,68.0,temp_dist_trial,dist_items,qkpkxw,2.0,continue,,3153.959999999992,3138.0599999999977,3153.959999999992,3153.959999999992,3138.0599999999977,3153.959999999992,1.0,0.0,0.0,,Click To Continue,Next button,7.0,object-60,temp_dist_trial,20.0,t_s_06_1,travel_shared,luggage,9.0,competing,paired,t_s_06_1.jpg,Travel,,,sub-45
Desktop or Laptop,Windows 10,Firefox 140.0,1920x1080,1920x918,Temporal Distance Task,cb_09,68.0,temp_dist_trial,dist_items,qkpkxw,2.0,response,67,1218.3399999999965,3138.0599999999977,3153.959999999992,1218.3399999999965,3138.0599999999977,3153.959999999992,1.0,1935.6199999999953,0.0,,Slider,Slider,4.0,object-56,temp_dist_trial,20.0,t_s_06_1,travel_shared,luggage,9.0,competing,paired,t_s_06_1.jpg,Travel,,,sub-45
Desktop or Laptop,Windows 10,Firefox 140.0,1920x1080,1920x918,Temporal Distance Task,cb_09,69.0,temp_dist_trial,num_items,zn7si1,1.0,response,1_ITEM,1371.8999999999942,1369.6600000000035,1371.8999999999942,1371.8999999999942,1369.6600000000035,1371.8999999999942,1.0,0.0,0.0,,Click Response,1_count,3.0,object-46,temp_dist_trial,21.0,t_s_19_1,travel_shared,pajamas,9.0,competing,paired,t_s_19_1.jpg,Travel,,,sub-45
Desktop or Laptop,Windows 10,Firefox 140.0,1920x1080,1920x918,Temporal Distance Task,cb_09,70.0,temp_dist_trial,num_items,zn7si1,1.0,response,2_ITEM,1094.2399999999907,1084.8800000000047,1094.2399999999907,1094.2399999999907,1084.8800000000047,1094.2399999999907,1.0,0.0,0.0,,Click Response,2_count,5.0,object-49,temp_dist_trial,22.0,t_s_01_1,travel_shared,fanny pack,9.0,competing,paired,t_s_01_1.jpg,Travel,,,sub-45
Desktop or Laptop,Windows 10,Firefox 140.0,1920x1080,1920x918,Temporal Distance Task,cb_09,70.0,temp_dist_trial,dist_items,qkpkxw,2.0,info,,7.35999999998603,0.0,7.35999999998603,7.35999999998603,0.0,7.35999999998603,1.0,0.0,0.0,,Slider,Slider,4.0,object-56,temp_dist_trial,22.0,t_s_01_1,travel_shared,fanny pack,9.0,competing,paired,t_s_01_1.jpg,Travel,,,sub-45
Desktop or Laptop,Windows 10,Firefox 140.0,1920x1080,1920x918,Temporal Distance Task,cb_09,70.0,temp_dist_trial,dist_items,qkpkxw,2.0,continue,,1551.8199999999488,1535.1599999999744,1551.8199999999488,1551.8199999999488,1535.1599999999744,1551.8199999999488,1.0,0.0,0.0,,Click To Continue,Next button,7.0,object-60,temp_dist_trial,22.0,t_s_01_1,travel_shared,fanny pack,9.0,competing,paired,t_s_01_1.jpg,Travel,,,sub-45
Desktop or Laptop,Windows 10,Firefox 140.0,1920x1080,1920x918,Temporal Distance Task,cb_09,70.0,temp_dist_trial,dist_items,qkpkxw,2.0,response,60,701.8399999999965,1535.1599999999744,1551.8199999999488,701.8399999999965,1535.1599999999744,1551.8199999999488,1.0,849.9799999999523,0.0,,Slider,Slider,4.0,object-56,temp_dist_trial,22.0,t_s_01_1,travel_shared,fanny pack,9.0,competing,paired,t_s_01_1.jpg,Travel,,,sub-45
Desktop or Laptop,Windows 10,Firefox 140.0,1920x1080,1920x918,Temporal Distance Task,cb_09,71.0,temp_dist_trial,num_items,zn7si1,1.0,response,1_ITEM,950.2000000000116,935.2200000000012,950.2000000000116,950.2000000000116,935.2200000000012,950.2000000000116,1.0,0.0,0.0,,Click Response,1_count,3.0,object-46,temp_dist_trial,23.0,t_s_23_1,travel_shared,ball cap,9.0,competing,paired,t_s_23_1.jpg,Travel,,,sub-45
Desktop or Laptop,Windows 10,Firefox 140.0,1920x1080,1920x918,Temporal Distance Task,cb_09,72.0,temp_dist_trial,num_items,zn7si1,1.0,response,2_ITEM,1240.5799999999872,1234.859999999986,1240.5799999999872,1240.5799999999872,1234.859999999986,1240.5799999999872,1.0,0.0,0.0,,Click Response,2_count,5.0,object-49,temp_dist_trial,24.0,t_s_16_1,travel_shared,chapstick,9.0,competing,paired,t_s_16_1.jpg,Travel,,,sub-45
Desktop or Laptop,Windows 10,Firefox 140.0,1920x1080,1920x918,Temporal Distance Task,cb_09,72.0,temp_dist_trial,dist_items,qkpkxw,2.0,info,,6.720000000001162,0.0,6.720000000001162,6.720000000001162,0.0,6.720000000001162,1.0,0.0,0.0,,Slider,Slider,4.0,object-56,temp_dist_trial,24.0,t_s_16_1,travel_shared,chapstick,9.0,competing,paired,t_s_16_1.jpg,Travel,,,sub-45
Desktop or Laptop,Windows 10,Firefox 140.0,1920x1080,1920x918,Temporal Distance Task,cb_09,72.0,temp_dist_trial,dist_items,qkpkxw,2.0,continue,,3546.720000000001,3540.1799999999935,3546.720000000001,3546.720000000001,3540.1799999999935,3546.720000000001,1.0,0.0,0.0,,Click To Continue,Next button,7.0,object-60,temp_dist_trial,24.0,t_s_16_1,travel_shared,chapstick,9.0,competing,paired,t_s_16_1.jpg,Travel,,,sub-45
Desktop or Laptop,Windows 10,Firefox 140.0,1920x1080,1920x918,Temporal Distance Task,cb_09,72.0,temp_dist_trial,dist_items,qkpkxw,2.0,response,87,935.0400000000079,3540.1799999999935,3546.720000000001,935.0400000000079,3540.1799999999935,3546.720000000001,1.0,2611.679999999993,0.0,,Slider,Slider,4.0,object-56,temp_dist_trial,24.0,t_s_16_1,travel_shared,chapstick,9.0,competing,paired,t_s_16_1.jpg,Travel,,,sub-45
Desktop or Laptop,Windows 10,Firefox 140.0,1920x1080,1920x918,Temporal Distance Task,cb_09,73.0,temp_dist_trial,num_items,zn7si1,1.0,response,1_ITEM,1217.540000000008,1200.9200000000128,1217.540000000008,1217.540000000008,1200.9200000000128,1217.540000000008,1.0,0.0,0.0,,Click Response,1_count,3.0,object-46,temp_dist_trial,25.0,t_m_16_1,travel_Miami,flippers,9.0,unique,paired,t_m_16_1.jpg,Travel,,,sub-45
Desktop or Laptop,Windows 10,Firefox 140.0,1920x1080,1920x918,Temporal Distance Task,cb_09,74.0,temp_dist_trial,num_items,zn7si1,1.0,response,1_ITEM,1647.6199999999951,1636.2200000000012,1647.6199999999951,1647.6199999999951,1636.2200000000012,1647.6199999999951,1.0,0.0,0.0,,Click Response,1_count,3.0,object-46,temp_dist_trial,26.0,t_i_14_1,travel_Iceland,snow pants,9.0,unique,paired,t_i_14_1.jpg,Travel,,,sub-45
Desktop or Laptop,Windows 10,Firefox 140.0,1920x1080,1920x918,Temporal Distance Task,cb_09,75.0,temp_dist_trial,num_items,zn7si1,1.0,response,1_ITEM,924.3999999999942,918.1600000000036,924.3999999999942,924.3999999999942,918.1600000000036,924.3999999999942,1.0,0.0,0.0,,Click Response,1_count,3.0,object-46,temp_dist_trial,27.0,t_s_20_1,travel_shared,travel pill case,9.0,competing,single,t_s_20_1.jpg,Travel,,,sub-45
Desktop or Laptop,Windows 10,Firefox 140.0,1920x1080,1920x918,Temporal Distance Task,cb_09,76.0,temp_dist_trial,num_items,zn7si1,1.0,response,1_ITEM,1167.2399999999907,1151.4799999999816,1167.2399999999907,1167.2399999999907,1151.4799999999816,1167.2399999999907,1.0,0.0,0.0,,Click Response,1_count,3.0,object-46,temp_dist_trial,28.0,t_s_07_1,travel_shared,phone charger cable,9.0,competing,single,t_s_07_1.jpg,Travel,,,sub-45
Desktop or Laptop,Windows 10,Firefox 140.0,1920x1080,1920x918,Temporal Distance Task,cb_09,77.0,temp_dist_trial,num_items,zn7si1,1.0,response,1_ITEM,1331.0799999999872,1318.1599999999746,1331.0799999999872,1331.0799999999872,1318.1599999999746,1331.0799999999872,1.0,0.0,0.0,,Click Response,1_count,3.0,object-46,temp_dist_trial,29.0,t_i_10_1,travel_Iceland,trekking poles,9.0,unique,paired,t_i_10_1.jpg,Travel,,,sub-45
Desktop or Laptop,Windows 10,Firefox 140.0,1920x1080,1920x918,Temporal Distance Task,cb_09,78.0,temp_dist_trial,num_items,zn7si1,1.0,response,1_ITEM,997.9200000000128,984.8400000000256,997.9200000000128,997.9200000000128,984.8400000000256,997.9200000000128,1.0,0.0,0.0,,Click Response,1_count,3.0,object-46,temp_dist_trial,30.0,t_s_03_1,travel_shared,portable charger,9.0,competing,paired,t_s_03_1.jpg,Travel,,,sub-45
Desktop or Laptop,Windows 10,Firefox 140.0,1920x1080,1920x918,Temporal Distance Task,cb_09,79.0,temp_dist_trial,num_items,zn7si1,1.0,response,1_ITEM,817.0799999999872,801.5,817.0799999999872,817.0799999999872,801.5,817.0799999999872,1.0,0.0,0.0,,Click Response,1_count,3.0,object-46,temp_dist_trial,31.0,t_s_09_1,travel_shared,wallet,9.0,competing,paired,t_s_09_1.jpg,Travel,,,sub-45
Desktop or Laptop,Windows 10,Firefox 140.0,1920x1080,1920x918,Temporal Distance Task,cb_09,80.0,temp_dist_trial,num_items,zn7si1,1.0,response,1_ITEM,1067.5799999999872,1052.7399999999907,1067.5799999999872,1067.5799999999872,1052.7399999999907,1067.5799999999872,1.0,0.0,0.0,,Click Response,1_count,3.0,object-46,temp_dist_trial,32.0,t_m_19_1,travel_Miami,surfboard,9.0,unique,paired,t_m_19_1.jpg,Travel,,,sub-45
Desktop or Laptop,Windows 10,Firefox 140.0,1920x1080,1920x918,Temporal Distance Task,cb_09,81.0,temp_dist_trial,num_items,zn7si1,1.0,response,1_ITEM,1267.8399999999965,1251.6000000000058,1267.8399999999965,1267.8399999999965,1251.6000000000058,1267.8399999999965,1.0,0.0,0.0,,Click Response,1_count,3.0,object-46,temp_dist_trial,33.0,t_m_06_1,travel_Miami,handheld fan,9.0,unique,paired,t_m_06_1.jpg,Travel,,,sub-45
Desktop or Laptop,Windows 10,Firefox 140.0,1920x1080,1920x918,Temporal Distance Task,cb_09,82.0,temp_dist_trial,num_items,zn7si1,1.0,response,1_ITEM,1286.3399999999965,1269.8999999999942,1286.3399999999965,1286.3399999999965,1269.8999999999942,1286.3399999999965,1.0,0.0,0.0,,Click Response,1_count,3.0,object-46,temp_dist_trial,34.0,t_i_11_1,travel_Iceland,headlamp,9.0,unique,single,t_i_11_1.jpg,Travel,,,sub-45
Desktop or Laptop,Windows 10,Firefox 140.0,1920x1080,1920x918,Temporal Distance Task,cb_09,83.0,temp_dist_trial,num_items,zn7si1,1.0,response,1_ITEM,1170.640000000014,1168.4200000000128,1170.640000000014,1170.640000000014,1168.4200000000128,1170.640000000014,1.0,0.0,0.0,,Click Response,1_count,3.0,object-46,temp_dist_trial,35.0,t_m_08_1,travel_Miami,flipflops,9.0,unique,paired,t_m_08_1.jpg,Travel,,,sub-45
Desktop or Laptop,Windows 10,Firefox 140.0,1920x1080,1920x918,Temporal Distance Task,cb_09,84.0,temp_dist_trial,num_items,zn7si1,1.0,response,1_ITEM,1143.2200000000012,1134.8600000000156,1143.2200000000012,1143.2200000000012,1134.8600000000156,1143.2200000000012,1.0,0.0,0.0,,Click Response,1_count,3.0,object-46,temp_dist_trial,36.0,t_i_19_1,travel_Iceland,rope,9.0,unique,paired,t_i_19_1.jpg,Travel,,,sub-45
Desktop or Laptop,Windows 10,Firefox 140.0,1920x1080,1920x918,Temporal Distance Task,cb_09,85.0,temp_dist_trial,num_items,zn7si1,1.0,response,1_ITEM,934.9399999999733,918.2599999999803,934.9399999999733,934.9399999999733,918.2599999999803,934.9399999999733,1.0,0.0,0.0,,Click Response,1_count,3.0,object-46,temp_dist_trial,37.0,t_s_05_1,travel_shared,neck pillow,9.0,competing,single,t_s_05_1.jpg,Travel,,,sub-45
Desktop or Laptop,Windows 10,Firefox 140.0,1920x1080,1920x918,Temporal Distance Task,cb_09,86.0,temp_dist_trial,num_items,zn7si1,1.0,response,1_ITEM,1033.2399999999907,1016.5799999999872,1033.2399999999907,1033.2399999999907,1016.5799999999872,1033.2399999999907,1.0,0.0,0.0,,Click Response,1_count,3.0,object-46,temp_dist_trial,38.0,t_s_13_1,travel_shared,contact lens case,9.0,competing,paired,t_s_13_1.jpg,Travel,,,sub-45
Desktop or Laptop,Windows 10,Firefox 140.0,1920x1080,1920x918,Temporal Distance Task,cb_09,87.0,temp_dist_trial,num_items,zn7si1,1.0,response,1_ITEM,1168.1199999999953,1151.7600000000093,1168.1199999999953,1168.1199999999953,1151.7600000000093,1168.1199999999953,1.0,0.0,0.0,,Click Response,1_count,3.0,object-46,temp_dist_trial,39.0,t_s_21_1,travel_shared,umbrella,9.0,competing,paired,t_s_21_1.jpg,Travel,,,sub-45
Desktop or Laptop,Windows 10,Firefox 140.0,1920x1080,1920x918,Temporal Distance Task,cb_09,88.0,temp_dist_trial,num_items,zn7si1,1.0,response,1_ITEM,968.1999999999823,951.5399999999788,968.1999999999823,968.1999999999823,951.5399999999788,968.1999999999823,1.0,0.0,0.0,,Click Response,1_count,3.0,object-46,temp_dist_trial,40.0,t_i_12_1,travel_Iceland,tent,9.0,unique,single,t_i_12_1.jpg,Travel,,,sub-45
Desktop or Laptop,Windows 10,Firefox 140.0,1920x1080,1920x918,Temporal Distance Task,cb_09,89.0,temp_dist_trial,num_items,zn7si1,1.0,response,1_ITEM,1021.820000000007,1017.8999999999942,1021.820000000007,1021.820000000007,1017.8999999999942,1021.820000000007,1.0,0.0,0.0,,Click Response,1_count,3.0,object-46,temp_dist_trial,41.0,t_s_02_1,travel_shared,water bottle,9.0,competing,paired,t_s_02_1.jpg,Travel,,,sub-45
Desktop or Laptop,Windows 10,Firefox 140.0,1920x1080,1920x918,Temporal Distance Task,cb_09,90.0,temp_dist_trial,num_items,zn7si1,1.0,response,1_ITEM,1029.320000000007,1018.7200000000012,1029.320000000007,1029.320000000007,1018.7200000000012,1029.320000000007,1.0,0.0,0.0,,Click Response,1_count,3.0,object-46,temp_dist_trial,42.0,t_s_14_1,travel_shared,hand sanitizer,9.0,competing,paired,t_s_14_1.jpg,Travel,,,sub-45
Desktop or Laptop,Windows 10,Firefox 140.0,1920x1080,1920x918,Temporal Distance Task,cb_09,91.0,temp_dist_trial,num_items,zn7si1,1.0,response,1_ITEM,1063.2200000000012,1051.640000000014,1063.2200000000012,1063.2200000000012,1051.640000000014,1063.2200000000012,1.0,0.0,0.0,,Click Response,1_count,3.0,object-46,temp_dist_trial,43.0,t_m_07_1,travel_Miami,sunglasses,9.0,unique,paired,t_m_07_1.jpg,Travel,,,sub-45
Desktop or Laptop,Windows 10,Firefox 140.0,1920x1080,1920x918,Temporal Distance Task,cb_09,92.0,temp_dist_trial,num_items,zn7si1,1.0,response,1_ITEM,1217.5799999999872,1201.4199999999835,1217.5799999999872,1217.5799999999872,1201.4199999999835,1217.5799999999872,1.0,0.0,0.0,,Click Response,1_count,3.0,object-46,temp_dist_trial,44.0,t_i_16_1,travel_Iceland,skis,9.0,unique,paired,t_i_16_1.jpg,Travel,,,sub-45
Desktop or Laptop,Windows 10,Firefox 140.0,1920x1080,1920x918,Temporal Distance Task,cb_09,93.0,temp_dist_trial,num_items,zn7si1,1.0,response,1_ITEM,1424.1000000000058,1417.7400000000198,1424.1000000000058,1424.1000000000058,1417.7400000000198,1424.1000000000058,1.0,0.0,0.0,,Click Response,1_count,3.0,object-46,temp_dist_trial,45.0,t_i_06_1,travel_Iceland,knit hat,9.0,unique,single,t_i_06_1.jpg,Travel,,,sub-45
Desktop or Laptop,Windows 10,Firefox 140.0,1920x1080,1920x918,Temporal Distance Task,cb_09,94.0,temp_dist_trial,num_items,zn7si1,1.0,response,1_ITEM,1238.359999999986,1234.6399999999844,1238.359999999986,1238.359999999986,1234.6399999999844,1238.359999999986,1.0,0.0,0.0,,Click Response,1_count,3.0,object-46,temp_dist_trial,46.0,t_s_22_1,travel_shared,belt,9.0,competing,single,t_s_22_1.jpg,Travel,,,sub-45
Desktop or Laptop,Windows 10,Firefox 140.0,1920x1080,1920x918,Temporal Distance Task,cb_09,95.0,temp_dist_trial,num_items,zn7si1,1.0,response,1_ITEM,1184.8800000000047,1168.2200000000012,1184.8800000000047,1184.8800000000047,1168.2200000000012,1184.8800000000047,1.0,0.0,0.0,,Click Response,1_count,3.0,object-46,temp_dist_trial,47.0,t_m_03_1,travel_Miami,wetsuit,9.0,unique,paired,t_m_03_1.jpg,Travel,,,sub-45
Desktop or Laptop,Windows 10,Firefox 140.0,1920x1080,1920x918,Temporal Distance Task,cb_09,96.0,temp_dist_trial,num_items,zn7si1,1.0,response,1_ITEM,1164.5199999999895,1151.539999999979,1164.5199999999895,1164.5199999999895,1151.539999999979,1164.5199999999895,1.0,0.0,0.0,,Click Response,1_count,3.0,object-46,temp_dist_trial,48.0,t_s_11_1,travel_shared,eye mask,9.0,competing,single,t_s_11_1.jpg,Travel,,,sub-45
Desktop or Laptop,Windows 10,Firefox 140.0,1920x1080,1920x918,Temporal Distance Task,$${counterbalance_group},,,,,,info,END,,,239605.0,,,,0.0,,,,,,,,,,,,,,,,,,,,sub-45
