Participant Device,Participant OS,Participant Browser,Participant Monitor Size,Participant Viewport Size,Task Name,Current Spreadsheet,Trial Number,Display,Screen,Screen ID,Screen Counter,Response Type,Response,Onset Time,Clock Time,Reaction Time,Absolute Onset Time,Absolute Clock Time,Absolute Reaction Time,Correct,Response Duration,Proportion,Tag,Component Name,Object Name,Object Number,Object ID,Spreadsheet: display,Spreadsheet: trial,Spreadsheet: stimulus_id,Spreadsheet: expected_goal,Spreadsheet: stimulus_name,Spreadsheet: c_group,Spreadsheet: condition,Spreadsheet: paired_status,Spreadsheet: stimulus_path,Spreadsheet: block_type,Manipulation: Spreadsheet,Store: enc_test_acc,sub_label
Desktop or Laptop,Windows 10,Chrome 137.0.0.0,1920x1080,1920x1080,Temporal Distance Task,$${counterbalance_group},,,,,,info,BEGIN,,,,,,,0.0,,,,,,,,,,,,,,,,,,,,sub-28
Desktop or Laptop,Windows 10,Chrome 137.0.0.0,1920x1080,1920x1080,Temporal Distance Task,cb_03,1.0,temp_instructions,intro_screen,3tnme7,1.0,continue,,6964.899999988079,6963.3,6964.899999988079,6964.899999988079,6963.3,6964.899999988079,1.0,0.0,0.0,,Click To Continue,Continue Button,4.0,object-29,temp_instructions,,,Student,,,,,,,,,sub-28
Desktop or Laptop,Windows 10,Chrome 137.0.0.0,1920x1080,1920x1080,Temporal Distance Task,cb_03,1.0,temp_instructions,intro_screen_2,52v7ur,2.0,continue,,5321.4,5319.6,5321.4,5321.4,5319.6,5321.4,1.0,0.0,0.0,,Click To Continue,Continue Button,4.0,object-39,temp_instructions,,,Student,,,,,,,,,sub-28
Desktop or Laptop,Windows 10,Chrome 137.0.0.0,1920x1080,1920x1080,Temporal Distance Task,cb_03,1.0,temp_instructions,intro_screen_3,i7lvwx,3.0,continue,,6545.799999999997,6544.899999999998,6545.799999999997,6545.799999999997,6544.899999999998,6545.799999999997,1.0,0.0,0.0,,Click To Continue,Continue Button,4.0,object-67,temp_instructions,,,Student,,,,,,,,,sub-28
Desktop or Laptop,Windows 10,Chrome 137.0.0.0,1920x1080,1920x1080,Temporal Distance Task,cb_03,1.0,temp_instructions,test_q1,5ieqx1,4.0,response,choice_3,5885.599999988081,5883.600000000002,5885.599999988081,5885.599999988081,5883.600000000002,5885.599999988081,1.0,0.0,0.0,,Click Response,choice_3,5.0,object-345,temp_instructions,,,Student,,,,,,,,,sub-28
Desktop or Laptop,Windows 10,Chrome 137.0.0.0,1920x1080,1920x1080,Temporal Distance Task,cb_03,1.0,temp_instructions,score_corr,7ilvjr,5.0,continue,,927.1000000119203,922.0,927.1000000119203,927.1000000119203,922.0,927.1000000119203,1.0,0.0,0.0,,Click To Continue,Continue Button,3.0,object-23,temp_instructions,,,Student,,,,,,,,,sub-28
Desktop or Laptop,Windows 10,Chrome 137.0.0.0,1920x1080,1920x1080,Temporal Distance Task,cb_03,1.0,temp_eventStart,Screen 1,dgtyxe,1.0,continue,,2233.1000000119197,2232.2000000000007,2233.1000000119197,2233.1000000119197,2232.2000000000007,2233.1000000119197,1.0,0.0,0.0,,Click To Continue,Next Button,3.0,object-43,temp_eventStart,,,Student,,,,,,,,,sub-28
Desktop or Laptop,Windows 10,Chrome 137.0.0.0,1920x1080,1920x1080,Temporal Distance Task,cb_03,1.0,temp_dist_trial,num_items,zn7si1,1.0,response,2_ITEM,2644.799999999996,2638.5999999999985,2644.799999999996,2644.799999999996,2638.5999999999985,2644.799999999996,1.0,0.0,0.0,,Click Response,2_count,5.0,object-49,temp_dist_trial,1.0,s_sh_21_1,student_shared,file holder,3.0,competing,single,s_sh_21_1.jpg,Student,,,sub-28
Desktop or Laptop,Windows 10,Chrome 137.0.0.0,1920x1080,1920x1080,Temporal Distance Task,cb_03,1.0,temp_dist_trial,dist_items,qkpkxw,2.0,info,,3.200000011922384,0.0,3.200000011922384,3.200000011922384,0.0,3.200000011922384,1.0,0.0,0.0,,Slider,Slider,4.0,object-56,temp_dist_trial,1.0,s_sh_21_1,student_shared,file holder,3.0,competing,single,s_sh_21_1.jpg,Student,,,sub-28
Desktop or Laptop,Windows 10,Chrome 137.0.0.0,1920x1080,1920x1080,Temporal Distance Task,cb_03,1.0,temp_dist_trial,dist_items,qkpkxw,2.0,continue,,3297.5999999880805,3293.7000000000044,3297.5999999880805,3297.5999999880805,3293.7000000000044,3297.5999999880805,1.0,0.0,0.0,,Click To Continue,Next button,7.0,object-60,temp_dist_trial,1.0,s_sh_21_1,student_shared,file holder,3.0,competing,single,s_sh_21_1.jpg,Student,,,sub-28
Desktop or Laptop,Windows 10,Chrome 137.0.0.0,1920x1080,1920x1080,Temporal Distance Task,cb_03,1.0,temp_dist_trial,dist_items,qkpkxw,2.0,response,63,1249.5999999999985,3293.7000000000044,3298.0000000238433,1249.5999999999985,3293.7000000000044,3298.0000000238433,1.0,2048.4000000238448,0.0,,Slider,Slider,4.0,object-56,temp_dist_trial,1.0,s_sh_21_1,student_shared,file holder,3.0,competing,single,s_sh_21_1.jpg,Student,,,sub-28
Desktop or Laptop,Windows 10,Chrome 137.0.0.0,1920x1080,1920x1080,Temporal Distance Task,cb_03,2.0,temp_dist_trial,num_items,zn7si1,1.0,response,num_miss,3002.5,3002.5,3002.5,3002.5,3002.5,3002.5,1.0,0.0,0.0,num_miss_tag,Time Limit,screen,0.0,screen,temp_dist_trial,2.0,s_a_11_1,student_art,clapperboard,3.0,unique,paired,s_a_11_1.jpg,Student,,,sub-28
Desktop or Laptop,Windows 10,Chrome 137.0.0.0,1920x1080,1920x1080,Temporal Distance Task,cb_03,3.0,temp_dist_trial,num_items,zn7si1,1.0,response,1_ITEM,137.59999999999854,133.5,137.59999999999854,137.59999999999854,133.5,137.59999999999854,1.0,0.0,0.0,,Click Response,1_count,3.0,object-46,temp_dist_trial,3.0,s_a_08_1,student_art,sewing machine,3.0,unique,paired,s_a_08_1.jpg,Student,,,sub-28
Desktop or Laptop,Windows 10,Chrome 137.0.0.0,1920x1080,1920x1080,Temporal Distance Task,cb_03,4.0,temp_dist_trial,num_items,zn7si1,1.0,response,1_ITEM,1069.5999999880805,1067.5,1069.5999999880805,1069.5999999880805,1067.5,1069.5999999880805,1.0,0.0,0.0,,Click Response,1_count,3.0,object-46,temp_dist_trial,4.0,s_sh_23_1,student_shared,ballpoint pen,3.0,competing,single,s_sh_23_1.jpg,Student,,,sub-28
Desktop or Laptop,Windows 10,Chrome 137.0.0.0,1920x1080,1920x1080,Temporal Distance Task,cb_03,5.0,temp_dist_trial,num_items,zn7si1,1.0,response,1_ITEM,2162.3999999880757,2159.3999999999937,2162.3999999880757,2162.3999999880757,2159.3999999999937,2162.3999999880757,1.0,0.0,0.0,,Click Response,1_count,3.0,object-46,temp_dist_trial,5.0,s_sh_16_1,student_shared,stapler,3.0,competing,single,s_sh_16_1.jpg,Student,,,sub-28
Desktop or Laptop,Windows 10,Chrome 137.0.0.0,1920x1080,1920x1080,Temporal Distance Task,cb_03,6.0,temp_dist_trial,num_items,zn7si1,1.0,response,2_ITEM,1433.3000000238392,1431.5999999999985,1433.3000000238392,1433.3000000238392,1431.5999999999985,1433.3000000238392,1.0,0.0,0.0,,Click Response,2_count,5.0,object-49,temp_dist_trial,6.0,s_a_10_1,student_art,tripod,3.0,unique,paired,s_a_10_1.jpg,Student,,,sub-28
Desktop or Laptop,Windows 10,Chrome 137.0.0.0,1920x1080,1920x1080,Temporal Distance Task,cb_03,6.0,temp_dist_trial,dist_items,qkpkxw,2.0,info,,2.7000000119223846,0.0,2.7000000119223846,2.7000000119223846,0.0,2.7000000119223846,1.0,0.0,0.0,,Slider,Slider,4.0,object-56,temp_dist_trial,6.0,s_a_10_1,student_art,tripod,3.0,unique,paired,s_a_10_1.jpg,Student,,,sub-28
Desktop or Laptop,Windows 10,Chrome 137.0.0.0,1920x1080,1920x1080,Temporal Distance Task,cb_03,6.0,temp_dist_trial,dist_items,qkpkxw,2.0,continue,,2436.900000000001,2432.300000000003,2436.900000000001,2436.900000000001,2432.300000000003,2436.900000000001,1.0,0.0,0.0,,Click To Continue,Next button,7.0,object-60,temp_dist_trial,6.0,s_a_10_1,student_art,tripod,3.0,unique,paired,s_a_10_1.jpg,Student,,,sub-28
Desktop or Laptop,Windows 10,Chrome 137.0.0.0,1920x1080,1920x1080,Temporal Distance Task,cb_03,6.0,temp_dist_trial,dist_items,qkpkxw,2.0,response,73,1292.0,2432.300000000003,2437.2000000119224,1292.0,2432.300000000003,2437.2000000119224,1.0,1145.2000000119224,0.0,,Slider,Slider,4.0,object-56,temp_dist_trial,6.0,s_a_10_1,student_art,tripod,3.0,unique,paired,s_a_10_1.jpg,Student,,,sub-28
Desktop or Laptop,Windows 10,Chrome 137.0.0.0,1920x1080,1920x1080,Temporal Distance Task,cb_03,7.0,temp_dist_trial,num_items,zn7si1,1.0,response,1_ITEM,1653.7000000238406,1649.9000000000015,1653.7000000238406,1653.7000000238406,1649.9000000000015,1653.7000000238406,1.0,0.0,0.0,,Click Response,1_count,3.0,object-46,temp_dist_trial,7.0,s_sh_20_1,student_shared,tape,3.0,competing,paired,s_sh_20_1.jpg,Student,,,sub-28
Desktop or Laptop,Windows 10,Chrome 137.0.0.0,1920x1080,1920x1080,Temporal Distance Task,cb_03,8.0,temp_dist_trial,num_items,zn7si1,1.0,response,2_ITEM,1078.199999988079,1073.5999999999983,1078.199999988079,1078.199999988079,1073.5999999999983,1078.199999988079,1.0,0.0,0.0,,Click Response,2_count,5.0,object-49,temp_dist_trial,8.0,s_sh_04_1,student_shared,laptop stand,3.0,competing,paired,s_sh_04_1.jpg,Student,,,sub-28
Desktop or Laptop,Windows 10,Chrome 137.0.0.0,1920x1080,1920x1080,Temporal Distance Task,cb_03,8.0,temp_dist_trial,dist_items,qkpkxw,2.0,info,,2.8999999880761607,0.0,2.8999999880761607,2.8999999880761607,0.0,2.8999999880761607,1.0,0.0,0.0,,Slider,Slider,4.0,object-56,temp_dist_trial,8.0,s_sh_04_1,student_shared,laptop stand,3.0,competing,paired,s_sh_04_1.jpg,Student,,,sub-28
Desktop or Laptop,Windows 10,Chrome 137.0.0.0,1920x1080,1920x1080,Temporal Distance Task,cb_03,8.0,temp_dist_trial,dist_items,qkpkxw,2.0,continue,,3658.300000023839,3657.599999999999,3658.300000023839,3658.300000023839,3657.599999999999,3658.300000023839,1.0,0.0,0.0,,Click To Continue,Next button,7.0,object-60,temp_dist_trial,8.0,s_sh_04_1,student_shared,laptop stand,3.0,competing,paired,s_sh_04_1.jpg,Student,,,sub-28
Desktop or Laptop,Windows 10,Chrome 137.0.0.0,1920x1080,1920x1080,Temporal Distance Task,cb_03,8.0,temp_dist_trial,dist_items,qkpkxw,2.0,response,62,818.7999999999955,3657.599999999999,3658.5000000119176,818.7999999999955,3657.599999999999,3658.5000000119176,1.0,2839.7000000119224,0.0,,Slider,Slider,4.0,object-56,temp_dist_trial,8.0,s_sh_04_1,student_shared,laptop stand,3.0,competing,paired,s_sh_04_1.jpg,Student,,,sub-28
Desktop or Laptop,Windows 10,Chrome 137.0.0.0,1920x1080,1920x1080,Temporal Distance Task,cb_03,9.0,temp_dist_trial,num_items,zn7si1,1.0,response,1_ITEM,1873.2999999880774,1868.1999999999966,1873.2999999880774,1873.2999999880774,1868.1999999999966,1873.2999999880774,1.0,0.0,0.0,,Click Response,1_count,3.0,object-46,temp_dist_trial,9.0,s_a_17_1,student_art,microphone,3.0,unique,single,s_a_17_1.jpg,Student,,,sub-28
Desktop or Laptop,Windows 10,Chrome 137.0.0.0,1920x1080,1920x1080,Temporal Distance Task,cb_03,10.0,temp_dist_trial,num_items,zn7si1,1.0,response,1_ITEM,2364.199999999997,2359.5,2364.199999999997,2364.199999999997,2359.5,2364.199999999997,1.0,0.0,0.0,,Click Response,1_count,3.0,object-46,temp_dist_trial,10.0,s_s_03_1,student_stem,petri dish,3.0,unique,paired,s_s_03_1.jpg,Student,,,sub-28
Desktop or Laptop,Windows 10,Chrome 137.0.0.0,1920x1080,1920x1080,Temporal Distance Task,cb_03,11.0,temp_dist_trial,num_items,zn7si1,1.0,response,1_ITEM,2667.300000011921,2662.800000000003,2667.300000011921,2667.300000011921,2662.800000000003,2667.300000011921,1.0,0.0,0.0,,Click Response,1_count,3.0,object-46,temp_dist_trial,11.0,s_s_02_1,student_stem,flask,3.0,unique,single,s_s_02_1.jpg,Student,,,sub-28
Desktop or Laptop,Windows 10,Chrome 137.0.0.0,1920x1080,1920x1080,Temporal Distance Task,cb_03,12.0,temp_dist_trial,num_items,zn7si1,1.0,response,1_ITEM,930.5,928.0999999999983,930.5,930.5,928.0999999999983,930.5,1.0,0.0,0.0,,Click Response,1_count,3.0,object-46,temp_dist_trial,12.0,s_s_05_1,student_stem,lab goggles,3.0,unique,paired,s_s_05_1.jpg,Student,,,sub-28
Desktop or Laptop,Windows 10,Chrome 137.0.0.0,1920x1080,1920x1080,Temporal Distance Task,cb_03,13.0,temp_dist_trial,num_items,zn7si1,1.0,response,2_ITEM,1121.6999999999969,1116.0999999999913,1121.6999999999969,1121.6999999999969,1116.0999999999913,1121.6999999999969,1.0,0.0,0.0,,Click Response,2_count,5.0,object-49,temp_dist_trial,13.0,s_sh_08_1,student_shared,post-its,3.0,competing,paired,s_sh_08_1.jpg,Student,,,sub-28
Desktop or Laptop,Windows 10,Chrome 137.0.0.0,1920x1080,1920x1080,Temporal Distance Task,cb_03,13.0,temp_dist_trial,dist_items,qkpkxw,2.0,info,,2.699999988079071,0.0,2.699999988079071,2.699999988079071,0.0,2.699999988079071,1.0,0.0,0.0,,Slider,Slider,4.0,object-56,temp_dist_trial,13.0,s_sh_08_1,student_shared,post-its,3.0,competing,paired,s_sh_08_1.jpg,Student,,,sub-28
Desktop or Laptop,Windows 10,Chrome 137.0.0.0,1920x1080,1920x1080,Temporal Distance Task,cb_03,13.0,temp_dist_trial,dist_items,qkpkxw,2.0,continue,,1884.8000000119207,1880.3999999999944,1884.8000000119207,1884.8000000119207,1880.3999999999944,1884.8000000119207,1.0,0.0,0.0,,Click To Continue,Next button,7.0,object-60,temp_dist_trial,13.0,s_sh_08_1,student_shared,post-its,3.0,competing,paired,s_sh_08_1.jpg,Student,,,sub-28
Desktop or Laptop,Windows 10,Chrome 137.0.0.0,1920x1080,1920x1080,Temporal Distance Task,cb_03,13.0,temp_dist_trial,dist_items,qkpkxw,2.0,response,73,922.0,1880.3999999999944,1885.1999999880786,922.0,1880.3999999999944,1885.1999999880786,1.0,963.1999999880792,0.0,,Slider,Slider,4.0,object-56,temp_dist_trial,13.0,s_sh_08_1,student_shared,post-its,3.0,competing,paired,s_sh_08_1.jpg,Student,,,sub-28
Desktop or Laptop,Windows 10,Chrome 137.0.0.0,1920x1080,1920x1080,Temporal Distance Task,cb_03,14.0,temp_dist_trial,num_items,zn7si1,1.0,response,1_ITEM,1344.6000000000058,1340.5,1344.6000000000058,1344.6000000000058,1340.5,1344.6000000000058,1.0,0.0,0.0,,Click Response,1_count,3.0,object-46,temp_dist_trial,14.0,s_a_03_1,student_art,palette,3.0,unique,paired,s_a_03_1.jpg,Student,,,sub-28
Desktop or Laptop,Windows 10,Chrome 137.0.0.0,1920x1080,1920x1080,Temporal Distance Task,cb_03,15.0,temp_dist_trial,num_items,zn7si1,1.0,response,2_ITEM,974.300000035757,970.5,974.300000035757,974.300000035757,970.5,974.300000035757,1.0,0.0,0.0,,Click Response,2_count,5.0,object-49,temp_dist_trial,15.0,s_sh_11_1,student_shared,pencil case,3.0,competing,paired,s_sh_11_1.jpg,Student,,,sub-28
Desktop or Laptop,Windows 10,Chrome 137.0.0.0,1920x1080,1920x1080,Temporal Distance Task,cb_03,15.0,temp_dist_trial,dist_items,qkpkxw,2.0,info,,2.6000000357598765,0.0,2.6000000357598765,2.6000000357598765,0.0,2.6000000357598765,1.0,0.0,0.0,,Slider,Slider,4.0,object-56,temp_dist_trial,15.0,s_sh_11_1,student_shared,pencil case,3.0,competing,paired,s_sh_11_1.jpg,Student,,,sub-28
Desktop or Laptop,Windows 10,Chrome 137.0.0.0,1920x1080,1920x1080,Temporal Distance Task,cb_03,15.0,temp_dist_trial,dist_items,qkpkxw,2.0,continue,,2244.000000011918,2238.199999999997,2244.000000011918,2244.000000011918,2238.199999999997,2244.000000011918,1.0,0.0,0.0,,Click To Continue,Next button,7.0,object-60,temp_dist_trial,15.0,s_sh_11_1,student_shared,pencil case,3.0,competing,paired,s_sh_11_1.jpg,Student,,,sub-28
Desktop or Laptop,Windows 10,Chrome 137.0.0.0,1920x1080,1920x1080,Temporal Distance Task,cb_03,15.0,temp_dist_trial,dist_items,qkpkxw,2.0,response,58,1449.6999999999966,2238.199999999997,2244.199999999997,1449.6999999999966,2238.199999999997,2244.199999999997,1.0,794.5,0.0,,Slider,Slider,4.0,object-56,temp_dist_trial,15.0,s_sh_11_1,student_shared,pencil case,3.0,competing,paired,s_sh_11_1.jpg,Student,,,sub-28
Desktop or Laptop,Windows 10,Chrome 137.0.0.0,1920x1080,1920x1080,Temporal Distance Task,cb_03,16.0,temp_dist_trial,num_items,zn7si1,1.0,response,1_ITEM,1526.9000000357626,1522.5,1526.9000000357626,1526.9000000357626,1522.5,1526.9000000357626,1.0,0.0,0.0,,Click Response,1_count,3.0,object-46,temp_dist_trial,16.0,s_s_01_1,student_stem,microscope,3.0,unique,single,s_s_01_1.jpg,Student,,,sub-28
Desktop or Laptop,Windows 10,Chrome 137.0.0.0,1920x1080,1920x1080,Temporal Distance Task,cb_03,17.0,temp_dist_trial,num_items,zn7si1,1.0,response,2_ITEM,1659.6000000119238,1655.900000000009,1659.6000000119238,1659.6000000119238,1655.900000000009,1659.6000000119238,1.0,0.0,0.0,,Click Response,2_count,5.0,object-49,temp_dist_trial,17.0,s_s_12_1,student_stem,robotic arm,3.0,unique,paired,s_s_12_1.jpg,Student,,,sub-28
Desktop or Laptop,Windows 10,Chrome 137.0.0.0,1920x1080,1920x1080,Temporal Distance Task,cb_03,17.0,temp_dist_trial,dist_items,qkpkxw,2.0,info,,2.5000000119180186,0.0,2.5000000119180186,2.5000000119180186,0.0,2.5000000119180186,1.0,0.0,0.0,,Slider,Slider,4.0,object-56,temp_dist_trial,17.0,s_s_12_1,student_stem,robotic arm,3.0,unique,paired,s_s_12_1.jpg,Student,,,sub-28
Desktop or Laptop,Windows 10,Chrome 137.0.0.0,1920x1080,1920x1080,Temporal Distance Task,cb_03,17.0,temp_dist_trial,dist_items,qkpkxw,2.0,continue,,2709.000000011918,2705.300000000003,2709.000000011918,2709.000000011918,2705.300000000003,2709.000000011918,1.0,0.0,0.0,,Click To Continue,Next button,7.0,object-60,temp_dist_trial,17.0,s_s_12_1,student_stem,robotic arm,3.0,unique,paired,s_s_12_1.jpg,Student,,,sub-28
Desktop or Laptop,Windows 10,Chrome 137.0.0.0,1920x1080,1920x1080,Temporal Distance Task,cb_03,17.0,temp_dist_trial,dist_items,qkpkxw,2.0,response,62,1067.5999999999913,2705.300000000003,2709.300000023839,1067.5999999999913,2705.300000000003,2709.300000023839,1.0,1641.7000000238475,0.0,,Slider,Slider,4.0,object-56,temp_dist_trial,17.0,s_s_12_1,student_stem,robotic arm,3.0,unique,paired,s_s_12_1.jpg,Student,,,sub-28
Desktop or Laptop,Windows 10,Chrome 137.0.0.0,1920x1080,1920x1080,Temporal Distance Task,cb_03,18.0,temp_dist_trial,num_items,zn7si1,1.0,response,2_ITEM,1459.8000000357572,1455.6999999999966,1459.8000000357572,1459.8000000357572,1455.6999999999966,1459.8000000357572,1.0,0.0,0.0,,Click Response,2_count,5.0,object-49,temp_dist_trial,18.0,s_s_18_1,student_stem,brain model,3.0,unique,paired,s_s_18_1.jpg,Student,,,sub-28
Desktop or Laptop,Windows 10,Chrome 137.0.0.0,1920x1080,1920x1080,Temporal Distance Task,cb_03,18.0,temp_dist_trial,dist_items,qkpkxw,2.0,info,,2.600000023841858,0.0,2.600000023841858,2.600000023841858,0.0,2.600000023841858,1.0,0.0,0.0,,Slider,Slider,4.0,object-56,temp_dist_trial,18.0,s_s_18_1,student_stem,brain model,3.0,unique,paired,s_s_18_1.jpg,Student,,,sub-28
Desktop or Laptop,Windows 10,Chrome 137.0.0.0,1920x1080,1920x1080,Temporal Distance Task,cb_03,18.0,temp_dist_trial,dist_items,qkpkxw,2.0,continue,,1661.3000000119214,1656.0,1661.3000000119214,1661.3000000119214,1656.0,1661.3000000119214,1.0,0.0,0.0,,Click To Continue,Next button,7.0,object-60,temp_dist_trial,18.0,s_s_18_1,student_stem,brain model,3.0,unique,paired,s_s_18_1.jpg,Student,,,sub-28
Desktop or Laptop,Windows 10,Chrome 137.0.0.0,1920x1080,1920x1080,Temporal Distance Task,cb_03,18.0,temp_dist_trial,dist_items,qkpkxw,2.0,response,42,727.8999999999942,1656.0,1661.6000000238419,727.8999999999942,1656.0,1661.6000000238419,1.0,933.7000000238477,0.0,,Slider,Slider,4.0,object-56,temp_dist_trial,18.0,s_s_18_1,student_stem,brain model,3.0,unique,paired,s_s_18_1.jpg,Student,,,sub-28
Desktop or Laptop,Windows 10,Chrome 137.0.0.0,1920x1080,1920x1080,Temporal Distance Task,cb_03,19.0,temp_dist_trial,num_items,zn7si1,1.0,response,1_ITEM,2532.300000011921,2529.3999999999937,2532.300000011921,2532.300000011921,2529.3999999999937,2532.300000011921,1.0,0.0,0.0,,Click Response,1_count,3.0,object-46,temp_dist_trial,19.0,s_sh_09_1,student_shared,paper clips,3.0,competing,paired,s_sh_09_1.jpg,Student,,,sub-28
Desktop or Laptop,Windows 10,Chrome 137.0.0.0,1920x1080,1920x1080,Temporal Distance Task,cb_03,20.0,temp_dist_trial,num_items,zn7si1,1.0,response,1_ITEM,2136.199999988079,2135.199999999997,2136.199999988079,2136.199999988079,2135.199999999997,2136.199999988079,1.0,0.0,0.0,,Click Response,1_count,3.0,object-46,temp_dist_trial,20.0,s_s_07_1,student_stem,periodic table,3.0,unique,single,s_s_07_1.jpg,Student,,,sub-28
Desktop or Laptop,Windows 10,Chrome 137.0.0.0,1920x1080,1920x1080,Temporal Distance Task,cb_03,21.0,temp_dist_trial,num_items,zn7si1,1.0,response,2_ITEM,1962.400000011927,1959.1000000000056,1962.400000011927,1962.400000011927,1959.1000000000056,1962.400000011927,1.0,0.0,0.0,,Click Response,2_count,5.0,object-49,temp_dist_trial,21.0,s_sh_15_1,student_shared,usb drive,3.0,competing,paired,s_sh_15_1.jpg,Student,,,sub-28
Desktop or Laptop,Windows 10,Chrome 137.0.0.0,1920x1080,1920x1080,Temporal Distance Task,cb_03,21.0,temp_dist_trial,dist_items,qkpkxw,2.0,info,,2.3999999880761607,0.0,2.3999999880761607,2.3999999880761607,0.0,2.3999999880761607,1.0,0.0,0.0,,Slider,Slider,4.0,object-56,temp_dist_trial,21.0,s_sh_15_1,student_shared,usb drive,3.0,competing,paired,s_sh_15_1.jpg,Student,,,sub-28
Desktop or Laptop,Windows 10,Chrome 137.0.0.0,1920x1080,1920x1080,Temporal Distance Task,cb_03,21.0,temp_dist_trial,dist_items,qkpkxw,2.0,continue,,1954.3000000238392,1953.0999999999915,1954.3000000238392,1954.3000000238392,1953.0999999999915,1954.3000000238392,1.0,0.0,0.0,,Click To Continue,Next button,7.0,object-60,temp_dist_trial,21.0,s_sh_15_1,student_shared,usb drive,3.0,competing,paired,s_sh_15_1.jpg,Student,,,sub-28
Desktop or Laptop,Windows 10,Chrome 137.0.0.0,1920x1080,1920x1080,Temporal Distance Task,cb_03,21.0,temp_dist_trial,dist_items,qkpkxw,2.0,response,65,1249.5,1953.0999999999915,1954.6000000357599,1249.5,1953.0999999999915,1954.6000000357599,1.0,705.1000000357599,0.0,,Slider,Slider,4.0,object-56,temp_dist_trial,21.0,s_sh_15_1,student_shared,usb drive,3.0,competing,paired,s_sh_15_1.jpg,Student,,,sub-28
Desktop or Laptop,Windows 10,Chrome 137.0.0.0,1920x1080,1920x1080,Temporal Distance Task,cb_03,22.0,temp_dist_trial,num_items,zn7si1,1.0,response,1_ITEM,2360.299999988085,2359.6000000000063,2360.299999988085,2360.299999988085,2359.6000000000063,2360.299999988085,1.0,0.0,0.0,,Click Response,1_count,3.0,object-46,temp_dist_trial,22.0,s_a_16_1,student_art,piano,3.0,unique,single,s_a_16_1.jpg,Student,,,sub-28
Desktop or Laptop,Windows 10,Chrome 137.0.0.0,1920x1080,1920x1080,Temporal Distance Task,cb_03,23.0,temp_dist_trial,num_items,zn7si1,1.0,response,1_ITEM,937.000000023836,934.0999999999913,937.000000023836,937.000000023836,934.0999999999913,937.000000023836,1.0,0.0,0.0,,Click Response,1_count,3.0,object-46,temp_dist_trial,23.0,s_a_19_1,student_art,ballet shoes,3.0,unique,single,s_a_19_1.jpg,Student,,,sub-28
Desktop or Laptop,Windows 10,Chrome 137.0.0.0,1920x1080,1920x1080,Temporal Distance Task,cb_03,24.0,temp_dist_trial,num_items,zn7si1,1.0,response,2_ITEM,1304.2000000000114,1298.1000000000058,1304.2000000000114,1304.2000000000114,1298.1000000000058,1304.2000000000114,1.0,0.0,0.0,,Click Response,2_count,5.0,object-49,temp_dist_trial,24.0,s_sh_06_1,student_shared,clipboard,3.0,competing,paired,s_sh_06_1.jpg,Student,,,sub-28
Desktop or Laptop,Windows 10,Chrome 137.0.0.0,1920x1080,1920x1080,Temporal Distance Task,cb_03,24.0,temp_dist_trial,dist_items,qkpkxw,2.0,info,,2.3000000000029104,0.0,2.3000000000029104,2.3000000000029104,0.0,2.3000000000029104,1.0,0.0,0.0,,Slider,Slider,4.0,object-56,temp_dist_trial,24.0,s_sh_06_1,student_shared,clipboard,3.0,competing,paired,s_sh_06_1.jpg,Student,,,sub-28
Desktop or Laptop,Windows 10,Chrome 137.0.0.0,1920x1080,1920x1080,Temporal Distance Task,cb_03,24.0,temp_dist_trial,dist_items,qkpkxw,2.0,continue,,2081.4000000238448,2080.5,2081.4000000238448,2081.4000000238448,2080.5,2081.4000000238448,1.0,0.0,0.0,,Click To Continue,Next button,7.0,object-60,temp_dist_trial,24.0,s_sh_06_1,student_shared,clipboard,3.0,competing,paired,s_sh_06_1.jpg,Student,,,sub-28
Desktop or Laptop,Windows 10,Chrome 137.0.0.0,1920x1080,1920x1080,Temporal Distance Task,cb_03,24.0,temp_dist_trial,dist_items,qkpkxw,2.0,response,71,552.0,2080.5,2081.6000000119243,552.0,2080.5,2081.6000000119243,1.0,1529.6000000119238,0.0,,Slider,Slider,4.0,object-56,temp_dist_trial,24.0,s_sh_06_1,student_shared,clipboard,3.0,competing,paired,s_sh_06_1.jpg,Student,,,sub-28
Desktop or Laptop,Windows 10,Chrome 137.0.0.0,1920x1080,1920x1080,Temporal Distance Task,cb_03,25.0,temp_dist_trial,num_items,zn7si1,1.0,response,2_ITEM,1399.999999988082,1395.1000000000058,1399.999999988082,1399.999999988082,1395.1000000000058,1399.999999988082,1.0,0.0,0.0,,Click Response,2_count,5.0,object-49,temp_dist_trial,25.0,s_a_20_1,student_art,pin cushion,3.0,unique,paired,s_a_20_1.jpg,Student,,,sub-28
Desktop or Laptop,Windows 10,Chrome 137.0.0.0,1920x1080,1920x1080,Temporal Distance Task,cb_03,25.0,temp_dist_trial,dist_items,qkpkxw,2.0,info,,2.800000011920929,0.0,2.800000011920929,2.800000011920929,0.0,2.800000011920929,1.0,0.0,0.0,,Slider,Slider,4.0,object-56,temp_dist_trial,25.0,s_a_20_1,student_art,pin cushion,3.0,unique,paired,s_a_20_1.jpg,Student,,,sub-28
Desktop or Laptop,Windows 10,Chrome 137.0.0.0,1920x1080,1920x1080,Temporal Distance Task,cb_03,25.0,temp_dist_trial,dist_items,qkpkxw,2.0,continue,,1243.300000011921,1237.3999999999942,1243.300000011921,1243.300000011921,1237.3999999999942,1243.300000011921,1.0,0.0,0.0,,Click To Continue,Next button,7.0,object-60,temp_dist_trial,25.0,s_a_20_1,student_art,pin cushion,3.0,unique,paired,s_a_20_1.jpg,Student,,,sub-28
Desktop or Laptop,Windows 10,Chrome 137.0.0.0,1920x1080,1920x1080,Temporal Distance Task,cb_03,25.0,temp_dist_trial,dist_items,qkpkxw,2.0,response,37,570.1000000000057,1237.3999999999942,1243.4999999999854,570.1000000000057,1237.3999999999942,1243.4999999999854,1.0,673.3999999999796,0.0,,Slider,Slider,4.0,object-56,temp_dist_trial,25.0,s_a_20_1,student_art,pin cushion,3.0,unique,paired,s_a_20_1.jpg,Student,,,sub-28
Desktop or Laptop,Windows 10,Chrome 137.0.0.0,1920x1080,1920x1080,Temporal Distance Task,cb_03,26.0,temp_dist_trial,num_items,zn7si1,1.0,response,2_ITEM,1693.0000000357684,1692.3000000000034,1693.0000000357684,1693.0000000357684,1692.3000000000034,1693.0000000357684,1.0,0.0,0.0,,Click Response,2_count,5.0,object-49,temp_dist_trial,26.0,s_s_04_1,student_stem,bunsen burner,3.0,unique,paired,s_s_04_1.jpg,Student,,,sub-28
Desktop or Laptop,Windows 10,Chrome 137.0.0.0,1920x1080,1920x1080,Temporal Distance Task,cb_03,26.0,temp_dist_trial,dist_items,qkpkxw,2.0,info,,2.500000035768608,0.0,2.500000035768608,2.500000035768608,0.0,2.500000035768608,1.0,0.0,0.0,,Slider,Slider,4.0,object-56,temp_dist_trial,26.0,s_s_04_1,student_stem,bunsen burner,3.0,unique,paired,s_s_04_1.jpg,Student,,,sub-28
Desktop or Laptop,Windows 10,Chrome 137.0.0.0,1920x1080,1920x1080,Temporal Distance Task,cb_03,26.0,temp_dist_trial,dist_items,qkpkxw,2.0,continue,,1321.9000000119267,1316.2000000000114,1321.9000000119267,1321.9000000119267,1316.2000000000114,1321.9000000119267,1.0,0.0,0.0,,Click To Continue,Next button,7.0,object-60,temp_dist_trial,26.0,s_s_04_1,student_stem,bunsen burner,3.0,unique,paired,s_s_04_1.jpg,Student,,,sub-28
Desktop or Laptop,Windows 10,Chrome 137.0.0.0,1920x1080,1920x1080,Temporal Distance Task,cb_03,26.0,temp_dist_trial,dist_items,qkpkxw,2.0,response,36,667.3000000000029,1316.2000000000114,1322.2000000000114,667.3000000000029,1316.2000000000114,1322.2000000000114,1.0,654.9000000000087,0.0,,Slider,Slider,4.0,object-56,temp_dist_trial,26.0,s_s_04_1,student_stem,bunsen burner,3.0,unique,paired,s_s_04_1.jpg,Student,,,sub-28
Desktop or Laptop,Windows 10,Chrome 137.0.0.0,1920x1080,1920x1080,Temporal Distance Task,cb_03,27.0,temp_dist_trial,num_items,zn7si1,1.0,response,1_ITEM,1519.8999999999942,1516.5,1519.8999999999942,1519.8999999999942,1516.5,1519.8999999999942,1.0,0.0,0.0,,Click Response,1_count,3.0,object-46,temp_dist_trial,27.0,s_sh_01_1,student_shared,notebook,3.0,competing,paired,s_sh_01_1.jpg,Student,,,sub-28
Desktop or Laptop,Windows 10,Chrome 137.0.0.0,1920x1080,1920x1080,Temporal Distance Task,cb_03,28.0,temp_dist_trial,num_items,zn7si1,1.0,response,2_ITEM,897.500000011918,891.5999999999913,897.500000011918,897.500000011918,891.5999999999913,897.500000011918,1.0,0.0,0.0,,Click Response,2_count,5.0,object-49,temp_dist_trial,28.0,s_a_04_1,student_art,easel,3.0,unique,paired,s_a_04_1.jpg,Student,,,sub-28
Desktop or Laptop,Windows 10,Chrome 137.0.0.0,1920x1080,1920x1080,Temporal Distance Task,cb_03,28.0,temp_dist_trial,dist_items,qkpkxw,2.0,info,,2.3000000357569657,0.0,2.3000000357569657,2.3000000357569657,0.0,2.3000000357569657,1.0,0.0,0.0,,Slider,Slider,4.0,object-56,temp_dist_trial,28.0,s_a_04_1,student_art,easel,3.0,unique,paired,s_a_04_1.jpg,Student,,,sub-28
Desktop or Laptop,Windows 10,Chrome 137.0.0.0,1920x1080,1920x1080,Temporal Distance Task,cb_03,28.0,temp_dist_trial,dist_items,qkpkxw,2.0,continue,,1451.8999999999942,1449.6999999999966,1451.8999999999942,1451.8999999999942,1449.6999999999966,1451.8999999999942,1.0,0.0,0.0,,Click To Continue,Next button,7.0,object-60,temp_dist_trial,28.0,s_a_04_1,student_art,easel,3.0,unique,paired,s_a_04_1.jpg,Student,,,sub-28
Desktop or Laptop,Windows 10,Chrome 137.0.0.0,1920x1080,1920x1080,Temporal Distance Task,cb_03,28.0,temp_dist_trial,dist_items,qkpkxw,2.0,response,64,703.5999999999913,1449.6999999999966,1452.2000000119147,703.5999999999913,1449.6999999999966,1452.2000000119147,1.0,748.6000000119237,0.0,,Slider,Slider,4.0,object-56,temp_dist_trial,28.0,s_a_04_1,student_art,easel,3.0,unique,paired,s_a_04_1.jpg,Student,,,sub-28
Desktop or Laptop,Windows 10,Chrome 137.0.0.0,1920x1080,1920x1080,Temporal Distance Task,cb_03,29.0,temp_dist_trial,num_items,zn7si1,1.0,response,1_ITEM,1112.6000000357599,1110.0,1112.6000000357599,1112.6000000357599,1110.0,1112.6000000357599,1.0,0.0,0.0,,Click Response,1_count,3.0,object-46,temp_dist_trial,29.0,s_s_14_1,student_stem,funnel,3.0,unique,paired,s_s_14_1.jpg,Student,,,sub-28
Desktop or Laptop,Windows 10,Chrome 137.0.0.0,1920x1080,1920x1080,Temporal Distance Task,cb_03,30.0,temp_dist_trial,num_items,zn7si1,1.0,response,2_ITEM,1291.699999988079,1285.8999999999942,1291.699999988079,1291.699999988079,1285.8999999999942,1291.699999988079,1.0,0.0,0.0,,Click Response,2_count,5.0,object-49,temp_dist_trial,30.0,s_sh_14_1,student_shared,printer,3.0,competing,paired,s_sh_14_1.jpg,Student,,,sub-28
Desktop or Laptop,Windows 10,Chrome 137.0.0.0,1920x1080,1920x1080,Temporal Distance Task,cb_03,30.0,temp_dist_trial,dist_items,qkpkxw,2.0,info,,2.700000011915108,0.0,2.700000011915108,2.700000011915108,0.0,2.700000011915108,1.0,0.0,0.0,,Slider,Slider,4.0,object-56,temp_dist_trial,30.0,s_sh_14_1,student_shared,printer,3.0,competing,paired,s_sh_14_1.jpg,Student,,,sub-28
Desktop or Laptop,Windows 10,Chrome 137.0.0.0,1920x1080,1920x1080,Temporal Distance Task,cb_03,30.0,temp_dist_trial,dist_items,qkpkxw,2.0,continue,,1894.8999999999944,1892.5,1894.8999999999944,1894.8999999999944,1892.5,1894.8999999999944,1.0,0.0,0.0,,Click To Continue,Next button,7.0,object-60,temp_dist_trial,30.0,s_sh_14_1,student_shared,printer,3.0,competing,paired,s_sh_14_1.jpg,Student,,,sub-28
Desktop or Laptop,Windows 10,Chrome 137.0.0.0,1920x1080,1920x1080,Temporal Distance Task,cb_03,30.0,temp_dist_trial,dist_items,qkpkxw,2.0,response,75,642.8999999999943,1892.5,1895.2000000119147,642.8999999999943,1892.5,1895.2000000119147,1.0,1252.300000011921,0.0,,Slider,Slider,4.0,object-56,temp_dist_trial,30.0,s_sh_14_1,student_shared,printer,3.0,competing,paired,s_sh_14_1.jpg,Student,,,sub-28
Desktop or Laptop,Windows 10,Chrome 137.0.0.0,1920x1080,1920x1080,Temporal Distance Task,cb_03,31.0,temp_dist_trial,num_items,zn7si1,1.0,response,1_ITEM,1038.300000035757,1037.2999999999884,1038.300000035757,1038.300000035757,1037.2999999999884,1038.300000035757,1.0,0.0,0.0,,Click Response,1_count,3.0,object-46,temp_dist_trial,31.0,s_s_17_1,student_stem,ring stand,3.0,unique,paired,s_s_17_1.jpg,Student,,,sub-28
Desktop or Laptop,Windows 10,Chrome 137.0.0.0,1920x1080,1920x1080,Temporal Distance Task,cb_03,32.0,temp_dist_trial,num_items,zn7si1,1.0,response,1_ITEM,1344.699999988079,1340.5,1344.699999988079,1344.699999988079,1340.5,1344.699999988079,1.0,0.0,0.0,,Click Response,1_count,3.0,object-46,temp_dist_trial,32.0,s_s_09_1,student_stem,multimeter,3.0,unique,single,s_s_09_1.jpg,Student,,,sub-28
Desktop or Laptop,Windows 10,Chrome 137.0.0.0,1920x1080,1920x1080,Temporal Distance Task,cb_03,33.0,temp_dist_trial,num_items,zn7si1,1.0,response,2_ITEM,1079.3000000000031,1073.6000000000058,1079.3000000000031,1079.3000000000031,1073.6000000000058,1079.3000000000031,1.0,0.0,0.0,,Click Response,2_count,5.0,object-49,temp_dist_trial,33.0,s_a_02_1,student_art,canvas,3.0,unique,single,s_a_02_1.jpg,Student,,,sub-28
Desktop or Laptop,Windows 10,Chrome 137.0.0.0,1920x1080,1920x1080,Temporal Distance Task,cb_03,33.0,temp_dist_trial,dist_items,qkpkxw,2.0,info,,2.3000000119209294,0.0,2.3000000119209294,2.3000000119209294,0.0,2.3000000119209294,1.0,0.0,0.0,,Slider,Slider,4.0,object-56,temp_dist_trial,33.0,s_a_02_1,student_art,canvas,3.0,unique,single,s_a_02_1.jpg,Student,,,sub-28
Desktop or Laptop,Windows 10,Chrome 137.0.0.0,1920x1080,1920x1080,Temporal Distance Task,cb_03,33.0,temp_dist_trial,dist_items,qkpkxw,2.0,continue,,1949.0,1947.1000000000056,1949.0,1949.0,1947.1000000000056,1949.0,1.0,0.0,0.0,,Click To Continue,Next button,7.0,object-60,temp_dist_trial,33.0,s_a_02_1,student_art,canvas,3.0,unique,single,s_a_02_1.jpg,Student,,,sub-28
Desktop or Laptop,Windows 10,Chrome 137.0.0.0,1920x1080,1920x1080,Temporal Distance Task,cb_03,33.0,temp_dist_trial,dist_items,qkpkxw,2.0,response,71,1122.1999999999969,1947.1000000000056,1949.1999999880786,1122.1999999999969,1947.1000000000056,1949.1999999880786,1.0,826.999999988082,0.0,,Slider,Slider,4.0,object-56,temp_dist_trial,33.0,s_a_02_1,student_art,canvas,3.0,unique,single,s_a_02_1.jpg,Student,,,sub-28
Desktop or Laptop,Windows 10,Chrome 137.0.0.0,1920x1080,1920x1080,Temporal Distance Task,cb_03,34.0,temp_dist_trial,num_items,zn7si1,1.0,response,2_ITEM,1273.6999999999969,1267.6999999999969,1273.6999999999969,1273.6999999999969,1267.6999999999969,1273.6999999999969,1.0,0.0,0.0,,Click Response,2_count,5.0,object-49,temp_dist_trial,34.0,s_a_13_1,student_art,violin,3.0,unique,paired,s_a_13_1.jpg,Student,,,sub-28
Desktop or Laptop,Windows 10,Chrome 137.0.0.0,1920x1080,1920x1080,Temporal Distance Task,cb_03,34.0,temp_dist_trial,dist_items,qkpkxw,2.0,info,,2.3000000119209294,0.0,2.3000000119209294,2.3000000119209294,0.0,2.3000000119209294,1.0,0.0,0.0,,Slider,Slider,4.0,object-56,temp_dist_trial,34.0,s_a_13_1,student_art,violin,3.0,unique,paired,s_a_13_1.jpg,Student,,,sub-28
Desktop or Laptop,Windows 10,Chrome 137.0.0.0,1920x1080,1920x1080,Temporal Distance Task,cb_03,34.0,temp_dist_trial,dist_items,qkpkxw,2.0,continue,,1599.4000000357626,1595.1999999999966,1599.4000000357626,1599.4000000357626,1595.1999999999966,1599.4000000357626,1.0,0.0,0.0,,Click To Continue,Next button,7.0,object-60,temp_dist_trial,34.0,s_a_13_1,student_art,violin,3.0,unique,paired,s_a_13_1.jpg,Student,,,sub-28
Desktop or Laptop,Windows 10,Chrome 137.0.0.0,1920x1080,1920x1080,Temporal Distance Task,cb_03,34.0,temp_dist_trial,dist_items,qkpkxw,2.0,response,25,667.1999999999971,1595.1999999999966,1599.6999999880786,667.1999999999971,1595.1999999999966,1599.6999999880786,1.0,932.499999988082,0.0,,Slider,Slider,4.0,object-56,temp_dist_trial,34.0,s_a_13_1,student_art,violin,3.0,unique,paired,s_a_13_1.jpg,Student,,,sub-28
Desktop or Laptop,Windows 10,Chrome 137.0.0.0,1920x1080,1920x1080,Temporal Distance Task,cb_03,35.0,temp_dist_trial,num_items,zn7si1,1.0,response,1_ITEM,1050.6000000119236,1049.4000000000087,1050.6000000119236,1050.6000000119236,1049.4000000000087,1050.6000000119236,1.0,0.0,0.0,,Click Response,1_count,3.0,object-46,temp_dist_trial,35.0,s_sh_10_1,student_shared,scissors,3.0,competing,paired,s_sh_10_1.jpg,Student,,,sub-28
Desktop or Laptop,Windows 10,Chrome 137.0.0.0,1920x1080,1920x1080,Temporal Distance Task,cb_03,36.0,temp_dist_trial,num_items,zn7si1,1.0,response,1_ITEM,2150.199999999997,2147.300000000003,2150.199999999997,2150.199999999997,2147.300000000003,2150.199999999997,1.0,0.0,0.0,,Click Response,1_count,3.0,object-46,temp_dist_trial,36.0,s_sh_03_1,student_shared,highlighter,3.0,competing,single,s_sh_03_1.jpg,Student,,,sub-28
Desktop or Laptop,Windows 10,Chrome 137.0.0.0,1920x1080,1920x1080,Temporal Distance Task,cb_03,37.0,temp_dist_trial,num_items,zn7si1,1.0,response,1_ITEM,1360.1999999999969,1358.6999999999969,1360.1999999999969,1360.1999999999969,1358.6999999999969,1360.1999999999969,1.0,0.0,0.0,,Click Response,1_count,3.0,object-46,temp_dist_trial,37.0,s_sh_12_1,student_shared,binder,3.0,competing,paired,s_sh_12_1.jpg,Student,,,sub-28
Desktop or Laptop,Windows 10,Chrome 137.0.0.0,1920x1080,1920x1080,Temporal Distance Task,cb_03,38.0,temp_dist_trial,num_items,zn7si1,1.0,response,2_ITEM,1432.8999999999942,1431.5,1432.8999999999942,1432.8999999999942,1431.5,1432.8999999999942,1.0,0.0,0.0,,Click Response,2_count,5.0,object-49,temp_dist_trial,38.0,s_s_13_1,student_stem,telescope,3.0,unique,paired,s_s_13_1.jpg,Student,,,sub-28
Desktop or Laptop,Windows 10,Chrome 137.0.0.0,1920x1080,1920x1080,Temporal Distance Task,cb_03,38.0,temp_dist_trial,dist_items,qkpkxw,2.0,info,,2.399999988090713,0.0,2.399999988090713,2.399999988090713,0.0,2.399999988090713,1.0,0.0,0.0,,Slider,Slider,4.0,object-56,temp_dist_trial,38.0,s_s_13_1,student_stem,telescope,3.0,unique,paired,s_s_13_1.jpg,Student,,,sub-28
Desktop or Laptop,Windows 10,Chrome 137.0.0.0,1920x1080,1920x1080,Temporal Distance Task,cb_03,38.0,temp_dist_trial,dist_items,qkpkxw,2.0,continue,,2678.500000011933,2675.1000000000063,2678.500000011933,2678.500000011933,2675.1000000000063,2678.500000011933,1.0,0.0,0.0,,Click To Continue,Next button,7.0,object-60,temp_dist_trial,38.0,s_s_13_1,student_stem,telescope,3.0,unique,paired,s_s_13_1.jpg,Student,,,sub-28
Desktop or Laptop,Windows 10,Chrome 137.0.0.0,1920x1080,1920x1080,Temporal Distance Task,cb_03,38.0,temp_dist_trial,dist_items,qkpkxw,2.0,response,39,1571.0,2675.1000000000063,2678.700000000012,1571.0,2675.1000000000063,2678.700000000012,1.0,1107.7000000000116,0.0,,Slider,Slider,4.0,object-56,temp_dist_trial,38.0,s_s_13_1,student_stem,telescope,3.0,unique,paired,s_s_13_1.jpg,Student,,,sub-28
Desktop or Laptop,Windows 10,Chrome 137.0.0.0,1920x1080,1920x1080,Temporal Distance Task,cb_03,39.0,temp_dist_trial,num_items,zn7si1,1.0,response,1_ITEM,2590.4000000119267,2590.0,2590.4000000119267,2590.4000000119267,2590.0,2590.4000000119267,1.0,0.0,0.0,,Click Response,1_count,3.0,object-46,temp_dist_trial,39.0,s_sh_19_1,student_shared,portable plastic drawer,3.0,competing,single,s_sh_19_1.jpg,Student,,,sub-28
Desktop or Laptop,Windows 10,Chrome 137.0.0.0,1920x1080,1920x1080,Temporal Distance Task,cb_03,40.0,temp_dist_trial,num_items,zn7si1,1.0,response,2_ITEM,1010.800000035757,1006.7999999999884,1010.800000035757,1010.800000035757,1006.7999999999884,1010.800000035757,1.0,0.0,0.0,,Click Response,2_count,5.0,object-49,temp_dist_trial,40.0,s_a_09_1,student_art,picture frame,3.0,unique,paired,s_a_09_1.jpg,Student,,,sub-28
Desktop or Laptop,Windows 10,Chrome 137.0.0.0,1920x1080,1920x1080,Temporal Distance Task,cb_03,40.0,temp_dist_trial,dist_items,qkpkxw,2.0,info,,2.4000000238302164,0.0,2.4000000238302164,2.4000000238302164,0.0,2.4000000238302164,1.0,0.0,0.0,,Slider,Slider,4.0,object-56,temp_dist_trial,40.0,s_a_09_1,student_art,picture frame,3.0,unique,paired,s_a_09_1.jpg,Student,,,sub-28
Desktop or Laptop,Windows 10,Chrome 137.0.0.0,1920x1080,1920x1080,Temporal Distance Task,cb_03,40.0,temp_dist_trial,dist_items,qkpkxw,2.0,continue,,2174.9999999880674,2171.3999999999937,2174.9999999880674,2174.9999999880674,2171.3999999999937,2174.9999999880674,1.0,0.0,0.0,,Click To Continue,Next button,7.0,object-60,temp_dist_trial,40.0,s_a_09_1,student_art,picture frame,3.0,unique,paired,s_a_09_1.jpg,Student,,,sub-28
Desktop or Laptop,Windows 10,Chrome 137.0.0.0,1920x1080,1920x1080,Temporal Distance Task,cb_03,40.0,temp_dist_trial,dist_items,qkpkxw,2.0,response,0,667.1999999999825,2171.3999999999937,2175.200000035751,667.1999999999825,2171.3999999999937,2175.200000035751,1.0,1508.0000000357684,0.0,,Slider,Slider,4.0,object-56,temp_dist_trial,40.0,s_a_09_1,student_art,picture frame,3.0,unique,paired,s_a_09_1.jpg,Student,,,sub-28
Desktop or Laptop,Windows 10,Chrome 137.0.0.0,1920x1080,1920x1080,Temporal Distance Task,cb_03,41.0,temp_dist_trial,num_items,zn7si1,1.0,response,1_ITEM,1413.7000000119147,1413.2999999999884,1413.7000000119147,1413.7000000119147,1413.2999999999884,1413.7000000119147,1.0,0.0,0.0,,Click Response,1_count,3.0,object-46,temp_dist_trial,41.0,s_sh_22_1,student_shared,hole puncher,3.0,competing,paired,s_sh_22_1.jpg,Student,,,sub-28
Desktop or Laptop,Windows 10,Chrome 137.0.0.0,1920x1080,1920x1080,Temporal Distance Task,cb_03,42.0,temp_dist_trial,num_items,zn7si1,1.0,response,1_ITEM,747.7999999999884,746.0,747.7999999999884,747.7999999999884,746.0,747.7999999999884,1.0,0.0,0.0,,Click Response,1_count,3.0,object-46,temp_dist_trial,42.0,s_sh_02_1,student_shared,eraser,3.0,competing,single,s_sh_02_1.jpg,Student,,,sub-28
Desktop or Laptop,Windows 10,Chrome 137.0.0.0,1920x1080,1920x1080,Temporal Distance Task,cb_03,43.0,temp_dist_trial,num_items,zn7si1,1.0,response,1_ITEM,2522.9000000119267,2517.200000000012,2522.9000000119267,2522.9000000119267,2517.200000000012,2522.9000000119267,1.0,0.0,0.0,,Click Response,1_count,3.0,object-46,temp_dist_trial,43.0,s_sh_18_1,student_shared,wall calendar,3.0,competing,paired,s_sh_18_1.jpg,Student,,,sub-28
Desktop or Laptop,Windows 10,Chrome 137.0.0.0,1920x1080,1920x1080,Temporal Distance Task,cb_03,44.0,temp_dist_trial,num_items,zn7si1,1.0,response,1_ITEM,902.0000000119327,897.8000000000177,902.0000000119327,902.0000000119327,897.8000000000177,902.0000000119327,1.0,0.0,0.0,,Click Response,1_count,3.0,object-46,temp_dist_trial,44.0,s_sh_13_1,student_shared,index cards,3.0,competing,paired,s_sh_13_1.jpg,Student,,,sub-28
Desktop or Laptop,Windows 10,Chrome 137.0.0.0,1920x1080,1920x1080,Temporal Distance Task,cb_03,45.0,temp_dist_trial,num_items,zn7si1,1.0,response,1_ITEM,1468.3999999880907,1467.8000000000175,1468.3999999880907,1468.3999999880907,1467.8000000000175,1468.3999999880907,1.0,0.0,0.0,,Click Response,1_count,3.0,object-46,temp_dist_trial,45.0,s_sh_24_1,student_shared,desk organizer,3.0,competing,paired,s_sh_24_1.jpg,Student,,,sub-28
Desktop or Laptop,Windows 10,Chrome 137.0.0.0,1920x1080,1920x1080,Temporal Distance Task,cb_03,46.0,temp_dist_trial,num_items,zn7si1,1.0,response,1_ITEM,776.2000000000116,770.4000000000232,776.2000000000116,776.2000000000116,770.4000000000232,776.2000000000116,1.0,0.0,0.0,,Click Response,1_count,3.0,object-46,temp_dist_trial,46.0,s_sh_07_1,student_shared,ruler,3.0,competing,single,s_sh_07_1.jpg,Student,,,sub-28
Desktop or Laptop,Windows 10,Chrome 137.0.0.0,1920x1080,1920x1080,Temporal Distance Task,cb_03,47.0,temp_dist_trial,num_items,zn7si1,1.0,response,2_ITEM,1163.0000000119326,1158.6000000000058,1163.0000000119326,1163.0000000119326,1158.6000000000058,1163.0000000119326,1.0,0.0,0.0,,Click Response,2_count,5.0,object-49,temp_dist_trial,47.0,s_sh_17_1,student_shared,wireless mouse,3.0,competing,paired,s_sh_17_1.jpg,Student,,,sub-28
Desktop or Laptop,Windows 10,Chrome 137.0.0.0,1920x1080,1920x1080,Temporal Distance Task,cb_03,47.0,temp_dist_trial,dist_items,qkpkxw,2.0,info,,2.3000000357569657,0.0,2.3000000357569657,2.3000000357569657,0.0,2.3000000357569657,1.0,0.0,0.0,,Slider,Slider,4.0,object-56,temp_dist_trial,47.0,s_sh_17_1,student_shared,wireless mouse,3.0,competing,paired,s_sh_17_1.jpg,Student,,,sub-28
Desktop or Laptop,Windows 10,Chrome 137.0.0.0,1920x1080,1920x1080,Temporal Distance Task,cb_03,47.0,temp_dist_trial,dist_items,qkpkxw,2.0,continue,,3714.800000035757,3712.1000000000067,3714.800000035757,3714.800000035757,3712.1000000000067,3714.800000035757,1.0,0.0,0.0,,Click To Continue,Next button,7.0,object-60,temp_dist_trial,47.0,s_sh_17_1,student_shared,wireless mouse,3.0,competing,paired,s_sh_17_1.jpg,Student,,,sub-28
Desktop or Laptop,Windows 10,Chrome 137.0.0.0,1920x1080,1920x1080,Temporal Distance Task,cb_03,47.0,temp_dist_trial,dist_items,qkpkxw,2.0,response,40,1079.6999999999823,3712.1000000000067,3715.000000023836,1079.6999999999823,3712.1000000000067,3715.000000023836,1.0,2635.300000023853,0.0,,Slider,Slider,4.0,object-56,temp_dist_trial,47.0,s_sh_17_1,student_shared,wireless mouse,3.0,competing,paired,s_sh_17_1.jpg,Student,,,sub-28
Desktop or Laptop,Windows 10,Chrome 137.0.0.0,1920x1080,1920x1080,Temporal Distance Task,cb_03,48.0,temp_dist_trial,num_items,zn7si1,1.0,response,1_ITEM,1499.9999999880677,1498.2999999999884,1499.9999999880677,1499.9999999880677,1498.2999999999884,1499.9999999880677,1.0,0.0,0.0,,Click Response,1_count,3.0,object-46,temp_dist_trial,48.0,s_sh_05_1,student_shared,laptop,3.0,competing,single,s_sh_05_1.jpg,Student,,,sub-28
Desktop or Laptop,Windows 10,Chrome 137.0.0.0,1920x1080,1920x1080,Temporal Distance Task,cb_03,2.0,temp_eventStart,Screen 1,dgtyxe,1.0,continue,,1407.2999999999884,1401.1999999999825,1407.2999999999884,1407.2999999999884,1401.1999999999825,1407.2999999999884,1.0,0.0,0.0,,Click To Continue,Next Button,3.0,object-43,temp_eventStart,,,Travel,,,,,,,,,sub-28
Desktop or Laptop,Windows 10,Chrome 137.0.0.0,1920x1080,1920x1080,Temporal Distance Task,cb_03,49.0,temp_dist_trial,num_items,zn7si1,1.0,response,1_ITEM,2242.5000000357686,2238.1000000000063,2242.5000000357686,2242.5000000357686,2238.1000000000063,2242.5000000357686,1.0,0.0,0.0,,Click Response,1_count,3.0,object-46,temp_dist_trial,1.0,t_s_14_1,travel_shared,hand sanitizer,3.0,competing,paired,t_s_14_1.jpg,Travel,,,sub-28
Desktop or Laptop,Windows 10,Chrome 137.0.0.0,1920x1080,1920x1080,Temporal Distance Task,cb_03,50.0,temp_dist_trial,num_items,zn7si1,1.0,response,2_ITEM,993.4999999880673,988.7999999999884,993.4999999880673,993.4999999880673,988.7999999999884,993.4999999880673,1.0,0.0,0.0,,Click Response,2_count,5.0,object-49,temp_dist_trial,2.0,t_s_01_1,travel_shared,fanny pack,3.0,competing,paired,t_s_01_1.jpg,Travel,,,sub-28
Desktop or Laptop,Windows 10,Chrome 137.0.0.0,1920x1080,1920x1080,Temporal Distance Task,cb_03,50.0,temp_dist_trial,dist_items,qkpkxw,2.0,info,,2.499999988067429,0.0,2.499999988067429,2.499999988067429,0.0,2.499999988067429,1.0,0.0,0.0,,Slider,Slider,4.0,object-56,temp_dist_trial,2.0,t_s_01_1,travel_shared,fanny pack,3.0,competing,paired,t_s_01_1.jpg,Travel,,,sub-28
Desktop or Laptop,Windows 10,Chrome 137.0.0.0,1920x1080,1920x1080,Temporal Distance Task,cb_03,50.0,temp_dist_trial,dist_items,qkpkxw,2.0,continue,,2140.9999999880674,2135.0,2140.9999999880674,2140.9999999880674,2135.0,2140.9999999880674,1.0,0.0,0.0,,Click To Continue,Next button,7.0,object-60,temp_dist_trial,2.0,t_s_01_1,travel_shared,fanny pack,3.0,competing,paired,t_s_01_1.jpg,Travel,,,sub-28
Desktop or Laptop,Windows 10,Chrome 137.0.0.0,1920x1080,1920x1080,Temporal Distance Task,cb_03,50.0,temp_dist_trial,dist_items,qkpkxw,2.0,response,31,1334.3999999999942,2135.0,2141.0,1334.3999999999942,2135.0,2141.0,1.0,806.6000000000058,0.0,,Slider,Slider,4.0,object-56,temp_dist_trial,2.0,t_s_01_1,travel_shared,fanny pack,3.0,competing,paired,t_s_01_1.jpg,Travel,,,sub-28
Desktop or Laptop,Windows 10,Chrome 137.0.0.0,1920x1080,1920x1080,Temporal Distance Task,cb_03,51.0,temp_dist_trial,num_items,zn7si1,1.0,response,1_ITEM,969.9999999880673,964.5999999999768,969.9999999880673,969.9999999880673,964.5999999999768,969.9999999880673,1.0,0.0,0.0,,Click Response,1_count,3.0,object-46,temp_dist_trial,3.0,t_m_16_1,travel_Miami,flippers,3.0,unique,single,t_m_16_1.jpg,Travel,,,sub-28
Desktop or Laptop,Windows 10,Chrome 137.0.0.0,1920x1080,1920x1080,Temporal Distance Task,cb_03,52.0,temp_dist_trial,num_items,zn7si1,1.0,response,2_ITEM,1679.7999999880853,1674.1000000000058,1679.7999999880853,1679.7999999880853,1674.1000000000058,1679.7999999880853,1.0,0.0,0.0,,Click Response,2_count,5.0,object-49,temp_dist_trial,4.0,t_s_06_1,travel_shared,luggage,3.0,competing,paired,t_s_06_1.jpg,Travel,,,sub-28
Desktop or Laptop,Windows 10,Chrome 137.0.0.0,1920x1080,1920x1080,Temporal Distance Task,cb_03,52.0,temp_dist_trial,dist_items,qkpkxw,2.0,info,,2.7999999999883585,0.0,2.7999999999883585,2.7999999999883585,0.0,2.7999999999883585,1.0,0.0,0.0,,Slider,Slider,4.0,object-56,temp_dist_trial,4.0,t_s_06_1,travel_shared,luggage,3.0,competing,paired,t_s_06_1.jpg,Travel,,,sub-28
Desktop or Laptop,Windows 10,Chrome 137.0.0.0,1920x1080,1920x1080,Temporal Distance Task,cb_03,52.0,temp_dist_trial,dist_items,qkpkxw,2.0,continue,,1576.9999999880677,1571.0,1576.9999999880677,1576.9999999880677,1571.0,1576.9999999880677,1.0,0.0,0.0,,Click To Continue,Next button,7.0,object-60,temp_dist_trial,4.0,t_s_06_1,travel_shared,luggage,3.0,competing,paired,t_s_06_1.jpg,Travel,,,sub-28
Desktop or Laptop,Windows 10,Chrome 137.0.0.0,1920x1080,1920x1080,Temporal Distance Task,cb_03,52.0,temp_dist_trial,dist_items,qkpkxw,2.0,response,63,746.0999999999768,1571.0,1577.0,746.0999999999768,1571.0,1577.0,1.0,830.9000000000232,0.0,,Slider,Slider,4.0,object-56,temp_dist_trial,4.0,t_s_06_1,travel_shared,luggage,3.0,competing,paired,t_s_06_1.jpg,Travel,,,sub-28
Desktop or Laptop,Windows 10,Chrome 137.0.0.0,1920x1080,1920x1080,Temporal Distance Task,cb_03,53.0,temp_dist_trial,num_items,zn7si1,1.0,response,1_ITEM,979.9999999880673,976.5999999999768,979.9999999880673,979.9999999880673,976.5999999999768,979.9999999880673,1.0,0.0,0.0,,Click Response,1_count,3.0,object-46,temp_dist_trial,5.0,t_i_19_1,travel_Iceland,rope,3.0,unique,single,t_i_19_1.jpg,Travel,,,sub-28
Desktop or Laptop,Windows 10,Chrome 137.0.0.0,1920x1080,1920x1080,Temporal Distance Task,cb_03,54.0,temp_dist_trial,num_items,zn7si1,1.0,response,2_ITEM,1172.699999988079,1170.6000000000058,1172.699999988079,1172.699999988079,1170.6000000000058,1172.699999988079,1.0,0.0,0.0,,Click Response,2_count,5.0,object-49,temp_dist_trial,6.0,t_s_19_1,travel_shared,pajamas,3.0,competing,paired,t_s_19_1.jpg,Travel,,,sub-28
Desktop or Laptop,Windows 10,Chrome 137.0.0.0,1920x1080,1920x1080,Temporal Distance Task,cb_03,54.0,temp_dist_trial,dist_items,qkpkxw,2.0,info,,2.2000000238476787,0.0,2.2000000238476787,2.2000000238476787,0.0,2.2000000238476787,1.0,0.0,0.0,,Slider,Slider,4.0,object-56,temp_dist_trial,6.0,t_s_19_1,travel_shared,pajamas,3.0,competing,paired,t_s_19_1.jpg,Travel,,,sub-28
Desktop or Laptop,Windows 10,Chrome 137.0.0.0,1920x1080,1920x1080,Temporal Distance Task,cb_03,54.0,temp_dist_trial,dist_items,qkpkxw,2.0,continue,,2500.200000023848,2499.0,2500.200000023848,2500.200000023848,2499.0,2500.200000023848,1.0,0.0,0.0,,Click To Continue,Next button,7.0,object-60,temp_dist_trial,6.0,t_s_19_1,travel_shared,pajamas,3.0,competing,paired,t_s_19_1.jpg,Travel,,,sub-28
Desktop or Laptop,Windows 10,Chrome 137.0.0.0,1920x1080,1920x1080,Temporal Distance Task,cb_03,54.0,temp_dist_trial,dist_items,qkpkxw,2.0,response,13,709.7000000000116,2499.0,2500.4000000119267,709.7000000000116,2499.0,2500.4000000119267,1.0,1790.7000000119147,0.0,,Slider,Slider,4.0,object-56,temp_dist_trial,6.0,t_s_19_1,travel_shared,pajamas,3.0,competing,paired,t_s_19_1.jpg,Travel,,,sub-28
Desktop or Laptop,Windows 10,Chrome 137.0.0.0,1920x1080,1920x1080,Temporal Distance Task,cb_03,55.0,temp_dist_trial,num_items,zn7si1,1.0,response,1_ITEM,1272.1000000000058,1267.8000000000175,1272.1000000000058,1272.1000000000058,1267.8000000000175,1272.1000000000058,1.0,0.0,0.0,,Click Response,1_count,3.0,object-46,temp_dist_trial,7.0,t_s_17_1,travel_shared,toothbrush,3.0,competing,single,t_s_17_1.jpg,Travel,,,sub-28
Desktop or Laptop,Windows 10,Chrome 137.0.0.0,1920x1080,1920x1080,Temporal Distance Task,cb_03,56.0,temp_dist_trial,num_items,zn7si1,1.0,response,1_ITEM,2432.800000023853,2432.4000000000233,2432.800000023853,2432.800000023853,2432.4000000000233,2432.800000023853,1.0,0.0,0.0,,Click Response,1_count,3.0,object-46,temp_dist_trial,8.0,t_s_11_1,travel_shared,eye mask,3.0,competing,single,t_s_11_1.jpg,Travel,,,sub-28
Desktop or Laptop,Windows 10,Chrome 137.0.0.0,1920x1080,1920x1080,Temporal Distance Task,cb_03,57.0,temp_dist_trial,num_items,zn7si1,1.0,response,1_ITEM,884.8999999880908,879.5,884.8999999880908,884.8999999880908,879.5,884.8999999880908,1.0,0.0,0.0,,Click Response,1_count,3.0,object-46,temp_dist_trial,9.0,t_s_23_1,travel_shared,ball cap,3.0,competing,paired,t_s_23_1.jpg,Travel,,,sub-28
Desktop or Laptop,Windows 10,Chrome 137.0.0.0,1920x1080,1920x1080,Temporal Distance Task,cb_03,58.0,temp_dist_trial,num_items,zn7si1,1.0,response,1_ITEM,1506.500000023836,1504.2999999999884,1506.500000023836,1506.500000023836,1504.2999999999884,1506.500000023836,1.0,0.0,0.0,,Click Response,1_count,3.0,object-46,temp_dist_trial,10.0,t_s_13_1,travel_shared,contact lens case,3.0,competing,paired,t_s_13_1.jpg,Travel,,,sub-28
Desktop or Laptop,Windows 10,Chrome 137.0.0.0,1920x1080,1920x1080,Temporal Distance Task,cb_03,59.0,temp_dist_trial,num_items,zn7si1,1.0,response,2_ITEM,1342.5999999880733,1340.5,1342.5999999880733,1342.5999999880733,1340.5,1342.5999999880733,1.0,0.0,0.0,,Click Response,2_count,5.0,object-49,temp_dist_trial,11.0,t_m_04_1,travel_Miami,UV jacket,3.0,unique,paired,t_m_04_1.jpg,Travel,,,sub-28
Desktop or Laptop,Windows 10,Chrome 137.0.0.0,1920x1080,1920x1080,Temporal Distance Task,cb_03,59.0,temp_dist_trial,dist_items,qkpkxw,2.0,info,,2.3000000238534994,0.0,2.3000000238534994,2.3000000238534994,0.0,2.3000000238534994,1.0,0.0,0.0,,Slider,Slider,4.0,object-56,temp_dist_trial,11.0,t_m_04_1,travel_Miami,UV jacket,3.0,unique,paired,t_m_04_1.jpg,Travel,,,sub-28
Desktop or Laptop,Windows 10,Chrome 137.0.0.0,1920x1080,1920x1080,Temporal Distance Task,cb_03,59.0,temp_dist_trial,dist_items,qkpkxw,2.0,continue,,1659.1000000357744,1655.9000000000233,1659.1000000357744,1659.1000000357744,1655.9000000000233,1659.1000000357744,1.0,0.0,0.0,,Click To Continue,Next button,7.0,object-60,temp_dist_trial,11.0,t_m_04_1,travel_Miami,UV jacket,3.0,unique,paired,t_m_04_1.jpg,Travel,,,sub-28
Desktop or Laptop,Windows 10,Chrome 137.0.0.0,1920x1080,1920x1080,Temporal Distance Task,cb_03,59.0,temp_dist_trial,dist_items,qkpkxw,2.0,response,42,873.4000000000232,1655.9000000000233,1659.3999999880907,873.4000000000232,1655.9000000000233,1659.3999999880907,1.0,785.9999999880673,0.0,,Slider,Slider,4.0,object-56,temp_dist_trial,11.0,t_m_04_1,travel_Miami,UV jacket,3.0,unique,paired,t_m_04_1.jpg,Travel,,,sub-28
Desktop or Laptop,Windows 10,Chrome 137.0.0.0,1920x1080,1920x1080,Temporal Distance Task,cb_03,60.0,temp_dist_trial,num_items,zn7si1,1.0,response,1_ITEM,884.4000000238302,879.5,884.4000000238302,884.4000000238302,879.5,884.4000000238302,1.0,0.0,0.0,,Click Response,1_count,3.0,object-46,temp_dist_trial,12.0,t_s_08_1,travel_shared,hand lotion,3.0,competing,single,t_s_08_1.jpg,Travel,,,sub-28
Desktop or Laptop,Windows 10,Chrome 137.0.0.0,1920x1080,1920x1080,Temporal Distance Task,cb_03,61.0,temp_dist_trial,num_items,zn7si1,1.0,response,1_ITEM,919.2000000238477,915.8999999999942,919.2000000238477,919.2000000238477,915.8999999999942,919.2000000238477,1.0,0.0,0.0,,Click Response,1_count,3.0,object-46,temp_dist_trial,13.0,t_m_15_1,travel_Miami,shorts,3.0,unique,single,t_m_15_1.jpg,Travel,,,sub-28
Desktop or Laptop,Windows 10,Chrome 137.0.0.0,1920x1080,1920x1080,Temporal Distance Task,cb_03,62.0,temp_dist_trial,num_items,zn7si1,1.0,response,1_ITEM,1264.600000023842,1261.7000000000114,1264.600000023842,1264.600000023842,1261.7000000000114,1264.600000023842,1.0,0.0,0.0,,Click Response,1_count,3.0,object-46,temp_dist_trial,14.0,t_s_22_1,travel_shared,belt,3.0,competing,single,t_s_22_1.jpg,Travel,,,sub-28
Desktop or Laptop,Windows 10,Chrome 137.0.0.0,1920x1080,1920x1080,Temporal Distance Task,cb_03,63.0,temp_dist_trial,num_items,zn7si1,1.0,response,1_ITEM,904.1000000000058,903.7000000000116,904.1000000000058,904.1000000000058,903.7000000000116,904.1000000000058,1.0,0.0,0.0,,Click Response,1_count,3.0,object-46,temp_dist_trial,15.0,t_m_01_1,travel_Miami,sandals,3.0,unique,paired,t_m_01_1.jpg,Travel,,,sub-28
Desktop or Laptop,Windows 10,Chrome 137.0.0.0,1920x1080,1920x1080,Temporal Distance Task,cb_03,64.0,temp_dist_trial,num_items,zn7si1,1.0,response,1_ITEM,73.60000003577444,72.80000000001745,73.60000003577444,73.60000003577444,72.80000000001745,73.60000003577444,1.0,0.0,0.0,,Click Response,1_count,3.0,object-46,temp_dist_trial,16.0,t_s_15_1,travel_shared,luggage tag,3.0,competing,paired,t_s_15_1.jpg,Travel,,,sub-28
Desktop or Laptop,Windows 10,Chrome 137.0.0.0,1920x1080,1920x1080,Temporal Distance Task,cb_03,65.0,temp_dist_trial,num_items,zn7si1,1.0,response,1_ITEM,2706.200000000012,2705.300000000017,2706.200000000012,2706.200000000012,2705.300000000017,2706.200000000012,1.0,0.0,0.0,,Click Response,1_count,3.0,object-46,temp_dist_trial,17.0,t_s_20_1,travel_shared,travel pill case,3.0,competing,single,t_s_20_1.jpg,Travel,,,sub-28
Desktop or Laptop,Windows 10,Chrome 137.0.0.0,1920x1080,1920x1080,Temporal Distance Task,cb_03,66.0,temp_dist_trial,num_items,zn7si1,1.0,response,1_ITEM,1271.2999999999886,1267.7999999999886,1271.2999999999886,1271.2999999999886,1267.7999999999886,1271.2999999999886,1.0,0.0,0.0,,Click Response,1_count,3.0,object-46,temp_dist_trial,18.0,t_i_15_1,travel_Iceland,compass,3.0,unique,paired,t_i_15_1.jpg,Travel,,,sub-28
Desktop or Laptop,Windows 10,Chrome 137.0.0.0,1920x1080,1920x1080,Temporal Distance Task,cb_03,67.0,temp_dist_trial,num_items,zn7si1,1.0,response,1_ITEM,1414.9000000238302,1413.1999999999825,1414.9000000238302,1414.9000000238302,1413.1999999999825,1414.9000000238302,1.0,0.0,0.0,,Click Response,1_count,3.0,object-46,temp_dist_trial,19.0,t_m_10_1,travel_Miami,tanktop,3.0,unique,paired,t_m_10_1.jpg,Travel,,,sub-28
Desktop or Laptop,Windows 10,Chrome 137.0.0.0,1920x1080,1920x1080,Temporal Distance Task,cb_03,68.0,temp_dist_trial,num_items,zn7si1,1.0,response,2_ITEM,1106.9999999880674,1104.0,1106.9999999880674,1106.9999999880674,1104.0,1106.9999999880674,1.0,0.0,0.0,,Click Response,2_count,5.0,object-49,temp_dist_trial,20.0,t_m_17_1,travel_Miami,water gun,3.0,unique,paired,t_m_17_1.jpg,Travel,,,sub-28
Desktop or Laptop,Windows 10,Chrome 137.0.0.0,1920x1080,1920x1080,Temporal Distance Task,cb_03,68.0,temp_dist_trial,dist_items,qkpkxw,2.0,info,,2.7000000000116415,0.0,2.7000000000116415,2.7000000000116415,0.0,2.7000000000116415,1.0,0.0,0.0,,Slider,Slider,4.0,object-56,temp_dist_trial,20.0,t_m_17_1,travel_Miami,water gun,3.0,unique,paired,t_m_17_1.jpg,Travel,,,sub-28
Desktop or Laptop,Windows 10,Chrome 137.0.0.0,1920x1080,1920x1080,Temporal Distance Task,cb_03,68.0,temp_dist_trial,dist_items,qkpkxw,2.0,continue,,2488.300000023853,2486.9000000000233,2488.300000023853,2488.300000023853,2486.9000000000233,2488.300000023853,1.0,0.0,0.0,,Click To Continue,Next button,7.0,object-60,temp_dist_trial,20.0,t_m_17_1,travel_Miami,water gun,3.0,unique,paired,t_m_17_1.jpg,Travel,,,sub-28
Desktop or Laptop,Windows 10,Chrome 137.0.0.0,1920x1080,1920x1080,Temporal Distance Task,cb_03,68.0,temp_dist_trial,dist_items,qkpkxw,2.0,response,18,843.1000000000058,2486.9000000000233,2488.500000011933,843.1000000000058,2486.9000000000233,2488.500000011933,1.0,1645.400000011927,0.0,,Slider,Slider,4.0,object-56,temp_dist_trial,20.0,t_m_17_1,travel_Miami,water gun,3.0,unique,paired,t_m_17_1.jpg,Travel,,,sub-28
Desktop or Laptop,Windows 10,Chrome 137.0.0.0,1920x1080,1920x1080,Temporal Distance Task,cb_03,69.0,temp_dist_trial,num_items,zn7si1,1.0,response,1_ITEM,807.1000000119092,806.7999999999884,807.1000000119092,807.1000000119092,806.7999999999884,807.1000000119092,1.0,0.0,0.0,,Click Response,1_count,3.0,object-46,temp_dist_trial,21.0,t_s_16_1,travel_shared,chapstick,3.0,competing,paired,t_s_16_1.jpg,Travel,,,sub-28
Desktop or Laptop,Windows 10,Chrome 137.0.0.0,1920x1080,1920x1080,Temporal Distance Task,cb_03,70.0,temp_dist_trial,num_items,zn7si1,1.0,response,1_ITEM,2640.000000023836,2638.6000000000063,2640.000000023836,2640.000000023836,2638.6000000000063,2640.000000023836,1.0,0.0,0.0,,Click Response,1_count,3.0,object-46,temp_dist_trial,22.0,t_i_09_1,travel_Iceland,ear muffs,3.0,unique,paired,t_i_09_1.jpg,Travel,,,sub-28
Desktop or Laptop,Windows 10,Chrome 137.0.0.0,1920x1080,1920x1080,Temporal Distance Task,cb_03,71.0,temp_dist_trial,num_items,zn7si1,1.0,response,2_ITEM,1164.2999999880851,1158.6000000000058,1164.2999999880851,1164.2999999880851,1158.6000000000058,1164.2999999880851,1.0,0.0,0.0,,Click Response,2_count,5.0,object-49,temp_dist_trial,23.0,t_s_24_1,travel_shared,ear plugs,3.0,competing,paired,t_s_24_1.jpg,Travel,,,sub-28
Desktop or Laptop,Windows 10,Chrome 137.0.0.0,1920x1080,1920x1080,Temporal Distance Task,cb_03,71.0,temp_dist_trial,dist_items,qkpkxw,2.0,info,,2.499999988067429,0.0,2.499999988067429,2.499999988067429,0.0,2.499999988067429,1.0,0.0,0.0,,Slider,Slider,4.0,object-56,temp_dist_trial,23.0,t_s_24_1,travel_shared,ear plugs,3.0,competing,paired,t_s_24_1.jpg,Travel,,,sub-28
Desktop or Laptop,Windows 10,Chrome 137.0.0.0,1920x1080,1920x1080,Temporal Distance Task,cb_03,71.0,temp_dist_trial,dist_items,qkpkxw,2.0,continue,,2227.200000035751,2226.0999999999767,2227.200000035751,2227.200000035751,2226.0999999999767,2227.200000035751,1.0,0.0,0.0,,Click To Continue,Next button,7.0,object-60,temp_dist_trial,23.0,t_s_24_1,travel_shared,ear plugs,3.0,competing,paired,t_s_24_1.jpg,Travel,,,sub-28
Desktop or Laptop,Windows 10,Chrome 137.0.0.0,1920x1080,1920x1080,Temporal Distance Task,cb_03,71.0,temp_dist_trial,dist_items,qkpkxw,2.0,response,67,855.1999999999823,2226.0999999999767,2227.4999999880674,855.1999999999823,2226.0999999999767,2227.4999999880674,1.0,1372.2999999880851,0.0,,Slider,Slider,4.0,object-56,temp_dist_trial,23.0,t_s_24_1,travel_shared,ear plugs,3.0,competing,paired,t_s_24_1.jpg,Travel,,,sub-28
Desktop or Laptop,Windows 10,Chrome 137.0.0.0,1920x1080,1920x1080,Temporal Distance Task,cb_03,72.0,temp_dist_trial,num_items,zn7si1,1.0,response,2_ITEM,1892.3999999880907,1886.4000000000235,1892.3999999880907,1892.3999999880907,1886.4000000000235,1892.3999999880907,1.0,0.0,0.0,,Click Response,2_count,5.0,object-49,temp_dist_trial,24.0,t_s_03_1,travel_shared,portable charger,3.0,competing,paired,t_s_03_1.jpg,Travel,,,sub-28
Desktop or Laptop,Windows 10,Chrome 137.0.0.0,1920x1080,1920x1080,Temporal Distance Task,cb_03,72.0,temp_dist_trial,dist_items,qkpkxw,2.0,info,,2.2999999880848923,0.0,2.2999999880848923,2.2999999880848923,0.0,2.2999999880848923,1.0,0.0,0.0,,Slider,Slider,4.0,object-56,temp_dist_trial,24.0,t_s_03_1,travel_shared,portable charger,3.0,competing,paired,t_s_03_1.jpg,Travel,,,sub-28
Desktop or Laptop,Windows 10,Chrome 137.0.0.0,1920x1080,1920x1080,Temporal Distance Task,cb_03,72.0,temp_dist_trial,dist_items,qkpkxw,2.0,continue,,1942.1000000000056,1941.0,1942.1000000000056,1942.1000000000056,1941.0,1942.1000000000056,1.0,0.0,0.0,,Click To Continue,Next button,7.0,object-60,temp_dist_trial,24.0,t_s_03_1,travel_shared,portable charger,3.0,competing,paired,t_s_03_1.jpg,Travel,,,sub-28
Desktop or Laptop,Windows 10,Chrome 137.0.0.0,1920x1080,1920x1080,Temporal Distance Task,cb_03,72.0,temp_dist_trial,dist_items,qkpkxw,2.0,response,74,721.8000000000177,1941.0,1942.2999999880847,721.8000000000177,1941.0,1942.2999999880847,1.0,1220.4999999880674,0.0,,Slider,Slider,4.0,object-56,temp_dist_trial,24.0,t_s_03_1,travel_shared,portable charger,3.0,competing,paired,t_s_03_1.jpg,Travel,,,sub-28
Desktop or Laptop,Windows 10,Chrome 137.0.0.0,1920x1080,1920x1080,Temporal Distance Task,cb_03,73.0,temp_dist_trial,num_items,zn7si1,1.0,response,1_ITEM,1730.0000000357684,1728.7000000000116,1730.0000000357684,1730.0000000357684,1728.7000000000116,1730.0000000357684,1.0,0.0,0.0,,Click Response,1_count,3.0,object-46,temp_dist_trial,25.0,t_s_07_1,travel_shared,phone charger cable,3.0,competing,single,t_s_07_1.jpg,Travel,,,sub-28
Desktop or Laptop,Windows 10,Chrome 137.0.0.0,1920x1080,1920x1080,Temporal Distance Task,cb_03,74.0,temp_dist_trial,num_items,zn7si1,1.0,response,1_ITEM,2153.200000000012,2147.200000000012,2153.200000000012,2153.200000000012,2147.200000000012,2153.200000000012,1.0,0.0,0.0,,Click Response,1_count,3.0,object-46,temp_dist_trial,26.0,t_i_13_1,travel_Iceland,sleeping bag,3.0,unique,paired,t_i_13_1.jpg,Travel,,,sub-28
Desktop or Laptop,Windows 10,Chrome 137.0.0.0,1920x1080,1920x1080,Temporal Distance Task,cb_03,75.0,temp_dist_trial,num_items,zn7si1,1.0,response,2_ITEM,1141.7000000357511,1140.3999999999942,1141.7000000357511,1141.7000000357511,1140.3999999999942,1141.7000000357511,1.0,0.0,0.0,,Click Response,2_count,5.0,object-49,temp_dist_trial,27.0,t_m_14_1,travel_Miami,swim goggles,3.0,unique,paired,t_m_14_1.jpg,Travel,,,sub-28
Desktop or Laptop,Windows 10,Chrome 137.0.0.0,1920x1080,1920x1080,Temporal Distance Task,cb_03,75.0,temp_dist_trial,dist_items,qkpkxw,2.0,info,,2.4000000238302164,0.0,2.4000000238302164,2.4000000238302164,0.0,2.4000000238302164,1.0,0.0,0.0,,Slider,Slider,4.0,object-56,temp_dist_trial,27.0,t_m_14_1,travel_Miami,swim goggles,3.0,unique,paired,t_m_14_1.jpg,Travel,,,sub-28
Desktop or Laptop,Windows 10,Chrome 137.0.0.0,1920x1080,1920x1080,Temporal Distance Task,cb_03,75.0,temp_dist_trial,dist_items,qkpkxw,2.0,continue,,1482.6000000119093,1480.0999999999767,1482.6000000119093,1482.6000000119093,1480.0999999999767,1482.6000000119093,1.0,0.0,0.0,,Click To Continue,Next button,7.0,object-60,temp_dist_trial,27.0,t_m_14_1,travel_Miami,swim goggles,3.0,unique,paired,t_m_14_1.jpg,Travel,,,sub-28
Desktop or Laptop,Windows 10,Chrome 137.0.0.0,1920x1080,1920x1080,Temporal Distance Task,cb_03,75.0,temp_dist_trial,dist_items,qkpkxw,2.0,response,25,770.3999999999942,1480.0999999999767,1482.7999999999884,770.3999999999942,1480.0999999999767,1482.7999999999884,1.0,712.3999999999942,0.0,,Slider,Slider,4.0,object-56,temp_dist_trial,27.0,t_m_14_1,travel_Miami,swim goggles,3.0,unique,paired,t_m_14_1.jpg,Travel,,,sub-28
Desktop or Laptop,Windows 10,Chrome 137.0.0.0,1920x1080,1920x1080,Temporal Distance Task,cb_03,76.0,temp_dist_trial,num_items,zn7si1,1.0,response,1_ITEM,852.3999999880908,849.1000000000058,852.3999999880908,852.3999999880908,849.1000000000058,852.3999999880908,1.0,0.0,0.0,,Click Response,1_count,3.0,object-46,temp_dist_trial,28.0,t_i_17_1,travel_Iceland,binoculars,3.0,unique,paired,t_i_17_1.jpg,Travel,,,sub-28
Desktop or Laptop,Windows 10,Chrome 137.0.0.0,1920x1080,1920x1080,Temporal Distance Task,cb_03,77.0,temp_dist_trial,num_items,zn7si1,1.0,response,1_ITEM,1885.7999999999884,1880.2999999999884,1885.7999999999884,1885.7999999999884,1880.2999999999884,1885.7999999999884,1.0,0.0,0.0,,Click Response,1_count,3.0,object-46,temp_dist_trial,29.0,t_m_18_1,travel_Miami,waterproof tote,3.0,unique,single,t_m_18_1.jpg,Travel,,,sub-28
Desktop or Laptop,Windows 10,Chrome 137.0.0.0,1920x1080,1920x1080,Temporal Distance Task,cb_03,78.0,temp_dist_trial,num_items,zn7si1,1.0,response,2_ITEM,1048.4999999880674,1043.2999999999884,1048.4999999880674,1048.4999999880674,1043.2999999999884,1048.4999999880674,1.0,0.0,0.0,,Click Response,2_count,5.0,object-49,temp_dist_trial,30.0,t_m_20_1,travel_Miami,inflatable beachball,3.0,unique,paired,t_m_20_1.jpg,Travel,,,sub-28
Desktop or Laptop,Windows 10,Chrome 137.0.0.0,1920x1080,1920x1080,Temporal Distance Task,cb_03,78.0,temp_dist_trial,dist_items,qkpkxw,2.0,info,,2.2000000357511453,0.0,2.2000000357511453,2.2000000357511453,0.0,2.2000000357511453,1.0,0.0,0.0,,Slider,Slider,4.0,object-56,temp_dist_trial,30.0,t_m_20_1,travel_Miami,inflatable beachball,3.0,unique,paired,t_m_20_1.jpg,Travel,,,sub-28
Desktop or Laptop,Windows 10,Chrome 137.0.0.0,1920x1080,1920x1080,Temporal Distance Task,cb_03,78.0,temp_dist_trial,dist_items,qkpkxw,2.0,continue,,3707.6000000119093,3706.199999999983,3707.6000000119093,3707.6000000119093,3706.199999999983,3707.6000000119093,1.0,0.0,0.0,,Click To Continue,Next button,7.0,object-60,temp_dist_trial,30.0,t_m_20_1,travel_Miami,inflatable beachball,3.0,unique,paired,t_m_20_1.jpg,Travel,,,sub-28
Desktop or Laptop,Windows 10,Chrome 137.0.0.0,1920x1080,1920x1080,Temporal Distance Task,cb_03,78.0,temp_dist_trial,dist_items,qkpkxw,2.0,response,12,527.6999999999825,3706.199999999983,3709.6000000119093,527.6999999999825,3706.199999999983,3709.6000000119093,1.0,3181.9000000119267,0.0,,Slider,Slider,4.0,object-56,temp_dist_trial,30.0,t_m_20_1,travel_Miami,inflatable beachball,3.0,unique,paired,t_m_20_1.jpg,Travel,,,sub-28
Desktop or Laptop,Windows 10,Chrome 137.0.0.0,1920x1080,1920x1080,Temporal Distance Task,cb_03,79.0,temp_dist_trial,num_items,zn7si1,1.0,response,1_ITEM,1371.5000000357684,1370.7000000000114,1371.5000000357684,1371.5000000357684,1370.7000000000114,1371.5000000357684,1.0,0.0,0.0,,Click Response,1_count,3.0,object-46,temp_dist_trial,31.0,t_s_05_1,travel_shared,neck pillow,3.0,competing,single,t_s_05_1.jpg,Travel,,,sub-28
Desktop or Laptop,Windows 10,Chrome 137.0.0.0,1920x1080,1920x1080,Temporal Distance Task,cb_03,80.0,temp_dist_trial,num_items,zn7si1,1.0,response,1_ITEM,944.8000000238536,940.2000000000116,944.8000000238536,944.8000000238536,940.2000000000116,944.8000000238536,1.0,0.0,0.0,,Click Response,1_count,3.0,object-46,temp_dist_trial,32.0,t_m_19_1,travel_Miami,surfboard,3.0,unique,single,t_m_19_1.jpg,Travel,,,sub-28
Desktop or Laptop,Windows 10,Chrome 137.0.0.0,1920x1080,1920x1080,Temporal Distance Task,cb_03,81.0,temp_dist_trial,num_items,zn7si1,1.0,response,1_ITEM,845.9000000238302,843.0999999999768,845.9000000238302,845.9000000238302,843.0999999999768,845.9000000238302,1.0,0.0,0.0,,Click Response,1_count,3.0,object-46,temp_dist_trial,33.0,t_i_20_1,travel_Iceland,lantern,3.0,unique,single,t_i_20_1.jpg,Travel,,,sub-28
Desktop or Laptop,Windows 10,Chrome 137.0.0.0,1920x1080,1920x1080,Temporal Distance Task,cb_03,82.0,temp_dist_trial,num_items,zn7si1,1.0,response,1_ITEM,1818.3000000119207,1813.6000000000056,1818.3000000119207,1818.3000000119207,1813.6000000000056,1818.3000000119207,1.0,0.0,0.0,,Click Response,1_count,3.0,object-46,temp_dist_trial,34.0,t_s_21_1,travel_shared,umbrella,3.0,competing,paired,t_s_21_1.jpg,Travel,,,sub-28
Desktop or Laptop,Windows 10,Chrome 137.0.0.0,1920x1080,1920x1080,Temporal Distance Task,cb_03,83.0,temp_dist_trial,num_items,zn7si1,1.0,response,2_ITEM,1877.0000000119326,1874.3000000000175,1877.0000000119326,1877.0000000119326,1874.3000000000175,1877.0000000119326,1.0,0.0,0.0,,Click Response,2_count,5.0,object-49,temp_dist_trial,35.0,t_i_03_1,travel_Iceland,winter jacket,3.0,unique,paired,t_i_03_1.jpg,Travel,,,sub-28
Desktop or Laptop,Windows 10,Chrome 137.0.0.0,1920x1080,1920x1080,Temporal Distance Task,cb_03,83.0,temp_dist_trial,dist_items,qkpkxw,2.0,info,,2.500000035768608,0.0,2.500000035768608,2.500000035768608,0.0,2.500000035768608,1.0,0.0,0.0,,Slider,Slider,4.0,object-56,temp_dist_trial,35.0,t_i_03_1,travel_Iceland,winter jacket,3.0,unique,paired,t_i_03_1.jpg,Travel,,,sub-28
Desktop or Laptop,Windows 10,Chrome 137.0.0.0,1920x1080,1920x1080,Temporal Distance Task,cb_03,83.0,temp_dist_trial,dist_items,qkpkxw,2.0,continue,,2028.700000023848,2025.8999999999944,2028.700000023848,2028.700000023848,2025.8999999999944,2028.700000023848,1.0,0.0,0.0,,Click To Continue,Next button,7.0,object-60,temp_dist_trial,35.0,t_i_03_1,travel_Iceland,winter jacket,3.0,unique,paired,t_i_03_1.jpg,Travel,,,sub-28
Desktop or Laptop,Windows 10,Chrome 137.0.0.0,1920x1080,1920x1080,Temporal Distance Task,cb_03,83.0,temp_dist_trial,dist_items,qkpkxw,2.0,response,51,564.1000000000057,2025.8999999999944,2030.5000000357688,564.1000000000057,2025.8999999999944,2030.5000000357688,1.0,1466.4000000357626,0.0,,Slider,Slider,4.0,object-56,temp_dist_trial,35.0,t_i_03_1,travel_Iceland,winter jacket,3.0,unique,paired,t_i_03_1.jpg,Travel,,,sub-28
Desktop or Laptop,Windows 10,Chrome 137.0.0.0,1920x1080,1920x1080,Temporal Distance Task,cb_03,84.0,temp_dist_trial,num_items,zn7si1,1.0,response,2_ITEM,1216.8000000238535,1213.1000000000058,1216.8000000238535,1216.8000000238535,1213.1000000000058,1216.8000000238535,1.0,0.0,0.0,,Click Response,2_count,5.0,object-49,temp_dist_trial,36.0,t_m_12_1,travel_Miami,foldable pail and shovel,3.0,unique,paired,t_m_12_1.jpg,Travel,,,sub-28
Desktop or Laptop,Windows 10,Chrome 137.0.0.0,1920x1080,1920x1080,Temporal Distance Task,cb_03,84.0,temp_dist_trial,dist_items,qkpkxw,2.0,info,,2.3000000357569657,0.0,2.3000000357569657,2.3000000357569657,0.0,2.3000000357569657,1.0,0.0,0.0,,Slider,Slider,4.0,object-56,temp_dist_trial,36.0,t_m_12_1,travel_Miami,foldable pail and shovel,3.0,unique,paired,t_m_12_1.jpg,Travel,,,sub-28
Desktop or Laptop,Windows 10,Chrome 137.0.0.0,1920x1080,1920x1080,Temporal Distance Task,cb_03,84.0,temp_dist_trial,dist_items,qkpkxw,2.0,continue,,1495.000000023836,1492.1000000000058,1495.000000023836,1495.000000023836,1492.1000000000058,1495.000000023836,1.0,0.0,0.0,,Click To Continue,Next button,7.0,object-60,temp_dist_trial,36.0,t_m_12_1,travel_Miami,foldable pail and shovel,3.0,unique,paired,t_m_12_1.jpg,Travel,,,sub-28
Desktop or Laptop,Windows 10,Chrome 137.0.0.0,1920x1080,1920x1080,Temporal Distance Task,cb_03,84.0,temp_dist_trial,dist_items,qkpkxw,2.0,response,22,479.19999999998254,1492.1000000000058,1495.3000000357572,479.19999999998254,1492.1000000000058,1495.3000000357572,1.0,1016.1000000357744,0.0,,Slider,Slider,4.0,object-56,temp_dist_trial,36.0,t_m_12_1,travel_Miami,foldable pail and shovel,3.0,unique,paired,t_m_12_1.jpg,Travel,,,sub-28
Desktop or Laptop,Windows 10,Chrome 137.0.0.0,1920x1080,1920x1080,Temporal Distance Task,cb_03,85.0,temp_dist_trial,num_items,zn7si1,1.0,response,1_ITEM,1017.9000000238302,1013.0,1017.9000000238302,1017.9000000238302,1013.0,1017.9000000238302,1.0,0.0,0.0,,Click Response,1_count,3.0,object-46,temp_dist_trial,37.0,t_i_10_1,travel_Iceland,trekking poles,3.0,unique,single,t_i_10_1.jpg,Travel,,,sub-28
Desktop or Laptop,Windows 10,Chrome 137.0.0.0,1920x1080,1920x1080,Temporal Distance Task,cb_03,86.0,temp_dist_trial,num_items,zn7si1,1.0,response,2_ITEM,2537.200000023848,2535.5,2537.200000023848,2537.200000023848,2535.5,2537.200000023848,1.0,0.0,0.0,,Click Response,2_count,5.0,object-49,temp_dist_trial,38.0,t_s_10_1,travel_shared,luggage lock,3.0,competing,paired,t_s_10_1.jpg,Travel,,,sub-28
Desktop or Laptop,Windows 10,Chrome 137.0.0.0,1920x1080,1920x1080,Temporal Distance Task,cb_03,86.0,temp_dist_trial,dist_items,qkpkxw,2.0,info,,2.200000011915108,0.0,2.200000011915108,2.200000011915108,0.0,2.200000011915108,1.0,0.0,0.0,,Slider,Slider,4.0,object-56,temp_dist_trial,38.0,t_s_10_1,travel_shared,luggage lock,3.0,competing,paired,t_s_10_1.jpg,Travel,,,sub-28
Desktop or Laptop,Windows 10,Chrome 137.0.0.0,1920x1080,1920x1080,Temporal Distance Task,cb_03,86.0,temp_dist_trial,dist_items,qkpkxw,2.0,continue,,1690.8999999999942,1686.1999999999825,1690.8999999999942,1690.8999999999942,1686.1999999999825,1690.8999999999942,1.0,0.0,0.0,,Click To Continue,Next button,7.0,object-60,temp_dist_trial,38.0,t_s_10_1,travel_shared,luggage lock,3.0,competing,paired,t_s_10_1.jpg,Travel,,,sub-28
Desktop or Laptop,Windows 10,Chrome 137.0.0.0,1920x1080,1920x1080,Temporal Distance Task,cb_03,86.0,temp_dist_trial,dist_items,qkpkxw,2.0,response,73,697.5,1686.1999999999825,1691.2000000119147,697.5,1686.1999999999825,1691.2000000119147,1.0,993.7000000119153,0.0,,Slider,Slider,4.0,object-56,temp_dist_trial,38.0,t_s_10_1,travel_shared,luggage lock,3.0,competing,paired,t_s_10_1.jpg,Travel,,,sub-28
Desktop or Laptop,Windows 10,Chrome 137.0.0.0,1920x1080,1920x1080,Temporal Distance Task,cb_03,87.0,temp_dist_trial,num_items,zn7si1,1.0,response,2_ITEM,1546.6000000357744,1540.7000000000116,1546.6000000357744,1546.6000000357744,1540.7000000000116,1546.6000000357744,1.0,0.0,0.0,,Click Response,2_count,5.0,object-49,temp_dist_trial,39.0,t_i_02_1,travel_Iceland,scarf,3.0,unique,paired,t_i_02_1.jpg,Travel,,,sub-28
Desktop or Laptop,Windows 10,Chrome 137.0.0.0,1920x1080,1920x1080,Temporal Distance Task,cb_03,87.0,temp_dist_trial,dist_items,qkpkxw,2.0,info,,2.499999988067429,0.0,2.499999988067429,2.499999988067429,0.0,2.499999988067429,1.0,0.0,0.0,,Slider,Slider,4.0,object-56,temp_dist_trial,39.0,t_i_02_1,travel_Iceland,scarf,3.0,unique,paired,t_i_02_1.jpg,Travel,,,sub-28
Desktop or Laptop,Windows 10,Chrome 137.0.0.0,1920x1080,1920x1080,Temporal Distance Task,cb_03,87.0,temp_dist_trial,dist_items,qkpkxw,2.0,continue,,2951.4999999880674,2947.7999999999884,2951.4999999880674,2951.4999999880674,2947.7999999999884,2951.4999999880674,1.0,0.0,0.0,,Click To Continue,Next button,7.0,object-60,temp_dist_trial,39.0,t_i_02_1,travel_Iceland,scarf,3.0,unique,paired,t_i_02_1.jpg,Travel,,,sub-28
Desktop or Laptop,Windows 10,Chrome 137.0.0.0,1920x1080,1920x1080,Temporal Distance Task,cb_03,87.0,temp_dist_trial,dist_items,qkpkxw,2.0,response,50,746.0,2947.7999999999884,2951.7000000357507,746.0,2947.7999999999884,2951.7000000357507,1.0,2205.700000035751,0.0,,Slider,Slider,4.0,object-56,temp_dist_trial,39.0,t_i_02_1,travel_Iceland,scarf,3.0,unique,paired,t_i_02_1.jpg,Travel,,,sub-28
Desktop or Laptop,Windows 10,Chrome 137.0.0.0,1920x1080,1920x1080,Temporal Distance Task,cb_03,88.0,temp_dist_trial,num_items,zn7si1,1.0,response,1_ITEM,1133.600000023842,1128.2999999999886,1133.600000023842,1133.600000023842,1128.2999999999886,1133.600000023842,1.0,0.0,0.0,,Click Response,1_count,3.0,object-46,temp_dist_trial,40.0,t_i_07_1,travel_Iceland,hiking backpack,3.0,unique,paired,t_i_07_1.jpg,Travel,,,sub-28
Desktop or Laptop,Windows 10,Chrome 137.0.0.0,1920x1080,1920x1080,Temporal Distance Task,cb_03,89.0,temp_dist_trial,num_items,zn7si1,1.0,response,1_ITEM,779.7999999880849,776.3999999999942,779.7999999880849,779.7999999880849,776.3999999999942,779.7999999880849,1.0,0.0,0.0,,Click Response,1_count,3.0,object-46,temp_dist_trial,41.0,t_i_05_1,travel_Iceland,hiking boots,3.0,unique,paired,t_i_05_1.jpg,Travel,,,sub-28
Desktop or Laptop,Windows 10,Chrome 137.0.0.0,1920x1080,1920x1080,Temporal Distance Task,cb_03,90.0,temp_dist_trial,num_items,zn7si1,1.0,response,1_ITEM,928.7000000119153,928.0,928.7000000119153,928.7000000119153,928.0,928.7000000119153,1.0,0.0,0.0,,Click Response,1_count,3.0,object-46,temp_dist_trial,42.0,t_s_18_1,travel_shared,first aid kit,3.0,competing,single,t_s_18_1.jpg,Travel,,,sub-28
Desktop or Laptop,Windows 10,Chrome 137.0.0.0,1920x1080,1920x1080,Temporal Distance Task,cb_03,91.0,temp_dist_trial,num_items,zn7si1,1.0,response,1_ITEM,2270.899999988091,2268.5,2270.899999988091,2270.899999988091,2268.5,2270.899999988091,1.0,0.0,0.0,,Click Response,1_count,3.0,object-46,temp_dist_trial,43.0,t_s_12_1,travel_shared,clear toiletry bag,3.0,competing,paired,t_s_12_1.jpg,Travel,,,sub-28
Desktop or Laptop,Windows 10,Chrome 137.0.0.0,1920x1080,1920x1080,Temporal Distance Task,cb_03,92.0,temp_dist_trial,num_items,zn7si1,1.0,response,1_ITEM,1739.500000023836,1734.6999999999825,1739.500000023836,1739.500000023836,1734.6999999999825,1739.500000023836,1.0,0.0,0.0,,Click Response,1_count,3.0,object-46,temp_dist_trial,44.0,t_s_09_1,travel_shared,wallet,3.0,competing,paired,t_s_09_1.jpg,Travel,,,sub-28
Desktop or Laptop,Windows 10,Chrome 137.0.0.0,1920x1080,1920x1080,Temporal Distance Task,cb_03,93.0,temp_dist_trial,num_items,zn7si1,1.0,response,1_ITEM,770.1000000238419,764.2999999999884,770.1000000238419,770.1000000238419,764.2999999999884,770.1000000238419,1.0,0.0,0.0,,Click Response,1_count,3.0,object-46,temp_dist_trial,45.0,t_i_08_1,travel_Iceland,thick socks,3.0,unique,single,t_i_08_1.jpg,Travel,,,sub-28
Desktop or Laptop,Windows 10,Chrome 137.0.0.0,1920x1080,1920x1080,Temporal Distance Task,cb_03,94.0,temp_dist_trial,num_items,zn7si1,1.0,response,2_ITEM,1171.100000023842,1170.7000000000114,1171.100000023842,1171.100000023842,1170.7000000000114,1171.100000023842,1.0,0.0,0.0,,Click Response,2_count,5.0,object-49,temp_dist_trial,46.0,t_m_02_1,travel_Miami,t-shirt,3.0,unique,paired,t_m_02_1.jpg,Travel,,,sub-28
Desktop or Laptop,Windows 10,Chrome 137.0.0.0,1920x1080,1920x1080,Temporal Distance Task,cb_03,94.0,temp_dist_trial,dist_items,qkpkxw,2.0,info,,2.500000035768608,0.0,2.500000035768608,2.500000035768608,0.0,2.500000035768608,1.0,0.0,0.0,,Slider,Slider,4.0,object-56,temp_dist_trial,46.0,t_m_02_1,travel_Miami,t-shirt,3.0,unique,paired,t_m_02_1.jpg,Travel,,,sub-28
Desktop or Laptop,Windows 10,Chrome 137.0.0.0,1920x1080,1920x1080,Temporal Distance Task,cb_03,94.0,temp_dist_trial,dist_items,qkpkxw,2.0,continue,,1873.400000011927,1868.1000000000056,1873.400000011927,1873.400000011927,1868.1000000000056,1873.400000011927,1.0,0.0,0.0,,Click To Continue,Next button,7.0,object-60,temp_dist_trial,46.0,t_m_02_1,travel_Miami,t-shirt,3.0,unique,paired,t_m_02_1.jpg,Travel,,,sub-28
Desktop or Laptop,Windows 10,Chrome 137.0.0.0,1920x1080,1920x1080,Temporal Distance Task,cb_03,94.0,temp_dist_trial,dist_items,qkpkxw,2.0,response,63,1079.6000000000058,1868.1000000000056,1873.700000023848,1079.6000000000058,1868.1000000000056,1873.700000023848,1.0,794.1000000238419,0.0,,Slider,Slider,4.0,object-56,temp_dist_trial,46.0,t_m_02_1,travel_Miami,t-shirt,3.0,unique,paired,t_m_02_1.jpg,Travel,,,sub-28
Desktop or Laptop,Windows 10,Chrome 137.0.0.0,1920x1080,1920x1080,Temporal Distance Task,cb_03,95.0,temp_dist_trial,num_items,zn7si1,1.0,response,2_ITEM,1610.6000000238419,1607.5,1610.6000000238419,1610.6000000238419,1607.5,1610.6000000238419,1.0,0.0,0.0,,Click Response,2_count,5.0,object-49,temp_dist_trial,47.0,t_s_02_1,travel_shared,water bottle,3.0,competing,paired,t_s_02_1.jpg,Travel,,,sub-28
Desktop or Laptop,Windows 10,Chrome 137.0.0.0,1920x1080,1920x1080,Temporal Distance Task,cb_03,95.0,temp_dist_trial,dist_items,qkpkxw,2.0,info,,2.2000000357511453,0.0,2.2000000357511453,2.2000000357511453,0.0,2.2000000357511453,1.0,0.0,0.0,,Slider,Slider,4.0,object-56,temp_dist_trial,47.0,t_s_02_1,travel_shared,water bottle,3.0,competing,paired,t_s_02_1.jpg,Travel,,,sub-28
Desktop or Laptop,Windows 10,Chrome 137.0.0.0,1920x1080,1920x1080,Temporal Distance Task,cb_03,95.0,temp_dist_trial,dist_items,qkpkxw,2.0,continue,,1989.2999999999884,1983.5,1989.2999999999884,1989.2999999999884,1983.5,1989.2999999999884,1.0,0.0,0.0,,Click To Continue,Next button,7.0,object-60,temp_dist_trial,47.0,t_s_02_1,travel_shared,water bottle,3.0,competing,paired,t_s_02_1.jpg,Travel,,,sub-28
Desktop or Laptop,Windows 10,Chrome 137.0.0.0,1920x1080,1920x1080,Temporal Distance Task,cb_03,95.0,temp_dist_trial,dist_items,qkpkxw,2.0,response,72,454.89999999996513,1983.5,1989.6000000000354,454.89999999996513,1983.5,1989.6000000000354,1.0,1534.7000000000698,0.0,,Slider,Slider,4.0,object-56,temp_dist_trial,47.0,t_s_02_1,travel_shared,water bottle,3.0,competing,paired,t_s_02_1.jpg,Travel,,,sub-28
Desktop or Laptop,Windows 10,Chrome 137.0.0.0,1920x1080,1920x1080,Temporal Distance Task,cb_03,96.0,temp_dist_trial,num_items,zn7si1,1.0,response,2_ITEM,2936.9000000238293,2935.700000000012,2936.9000000238293,2936.9000000238293,2935.700000000012,2936.9000000238293,1.0,0.0,0.0,,Click Response,2_count,5.0,object-49,temp_dist_trial,48.0,t_s_04_1,travel_shared,instant camera,3.0,competing,paired,t_s_04_1.jpg,Travel,,,sub-28
Desktop or Laptop,Windows 10,Chrome 137.0.0.0,1920x1080,1920x1080,Temporal Distance Task,cb_03,96.0,temp_dist_trial,dist_items,qkpkxw,2.0,info,,2.700000011944212,0.0,2.700000011944212,2.700000011944212,0.0,2.700000011944212,1.0,0.0,0.0,,Slider,Slider,4.0,object-56,temp_dist_trial,48.0,t_s_04_1,travel_shared,instant camera,3.0,competing,paired,t_s_04_1.jpg,Travel,,,sub-28
Desktop or Laptop,Windows 10,Chrome 137.0.0.0,1920x1080,1920x1080,Temporal Distance Task,cb_03,96.0,temp_dist_trial,dist_items,qkpkxw,2.0,continue,,2450.300000035786,2444.4000000000233,2450.300000035786,2450.300000035786,2444.4000000000233,2450.300000035786,1.0,0.0,0.0,,Click To Continue,Next button,7.0,object-60,temp_dist_trial,48.0,t_s_04_1,travel_shared,instant camera,3.0,competing,paired,t_s_04_1.jpg,Travel,,,sub-28
Desktop or Laptop,Windows 10,Chrome 137.0.0.0,1920x1080,1920x1080,Temporal Distance Task,cb_03,96.0,temp_dist_trial,dist_items,qkpkxw,2.0,response,32,1401.2000000000116,2444.4000000000233,2450.4000000000233,1401.2000000000116,2444.4000000000233,2450.4000000000233,1.0,1049.2000000000116,0.0,,Slider,Slider,4.0,object-56,temp_dist_trial,48.0,t_s_04_1,travel_shared,instant camera,3.0,competing,paired,t_s_04_1.jpg,Travel,,,sub-28
Desktop or Laptop,Windows 10,Chrome 137.0.0.0,1920x1080,1920x1080,Temporal Distance Task,$${counterbalance_group},,,,,,info,END,,,268391.0,,,,0.0,,,,,,,,,,,,,,,,,,,,sub-28
