Participant Device,Participant OS,Participant Browser,Participant Monitor Size,Participant Viewport Size,Task Name,Current Spreadsheet,Trial Number,Display,Screen,Screen ID,Screen Counter,Response Type,Response,Onset Time,Clock Time,Reaction Time,Absolute Onset Time,Absolute Clock Time,Absolute Reaction Time,Correct,Response Duration,Proportion,Tag,Component Name,Object Name,Object Number,Object ID,Spreadsheet: display,Spreadsheet: trial,Spreadsheet: stimulus_id,Spreadsheet: expected_goal,Spreadsheet: stimulus_name,Spreadsheet: c_group,Spreadsheet: condition,Spreadsheet: paired_status,Spreadsheet: stimulus_path,Spreadsheet: block_type,Manipulation: Spreadsheet,Store: enc_test_acc,sub_label
Desktop or Laptop,Mac OS 10.15.7,Chrome 137.0.0.0,1680x1050,1470x838,Temporal Distance Task,$${counterbalance_group},,,,,,info,BEGIN,,,,,,,0.0,,,,,,,,,,,,,,,,,,,,sub-24
Desktop or Laptop,Mac OS 10.15.7,Chrome 137.0.0.0,1680x1050,1470x838,Temporal Distance Task,cb_03,1.0,temp_instructions,intro_screen,3tnme7,1.0,continue,,8916.19999961853,8900.099999999999,8916.19999961853,8916.19999961853,8900.099999999999,8916.19999961853,1.0,0.0,0.0,,Click To Continue,Continue Button,4.0,object-29,temp_instructions,,,Student,,,,,,,,,sub-24
Desktop or Laptop,Mac OS 10.15.7,Chrome 137.0.0.0,1680x1050,1470x838,Temporal Distance Task,cb_03,1.0,temp_instructions,intro_screen_2,52v7ur,2.0,continue,,9731.399999809266,9716.7,9731.399999809266,9731.399999809266,9716.7,9731.399999809266,1.0,0.0,0.0,,Click To Continue,Continue Button,4.0,object-39,temp_instructions,,,Student,,,,,,,,,sub-24
Desktop or Laptop,Mac OS 10.15.7,Chrome 137.0.0.0,1680x1050,1470x838,Temporal Distance Task,cb_03,1.0,temp_instructions,intro_screen_3,i7lvwx,3.0,continue,,5698.099999904633,5683.200000000003,5698.099999904633,5698.099999904633,5683.200000000003,5698.099999904633,1.0,0.0,0.0,,Click To Continue,Continue Button,4.0,object-67,temp_instructions,,,Student,,,,,,,,,sub-24
Desktop or Laptop,Mac OS 10.15.7,Chrome 137.0.0.0,1680x1050,1470x838,Temporal Distance Task,cb_03,1.0,temp_instructions,test_q1,5ieqx1,4.0,response,choice_3,5447.599999713897,5433.399999999998,5447.599999713897,5447.599999713897,5433.399999999998,5447.599999713897,1.0,0.0,0.0,,Click Response,choice_3,5.0,object-345,temp_instructions,,,Student,,,,,,,,,sub-24
Desktop or Laptop,Mac OS 10.15.7,Chrome 137.0.0.0,1680x1050,1470x838,Temporal Distance Task,cb_03,1.0,temp_instructions,score_corr,7ilvjr,5.0,continue,,1014.8999999999942,999.0999999999983,1014.8999999999942,1014.8999999999942,999.0999999999983,1014.8999999999942,1.0,0.0,0.0,,Click To Continue,Continue Button,3.0,object-23,temp_instructions,,,Student,,,,,,,,,sub-24
Desktop or Laptop,Mac OS 10.15.7,Chrome 137.0.0.0,1680x1050,1470x838,Temporal Distance Task,cb_03,1.0,temp_eventStart,Screen 1,dgtyxe,1.0,continue,,2449.800000000003,2434.2000000000044,2449.800000000003,2449.800000000003,2434.2000000000044,2449.800000000003,1.0,0.0,0.0,,Click To Continue,Next Button,3.0,object-43,temp_eventStart,,,Student,,,,,,,,,sub-24
Desktop or Laptop,Mac OS 10.15.7,Chrome 137.0.0.0,1680x1050,1470x838,Temporal Distance Task,cb_03,1.0,temp_dist_trial,num_items,zn7si1,1.0,response,num_miss,2999.199999999997,2999.199999999997,2999.199999999997,2999.199999999997,2999.199999999997,2999.199999999997,1.0,0.0,0.0,num_miss_tag,Time Limit,screen,0.0,screen,temp_dist_trial,1.0,s_sh_21_1,student_shared,file holder,3.0,competing,single,s_sh_21_1.jpg,Student,,,sub-24
Desktop or Laptop,Mac OS 10.15.7,Chrome 137.0.0.0,1680x1050,1470x838,Temporal Distance Task,cb_03,2.0,temp_dist_trial,num_items,zn7si1,1.0,response,2_ITEM,665.499999809268,650.0,665.499999809268,665.499999809268,650.0,665.499999809268,1.0,0.0,0.0,,Click Response,2_count,5.0,object-49,temp_dist_trial,2.0,s_a_11_1,student_art,clapperboard,3.0,unique,paired,s_a_11_1.jpg,Student,,,sub-24
Desktop or Laptop,Mac OS 10.15.7,Chrome 137.0.0.0,1680x1050,1470x838,Temporal Distance Task,cb_03,2.0,temp_dist_trial,dist_items,qkpkxw,2.0,info,,9.299999904629658,0.0,9.299999904629658,9.299999904629658,0.0,9.299999904629658,1.0,0.0,0.0,,Slider,Slider,4.0,object-56,temp_dist_trial,2.0,s_a_11_1,student_art,clapperboard,3.0,unique,paired,s_a_11_1.jpg,Student,,,sub-24
Desktop or Laptop,Mac OS 10.15.7,Chrome 137.0.0.0,1680x1050,1470x838,Temporal Distance Task,cb_03,2.0,temp_dist_trial,dist_items,qkpkxw,2.0,continue,,3364.7000000000044,3349.0,3364.7000000000044,3364.7000000000044,3349.0,3364.7000000000044,1.0,0.0,0.0,,Click To Continue,Next button,7.0,object-60,temp_dist_trial,2.0,s_a_11_1,student_art,clapperboard,3.0,unique,paired,s_a_11_1.jpg,Student,,,sub-24
Desktop or Laptop,Mac OS 10.15.7,Chrome 137.0.0.0,1680x1050,1470x838,Temporal Distance Task,cb_03,2.0,temp_dist_trial,dist_items,qkpkxw,2.0,response,69,1882.5,3349.0,3364.7000000000044,1882.5,3349.0,3364.7000000000044,1.0,1482.2000000000046,0.0,,Slider,Slider,4.0,object-56,temp_dist_trial,2.0,s_a_11_1,student_art,clapperboard,3.0,unique,paired,s_a_11_1.jpg,Student,,,sub-24
Desktop or Laptop,Mac OS 10.15.7,Chrome 137.0.0.0,1680x1050,1470x838,Temporal Distance Task,cb_03,3.0,temp_dist_trial,num_items,zn7si1,1.0,response,2_ITEM,2349.399999809262,2334.299999999996,2349.399999809262,2349.399999809262,2334.299999999996,2349.399999809262,1.0,0.0,0.0,,Click Response,2_count,5.0,object-49,temp_dist_trial,3.0,s_a_08_1,student_art,sewing machine,3.0,unique,paired,s_a_08_1.jpg,Student,,,sub-24
Desktop or Laptop,Mac OS 10.15.7,Chrome 137.0.0.0,1680x1050,1470x838,Temporal Distance Task,cb_03,3.0,temp_dist_trial,dist_items,qkpkxw,2.0,info,,7.400000000001455,0.0,7.400000000001455,7.400000000001455,0.0,7.400000000001455,1.0,0.0,0.0,,Slider,Slider,4.0,object-56,temp_dist_trial,3.0,s_a_08_1,student_art,sewing machine,3.0,unique,paired,s_a_08_1.jpg,Student,,,sub-24
Desktop or Laptop,Mac OS 10.15.7,Chrome 137.0.0.0,1680x1050,1470x838,Temporal Distance Task,cb_03,3.0,temp_dist_trial,dist_items,qkpkxw,2.0,continue,,4647.099999809267,4633.4000000000015,4647.099999809267,4647.099999809267,4633.4000000000015,4647.099999809267,1.0,0.0,0.0,,Click To Continue,Next button,7.0,object-60,temp_dist_trial,3.0,s_a_08_1,student_art,sewing machine,3.0,unique,paired,s_a_08_1.jpg,Student,,,sub-24
Desktop or Laptop,Mac OS 10.15.7,Chrome 137.0.0.0,1680x1050,1470x838,Temporal Distance Task,cb_03,3.0,temp_dist_trial,dist_items,qkpkxw,2.0,response,68,1582.8000000000034,4633.4000000000015,4647.499999904634,1582.8000000000034,4633.4000000000015,4647.499999904634,1.0,3064.6999999046307,0.0,,Slider,Slider,4.0,object-56,temp_dist_trial,3.0,s_a_08_1,student_art,sewing machine,3.0,unique,paired,s_a_08_1.jpg,Student,,,sub-24
Desktop or Laptop,Mac OS 10.15.7,Chrome 137.0.0.0,1680x1050,1470x838,Temporal Distance Task,cb_03,4.0,temp_dist_trial,num_items,zn7si1,1.0,response,1_ITEM,2632.3999996185307,2616.699999999997,2632.3999996185307,2632.3999996185307,2616.699999999997,2632.3999996185307,1.0,0.0,0.0,,Click Response,1_count,3.0,object-46,temp_dist_trial,4.0,s_sh_23_1,student_shared,ballpoint pen,3.0,competing,single,s_sh_23_1.jpg,Student,,,sub-24
Desktop or Laptop,Mac OS 10.15.7,Chrome 137.0.0.0,1680x1050,1470x838,Temporal Distance Task,cb_03,5.0,temp_dist_trial,num_items,zn7si1,1.0,response,num_miss,3000.099999999999,3000.099999999999,3000.099999999999,3000.099999999999,3000.099999999999,3000.099999999999,1.0,0.0,0.0,num_miss_tag,Time Limit,screen,0.0,screen,temp_dist_trial,5.0,s_sh_16_1,student_shared,stapler,3.0,competing,single,s_sh_16_1.jpg,Student,,,sub-24
Desktop or Laptop,Mac OS 10.15.7,Chrome 137.0.0.0,1680x1050,1470x838,Temporal Distance Task,cb_03,6.0,temp_dist_trial,num_items,zn7si1,1.0,response,2_ITEM,198.0,182.3000000000029,198.0,198.0,182.3000000000029,198.0,1.0,0.0,0.0,,Click Response,2_count,5.0,object-49,temp_dist_trial,6.0,s_a_10_1,student_art,tripod,3.0,unique,paired,s_a_10_1.jpg,Student,,,sub-24
Desktop or Laptop,Mac OS 10.15.7,Chrome 137.0.0.0,1680x1050,1470x838,Temporal Distance Task,cb_03,6.0,temp_dist_trial,dist_items,qkpkxw,2.0,info,,7.699999904631113,0.0,7.699999904631113,7.699999904631113,0.0,7.699999904631113,1.0,0.0,0.0,,Slider,Slider,4.0,object-56,temp_dist_trial,6.0,s_a_10_1,student_art,tripod,3.0,unique,paired,s_a_10_1.jpg,Student,,,sub-24
Desktop or Laptop,Mac OS 10.15.7,Chrome 137.0.0.0,1680x1050,1470x838,Temporal Distance Task,cb_03,6.0,temp_dist_trial,dist_items,qkpkxw,2.0,continue,,3181.899999713896,3166.599999999999,3181.899999713896,3181.899999713896,3166.599999999999,3181.899999713896,1.0,0.0,0.0,,Click To Continue,Next button,7.0,object-60,temp_dist_trial,6.0,s_a_10_1,student_art,tripod,3.0,unique,paired,s_a_10_1.jpg,Student,,,sub-24
Desktop or Laptop,Mac OS 10.15.7,Chrome 137.0.0.0,1680x1050,1470x838,Temporal Distance Task,cb_03,6.0,temp_dist_trial,dist_items,qkpkxw,2.0,response,71,1350.4000000000015,3166.599999999999,3182.6999999046307,1350.4000000000015,3166.599999999999,3182.6999999046307,1.0,1832.2999999046292,0.0,,Slider,Slider,4.0,object-56,temp_dist_trial,6.0,s_a_10_1,student_art,tripod,3.0,unique,paired,s_a_10_1.jpg,Student,,,sub-24
Desktop or Laptop,Mac OS 10.15.7,Chrome 137.0.0.0,1680x1050,1470x838,Temporal Distance Task,cb_03,7.0,temp_dist_trial,num_items,zn7si1,1.0,response,2_ITEM,1549.3999996185305,1533.8000000000034,1549.3999996185305,1549.3999996185305,1533.8000000000034,1549.3999996185305,1.0,0.0,0.0,,Click Response,2_count,5.0,object-49,temp_dist_trial,7.0,s_sh_20_1,student_shared,tape,3.0,competing,paired,s_sh_20_1.jpg,Student,,,sub-24
Desktop or Laptop,Mac OS 10.15.7,Chrome 137.0.0.0,1680x1050,1470x838,Temporal Distance Task,cb_03,7.0,temp_dist_trial,dist_items,qkpkxw,2.0,info,,7.199999904631113,0.0,7.199999904631113,7.199999904631113,0.0,7.199999904631113,1.0,0.0,0.0,,Slider,Slider,4.0,object-56,temp_dist_trial,7.0,s_sh_20_1,student_shared,tape,3.0,competing,paired,s_sh_20_1.jpg,Student,,,sub-24
Desktop or Laptop,Mac OS 10.15.7,Chrome 137.0.0.0,1680x1050,1470x838,Temporal Distance Task,cb_03,7.0,temp_dist_trial,dist_items,qkpkxw,2.0,continue,,2098.0999999999985,2083.199999999997,2098.0999999999985,2098.0999999999985,2083.199999999997,2098.0999999999985,1.0,0.0,0.0,,Click To Continue,Next button,7.0,object-60,temp_dist_trial,7.0,s_sh_20_1,student_shared,tape,3.0,competing,paired,s_sh_20_1.jpg,Student,,,sub-24
Desktop or Laptop,Mac OS 10.15.7,Chrome 137.0.0.0,1680x1050,1470x838,Temporal Distance Task,cb_03,7.0,temp_dist_trial,dist_items,qkpkxw,2.0,response,75,783.1999999999971,2083.199999999997,2098.899999713896,783.1999999999971,2083.199999999997,2098.899999713896,1.0,1315.6999997138992,0.0,,Slider,Slider,4.0,object-56,temp_dist_trial,7.0,s_sh_20_1,student_shared,tape,3.0,competing,paired,s_sh_20_1.jpg,Student,,,sub-24
Desktop or Laptop,Mac OS 10.15.7,Chrome 137.0.0.0,1680x1050,1470x838,Temporal Distance Task,cb_03,8.0,temp_dist_trial,num_items,zn7si1,1.0,response,2_ITEM,1215.9000000000015,1200.0999999999985,1215.9000000000015,1215.9000000000015,1200.0999999999985,1215.9000000000015,1.0,0.0,0.0,,Click Response,2_count,5.0,object-49,temp_dist_trial,8.0,s_sh_04_1,student_shared,laptop stand,3.0,competing,paired,s_sh_04_1.jpg,Student,,,sub-24
Desktop or Laptop,Mac OS 10.15.7,Chrome 137.0.0.0,1680x1050,1470x838,Temporal Distance Task,cb_03,8.0,temp_dist_trial,dist_items,qkpkxw,2.0,info,,6.69999971389916,0.0,6.69999971389916,6.69999971389916,0.0,6.69999971389916,1.0,0.0,0.0,,Slider,Slider,4.0,object-56,temp_dist_trial,8.0,s_sh_04_1,student_shared,laptop stand,3.0,competing,paired,s_sh_04_1.jpg,Student,,,sub-24
Desktop or Laptop,Mac OS 10.15.7,Chrome 137.0.0.0,1680x1050,1470x838,Temporal Distance Task,cb_03,8.0,temp_dist_trial,dist_items,qkpkxw,2.0,continue,,2030.4000000000005,2016.500000000008,2030.4000000000005,2030.4000000000005,2016.500000000008,2030.4000000000005,1.0,0.0,0.0,,Click To Continue,Next button,7.0,object-60,temp_dist_trial,8.0,s_sh_04_1,student_shared,laptop stand,3.0,competing,paired,s_sh_04_1.jpg,Student,,,sub-24
Desktop or Laptop,Mac OS 10.15.7,Chrome 137.0.0.0,1680x1050,1470x838,Temporal Distance Task,cb_03,8.0,temp_dist_trial,dist_items,qkpkxw,2.0,response,59,616.7000000000044,2016.500000000008,2033.000000000008,616.7000000000044,2016.500000000008,2033.000000000008,1.0,1416.3000000000034,0.0,,Slider,Slider,4.0,object-56,temp_dist_trial,8.0,s_sh_04_1,student_shared,laptop stand,3.0,competing,paired,s_sh_04_1.jpg,Student,,,sub-24
Desktop or Laptop,Mac OS 10.15.7,Chrome 137.0.0.0,1680x1050,1470x838,Temporal Distance Task,cb_03,9.0,temp_dist_trial,num_items,zn7si1,1.0,response,1_ITEM,1380.8999999999942,1366.8999999999942,1380.8999999999942,1380.8999999999942,1366.8999999999942,1380.8999999999942,1.0,0.0,0.0,,Click Response,1_count,3.0,object-46,temp_dist_trial,9.0,s_a_17_1,student_art,microphone,3.0,unique,single,s_a_17_1.jpg,Student,,,sub-24
Desktop or Laptop,Mac OS 10.15.7,Chrome 137.0.0.0,1680x1050,1470x838,Temporal Distance Task,cb_03,10.0,temp_dist_trial,num_items,zn7si1,1.0,response,2_ITEM,1181.0,1167.1000000000058,1181.0,1181.0,1167.1000000000058,1181.0,1.0,0.0,0.0,,Click Response,2_count,5.0,object-49,temp_dist_trial,10.0,s_s_03_1,student_stem,petri dish,3.0,unique,paired,s_s_03_1.jpg,Student,,,sub-24
Desktop or Laptop,Mac OS 10.15.7,Chrome 137.0.0.0,1680x1050,1470x838,Temporal Distance Task,cb_03,10.0,temp_dist_trial,dist_items,qkpkxw,2.0,info,,8.899999999994181,0.0,8.899999999994181,8.899999999994181,0.0,8.899999999994181,1.0,0.0,0.0,,Slider,Slider,4.0,object-56,temp_dist_trial,10.0,s_s_03_1,student_stem,petri dish,3.0,unique,paired,s_s_03_1.jpg,Student,,,sub-24
Desktop or Laptop,Mac OS 10.15.7,Chrome 137.0.0.0,1680x1050,1470x838,Temporal Distance Task,cb_03,10.0,temp_dist_trial,dist_items,qkpkxw,2.0,continue,,1965.1999997138919,1950.0999999999915,1965.1999997138919,1965.1999997138919,1950.0999999999915,1965.1999997138919,1.0,0.0,0.0,,Click To Continue,Next button,7.0,object-60,temp_dist_trial,10.0,s_s_03_1,student_stem,petri dish,3.0,unique,paired,s_s_03_1.jpg,Student,,,sub-24
Desktop or Laptop,Mac OS 10.15.7,Chrome 137.0.0.0,1680x1050,1470x838,Temporal Distance Task,cb_03,10.0,temp_dist_trial,dist_items,qkpkxw,2.0,response,76,766.7999999999884,1950.0999999999915,1965.6999997138919,766.7999999999884,1950.0999999999915,1965.6999997138919,1.0,1198.8999997139035,0.0,,Slider,Slider,4.0,object-56,temp_dist_trial,10.0,s_s_03_1,student_stem,petri dish,3.0,unique,paired,s_s_03_1.jpg,Student,,,sub-24
Desktop or Laptop,Mac OS 10.15.7,Chrome 137.0.0.0,1680x1050,1470x838,Temporal Distance Task,cb_03,11.0,temp_dist_trial,num_items,zn7si1,1.0,response,1_ITEM,1781.8999999046357,1766.1000000000058,1781.8999999046357,1781.8999999046357,1766.1000000000058,1781.8999999046357,1.0,0.0,0.0,,Click Response,1_count,3.0,object-46,temp_dist_trial,11.0,s_s_02_1,student_stem,flask,3.0,unique,single,s_s_02_1.jpg,Student,,,sub-24
Desktop or Laptop,Mac OS 10.15.7,Chrome 137.0.0.0,1680x1050,1470x838,Temporal Distance Task,cb_03,12.0,temp_dist_trial,num_items,zn7si1,1.0,response,2_ITEM,1212.6999999999969,1200.0999999999913,1212.6999999999969,1212.6999999999969,1200.0999999999913,1212.6999999999969,1.0,0.0,0.0,,Click Response,2_count,5.0,object-49,temp_dist_trial,12.0,s_s_05_1,student_stem,lab goggles,3.0,unique,paired,s_s_05_1.jpg,Student,,,sub-24
Desktop or Laptop,Mac OS 10.15.7,Chrome 137.0.0.0,1680x1050,1470x838,Temporal Distance Task,cb_03,12.0,temp_dist_trial,dist_items,qkpkxw,2.0,info,,3.0999996185273635,0.0,3.0999996185273635,3.0999996185273635,0.0,3.0999996185273635,1.0,0.0,0.0,,Slider,Slider,4.0,object-56,temp_dist_trial,12.0,s_s_05_1,student_stem,lab goggles,3.0,unique,paired,s_s_05_1.jpg,Student,,,sub-24
Desktop or Laptop,Mac OS 10.15.7,Chrome 137.0.0.0,1680x1050,1470x838,Temporal Distance Task,cb_03,12.0,temp_dist_trial,dist_items,qkpkxw,2.0,continue,,2530.5999996185274,2516.699999999997,2530.5999996185274,2530.5999996185274,2516.699999999997,2530.5999996185274,1.0,0.0,0.0,,Click To Continue,Next button,7.0,object-60,temp_dist_trial,12.0,s_s_05_1,student_stem,lab goggles,3.0,unique,paired,s_s_05_1.jpg,Student,,,sub-24
Desktop or Laptop,Mac OS 10.15.7,Chrome 137.0.0.0,1680x1050,1470x838,Temporal Distance Task,cb_03,12.0,temp_dist_trial,dist_items,qkpkxw,2.0,response,78,950.0,2516.699999999997,2533.2999999046297,950.0,2516.699999999997,2533.2999999046297,1.0,1583.2999999046294,0.0,,Slider,Slider,4.0,object-56,temp_dist_trial,12.0,s_s_05_1,student_stem,lab goggles,3.0,unique,paired,s_s_05_1.jpg,Student,,,sub-24
Desktop or Laptop,Mac OS 10.15.7,Chrome 137.0.0.0,1680x1050,1470x838,Temporal Distance Task,cb_03,13.0,temp_dist_trial,num_items,zn7si1,1.0,response,2_ITEM,1381.6999998092651,1366.6999999999969,1381.6999998092651,1381.6999998092651,1366.6999999999969,1381.6999998092651,1.0,0.0,0.0,,Click Response,2_count,5.0,object-49,temp_dist_trial,13.0,s_sh_08_1,student_shared,post-its,3.0,competing,paired,s_sh_08_1.jpg,Student,,,sub-24
Desktop or Laptop,Mac OS 10.15.7,Chrome 137.0.0.0,1680x1050,1470x838,Temporal Distance Task,cb_03,13.0,temp_dist_trial,dist_items,qkpkxw,2.0,info,,6.699999618533182,0.0,6.699999618533182,6.699999618533182,0.0,6.699999618533182,1.0,0.0,0.0,,Slider,Slider,4.0,object-56,temp_dist_trial,13.0,s_sh_08_1,student_shared,post-its,3.0,competing,paired,s_sh_08_1.jpg,Student,,,sub-24
Desktop or Laptop,Mac OS 10.15.7,Chrome 137.0.0.0,1680x1050,1470x838,Temporal Distance Task,cb_03,13.0,temp_dist_trial,dist_items,qkpkxw,2.0,continue,,3014.300000000003,3000.0,3014.300000000003,3014.300000000003,3000.0,3014.300000000003,1.0,0.0,0.0,,Click To Continue,Next button,7.0,object-60,temp_dist_trial,13.0,s_sh_08_1,student_shared,post-its,3.0,competing,paired,s_sh_08_1.jpg,Student,,,sub-24
Desktop or Laptop,Mac OS 10.15.7,Chrome 137.0.0.0,1680x1050,1470x838,Temporal Distance Task,cb_03,13.0,temp_dist_trial,dist_items,qkpkxw,2.0,response,76,1950.0,3000.0,3014.8999999046355,1950.0,3000.0,3014.8999999046355,1.0,1064.8999999046357,0.0,,Slider,Slider,4.0,object-56,temp_dist_trial,13.0,s_sh_08_1,student_shared,post-its,3.0,competing,paired,s_sh_08_1.jpg,Student,,,sub-24
Desktop or Laptop,Mac OS 10.15.7,Chrome 137.0.0.0,1680x1050,1470x838,Temporal Distance Task,cb_03,14.0,temp_dist_trial,num_items,zn7si1,1.0,response,2_ITEM,1663.9999998092678,1650.0,1663.9999998092678,1663.9999998092678,1650.0,1663.9999998092678,1.0,0.0,0.0,,Click Response,2_count,5.0,object-49,temp_dist_trial,14.0,s_a_03_1,student_art,palette,3.0,unique,paired,s_a_03_1.jpg,Student,,,sub-24
Desktop or Laptop,Mac OS 10.15.7,Chrome 137.0.0.0,1680x1050,1470x838,Temporal Distance Task,cb_03,14.0,temp_dist_trial,dist_items,qkpkxw,2.0,info,,8.099999809259318,0.0,8.099999809259318,8.099999809259318,0.0,8.099999809259318,1.0,0.0,0.0,,Slider,Slider,4.0,object-56,temp_dist_trial,14.0,s_a_03_1,student_art,palette,3.0,unique,paired,s_a_03_1.jpg,Student,,,sub-24
Desktop or Laptop,Mac OS 10.15.7,Chrome 137.0.0.0,1680x1050,1470x838,Temporal Distance Task,cb_03,14.0,temp_dist_trial,dist_items,qkpkxw,2.0,continue,,3581.499999904627,3566.699999999997,3581.499999904627,3581.499999904627,3566.699999999997,3581.499999904627,1.0,0.0,0.0,,Click To Continue,Next button,7.0,object-60,temp_dist_trial,14.0,s_a_03_1,student_art,palette,3.0,unique,paired,s_a_03_1.jpg,Student,,,sub-24
Desktop or Laptop,Mac OS 10.15.7,Chrome 137.0.0.0,1680x1050,1470x838,Temporal Distance Task,cb_03,14.0,temp_dist_trial,dist_items,qkpkxw,2.0,response,38,1166.6999999999969,3566.699999999997,3583.300000000003,1166.6999999999969,3566.699999999997,3583.300000000003,1.0,2416.6000000000063,0.0,,Slider,Slider,4.0,object-56,temp_dist_trial,14.0,s_a_03_1,student_art,palette,3.0,unique,paired,s_a_03_1.jpg,Student,,,sub-24
Desktop or Laptop,Mac OS 10.15.7,Chrome 137.0.0.0,1680x1050,1470x838,Temporal Distance Task,cb_03,15.0,temp_dist_trial,num_items,zn7si1,1.0,response,2_ITEM,1531.2999999046294,1516.6999999999966,1531.2999999046294,1531.2999999046294,1516.6999999999966,1531.2999999046294,1.0,0.0,0.0,,Click Response,2_count,5.0,object-49,temp_dist_trial,15.0,s_sh_11_1,student_shared,pencil case,3.0,competing,paired,s_sh_11_1.jpg,Student,,,sub-24
Desktop or Laptop,Mac OS 10.15.7,Chrome 137.0.0.0,1680x1050,1470x838,Temporal Distance Task,cb_03,15.0,temp_dist_trial,dist_items,qkpkxw,2.0,info,,9.399999809262226,0.0,9.399999809262226,9.399999809262226,0.0,9.399999809262226,1.0,0.0,0.0,,Slider,Slider,4.0,object-56,temp_dist_trial,15.0,s_sh_11_1,student_shared,pencil case,3.0,competing,paired,s_sh_11_1.jpg,Student,,,sub-24
Desktop or Laptop,Mac OS 10.15.7,Chrome 137.0.0.0,1680x1050,1470x838,Temporal Distance Task,cb_03,15.0,temp_dist_trial,dist_items,qkpkxw,2.0,continue,,2248.499999713895,2234.0999999999913,2248.499999713895,2248.499999713895,2234.0999999999913,2248.499999713895,1.0,0.0,0.0,,Click To Continue,Next button,7.0,object-60,temp_dist_trial,15.0,s_sh_11_1,student_shared,pencil case,3.0,competing,paired,s_sh_11_1.jpg,Student,,,sub-24
Desktop or Laptop,Mac OS 10.15.7,Chrome 137.0.0.0,1680x1050,1470x838,Temporal Distance Task,cb_03,15.0,temp_dist_trial,dist_items,qkpkxw,2.0,response,50,1317.3999999999942,2234.0999999999913,2248.999999713895,1317.3999999999942,2234.0999999999913,2248.999999713895,1.0,931.5999997139006,0.0,,Slider,Slider,4.0,object-56,temp_dist_trial,15.0,s_sh_11_1,student_shared,pencil case,3.0,competing,paired,s_sh_11_1.jpg,Student,,,sub-24
Desktop or Laptop,Mac OS 10.15.7,Chrome 137.0.0.0,1680x1050,1470x838,Temporal Distance Task,cb_03,16.0,temp_dist_trial,num_items,zn7si1,1.0,response,2_ITEM,1398.6000000000058,1383.3000000000034,1398.6000000000058,1398.6000000000058,1383.3000000000034,1398.6000000000058,1.0,0.0,0.0,,Click Response,2_count,5.0,object-49,temp_dist_trial,16.0,s_s_01_1,student_stem,microscope,3.0,unique,single,s_s_01_1.jpg,Student,,,sub-24
Desktop or Laptop,Mac OS 10.15.7,Chrome 137.0.0.0,1680x1050,1470x838,Temporal Distance Task,cb_03,16.0,temp_dist_trial,dist_items,qkpkxw,2.0,info,,8.099999713900615,0.0,8.099999713900615,8.099999713900615,0.0,8.099999713900615,1.0,0.0,0.0,,Slider,Slider,4.0,object-56,temp_dist_trial,16.0,s_s_01_1,student_stem,microscope,3.0,unique,single,s_s_01_1.jpg,Student,,,sub-24
Desktop or Laptop,Mac OS 10.15.7,Chrome 137.0.0.0,1680x1050,1470x838,Temporal Distance Task,cb_03,16.0,temp_dist_trial,dist_items,qkpkxw,2.0,continue,,2449.3999999046355,2433.300000000003,2449.3999999046355,2449.3999999046355,2433.300000000003,2449.3999999046355,1.0,0.0,0.0,,Click To Continue,Next button,7.0,object-60,temp_dist_trial,16.0,s_s_01_1,student_stem,microscope,3.0,unique,single,s_s_01_1.jpg,Student,,,sub-24
Desktop or Laptop,Mac OS 10.15.7,Chrome 137.0.0.0,1680x1050,1470x838,Temporal Distance Task,cb_03,16.0,temp_dist_trial,dist_items,qkpkxw,2.0,response,34,916.6999999999972,2433.300000000003,2450.099999713901,916.6999999999972,2433.300000000003,2450.099999713901,1.0,1533.3999997139035,0.0,,Slider,Slider,4.0,object-56,temp_dist_trial,16.0,s_s_01_1,student_stem,microscope,3.0,unique,single,s_s_01_1.jpg,Student,,,sub-24
Desktop or Laptop,Mac OS 10.15.7,Chrome 137.0.0.0,1680x1050,1470x838,Temporal Distance Task,cb_03,17.0,temp_dist_trial,num_items,zn7si1,1.0,response,2_ITEM,1698.7999997138975,1683.3999999999942,1698.7999997138975,1698.7999997138975,1683.3999999999942,1698.7999997138975,1.0,0.0,0.0,,Click Response,2_count,5.0,object-49,temp_dist_trial,17.0,s_s_12_1,student_stem,robotic arm,3.0,unique,paired,s_s_12_1.jpg,Student,,,sub-24
Desktop or Laptop,Mac OS 10.15.7,Chrome 137.0.0.0,1680x1050,1470x838,Temporal Distance Task,cb_03,17.0,temp_dist_trial,dist_items,qkpkxw,2.0,info,,8.299999904629658,0.0,8.299999904629658,8.299999904629658,0.0,8.299999904629658,1.0,0.0,0.0,,Slider,Slider,4.0,object-56,temp_dist_trial,17.0,s_s_12_1,student_stem,robotic arm,3.0,unique,paired,s_s_12_1.jpg,Student,,,sub-24
Desktop or Laptop,Mac OS 10.15.7,Chrome 137.0.0.0,1680x1050,1470x838,Temporal Distance Task,cb_03,17.0,temp_dist_trial,dist_items,qkpkxw,2.0,continue,,2397.699999999997,2383.300000000003,2397.699999999997,2397.699999999997,2383.300000000003,2397.699999999997,1.0,0.0,0.0,,Click To Continue,Next button,7.0,object-60,temp_dist_trial,17.0,s_s_12_1,student_stem,robotic arm,3.0,unique,paired,s_s_12_1.jpg,Student,,,sub-24
Desktop or Laptop,Mac OS 10.15.7,Chrome 137.0.0.0,1680x1050,1470x838,Temporal Distance Task,cb_03,17.0,temp_dist_trial,dist_items,qkpkxw,2.0,response,76,1033.3999999999942,2383.300000000003,2399.9000000000087,1033.3999999999942,2383.300000000003,2399.9000000000087,1.0,1366.5000000000146,0.0,,Slider,Slider,4.0,object-56,temp_dist_trial,17.0,s_s_12_1,student_stem,robotic arm,3.0,unique,paired,s_s_12_1.jpg,Student,,,sub-24
Desktop or Laptop,Mac OS 10.15.7,Chrome 137.0.0.0,1680x1050,1470x838,Temporal Distance Task,cb_03,18.0,temp_dist_trial,num_items,zn7si1,1.0,response,2_ITEM,1164.199999713892,1150.0,1164.199999713892,1164.199999713892,1150.0,1164.199999713892,1.0,0.0,0.0,,Click Response,2_count,5.0,object-49,temp_dist_trial,18.0,s_s_18_1,student_stem,brain model,3.0,unique,paired,s_s_18_1.jpg,Student,,,sub-24
Desktop or Laptop,Mac OS 10.15.7,Chrome 137.0.0.0,1680x1050,1470x838,Temporal Distance Task,cb_03,18.0,temp_dist_trial,dist_items,qkpkxw,2.0,info,,6.199999618533182,0.0,6.199999618533182,6.199999618533182,0.0,6.199999618533182,1.0,0.0,0.0,,Slider,Slider,4.0,object-56,temp_dist_trial,18.0,s_s_18_1,student_stem,brain model,3.0,unique,paired,s_s_18_1.jpg,Student,,,sub-24
Desktop or Laptop,Mac OS 10.15.7,Chrome 137.0.0.0,1680x1050,1470x838,Temporal Distance Task,cb_03,18.0,temp_dist_trial,dist_items,qkpkxw,2.0,continue,,3048.0999997139006,3033.300000000003,3048.0999997139006,3048.0999997139006,3033.300000000003,3048.0999997139006,1.0,0.0,0.0,,Click To Continue,Next button,7.0,object-60,temp_dist_trial,18.0,s_s_18_1,student_stem,brain model,3.0,unique,paired,s_s_18_1.jpg,Student,,,sub-24
Desktop or Laptop,Mac OS 10.15.7,Chrome 137.0.0.0,1680x1050,1470x838,Temporal Distance Task,cb_03,18.0,temp_dist_trial,dist_items,qkpkxw,2.0,response,84,782.8000000000029,3033.300000000003,3048.6999996185327,782.8000000000029,3033.300000000003,3048.6999996185327,1.0,2265.8999996185307,0.0,,Slider,Slider,4.0,object-56,temp_dist_trial,18.0,s_s_18_1,student_stem,brain model,3.0,unique,paired,s_s_18_1.jpg,Student,,,sub-24
Desktop or Laptop,Mac OS 10.15.7,Chrome 137.0.0.0,1680x1050,1470x838,Temporal Distance Task,cb_03,19.0,temp_dist_trial,num_items,zn7si1,1.0,response,2_ITEM,1097.8999996185305,1083.3000000000031,1097.8999996185305,1097.8999996185305,1083.3000000000031,1097.8999996185305,1.0,0.0,0.0,,Click Response,2_count,5.0,object-49,temp_dist_trial,19.0,s_sh_09_1,student_shared,paper clips,3.0,competing,paired,s_sh_09_1.jpg,Student,,,sub-24
Desktop or Laptop,Mac OS 10.15.7,Chrome 137.0.0.0,1680x1050,1470x838,Temporal Distance Task,cb_03,19.0,temp_dist_trial,dist_items,qkpkxw,2.0,info,,7.9999997138947965,0.0,7.9999997138947965,7.9999997138947965,0.0,7.9999997138947965,1.0,0.0,0.0,,Slider,Slider,4.0,object-56,temp_dist_trial,19.0,s_sh_09_1,student_shared,paper clips,3.0,competing,paired,s_sh_09_1.jpg,Student,,,sub-24
Desktop or Laptop,Mac OS 10.15.7,Chrome 137.0.0.0,1680x1050,1470x838,Temporal Distance Task,cb_03,19.0,temp_dist_trial,dist_items,qkpkxw,2.0,continue,,2412.999999713895,2400.0999999999913,2412.999999713895,2412.999999713895,2400.0999999999913,2412.999999713895,1.0,0.0,0.0,,Click To Continue,Next button,7.0,object-60,temp_dist_trial,19.0,s_sh_09_1,student_shared,paper clips,3.0,competing,paired,s_sh_09_1.jpg,Student,,,sub-24
Desktop or Laptop,Mac OS 10.15.7,Chrome 137.0.0.0,1680x1050,1470x838,Temporal Distance Task,cb_03,19.0,temp_dist_trial,dist_items,qkpkxw,2.0,response,31,950.0,2400.0999999999913,2413.199999999997,950.0,2400.0999999999913,2413.199999999997,1.0,1463.1999999999966,0.0,,Slider,Slider,4.0,object-56,temp_dist_trial,19.0,s_sh_09_1,student_shared,paper clips,3.0,competing,paired,s_sh_09_1.jpg,Student,,,sub-24
Desktop or Laptop,Mac OS 10.15.7,Chrome 137.0.0.0,1680x1050,1470x838,Temporal Distance Task,cb_03,20.0,temp_dist_trial,num_items,zn7si1,1.0,response,1_ITEM,1597.799999809271,1583.1000000000058,1597.799999809271,1597.799999809271,1583.1000000000058,1597.799999809271,1.0,0.0,0.0,,Click Response,1_count,3.0,object-46,temp_dist_trial,20.0,s_s_07_1,student_stem,periodic table,3.0,unique,single,s_s_07_1.jpg,Student,,,sub-24
Desktop or Laptop,Mac OS 10.15.7,Chrome 137.0.0.0,1680x1050,1470x838,Temporal Distance Task,cb_03,21.0,temp_dist_trial,num_items,zn7si1,1.0,response,2_ITEM,1081.6999996185334,1066.6999999999969,1081.6999996185334,1081.6999996185334,1066.6999999999969,1081.6999996185334,1.0,0.0,0.0,,Click Response,2_count,5.0,object-49,temp_dist_trial,21.0,s_sh_15_1,student_shared,usb drive,3.0,competing,paired,s_sh_15_1.jpg,Student,,,sub-24
Desktop or Laptop,Mac OS 10.15.7,Chrome 137.0.0.0,1680x1050,1470x838,Temporal Distance Task,cb_03,21.0,temp_dist_trial,dist_items,qkpkxw,2.0,info,,6.2999998092709575,0.0,6.2999998092709575,6.2999998092709575,0.0,6.2999998092709575,1.0,0.0,0.0,,Slider,Slider,4.0,object-56,temp_dist_trial,21.0,s_sh_15_1,student_shared,usb drive,3.0,competing,paired,s_sh_15_1.jpg,Student,,,sub-24
Desktop or Laptop,Mac OS 10.15.7,Chrome 137.0.0.0,1680x1050,1470x838,Temporal Distance Task,cb_03,21.0,temp_dist_trial,dist_items,qkpkxw,2.0,continue,,3332.6999999046393,3316.700000000012,3332.6999999046393,3332.6999999046393,3316.700000000012,3332.6999999046393,1.0,0.0,0.0,,Click To Continue,Next button,7.0,object-60,temp_dist_trial,21.0,s_sh_15_1,student_shared,usb drive,3.0,competing,paired,s_sh_15_1.jpg,Student,,,sub-24
Desktop or Laptop,Mac OS 10.15.7,Chrome 137.0.0.0,1680x1050,1470x838,Temporal Distance Task,cb_03,21.0,temp_dist_trial,dist_items,qkpkxw,2.0,response,74,2000.0,3316.700000000012,3333.1999999046393,2000.0,3316.700000000012,3333.1999999046393,1.0,1333.1999999046386,0.0,,Slider,Slider,4.0,object-56,temp_dist_trial,21.0,s_sh_15_1,student_shared,usb drive,3.0,competing,paired,s_sh_15_1.jpg,Student,,,sub-24
Desktop or Laptop,Mac OS 10.15.7,Chrome 137.0.0.0,1680x1050,1470x838,Temporal Distance Task,cb_03,22.0,temp_dist_trial,num_items,zn7si1,1.0,response,1_ITEM,1564.2999996185245,1550.0,1564.2999996185245,1564.2999996185245,1550.0,1564.2999996185245,1.0,0.0,0.0,,Click Response,1_count,3.0,object-46,temp_dist_trial,22.0,s_a_16_1,student_art,piano,3.0,unique,single,s_a_16_1.jpg,Student,,,sub-24
Desktop or Laptop,Mac OS 10.15.7,Chrome 137.0.0.0,1680x1050,1470x838,Temporal Distance Task,cb_03,23.0,temp_dist_trial,num_items,zn7si1,1.0,response,1_ITEM,1281.0999999046326,1266.6999999999969,1281.0999999046326,1281.0999999046326,1266.6999999999969,1281.0999999046326,1.0,0.0,0.0,,Click Response,1_count,3.0,object-46,temp_dist_trial,23.0,s_a_19_1,student_art,ballet shoes,3.0,unique,single,s_a_19_1.jpg,Student,,,sub-24
Desktop or Laptop,Mac OS 10.15.7,Chrome 137.0.0.0,1680x1050,1470x838,Temporal Distance Task,cb_03,24.0,temp_dist_trial,num_items,zn7si1,1.0,response,2_ITEM,1098.0999997139006,1083.3000000000031,1098.0999997139006,1098.0999997139006,1083.3000000000031,1098.0999997139006,1.0,0.0,0.0,,Click Response,2_count,5.0,object-49,temp_dist_trial,24.0,s_sh_06_1,student_shared,clipboard,3.0,competing,paired,s_sh_06_1.jpg,Student,,,sub-24
Desktop or Laptop,Mac OS 10.15.7,Chrome 137.0.0.0,1680x1050,1470x838,Temporal Distance Task,cb_03,24.0,temp_dist_trial,dist_items,qkpkxw,2.0,info,,7.999999904626748,0.0,7.999999904626748,7.999999904626748,0.0,7.999999904626748,1.0,0.0,0.0,,Slider,Slider,4.0,object-56,temp_dist_trial,24.0,s_sh_06_1,student_shared,clipboard,3.0,competing,paired,s_sh_06_1.jpg,Student,,,sub-24
Desktop or Laptop,Mac OS 10.15.7,Chrome 137.0.0.0,1680x1050,1470x838,Temporal Distance Task,cb_03,24.0,temp_dist_trial,dist_items,qkpkxw,2.0,continue,,2314.499999904627,2300.0,2314.499999904627,2314.499999904627,2300.0,2314.499999904627,1.0,0.0,0.0,,Click To Continue,Next button,7.0,object-60,temp_dist_trial,24.0,s_sh_06_1,student_shared,clipboard,3.0,competing,paired,s_sh_06_1.jpg,Student,,,sub-24
Desktop or Laptop,Mac OS 10.15.7,Chrome 137.0.0.0,1680x1050,1470x838,Temporal Distance Task,cb_03,24.0,temp_dist_trial,dist_items,qkpkxw,2.0,response,68,983.2999999999884,2300.0,2316.700000000012,983.2999999999884,2300.0,2316.700000000012,1.0,1333.4000000000233,0.0,,Slider,Slider,4.0,object-56,temp_dist_trial,24.0,s_sh_06_1,student_shared,clipboard,3.0,competing,paired,s_sh_06_1.jpg,Student,,,sub-24
Desktop or Laptop,Mac OS 10.15.7,Chrome 137.0.0.0,1680x1050,1470x838,Temporal Distance Task,cb_03,25.0,temp_dist_trial,num_items,zn7si1,1.0,response,1_ITEM,2264.3999999999937,2250.0,2264.3999999999937,2264.3999999999937,2250.0,2264.3999999999937,1.0,0.0,0.0,,Click Response,1_count,3.0,object-46,temp_dist_trial,25.0,s_a_20_1,student_art,pin cushion,3.0,unique,paired,s_a_20_1.jpg,Student,,,sub-24
Desktop or Laptop,Mac OS 10.15.7,Chrome 137.0.0.0,1680x1050,1470x838,Temporal Distance Task,cb_03,26.0,temp_dist_trial,num_items,zn7si1,1.0,response,2_ITEM,1346.599999809259,1333.2999999999886,1346.599999809259,1346.599999809259,1333.2999999999886,1346.599999809259,1.0,0.0,0.0,,Click Response,2_count,5.0,object-49,temp_dist_trial,26.0,s_s_04_1,student_stem,bunsen burner,3.0,unique,paired,s_s_04_1.jpg,Student,,,sub-24
Desktop or Laptop,Mac OS 10.15.7,Chrome 137.0.0.0,1680x1050,1470x838,Temporal Distance Task,cb_03,26.0,temp_dist_trial,dist_items,qkpkxw,2.0,info,,2.9999996185360938,0.0,2.9999996185360938,2.9999996185360938,0.0,2.9999996185360938,1.0,0.0,0.0,,Slider,Slider,4.0,object-56,temp_dist_trial,26.0,s_s_04_1,student_stem,bunsen burner,3.0,unique,paired,s_s_04_1.jpg,Student,,,sub-24
Desktop or Laptop,Mac OS 10.15.7,Chrome 137.0.0.0,1680x1050,1470x838,Temporal Distance Task,cb_03,26.0,temp_dist_trial,dist_items,qkpkxw,2.0,continue,,2112.999999618536,2100.0,2112.999999618536,2112.999999618536,2100.0,2112.999999618536,1.0,0.0,0.0,,Click To Continue,Next button,7.0,object-60,temp_dist_trial,26.0,s_s_04_1,student_stem,bunsen burner,3.0,unique,paired,s_s_04_1.jpg,Student,,,sub-24
Desktop or Laptop,Mac OS 10.15.7,Chrome 137.0.0.0,1680x1050,1470x838,Temporal Distance Task,cb_03,26.0,temp_dist_trial,dist_items,qkpkxw,2.0,response,30,683.3000000000029,2100.0,2113.299999809271,683.3000000000029,2100.0,2113.299999809271,1.0,1429.9999998092678,0.0,,Slider,Slider,4.0,object-56,temp_dist_trial,26.0,s_s_04_1,student_stem,bunsen burner,3.0,unique,paired,s_s_04_1.jpg,Student,,,sub-24
Desktop or Laptop,Mac OS 10.15.7,Chrome 137.0.0.0,1680x1050,1470x838,Temporal Distance Task,cb_03,27.0,temp_dist_trial,num_items,zn7si1,1.0,response,2_ITEM,1081.6999999046384,1066.6000000000058,1081.6999999046384,1081.6999999046384,1066.6000000000058,1081.6999999046384,1.0,0.0,0.0,,Click Response,2_count,5.0,object-49,temp_dist_trial,27.0,s_sh_01_1,student_shared,notebook,3.0,competing,paired,s_sh_01_1.jpg,Student,,,sub-24
Desktop or Laptop,Mac OS 10.15.7,Chrome 137.0.0.0,1680x1050,1470x838,Temporal Distance Task,cb_03,27.0,temp_dist_trial,dist_items,qkpkxw,2.0,info,,6.899999999994179,0.0,6.899999999994179,6.899999999994179,0.0,6.899999999994179,1.0,0.0,0.0,,Slider,Slider,4.0,object-56,temp_dist_trial,27.0,s_sh_01_1,student_shared,notebook,3.0,competing,paired,s_sh_01_1.jpg,Student,,,sub-24
Desktop or Laptop,Mac OS 10.15.7,Chrome 137.0.0.0,1680x1050,1470x838,Temporal Distance Task,cb_03,27.0,temp_dist_trial,dist_items,qkpkxw,2.0,continue,,2664.199999713892,2649.8999999999937,2664.199999713892,2664.199999713892,2649.8999999999937,2664.199999713892,1.0,0.0,0.0,,Click To Continue,Next button,7.0,object-60,temp_dist_trial,27.0,s_sh_01_1,student_shared,notebook,3.0,competing,paired,s_sh_01_1.jpg,Student,,,sub-24
Desktop or Laptop,Mac OS 10.15.7,Chrome 137.0.0.0,1680x1050,1470x838,Temporal Distance Task,cb_03,27.0,temp_dist_trial,dist_items,qkpkxw,2.0,response,32,849.8999999999942,2649.8999999999937,2666.5,849.8999999999942,2649.8999999999937,2666.5,1.0,1816.6000000000056,0.0,,Slider,Slider,4.0,object-56,temp_dist_trial,27.0,s_sh_01_1,student_shared,notebook,3.0,competing,paired,s_sh_01_1.jpg,Student,,,sub-24
Desktop or Laptop,Mac OS 10.15.7,Chrome 137.0.0.0,1680x1050,1470x838,Temporal Distance Task,cb_03,28.0,temp_dist_trial,num_items,zn7si1,1.0,response,2_ITEM,1264.3999996185305,1250.1000000000058,1264.3999996185305,1264.3999996185305,1250.1000000000058,1264.3999996185305,1.0,0.0,0.0,,Click Response,2_count,5.0,object-49,temp_dist_trial,28.0,s_a_04_1,student_art,easel,3.0,unique,paired,s_a_04_1.jpg,Student,,,sub-24
Desktop or Laptop,Mac OS 10.15.7,Chrome 137.0.0.0,1680x1050,1470x838,Temporal Distance Task,cb_03,28.0,temp_dist_trial,dist_items,qkpkxw,2.0,info,,6.299999713897705,0.0,6.299999713897705,6.299999713897705,0.0,6.299999713897705,1.0,0.0,0.0,,Slider,Slider,4.0,object-56,temp_dist_trial,28.0,s_a_04_1,student_art,easel,3.0,unique,paired,s_a_04_1.jpg,Student,,,sub-24
Desktop or Laptop,Mac OS 10.15.7,Chrome 137.0.0.0,1680x1050,1470x838,Temporal Distance Task,cb_03,28.0,temp_dist_trial,dist_items,qkpkxw,2.0,continue,,2246.7999997138973,2233.3999999999937,2246.7999997138973,2246.7999997138973,2233.3999999999937,2246.7999997138973,1.0,0.0,0.0,,Click To Continue,Next button,7.0,object-60,temp_dist_trial,28.0,s_a_04_1,student_art,easel,3.0,unique,paired,s_a_04_1.jpg,Student,,,sub-24
Desktop or Laptop,Mac OS 10.15.7,Chrome 137.0.0.0,1680x1050,1470x838,Temporal Distance Task,cb_03,28.0,temp_dist_trial,dist_items,qkpkxw,2.0,response,33,983.3999999999942,2233.3999999999937,2247.099999904633,983.3999999999942,2233.3999999999937,2247.099999904633,1.0,1263.6999999046386,0.0,,Slider,Slider,4.0,object-56,temp_dist_trial,28.0,s_a_04_1,student_art,easel,3.0,unique,paired,s_a_04_1.jpg,Student,,,sub-24
Desktop or Laptop,Mac OS 10.15.7,Chrome 137.0.0.0,1680x1050,1470x838,Temporal Distance Task,cb_03,29.0,temp_dist_trial,num_items,zn7si1,1.0,response,2_ITEM,1814.499999618536,1800.0,1814.499999618536,1814.499999618536,1800.0,1814.499999618536,1.0,0.0,0.0,,Click Response,2_count,5.0,object-49,temp_dist_trial,29.0,s_s_14_1,student_stem,funnel,3.0,unique,paired,s_s_14_1.jpg,Student,,,sub-24
Desktop or Laptop,Mac OS 10.15.7,Chrome 137.0.0.0,1680x1050,1470x838,Temporal Distance Task,cb_03,29.0,temp_dist_trial,dist_items,qkpkxw,2.0,info,,6.2999998092709575,0.0,6.2999998092709575,6.2999998092709575,0.0,6.2999998092709575,1.0,0.0,0.0,,Slider,Slider,4.0,object-56,temp_dist_trial,29.0,s_s_14_1,student_stem,funnel,3.0,unique,paired,s_s_14_1.jpg,Student,,,sub-24
Desktop or Laptop,Mac OS 10.15.7,Chrome 137.0.0.0,1680x1050,1470x838,Temporal Distance Task,cb_03,29.0,temp_dist_trial,dist_items,qkpkxw,2.0,continue,,1880.799999809271,1866.6000000000056,1880.799999809271,1880.799999809271,1866.6000000000056,1880.799999809271,1.0,0.0,0.0,,Click To Continue,Next button,7.0,object-60,temp_dist_trial,29.0,s_s_14_1,student_stem,funnel,3.0,unique,paired,s_s_14_1.jpg,Student,,,sub-24
Desktop or Laptop,Mac OS 10.15.7,Chrome 137.0.0.0,1680x1050,1470x838,Temporal Distance Task,cb_03,29.0,temp_dist_trial,dist_items,qkpkxw,2.0,response,72,566.7000000000116,1866.6000000000056,1881.499999618536,566.7000000000116,1866.6000000000056,1881.499999618536,1.0,1314.7999996185245,0.0,,Slider,Slider,4.0,object-56,temp_dist_trial,29.0,s_s_14_1,student_stem,funnel,3.0,unique,paired,s_s_14_1.jpg,Student,,,sub-24
Desktop or Laptop,Mac OS 10.15.7,Chrome 137.0.0.0,1680x1050,1470x838,Temporal Distance Task,cb_03,30.0,temp_dist_trial,num_items,zn7si1,1.0,response,2_ITEM,948.5,933.3999999999942,948.5,948.5,933.3999999999942,948.5,1.0,0.0,0.0,,Click Response,2_count,5.0,object-49,temp_dist_trial,30.0,s_sh_14_1,student_shared,printer,3.0,competing,paired,s_sh_14_1.jpg,Student,,,sub-24
Desktop or Laptop,Mac OS 10.15.7,Chrome 137.0.0.0,1680x1050,1470x838,Temporal Distance Task,cb_03,30.0,temp_dist_trial,dist_items,qkpkxw,2.0,info,,7.799999809270957,0.0,7.799999809270957,7.799999809270957,0.0,7.799999809270957,1.0,0.0,0.0,,Slider,Slider,4.0,object-56,temp_dist_trial,30.0,s_sh_14_1,student_shared,printer,3.0,competing,paired,s_sh_14_1.jpg,Student,,,sub-24
Desktop or Laptop,Mac OS 10.15.7,Chrome 137.0.0.0,1680x1050,1470x838,Temporal Distance Task,cb_03,30.0,temp_dist_trial,dist_items,qkpkxw,2.0,continue,,1948.8999997139035,1933.3999999999944,1948.8999997139035,1948.8999997139035,1933.3999999999944,1948.8999997139035,1.0,0.0,0.0,,Click To Continue,Next button,7.0,object-60,temp_dist_trial,30.0,s_sh_14_1,student_shared,printer,3.0,competing,paired,s_sh_14_1.jpg,Student,,,sub-24
Desktop or Laptop,Mac OS 10.15.7,Chrome 137.0.0.0,1680x1050,1470x838,Temporal Distance Task,cb_03,30.0,temp_dist_trial,dist_items,qkpkxw,2.0,response,72,883.3000000000177,1933.3999999999944,1950.1999999999825,883.3000000000177,1933.3999999999944,1950.1999999999825,1.0,1066.899999999965,0.0,,Slider,Slider,4.0,object-56,temp_dist_trial,30.0,s_sh_14_1,student_shared,printer,3.0,competing,paired,s_sh_14_1.jpg,Student,,,sub-24
Desktop or Laptop,Mac OS 10.15.7,Chrome 137.0.0.0,1680x1050,1470x838,Temporal Distance Task,cb_03,31.0,temp_dist_trial,num_items,zn7si1,1.0,response,2_ITEM,1330.8999998092768,1316.6000000000058,1330.8999998092768,1330.8999998092768,1316.6000000000058,1330.8999998092768,1.0,0.0,0.0,,Click Response,2_count,5.0,object-49,temp_dist_trial,31.0,s_s_17_1,student_stem,ring stand,3.0,unique,paired,s_s_17_1.jpg,Student,,,sub-24
Desktop or Laptop,Mac OS 10.15.7,Chrome 137.0.0.0,1680x1050,1470x838,Temporal Distance Task,cb_03,31.0,temp_dist_trial,dist_items,qkpkxw,2.0,info,,8.499999618536092,0.0,8.499999618536092,8.499999618536092,0.0,8.499999618536092,1.0,0.0,0.0,,Slider,Slider,4.0,object-56,temp_dist_trial,31.0,s_s_17_1,student_stem,ring stand,3.0,unique,paired,s_s_17_1.jpg,Student,,,sub-24
Desktop or Laptop,Mac OS 10.15.7,Chrome 137.0.0.0,1680x1050,1470x838,Temporal Distance Task,cb_03,31.0,temp_dist_trial,dist_items,qkpkxw,2.0,continue,,2081.499999618536,2065.8999999999937,2081.499999618536,2081.499999618536,2065.8999999999937,2081.499999618536,1.0,0.0,0.0,,Click To Continue,Next button,7.0,object-60,temp_dist_trial,31.0,s_s_17_1,student_stem,ring stand,3.0,unique,paired,s_s_17_1.jpg,Student,,,sub-24
Desktop or Laptop,Mac OS 10.15.7,Chrome 137.0.0.0,1680x1050,1470x838,Temporal Distance Task,cb_03,31.0,temp_dist_trial,dist_items,qkpkxw,2.0,response,48,800.0,2065.8999999999937,2081.7999999999884,800.0,2065.8999999999937,2081.7999999999884,1.0,1281.7999999999886,0.0,,Slider,Slider,4.0,object-56,temp_dist_trial,31.0,s_s_17_1,student_stem,ring stand,3.0,unique,paired,s_s_17_1.jpg,Student,,,sub-24
Desktop or Laptop,Mac OS 10.15.7,Chrome 137.0.0.0,1680x1050,1470x838,Temporal Distance Task,cb_03,32.0,temp_dist_trial,num_items,zn7si1,1.0,response,1_ITEM,1582.2000000000116,1567.5,1582.2000000000116,1582.2000000000116,1567.5,1582.2000000000116,1.0,0.0,0.0,,Click Response,1_count,3.0,object-46,temp_dist_trial,32.0,s_s_09_1,student_stem,multimeter,3.0,unique,single,s_s_09_1.jpg,Student,,,sub-24
Desktop or Laptop,Mac OS 10.15.7,Chrome 137.0.0.0,1680x1050,1470x838,Temporal Distance Task,cb_03,33.0,temp_dist_trial,num_items,zn7si1,1.0,response,2_ITEM,1381.4999997139093,1366.6000000000058,1381.4999997139093,1381.4999997139093,1366.6000000000058,1381.4999997139093,1.0,0.0,0.0,,Click Response,2_count,5.0,object-49,temp_dist_trial,33.0,s_a_02_1,student_art,canvas,3.0,unique,single,s_a_02_1.jpg,Student,,,sub-24
Desktop or Laptop,Mac OS 10.15.7,Chrome 137.0.0.0,1680x1050,1470x838,Temporal Distance Task,cb_03,33.0,temp_dist_trial,dist_items,qkpkxw,2.0,info,,6.7999998092709575,0.0,6.7999998092709575,6.7999998092709575,0.0,6.7999998092709575,1.0,0.0,0.0,,Slider,Slider,4.0,object-56,temp_dist_trial,33.0,s_a_02_1,student_art,canvas,3.0,unique,single,s_a_02_1.jpg,Student,,,sub-24
Desktop or Laptop,Mac OS 10.15.7,Chrome 137.0.0.0,1680x1050,1470x838,Temporal Distance Task,cb_03,33.0,temp_dist_trial,dist_items,qkpkxw,2.0,continue,,3281.399999713903,3267.200000000012,3281.399999713903,3281.399999713903,3267.200000000012,3281.399999713903,1.0,0.0,0.0,,Click To Continue,Next button,7.0,object-60,temp_dist_trial,33.0,s_a_02_1,student_art,canvas,3.0,unique,single,s_a_02_1.jpg,Student,,,sub-24
Desktop or Laptop,Mac OS 10.15.7,Chrome 137.0.0.0,1680x1050,1470x838,Temporal Distance Task,cb_03,33.0,temp_dist_trial,dist_items,qkpkxw,2.0,response,69,2017.2000000000119,3267.200000000012,3283.800000000017,2017.2000000000119,3267.200000000012,3283.800000000017,1.0,1266.6000000000058,0.0,,Slider,Slider,4.0,object-56,temp_dist_trial,33.0,s_a_02_1,student_art,canvas,3.0,unique,single,s_a_02_1.jpg,Student,,,sub-24
Desktop or Laptop,Mac OS 10.15.7,Chrome 137.0.0.0,1680x1050,1470x838,Temporal Distance Task,cb_03,34.0,temp_dist_trial,num_items,zn7si1,1.0,response,2_ITEM,1664.3999999999942,1650.0,1664.3999999999942,1664.3999999999942,1650.0,1664.3999999999942,1.0,0.0,0.0,,Click Response,2_count,5.0,object-49,temp_dist_trial,34.0,s_a_13_1,student_art,violin,3.0,unique,paired,s_a_13_1.jpg,Student,,,sub-24
Desktop or Laptop,Mac OS 10.15.7,Chrome 137.0.0.0,1680x1050,1470x838,Temporal Distance Task,cb_03,34.0,temp_dist_trial,dist_items,qkpkxw,2.0,info,,5.999999904626748,0.0,5.999999904626748,5.999999904626748,0.0,5.999999904626748,1.0,0.0,0.0,,Slider,Slider,4.0,object-56,temp_dist_trial,34.0,s_a_13_1,student_art,violin,3.0,unique,paired,s_a_13_1.jpg,Student,,,sub-24
Desktop or Laptop,Mac OS 10.15.7,Chrome 137.0.0.0,1680x1050,1470x838,Temporal Distance Task,cb_03,34.0,temp_dist_trial,dist_items,qkpkxw,2.0,continue,,1747.7999996185245,1733.2999999999884,1747.7999996185245,1747.7999996185245,1733.2999999999884,1747.7999996185245,1.0,0.0,0.0,,Click To Continue,Next button,7.0,object-60,temp_dist_trial,34.0,s_a_13_1,student_art,violin,3.0,unique,paired,s_a_13_1.jpg,Student,,,sub-24
Desktop or Laptop,Mac OS 10.15.7,Chrome 137.0.0.0,1680x1050,1470x838,Temporal Distance Task,cb_03,34.0,temp_dist_trial,dist_items,qkpkxw,2.0,response,70,666.6000000000057,1733.2999999999884,1748.3999999999942,666.6000000000057,1733.2999999999884,1748.3999999999942,1.0,1081.7999999999884,0.0,,Slider,Slider,4.0,object-56,temp_dist_trial,34.0,s_a_13_1,student_art,violin,3.0,unique,paired,s_a_13_1.jpg,Student,,,sub-24
Desktop or Laptop,Mac OS 10.15.7,Chrome 137.0.0.0,1680x1050,1470x838,Temporal Distance Task,cb_03,35.0,temp_dist_trial,num_items,zn7si1,1.0,response,2_ITEM,1163.999999618536,1150.1000000000058,1163.999999618536,1163.999999618536,1150.1000000000058,1163.999999618536,1.0,0.0,0.0,,Click Response,2_count,5.0,object-49,temp_dist_trial,35.0,s_sh_10_1,student_shared,scissors,3.0,competing,paired,s_sh_10_1.jpg,Student,,,sub-24
Desktop or Laptop,Mac OS 10.15.7,Chrome 137.0.0.0,1680x1050,1470x838,Temporal Distance Task,cb_03,35.0,temp_dist_trial,dist_items,qkpkxw,2.0,info,,7.499999618536093,0.0,7.499999618536093,7.499999618536093,0.0,7.499999618536093,1.0,0.0,0.0,,Slider,Slider,4.0,object-56,temp_dist_trial,35.0,s_sh_10_1,student_shared,scissors,3.0,competing,paired,s_sh_10_1.jpg,Student,,,sub-24
Desktop or Laptop,Mac OS 10.15.7,Chrome 137.0.0.0,1680x1050,1470x838,Temporal Distance Task,cb_03,35.0,temp_dist_trial,dist_items,qkpkxw,2.0,continue,,2132.299999809271,2116.700000000012,2132.299999809271,2132.299999809271,2116.700000000012,2132.299999809271,1.0,0.0,0.0,,Click To Continue,Next button,7.0,object-60,temp_dist_trial,35.0,s_sh_10_1,student_shared,scissors,3.0,competing,paired,s_sh_10_1.jpg,Student,,,sub-24
Desktop or Laptop,Mac OS 10.15.7,Chrome 137.0.0.0,1680x1050,1470x838,Temporal Distance Task,cb_03,35.0,temp_dist_trial,dist_items,qkpkxw,2.0,response,36,950.0,2116.700000000012,2132.999999618536,950.0,2116.700000000012,2132.999999618536,1.0,1182.999999618536,0.0,,Slider,Slider,4.0,object-56,temp_dist_trial,35.0,s_sh_10_1,student_shared,scissors,3.0,competing,paired,s_sh_10_1.jpg,Student,,,sub-24
Desktop or Laptop,Mac OS 10.15.7,Chrome 137.0.0.0,1680x1050,1470x838,Temporal Distance Task,cb_03,36.0,temp_dist_trial,num_items,zn7si1,1.0,response,1_ITEM,1162.7999996185245,1150.0,1162.7999996185245,1162.7999996185245,1150.0,1162.7999996185245,1.0,0.0,0.0,,Click Response,1_count,3.0,object-46,temp_dist_trial,36.0,s_sh_03_1,student_shared,highlighter,3.0,competing,single,s_sh_03_1.jpg,Student,,,sub-24
Desktop or Laptop,Mac OS 10.15.7,Chrome 137.0.0.0,1680x1050,1470x838,Temporal Distance Task,cb_03,37.0,temp_dist_trial,num_items,zn7si1,1.0,response,2_ITEM,898.6999997138919,883.3999999999942,898.6999997138919,898.6999997138919,883.3999999999942,898.6999997138919,1.0,0.0,0.0,,Click Response,2_count,5.0,object-49,temp_dist_trial,37.0,s_sh_12_1,student_shared,binder,3.0,competing,paired,s_sh_12_1.jpg,Student,,,sub-24
Desktop or Laptop,Mac OS 10.15.7,Chrome 137.0.0.0,1680x1050,1470x838,Temporal Distance Task,cb_03,37.0,temp_dist_trial,dist_items,qkpkxw,2.0,info,,8.999999618536092,0.0,8.999999618536092,8.999999618536092,0.0,8.999999618536092,1.0,0.0,0.0,,Slider,Slider,4.0,object-56,temp_dist_trial,37.0,s_sh_12_1,student_shared,binder,3.0,competing,paired,s_sh_12_1.jpg,Student,,,sub-24
Desktop or Laptop,Mac OS 10.15.7,Chrome 137.0.0.0,1680x1050,1470x838,Temporal Distance Task,cb_03,37.0,temp_dist_trial,dist_items,qkpkxw,2.0,continue,,2481.799999809271,2466.700000000012,2481.799999809271,2481.799999809271,2466.700000000012,2481.799999809271,1.0,0.0,0.0,,Click To Continue,Next button,7.0,object-60,temp_dist_trial,37.0,s_sh_12_1,student_shared,binder,3.0,competing,paired,s_sh_12_1.jpg,Student,,,sub-24
Desktop or Laptop,Mac OS 10.15.7,Chrome 137.0.0.0,1680x1050,1470x838,Temporal Distance Task,cb_03,37.0,temp_dist_trial,dist_items,qkpkxw,2.0,response,58,783.3999999999942,2466.700000000012,2483.4000000000233,783.3999999999942,2466.700000000012,2483.4000000000233,1.0,1700.000000000029,0.0,,Slider,Slider,4.0,object-56,temp_dist_trial,37.0,s_sh_12_1,student_shared,binder,3.0,competing,paired,s_sh_12_1.jpg,Student,,,sub-24
Desktop or Laptop,Mac OS 10.15.7,Chrome 137.0.0.0,1680x1050,1470x838,Temporal Distance Task,cb_03,38.0,temp_dist_trial,num_items,zn7si1,1.0,response,2_ITEM,1264.7999996185245,1250.0,1264.7999996185245,1264.7999996185245,1250.0,1264.7999996185245,1.0,0.0,0.0,,Click Response,2_count,5.0,object-49,temp_dist_trial,38.0,s_s_13_1,student_stem,telescope,3.0,unique,paired,s_s_13_1.jpg,Student,,,sub-24
Desktop or Laptop,Mac OS 10.15.7,Chrome 137.0.0.0,1680x1050,1470x838,Temporal Distance Task,cb_03,38.0,temp_dist_trial,dist_items,qkpkxw,2.0,info,,6.499999904626748,0.0,6.499999904626748,6.499999904626748,0.0,6.499999904626748,1.0,0.0,0.0,,Slider,Slider,4.0,object-56,temp_dist_trial,38.0,s_s_13_1,student_stem,telescope,3.0,unique,paired,s_s_13_1.jpg,Student,,,sub-24
Desktop or Laptop,Mac OS 10.15.7,Chrome 137.0.0.0,1680x1050,1470x838,Temporal Distance Task,cb_03,38.0,temp_dist_trial,dist_items,qkpkxw,2.0,continue,,1764.2999996185245,1750.0,1764.2999996185245,1764.2999996185245,1750.0,1764.2999996185245,1.0,0.0,0.0,,Click To Continue,Next button,7.0,object-60,temp_dist_trial,38.0,s_s_13_1,student_stem,telescope,3.0,unique,paired,s_s_13_1.jpg,Student,,,sub-24
Desktop or Laptop,Mac OS 10.15.7,Chrome 137.0.0.0,1680x1050,1470x838,Temporal Distance Task,cb_03,38.0,temp_dist_trial,dist_items,qkpkxw,2.0,response,52,716.6000000000058,1750.0,1764.7999996185245,716.6000000000058,1750.0,1764.7999996185245,1.0,1048.1999996185186,0.0,,Slider,Slider,4.0,object-56,temp_dist_trial,38.0,s_s_13_1,student_stem,telescope,3.0,unique,paired,s_s_13_1.jpg,Student,,,sub-24
Desktop or Laptop,Mac OS 10.15.7,Chrome 137.0.0.0,1680x1050,1470x838,Temporal Distance Task,cb_03,39.0,temp_dist_trial,num_items,zn7si1,1.0,response,1_ITEM,2548.7999996185245,2533.2999999999884,2548.7999996185245,2548.7999996185245,2533.2999999999884,2548.7999996185245,1.0,0.0,0.0,,Click Response,1_count,3.0,object-46,temp_dist_trial,39.0,s_sh_19_1,student_shared,portable plastic drawer,3.0,competing,single,s_sh_19_1.jpg,Student,,,sub-24
Desktop or Laptop,Mac OS 10.15.7,Chrome 137.0.0.0,1680x1050,1470x838,Temporal Distance Task,cb_03,40.0,temp_dist_trial,num_items,zn7si1,1.0,response,1_ITEM,1381.1000000000058,1366.0,1381.1000000000058,1381.1000000000058,1366.0,1381.1000000000058,1.0,0.0,0.0,,Click Response,1_count,3.0,object-46,temp_dist_trial,40.0,s_a_09_1,student_art,picture frame,3.0,unique,paired,s_a_09_1.jpg,Student,,,sub-24
Desktop or Laptop,Mac OS 10.15.7,Chrome 137.0.0.0,1680x1050,1470x838,Temporal Distance Task,cb_03,41.0,temp_dist_trial,num_items,zn7si1,1.0,response,2_ITEM,1280.7999996185245,1266.6999999999825,1280.7999996185245,1280.7999996185245,1266.6999999999825,1280.7999996185245,1.0,0.0,0.0,,Click Response,2_count,5.0,object-49,temp_dist_trial,41.0,s_sh_22_1,student_shared,hole puncher,3.0,competing,paired,s_sh_22_1.jpg,Student,,,sub-24
Desktop or Laptop,Mac OS 10.15.7,Chrome 137.0.0.0,1680x1050,1470x838,Temporal Distance Task,cb_03,41.0,temp_dist_trial,dist_items,qkpkxw,2.0,info,,6.2000000000116415,0.0,6.2000000000116415,6.2000000000116415,0.0,6.2000000000116415,1.0,0.0,0.0,,Slider,Slider,4.0,object-56,temp_dist_trial,41.0,s_sh_22_1,student_shared,hole puncher,3.0,competing,paired,s_sh_22_1.jpg,Student,,,sub-24
Desktop or Laptop,Mac OS 10.15.7,Chrome 137.0.0.0,1680x1050,1470x838,Temporal Distance Task,cb_03,41.0,temp_dist_trial,dist_items,qkpkxw,2.0,continue,,2215.599999618542,2199.9000000000233,2215.599999618542,2215.599999618542,2199.9000000000233,2215.599999618542,1.0,0.0,0.0,,Click To Continue,Next button,7.0,object-60,temp_dist_trial,41.0,s_sh_22_1,student_shared,hole puncher,3.0,competing,paired,s_sh_22_1.jpg,Student,,,sub-24
Desktop or Laptop,Mac OS 10.15.7,Chrome 137.0.0.0,1680x1050,1470x838,Temporal Distance Task,cb_03,41.0,temp_dist_trial,dist_items,qkpkxw,2.0,response,72,683.3000000000175,2199.9000000000233,2216.500000000029,683.3000000000175,2199.9000000000233,2216.500000000029,1.0,1533.2000000000116,0.0,,Slider,Slider,4.0,object-56,temp_dist_trial,41.0,s_sh_22_1,student_shared,hole puncher,3.0,competing,paired,s_sh_22_1.jpg,Student,,,sub-24
Desktop or Laptop,Mac OS 10.15.7,Chrome 137.0.0.0,1680x1050,1470x838,Temporal Distance Task,cb_03,42.0,temp_dist_trial,num_items,zn7si1,1.0,response,1_ITEM,1347.7999999999886,1333.3999999999942,1347.7999999999886,1347.7999999999886,1333.3999999999942,1347.7999999999886,1.0,0.0,0.0,,Click Response,1_count,3.0,object-46,temp_dist_trial,42.0,s_sh_02_1,student_shared,eraser,3.0,competing,single,s_sh_02_1.jpg,Student,,,sub-24
Desktop or Laptop,Mac OS 10.15.7,Chrome 137.0.0.0,1680x1050,1470x838,Temporal Distance Task,cb_03,43.0,temp_dist_trial,num_items,zn7si1,1.0,response,2_ITEM,1781.6999997138919,1766.6999999999825,1781.6999997138919,1781.6999997138919,1766.6999999999825,1781.6999997138919,1.0,0.0,0.0,,Click Response,2_count,5.0,object-49,temp_dist_trial,43.0,s_sh_18_1,student_shared,wall calendar,3.0,competing,paired,s_sh_18_1.jpg,Student,,,sub-24
Desktop or Laptop,Mac OS 10.15.7,Chrome 137.0.0.0,1680x1050,1470x838,Temporal Distance Task,cb_03,43.0,temp_dist_trial,dist_items,qkpkxw,2.0,info,,6.499999713909348,0.0,6.499999713909348,6.499999713909348,0.0,6.499999713909348,1.0,0.0,0.0,,Slider,Slider,4.0,object-56,temp_dist_trial,43.0,s_sh_18_1,student_shared,wall calendar,3.0,competing,paired,s_sh_18_1.jpg,Student,,,sub-24
Desktop or Laptop,Mac OS 10.15.7,Chrome 137.0.0.0,1680x1050,1470x838,Temporal Distance Task,cb_03,43.0,temp_dist_trial,dist_items,qkpkxw,2.0,continue,,2030.9999997139093,2016.7000000000119,2030.9999997139093,2030.9999997139093,2016.7000000000119,2030.9999997139093,1.0,0.0,0.0,,Click To Continue,Next button,7.0,object-60,temp_dist_trial,43.0,s_sh_18_1,student_shared,wall calendar,3.0,competing,paired,s_sh_18_1.jpg,Student,,,sub-24
Desktop or Laptop,Mac OS 10.15.7,Chrome 137.0.0.0,1680x1050,1470x838,Temporal Distance Task,cb_03,43.0,temp_dist_trial,dist_items,qkpkxw,2.0,response,82,616.6000000000057,2016.7000000000119,2031.7000000000119,616.6000000000057,2016.7000000000119,2031.7000000000119,1.0,1415.1000000000058,0.0,,Slider,Slider,4.0,object-56,temp_dist_trial,43.0,s_sh_18_1,student_shared,wall calendar,3.0,competing,paired,s_sh_18_1.jpg,Student,,,sub-24
Desktop or Laptop,Mac OS 10.15.7,Chrome 137.0.0.0,1680x1050,1470x838,Temporal Distance Task,cb_03,44.0,temp_dist_trial,num_items,zn7si1,1.0,response,2_ITEM,1364.3999996185305,1350.0,1364.3999996185305,1364.3999996185305,1350.0,1364.3999996185305,1.0,0.0,0.0,,Click Response,2_count,5.0,object-49,temp_dist_trial,44.0,s_sh_13_1,student_shared,index cards,3.0,competing,paired,s_sh_13_1.jpg,Student,,,sub-24
Desktop or Laptop,Mac OS 10.15.7,Chrome 137.0.0.0,1680x1050,1470x838,Temporal Distance Task,cb_03,44.0,temp_dist_trial,dist_items,qkpkxw,2.0,info,,6.100000000005821,0.0,6.100000000005821,6.100000000005821,0.0,6.100000000005821,1.0,0.0,0.0,,Slider,Slider,4.0,object-56,temp_dist_trial,44.0,s_sh_13_1,student_shared,index cards,3.0,competing,paired,s_sh_13_1.jpg,Student,,,sub-24
Desktop or Laptop,Mac OS 10.15.7,Chrome 137.0.0.0,1680x1050,1470x838,Temporal Distance Task,cb_03,44.0,temp_dist_trial,dist_items,qkpkxw,2.0,continue,,1697.8999997139035,1683.3999999999942,1697.8999997139035,1697.8999997139035,1683.3999999999942,1697.8999997139035,1.0,0.0,0.0,,Click To Continue,Next button,7.0,object-60,temp_dist_trial,44.0,s_sh_13_1,student_shared,index cards,3.0,competing,paired,s_sh_13_1.jpg,Student,,,sub-24
Desktop or Laptop,Mac OS 10.15.7,Chrome 137.0.0.0,1680x1050,1470x838,Temporal Distance Task,cb_03,44.0,temp_dist_trial,dist_items,qkpkxw,2.0,response,42,550.0,1683.3999999999942,1698.6999999046384,550.0,1683.3999999999942,1698.6999999046384,1.0,1148.6999999046386,0.0,,Slider,Slider,4.0,object-56,temp_dist_trial,44.0,s_sh_13_1,student_shared,index cards,3.0,competing,paired,s_sh_13_1.jpg,Student,,,sub-24
Desktop or Laptop,Mac OS 10.15.7,Chrome 137.0.0.0,1680x1050,1470x838,Temporal Distance Task,cb_03,45.0,temp_dist_trial,num_items,zn7si1,1.0,response,2_ITEM,1180.8999998092768,1166.6000000000058,1180.8999998092768,1180.8999998092768,1166.6000000000058,1180.8999998092768,1.0,0.0,0.0,,Click Response,2_count,5.0,object-49,temp_dist_trial,45.0,s_sh_24_1,student_shared,desk organizer,3.0,competing,paired,s_sh_24_1.jpg,Student,,,sub-24
Desktop or Laptop,Mac OS 10.15.7,Chrome 137.0.0.0,1680x1050,1470x838,Temporal Distance Task,cb_03,45.0,temp_dist_trial,dist_items,qkpkxw,2.0,info,,6.5,0.0,6.5,6.5,0.0,6.5,1.0,0.0,0.0,,Slider,Slider,4.0,object-56,temp_dist_trial,45.0,s_sh_24_1,student_shared,desk organizer,3.0,competing,paired,s_sh_24_1.jpg,Student,,,sub-24
Desktop or Laptop,Mac OS 10.15.7,Chrome 137.0.0.0,1680x1050,1470x838,Temporal Distance Task,cb_03,45.0,temp_dist_trial,dist_items,qkpkxw,2.0,continue,,1714.5999999046326,1699.8999999999942,1714.5999999046326,1714.5999999046326,1699.8999999999942,1714.5999999046326,1.0,0.0,0.0,,Click To Continue,Next button,7.0,object-60,temp_dist_trial,45.0,s_sh_24_1,student_shared,desk organizer,3.0,competing,paired,s_sh_24_1.jpg,Student,,,sub-24
Desktop or Laptop,Mac OS 10.15.7,Chrome 137.0.0.0,1680x1050,1470x838,Temporal Distance Task,cb_03,45.0,temp_dist_trial,dist_items,qkpkxw,2.0,response,53,599.8999999999943,1699.8999999999942,1715.0999999046326,599.8999999999943,1699.8999999999942,1715.0999999046326,1.0,1115.1999999046384,0.0,,Slider,Slider,4.0,object-56,temp_dist_trial,45.0,s_sh_24_1,student_shared,desk organizer,3.0,competing,paired,s_sh_24_1.jpg,Student,,,sub-24
Desktop or Laptop,Mac OS 10.15.7,Chrome 137.0.0.0,1680x1050,1470x838,Temporal Distance Task,cb_03,46.0,temp_dist_trial,num_items,zn7si1,1.0,response,1_ITEM,1264.999999618536,1250.1000000000058,1264.999999618536,1264.999999618536,1250.1000000000058,1264.999999618536,1.0,0.0,0.0,,Click Response,1_count,3.0,object-46,temp_dist_trial,46.0,s_sh_07_1,student_shared,ruler,3.0,competing,single,s_sh_07_1.jpg,Student,,,sub-24
Desktop or Laptop,Mac OS 10.15.7,Chrome 137.0.0.0,1680x1050,1470x838,Temporal Distance Task,cb_03,47.0,temp_dist_trial,num_items,zn7si1,1.0,response,2_ITEM,1298.1999999046386,1283.3999999999942,1298.1999999046386,1298.1999999046386,1283.3999999999942,1298.1999999046386,1.0,0.0,0.0,,Click Response,2_count,5.0,object-49,temp_dist_trial,47.0,s_sh_17_1,student_shared,wireless mouse,3.0,competing,paired,s_sh_17_1.jpg,Student,,,sub-24
Desktop or Laptop,Mac OS 10.15.7,Chrome 137.0.0.0,1680x1050,1470x838,Temporal Distance Task,cb_03,47.0,temp_dist_trial,dist_items,qkpkxw,2.0,info,,7.799999904644212,0.0,7.799999904644212,7.799999904644212,0.0,7.799999904644212,1.0,0.0,0.0,,Slider,Slider,4.0,object-56,temp_dist_trial,47.0,s_sh_17_1,student_shared,wireless mouse,3.0,competing,paired,s_sh_17_1.jpg,Student,,,sub-24
Desktop or Laptop,Mac OS 10.15.7,Chrome 137.0.0.0,1680x1050,1470x838,Temporal Distance Task,cb_03,47.0,temp_dist_trial,dist_items,qkpkxw,2.0,continue,,1914.599999618542,1900.0,1914.599999618542,1914.599999618542,1900.0,1914.599999618542,1.0,0.0,0.0,,Click To Continue,Next button,7.0,object-60,temp_dist_trial,47.0,s_sh_17_1,student_shared,wireless mouse,3.0,competing,paired,s_sh_17_1.jpg,Student,,,sub-24
Desktop or Laptop,Mac OS 10.15.7,Chrome 137.0.0.0,1680x1050,1470x838,Temporal Distance Task,cb_03,47.0,temp_dist_trial,dist_items,qkpkxw,2.0,response,73,699.9000000000232,1900.0,1915.2000000000119,699.9000000000232,1900.0,1915.2000000000119,1.0,1215.2999999999886,0.0,,Slider,Slider,4.0,object-56,temp_dist_trial,47.0,s_sh_17_1,student_shared,wireless mouse,3.0,competing,paired,s_sh_17_1.jpg,Student,,,sub-24
Desktop or Laptop,Mac OS 10.15.7,Chrome 137.0.0.0,1680x1050,1470x838,Temporal Distance Task,cb_03,48.0,temp_dist_trial,num_items,zn7si1,1.0,response,1_ITEM,1513.9999997139093,1500.0,1513.9999997139093,1513.9999997139093,1500.0,1513.9999997139093,1.0,0.0,0.0,,Click Response,1_count,3.0,object-46,temp_dist_trial,48.0,s_sh_05_1,student_shared,laptop,3.0,competing,single,s_sh_05_1.jpg,Student,,,sub-24
Desktop or Laptop,Mac OS 10.15.7,Chrome 137.0.0.0,1680x1050,1470x838,Temporal Distance Task,cb_03,2.0,temp_eventStart,Screen 1,dgtyxe,1.0,continue,,2081.399999809277,2066.6000000000063,2081.399999809277,2081.399999809277,2066.6000000000063,2081.399999809277,1.0,0.0,0.0,,Click To Continue,Next Button,3.0,object-43,temp_eventStart,,,Travel,,,,,,,,,sub-24
Desktop or Laptop,Mac OS 10.15.7,Chrome 137.0.0.0,1680x1050,1470x838,Temporal Distance Task,cb_03,49.0,temp_dist_trial,num_items,zn7si1,1.0,response,2_ITEM,1314.8999997139035,1300.1000000000058,1314.8999997139035,1314.8999997139035,1300.1000000000058,1314.8999997139035,1.0,0.0,0.0,,Click Response,2_count,5.0,object-49,temp_dist_trial,1.0,t_s_14_1,travel_shared,hand sanitizer,3.0,competing,paired,t_s_14_1.jpg,Travel,,,sub-24
Desktop or Laptop,Mac OS 10.15.7,Chrome 137.0.0.0,1680x1050,1470x838,Temporal Distance Task,cb_03,49.0,temp_dist_trial,dist_items,qkpkxw,2.0,info,,6.100000000005821,0.0,6.100000000005821,6.100000000005821,0.0,6.100000000005821,1.0,0.0,0.0,,Slider,Slider,4.0,object-56,temp_dist_trial,1.0,t_s_14_1,travel_shared,hand sanitizer,3.0,competing,paired,t_s_14_1.jpg,Travel,,,sub-24
Desktop or Laptop,Mac OS 10.15.7,Chrome 137.0.0.0,1680x1050,1470x838,Temporal Distance Task,cb_03,49.0,temp_dist_trial,dist_items,qkpkxw,2.0,continue,,1647.999999618536,1633.3999999999942,1647.999999618536,1647.999999618536,1633.3999999999942,1647.999999618536,1.0,0.0,0.0,,Click To Continue,Next button,7.0,object-60,temp_dist_trial,1.0,t_s_14_1,travel_shared,hand sanitizer,3.0,competing,paired,t_s_14_1.jpg,Travel,,,sub-24
Desktop or Laptop,Mac OS 10.15.7,Chrome 137.0.0.0,1680x1050,1470x838,Temporal Distance Task,cb_03,49.0,temp_dist_trial,dist_items,qkpkxw,2.0,response,40,416.7000000000117,1633.3999999999942,1648.499999618536,416.7000000000117,1633.3999999999942,1648.499999618536,1.0,1231.7999996185245,0.0,,Slider,Slider,4.0,object-56,temp_dist_trial,1.0,t_s_14_1,travel_shared,hand sanitizer,3.0,competing,paired,t_s_14_1.jpg,Travel,,,sub-24
Desktop or Laptop,Mac OS 10.15.7,Chrome 137.0.0.0,1680x1050,1470x838,Temporal Distance Task,cb_03,50.0,temp_dist_trial,num_items,zn7si1,1.0,response,2_ITEM,1279.4999997139093,1266.6000000000058,1279.4999997139093,1279.4999997139093,1266.6000000000058,1279.4999997139093,1.0,0.0,0.0,,Click Response,2_count,5.0,object-49,temp_dist_trial,2.0,t_s_01_1,travel_shared,fanny pack,3.0,competing,paired,t_s_01_1.jpg,Travel,,,sub-24
Desktop or Laptop,Mac OS 10.15.7,Chrome 137.0.0.0,1680x1050,1470x838,Temporal Distance Task,cb_03,50.0,temp_dist_trial,dist_items,qkpkxw,2.0,info,,6.899999713903526,0.0,6.899999713903526,6.899999713903526,0.0,6.899999713903526,1.0,0.0,0.0,,Slider,Slider,4.0,object-56,temp_dist_trial,2.0,t_s_01_1,travel_shared,fanny pack,3.0,competing,paired,t_s_01_1.jpg,Travel,,,sub-24
Desktop or Laptop,Mac OS 10.15.7,Chrome 137.0.0.0,1680x1050,1470x838,Temporal Distance Task,cb_03,50.0,temp_dist_trial,dist_items,qkpkxw,2.0,continue,,2047.8999997139035,2032.8999999999944,2047.8999997139035,2047.8999997139035,2032.8999999999944,2047.8999997139035,1.0,0.0,0.0,,Click To Continue,Next button,7.0,object-60,temp_dist_trial,2.0,t_s_01_1,travel_shared,fanny pack,3.0,competing,paired,t_s_01_1.jpg,Travel,,,sub-24
Desktop or Laptop,Mac OS 10.15.7,Chrome 137.0.0.0,1680x1050,1470x838,Temporal Distance Task,cb_03,50.0,temp_dist_trial,dist_items,qkpkxw,2.0,response,48,816.7000000000116,2032.8999999999944,2048.499999618536,816.7000000000116,2032.8999999999944,2048.499999618536,1.0,1231.7999996185245,0.0,,Slider,Slider,4.0,object-56,temp_dist_trial,2.0,t_s_01_1,travel_shared,fanny pack,3.0,competing,paired,t_s_01_1.jpg,Travel,,,sub-24
Desktop or Laptop,Mac OS 10.15.7,Chrome 137.0.0.0,1680x1050,1470x838,Temporal Distance Task,cb_03,51.0,temp_dist_trial,num_items,zn7si1,1.0,response,2_ITEM,1065.4999997139093,1050.5,1065.4999997139093,1065.4999997139093,1050.5,1065.4999997139093,1.0,0.0,0.0,,Click Response,2_count,5.0,object-49,temp_dist_trial,3.0,t_m_16_1,travel_Miami,flippers,3.0,unique,single,t_m_16_1.jpg,Travel,,,sub-24
Desktop or Laptop,Mac OS 10.15.7,Chrome 137.0.0.0,1680x1050,1470x838,Temporal Distance Task,cb_03,51.0,temp_dist_trial,dist_items,qkpkxw,2.0,info,,6.399999809276777,0.0,6.399999809276777,6.399999809276777,0.0,6.399999809276777,1.0,0.0,0.0,,Slider,Slider,4.0,object-56,temp_dist_trial,3.0,t_m_16_1,travel_Miami,flippers,3.0,unique,single,t_m_16_1.jpg,Travel,,,sub-24
Desktop or Laptop,Mac OS 10.15.7,Chrome 137.0.0.0,1680x1050,1470x838,Temporal Distance Task,cb_03,51.0,temp_dist_trial,dist_items,qkpkxw,2.0,continue,,2263.599999618542,2250.0,2263.599999618542,2263.599999618542,2250.0,2263.599999618542,1.0,0.0,0.0,,Click To Continue,Next button,7.0,object-60,temp_dist_trial,3.0,t_m_16_1,travel_Miami,flippers,3.0,unique,single,t_m_16_1.jpg,Travel,,,sub-24
Desktop or Laptop,Mac OS 10.15.7,Chrome 137.0.0.0,1680x1050,1470x838,Temporal Distance Task,cb_03,51.0,temp_dist_trial,dist_items,qkpkxw,2.0,response,69,1100.1000000000058,2250.0,2266.599999999977,1100.1000000000058,2250.0,2266.599999999977,1.0,1166.499999999971,0.0,,Slider,Slider,4.0,object-56,temp_dist_trial,3.0,t_m_16_1,travel_Miami,flippers,3.0,unique,single,t_m_16_1.jpg,Travel,,,sub-24
Desktop or Laptop,Mac OS 10.15.7,Chrome 137.0.0.0,1680x1050,1470x838,Temporal Distance Task,cb_03,52.0,temp_dist_trial,num_items,zn7si1,1.0,response,2_ITEM,1265.7000000000114,1250.0,1265.7000000000114,1265.7000000000114,1250.0,1265.7000000000114,1.0,0.0,0.0,,Click Response,2_count,5.0,object-49,temp_dist_trial,4.0,t_s_06_1,travel_shared,luggage,3.0,competing,paired,t_s_06_1.jpg,Travel,,,sub-24
Desktop or Laptop,Mac OS 10.15.7,Chrome 137.0.0.0,1680x1050,1470x838,Temporal Distance Task,cb_03,52.0,temp_dist_trial,dist_items,qkpkxw,2.0,info,,8.399999809276778,0.0,8.399999809276778,8.399999809276778,0.0,8.399999809276778,1.0,0.0,0.0,,Slider,Slider,4.0,object-56,temp_dist_trial,4.0,t_s_06_1,travel_shared,luggage,3.0,competing,paired,t_s_06_1.jpg,Travel,,,sub-24
Desktop or Laptop,Mac OS 10.15.7,Chrome 137.0.0.0,1680x1050,1470x838,Temporal Distance Task,cb_03,52.0,temp_dist_trial,dist_items,qkpkxw,2.0,continue,,1597.2000000000116,1583.4000000000233,1597.2000000000116,1597.2000000000116,1583.4000000000233,1597.2000000000116,1.0,0.0,0.0,,Click To Continue,Next button,7.0,object-60,temp_dist_trial,4.0,t_s_06_1,travel_shared,luggage,3.0,competing,paired,t_s_06_1.jpg,Travel,,,sub-24
Desktop or Laptop,Mac OS 10.15.7,Chrome 137.0.0.0,1680x1050,1470x838,Temporal Distance Task,cb_03,52.0,temp_dist_trial,dist_items,qkpkxw,2.0,response,80,666.7000000000116,1583.4000000000233,1597.3999998092768,666.7000000000116,1583.4000000000233,1597.3999998092768,1.0,930.6999998092653,0.0,,Slider,Slider,4.0,object-56,temp_dist_trial,4.0,t_s_06_1,travel_shared,luggage,3.0,competing,paired,t_s_06_1.jpg,Travel,,,sub-24
Desktop or Laptop,Mac OS 10.15.7,Chrome 137.0.0.0,1680x1050,1470x838,Temporal Distance Task,cb_03,53.0,temp_dist_trial,num_items,zn7si1,1.0,response,1_ITEM,1350.0,1333.2999999999886,1350.0,1350.0,1333.2999999999886,1350.0,1.0,0.0,0.0,,Click Response,1_count,3.0,object-46,temp_dist_trial,5.0,t_i_19_1,travel_Iceland,rope,3.0,unique,single,t_i_19_1.jpg,Travel,,,sub-24
Desktop or Laptop,Mac OS 10.15.7,Chrome 137.0.0.0,1680x1050,1470x838,Temporal Distance Task,cb_03,54.0,temp_dist_trial,num_items,zn7si1,1.0,response,2_ITEM,1066.3999996185305,1049.8999999999942,1066.3999996185305,1066.3999996185305,1049.8999999999942,1066.3999996185305,1.0,0.0,0.0,,Click Response,2_count,5.0,object-49,temp_dist_trial,6.0,t_s_19_1,travel_shared,pajamas,3.0,competing,paired,t_s_19_1.jpg,Travel,,,sub-24
Desktop or Laptop,Mac OS 10.15.7,Chrome 137.0.0.0,1680x1050,1470x838,Temporal Distance Task,cb_03,54.0,temp_dist_trial,dist_items,qkpkxw,2.0,info,,6.999999618536093,0.0,6.999999618536093,6.999999618536093,0.0,6.999999618536093,1.0,0.0,0.0,,Slider,Slider,4.0,object-56,temp_dist_trial,6.0,t_s_19_1,travel_shared,pajamas,3.0,competing,paired,t_s_19_1.jpg,Travel,,,sub-24
Desktop or Laptop,Mac OS 10.15.7,Chrome 137.0.0.0,1680x1050,1470x838,Temporal Distance Task,cb_03,54.0,temp_dist_trial,dist_items,qkpkxw,2.0,continue,,2647.6000000000063,2633.3999999999937,2647.6000000000063,2647.6000000000063,2633.3999999999937,2647.6000000000063,1.0,0.0,0.0,,Click To Continue,Next button,7.0,object-60,temp_dist_trial,6.0,t_s_19_1,travel_shared,pajamas,3.0,competing,paired,t_s_19_1.jpg,Travel,,,sub-24
Desktop or Laptop,Mac OS 10.15.7,Chrome 137.0.0.0,1680x1050,1470x838,Temporal Distance Task,cb_03,54.0,temp_dist_trial,dist_items,qkpkxw,2.0,response,71,1650.1000000000058,2633.3999999999937,2648.299999809271,1650.1000000000058,2633.3999999999937,2648.299999809271,1.0,998.1999998092653,0.0,,Slider,Slider,4.0,object-56,temp_dist_trial,6.0,t_s_19_1,travel_shared,pajamas,3.0,competing,paired,t_s_19_1.jpg,Travel,,,sub-24
Desktop or Laptop,Mac OS 10.15.7,Chrome 137.0.0.0,1680x1050,1470x838,Temporal Distance Task,cb_03,55.0,temp_dist_trial,num_items,zn7si1,1.0,response,1_ITEM,1430.9999997139093,1416.7000000000116,1430.9999997139093,1430.9999997139093,1416.7000000000116,1430.9999997139093,1.0,0.0,0.0,,Click Response,1_count,3.0,object-46,temp_dist_trial,7.0,t_s_17_1,travel_shared,toothbrush,3.0,competing,single,t_s_17_1.jpg,Travel,,,sub-24
Desktop or Laptop,Mac OS 10.15.7,Chrome 137.0.0.0,1680x1050,1470x838,Temporal Distance Task,cb_03,56.0,temp_dist_trial,num_items,zn7si1,1.0,response,1_ITEM,1431.1000000000058,1416.8000000000175,1431.1000000000058,1431.1000000000058,1416.8000000000175,1431.1000000000058,1.0,0.0,0.0,,Click Response,1_count,3.0,object-46,temp_dist_trial,8.0,t_s_11_1,travel_shared,eye mask,3.0,competing,single,t_s_11_1.jpg,Travel,,,sub-24
Desktop or Laptop,Mac OS 10.15.7,Chrome 137.0.0.0,1680x1050,1470x838,Temporal Distance Task,cb_03,57.0,temp_dist_trial,num_items,zn7si1,1.0,response,2_ITEM,2332.2999999999884,2317.599999999977,2332.2999999999884,2332.2999999999884,2317.599999999977,2332.2999999999884,1.0,0.0,0.0,,Click Response,2_count,5.0,object-49,temp_dist_trial,9.0,t_s_23_1,travel_shared,ball cap,3.0,competing,paired,t_s_23_1.jpg,Travel,,,sub-24
Desktop or Laptop,Mac OS 10.15.7,Chrome 137.0.0.0,1680x1050,1470x838,Temporal Distance Task,cb_03,57.0,temp_dist_trial,dist_items,qkpkxw,2.0,info,,6.599999618541917,0.0,6.599999618541917,6.599999618541917,0.0,6.599999618541917,1.0,0.0,0.0,,Slider,Slider,4.0,object-56,temp_dist_trial,9.0,t_s_23_1,travel_shared,ball cap,3.0,competing,paired,t_s_23_1.jpg,Travel,,,sub-24
Desktop or Laptop,Mac OS 10.15.7,Chrome 137.0.0.0,1680x1050,1470x838,Temporal Distance Task,cb_03,57.0,temp_dist_trial,dist_items,qkpkxw,2.0,continue,,1930.3999998092768,1916.7000000000119,1930.3999998092768,1930.3999998092768,1916.7000000000119,1930.3999998092768,1.0,0.0,0.0,,Click To Continue,Next button,7.0,object-60,temp_dist_trial,9.0,t_s_23_1,travel_shared,ball cap,3.0,competing,paired,t_s_23_1.jpg,Travel,,,sub-24
Desktop or Laptop,Mac OS 10.15.7,Chrome 137.0.0.0,1680x1050,1470x838,Temporal Distance Task,cb_03,57.0,temp_dist_trial,dist_items,qkpkxw,2.0,response,65,750.1000000000058,1916.7000000000119,1930.7000000000119,750.1000000000058,1916.7000000000119,1930.7000000000119,1.0,1180.6000000000058,0.0,,Slider,Slider,4.0,object-56,temp_dist_trial,9.0,t_s_23_1,travel_shared,ball cap,3.0,competing,paired,t_s_23_1.jpg,Travel,,,sub-24
Desktop or Laptop,Mac OS 10.15.7,Chrome 137.0.0.0,1680x1050,1470x838,Temporal Distance Task,cb_03,58.0,temp_dist_trial,num_items,zn7si1,1.0,response,1_ITEM,2196.699999809265,2183.3999999999937,2196.699999809265,2196.699999809265,2183.3999999999937,2196.699999809265,1.0,0.0,0.0,,Click Response,1_count,3.0,object-46,temp_dist_trial,10.0,t_s_13_1,travel_shared,contact lens case,3.0,competing,paired,t_s_13_1.jpg,Travel,,,sub-24
Desktop or Laptop,Mac OS 10.15.7,Chrome 137.0.0.0,1680x1050,1470x838,Temporal Distance Task,cb_03,59.0,temp_dist_trial,num_items,zn7si1,1.0,response,2_ITEM,1048.7000000000116,1033.3000000000177,1048.7000000000116,1048.7000000000116,1033.3000000000177,1048.7000000000116,1.0,0.0,0.0,,Click Response,2_count,5.0,object-49,temp_dist_trial,11.0,t_m_04_1,travel_Miami,UV jacket,3.0,unique,paired,t_m_04_1.jpg,Travel,,,sub-24
Desktop or Laptop,Mac OS 10.15.7,Chrome 137.0.0.0,1680x1050,1470x838,Temporal Distance Task,cb_03,59.0,temp_dist_trial,dist_items,qkpkxw,2.0,info,,5.599999713886063,0.0,5.599999713886063,5.599999713886063,0.0,5.599999713886063,1.0,0.0,0.0,,Slider,Slider,4.0,object-56,temp_dist_trial,11.0,t_m_04_1,travel_Miami,UV jacket,3.0,unique,paired,t_m_04_1.jpg,Travel,,,sub-24
Desktop or Laptop,Mac OS 10.15.7,Chrome 137.0.0.0,1680x1050,1470x838,Temporal Distance Task,cb_03,59.0,temp_dist_trial,dist_items,qkpkxw,2.0,continue,,2181.399999904621,2166.5999999999767,2181.399999904621,2181.399999904621,2166.5999999999767,2181.399999904621,1.0,0.0,0.0,,Click To Continue,Next button,7.0,object-60,temp_dist_trial,11.0,t_m_04_1,travel_Miami,UV jacket,3.0,unique,paired,t_m_04_1.jpg,Travel,,,sub-24
Desktop or Laptop,Mac OS 10.15.7,Chrome 137.0.0.0,1680x1050,1470x838,Temporal Distance Task,cb_03,59.0,temp_dist_trial,dist_items,qkpkxw,2.0,response,33,732.7999999999884,2166.5999999999767,2181.7999999999884,732.7999999999884,2166.5999999999767,2181.7999999999884,1.0,1449.0,0.0,,Slider,Slider,4.0,object-56,temp_dist_trial,11.0,t_m_04_1,travel_Miami,UV jacket,3.0,unique,paired,t_m_04_1.jpg,Travel,,,sub-24
Desktop or Laptop,Mac OS 10.15.7,Chrome 137.0.0.0,1680x1050,1470x838,Temporal Distance Task,cb_03,60.0,temp_dist_trial,num_items,zn7si1,1.0,response,1_ITEM,2064.399999809277,2050.0,2064.399999809277,2064.399999809277,2050.0,2064.399999809277,1.0,0.0,0.0,,Click Response,1_count,3.0,object-46,temp_dist_trial,12.0,t_s_08_1,travel_shared,hand lotion,3.0,competing,single,t_s_08_1.jpg,Travel,,,sub-24
Desktop or Laptop,Mac OS 10.15.7,Chrome 137.0.0.0,1680x1050,1470x838,Temporal Distance Task,cb_03,61.0,temp_dist_trial,num_items,zn7si1,1.0,response,2_ITEM,1746.7999999999884,1733.5,1746.7999999999884,1746.7999999999884,1733.5,1746.7999999999884,1.0,0.0,0.0,,Click Response,2_count,5.0,object-49,temp_dist_trial,13.0,t_m_15_1,travel_Miami,shorts,3.0,unique,single,t_m_15_1.jpg,Travel,,,sub-24
Desktop or Laptop,Mac OS 10.15.7,Chrome 137.0.0.0,1680x1050,1470x838,Temporal Distance Task,cb_03,61.0,temp_dist_trial,dist_items,qkpkxw,2.0,info,,7.599999713886062,0.0,7.599999713886062,7.599999713886062,0.0,7.599999713886062,1.0,0.0,0.0,,Slider,Slider,4.0,object-56,temp_dist_trial,13.0,t_m_15_1,travel_Miami,shorts,3.0,unique,single,t_m_15_1.jpg,Travel,,,sub-24
Desktop or Laptop,Mac OS 10.15.7,Chrome 137.0.0.0,1680x1050,1470x838,Temporal Distance Task,cb_03,61.0,temp_dist_trial,dist_items,qkpkxw,2.0,continue,,2898.499999809253,2883.3999999999933,2898.499999809253,2898.499999809253,2883.3999999999933,2898.499999809253,1.0,0.0,0.0,,Click To Continue,Next button,7.0,object-60,temp_dist_trial,13.0,t_m_15_1,travel_Miami,shorts,3.0,unique,single,t_m_15_1.jpg,Travel,,,sub-24
Desktop or Laptop,Mac OS 10.15.7,Chrome 137.0.0.0,1680x1050,1470x838,Temporal Distance Task,cb_03,61.0,temp_dist_trial,dist_items,qkpkxw,2.0,response,68,2049.5,2883.3999999999933,2899.1999996185186,2049.5,2883.3999999999933,2899.1999996185186,1.0,849.6999996185186,0.0,,Slider,Slider,4.0,object-56,temp_dist_trial,13.0,t_m_15_1,travel_Miami,shorts,3.0,unique,single,t_m_15_1.jpg,Travel,,,sub-24
Desktop or Laptop,Mac OS 10.15.7,Chrome 137.0.0.0,1680x1050,1470x838,Temporal Distance Task,cb_03,62.0,temp_dist_trial,num_items,zn7si1,1.0,response,1_ITEM,1148.099999809259,1133.2999999999886,1148.099999809259,1148.099999809259,1133.2999999999886,1148.099999809259,1.0,0.0,0.0,,Click Response,1_count,3.0,object-46,temp_dist_trial,14.0,t_s_22_1,travel_shared,belt,3.0,competing,single,t_s_22_1.jpg,Travel,,,sub-24
Desktop or Laptop,Mac OS 10.15.7,Chrome 137.0.0.0,1680x1050,1470x838,Temporal Distance Task,cb_03,63.0,temp_dist_trial,num_items,zn7si1,1.0,response,2_ITEM,1797.1000000000058,1782.8999999999942,1797.1000000000058,1797.1000000000058,1782.8999999999942,1797.1000000000058,1.0,0.0,0.0,,Click Response,2_count,5.0,object-49,temp_dist_trial,15.0,t_m_01_1,travel_Miami,sandals,3.0,unique,paired,t_m_01_1.jpg,Travel,,,sub-24
Desktop or Laptop,Mac OS 10.15.7,Chrome 137.0.0.0,1680x1050,1470x838,Temporal Distance Task,cb_03,63.0,temp_dist_trial,dist_items,qkpkxw,2.0,info,,7.399999618530272,0.0,7.399999618530272,7.399999618530272,0.0,7.399999618530272,1.0,0.0,0.0,,Slider,Slider,4.0,object-56,temp_dist_trial,15.0,t_m_01_1,travel_Miami,sandals,3.0,unique,paired,t_m_01_1.jpg,Travel,,,sub-24
Desktop or Laptop,Mac OS 10.15.7,Chrome 137.0.0.0,1680x1050,1470x838,Temporal Distance Task,cb_03,63.0,temp_dist_trial,dist_items,qkpkxw,2.0,continue,,1831.5,1817.3999999999944,1831.5,1831.5,1817.3999999999944,1831.5,1.0,0.0,0.0,,Click To Continue,Next button,7.0,object-60,temp_dist_trial,15.0,t_m_01_1,travel_Miami,sandals,3.0,unique,paired,t_m_01_1.jpg,Travel,,,sub-24
Desktop or Laptop,Mac OS 10.15.7,Chrome 137.0.0.0,1680x1050,1470x838,Temporal Distance Task,cb_03,63.0,temp_dist_trial,dist_items,qkpkxw,2.0,response,76,783.7000000000116,1817.3999999999944,1832.1999998092651,783.7000000000116,1817.3999999999944,1832.1999998092651,1.0,1048.4999998092537,0.0,,Slider,Slider,4.0,object-56,temp_dist_trial,15.0,t_m_01_1,travel_Miami,sandals,3.0,unique,paired,t_m_01_1.jpg,Travel,,,sub-24
Desktop or Laptop,Mac OS 10.15.7,Chrome 137.0.0.0,1680x1050,1470x838,Temporal Distance Task,cb_03,64.0,temp_dist_trial,num_items,zn7si1,1.0,response,2_ITEM,1379.6000000000058,1366.6000000000058,1379.6000000000058,1379.6000000000058,1366.6000000000058,1379.6000000000058,1.0,0.0,0.0,,Click Response,2_count,5.0,object-49,temp_dist_trial,16.0,t_s_15_1,travel_shared,luggage tag,3.0,competing,paired,t_s_15_1.jpg,Travel,,,sub-24
Desktop or Laptop,Mac OS 10.15.7,Chrome 137.0.0.0,1680x1050,1470x838,Temporal Distance Task,cb_03,64.0,temp_dist_trial,dist_items,qkpkxw,2.0,info,,6.5,0.0,6.5,6.5,0.0,6.5,1.0,0.0,0.0,,Slider,Slider,4.0,object-56,temp_dist_trial,16.0,t_s_15_1,travel_shared,luggage tag,3.0,competing,paired,t_s_15_1.jpg,Travel,,,sub-24
Desktop or Laptop,Mac OS 10.15.7,Chrome 137.0.0.0,1680x1050,1470x838,Temporal Distance Task,cb_03,64.0,temp_dist_trial,dist_items,qkpkxw,2.0,continue,,4298.5999999046335,4283.399999999994,4298.5999999046335,4298.5999999046335,4283.399999999994,4298.5999999046335,1.0,0.0,0.0,,Click To Continue,Next button,7.0,object-60,temp_dist_trial,16.0,t_s_15_1,travel_shared,luggage tag,3.0,competing,paired,t_s_15_1.jpg,Travel,,,sub-24
Desktop or Laptop,Mac OS 10.15.7,Chrome 137.0.0.0,1680x1050,1470x838,Temporal Distance Task,cb_03,64.0,temp_dist_trial,dist_items,qkpkxw,2.0,response,76,683.2999999999884,4283.399999999994,4299.199999809265,683.2999999999884,4283.399999999994,4299.199999809265,1.0,3615.899999809277,0.0,,Slider,Slider,4.0,object-56,temp_dist_trial,16.0,t_s_15_1,travel_shared,luggage tag,3.0,competing,paired,t_s_15_1.jpg,Travel,,,sub-24
Desktop or Laptop,Mac OS 10.15.7,Chrome 137.0.0.0,1680x1050,1470x838,Temporal Distance Task,cb_03,65.0,temp_dist_trial,num_items,zn7si1,1.0,response,1_ITEM,1196.299999809271,1183.3000000000175,1196.299999809271,1196.299999809271,1183.3000000000175,1196.299999809271,1.0,0.0,0.0,,Click Response,1_count,3.0,object-46,temp_dist_trial,17.0,t_s_20_1,travel_shared,travel pill case,3.0,competing,single,t_s_20_1.jpg,Travel,,,sub-24
Desktop or Laptop,Mac OS 10.15.7,Chrome 137.0.0.0,1680x1050,1470x838,Temporal Distance Task,cb_03,66.0,temp_dist_trial,num_items,zn7si1,1.0,response,1_ITEM,1047.599999713886,1033.2999999999884,1047.599999713886,1047.599999713886,1033.2999999999884,1047.599999713886,1.0,0.0,0.0,,Click Response,1_count,3.0,object-46,temp_dist_trial,18.0,t_i_15_1,travel_Iceland,compass,3.0,unique,paired,t_i_15_1.jpg,Travel,,,sub-24
Desktop or Laptop,Mac OS 10.15.7,Chrome 137.0.0.0,1680x1050,1470x838,Temporal Distance Task,cb_03,67.0,temp_dist_trial,num_items,zn7si1,1.0,response,2_ITEM,1381.5999999046326,1366.7000000000114,1381.5999999046326,1381.5999999046326,1366.7000000000114,1381.5999999046326,1.0,0.0,0.0,,Click Response,2_count,5.0,object-49,temp_dist_trial,19.0,t_m_10_1,travel_Miami,tanktop,3.0,unique,paired,t_m_10_1.jpg,Travel,,,sub-24
Desktop or Laptop,Mac OS 10.15.7,Chrome 137.0.0.0,1680x1050,1470x838,Temporal Distance Task,cb_03,67.0,temp_dist_trial,dist_items,qkpkxw,2.0,info,,7.599999713886062,0.0,7.599999713886062,7.599999713886062,0.0,7.599999713886062,1.0,0.0,0.0,,Slider,Slider,4.0,object-56,temp_dist_trial,19.0,t_m_10_1,travel_Miami,tanktop,3.0,unique,paired,t_m_10_1.jpg,Travel,,,sub-24
Desktop or Laptop,Mac OS 10.15.7,Chrome 137.0.0.0,1680x1050,1470x838,Temporal Distance Task,cb_03,67.0,temp_dist_trial,dist_items,qkpkxw,2.0,continue,,2498.599999713886,2483.099999999977,2498.599999713886,2498.599999713886,2483.099999999977,2498.599999713886,1.0,0.0,0.0,,Click To Continue,Next button,7.0,object-60,temp_dist_trial,19.0,t_m_10_1,travel_Miami,tanktop,3.0,unique,paired,t_m_10_1.jpg,Travel,,,sub-24
Desktop or Laptop,Mac OS 10.15.7,Chrome 137.0.0.0,1680x1050,1470x838,Temporal Distance Task,cb_03,67.0,temp_dist_trial,dist_items,qkpkxw,2.0,response,36,616.6999999999825,2483.099999999977,2499.099999713886,616.6999999999825,2483.099999999977,2499.099999713886,1.0,1882.3999997139035,0.0,,Slider,Slider,4.0,object-56,temp_dist_trial,19.0,t_m_10_1,travel_Miami,tanktop,3.0,unique,paired,t_m_10_1.jpg,Travel,,,sub-24
Desktop or Laptop,Mac OS 10.15.7,Chrome 137.0.0.0,1680x1050,1470x838,Temporal Distance Task,cb_03,68.0,temp_dist_trial,num_items,zn7si1,1.0,response,2_ITEM,1147.7000000000114,1133.5,1147.7000000000114,1147.7000000000114,1133.5,1147.7000000000114,1.0,0.0,0.0,,Click Response,2_count,5.0,object-49,temp_dist_trial,20.0,t_m_17_1,travel_Miami,water gun,3.0,unique,paired,t_m_17_1.jpg,Travel,,,sub-24
Desktop or Laptop,Mac OS 10.15.7,Chrome 137.0.0.0,1680x1050,1470x838,Temporal Distance Task,cb_03,68.0,temp_dist_trial,dist_items,qkpkxw,2.0,info,,6.7999998092709575,0.0,6.7999998092709575,6.7999998092709575,0.0,6.7999998092709575,1.0,0.0,0.0,,Slider,Slider,4.0,object-56,temp_dist_trial,20.0,t_m_17_1,travel_Miami,water gun,3.0,unique,paired,t_m_17_1.jpg,Travel,,,sub-24
Desktop or Laptop,Mac OS 10.15.7,Chrome 137.0.0.0,1680x1050,1470x838,Temporal Distance Task,cb_03,68.0,temp_dist_trial,dist_items,qkpkxw,2.0,continue,,1946.6000000000056,1933.3000000000175,1946.6000000000056,1946.6000000000056,1933.3000000000175,1946.6000000000056,1.0,0.0,0.0,,Click To Continue,Next button,7.0,object-60,temp_dist_trial,20.0,t_m_17_1,travel_Miami,water gun,3.0,unique,paired,t_m_17_1.jpg,Travel,,,sub-24
Desktop or Laptop,Mac OS 10.15.7,Chrome 137.0.0.0,1680x1050,1470x838,Temporal Distance Task,cb_03,68.0,temp_dist_trial,dist_items,qkpkxw,2.0,response,68,983.3000000000177,1933.3000000000175,1949.1999999046384,983.3000000000177,1933.3000000000175,1949.1999999046384,1.0,965.8999999046208,0.0,,Slider,Slider,4.0,object-56,temp_dist_trial,20.0,t_m_17_1,travel_Miami,water gun,3.0,unique,paired,t_m_17_1.jpg,Travel,,,sub-24
Desktop or Laptop,Mac OS 10.15.7,Chrome 137.0.0.0,1680x1050,1470x838,Temporal Distance Task,cb_03,69.0,temp_dist_trial,num_items,zn7si1,1.0,response,2_ITEM,1164.4999998092535,1150.0,1164.4999998092535,1164.4999998092535,1150.0,1164.4999998092535,1.0,0.0,0.0,,Click Response,2_count,5.0,object-49,temp_dist_trial,21.0,t_s_16_1,travel_shared,chapstick,3.0,competing,paired,t_s_16_1.jpg,Travel,,,sub-24
Desktop or Laptop,Mac OS 10.15.7,Chrome 137.0.0.0,1680x1050,1470x838,Temporal Distance Task,cb_03,69.0,temp_dist_trial,dist_items,qkpkxw,2.0,info,,6.999999809253493,0.0,6.999999809253493,6.999999809253493,0.0,6.999999809253493,1.0,0.0,0.0,,Slider,Slider,4.0,object-56,temp_dist_trial,21.0,t_s_16_1,travel_shared,chapstick,3.0,competing,paired,t_s_16_1.jpg,Travel,,,sub-24
Desktop or Laptop,Mac OS 10.15.7,Chrome 137.0.0.0,1680x1050,1470x838,Temporal Distance Task,cb_03,69.0,temp_dist_trial,dist_items,qkpkxw,2.0,continue,,2149.2999999999884,2133.7999999999884,2149.2999999999884,2149.2999999999884,2133.7999999999884,2149.2999999999884,1.0,0.0,0.0,,Click To Continue,Next button,7.0,object-60,temp_dist_trial,21.0,t_s_16_1,travel_shared,chapstick,3.0,competing,paired,t_s_16_1.jpg,Travel,,,sub-24
Desktop or Laptop,Mac OS 10.15.7,Chrome 137.0.0.0,1680x1050,1470x838,Temporal Distance Task,cb_03,69.0,temp_dist_trial,dist_items,qkpkxw,2.0,response,68,900.5,2133.7999999999884,2149.7999999999884,900.5,2133.7999999999884,2149.7999999999884,1.0,1249.2999999999886,0.0,,Slider,Slider,4.0,object-56,temp_dist_trial,21.0,t_s_16_1,travel_shared,chapstick,3.0,competing,paired,t_s_16_1.jpg,Travel,,,sub-24
Desktop or Laptop,Mac OS 10.15.7,Chrome 137.0.0.0,1680x1050,1470x838,Temporal Distance Task,cb_03,70.0,temp_dist_trial,num_items,zn7si1,1.0,response,1_ITEM,1149.1999998092654,1133.4000000000233,1149.1999998092654,1149.1999998092654,1133.4000000000233,1149.1999998092654,1.0,0.0,0.0,,Click Response,1_count,3.0,object-46,temp_dist_trial,22.0,t_i_09_1,travel_Iceland,ear muffs,3.0,unique,paired,t_i_09_1.jpg,Travel,,,sub-24
Desktop or Laptop,Mac OS 10.15.7,Chrome 137.0.0.0,1680x1050,1470x838,Temporal Distance Task,cb_03,71.0,temp_dist_trial,num_items,zn7si1,1.0,response,2_ITEM,1448.6999999046093,1433.3999999999646,1448.6999999046093,1448.6999999046093,1433.3999999999646,1448.6999999046093,1.0,0.0,0.0,,Click Response,2_count,5.0,object-49,temp_dist_trial,23.0,t_s_24_1,travel_shared,ear plugs,3.0,competing,paired,t_s_24_1.jpg,Travel,,,sub-24
Desktop or Laptop,Mac OS 10.15.7,Chrome 137.0.0.0,1680x1050,1470x838,Temporal Distance Task,cb_03,71.0,temp_dist_trial,dist_items,qkpkxw,2.0,info,,6.199999618518633,0.0,6.199999618518633,6.199999618518633,0.0,6.199999618518633,1.0,0.0,0.0,,Slider,Slider,4.0,object-56,temp_dist_trial,23.0,t_s_24_1,travel_shared,ear plugs,3.0,competing,paired,t_s_24_1.jpg,Travel,,,sub-24
Desktop or Laptop,Mac OS 10.15.7,Chrome 137.0.0.0,1680x1050,1470x838,Temporal Distance Task,cb_03,71.0,temp_dist_trial,dist_items,qkpkxw,2.0,continue,,2715.2999999999884,2700.0,2715.2999999999884,2715.2999999999884,2700.0,2715.2999999999884,1.0,0.0,0.0,,Click To Continue,Next button,7.0,object-60,temp_dist_trial,23.0,t_s_24_1,travel_shared,ear plugs,3.0,competing,paired,t_s_24_1.jpg,Travel,,,sub-24
Desktop or Laptop,Mac OS 10.15.7,Chrome 137.0.0.0,1680x1050,1470x838,Temporal Distance Task,cb_03,71.0,temp_dist_trial,dist_items,qkpkxw,2.0,response,35,1766.5999999999767,2700.0,2716.099999713886,1766.5999999999767,2700.0,2716.099999713886,1.0,949.4999997139093,0.0,,Slider,Slider,4.0,object-56,temp_dist_trial,23.0,t_s_24_1,travel_shared,ear plugs,3.0,competing,paired,t_s_24_1.jpg,Travel,,,sub-24
Desktop or Laptop,Mac OS 10.15.7,Chrome 137.0.0.0,1680x1050,1470x838,Temporal Distance Task,cb_03,72.0,temp_dist_trial,num_items,zn7si1,1.0,response,1_ITEM,1699.099999713886,1683.2999999999884,1699.099999713886,1699.099999713886,1683.2999999999884,1699.099999713886,1.0,0.0,0.0,,Click Response,1_count,3.0,object-46,temp_dist_trial,24.0,t_s_03_1,travel_shared,portable charger,3.0,competing,paired,t_s_03_1.jpg,Travel,,,sub-24
Desktop or Laptop,Mac OS 10.15.7,Chrome 137.0.0.0,1680x1050,1470x838,Temporal Distance Task,cb_03,73.0,temp_dist_trial,num_items,zn7si1,1.0,response,1_ITEM,1666.2999996185536,1650.0,1666.2999996185536,1666.2999996185536,1650.0,1666.2999996185536,1.0,0.0,0.0,,Click Response,1_count,3.0,object-46,temp_dist_trial,25.0,t_s_07_1,travel_shared,phone charger cable,3.0,competing,single,t_s_07_1.jpg,Travel,,,sub-24
Desktop or Laptop,Mac OS 10.15.7,Chrome 137.0.0.0,1680x1050,1470x838,Temporal Distance Task,cb_03,74.0,temp_dist_trial,num_items,zn7si1,1.0,response,2_ITEM,1098.0,1083.2000000000116,1098.0,1098.0,1083.2000000000116,1098.0,1.0,0.0,0.0,,Click Response,2_count,5.0,object-49,temp_dist_trial,26.0,t_i_13_1,travel_Iceland,sleeping bag,3.0,unique,paired,t_i_13_1.jpg,Travel,,,sub-24
Desktop or Laptop,Mac OS 10.15.7,Chrome 137.0.0.0,1680x1050,1470x838,Temporal Distance Task,cb_03,74.0,temp_dist_trial,dist_items,qkpkxw,2.0,info,,6.299999809241854,0.0,6.299999809241854,6.299999809241854,0.0,6.299999809241854,1.0,0.0,0.0,,Slider,Slider,4.0,object-56,temp_dist_trial,26.0,t_i_13_1,travel_Iceland,sleeping bag,3.0,unique,paired,t_i_13_1.jpg,Travel,,,sub-24
Desktop or Laptop,Mac OS 10.15.7,Chrome 137.0.0.0,1680x1050,1470x838,Temporal Distance Task,cb_03,74.0,temp_dist_trial,dist_items,qkpkxw,2.0,continue,,2131.799999809242,2116.5999999999767,2131.799999809242,2131.799999809242,2116.5999999999767,2131.799999809242,1.0,0.0,0.0,,Click To Continue,Next button,7.0,object-60,temp_dist_trial,26.0,t_i_13_1,travel_Iceland,sleeping bag,3.0,unique,paired,t_i_13_1.jpg,Travel,,,sub-24
Desktop or Laptop,Mac OS 10.15.7,Chrome 137.0.0.0,1680x1050,1470x838,Temporal Distance Task,cb_03,74.0,temp_dist_trial,dist_items,qkpkxw,2.0,response,61,950.0,2116.5999999999767,2132.3999997138744,950.0,2116.5999999999767,2132.3999997138744,1.0,1182.3999997138744,0.0,,Slider,Slider,4.0,object-56,temp_dist_trial,26.0,t_i_13_1,travel_Iceland,sleeping bag,3.0,unique,paired,t_i_13_1.jpg,Travel,,,sub-24
Desktop or Laptop,Mac OS 10.15.7,Chrome 137.0.0.0,1680x1050,1470x838,Temporal Distance Task,cb_03,75.0,temp_dist_trial,num_items,zn7si1,1.0,response,2_ITEM,1214.0999999046326,1200.0999999999767,1214.0999999046326,1214.0999999046326,1200.0999999999767,1214.0999999046326,1.0,0.0,0.0,,Click Response,2_count,5.0,object-49,temp_dist_trial,27.0,t_m_14_1,travel_Miami,swim goggles,3.0,unique,paired,t_m_14_1.jpg,Travel,,,sub-24
Desktop or Laptop,Mac OS 10.15.7,Chrome 137.0.0.0,1680x1050,1470x838,Temporal Distance Task,cb_03,75.0,temp_dist_trial,dist_items,qkpkxw,2.0,info,,6.099999904632568,0.0,6.099999904632568,6.099999904632568,0.0,6.099999904632568,1.0,0.0,0.0,,Slider,Slider,4.0,object-56,temp_dist_trial,27.0,t_m_14_1,travel_Miami,swim goggles,3.0,unique,paired,t_m_14_1.jpg,Travel,,,sub-24
Desktop or Laptop,Mac OS 10.15.7,Chrome 137.0.0.0,1680x1050,1470x838,Temporal Distance Task,cb_03,75.0,temp_dist_trial,dist_items,qkpkxw,2.0,continue,,2031.5999999046328,2016.7000000000119,2031.5999999046328,2031.5999999046328,2016.7000000000119,2031.5999999046328,1.0,0.0,0.0,,Click To Continue,Next button,7.0,object-60,temp_dist_trial,27.0,t_m_14_1,travel_Miami,swim goggles,3.0,unique,paired,t_m_14_1.jpg,Travel,,,sub-24
Desktop or Laptop,Mac OS 10.15.7,Chrome 137.0.0.0,1680x1050,1470x838,Temporal Distance Task,cb_03,75.0,temp_dist_trial,dist_items,qkpkxw,2.0,response,40,715.7999999999884,2016.7000000000119,2032.1999998092651,715.7999999999884,2016.7000000000119,2032.1999998092651,1.0,1316.3999998092768,0.0,,Slider,Slider,4.0,object-56,temp_dist_trial,27.0,t_m_14_1,travel_Miami,swim goggles,3.0,unique,paired,t_m_14_1.jpg,Travel,,,sub-24
Desktop or Laptop,Mac OS 10.15.7,Chrome 137.0.0.0,1680x1050,1470x838,Temporal Distance Task,cb_03,76.0,temp_dist_trial,num_items,zn7si1,1.0,response,1_ITEM,1331.1999996185186,1316.5999999999767,1331.1999996185186,1331.1999996185186,1316.5999999999767,1331.1999996185186,1.0,0.0,0.0,,Click Response,1_count,3.0,object-46,temp_dist_trial,28.0,t_i_17_1,travel_Iceland,binoculars,3.0,unique,paired,t_i_17_1.jpg,Travel,,,sub-24
Desktop or Laptop,Mac OS 10.15.7,Chrome 137.0.0.0,1680x1050,1470x838,Temporal Distance Task,cb_03,77.0,temp_dist_trial,num_items,zn7si1,1.0,response,1_ITEM,1897.599999618542,1883.4000000000235,1897.599999618542,1897.599999618542,1883.4000000000235,1897.599999618542,1.0,0.0,0.0,,Click Response,1_count,3.0,object-46,temp_dist_trial,29.0,t_m_18_1,travel_Miami,waterproof tote,3.0,unique,single,t_m_18_1.jpg,Travel,,,sub-24
Desktop or Laptop,Mac OS 10.15.7,Chrome 137.0.0.0,1680x1050,1470x838,Temporal Distance Task,cb_03,78.0,temp_dist_trial,num_items,zn7si1,1.0,response,2_ITEM,1297.9999997139093,1283.2000000000114,1297.9999997139093,1297.9999997139093,1283.2000000000114,1297.9999997139093,1.0,0.0,0.0,,Click Response,2_count,5.0,object-49,temp_dist_trial,30.0,t_m_20_1,travel_Miami,inflatable beachball,3.0,unique,paired,t_m_20_1.jpg,Travel,,,sub-24
Desktop or Laptop,Mac OS 10.15.7,Chrome 137.0.0.0,1680x1050,1470x838,Temporal Distance Task,cb_03,78.0,temp_dist_trial,dist_items,qkpkxw,2.0,info,,6.599999904632568,0.0,6.599999904632568,6.599999904632568,0.0,6.599999904632568,1.0,0.0,0.0,,Slider,Slider,4.0,object-56,temp_dist_trial,30.0,t_m_20_1,travel_Miami,inflatable beachball,3.0,unique,paired,t_m_20_1.jpg,Travel,,,sub-24
Desktop or Laptop,Mac OS 10.15.7,Chrome 137.0.0.0,1680x1050,1470x838,Temporal Distance Task,cb_03,78.0,temp_dist_trial,dist_items,qkpkxw,2.0,continue,,2065.599999904633,2050.0,2065.599999904633,2065.599999904633,2050.0,2065.599999904633,1.0,0.0,0.0,,Click To Continue,Next button,7.0,object-60,temp_dist_trial,30.0,t_m_20_1,travel_Miami,inflatable beachball,3.0,unique,paired,t_m_20_1.jpg,Travel,,,sub-24
Desktop or Laptop,Mac OS 10.15.7,Chrome 137.0.0.0,1680x1050,1470x838,Temporal Distance Task,cb_03,78.0,temp_dist_trial,dist_items,qkpkxw,2.0,response,37,583.4000000000233,2050.0,2066.199999809265,583.4000000000233,2050.0,2066.199999809265,1.0,1482.7999998092419,0.0,,Slider,Slider,4.0,object-56,temp_dist_trial,30.0,t_m_20_1,travel_Miami,inflatable beachball,3.0,unique,paired,t_m_20_1.jpg,Travel,,,sub-24
Desktop or Laptop,Mac OS 10.15.7,Chrome 137.0.0.0,1680x1050,1470x838,Temporal Distance Task,cb_03,79.0,temp_dist_trial,num_items,zn7si1,1.0,response,1_ITEM,1448.6999998092651,1433.4000000000233,1448.6999998092651,1448.6999998092651,1433.4000000000233,1448.6999998092651,1.0,0.0,0.0,,Click Response,1_count,3.0,object-46,temp_dist_trial,31.0,t_s_05_1,travel_shared,neck pillow,3.0,competing,single,t_s_05_1.jpg,Travel,,,sub-24
Desktop or Laptop,Mac OS 10.15.7,Chrome 137.0.0.0,1680x1050,1470x838,Temporal Distance Task,cb_03,80.0,temp_dist_trial,num_items,zn7si1,1.0,response,1_ITEM,1213.999999618507,1200.0,1213.999999618507,1213.999999618507,1200.0,1213.999999618507,1.0,0.0,0.0,,Click Response,1_count,3.0,object-46,temp_dist_trial,32.0,t_m_19_1,travel_Miami,surfboard,3.0,unique,single,t_m_19_1.jpg,Travel,,,sub-24
Desktop or Laptop,Mac OS 10.15.7,Chrome 137.0.0.0,1680x1050,1470x838,Temporal Distance Task,cb_03,81.0,temp_dist_trial,num_items,zn7si1,1.0,response,1_ITEM,981.799999809242,966.6999999999533,981.799999809242,981.799999809242,966.6999999999533,981.799999809242,1.0,0.0,0.0,,Click Response,1_count,3.0,object-46,temp_dist_trial,33.0,t_i_20_1,travel_Iceland,lantern,3.0,unique,single,t_i_20_1.jpg,Travel,,,sub-24
Desktop or Laptop,Mac OS 10.15.7,Chrome 137.0.0.0,1680x1050,1470x838,Temporal Distance Task,cb_03,82.0,temp_dist_trial,num_items,zn7si1,1.0,response,2_ITEM,1215.0999998092884,1199.9000000000233,1215.0999998092884,1215.0999998092884,1199.9000000000233,1215.0999998092884,1.0,0.0,0.0,,Click Response,2_count,5.0,object-49,temp_dist_trial,34.0,t_s_21_1,travel_shared,umbrella,3.0,competing,paired,t_s_21_1.jpg,Travel,,,sub-24
Desktop or Laptop,Mac OS 10.15.7,Chrome 137.0.0.0,1680x1050,1470x838,Temporal Distance Task,cb_03,82.0,temp_dist_trial,dist_items,qkpkxw,2.0,info,,7.999999904655851,0.0,7.999999904655851,7.999999904655851,0.0,7.999999904655851,1.0,0.0,0.0,,Slider,Slider,4.0,object-56,temp_dist_trial,34.0,t_s_21_1,travel_shared,umbrella,3.0,competing,paired,t_s_21_1.jpg,Travel,,,sub-24
Desktop or Laptop,Mac OS 10.15.7,Chrome 137.0.0.0,1680x1050,1470x838,Temporal Distance Task,cb_03,82.0,temp_dist_trial,dist_items,qkpkxw,2.0,continue,,1798.699999713921,1783.3000000000463,1798.699999713921,1798.699999713921,1783.3000000000463,1798.699999713921,1.0,0.0,0.0,,Click To Continue,Next button,7.0,object-60,temp_dist_trial,34.0,t_s_21_1,travel_shared,umbrella,3.0,competing,paired,t_s_21_1.jpg,Travel,,,sub-24
Desktop or Laptop,Mac OS 10.15.7,Chrome 137.0.0.0,1680x1050,1470x838,Temporal Distance Task,cb_03,82.0,temp_dist_trial,dist_items,qkpkxw,2.0,response,63,783.3000000000467,1783.3000000000463,1799.199999713921,783.3000000000467,1783.3000000000463,1799.199999713921,1.0,1015.8999997138743,0.0,,Slider,Slider,4.0,object-56,temp_dist_trial,34.0,t_s_21_1,travel_shared,umbrella,3.0,competing,paired,t_s_21_1.jpg,Travel,,,sub-24
Desktop or Laptop,Mac OS 10.15.7,Chrome 137.0.0.0,1680x1050,1470x838,Temporal Distance Task,cb_03,83.0,temp_dist_trial,num_items,zn7si1,1.0,response,1_ITEM,2380.999999618507,2366.699999999953,2380.999999618507,2380.999999618507,2366.699999999953,2380.999999618507,1.0,0.0,0.0,,Click Response,1_count,3.0,object-46,temp_dist_trial,35.0,t_i_03_1,travel_Iceland,winter jacket,3.0,unique,paired,t_i_03_1.jpg,Travel,,,sub-24
Desktop or Laptop,Mac OS 10.15.7,Chrome 137.0.0.0,1680x1050,1470x838,Temporal Distance Task,cb_03,84.0,temp_dist_trial,num_items,zn7si1,1.0,response,1_ITEM,1682.199999713921,1666.7000000000116,1682.199999713921,1682.199999713921,1666.7000000000116,1682.199999713921,1.0,0.0,0.0,,Click Response,1_count,3.0,object-46,temp_dist_trial,36.0,t_m_12_1,travel_Miami,foldable pail and shovel,3.0,unique,paired,t_m_12_1.jpg,Travel,,,sub-24
Desktop or Laptop,Mac OS 10.15.7,Chrome 137.0.0.0,1680x1050,1470x838,Temporal Distance Task,cb_03,85.0,temp_dist_trial,num_items,zn7si1,1.0,response,1_ITEM,932.099999713886,916.7000000000116,932.099999713886,932.099999713886,916.7000000000116,932.099999713886,1.0,0.0,0.0,,Click Response,1_count,3.0,object-46,temp_dist_trial,37.0,t_i_10_1,travel_Iceland,trekking poles,3.0,unique,single,t_i_10_1.jpg,Travel,,,sub-24
Desktop or Laptop,Mac OS 10.15.7,Chrome 137.0.0.0,1680x1050,1470x838,Temporal Distance Task,cb_03,86.0,temp_dist_trial,num_items,zn7si1,1.0,response,1_ITEM,1614.599999618542,1600.1000000000354,1614.599999618542,1614.599999618542,1600.1000000000354,1614.599999618542,1.0,0.0,0.0,,Click Response,1_count,3.0,object-46,temp_dist_trial,38.0,t_s_10_1,travel_shared,luggage lock,3.0,competing,paired,t_s_10_1.jpg,Travel,,,sub-24
Desktop or Laptop,Mac OS 10.15.7,Chrome 137.0.0.0,1680x1050,1470x838,Temporal Distance Task,cb_03,87.0,temp_dist_trial,num_items,zn7si1,1.0,response,2_ITEM,998.0999999999768,983.2999999999884,998.0999999999768,998.0999999999768,983.2999999999884,998.0999999999768,1.0,0.0,0.0,,Click Response,2_count,5.0,object-49,temp_dist_trial,39.0,t_i_02_1,travel_Iceland,scarf,3.0,unique,paired,t_i_02_1.jpg,Travel,,,sub-24
Desktop or Laptop,Mac OS 10.15.7,Chrome 137.0.0.0,1680x1050,1470x838,Temporal Distance Task,cb_03,87.0,temp_dist_trial,dist_items,qkpkxw,2.0,info,,8.999999809253492,0.0,8.999999809253492,8.999999809253492,0.0,8.999999809253492,1.0,0.0,0.0,,Slider,Slider,4.0,object-56,temp_dist_trial,39.0,t_i_02_1,travel_Iceland,scarf,3.0,unique,paired,t_i_02_1.jpg,Travel,,,sub-24
