Participant Device,Participant OS,Participant Browser,Participant Monitor Size,Participant Viewport Size,Task Name,Current Spreadsheet,Trial Number,Display,Screen,Screen ID,Screen Counter,Response Type,Response,Onset Time,Clock Time,Reaction Time,Absolute Onset Time,Absolute Clock Time,Absolute Reaction Time,Correct,Response Duration,Proportion,Tag,Component Name,Object Name,Object Number,Object ID,Spreadsheet: display,Spreadsheet: trial,Spreadsheet: stimulus_id,Spreadsheet: expected_goal,Spreadsheet: stimulus_name,Spreadsheet: c_group,Spreadsheet: condition,Spreadsheet: paired_status,Spreadsheet: stimulus_path,Spreadsheet: block_type,Manipulation: Spreadsheet,Store: enc_test_acc,sub_label
Desktop or Laptop,Chromium OS 14541.0.0,Chrome 137.0.0.0,1366x768,1821x798,Temporal Distance Task,,,,,,,info,BEGIN,,,,,,,,,,,,,,,,,,,,,,,,,$${counterbalance_group},,sub-72
Desktop or Laptop,Chromium OS 14541.0.0,Chrome 137.0.0.0,1366x768,1821x798,Temporal Distance Task,cb_03,1.0,temp_instructions,intro_screen,3tnme7,1.0,continue,,5251.299999999906,5224.799999999998,5251.299999999906,5251.299999999906,5224.799999999998,5251.299999999906,1.0,0.0,0.0,,Click To Continue,Continue Button,4.0,object-29,temp_instructions,,,Student,,,,,,,$${counterbalance_group},,sub-72
Desktop or Laptop,Chromium OS 14541.0.0,Chrome 137.0.0.0,1366x768,1821x798,Temporal Distance Task,cb_03,1.0,temp_instructions,intro_screen_2,52v7ur,2.0,continue,,2615.799999999721,2596.300000000001,2615.799999999721,2615.799999999721,2596.300000000001,2615.799999999721,1.0,0.0,0.0,,Click To Continue,Continue Button,4.0,object-39,temp_instructions,,,Student,,,,,,,$${counterbalance_group},,sub-72
Desktop or Laptop,Chromium OS 14541.0.0,Chrome 137.0.0.0,1366x768,1821x798,Temporal Distance Task,cb_03,1.0,temp_instructions,intro_screen_3,i7lvwx,3.0,continue,,7924.099999999813,7918.799999999997,7924.099999999813,7924.099999999813,7918.799999999997,7924.099999999813,1.0,0.0,0.0,,Click To Continue,Continue Button,4.0,object-67,temp_instructions,,,Student,,,,,,,$${counterbalance_group},,sub-72
Desktop or Laptop,Chromium OS 14541.0.0,Chrome 137.0.0.0,1366x768,1821x798,Temporal Distance Task,cb_03,1.0,temp_instructions,test_q1,5ieqx1,4.0,response,choice_3,5267.199999999722,5257.9000000000015,5267.199999999722,5267.199999999722,5257.9000000000015,5267.199999999722,1.0,0.0,0.0,,Click Response,choice_3,5.0,object-345,temp_instructions,,,Student,,,,,,,$${counterbalance_group},,sub-72
Desktop or Laptop,Chromium OS 14541.0.0,Chrome 137.0.0.0,1366x768,1821x798,Temporal Distance Task,cb_03,1.0,temp_instructions,score_corr,7ilvjr,5.0,continue,,1759.7000000000914,1730.0999999999985,1759.7000000000914,1759.7000000000914,1730.0999999999985,1759.7000000000914,1.0,0.0,0.0,,Click To Continue,Continue Button,3.0,object-23,temp_instructions,,,Student,,,,,,,$${counterbalance_group},,sub-72
Desktop or Laptop,Chromium OS 14541.0.0,Chrome 137.0.0.0,1366x768,1821x798,Temporal Distance Task,cb_03,1.0,temp_eventStart,Screen 1,dgtyxe,1.0,continue,,1929.7000000000048,1896.4000000000005,1929.7000000000048,1929.7000000000048,1896.4000000000005,1929.7000000000048,1.0,0.0,0.0,,Click To Continue,Next Button,3.0,object-43,temp_eventStart,,,Student,,,,,,,$${counterbalance_group},,sub-72
Desktop or Laptop,Chromium OS 14541.0.0,Chrome 137.0.0.0,1366x768,1821x798,Temporal Distance Task,cb_03,1.0,temp_dist_trial,num_items,zn7si1,1.0,response,1_ITEM,2171.299999999719,2163.0999999999985,2171.299999999719,2171.299999999719,2163.0999999999985,2171.299999999719,1.0,0.0,0.0,,Click Response,1_count,3.0,object-46,temp_dist_trial,1.0,s_sh_21_1,student_shared,file holder,3.0,competing,single,s_sh_21_1.jpg,Student,$${counterbalance_group},,sub-72
Desktop or Laptop,Chromium OS 14541.0.0,Chrome 137.0.0.0,1366x768,1821x798,Temporal Distance Task,cb_03,2.0,temp_dist_trial,num_items,zn7si1,1.0,response,1_ITEM,2205.7999999999993,2198.7000000000007,2205.7999999999993,2205.7999999999993,2198.7000000000007,2205.7999999999993,1.0,0.0,0.0,,Click Response,1_count,3.0,object-46,temp_dist_trial,2.0,s_a_11_1,student_art,clapperboard,3.0,unique,paired,s_a_11_1.jpg,Student,$${counterbalance_group},,sub-72
Desktop or Laptop,Chromium OS 14541.0.0,Chrome 137.0.0.0,1366x768,1821x798,Temporal Distance Task,cb_03,3.0,temp_dist_trial,num_items,zn7si1,1.0,response,1_ITEM,1499.5,1466.0999999999985,1499.5,1499.5,1466.0999999999985,1499.5,1.0,0.0,0.0,,Click Response,1_count,3.0,object-46,temp_dist_trial,3.0,s_a_08_1,student_art,sewing machine,3.0,unique,paired,s_a_08_1.jpg,Student,$${counterbalance_group},,sub-72
Desktop or Laptop,Chromium OS 14541.0.0,Chrome 137.0.0.0,1366x768,1821x798,Temporal Distance Task,cb_03,4.0,temp_dist_trial,num_items,zn7si1,1.0,response,1_ITEM,1263.7999999999886,1230.8999999999942,1263.7999999999886,1263.7999999999886,1230.8999999999942,1263.7999999999886,1.0,0.0,0.0,,Click Response,1_count,3.0,object-46,temp_dist_trial,4.0,s_sh_23_1,student_shared,ballpoint pen,3.0,competing,single,s_sh_23_1.jpg,Student,$${counterbalance_group},,sub-72
Desktop or Laptop,Chromium OS 14541.0.0,Chrome 137.0.0.0,1366x768,1821x798,Temporal Distance Task,cb_03,5.0,temp_dist_trial,num_items,zn7si1,1.0,response,1_ITEM,1020.4999999997236,999.6000000000058,1020.4999999997236,1020.4999999997236,999.6000000000058,1020.4999999997236,1.0,0.0,0.0,,Click Response,1_count,3.0,object-46,temp_dist_trial,5.0,s_sh_16_1,student_shared,stapler,3.0,competing,single,s_sh_16_1.jpg,Student,$${counterbalance_group},,sub-72
Desktop or Laptop,Chromium OS 14541.0.0,Chrome 137.0.0.0,1366x768,1821x798,Temporal Distance Task,cb_03,6.0,temp_dist_trial,num_items,zn7si1,1.0,response,2_ITEM,1673.599999999904,1663.5,1673.599999999904,1673.599999999904,1663.5,1673.599999999904,1.0,0.0,0.0,,Click Response,2_count,5.0,object-49,temp_dist_trial,6.0,s_a_10_1,student_art,tripod,3.0,unique,paired,s_a_10_1.jpg,Student,$${counterbalance_group},,sub-72
Desktop or Laptop,Chromium OS 14541.0.0,Chrome 137.0.0.0,1366x768,1821x798,Temporal Distance Task,cb_03,6.0,temp_dist_trial,dist_items,qkpkxw,2.0,info,,30.699999999909767,0.0,30.699999999909767,30.699999999909767,0.0,30.699999999909767,1.0,0.0,0.0,,Slider,Slider,4.0,object-56,temp_dist_trial,6.0,s_a_10_1,student_art,tripod,3.0,unique,paired,s_a_10_1.jpg,Student,$${counterbalance_group},,sub-72
Desktop or Laptop,Chromium OS 14541.0.0,Chrome 137.0.0.0,1366x768,1821x798,Temporal Distance Task,cb_03,6.0,temp_dist_trial,dist_items,qkpkxw,2.0,continue,,5084.499999999724,5058.0,5084.499999999724,5084.499999999724,5058.0,5084.499999999724,1.0,0.0,0.0,,Click To Continue,Next button,7.0,object-60,temp_dist_trial,6.0,s_a_10_1,student_art,tripod,3.0,unique,paired,s_a_10_1.jpg,Student,$${counterbalance_group},,sub-72
Desktop or Laptop,Chromium OS 14541.0.0,Chrome 137.0.0.0,1366x768,1821x798,Temporal Distance Task,cb_03,6.0,temp_dist_trial,dist_items,qkpkxw,2.0,response,22,3861.5,5058.0,5091.299999999996,3861.5,5058.0,5091.299999999996,1.0,1229.7999999999956,0.0,,Slider,Slider,4.0,object-56,temp_dist_trial,6.0,s_a_10_1,student_art,tripod,3.0,unique,paired,s_a_10_1.jpg,Student,$${counterbalance_group},,sub-72
Desktop or Laptop,Chromium OS 14541.0.0,Chrome 137.0.0.0,1366x768,1821x798,Temporal Distance Task,cb_03,7.0,temp_dist_trial,num_items,zn7si1,1.0,response,2_ITEM,2212.800000000003,2198.400000000001,2212.800000000003,2212.800000000003,2198.400000000001,2212.800000000003,1.0,0.0,0.0,,Click Response,2_count,5.0,object-49,temp_dist_trial,7.0,s_sh_20_1,student_shared,tape,3.0,competing,paired,s_sh_20_1.jpg,Student,$${counterbalance_group},,sub-72
Desktop or Laptop,Chromium OS 14541.0.0,Chrome 137.0.0.0,1366x768,1821x798,Temporal Distance Task,cb_03,7.0,temp_dist_trial,dist_items,qkpkxw,2.0,info,,21.39999999971769,0.0,21.39999999971769,21.39999999971769,0.0,21.39999999971769,1.0,0.0,0.0,,Slider,Slider,4.0,object-56,temp_dist_trial,7.0,s_sh_20_1,student_shared,tape,3.0,competing,paired,s_sh_20_1.jpg,Student,$${counterbalance_group},,sub-72
Desktop or Laptop,Chromium OS 14541.0.0,Chrome 137.0.0.0,1366x768,1821x798,Temporal Distance Task,cb_03,7.0,temp_dist_trial,dist_items,qkpkxw,2.0,continue,,2970.999999999811,2962.0,2970.999999999811,2970.999999999811,2962.0,2970.999999999811,1.0,0.0,0.0,,Click To Continue,Next button,7.0,object-60,temp_dist_trial,7.0,s_sh_20_1,student_shared,tape,3.0,competing,paired,s_sh_20_1.jpg,Student,$${counterbalance_group},,sub-72
Desktop or Laptop,Chromium OS 14541.0.0,Chrome 137.0.0.0,1366x768,1821x798,Temporal Distance Task,cb_03,7.0,temp_dist_trial,dist_items,qkpkxw,2.0,response,16,1764.3999999999942,2962.0,2972.599999999904,1764.3999999999942,2962.0,2972.599999999904,1.0,1208.1999999999098,0.0,,Slider,Slider,4.0,object-56,temp_dist_trial,7.0,s_sh_20_1,student_shared,tape,3.0,competing,paired,s_sh_20_1.jpg,Student,$${counterbalance_group},,sub-72
Desktop or Laptop,Chromium OS 14541.0.0,Chrome 137.0.0.0,1366x768,1821x798,Temporal Distance Task,cb_03,8.0,temp_dist_trial,num_items,zn7si1,1.0,response,2_ITEM,1890.3000000000907,1864.0,1890.3000000000907,1890.3000000000907,1864.0,1890.3000000000907,1.0,0.0,0.0,,Click Response,2_count,5.0,object-49,temp_dist_trial,8.0,s_sh_04_1,student_shared,laptop stand,3.0,competing,paired,s_sh_04_1.jpg,Student,$${counterbalance_group},,sub-72
Desktop or Laptop,Chromium OS 14541.0.0,Chrome 137.0.0.0,1366x768,1821x798,Temporal Distance Task,cb_03,8.0,temp_dist_trial,dist_items,qkpkxw,2.0,info,,32.6999999997206,0.0,32.6999999997206,32.6999999997206,0.0,32.6999999997206,1.0,0.0,0.0,,Slider,Slider,4.0,object-56,temp_dist_trial,8.0,s_sh_04_1,student_shared,laptop stand,3.0,competing,paired,s_sh_04_1.jpg,Student,$${counterbalance_group},,sub-72
Desktop or Laptop,Chromium OS 14541.0.0,Chrome 137.0.0.0,1366x768,1821x798,Temporal Distance Task,cb_03,8.0,temp_dist_trial,dist_items,qkpkxw,2.0,continue,,3149.2999999998133,3128.099999999999,3149.2999999998133,3149.2999999998133,3128.099999999999,3149.2999999998133,1.0,0.0,0.0,,Click To Continue,Next button,7.0,object-60,temp_dist_trial,8.0,s_sh_04_1,student_shared,laptop stand,3.0,competing,paired,s_sh_04_1.jpg,Student,$${counterbalance_group},,sub-72
Desktop or Laptop,Chromium OS 14541.0.0,Chrome 137.0.0.0,1366x768,1821x798,Temporal Distance Task,cb_03,8.0,temp_dist_trial,dist_items,qkpkxw,2.0,response,19,1863.1999999999966,3128.099999999999,3161.5,1863.1999999999966,3128.099999999999,3161.5,1.0,1298.3000000000031,0.0,,Slider,Slider,4.0,object-56,temp_dist_trial,8.0,s_sh_04_1,student_shared,laptop stand,3.0,competing,paired,s_sh_04_1.jpg,Student,$${counterbalance_group},,sub-72
Desktop or Laptop,Chromium OS 14541.0.0,Chrome 137.0.0.0,1366x768,1821x798,Temporal Distance Task,cb_03,9.0,temp_dist_trial,num_items,zn7si1,1.0,response,1_ITEM,1281.2999999999086,1266.5,1281.2999999999086,1281.2999999999086,1266.5,1281.2999999999086,1.0,0.0,0.0,,Click Response,1_count,3.0,object-46,temp_dist_trial,9.0,s_a_17_1,student_art,microphone,3.0,unique,single,s_a_17_1.jpg,Student,$${counterbalance_group},,sub-72
Desktop or Laptop,Chromium OS 14541.0.0,Chrome 137.0.0.0,1366x768,1821x798,Temporal Distance Task,cb_03,10.0,temp_dist_trial,num_items,zn7si1,1.0,response,2_ITEM,1969.900000000096,1965.5,1969.900000000096,1969.900000000096,1965.5,1969.900000000096,1.0,0.0,0.0,,Click Response,2_count,5.0,object-49,temp_dist_trial,10.0,s_s_03_1,student_stem,petri dish,3.0,unique,paired,s_s_03_1.jpg,Student,$${counterbalance_group},,sub-72
Desktop or Laptop,Chromium OS 14541.0.0,Chrome 137.0.0.0,1366x768,1821x798,Temporal Distance Task,cb_03,10.0,temp_dist_trial,dist_items,qkpkxw,2.0,info,,18.900000000001448,0.0,18.900000000001448,18.900000000001448,0.0,18.900000000001448,1.0,0.0,0.0,,Slider,Slider,4.0,object-56,temp_dist_trial,10.0,s_s_03_1,student_stem,petri dish,3.0,unique,paired,s_s_03_1.jpg,Student,$${counterbalance_group},,sub-72
Desktop or Laptop,Chromium OS 14541.0.0,Chrome 137.0.0.0,1366x768,1821x798,Temporal Distance Task,cb_03,10.0,temp_dist_trial,dist_items,qkpkxw,2.0,response,dist_miss,6987.7000000000035,6987.7000000000035,6987.7000000000035,6987.7000000000035,6987.7000000000035,6987.7000000000035,1.0,0.0,0.0,dist_miss_tag,Time Limit,screen,0.0,screen,temp_dist_trial,10.0,s_s_03_1,student_stem,petri dish,3.0,unique,paired,s_s_03_1.jpg,Student,$${counterbalance_group},,sub-72
Desktop or Laptop,Chromium OS 14541.0.0,Chrome 137.0.0.0,1366x768,1821x798,Temporal Distance Task,cb_03,10.0,temp_dist_trial,dist_items,qkpkxw,2.0,response,28,1464.4000000000015,6987.7000000000035,7002.199999999814,1464.4000000000015,6987.7000000000035,7002.199999999814,1.0,5537.799999999815,0.0,,Slider,Slider,4.0,object-56,temp_dist_trial,10.0,s_s_03_1,student_stem,petri dish,3.0,unique,paired,s_s_03_1.jpg,Student,$${counterbalance_group},,sub-72
Desktop or Laptop,Chromium OS 14541.0.0,Chrome 137.0.0.0,1366x768,1821x798,Temporal Distance Task,cb_03,11.0,temp_dist_trial,num_items,zn7si1,1.0,response,1_ITEM,2173.4999999998113,2166.0999999999913,2173.4999999998113,2173.4999999998113,2166.0999999999913,2173.4999999998113,1.0,0.0,0.0,,Click Response,1_count,3.0,object-46,temp_dist_trial,11.0,s_s_02_1,student_stem,flask,3.0,unique,single,s_s_02_1.jpg,Student,$${counterbalance_group},,sub-72
Desktop or Laptop,Chromium OS 14541.0.0,Chrome 137.0.0.0,1366x768,1821x798,Temporal Distance Task,cb_03,12.0,temp_dist_trial,num_items,zn7si1,1.0,response,1_ITEM,283.1999999998079,266.2999999999884,283.1999999998079,283.1999999998079,266.2999999999884,283.1999999998079,1.0,0.0,0.0,,Click Response,1_count,3.0,object-46,temp_dist_trial,12.0,s_s_05_1,student_stem,lab goggles,3.0,unique,paired,s_s_05_1.jpg,Student,$${counterbalance_group},,sub-72
Desktop or Laptop,Chromium OS 14541.0.0,Chrome 137.0.0.0,1366x768,1821x798,Temporal Distance Task,cb_03,13.0,temp_dist_trial,num_items,zn7si1,1.0,response,1_ITEM,2009.5999999998169,1998.6999999999966,2009.5999999998169,2009.5999999998169,1998.6999999999966,2009.5999999998169,1.0,0.0,0.0,,Click Response,1_count,3.0,object-46,temp_dist_trial,13.0,s_sh_08_1,student_shared,post-its,3.0,competing,paired,s_sh_08_1.jpg,Student,$${counterbalance_group},,sub-72
Desktop or Laptop,Chromium OS 14541.0.0,Chrome 137.0.0.0,1366x768,1821x798,Temporal Distance Task,cb_03,14.0,temp_dist_trial,num_items,zn7si1,1.0,response,1_ITEM,813.7999999998137,798.5,813.7999999998137,813.7999999998137,798.5,813.7999999998137,1.0,0.0,0.0,,Click Response,1_count,3.0,object-46,temp_dist_trial,14.0,s_a_03_1,student_art,palette,3.0,unique,paired,s_a_03_1.jpg,Student,$${counterbalance_group},,sub-72
Desktop or Laptop,Chromium OS 14541.0.0,Chrome 137.0.0.0,1366x768,1821x798,Temporal Distance Task,cb_03,15.0,temp_dist_trial,num_items,zn7si1,1.0,response,2_ITEM,1798.0999999998166,1765.6000000000058,1798.0999999998166,1798.0999999998166,1765.6000000000058,1798.0999999998166,1.0,0.0,0.0,,Click Response,2_count,5.0,object-49,temp_dist_trial,15.0,s_sh_11_1,student_shared,pencil case,3.0,competing,paired,s_sh_11_1.jpg,Student,$${counterbalance_group},,sub-72
Desktop or Laptop,Chromium OS 14541.0.0,Chrome 137.0.0.0,1366x768,1821x798,Temporal Distance Task,cb_03,15.0,temp_dist_trial,dist_items,qkpkxw,2.0,info,,16.599999999816646,0.0,16.599999999816646,16.599999999816646,0.0,16.599999999816646,1.0,0.0,0.0,,Slider,Slider,4.0,object-56,temp_dist_trial,15.0,s_sh_11_1,student_shared,pencil case,3.0,competing,paired,s_sh_11_1.jpg,Student,$${counterbalance_group},,sub-72
Desktop or Laptop,Chromium OS 14541.0.0,Chrome 137.0.0.0,1366x768,1821x798,Temporal Distance Task,cb_03,15.0,temp_dist_trial,dist_items,qkpkxw,2.0,continue,,2938.6999999999102,2928.5,2938.6999999999102,2938.6999999999102,2928.5,2938.6999999999102,1.0,0.0,0.0,,Click To Continue,Next button,7.0,object-60,temp_dist_trial,15.0,s_sh_11_1,student_shared,pencil case,3.0,competing,paired,s_sh_11_1.jpg,Student,$${counterbalance_group},,sub-72
Desktop or Laptop,Chromium OS 14541.0.0,Chrome 137.0.0.0,1366x768,1821x798,Temporal Distance Task,cb_03,15.0,temp_dist_trial,dist_items,qkpkxw,2.0,response,29,1731.400000000009,2928.5,2959.300000000003,1731.400000000009,2928.5,2959.300000000003,1.0,1227.8999999999942,0.0,,Slider,Slider,4.0,object-56,temp_dist_trial,15.0,s_sh_11_1,student_shared,pencil case,3.0,competing,paired,s_sh_11_1.jpg,Student,$${counterbalance_group},,sub-72
Desktop or Laptop,Chromium OS 14541.0.0,Chrome 137.0.0.0,1366x768,1821x798,Temporal Distance Task,cb_03,16.0,temp_dist_trial,num_items,zn7si1,1.0,response,2_ITEM,2017.3000000000034,1997.6999999999966,2017.3000000000034,2017.3000000000034,1997.6999999999966,2017.3000000000034,1.0,0.0,0.0,,Click Response,2_count,5.0,object-49,temp_dist_trial,16.0,s_s_01_1,student_stem,microscope,3.0,unique,single,s_s_01_1.jpg,Student,$${counterbalance_group},,sub-72
Desktop or Laptop,Chromium OS 14541.0.0,Chrome 137.0.0.0,1366x768,1821x798,Temporal Distance Task,cb_03,16.0,temp_dist_trial,dist_items,qkpkxw,2.0,info,,17.599999999714782,0.0,17.599999999714782,17.599999999714782,0.0,17.599999999714782,1.0,0.0,0.0,,Slider,Slider,4.0,object-56,temp_dist_trial,16.0,s_s_01_1,student_stem,microscope,3.0,unique,single,s_s_01_1.jpg,Student,$${counterbalance_group},,sub-72
Desktop or Laptop,Chromium OS 14541.0.0,Chrome 137.0.0.0,1366x768,1821x798,Temporal Distance Task,cb_03,16.0,temp_dist_trial,dist_items,qkpkxw,2.0,continue,,3316.3999999999933,3294.699999999997,3316.3999999999933,3316.3999999999933,3294.699999999997,3316.3999999999933,1.0,0.0,0.0,,Click To Continue,Next button,7.0,object-60,temp_dist_trial,16.0,s_s_01_1,student_stem,microscope,3.0,unique,single,s_s_01_1.jpg,Student,$${counterbalance_group},,sub-72
Desktop or Laptop,Chromium OS 14541.0.0,Chrome 137.0.0.0,1366x768,1821x798,Temporal Distance Task,cb_03,16.0,temp_dist_trial,dist_items,qkpkxw,2.0,response,35,1497.2999999999884,3294.699999999997,3318.099999999715,1497.2999999999884,3294.699999999997,3318.099999999715,1.0,1820.7999999997269,0.0,,Slider,Slider,4.0,object-56,temp_dist_trial,16.0,s_s_01_1,student_stem,microscope,3.0,unique,single,s_s_01_1.jpg,Student,$${counterbalance_group},,sub-72
Desktop or Laptop,Chromium OS 14541.0.0,Chrome 137.0.0.0,1366x768,1821x798,Temporal Distance Task,cb_03,17.0,temp_dist_trial,num_items,zn7si1,1.0,response,1_ITEM,1210.8000000000902,1197.3999999999942,1210.8000000000902,1210.8000000000902,1197.3999999999942,1210.8000000000902,1.0,0.0,0.0,,Click Response,1_count,3.0,object-46,temp_dist_trial,17.0,s_s_12_1,student_stem,robotic arm,3.0,unique,paired,s_s_12_1.jpg,Student,$${counterbalance_group},,sub-72
Desktop or Laptop,Chromium OS 14541.0.0,Chrome 137.0.0.0,1366x768,1821x798,Temporal Distance Task,cb_03,18.0,temp_dist_trial,num_items,zn7si1,1.0,response,2_ITEM,1668.2999999997269,1665.7000000000116,1668.2999999997269,1668.2999999997269,1665.7000000000116,1668.2999999997269,1.0,0.0,0.0,,Click Response,2_count,5.0,object-49,temp_dist_trial,18.0,s_s_18_1,student_stem,brain model,3.0,unique,paired,s_s_18_1.jpg,Student,$${counterbalance_group},,sub-72
Desktop or Laptop,Chromium OS 14541.0.0,Chrome 137.0.0.0,1366x768,1821x798,Temporal Distance Task,cb_03,18.0,temp_dist_trial,dist_items,qkpkxw,2.0,info,,18.09999999981665,0.0,18.09999999981665,18.09999999981665,0.0,18.09999999981665,1.0,0.0,0.0,,Slider,Slider,4.0,object-56,temp_dist_trial,18.0,s_s_18_1,student_stem,brain model,3.0,unique,paired,s_s_18_1.jpg,Student,$${counterbalance_group},,sub-72
Desktop or Laptop,Chromium OS 14541.0.0,Chrome 137.0.0.0,1366x768,1821x798,Temporal Distance Task,cb_03,18.0,temp_dist_trial,dist_items,qkpkxw,2.0,continue,,4170.300000000003,4159.600000000006,4170.300000000003,4170.300000000003,4159.600000000006,4170.300000000003,1.0,0.0,0.0,,Click To Continue,Next button,7.0,object-60,temp_dist_trial,18.0,s_s_18_1,student_stem,brain model,3.0,unique,paired,s_s_18_1.jpg,Student,$${counterbalance_group},,sub-72
Desktop or Laptop,Chromium OS 14541.0.0,Chrome 137.0.0.0,1366x768,1821x798,Temporal Distance Task,cb_03,18.0,temp_dist_trial,dist_items,qkpkxw,2.0,response,29,1697.900000000009,4159.600000000006,4184.499999999724,1697.900000000009,4159.600000000006,4184.499999999724,1.0,2486.599999999715,0.0,,Slider,Slider,4.0,object-56,temp_dist_trial,18.0,s_s_18_1,student_stem,brain model,3.0,unique,paired,s_s_18_1.jpg,Student,$${counterbalance_group},,sub-72
Desktop or Laptop,Chromium OS 14541.0.0,Chrome 137.0.0.0,1366x768,1821x798,Temporal Distance Task,cb_03,19.0,temp_dist_trial,num_items,zn7si1,1.0,response,2_ITEM,2125.899999999717,2099.800000000003,2125.899999999717,2125.899999999717,2099.800000000003,2125.899999999717,1.0,0.0,0.0,,Click Response,2_count,5.0,object-49,temp_dist_trial,19.0,s_sh_09_1,student_shared,paper clips,3.0,competing,paired,s_sh_09_1.jpg,Student,$${counterbalance_group},,sub-72
Desktop or Laptop,Chromium OS 14541.0.0,Chrome 137.0.0.0,1366x768,1821x798,Temporal Distance Task,cb_03,19.0,temp_dist_trial,dist_items,qkpkxw,2.0,info,,29.099999999714786,0.0,29.099999999714786,29.099999999714786,0.0,29.099999999714786,1.0,0.0,0.0,,Slider,Slider,4.0,object-56,temp_dist_trial,19.0,s_sh_09_1,student_shared,paper clips,3.0,competing,paired,s_sh_09_1.jpg,Student,$${counterbalance_group},,sub-72
Desktop or Laptop,Chromium OS 14541.0.0,Chrome 137.0.0.0,1366x768,1821x798,Temporal Distance Task,cb_03,19.0,temp_dist_trial,dist_items,qkpkxw,2.0,continue,,4690.799999999901,4658.699999999997,4690.799999999901,4690.799999999901,4658.699999999997,4690.799999999901,1.0,0.0,0.0,,Click To Continue,Next button,7.0,object-60,temp_dist_trial,19.0,s_sh_09_1,student_shared,paper clips,3.0,competing,paired,s_sh_09_1.jpg,Student,$${counterbalance_group},,sub-72
Desktop or Laptop,Chromium OS 14541.0.0,Chrome 137.0.0.0,1366x768,1821x798,Temporal Distance Task,cb_03,19.0,temp_dist_trial,dist_items,qkpkxw,2.0,response,16,2065.5,4658.699999999997,4692.0,2065.5,4658.699999999997,4692.0,1.0,2626.5,0.0,,Slider,Slider,4.0,object-56,temp_dist_trial,19.0,s_sh_09_1,student_shared,paper clips,3.0,competing,paired,s_sh_09_1.jpg,Student,$${counterbalance_group},,sub-72
Desktop or Laptop,Chromium OS 14541.0.0,Chrome 137.0.0.0,1366x768,1821x798,Temporal Distance Task,cb_03,20.0,temp_dist_trial,num_items,zn7si1,1.0,response,1_ITEM,1379.4999999998108,1366.5999999999913,1379.4999999998108,1379.4999999998108,1366.5999999999913,1379.4999999998108,1.0,0.0,0.0,,Click Response,1_count,3.0,object-46,temp_dist_trial,20.0,s_s_07_1,student_stem,periodic table,3.0,unique,single,s_s_07_1.jpg,Student,$${counterbalance_group},,sub-72
Desktop or Laptop,Chromium OS 14541.0.0,Chrome 137.0.0.0,1366x768,1821x798,Temporal Distance Task,cb_03,21.0,temp_dist_trial,num_items,zn7si1,1.0,response,1_ITEM,1185.9999999999127,1166.0,1185.9999999999127,1185.9999999999127,1166.0,1185.9999999999127,1.0,0.0,0.0,,Click Response,1_count,3.0,object-46,temp_dist_trial,21.0,s_sh_15_1,student_shared,usb drive,3.0,competing,paired,s_sh_15_1.jpg,Student,$${counterbalance_group},,sub-72
Desktop or Laptop,Chromium OS 14541.0.0,Chrome 137.0.0.0,1366x768,1821x798,Temporal Distance Task,cb_03,22.0,temp_dist_trial,num_items,zn7si1,1.0,response,1_ITEM,806.2999999999008,799.5,806.2999999999008,806.2999999999008,799.5,806.2999999999008,1.0,0.0,0.0,,Click Response,1_count,3.0,object-46,temp_dist_trial,22.0,s_a_16_1,student_art,piano,3.0,unique,single,s_a_16_1.jpg,Student,$${counterbalance_group},,sub-72
Desktop or Laptop,Chromium OS 14541.0.0,Chrome 137.0.0.0,1366x768,1821x798,Temporal Distance Task,cb_03,23.0,temp_dist_trial,num_items,zn7si1,1.0,response,1_ITEM,909.8999999999942,898.5,909.8999999999942,909.8999999999942,898.5,909.8999999999942,1.0,0.0,0.0,,Click Response,1_count,3.0,object-46,temp_dist_trial,23.0,s_a_19_1,student_art,ballet shoes,3.0,unique,single,s_a_19_1.jpg,Student,$${counterbalance_group},,sub-72
Desktop or Laptop,Chromium OS 14541.0.0,Chrome 137.0.0.0,1366x768,1821x798,Temporal Distance Task,cb_03,24.0,temp_dist_trial,num_items,zn7si1,1.0,response,1_ITEM,903.5999999998166,898.8000000000029,903.5999999998166,903.5999999998166,898.8000000000029,903.5999999998166,1.0,0.0,0.0,,Click Response,1_count,3.0,object-46,temp_dist_trial,24.0,s_sh_06_1,student_shared,clipboard,3.0,competing,paired,s_sh_06_1.jpg,Student,$${counterbalance_group},,sub-72
Desktop or Laptop,Chromium OS 14541.0.0,Chrome 137.0.0.0,1366x768,1821x798,Temporal Distance Task,cb_03,25.0,temp_dist_trial,num_items,zn7si1,1.0,response,2_ITEM,1478.3999999998196,1464.0,1478.3999999998196,1478.3999999998196,1464.0,1478.3999999998196,1.0,0.0,0.0,,Click Response,2_count,5.0,object-49,temp_dist_trial,25.0,s_a_20_1,student_art,pin cushion,3.0,unique,paired,s_a_20_1.jpg,Student,$${counterbalance_group},,sub-72
Desktop or Laptop,Chromium OS 14541.0.0,Chrome 137.0.0.0,1366x768,1821x798,Temporal Distance Task,cb_03,25.0,temp_dist_trial,dist_items,qkpkxw,2.0,info,,30.5,0.0,30.5,30.5,0.0,30.5,1.0,0.0,0.0,,Slider,Slider,4.0,object-56,temp_dist_trial,25.0,s_a_20_1,student_art,pin cushion,3.0,unique,paired,s_a_20_1.jpg,Student,$${counterbalance_group},,sub-72
Desktop or Laptop,Chromium OS 14541.0.0,Chrome 137.0.0.0,1366x768,1821x798,Temporal Distance Task,cb_03,25.0,temp_dist_trial,dist_items,qkpkxw,2.0,continue,,3139.199999999721,3128.199999999997,3139.199999999721,3139.199999999721,3128.199999999997,3139.199999999721,1.0,0.0,0.0,,Click To Continue,Next button,7.0,object-60,temp_dist_trial,25.0,s_a_20_1,student_art,pin cushion,3.0,unique,paired,s_a_20_1.jpg,Student,$${counterbalance_group},,sub-72
Desktop or Laptop,Chromium OS 14541.0.0,Chrome 137.0.0.0,1366x768,1821x798,Temporal Distance Task,cb_03,25.0,temp_dist_trial,dist_items,qkpkxw,2.0,response,18,1832.3000000000034,3128.199999999997,3141.5,1832.3000000000034,3128.199999999997,3141.5,1.0,1309.1999999999969,0.0,,Slider,Slider,4.0,object-56,temp_dist_trial,25.0,s_a_20_1,student_art,pin cushion,3.0,unique,paired,s_a_20_1.jpg,Student,$${counterbalance_group},,sub-72
Desktop or Laptop,Chromium OS 14541.0.0,Chrome 137.0.0.0,1366x768,1821x798,Temporal Distance Task,cb_03,26.0,temp_dist_trial,num_items,zn7si1,1.0,response,2_ITEM,2215.800000000003,2198.6000000000063,2215.800000000003,2215.800000000003,2198.6000000000063,2215.800000000003,1.0,0.0,0.0,,Click Response,2_count,5.0,object-49,temp_dist_trial,26.0,s_s_04_1,student_stem,bunsen burner,3.0,unique,paired,s_s_04_1.jpg,Student,$${counterbalance_group},,sub-72
Desktop or Laptop,Chromium OS 14541.0.0,Chrome 137.0.0.0,1366x768,1821x798,Temporal Distance Task,cb_03,26.0,temp_dist_trial,dist_items,qkpkxw,2.0,info,,25.39999999981956,0.0,25.39999999981956,25.39999999981956,0.0,25.39999999981956,1.0,0.0,0.0,,Slider,Slider,4.0,object-56,temp_dist_trial,26.0,s_s_04_1,student_stem,bunsen burner,3.0,unique,paired,s_s_04_1.jpg,Student,$${counterbalance_group},,sub-72
Desktop or Laptop,Chromium OS 14541.0.0,Chrome 137.0.0.0,1366x768,1821x798,Temporal Distance Task,cb_03,26.0,temp_dist_trial,dist_items,qkpkxw,2.0,continue,,6715.4999999999145,6689.300000000002,6715.4999999999145,6715.4999999999145,6689.300000000002,6715.4999999999145,1.0,0.0,0.0,,Click To Continue,Next button,7.0,object-60,temp_dist_trial,26.0,s_s_04_1,student_stem,bunsen burner,3.0,unique,paired,s_s_04_1.jpg,Student,$${counterbalance_group},,sub-72
Desktop or Laptop,Chromium OS 14541.0.0,Chrome 137.0.0.0,1366x768,1821x798,Temporal Distance Task,cb_03,26.0,temp_dist_trial,dist_items,qkpkxw,2.0,response,18,5057.800000000003,6689.300000000002,6722.600000000006,5057.800000000003,6689.300000000002,6722.600000000006,1.0,1664.8000000000034,0.0,,Slider,Slider,4.0,object-56,temp_dist_trial,26.0,s_s_04_1,student_stem,bunsen burner,3.0,unique,paired,s_s_04_1.jpg,Student,$${counterbalance_group},,sub-72
Desktop or Laptop,Chromium OS 14541.0.0,Chrome 137.0.0.0,1366x768,1821x798,Temporal Distance Task,cb_03,27.0,temp_dist_trial,num_items,zn7si1,1.0,response,2_ITEM,1652.6999999999098,1631.8000000000034,1652.6999999999098,1652.6999999999098,1631.8000000000034,1652.6999999999098,1.0,0.0,0.0,,Click Response,2_count,5.0,object-49,temp_dist_trial,27.0,s_sh_01_1,student_shared,notebook,3.0,competing,paired,s_sh_01_1.jpg,Student,$${counterbalance_group},,sub-72
Desktop or Laptop,Chromium OS 14541.0.0,Chrome 137.0.0.0,1366x768,1821x798,Temporal Distance Task,cb_03,27.0,temp_dist_trial,dist_items,qkpkxw,2.0,info,,12.5,0.0,12.5,12.5,0.0,12.5,1.0,0.0,0.0,,Slider,Slider,4.0,object-56,temp_dist_trial,27.0,s_sh_01_1,student_shared,notebook,3.0,competing,paired,s_sh_01_1.jpg,Student,$${counterbalance_group},,sub-72
Desktop or Laptop,Chromium OS 14541.0.0,Chrome 137.0.0.0,1366x768,1821x798,Temporal Distance Task,cb_03,27.0,temp_dist_trial,dist_items,qkpkxw,2.0,continue,,2768.5,2762.199999999997,2768.5,2768.5,2762.199999999997,2768.5,1.0,0.0,0.0,,Click To Continue,Next button,7.0,object-60,temp_dist_trial,27.0,s_sh_01_1,student_shared,notebook,3.0,competing,paired,s_sh_01_1.jpg,Student,$${counterbalance_group},,sub-72
Desktop or Laptop,Chromium OS 14541.0.0,Chrome 137.0.0.0,1366x768,1821x798,Temporal Distance Task,cb_03,27.0,temp_dist_trial,dist_items,qkpkxw,2.0,response,39,1365.6000000000058,2762.199999999997,2769.5,1365.6000000000058,2762.199999999997,2769.5,1.0,1403.8999999999942,0.0,,Slider,Slider,4.0,object-56,temp_dist_trial,27.0,s_sh_01_1,student_shared,notebook,3.0,competing,paired,s_sh_01_1.jpg,Student,$${counterbalance_group},,sub-72
Desktop or Laptop,Chromium OS 14541.0.0,Chrome 137.0.0.0,1366x768,1821x798,Temporal Distance Task,cb_03,28.0,temp_dist_trial,num_items,zn7si1,1.0,response,2_ITEM,2329.9999999997235,2298.199999999997,2329.9999999997235,2329.9999999997235,2298.199999999997,2329.9999999997235,1.0,0.0,0.0,,Click Response,2_count,5.0,object-49,temp_dist_trial,28.0,s_a_04_1,student_art,easel,3.0,unique,paired,s_a_04_1.jpg,Student,$${counterbalance_group},,sub-72
Desktop or Laptop,Chromium OS 14541.0.0,Chrome 137.0.0.0,1366x768,1821x798,Temporal Distance Task,cb_03,28.0,temp_dist_trial,dist_items,qkpkxw,2.0,info,,24.399999999717693,0.0,24.399999999717693,24.399999999717693,0.0,24.399999999717693,1.0,0.0,0.0,,Slider,Slider,4.0,object-56,temp_dist_trial,28.0,s_a_04_1,student_art,easel,3.0,unique,paired,s_a_04_1.jpg,Student,$${counterbalance_group},,sub-72
Desktop or Laptop,Chromium OS 14541.0.0,Chrome 137.0.0.0,1366x768,1821x798,Temporal Distance Task,cb_03,28.0,temp_dist_trial,dist_items,qkpkxw,2.0,continue,,3152.699999999997,3128.0999999999913,3152.699999999997,3152.699999999997,3128.0999999999913,3152.699999999997,1.0,0.0,0.0,,Click To Continue,Next button,7.0,object-60,temp_dist_trial,28.0,s_a_04_1,student_art,easel,3.0,unique,paired,s_a_04_1.jpg,Student,$${counterbalance_group},,sub-72
Desktop or Laptop,Chromium OS 14541.0.0,Chrome 137.0.0.0,1366x768,1821x798,Temporal Distance Task,cb_03,28.0,temp_dist_trial,dist_items,qkpkxw,2.0,response,80,1531.099999999991,3128.0999999999913,3161.4999999999845,1531.099999999991,3128.0999999999913,3161.4999999999845,1.0,1630.3999999999942,0.0,,Slider,Slider,4.0,object-56,temp_dist_trial,28.0,s_a_04_1,student_art,easel,3.0,unique,paired,s_a_04_1.jpg,Student,$${counterbalance_group},,sub-72
Desktop or Laptop,Chromium OS 14541.0.0,Chrome 137.0.0.0,1366x768,1821x798,Temporal Distance Task,cb_03,29.0,temp_dist_trial,num_items,zn7si1,1.0,response,1_ITEM,1444.9999999999127,1431.2000000000116,1444.9999999999127,1444.9999999999127,1431.2000000000116,1444.9999999999127,1.0,0.0,0.0,,Click Response,1_count,3.0,object-46,temp_dist_trial,29.0,s_s_14_1,student_stem,funnel,3.0,unique,paired,s_s_14_1.jpg,Student,$${counterbalance_group},,sub-72
Desktop or Laptop,Chromium OS 14541.0.0,Chrome 137.0.0.0,1366x768,1821x798,Temporal Distance Task,cb_03,30.0,temp_dist_trial,num_items,zn7si1,1.0,response,1_ITEM,791.4999999998108,766.0999999999913,791.4999999998108,791.4999999998108,766.0999999999913,791.4999999998108,1.0,0.0,0.0,,Click Response,1_count,3.0,object-46,temp_dist_trial,30.0,s_sh_14_1,student_shared,printer,3.0,competing,paired,s_sh_14_1.jpg,Student,$${counterbalance_group},,sub-72
Desktop or Laptop,Chromium OS 14541.0.0,Chrome 137.0.0.0,1366x768,1821x798,Temporal Distance Task,cb_03,31.0,temp_dist_trial,num_items,zn7si1,1.0,response,2_ITEM,1855.8000000001048,1830.9000000000235,1855.8000000001048,1855.8000000001048,1830.9000000000235,1855.8000000001048,1.0,0.0,0.0,,Click Response,2_count,5.0,object-49,temp_dist_trial,31.0,s_s_17_1,student_stem,ring stand,3.0,unique,paired,s_s_17_1.jpg,Student,$${counterbalance_group},,sub-72
Desktop or Laptop,Chromium OS 14541.0.0,Chrome 137.0.0.0,1366x768,1821x798,Temporal Distance Task,cb_03,31.0,temp_dist_trial,dist_items,qkpkxw,2.0,info,,17.299999999988362,0.0,17.299999999988362,17.299999999988362,0.0,17.299999999988362,1.0,0.0,0.0,,Slider,Slider,4.0,object-56,temp_dist_trial,31.0,s_s_17_1,student_stem,ring stand,3.0,unique,paired,s_s_17_1.jpg,Student,$${counterbalance_group},,sub-72
Desktop or Laptop,Chromium OS 14541.0.0,Chrome 137.0.0.0,1366x768,1821x798,Temporal Distance Task,cb_03,31.0,temp_dist_trial,dist_items,qkpkxw,2.0,continue,,2093.900000000081,2063.0,2093.900000000081,2093.900000000081,2063.0,2093.900000000081,1.0,0.0,0.0,,Click To Continue,Next button,7.0,object-60,temp_dist_trial,31.0,s_s_17_1,student_stem,ring stand,3.0,unique,paired,s_s_17_1.jpg,Student,$${counterbalance_group},,sub-72
Desktop or Laptop,Chromium OS 14541.0.0,Chrome 137.0.0.0,1366x768,1821x798,Temporal Distance Task,cb_03,31.0,temp_dist_trial,dist_items,qkpkxw,2.0,response,49,1166.5999999999767,2063.0,2095.099999999802,1166.5999999999767,2063.0,2095.099999999802,1.0,928.4999999998256,0.0,,Slider,Slider,4.0,object-56,temp_dist_trial,31.0,s_s_17_1,student_stem,ring stand,3.0,unique,paired,s_s_17_1.jpg,Student,$${counterbalance_group},,sub-72
Desktop or Laptop,Chromium OS 14541.0.0,Chrome 137.0.0.0,1366x768,1821x798,Temporal Distance Task,cb_03,32.0,temp_dist_trial,num_items,zn7si1,1.0,response,1_ITEM,1117.6999999998952,1099.2999999999884,1117.6999999998952,1117.6999999998952,1099.2999999999884,1117.6999999998952,1.0,0.0,0.0,,Click Response,1_count,3.0,object-46,temp_dist_trial,32.0,s_s_09_1,student_stem,multimeter,3.0,unique,single,s_s_09_1.jpg,Student,$${counterbalance_group},,sub-72
Desktop or Laptop,Chromium OS 14541.0.0,Chrome 137.0.0.0,1366x768,1821x798,Temporal Distance Task,cb_03,33.0,temp_dist_trial,num_items,zn7si1,1.0,response,1_ITEM,1080.0000000000873,1066.0,1080.0000000000873,1080.0000000000873,1066.0,1080.0000000000873,1.0,0.0,0.0,,Click Response,1_count,3.0,object-46,temp_dist_trial,33.0,s_a_02_1,student_art,canvas,3.0,unique,single,s_a_02_1.jpg,Student,$${counterbalance_group},,sub-72
Desktop or Laptop,Chromium OS 14541.0.0,Chrome 137.0.0.0,1366x768,1821x798,Temporal Distance Task,cb_03,34.0,temp_dist_trial,num_items,zn7si1,1.0,response,1_ITEM,749.1999999998953,732.1999999999823,749.1999999998953,749.1999999998953,732.1999999999823,749.1999999998953,1.0,0.0,0.0,,Click Response,1_count,3.0,object-46,temp_dist_trial,34.0,s_a_13_1,student_art,violin,3.0,unique,paired,s_a_13_1.jpg,Student,$${counterbalance_group},,sub-72
Desktop or Laptop,Chromium OS 14541.0.0,Chrome 137.0.0.0,1366x768,1821x798,Temporal Distance Task,cb_03,35.0,temp_dist_trial,num_items,zn7si1,1.0,response,1_ITEM,969.2999999999008,965.2999999999884,969.2999999999008,969.2999999999008,965.2999999999884,969.2999999999008,1.0,0.0,0.0,,Click Response,1_count,3.0,object-46,temp_dist_trial,35.0,s_sh_10_1,student_shared,scissors,3.0,competing,paired,s_sh_10_1.jpg,Student,$${counterbalance_group},,sub-72
Desktop or Laptop,Chromium OS 14541.0.0,Chrome 137.0.0.0,1366x768,1821x798,Temporal Distance Task,cb_03,36.0,temp_dist_trial,num_items,zn7si1,1.0,response,1_ITEM,1091.0999999998019,1064.6999999999823,1091.0999999998019,1091.0999999998019,1064.6999999999823,1091.0999999998019,1.0,0.0,0.0,,Click Response,1_count,3.0,object-46,temp_dist_trial,36.0,s_sh_03_1,student_shared,highlighter,3.0,competing,single,s_sh_03_1.jpg,Student,$${counterbalance_group},,sub-72
Desktop or Laptop,Chromium OS 14541.0.0,Chrome 137.0.0.0,1366x768,1821x798,Temporal Distance Task,cb_03,37.0,temp_dist_trial,num_items,zn7si1,1.0,response,1_ITEM,1104.0999999998019,1099.2999999999884,1104.0999999998019,1104.0999999998019,1099.2999999999884,1104.0999999998019,1.0,0.0,0.0,,Click Response,1_count,3.0,object-46,temp_dist_trial,37.0,s_sh_12_1,student_shared,binder,3.0,competing,paired,s_sh_12_1.jpg,Student,$${counterbalance_group},,sub-72
Desktop or Laptop,Chromium OS 14541.0.0,Chrome 137.0.0.0,1366x768,1821x798,Temporal Distance Task,cb_03,38.0,temp_dist_trial,num_items,zn7si1,1.0,response,2_ITEM,1418.8999999999066,1397.3999999999942,1418.8999999999066,1418.8999999999066,1397.3999999999942,1418.8999999999066,1.0,0.0,0.0,,Click Response,2_count,5.0,object-49,temp_dist_trial,38.0,s_s_13_1,student_stem,telescope,3.0,unique,paired,s_s_13_1.jpg,Student,$${counterbalance_group},,sub-72
Desktop or Laptop,Chromium OS 14541.0.0,Chrome 137.0.0.0,1366x768,1821x798,Temporal Distance Task,cb_03,38.0,temp_dist_trial,dist_items,qkpkxw,2.0,info,,22.99999999970896,0.0,22.99999999970896,22.99999999970896,0.0,22.99999999970896,1.0,0.0,0.0,,Slider,Slider,4.0,object-56,temp_dist_trial,38.0,s_s_13_1,student_stem,telescope,3.0,unique,paired,s_s_13_1.jpg,Student,$${counterbalance_group},,sub-72
Desktop or Laptop,Chromium OS 14541.0.0,Chrome 137.0.0.0,1366x768,1821x798,Temporal Distance Task,cb_03,38.0,temp_dist_trial,dist_items,qkpkxw,2.0,continue,,3244.900000000081,3228.0999999999767,3244.900000000081,3244.900000000081,3228.0999999999767,3244.900000000081,1.0,0.0,0.0,,Click To Continue,Next button,7.0,object-60,temp_dist_trial,38.0,s_s_13_1,student_stem,telescope,3.0,unique,paired,s_s_13_1.jpg,Student,$${counterbalance_group},,sub-72
Desktop or Laptop,Chromium OS 14541.0.0,Chrome 137.0.0.0,1366x768,1821x798,Temporal Distance Task,cb_03,38.0,temp_dist_trial,dist_items,qkpkxw,2.0,response,13,1732.7999999999884,3228.0999999999767,3246.599999999802,1732.7999999999884,3228.0999999999767,3246.599999999802,1.0,1513.7999999998135,0.0,,Slider,Slider,4.0,object-56,temp_dist_trial,38.0,s_s_13_1,student_stem,telescope,3.0,unique,paired,s_s_13_1.jpg,Student,$${counterbalance_group},,sub-72
Desktop or Laptop,Chromium OS 14541.0.0,Chrome 137.0.0.0,1366x768,1821x798,Temporal Distance Task,cb_03,39.0,temp_dist_trial,num_items,zn7si1,1.0,response,1_ITEM,1286.4999999998254,1265.6000000000058,1286.4999999998254,1286.4999999998254,1265.6000000000058,1286.4999999998254,1.0,0.0,0.0,,Click Response,1_count,3.0,object-46,temp_dist_trial,39.0,s_sh_19_1,student_shared,portable plastic drawer,3.0,competing,single,s_sh_19_1.jpg,Student,$${counterbalance_group},,sub-72
Desktop or Laptop,Chromium OS 14541.0.0,Chrome 137.0.0.0,1366x768,1821x798,Temporal Distance Task,cb_03,40.0,temp_dist_trial,num_items,zn7si1,1.0,response,1_ITEM,901.999999999709,898.1999999999823,901.999999999709,901.999999999709,898.1999999999823,901.999999999709,1.0,0.0,0.0,,Click Response,1_count,3.0,object-46,temp_dist_trial,40.0,s_a_09_1,student_art,picture frame,3.0,unique,paired,s_a_09_1.jpg,Student,$${counterbalance_group},,sub-72
Desktop or Laptop,Chromium OS 14541.0.0,Chrome 137.0.0.0,1366x768,1821x798,Temporal Distance Task,cb_03,41.0,temp_dist_trial,num_items,zn7si1,1.0,response,1_ITEM,798.2999999999884,766.0999999999768,798.2999999999884,798.2999999999884,766.0999999999768,798.2999999999884,1.0,0.0,0.0,,Click Response,1_count,3.0,object-46,temp_dist_trial,41.0,s_sh_22_1,student_shared,hole puncher,3.0,competing,paired,s_sh_22_1.jpg,Student,$${counterbalance_group},,sub-72
Desktop or Laptop,Chromium OS 14541.0.0,Chrome 137.0.0.0,1366x768,1821x798,Temporal Distance Task,cb_03,42.0,temp_dist_trial,num_items,zn7si1,1.0,response,1_ITEM,924.7999999998137,899.2999999999884,924.7999999998137,924.7999999998137,899.2999999999884,924.7999999998137,1.0,0.0,0.0,,Click Response,1_count,3.0,object-46,temp_dist_trial,42.0,s_sh_02_1,student_shared,eraser,3.0,competing,single,s_sh_02_1.jpg,Student,$${counterbalance_group},,sub-72
Desktop or Laptop,Chromium OS 14541.0.0,Chrome 137.0.0.0,1366x768,1821x798,Temporal Distance Task,cb_03,43.0,temp_dist_trial,num_items,zn7si1,1.0,response,1_ITEM,931.4999999999707,898.2999999999884,931.4999999999707,931.4999999999707,898.2999999999884,931.4999999999707,1.0,0.0,0.0,,Click Response,1_count,3.0,object-46,temp_dist_trial,43.0,s_sh_18_1,student_shared,wall calendar,3.0,competing,paired,s_sh_18_1.jpg,Student,$${counterbalance_group},,sub-72
Desktop or Laptop,Chromium OS 14541.0.0,Chrome 137.0.0.0,1366x768,1821x798,Temporal Distance Task,cb_03,44.0,temp_dist_trial,num_items,zn7si1,1.0,response,2_ITEM,1253.2000000000114,1232.3000000000175,1253.2000000000114,1253.2000000000114,1232.3000000000175,1253.2000000000114,1.0,0.0,0.0,,Click Response,2_count,5.0,object-49,temp_dist_trial,44.0,s_sh_13_1,student_shared,index cards,3.0,competing,paired,s_sh_13_1.jpg,Student,$${counterbalance_group},,sub-72
Desktop or Laptop,Chromium OS 14541.0.0,Chrome 137.0.0.0,1366x768,1821x798,Temporal Distance Task,cb_03,44.0,temp_dist_trial,dist_items,qkpkxw,2.0,info,,14.899999999819554,0.0,14.899999999819554,14.899999999819554,0.0,14.899999999819554,1.0,0.0,0.0,,Slider,Slider,4.0,object-56,temp_dist_trial,44.0,s_sh_13_1,student_shared,index cards,3.0,competing,paired,s_sh_13_1.jpg,Student,$${counterbalance_group},,sub-72
Desktop or Laptop,Chromium OS 14541.0.0,Chrome 137.0.0.0,1366x768,1821x798,Temporal Distance Task,cb_03,44.0,temp_dist_trial,dist_items,qkpkxw,2.0,continue,,5832.8999999998205,5823.300000000018,5832.8999999998205,5832.8999999998205,5823.300000000018,5832.8999999998205,1.0,0.0,0.0,,Click To Continue,Next button,7.0,object-60,temp_dist_trial,44.0,s_sh_13_1,student_shared,index cards,3.0,competing,paired,s_sh_13_1.jpg,Student,$${counterbalance_group},,sub-72
Desktop or Laptop,Chromium OS 14541.0.0,Chrome 137.0.0.0,1366x768,1821x798,Temporal Distance Task,cb_03,44.0,temp_dist_trial,dist_items,qkpkxw,2.0,response,14,4325.899999999994,5823.300000000018,5850.200000000099,4325.899999999994,5823.300000000018,5850.200000000099,1.0,1524.3000000001048,0.0,,Slider,Slider,4.0,object-56,temp_dist_trial,44.0,s_sh_13_1,student_shared,index cards,3.0,competing,paired,s_sh_13_1.jpg,Student,$${counterbalance_group},,sub-72
Desktop or Laptop,Chromium OS 14541.0.0,Chrome 137.0.0.0,1366x768,1821x798,Temporal Distance Task,cb_03,45.0,temp_dist_trial,num_items,zn7si1,1.0,response,2_ITEM,1928.6999999998952,1897.3999999999944,1928.6999999998952,1928.6999999998952,1897.3999999999944,1928.6999999998952,1.0,0.0,0.0,,Click Response,2_count,5.0,object-49,temp_dist_trial,45.0,s_sh_24_1,student_shared,desk organizer,3.0,competing,paired,s_sh_24_1.jpg,Student,$${counterbalance_group},,sub-72
Desktop or Laptop,Chromium OS 14541.0.0,Chrome 137.0.0.0,1366x768,1821x798,Temporal Distance Task,cb_03,45.0,temp_dist_trial,dist_items,qkpkxw,2.0,info,,23.899999999906868,0.0,23.899999999906868,23.899999999906868,0.0,23.899999999906868,1.0,0.0,0.0,,Slider,Slider,4.0,object-56,temp_dist_trial,45.0,s_sh_24_1,student_shared,desk organizer,3.0,competing,paired,s_sh_24_1.jpg,Student,$${counterbalance_group},,sub-72
Desktop or Laptop,Chromium OS 14541.0.0,Chrome 137.0.0.0,1366x768,1821x798,Temporal Distance Task,cb_03,45.0,temp_dist_trial,dist_items,qkpkxw,2.0,continue,,3860.0,3826.799999999989,3860.0,3860.0,3826.799999999989,3860.0,1.0,0.0,0.0,,Click To Continue,Next button,7.0,object-60,temp_dist_trial,45.0,s_sh_24_1,student_shared,desk organizer,3.0,competing,paired,s_sh_24_1.jpg,Student,$${counterbalance_group},,sub-72
Desktop or Laptop,Chromium OS 14541.0.0,Chrome 137.0.0.0,1366x768,1821x798,Temporal Distance Task,cb_03,45.0,temp_dist_trial,dist_items,qkpkxw,2.0,response,36,1863.1000000000056,3826.799999999989,3860.0999999999767,1863.1000000000056,3826.799999999989,3860.0999999999767,1.0,1996.999999999971,0.0,,Slider,Slider,4.0,object-56,temp_dist_trial,45.0,s_sh_24_1,student_shared,desk organizer,3.0,competing,paired,s_sh_24_1.jpg,Student,$${counterbalance_group},,sub-72
Desktop or Laptop,Chromium OS 14541.0.0,Chrome 137.0.0.0,1366x768,1821x798,Temporal Distance Task,cb_03,46.0,temp_dist_trial,num_items,zn7si1,1.0,response,1_ITEM,1867.499999999825,1864.0,1867.499999999825,1867.499999999825,1864.0,1867.499999999825,1.0,0.0,0.0,,Click Response,1_count,3.0,object-46,temp_dist_trial,46.0,s_sh_07_1,student_shared,ruler,3.0,competing,single,s_sh_07_1.jpg,Student,$${counterbalance_group},,sub-72
Desktop or Laptop,Chromium OS 14541.0.0,Chrome 137.0.0.0,1366x768,1821x798,Temporal Distance Task,cb_03,47.0,temp_dist_trial,num_items,zn7si1,1.0,response,1_ITEM,981.3999999998197,966.1000000000058,981.3999999998197,981.3999999998197,966.1000000000058,981.3999999998197,1.0,0.0,0.0,,Click Response,1_count,3.0,object-46,temp_dist_trial,47.0,s_sh_17_1,student_shared,wireless mouse,3.0,competing,paired,s_sh_17_1.jpg,Student,$${counterbalance_group},,sub-72
Desktop or Laptop,Chromium OS 14541.0.0,Chrome 137.0.0.0,1366x768,1821x798,Temporal Distance Task,cb_03,48.0,temp_dist_trial,num_items,zn7si1,1.0,response,1_ITEM,892.0000000000873,864.8999999999942,892.0000000000873,892.0000000000873,864.8999999999942,892.0000000000873,1.0,0.0,0.0,,Click Response,1_count,3.0,object-46,temp_dist_trial,48.0,s_sh_05_1,student_shared,laptop,3.0,competing,single,s_sh_05_1.jpg,Student,$${counterbalance_group},,sub-72
Desktop or Laptop,Chromium OS 14541.0.0,Chrome 137.0.0.0,1366x768,1821x798,Temporal Distance Task,cb_03,2.0,temp_eventStart,Screen 1,dgtyxe,1.0,continue,,1540.2999999999884,1530.6999999999825,1540.2999999999884,1540.2999999999884,1530.6999999999825,1540.2999999999884,1.0,0.0,0.0,,Click To Continue,Next Button,3.0,object-43,temp_eventStart,,,Travel,,,,,,,$${counterbalance_group},,sub-72
Desktop or Laptop,Chromium OS 14541.0.0,Chrome 137.0.0.0,1366x768,1821x798,Temporal Distance Task,cb_03,49.0,temp_dist_trial,num_items,zn7si1,1.0,response,1_ITEM,2578.39999999982,2563.700000000012,2578.39999999982,2578.39999999982,2563.700000000012,2578.39999999982,1.0,0.0,0.0,,Click Response,1_count,3.0,object-46,temp_dist_trial,1.0,t_s_14_1,travel_shared,hand sanitizer,3.0,competing,paired,t_s_14_1.jpg,Travel,$${counterbalance_group},,sub-72
Desktop or Laptop,Chromium OS 14541.0.0,Chrome 137.0.0.0,1366x768,1821x798,Temporal Distance Task,cb_03,50.0,temp_dist_trial,num_items,zn7si1,1.0,response,1_ITEM,986.0000000000873,966.0,986.0000000000873,986.0000000000873,966.0,986.0000000000873,1.0,0.0,0.0,,Click Response,1_count,3.0,object-46,temp_dist_trial,2.0,t_s_01_1,travel_shared,fanny pack,3.0,competing,paired,t_s_01_1.jpg,Travel,$${counterbalance_group},,sub-72
Desktop or Laptop,Chromium OS 14541.0.0,Chrome 137.0.0.0,1366x768,1821x798,Temporal Distance Task,cb_03,51.0,temp_dist_trial,num_items,zn7si1,1.0,response,1_ITEM,891.5999999998021,866.0999999999768,891.5999999998021,891.5999999998021,866.0999999999768,891.5999999998021,1.0,0.0,0.0,,Click Response,1_count,3.0,object-46,temp_dist_trial,3.0,t_m_16_1,travel_Miami,flippers,3.0,unique,single,t_m_16_1.jpg,Travel,$${counterbalance_group},,sub-72
Desktop or Laptop,Chromium OS 14541.0.0,Chrome 137.0.0.0,1366x768,1821x798,Temporal Distance Task,cb_03,52.0,temp_dist_trial,num_items,zn7si1,1.0,response,2_ITEM,1529.5000000000873,1499.3999999999942,1529.5000000000873,1529.5000000000873,1499.3999999999942,1529.5000000000873,1.0,0.0,0.0,,Click Response,2_count,5.0,object-49,temp_dist_trial,4.0,t_s_06_1,travel_shared,luggage,3.0,competing,paired,t_s_06_1.jpg,Travel,$${counterbalance_group},,sub-72
Desktop or Laptop,Chromium OS 14541.0.0,Chrome 137.0.0.0,1366x768,1821x798,Temporal Distance Task,cb_03,52.0,temp_dist_trial,dist_items,qkpkxw,2.0,info,,15.800000000104776,0.0,15.800000000104776,15.800000000104776,0.0,15.800000000104776,1.0,0.0,0.0,,Slider,Slider,4.0,object-56,temp_dist_trial,4.0,t_s_06_1,travel_shared,luggage,3.0,competing,paired,t_s_06_1.jpg,Travel,$${counterbalance_group},,sub-72
Desktop or Laptop,Chromium OS 14541.0.0,Chrome 137.0.0.0,1366x768,1821x798,Temporal Distance Task,cb_03,52.0,temp_dist_trial,dist_items,qkpkxw,2.0,continue,,4418.800000000105,4392.600000000006,4418.800000000105,4418.800000000105,4392.600000000006,4418.800000000105,1.0,0.0,0.0,,Click To Continue,Next button,7.0,object-60,temp_dist_trial,4.0,t_s_06_1,travel_shared,luggage,3.0,competing,paired,t_s_06_1.jpg,Travel,$${counterbalance_group},,sub-72
Desktop or Laptop,Chromium OS 14541.0.0,Chrome 137.0.0.0,1366x768,1821x798,Temporal Distance Task,cb_03,52.0,temp_dist_trial,dist_items,qkpkxw,2.0,response,13,2266.4000000000233,4392.600000000006,4425.899999999994,2266.4000000000233,4392.600000000006,4425.899999999994,1.0,2159.499999999971,0.0,,Slider,Slider,4.0,object-56,temp_dist_trial,4.0,t_s_06_1,travel_shared,luggage,3.0,competing,paired,t_s_06_1.jpg,Travel,$${counterbalance_group},,sub-72
Desktop or Laptop,Chromium OS 14541.0.0,Chrome 137.0.0.0,1366x768,1821x798,Temporal Distance Task,cb_03,53.0,temp_dist_trial,num_items,zn7si1,1.0,response,1_ITEM,1498.200000000099,1466.6000000000058,1498.200000000099,1498.200000000099,1466.6000000000058,1498.200000000099,1.0,0.0,0.0,,Click Response,1_count,3.0,object-46,temp_dist_trial,5.0,t_i_19_1,travel_Iceland,rope,3.0,unique,single,t_i_19_1.jpg,Travel,$${counterbalance_group},,sub-72
Desktop or Laptop,Chromium OS 14541.0.0,Chrome 137.0.0.0,1366x768,1821x798,Temporal Distance Task,cb_03,54.0,temp_dist_trial,num_items,zn7si1,1.0,response,1_ITEM,1013.8999999998197,999.5,1013.8999999998197,1013.8999999998197,999.5,1013.8999999998197,1.0,0.0,0.0,,Click Response,1_count,3.0,object-46,temp_dist_trial,6.0,t_s_19_1,travel_shared,pajamas,3.0,competing,paired,t_s_19_1.jpg,Travel,$${counterbalance_group},,sub-72
Desktop or Laptop,Chromium OS 14541.0.0,Chrome 137.0.0.0,1366x768,1821x798,Temporal Distance Task,cb_03,55.0,temp_dist_trial,num_items,zn7si1,1.0,response,2_ITEM,1726.1000000000934,1696.7999999999884,1726.1000000000934,1726.1000000000934,1696.7999999999884,1726.1000000000934,1.0,0.0,0.0,,Click Response,2_count,5.0,object-49,temp_dist_trial,7.0,t_s_17_1,travel_shared,toothbrush,3.0,competing,single,t_s_17_1.jpg,Travel,$${counterbalance_group},,sub-72
Desktop or Laptop,Chromium OS 14541.0.0,Chrome 137.0.0.0,1366x768,1821x798,Temporal Distance Task,cb_03,55.0,temp_dist_trial,dist_items,qkpkxw,2.0,info,,16.10000000000582,0.0,16.10000000000582,16.10000000000582,0.0,16.10000000000582,1.0,0.0,0.0,,Slider,Slider,4.0,object-56,temp_dist_trial,7.0,t_s_17_1,travel_shared,toothbrush,3.0,competing,single,t_s_17_1.jpg,Travel,$${counterbalance_group},,sub-72
Desktop or Laptop,Chromium OS 14541.0.0,Chrome 137.0.0.0,1366x768,1821x798,Temporal Distance Task,cb_03,55.0,temp_dist_trial,dist_items,qkpkxw,2.0,continue,,3760.200000000099,3727.8999999999933,3760.200000000099,3760.200000000099,3727.8999999999933,3760.200000000099,1.0,0.0,0.0,,Click To Continue,Next button,7.0,object-60,temp_dist_trial,7.0,t_s_17_1,travel_shared,toothbrush,3.0,competing,single,t_s_17_1.jpg,Travel,$${counterbalance_group},,sub-72
Desktop or Laptop,Chromium OS 14541.0.0,Chrome 137.0.0.0,1366x768,1821x798,Temporal Distance Task,cb_03,55.0,temp_dist_trial,dist_items,qkpkxw,2.0,response,27,1533.2000000000116,3727.8999999999933,3761.299999999989,1533.2000000000116,3727.8999999999933,3761.299999999989,1.0,2228.0999999999767,0.0,,Slider,Slider,4.0,object-56,temp_dist_trial,7.0,t_s_17_1,travel_shared,toothbrush,3.0,competing,single,t_s_17_1.jpg,Travel,$${counterbalance_group},,sub-72
Desktop or Laptop,Chromium OS 14541.0.0,Chrome 137.0.0.0,1366x768,1821x798,Temporal Distance Task,cb_03,56.0,temp_dist_trial,num_items,zn7si1,1.0,response,1_ITEM,1221.4999999998254,1198.1000000000058,1221.4999999998254,1221.4999999998254,1198.1000000000058,1221.4999999998254,1.0,0.0,0.0,,Click Response,1_count,3.0,object-46,temp_dist_trial,8.0,t_s_11_1,travel_shared,eye mask,3.0,competing,single,t_s_11_1.jpg,Travel,$${counterbalance_group},,sub-72
Desktop or Laptop,Chromium OS 14541.0.0,Chrome 137.0.0.0,1366x768,1821x798,Temporal Distance Task,cb_03,57.0,temp_dist_trial,num_items,zn7si1,1.0,response,1_ITEM,1162.3000000001048,1131.9000000000233,1162.3000000001048,1162.3000000001048,1131.9000000000233,1162.3000000001048,1.0,0.0,0.0,,Click Response,1_count,3.0,object-46,temp_dist_trial,9.0,t_s_23_1,travel_shared,ball cap,3.0,competing,paired,t_s_23_1.jpg,Travel,$${counterbalance_group},,sub-72
Desktop or Laptop,Chromium OS 14541.0.0,Chrome 137.0.0.0,1366x768,1821x798,Temporal Distance Task,cb_03,58.0,temp_dist_trial,num_items,zn7si1,1.0,response,2_ITEM,1648.5999999998019,1632.7999999999884,1648.5999999998019,1648.5999999998019,1632.7999999999884,1648.5999999998019,1.0,0.0,0.0,,Click Response,2_count,5.0,object-49,temp_dist_trial,10.0,t_s_13_1,travel_shared,contact lens case,3.0,competing,paired,t_s_13_1.jpg,Travel,$${counterbalance_group},,sub-72
Desktop or Laptop,Chromium OS 14541.0.0,Chrome 137.0.0.0,1366x768,1821x798,Temporal Distance Task,cb_03,58.0,temp_dist_trial,dist_items,qkpkxw,2.0,info,,20.000000000087308,0.0,20.000000000087308,20.000000000087308,0.0,20.000000000087308,1.0,0.0,0.0,,Slider,Slider,4.0,object-56,temp_dist_trial,10.0,t_s_13_1,travel_shared,contact lens case,3.0,competing,paired,t_s_13_1.jpg,Travel,$${counterbalance_group},,sub-72
Desktop or Laptop,Chromium OS 14541.0.0,Chrome 137.0.0.0,1366x768,1821x798,Temporal Distance Task,cb_03,58.0,temp_dist_trial,dist_items,qkpkxw,2.0,response,dist_miss,6988.5,6988.5,6988.5,6988.5,6988.5,6988.5,1.0,0.0,0.0,dist_miss_tag,Time Limit,screen,0.0,screen,temp_dist_trial,10.0,t_s_13_1,travel_shared,contact lens case,3.0,competing,paired,t_s_13_1.jpg,Travel,$${counterbalance_group},,sub-72
Desktop or Laptop,Chromium OS 14541.0.0,Chrome 137.0.0.0,1366x768,1821x798,Temporal Distance Task,cb_03,58.0,temp_dist_trial,dist_items,qkpkxw,2.0,response,42,3827.1000000000067,6988.5,6991.799999999901,3827.1000000000067,6988.5,6991.799999999901,1.0,3164.699999999895,0.0,,Slider,Slider,4.0,object-56,temp_dist_trial,10.0,t_s_13_1,travel_shared,contact lens case,3.0,competing,paired,t_s_13_1.jpg,Travel,$${counterbalance_group},,sub-72
Desktop or Laptop,Chromium OS 14541.0.0,Chrome 137.0.0.0,1366x768,1821x798,Temporal Distance Task,cb_03,59.0,temp_dist_trial,num_items,zn7si1,1.0,response,2_ITEM,2422.3999999999937,2395.3999999999937,2422.3999999999937,2422.3999999999937,2395.3999999999937,2422.3999999999937,1.0,0.0,0.0,,Click Response,2_count,5.0,object-49,temp_dist_trial,11.0,t_m_04_1,travel_Miami,UV jacket,3.0,unique,paired,t_m_04_1.jpg,Travel,$${counterbalance_group},,sub-72
Desktop or Laptop,Chromium OS 14541.0.0,Chrome 137.0.0.0,1366x768,1821x798,Temporal Distance Task,cb_03,59.0,temp_dist_trial,dist_items,qkpkxw,2.0,info,,17.0,0.0,17.0,17.0,0.0,17.0,1.0,0.0,0.0,,Slider,Slider,4.0,object-56,temp_dist_trial,11.0,t_m_04_1,travel_Miami,UV jacket,3.0,unique,paired,t_m_04_1.jpg,Travel,$${counterbalance_group},,sub-72
Desktop or Laptop,Chromium OS 14541.0.0,Chrome 137.0.0.0,1366x768,1821x798,Temporal Distance Task,cb_03,59.0,temp_dist_trial,dist_items,qkpkxw,2.0,continue,,3576.1000000000927,3560.6000000000067,3576.1000000000927,3576.1000000000927,3560.6000000000067,3576.1000000000927,1.0,0.0,0.0,,Click To Continue,Next button,7.0,object-60,temp_dist_trial,11.0,t_m_04_1,travel_Miami,UV jacket,3.0,unique,paired,t_m_04_1.jpg,Travel,$${counterbalance_group},,sub-72
Desktop or Laptop,Chromium OS 14541.0.0,Chrome 137.0.0.0,1366x768,1821x798,Temporal Distance Task,cb_03,59.0,temp_dist_trial,dist_items,qkpkxw,2.0,response,20,1766.5,3560.6000000000067,3577.3999999999073,1766.5,3560.6000000000067,3577.3999999999073,1.0,1810.8999999999066,0.0,,Slider,Slider,4.0,object-56,temp_dist_trial,11.0,t_m_04_1,travel_Miami,UV jacket,3.0,unique,paired,t_m_04_1.jpg,Travel,$${counterbalance_group},,sub-72
Desktop or Laptop,Chromium OS 14541.0.0,Chrome 137.0.0.0,1366x768,1821x798,Temporal Distance Task,cb_03,60.0,temp_dist_trial,num_items,zn7si1,1.0,response,2_ITEM,1280.0999999997148,1266.6000000000058,1280.0999999997148,1280.0999999997148,1266.6000000000058,1280.0999999997148,1.0,0.0,0.0,,Click Response,2_count,5.0,object-49,temp_dist_trial,12.0,t_s_08_1,travel_shared,hand lotion,3.0,competing,single,t_s_08_1.jpg,Travel,$${counterbalance_group},,sub-72
Desktop or Laptop,Chromium OS 14541.0.0,Chrome 137.0.0.0,1366x768,1821x798,Temporal Distance Task,cb_03,60.0,temp_dist_trial,dist_items,qkpkxw,2.0,info,,15.699999999807911,0.0,15.699999999807911,15.699999999807911,0.0,15.699999999807911,1.0,0.0,0.0,,Slider,Slider,4.0,object-56,temp_dist_trial,12.0,t_s_08_1,travel_shared,hand lotion,3.0,competing,single,t_s_08_1.jpg,Travel,$${counterbalance_group},,sub-72
Desktop or Laptop,Chromium OS 14541.0.0,Chrome 137.0.0.0,1366x768,1821x798,Temporal Distance Task,cb_03,60.0,temp_dist_trial,dist_items,qkpkxw,2.0,continue,,3476.0000000000873,3460.5,3476.0000000000873,3476.0000000000873,3460.5,3476.0000000000873,1.0,0.0,0.0,,Click To Continue,Next button,7.0,object-60,temp_dist_trial,12.0,t_s_08_1,travel_shared,hand lotion,3.0,competing,single,t_s_08_1.jpg,Travel,$${counterbalance_group},,sub-72
Desktop or Laptop,Chromium OS 14541.0.0,Chrome 137.0.0.0,1366x768,1821x798,Temporal Distance Task,cb_03,60.0,temp_dist_trial,dist_items,qkpkxw,2.0,response,14,1332.0,3460.5,3477.3999999999933,1332.0,3460.5,3477.3999999999933,1.0,2145.3999999999937,0.0,,Slider,Slider,4.0,object-56,temp_dist_trial,12.0,t_s_08_1,travel_shared,hand lotion,3.0,competing,single,t_s_08_1.jpg,Travel,$${counterbalance_group},,sub-72
Desktop or Laptop,Chromium OS 14541.0.0,Chrome 137.0.0.0,1366x768,1821x798,Temporal Distance Task,cb_03,61.0,temp_dist_trial,num_items,zn7si1,1.0,response,1_ITEM,1424.0999999997143,1399.7999999999884,1424.0999999997143,1424.0999999997143,1399.7999999999884,1424.0999999997143,1.0,0.0,0.0,,Click Response,1_count,3.0,object-46,temp_dist_trial,13.0,t_m_15_1,travel_Miami,shorts,3.0,unique,single,t_m_15_1.jpg,Travel,$${counterbalance_group},,sub-72
Desktop or Laptop,Chromium OS 14541.0.0,Chrome 137.0.0.0,1366x768,1821x798,Temporal Distance Task,cb_03,62.0,temp_dist_trial,num_items,zn7si1,1.0,response,1_ITEM,770.4000000000815,766.0999999999768,770.4000000000815,770.4000000000815,766.0999999999768,770.4000000000815,1.0,0.0,0.0,,Click Response,1_count,3.0,object-46,temp_dist_trial,14.0,t_s_22_1,travel_shared,belt,3.0,competing,single,t_s_22_1.jpg,Travel,$${counterbalance_group},,sub-72
Desktop or Laptop,Chromium OS 14541.0.0,Chrome 137.0.0.0,1366x768,1821x798,Temporal Distance Task,cb_03,63.0,temp_dist_trial,num_items,zn7si1,1.0,response,1_ITEM,829.9999999999127,798.7000000000116,829.9999999999127,829.9999999999127,798.7000000000116,829.9999999999127,1.0,0.0,0.0,,Click Response,1_count,3.0,object-46,temp_dist_trial,15.0,t_m_01_1,travel_Miami,sandals,3.0,unique,paired,t_m_01_1.jpg,Travel,$${counterbalance_group},,sub-72
Desktop or Laptop,Chromium OS 14541.0.0,Chrome 137.0.0.0,1366x768,1821x798,Temporal Distance Task,cb_03,64.0,temp_dist_trial,num_items,zn7si1,1.0,response,1_ITEM,1187.999999999709,1165.5999999999767,1187.999999999709,1187.999999999709,1165.5999999999767,1187.999999999709,1.0,0.0,0.0,,Click Response,1_count,3.0,object-46,temp_dist_trial,16.0,t_s_15_1,travel_shared,luggage tag,3.0,competing,paired,t_s_15_1.jpg,Travel,$${counterbalance_group},,sub-72
Desktop or Laptop,Chromium OS 14541.0.0,Chrome 137.0.0.0,1366x768,1821x798,Temporal Distance Task,cb_03,65.0,temp_dist_trial,num_items,zn7si1,1.0,response,1_ITEM,761.1999999997206,732.7000000000116,761.1999999997206,761.1999999997206,732.7000000000116,761.1999999997206,1.0,0.0,0.0,,Click Response,1_count,3.0,object-46,temp_dist_trial,17.0,t_s_20_1,travel_shared,travel pill case,3.0,competing,single,t_s_20_1.jpg,Travel,$${counterbalance_group},,sub-72
Desktop or Laptop,Chromium OS 14541.0.0,Chrome 137.0.0.0,1366x768,1821x798,Temporal Distance Task,cb_03,66.0,temp_dist_trial,num_items,zn7si1,1.0,response,1_ITEM,1249.1999999998952,1232.7999999999886,1249.1999999998952,1249.1999999998952,1232.7999999999886,1249.1999999998952,1.0,0.0,0.0,,Click Response,1_count,3.0,object-46,temp_dist_trial,18.0,t_i_15_1,travel_Iceland,compass,3.0,unique,paired,t_i_15_1.jpg,Travel,$${counterbalance_group},,sub-72
Desktop or Laptop,Chromium OS 14541.0.0,Chrome 137.0.0.0,1366x768,1821x798,Temporal Distance Task,cb_03,67.0,temp_dist_trial,num_items,zn7si1,1.0,response,1_ITEM,963.099999999802,932.6999999999823,963.099999999802,963.099999999802,932.6999999999823,963.099999999802,1.0,0.0,0.0,,Click Response,1_count,3.0,object-46,temp_dist_trial,19.0,t_m_10_1,travel_Miami,tanktop,3.0,unique,paired,t_m_10_1.jpg,Travel,$${counterbalance_group},,sub-72
Desktop or Laptop,Chromium OS 14541.0.0,Chrome 137.0.0.0,1366x768,1821x798,Temporal Distance Task,cb_03,68.0,temp_dist_trial,num_items,zn7si1,1.0,response,1_ITEM,1236.6999999997204,1232.5,1236.6999999997204,1236.6999999997204,1232.5,1236.6999999997204,1.0,0.0,0.0,,Click Response,1_count,3.0,object-46,temp_dist_trial,20.0,t_m_17_1,travel_Miami,water gun,3.0,unique,paired,t_m_17_1.jpg,Travel,$${counterbalance_group},,sub-72
Desktop or Laptop,Chromium OS 14541.0.0,Chrome 137.0.0.0,1366x768,1821x798,Temporal Distance Task,cb_03,69.0,temp_dist_trial,num_items,zn7si1,1.0,response,2_ITEM,1460.1999999997204,1432.7999999999884,1460.1999999997204,1460.1999999997204,1432.7999999999884,1460.1999999997204,1.0,0.0,0.0,,Click Response,2_count,5.0,object-49,temp_dist_trial,21.0,t_s_16_1,travel_shared,chapstick,3.0,competing,paired,t_s_16_1.jpg,Travel,$${counterbalance_group},,sub-72
Desktop or Laptop,Chromium OS 14541.0.0,Chrome 137.0.0.0,1366x768,1821x798,Temporal Distance Task,cb_03,69.0,temp_dist_trial,dist_items,qkpkxw,2.0,info,,14.899999999994181,0.0,14.899999999994181,14.899999999994181,0.0,14.899999999994181,1.0,0.0,0.0,,Slider,Slider,4.0,object-56,temp_dist_trial,21.0,t_s_16_1,travel_shared,chapstick,3.0,competing,paired,t_s_16_1.jpg,Travel,$${counterbalance_group},,sub-72
Desktop or Laptop,Chromium OS 14541.0.0,Chrome 137.0.0.0,1366x768,1821x798,Temporal Distance Task,cb_03,69.0,temp_dist_trial,dist_items,qkpkxw,2.0,continue,,3727.4000000000233,3694.1000000000067,3727.4000000000233,3727.4000000000233,3694.1000000000067,3727.4000000000233,1.0,0.0,0.0,,Click To Continue,Next button,7.0,object-60,temp_dist_trial,21.0,t_s_16_1,travel_shared,chapstick,3.0,competing,paired,t_s_16_1.jpg,Travel,$${counterbalance_group},,sub-72
Desktop or Laptop,Chromium OS 14541.0.0,Chrome 137.0.0.0,1366x768,1821x798,Temporal Distance Task,cb_03,69.0,temp_dist_trial,dist_items,qkpkxw,2.0,response,24,1732.6000000000058,3694.1000000000067,3727.4000000000233,1732.6000000000058,3694.1000000000067,3727.4000000000233,1.0,1994.8000000000175,0.0,,Slider,Slider,4.0,object-56,temp_dist_trial,21.0,t_s_16_1,travel_shared,chapstick,3.0,competing,paired,t_s_16_1.jpg,Travel,$${counterbalance_group},,sub-72
Desktop or Laptop,Chromium OS 14541.0.0,Chrome 137.0.0.0,1366x768,1821x798,Temporal Distance Task,cb_03,70.0,temp_dist_trial,num_items,zn7si1,1.0,response,1_ITEM,1943.2999999999884,1932.0,1943.2999999999884,1943.2999999999884,1932.0,1943.2999999999884,1.0,0.0,0.0,,Click Response,1_count,3.0,object-46,temp_dist_trial,22.0,t_i_09_1,travel_Iceland,ear muffs,3.0,unique,paired,t_i_09_1.jpg,Travel,$${counterbalance_group},,sub-72
Desktop or Laptop,Chromium OS 14541.0.0,Chrome 137.0.0.0,1366x768,1821x798,Temporal Distance Task,cb_03,71.0,temp_dist_trial,num_items,zn7si1,1.0,response,1_ITEM,859.6000000000058,832.6000000000058,859.6000000000058,859.6000000000058,832.6000000000058,859.6000000000058,1.0,0.0,0.0,,Click Response,1_count,3.0,object-46,temp_dist_trial,23.0,t_s_24_1,travel_shared,ear plugs,3.0,competing,paired,t_s_24_1.jpg,Travel,$${counterbalance_group},,sub-72
Desktop or Laptop,Chromium OS 14541.0.0,Chrome 137.0.0.0,1366x768,1821x798,Temporal Distance Task,cb_03,72.0,temp_dist_trial,num_items,zn7si1,1.0,response,1_ITEM,796.7999999998137,766.0,796.7999999998137,796.7999999998137,766.0,796.7999999998137,1.0,0.0,0.0,,Click Response,1_count,3.0,object-46,temp_dist_trial,24.0,t_s_03_1,travel_shared,portable charger,3.0,competing,paired,t_s_03_1.jpg,Travel,$${counterbalance_group},,sub-72
Desktop or Laptop,Chromium OS 14541.0.0,Chrome 137.0.0.0,1366x768,1821x798,Temporal Distance Task,cb_03,73.0,temp_dist_trial,num_items,zn7si1,1.0,response,1_ITEM,653.4999999999127,633.0,653.4999999999127,653.4999999999127,633.0,653.4999999999127,1.0,0.0,0.0,,Click Response,1_count,3.0,object-46,temp_dist_trial,25.0,t_s_07_1,travel_shared,phone charger cable,3.0,competing,single,t_s_07_1.jpg,Travel,$${counterbalance_group},,sub-72
Desktop or Laptop,Chromium OS 14541.0.0,Chrome 137.0.0.0,1366x768,1821x798,Temporal Distance Task,cb_03,74.0,temp_dist_trial,num_items,zn7si1,1.0,response,1_ITEM,150.6999999997206,133.29999999998836,150.6999999997206,150.6999999997206,133.29999999998836,150.6999999997206,1.0,0.0,0.0,,Click Response,1_count,3.0,object-46,temp_dist_trial,26.0,t_i_13_1,travel_Iceland,sleeping bag,3.0,unique,paired,t_i_13_1.jpg,Travel,$${counterbalance_group},,sub-72
Desktop or Laptop,Chromium OS 14541.0.0,Chrome 137.0.0.0,1366x768,1821x798,Temporal Distance Task,cb_03,75.0,temp_dist_trial,num_items,zn7si1,1.0,response,1_ITEM,131.29999999981374,100.10000000000582,131.29999999981374,131.29999999981374,100.10000000000582,131.29999999981374,1.0,0.0,0.0,,Click Response,1_count,3.0,object-46,temp_dist_trial,27.0,t_m_14_1,travel_Miami,swim goggles,3.0,unique,paired,t_m_14_1.jpg,Travel,$${counterbalance_group},,sub-72
Desktop or Laptop,Chromium OS 14541.0.0,Chrome 137.0.0.0,1366x768,1821x798,Temporal Distance Task,cb_03,76.0,temp_dist_trial,num_items,zn7si1,1.0,response,1_ITEM,129.4000000000815,99.09999999997672,129.4000000000815,129.4000000000815,99.09999999997672,129.4000000000815,1.0,0.0,0.0,,Click Response,1_count,3.0,object-46,temp_dist_trial,28.0,t_i_17_1,travel_Iceland,binoculars,3.0,unique,paired,t_i_17_1.jpg,Travel,$${counterbalance_group},,sub-72
Desktop or Laptop,Chromium OS 14541.0.0,Chrome 137.0.0.0,1366x768,1821x798,Temporal Distance Task,cb_03,77.0,temp_dist_trial,num_items,zn7si1,1.0,response,1_ITEM,127.49999999970896,100.0,127.49999999970896,127.49999999970896,100.0,127.49999999970896,1.0,0.0,0.0,,Click Response,1_count,3.0,object-46,temp_dist_trial,29.0,t_m_18_1,travel_Miami,waterproof tote,3.0,unique,single,t_m_18_1.jpg,Travel,$${counterbalance_group},,sub-72
Desktop or Laptop,Chromium OS 14541.0.0,Chrome 137.0.0.0,1366x768,1821x798,Temporal Distance Task,cb_03,78.0,temp_dist_trial,num_items,zn7si1,1.0,response,1_ITEM,54.800000000104774,33.30000000001746,54.800000000104774,54.800000000104774,33.30000000001746,54.800000000104774,1.0,0.0,0.0,,Click Response,1_count,3.0,object-46,temp_dist_trial,30.0,t_m_20_1,travel_Miami,inflatable beachball,3.0,unique,paired,t_m_20_1.jpg,Travel,$${counterbalance_group},,sub-72
Desktop or Laptop,Chromium OS 14541.0.0,Chrome 137.0.0.0,1366x768,1821x798,Temporal Distance Task,cb_03,79.0,temp_dist_trial,num_items,zn7si1,1.0,response,1_ITEM,1093.1999999998952,1066.0999999999767,1093.1999999998952,1093.1999999998952,1066.0999999999767,1093.1999999998952,1.0,0.0,0.0,,Click Response,1_count,3.0,object-46,temp_dist_trial,31.0,t_s_05_1,travel_shared,neck pillow,3.0,competing,single,t_s_05_1.jpg,Travel,$${counterbalance_group},,sub-72
Desktop or Laptop,Chromium OS 14541.0.0,Chrome 137.0.0.0,1366x768,1821x798,Temporal Distance Task,cb_03,80.0,temp_dist_trial,num_items,zn7si1,1.0,response,1_ITEM,2771.199999999895,2765.7999999999884,2771.199999999895,2771.199999999895,2765.7999999999884,2771.199999999895,1.0,0.0,0.0,,Click Response,1_count,3.0,object-46,temp_dist_trial,32.0,t_m_19_1,travel_Miami,surfboard,3.0,unique,single,t_m_19_1.jpg,Travel,$${counterbalance_group},,sub-72
Desktop or Laptop,Chromium OS 14541.0.0,Chrome 137.0.0.0,1366x768,1821x798,Temporal Distance Task,cb_03,81.0,temp_dist_trial,num_items,zn7si1,1.0,response,1_ITEM,804.5000000000873,799.5,804.5000000000873,804.5000000000873,799.5,804.5000000000873,1.0,0.0,0.0,,Click Response,1_count,3.0,object-46,temp_dist_trial,33.0,t_i_20_1,travel_Iceland,lantern,3.0,unique,single,t_i_20_1.jpg,Travel,$${counterbalance_group},,sub-72
Desktop or Laptop,Chromium OS 14541.0.0,Chrome 137.0.0.0,1366x768,1821x798,Temporal Distance Task,cb_03,82.0,temp_dist_trial,num_items,zn7si1,1.0,response,2_ITEM,1686.799999999901,1666.1000000000058,1686.799999999901,1686.799999999901,1666.1000000000058,1686.799999999901,1.0,0.0,0.0,,Click Response,2_count,5.0,object-49,temp_dist_trial,34.0,t_s_21_1,travel_shared,umbrella,3.0,competing,paired,t_s_21_1.jpg,Travel,$${counterbalance_group},,sub-72
Desktop or Laptop,Chromium OS 14541.0.0,Chrome 137.0.0.0,1366x768,1821x798,Temporal Distance Task,cb_03,82.0,temp_dist_trial,dist_items,qkpkxw,2.0,info,,15.899999999906864,0.0,15.899999999906864,15.899999999906864,0.0,15.899999999906864,1.0,0.0,0.0,,Slider,Slider,4.0,object-56,temp_dist_trial,34.0,t_s_21_1,travel_shared,umbrella,3.0,competing,paired,t_s_21_1.jpg,Travel,$${counterbalance_group},,sub-72
Desktop or Laptop,Chromium OS 14541.0.0,Chrome 137.0.0.0,1366x768,1821x798,Temporal Distance Task,cb_03,82.0,temp_dist_trial,dist_items,qkpkxw,2.0,continue,,3267.699999999721,3261.3999999999933,3267.699999999721,3267.699999999721,3261.3999999999933,3267.699999999721,1.0,0.0,0.0,,Click To Continue,Next button,7.0,object-60,temp_dist_trial,34.0,t_s_21_1,travel_shared,umbrella,3.0,competing,paired,t_s_21_1.jpg,Travel,$${counterbalance_group},,sub-72
Desktop or Laptop,Chromium OS 14541.0.0,Chrome 137.0.0.0,1366x768,1821x798,Temporal Distance Task,cb_03,82.0,temp_dist_trial,dist_items,qkpkxw,2.0,response,14,1199.8999999999942,3261.3999999999933,3283.1000000000927,1199.8999999999942,3261.3999999999933,3283.1000000000927,1.0,2083.200000000099,0.0,,Slider,Slider,4.0,object-56,temp_dist_trial,34.0,t_s_21_1,travel_shared,umbrella,3.0,competing,paired,t_s_21_1.jpg,Travel,$${counterbalance_group},,sub-72
Desktop or Laptop,Chromium OS 14541.0.0,Chrome 137.0.0.0,1366x768,1821x798,Temporal Distance Task,cb_03,83.0,temp_dist_trial,num_items,zn7si1,1.0,response,1_ITEM,1939.1000000000056,1933.2000000000119,1939.1000000000056,1939.1000000000056,1933.2000000000119,1939.1000000000056,1.0,0.0,0.0,,Click Response,1_count,3.0,object-46,temp_dist_trial,35.0,t_i_03_1,travel_Iceland,winter jacket,3.0,unique,paired,t_i_03_1.jpg,Travel,$${counterbalance_group},,sub-72
Desktop or Laptop,Chromium OS 14541.0.0,Chrome 137.0.0.0,1366x768,1821x798,Temporal Distance Task,cb_03,84.0,temp_dist_trial,num_items,zn7si1,1.0,response,1_ITEM,1297.9000000000815,1265.2999999999886,1297.9000000000815,1297.9000000000815,1265.2999999999886,1297.9000000000815,1.0,0.0,0.0,,Click Response,1_count,3.0,object-46,temp_dist_trial,36.0,t_m_12_1,travel_Miami,foldable pail and shovel,3.0,unique,paired,t_m_12_1.jpg,Travel,$${counterbalance_group},,sub-72
Desktop or Laptop,Chromium OS 14541.0.0,Chrome 137.0.0.0,1366x768,1821x798,Temporal Distance Task,cb_03,85.0,temp_dist_trial,num_items,zn7si1,1.0,response,1_ITEM,899.3999999999942,866.1000000000058,899.3999999999942,899.3999999999942,866.1000000000058,899.3999999999942,1.0,0.0,0.0,,Click Response,1_count,3.0,object-46,temp_dist_trial,37.0,t_i_10_1,travel_Iceland,trekking poles,3.0,unique,single,t_i_10_1.jpg,Travel,$${counterbalance_group},,sub-72
Desktop or Laptop,Chromium OS 14541.0.0,Chrome 137.0.0.0,1366x768,1821x798,Temporal Distance Task,cb_03,86.0,temp_dist_trial,num_items,zn7si1,1.0,response,1_ITEM,1046.9999999998254,1031.4000000000233,1046.9999999998254,1046.9999999998254,1031.4000000000233,1046.9999999998254,1.0,0.0,0.0,,Click Response,1_count,3.0,object-46,temp_dist_trial,38.0,t_s_10_1,travel_shared,luggage lock,3.0,competing,paired,t_s_10_1.jpg,Travel,$${counterbalance_group},,sub-72
Desktop or Laptop,Chromium OS 14541.0.0,Chrome 137.0.0.0,1366x768,1821x798,Temporal Distance Task,cb_03,87.0,temp_dist_trial,num_items,zn7si1,1.0,response,1_ITEM,957.8000000001047,932.5,957.8000000001047,957.8000000001047,932.5,957.8000000001047,1.0,0.0,0.0,,Click Response,1_count,3.0,object-46,temp_dist_trial,39.0,t_i_02_1,travel_Iceland,scarf,3.0,unique,paired,t_i_02_1.jpg,Travel,$${counterbalance_group},,sub-72
Desktop or Laptop,Chromium OS 14541.0.0,Chrome 137.0.0.0,1366x768,1821x798,Temporal Distance Task,cb_03,88.0,temp_dist_trial,num_items,zn7si1,1.0,response,2_ITEM,1629.0999999997143,1597.1000000000058,1629.0999999997143,1629.0999999997143,1597.1000000000058,1629.0999999997143,1.0,0.0,0.0,,Click Response,2_count,5.0,object-49,temp_dist_trial,40.0,t_i_07_1,travel_Iceland,hiking backpack,3.0,unique,paired,t_i_07_1.jpg,Travel,$${counterbalance_group},,sub-72
Desktop or Laptop,Chromium OS 14541.0.0,Chrome 137.0.0.0,1366x768,1821x798,Temporal Distance Task,cb_03,88.0,temp_dist_trial,dist_items,qkpkxw,2.0,info,,17.200000000011638,0.0,17.200000000011638,17.200000000011638,0.0,17.200000000011638,1.0,0.0,0.0,,Slider,Slider,4.0,object-56,temp_dist_trial,40.0,t_i_07_1,travel_Iceland,hiking backpack,3.0,unique,paired,t_i_07_1.jpg,Travel,$${counterbalance_group},,sub-72
Desktop or Laptop,Chromium OS 14541.0.0,Chrome 137.0.0.0,1366x768,1821x798,Temporal Distance Task,cb_03,88.0,temp_dist_trial,dist_items,qkpkxw,2.0,continue,,3818.300000000105,3793.200000000012,3818.300000000105,3818.300000000105,3793.200000000012,3818.300000000105,1.0,0.0,0.0,,Click To Continue,Next button,7.0,object-60,temp_dist_trial,40.0,t_i_07_1,travel_Iceland,hiking backpack,3.0,unique,paired,t_i_07_1.jpg,Travel,$${counterbalance_group},,sub-72
Desktop or Laptop,Chromium OS 14541.0.0,Chrome 137.0.0.0,1366x768,1821x798,Temporal Distance Task,cb_03,88.0,temp_dist_trial,dist_items,qkpkxw,2.0,response,15,1766.5,3793.200000000012,3826.5,1766.5,3793.200000000012,3826.5,1.0,2060.0,0.0,,Slider,Slider,4.0,object-56,temp_dist_trial,40.0,t_i_07_1,travel_Iceland,hiking backpack,3.0,unique,paired,t_i_07_1.jpg,Travel,$${counterbalance_group},,sub-72
Desktop or Laptop,Chromium OS 14541.0.0,Chrome 137.0.0.0,1366x768,1821x798,Temporal Distance Task,cb_03,89.0,temp_dist_trial,num_items,zn7si1,1.0,response,2_ITEM,1877.6999999997208,1863.2000000000119,1877.6999999997208,1877.6999999997208,1863.2000000000119,1877.6999999997208,1.0,0.0,0.0,,Click Response,2_count,5.0,object-49,temp_dist_trial,41.0,t_i_05_1,travel_Iceland,hiking boots,3.0,unique,paired,t_i_05_1.jpg,Travel,$${counterbalance_group},,sub-72
Desktop or Laptop,Chromium OS 14541.0.0,Chrome 137.0.0.0,1366x768,1821x798,Temporal Distance Task,cb_03,89.0,temp_dist_trial,dist_items,qkpkxw,2.0,info,,14.899999999732245,0.0,14.899999999732245,14.899999999732245,0.0,14.899999999732245,1.0,0.0,0.0,,Slider,Slider,4.0,object-56,temp_dist_trial,41.0,t_i_05_1,travel_Iceland,hiking boots,3.0,unique,paired,t_i_05_1.jpg,Travel,$${counterbalance_group},,sub-72
Desktop or Laptop,Chromium OS 14541.0.0,Chrome 137.0.0.0,1366x768,1821x798,Temporal Distance Task,cb_03,89.0,temp_dist_trial,dist_items,qkpkxw,2.0,continue,,3944.800000000105,3926.799999999989,3944.800000000105,3944.800000000105,3926.799999999989,3944.800000000105,1.0,0.0,0.0,,Click To Continue,Next button,7.0,object-60,temp_dist_trial,41.0,t_i_05_1,travel_Iceland,hiking boots,3.0,unique,paired,t_i_05_1.jpg,Travel,$${counterbalance_group},,sub-72
Desktop or Laptop,Chromium OS 14541.0.0,Chrome 137.0.0.0,1366x768,1821x798,Temporal Distance Task,cb_03,89.0,temp_dist_trial,dist_items,qkpkxw,2.0,response,28,1533.2000000000116,3926.799999999989,3945.800000000105,1533.2000000000116,3926.799999999989,3945.800000000105,1.0,2412.600000000093,0.0,,Slider,Slider,4.0,object-56,temp_dist_trial,41.0,t_i_05_1,travel_Iceland,hiking boots,3.0,unique,paired,t_i_05_1.jpg,Travel,$${counterbalance_group},,sub-72
Desktop or Laptop,Chromium OS 14541.0.0,Chrome 137.0.0.0,1366x768,1821x798,Temporal Distance Task,cb_03,90.0,temp_dist_trial,num_items,zn7si1,1.0,response,1_ITEM,1298.7999999999886,1265.5,1298.7999999999886,1298.7999999999886,1265.5,1298.7999999999886,1.0,0.0,0.0,,Click Response,1_count,3.0,object-46,temp_dist_trial,42.0,t_s_18_1,travel_shared,first aid kit,3.0,competing,single,t_s_18_1.jpg,Travel,$${counterbalance_group},,sub-72
Desktop or Laptop,Chromium OS 14541.0.0,Chrome 137.0.0.0,1366x768,1821x798,Temporal Distance Task,cb_03,91.0,temp_dist_trial,num_items,zn7si1,1.0,response,1_ITEM,838.6999999998953,832.7000000000116,838.6999999998953,838.6999999998953,832.7000000000116,838.6999999998953,1.0,0.0,0.0,,Click Response,1_count,3.0,object-46,temp_dist_trial,43.0,t_s_12_1,travel_shared,clear toiletry bag,3.0,competing,paired,t_s_12_1.jpg,Travel,$${counterbalance_group},,sub-72
Desktop or Laptop,Chromium OS 14541.0.0,Chrome 137.0.0.0,1366x768,1821x798,Temporal Distance Task,cb_03,92.0,temp_dist_trial,num_items,zn7si1,1.0,response,2_ITEM,2395.20000000007,2362.599999999977,2395.20000000007,2395.20000000007,2362.599999999977,2395.20000000007,1.0,0.0,0.0,,Click Response,2_count,5.0,object-49,temp_dist_trial,44.0,t_s_09_1,travel_shared,wallet,3.0,competing,paired,t_s_09_1.jpg,Travel,$${counterbalance_group},,sub-72
Desktop or Laptop,Chromium OS 14541.0.0,Chrome 137.0.0.0,1366x768,1821x798,Temporal Distance Task,cb_03,92.0,temp_dist_trial,dist_items,qkpkxw,2.0,info,,22.799999999930147,0.0,22.799999999930147,22.799999999930147,0.0,22.799999999930147,1.0,0.0,0.0,,Slider,Slider,4.0,object-56,temp_dist_trial,44.0,t_s_09_1,travel_shared,wallet,3.0,competing,paired,t_s_09_1.jpg,Travel,$${counterbalance_group},,sub-72
Desktop or Laptop,Chromium OS 14541.0.0,Chrome 137.0.0.0,1366x768,1821x798,Temporal Distance Task,cb_03,92.0,temp_dist_trial,dist_items,qkpkxw,2.0,continue,,3306.0000000001164,3294.200000000012,3306.0000000001164,3306.0000000001164,3294.200000000012,3306.0000000001164,1.0,0.0,0.0,,Click To Continue,Next button,7.0,object-60,temp_dist_trial,44.0,t_s_09_1,travel_shared,wallet,3.0,competing,paired,t_s_09_1.jpg,Travel,$${counterbalance_group},,sub-72
Desktop or Laptop,Chromium OS 14541.0.0,Chrome 137.0.0.0,1366x768,1821x798,Temporal Distance Task,cb_03,92.0,temp_dist_trial,dist_items,qkpkxw,2.0,response,49,1665.5,3294.200000000012,3307.5000000001164,1665.5,3294.200000000012,3307.5000000001164,1.0,1642.0000000001166,0.0,,Slider,Slider,4.0,object-56,temp_dist_trial,44.0,t_s_09_1,travel_shared,wallet,3.0,competing,paired,t_s_09_1.jpg,Travel,$${counterbalance_group},,sub-72
Desktop or Laptop,Chromium OS 14541.0.0,Chrome 137.0.0.0,1366x768,1821x798,Temporal Distance Task,cb_03,93.0,temp_dist_trial,num_items,zn7si1,1.0,response,1_ITEM,1047.0999999999183,1033.2999999999884,1047.0999999999183,1047.0999999999183,1033.2999999999884,1047.0999999999183,1.0,0.0,0.0,,Click Response,1_count,3.0,object-46,temp_dist_trial,45.0,t_i_08_1,travel_Iceland,thick socks,3.0,unique,single,t_i_08_1.jpg,Travel,$${counterbalance_group},,sub-72
Desktop or Laptop,Chromium OS 14541.0.0,Chrome 137.0.0.0,1366x768,1821x798,Temporal Distance Task,cb_03,94.0,temp_dist_trial,num_items,zn7si1,1.0,response,1_ITEM,851.4999999998255,831.7000000000116,851.4999999998255,851.4999999998255,831.7000000000116,851.4999999998255,1.0,0.0,0.0,,Click Response,1_count,3.0,object-46,temp_dist_trial,46.0,t_m_02_1,travel_Miami,t-shirt,3.0,unique,paired,t_m_02_1.jpg,Travel,$${counterbalance_group},,sub-72
Desktop or Laptop,Chromium OS 14541.0.0,Chrome 137.0.0.0,1366x768,1821x798,Temporal Distance Task,cb_03,95.0,temp_dist_trial,num_items,zn7si1,1.0,response,1_ITEM,762.5999999999185,732.9000000000232,762.5999999999185,762.5999999999185,732.9000000000232,762.5999999999185,1.0,0.0,0.0,,Click Response,1_count,3.0,object-46,temp_dist_trial,47.0,t_s_02_1,travel_shared,water bottle,3.0,competing,paired,t_s_02_1.jpg,Travel,$${counterbalance_group},,sub-72
Desktop or Laptop,Chromium OS 14541.0.0,Chrome 137.0.0.0,1366x768,1821x798,Temporal Distance Task,cb_03,96.0,temp_dist_trial,num_items,zn7si1,1.0,response,1_ITEM,840.0999999997438,832.8000000000467,840.0999999997438,840.0999999997438,832.8000000000467,840.0999999997438,1.0,0.0,0.0,,Click Response,1_count,3.0,object-46,temp_dist_trial,48.0,t_s_04_1,travel_shared,instant camera,3.0,competing,paired,t_s_04_1.jpg,Travel,$${counterbalance_group},,sub-72
Desktop or Laptop,Chromium OS 14541.0.0,Chrome 137.0.0.0,1366x768,1821x798,Temporal Distance Task,,,,,,,info,END,,,277846.0,,,,,,,,,,,,,,,,,,,,,,$${counterbalance_group},,sub-72
