Participant Device,Participant OS,Participant Browser,Participant Monitor Size,Participant Viewport Size,Task Name,Current Spreadsheet,Trial Number,Display,Screen,Screen ID,Screen Counter,Response Type,Response,Onset Time,Clock Time,Reaction Time,Absolute Onset Time,Absolute Clock Time,Absolute Reaction Time,Correct,Response Duration,Proportion,Tag,Component Name,Object Name,Object Number,Object ID,Spreadsheet: display,Spreadsheet: trial,Spreadsheet: stimulus_id,Spreadsheet: expected_goal,Spreadsheet: stimulus_name,Spreadsheet: c_group,Spreadsheet: condition,Spreadsheet: paired_status,Spreadsheet: stimulus_path,Spreadsheet: block_type,Manipulation: Spreadsheet,Store: enc_test_acc,sub_label
Desktop or Laptop,Linux x86_64,Chrome 137.0.0.0,3840x2160,2560x1440,Temporal Distance Task,,,,,,,info,BEGIN,,,,,,,,,,,,,,,,,,,,,,,,,$${counterbalance_group},,sub-92
Desktop or Laptop,Linux x86_64,Chrome 137.0.0.0,3840x2160,2560x1440,Temporal Distance Task,cb_01,1.0,temp_instructions,intro_screen,3tnme7,1.0,continue,,6205.29999998212,6195.5,6205.29999998212,6205.29999998212,6195.5,6205.29999998212,1.0,0.0,0.0,,Click To Continue,Continue Button,4.0,object-29,temp_instructions,,,Student,,,,,,,$${counterbalance_group},,sub-92
Desktop or Laptop,Linux x86_64,Chrome 137.0.0.0,3840x2160,2560x1440,Temporal Distance Task,cb_01,1.0,temp_instructions,intro_screen_2,52v7ur,2.0,continue,,5937.79999998212,5931.700000000003,5937.79999998212,5937.79999998212,5931.700000000003,5937.79999998212,1.0,0.0,0.0,,Click To Continue,Continue Button,4.0,object-39,temp_instructions,,,Student,,,,,,,$${counterbalance_group},,sub-92
Desktop or Laptop,Linux x86_64,Chrome 137.0.0.0,3840x2160,2560x1440,Temporal Distance Task,cb_01,1.0,temp_instructions,intro_screen_3,i7lvwx,3.0,continue,,5799.199999976157,5784.5999999999985,5799.199999976157,5799.199999976157,5784.5999999999985,5799.199999976157,1.0,0.0,0.0,,Click To Continue,Continue Button,4.0,object-67,temp_instructions,,,Student,,,,,,,$${counterbalance_group},,sub-92
Desktop or Laptop,Linux x86_64,Chrome 137.0.0.0,3840x2160,2560x1440,Temporal Distance Task,cb_01,1.0,temp_instructions,test_q1,5ieqx1,4.0,response,choice_3,6664.999999982119,6660.600000000002,6664.999999982119,6664.999999982119,6660.600000000002,6664.999999982119,1.0,0.0,0.0,,Click Response,choice_3,5.0,object-345,temp_instructions,,,Student,,,,,,,$${counterbalance_group},,sub-92
Desktop or Laptop,Linux x86_64,Chrome 137.0.0.0,3840x2160,2560x1440,Temporal Distance Task,cb_01,1.0,temp_instructions,score_corr,7ilvjr,5.0,continue,,906.3999999821173,895.6999999999971,906.3999999821173,906.3999999821173,895.6999999999971,906.3999999821173,1.0,0.0,0.0,,Click To Continue,Continue Button,3.0,object-23,temp_instructions,,,Student,,,,,,,$${counterbalance_group},,sub-92
Desktop or Laptop,Linux x86_64,Chrome 137.0.0.0,3840x2160,2560x1440,Temporal Distance Task,cb_01,1.0,temp_eventStart,Screen 1,dgtyxe,1.0,continue,,1202.5999999880805,1201.4000000000015,1202.5999999880805,1202.5999999880805,1201.4000000000015,1202.5999999880805,1.0,0.0,0.0,,Click To Continue,Next Button,3.0,object-43,temp_eventStart,,,Student,,,,,,,$${counterbalance_group},,sub-92
Desktop or Laptop,Linux x86_64,Chrome 137.0.0.0,3840x2160,2560x1440,Temporal Distance Task,cb_01,1.0,temp_dist_trial,num_items,zn7si1,1.0,response,1_ITEM,1449.5999999940395,1443.9000000000015,1449.5999999940395,1449.5999999940395,1443.9000000000015,1449.5999999940395,1.0,0.0,0.0,,Click Response,1_count,3.0,object-46,temp_dist_trial,1.0,s_sh_22_1,student_shared,hole puncher,1.0,competing,single,s_sh_22_1.jpg,Student,$${counterbalance_group},,sub-92
Desktop or Laptop,Linux x86_64,Chrome 137.0.0.0,3840x2160,2560x1440,Temporal Distance Task,cb_01,2.0,temp_dist_trial,num_items,zn7si1,1.0,response,2_ITEM,1590.8999999821176,1587.9000000000015,1590.8999999821176,1590.8999999821176,1587.9000000000015,1590.8999999821176,1.0,0.0,0.0,,Click Response,2_count,5.0,object-49,temp_dist_trial,2.0,s_sh_08_1,student_shared,post-its,1.0,competing,single,s_sh_08_1.jpg,Student,$${counterbalance_group},,sub-92
Desktop or Laptop,Linux x86_64,Chrome 137.0.0.0,3840x2160,2560x1440,Temporal Distance Task,cb_01,2.0,temp_dist_trial,dist_items,qkpkxw,2.0,info,,4.799999994036625,0.0,4.799999994036625,4.799999994036625,0.0,4.799999994036625,1.0,0.0,0.0,,Slider,Slider,4.0,object-56,temp_dist_trial,2.0,s_sh_08_1,student_shared,post-its,1.0,competing,single,s_sh_08_1.jpg,Student,$${counterbalance_group},,sub-92
Desktop or Laptop,Linux x86_64,Chrome 137.0.0.0,3840x2160,2560x1440,Temporal Distance Task,cb_01,2.0,temp_dist_trial,dist_items,qkpkxw,2.0,continue,,4034.699999999997,4033.3999999999933,4034.699999999997,4034.699999999997,4033.3999999999933,4034.699999999997,1.0,0.0,0.0,,Click To Continue,Next button,7.0,object-60,temp_dist_trial,2.0,s_sh_08_1,student_shared,post-its,1.0,competing,single,s_sh_08_1.jpg,Student,$${counterbalance_group},,sub-92
Desktop or Laptop,Linux x86_64,Chrome 137.0.0.0,3840x2160,2560x1440,Temporal Distance Task,cb_01,2.0,temp_dist_trial,dist_items,qkpkxw,2.0,response,65,1359.0999999999985,4033.3999999999933,4035.199999999997,1359.0999999999985,4033.3999999999933,4035.199999999997,1.0,2676.0999999999985,0.0,,Slider,Slider,4.0,object-56,temp_dist_trial,2.0,s_sh_08_1,student_shared,post-its,1.0,competing,single,s_sh_08_1.jpg,Student,$${counterbalance_group},,sub-92
Desktop or Laptop,Linux x86_64,Chrome 137.0.0.0,3840x2160,2560x1440,Temporal Distance Task,cb_01,3.0,temp_dist_trial,num_items,zn7si1,1.0,response,2_ITEM,1177.999999988082,1168.0,1177.999999988082,1177.999999988082,1168.0,1177.999999988082,1.0,0.0,0.0,,Click Response,2_count,5.0,object-49,temp_dist_trial,3.0,s_sh_10_1,student_shared,scissors,1.0,competing,paired,s_sh_10_1.jpg,Student,$${counterbalance_group},,sub-92
Desktop or Laptop,Linux x86_64,Chrome 137.0.0.0,3840x2160,2560x1440,Temporal Distance Task,cb_01,3.0,temp_dist_trial,dist_items,qkpkxw,2.0,info,,4.599999982121516,0.0,4.599999982121516,4.599999982121516,0.0,4.599999982121516,1.0,0.0,0.0,,Slider,Slider,4.0,object-56,temp_dist_trial,3.0,s_sh_10_1,student_shared,scissors,1.0,competing,paired,s_sh_10_1.jpg,Student,$${counterbalance_group},,sub-92
Desktop or Laptop,Linux x86_64,Chrome 137.0.0.0,3840x2160,2560x1440,Temporal Distance Task,cb_01,3.0,temp_dist_trial,dist_items,qkpkxw,2.0,continue,,2095.400000000001,2078.800000000003,2095.400000000001,2095.400000000001,2078.800000000003,2095.400000000001,1.0,0.0,0.0,,Click To Continue,Next button,7.0,object-60,temp_dist_trial,3.0,s_sh_10_1,student_shared,scissors,1.0,competing,paired,s_sh_10_1.jpg,Student,$${counterbalance_group},,sub-92
Desktop or Laptop,Linux x86_64,Chrome 137.0.0.0,3840x2160,2560x1440,Temporal Distance Task,cb_01,3.0,temp_dist_trial,dist_items,qkpkxw,2.0,response,35,680.3000000000029,2078.800000000003,2095.400000000001,680.3000000000029,2078.800000000003,2095.400000000001,1.0,1415.0999999999985,0.0,,Slider,Slider,4.0,object-56,temp_dist_trial,3.0,s_sh_10_1,student_shared,scissors,1.0,competing,paired,s_sh_10_1.jpg,Student,$${counterbalance_group},,sub-92
Desktop or Laptop,Linux x86_64,Chrome 137.0.0.0,3840x2160,2560x1440,Temporal Distance Task,cb_01,4.0,temp_dist_trial,num_items,zn7si1,1.0,response,2_ITEM,1721.1999999999966,1704.5,1721.1999999999966,1721.1999999999966,1704.5,1721.1999999999966,1.0,0.0,0.0,,Click Response,2_count,5.0,object-49,temp_dist_trial,4.0,s_s_07_1,student_stem,periodic table,1.0,unique,paired,s_s_07_1.jpg,Student,$${counterbalance_group},,sub-92
Desktop or Laptop,Linux x86_64,Chrome 137.0.0.0,3840x2160,2560x1440,Temporal Distance Task,cb_01,4.0,temp_dist_trial,dist_items,qkpkxw,2.0,info,,4.599999994039536,0.0,4.599999994039536,4.599999994039536,0.0,4.599999994039536,1.0,0.0,0.0,,Slider,Slider,4.0,object-56,temp_dist_trial,4.0,s_s_07_1,student_stem,periodic table,1.0,unique,paired,s_s_07_1.jpg,Student,$${counterbalance_group},,sub-92
Desktop or Laptop,Linux x86_64,Chrome 137.0.0.0,3840x2160,2560x1440,Temporal Distance Task,cb_01,4.0,temp_dist_trial,dist_items,qkpkxw,2.0,continue,,1745.8999999761581,1733.3000000000034,1745.8999999761581,1745.8999999761581,1733.3000000000034,1745.8999999761581,1.0,0.0,0.0,,Click To Continue,Next button,7.0,object-60,temp_dist_trial,4.0,s_s_07_1,student_stem,periodic table,1.0,unique,paired,s_s_07_1.jpg,Student,$${counterbalance_group},,sub-92
Desktop or Laptop,Linux x86_64,Chrome 137.0.0.0,3840x2160,2560x1440,Temporal Distance Task,cb_01,4.0,temp_dist_trial,dist_items,qkpkxw,2.0,response,66,563.6999999999971,1733.3000000000034,1746.5,563.6999999999971,1733.3000000000034,1746.5,1.0,1182.8000000000031,0.0,,Slider,Slider,4.0,object-56,temp_dist_trial,4.0,s_s_07_1,student_stem,periodic table,1.0,unique,paired,s_s_07_1.jpg,Student,$${counterbalance_group},,sub-92
Desktop or Laptop,Linux x86_64,Chrome 137.0.0.0,3840x2160,2560x1440,Temporal Distance Task,cb_01,5.0,temp_dist_trial,num_items,zn7si1,1.0,response,2_ITEM,1868.6999999999966,1865.0999999999985,1868.6999999999966,1868.6999999999966,1865.0999999999985,1868.6999999999966,1.0,0.0,0.0,,Click Response,2_count,5.0,object-49,temp_dist_trial,5.0,s_sh_04_1,student_shared,laptop stand,1.0,competing,single,s_sh_04_1.jpg,Student,$${counterbalance_group},,sub-92
Desktop or Laptop,Linux x86_64,Chrome 137.0.0.0,3840x2160,2560x1440,Temporal Distance Task,cb_01,5.0,temp_dist_trial,dist_items,qkpkxw,2.0,info,,4.299999982118608,0.0,4.299999982118608,4.299999982118608,0.0,4.299999982118608,1.0,0.0,0.0,,Slider,Slider,4.0,object-56,temp_dist_trial,5.0,s_sh_04_1,student_shared,laptop stand,1.0,competing,single,s_sh_04_1.jpg,Student,$${counterbalance_group},,sub-92
Desktop or Laptop,Linux x86_64,Chrome 137.0.0.0,3840x2160,2560x1440,Temporal Distance Task,cb_01,5.0,temp_dist_trial,dist_items,qkpkxw,2.0,continue,,1226.899999976158,1212.0999999999985,1226.899999976158,1226.899999976158,1212.0999999999985,1226.899999976158,1.0,0.0,0.0,,Click To Continue,Next button,7.0,object-60,temp_dist_trial,5.0,s_sh_04_1,student_shared,laptop stand,1.0,competing,single,s_sh_04_1.jpg,Student,$${counterbalance_group},,sub-92
Desktop or Laptop,Linux x86_64,Chrome 137.0.0.0,3840x2160,2560x1440,Temporal Distance Task,cb_01,5.0,temp_dist_trial,dist_items,qkpkxw,2.0,response,,1227.399999976158,1212.0999999999985,1227.399999976158,1227.399999976158,1212.0999999999985,1227.399999976158,1.0,0.0,0.0,,Slider,Slider,4.0,object-56,temp_dist_trial,5.0,s_sh_04_1,student_shared,laptop stand,1.0,competing,single,s_sh_04_1.jpg,Student,$${counterbalance_group},,sub-92
Desktop or Laptop,Linux x86_64,Chrome 137.0.0.0,3840x2160,2560x1440,Temporal Distance Task,cb_01,6.0,temp_dist_trial,num_items,zn7si1,1.0,response,2_ITEM,1462.9999999940412,1449.9000000000015,1462.9999999940412,1462.9999999940412,1449.9000000000015,1462.9999999940412,1.0,0.0,0.0,,Click Response,2_count,5.0,object-49,temp_dist_trial,6.0,s_sh_11_1,student_shared,pencil case,1.0,competing,paired,s_sh_11_1.jpg,Student,$${counterbalance_group},,sub-92
Desktop or Laptop,Linux x86_64,Chrome 137.0.0.0,3840x2160,2560x1440,Temporal Distance Task,cb_01,6.0,temp_dist_trial,dist_items,qkpkxw,2.0,info,,4.299999982118608,0.0,4.299999982118608,4.299999982118608,0.0,4.299999982118608,1.0,0.0,0.0,,Slider,Slider,4.0,object-56,temp_dist_trial,6.0,s_sh_11_1,student_shared,pencil case,1.0,competing,paired,s_sh_11_1.jpg,Student,$${counterbalance_group},,sub-92
Desktop or Laptop,Linux x86_64,Chrome 137.0.0.0,3840x2160,2560x1440,Temporal Distance Task,cb_01,6.0,temp_dist_trial,dist_items,qkpkxw,2.0,continue,,1483.3999999761581,1471.1999999999966,1483.3999999761581,1483.3999999761581,1471.1999999999966,1483.3999999761581,1.0,0.0,0.0,,Click To Continue,Next button,7.0,object-60,temp_dist_trial,6.0,s_sh_11_1,student_shared,pencil case,1.0,competing,paired,s_sh_11_1.jpg,Student,$${counterbalance_group},,sub-92
Desktop or Laptop,Linux x86_64,Chrome 137.0.0.0,3840x2160,2560x1440,Temporal Distance Task,cb_01,6.0,temp_dist_trial,dist_items,qkpkxw,2.0,response,64,796.9000000000017,1471.1999999999966,1483.7999999821186,796.9000000000017,1471.1999999999966,1483.7999999821186,1.0,686.8999999821173,0.0,,Slider,Slider,4.0,object-56,temp_dist_trial,6.0,s_sh_11_1,student_shared,pencil case,1.0,competing,paired,s_sh_11_1.jpg,Student,$${counterbalance_group},,sub-92
Desktop or Laptop,Linux x86_64,Chrome 137.0.0.0,3840x2160,2560x1440,Temporal Distance Task,cb_01,7.0,temp_dist_trial,num_items,zn7si1,1.0,response,2_ITEM,1115.999999988082,1100.0,1115.999999988082,1115.999999988082,1100.0,1115.999999988082,1.0,0.0,0.0,,Click Response,2_count,5.0,object-49,temp_dist_trial,7.0,s_a_10_1,student_art,tripod,1.0,unique,paired,s_a_10_1.jpg,Student,$${counterbalance_group},,sub-92
Desktop or Laptop,Linux x86_64,Chrome 137.0.0.0,3840x2160,2560x1440,Temporal Distance Task,cb_01,7.0,temp_dist_trial,dist_items,qkpkxw,2.0,info,,3.899999994042446,0.0,3.899999994042446,3.899999994042446,0.0,3.899999994042446,1.0,0.0,0.0,,Slider,Slider,4.0,object-56,temp_dist_trial,7.0,s_a_10_1,student_art,tripod,1.0,unique,paired,s_a_10_1.jpg,Student,$${counterbalance_group},,sub-92
Desktop or Laptop,Linux x86_64,Chrome 137.0.0.0,3840x2160,2560x1440,Temporal Distance Task,cb_01,7.0,temp_dist_trial,dist_items,qkpkxw,2.0,continue,,1148.3999999940424,1139.4000000000015,1148.3999999940424,1148.3999999940424,1139.4000000000015,1148.3999999940424,1.0,0.0,0.0,,Click To Continue,Next button,7.0,object-60,temp_dist_trial,7.0,s_a_10_1,student_art,tripod,1.0,unique,paired,s_a_10_1.jpg,Student,$${counterbalance_group},,sub-92
Desktop or Laptop,Linux x86_64,Chrome 137.0.0.0,3840x2160,2560x1440,Temporal Distance Task,cb_01,7.0,temp_dist_trial,dist_items,qkpkxw,2.0,response,78,415.20000000000437,1139.4000000000015,1148.8999999940424,415.20000000000437,1139.4000000000015,1148.8999999940424,1.0,733.6999999940381,0.0,,Slider,Slider,4.0,object-56,temp_dist_trial,7.0,s_a_10_1,student_art,tripod,1.0,unique,paired,s_a_10_1.jpg,Student,$${counterbalance_group},,sub-92
Desktop or Laptop,Linux x86_64,Chrome 137.0.0.0,3840x2160,2560x1440,Temporal Distance Task,cb_01,8.0,temp_dist_trial,num_items,zn7si1,1.0,response,1_ITEM,1041.0999999880805,1031.8000000000031,1041.0999999880805,1041.0999999880805,1031.8000000000031,1041.0999999880805,1.0,0.0,0.0,,Click Response,1_count,3.0,object-46,temp_dist_trial,8.0,s_a_12_1,student_art,saxophone,1.0,unique,single,s_a_12_1.jpg,Student,$${counterbalance_group},,sub-92
Desktop or Laptop,Linux x86_64,Chrome 137.0.0.0,3840x2160,2560x1440,Temporal Distance Task,cb_01,9.0,temp_dist_trial,num_items,zn7si1,1.0,response,1_ITEM,1286.3999999999942,1269.6999999999969,1286.3999999999942,1286.3999999999942,1269.6999999999969,1286.3999999999942,1.0,0.0,0.0,,Click Response,1_count,3.0,object-46,temp_dist_trial,9.0,s_s_02_1,student_stem,flask,1.0,unique,paired,s_s_02_1.jpg,Student,$${counterbalance_group},,sub-92
Desktop or Laptop,Linux x86_64,Chrome 137.0.0.0,3840x2160,2560x1440,Temporal Distance Task,cb_01,10.0,temp_dist_trial,num_items,zn7si1,1.0,response,2_ITEM,972.2999999821187,969.5999999999983,972.2999999821187,972.2999999821187,969.5999999999983,972.2999999821187,1.0,0.0,0.0,,Click Response,2_count,5.0,object-49,temp_dist_trial,10.0,s_sh_03_1,student_shared,highlighter,1.0,competing,paired,s_sh_03_1.jpg,Student,$${counterbalance_group},,sub-92
Desktop or Laptop,Linux x86_64,Chrome 137.0.0.0,3840x2160,2560x1440,Temporal Distance Task,cb_01,10.0,temp_dist_trial,dist_items,qkpkxw,2.0,info,,3.599999982121517,0.0,3.599999982121517,3.599999982121517,0.0,3.599999982121517,1.0,0.0,0.0,,Slider,Slider,4.0,object-56,temp_dist_trial,10.0,s_sh_03_1,student_shared,highlighter,1.0,competing,paired,s_sh_03_1.jpg,Student,$${counterbalance_group},,sub-92
Desktop or Laptop,Linux x86_64,Chrome 137.0.0.0,3840x2160,2560x1440,Temporal Distance Task,cb_01,10.0,temp_dist_trial,dist_items,qkpkxw,2.0,continue,,1738.0999999821215,1725.7000000000046,1738.0999999821215,1738.0999999821215,1725.7000000000046,1738.0999999821215,1.0,0.0,0.0,,Click To Continue,Next button,7.0,object-60,temp_dist_trial,10.0,s_sh_03_1,student_shared,highlighter,1.0,competing,paired,s_sh_03_1.jpg,Student,$${counterbalance_group},,sub-92
Desktop or Laptop,Linux x86_64,Chrome 137.0.0.0,3840x2160,2560x1440,Temporal Distance Task,cb_01,10.0,temp_dist_trial,dist_items,qkpkxw,2.0,response,20,630.2000000000044,1725.7000000000046,1738.5999999821215,630.2000000000044,1725.7000000000046,1738.5999999821215,1.0,1108.3999999821174,0.0,,Slider,Slider,4.0,object-56,temp_dist_trial,10.0,s_sh_03_1,student_shared,highlighter,1.0,competing,paired,s_sh_03_1.jpg,Student,$${counterbalance_group},,sub-92
Desktop or Laptop,Linux x86_64,Chrome 137.0.0.0,3840x2160,2560x1440,Temporal Distance Task,cb_01,11.0,temp_dist_trial,num_items,zn7si1,1.0,response,1_ITEM,1412.3999999821176,1399.9000000000015,1412.3999999821176,1412.3999999821176,1399.9000000000015,1412.3999999821176,1.0,0.0,0.0,,Click Response,1_count,3.0,object-46,temp_dist_trial,11.0,s_s_05_1,student_stem,lab goggles,1.0,unique,paired,s_s_05_1.jpg,Student,$${counterbalance_group},,sub-92
Desktop or Laptop,Linux x86_64,Chrome 137.0.0.0,3840x2160,2560x1440,Temporal Distance Task,cb_01,12.0,temp_dist_trial,num_items,zn7si1,1.0,response,1_ITEM,1488.9999999821155,1474.1999999999966,1488.9999999821155,1488.9999999821155,1474.1999999999966,1488.9999999821155,1.0,0.0,0.0,,Click Response,1_count,3.0,object-46,temp_dist_trial,12.0,s_s_01_1,student_stem,microscope,1.0,unique,paired,s_s_01_1.jpg,Student,$${counterbalance_group},,sub-92
Desktop or Laptop,Linux x86_64,Chrome 137.0.0.0,3840x2160,2560x1440,Temporal Distance Task,cb_01,13.0,temp_dist_trial,num_items,zn7si1,1.0,response,2_ITEM,923.4000000000017,921.0999999999983,923.4000000000017,923.4000000000017,921.0999999999983,923.4000000000017,1.0,0.0,0.0,,Click Response,2_count,5.0,object-49,temp_dist_trial,13.0,s_a_04_1,student_art,easel,1.0,unique,paired,s_a_04_1.jpg,Student,$${counterbalance_group},,sub-92
Desktop or Laptop,Linux x86_64,Chrome 137.0.0.0,3840x2160,2560x1440,Temporal Distance Task,cb_01,13.0,temp_dist_trial,dist_items,qkpkxw,2.0,info,,4.099999982121517,0.0,4.099999982121517,4.099999982121517,0.0,4.099999982121517,1.0,0.0,0.0,,Slider,Slider,4.0,object-56,temp_dist_trial,13.0,s_a_04_1,student_art,easel,1.0,unique,paired,s_a_04_1.jpg,Student,$${counterbalance_group},,sub-92
Desktop or Laptop,Linux x86_64,Chrome 137.0.0.0,3840x2160,2560x1440,Temporal Distance Task,cb_01,13.0,temp_dist_trial,dist_items,qkpkxw,2.0,continue,,2086.3999999940424,2071.199999999997,2086.3999999940424,2086.3999999940424,2071.199999999997,2086.3999999940424,1.0,0.0,0.0,,Click To Continue,Next button,7.0,object-60,temp_dist_trial,13.0,s_a_04_1,student_art,easel,1.0,unique,paired,s_a_04_1.jpg,Student,$${counterbalance_group},,sub-92
Desktop or Laptop,Linux x86_64,Chrome 137.0.0.0,3840x2160,2560x1440,Temporal Distance Task,cb_01,13.0,temp_dist_trial,dist_items,qkpkxw,2.0,response,63,1347.0,2071.199999999997,2086.699999976161,1347.0,2071.199999999997,2086.699999976161,1.0,739.699999976161,0.0,,Slider,Slider,4.0,object-56,temp_dist_trial,13.0,s_a_04_1,student_art,easel,1.0,unique,paired,s_a_04_1.jpg,Student,$${counterbalance_group},,sub-92
Desktop or Laptop,Linux x86_64,Chrome 137.0.0.0,3840x2160,2560x1440,Temporal Distance Task,cb_01,14.0,temp_dist_trial,num_items,zn7si1,1.0,response,1_ITEM,1271.0999999999913,1254.5,1271.0999999999913,1271.0999999999913,1254.5,1271.0999999999913,1.0,0.0,0.0,,Click Response,1_count,3.0,object-46,temp_dist_trial,14.0,s_sh_17_1,student_shared,wireless mouse,1.0,competing,single,s_sh_17_1.jpg,Student,$${counterbalance_group},,sub-92
Desktop or Laptop,Linux x86_64,Chrome 137.0.0.0,3840x2160,2560x1440,Temporal Distance Task,cb_01,15.0,temp_dist_trial,num_items,zn7si1,1.0,response,2_ITEM,844.8999999821242,836.3000000000029,844.8999999821242,844.8999999821242,836.3000000000029,844.8999999821242,1.0,0.0,0.0,,Click Response,2_count,5.0,object-49,temp_dist_trial,15.0,s_sh_13_1,student_shared,index cards,1.0,competing,paired,s_sh_13_1.jpg,Student,$${counterbalance_group},,sub-92
Desktop or Laptop,Linux x86_64,Chrome 137.0.0.0,3840x2160,2560x1440,Temporal Distance Task,cb_01,15.0,temp_dist_trial,dist_items,qkpkxw,2.0,info,,3.799999994036625,0.0,3.799999994036625,3.799999994036625,0.0,3.799999994036625,1.0,0.0,0.0,,Slider,Slider,4.0,object-56,temp_dist_trial,15.0,s_sh_13_1,student_shared,index cards,1.0,competing,paired,s_sh_13_1.jpg,Student,$${counterbalance_group},,sub-92
Desktop or Laptop,Linux x86_64,Chrome 137.0.0.0,3840x2160,2560x1440,Temporal Distance Task,cb_01,15.0,temp_dist_trial,dist_items,qkpkxw,2.0,continue,,1697.6999999999966,1690.8000000000034,1697.6999999999966,1697.6999999999966,1690.8000000000034,1697.6999999999966,1.0,0.0,0.0,,Click To Continue,Next button,7.0,object-60,temp_dist_trial,15.0,s_sh_13_1,student_shared,index cards,1.0,competing,paired,s_sh_13_1.jpg,Student,$${counterbalance_group},,sub-92
Desktop or Laptop,Linux x86_64,Chrome 137.0.0.0,3840x2160,2560x1440,Temporal Distance Task,cb_01,15.0,temp_dist_trial,dist_items,qkpkxw,2.0,response,62,931.6999999999972,1690.8000000000034,1698.0999999761555,931.6999999999972,1690.8000000000034,1698.0999999761555,1.0,766.3999999761581,0.0,,Slider,Slider,4.0,object-56,temp_dist_trial,15.0,s_sh_13_1,student_shared,index cards,1.0,competing,paired,s_sh_13_1.jpg,Student,$${counterbalance_group},,sub-92
Desktop or Laptop,Linux x86_64,Chrome 137.0.0.0,3840x2160,2560x1440,Temporal Distance Task,cb_01,16.0,temp_dist_trial,num_items,zn7si1,1.0,response,1_ITEM,1150.9999999940335,1143.8999999999942,1150.9999999940335,1150.9999999940335,1143.8999999999942,1150.9999999940335,1.0,0.0,0.0,,Click Response,1_count,3.0,object-46,temp_dist_trial,16.0,s_sh_06_1,student_shared,clipboard,1.0,competing,paired,s_sh_06_1.jpg,Student,$${counterbalance_group},,sub-92
Desktop or Laptop,Linux x86_64,Chrome 137.0.0.0,3840x2160,2560x1440,Temporal Distance Task,cb_01,17.0,temp_dist_trial,num_items,zn7si1,1.0,response,2_ITEM,917.2999999821187,904.6000000000058,917.2999999821187,917.2999999821187,904.6000000000058,917.2999999821187,1.0,0.0,0.0,,Click Response,2_count,5.0,object-49,temp_dist_trial,17.0,s_sh_16_1,student_shared,stapler,1.0,competing,paired,s_sh_16_1.jpg,Student,$${counterbalance_group},,sub-92
Desktop or Laptop,Linux x86_64,Chrome 137.0.0.0,3840x2160,2560x1440,Temporal Distance Task,cb_01,17.0,temp_dist_trial,dist_items,qkpkxw,2.0,info,,4.5,0.0,4.5,4.5,0.0,4.5,1.0,0.0,0.0,,Slider,Slider,4.0,object-56,temp_dist_trial,17.0,s_sh_16_1,student_shared,stapler,1.0,competing,paired,s_sh_16_1.jpg,Student,$${counterbalance_group},,sub-92
Desktop or Laptop,Linux x86_64,Chrome 137.0.0.0,3840x2160,2560x1440,Temporal Distance Task,cb_01,17.0,temp_dist_trial,dist_items,qkpkxw,2.0,continue,,1498.7999999821186,1492.3999999999942,1498.7999999821186,1498.7999999821186,1492.3999999999942,1498.7999999821186,1.0,0.0,0.0,,Click To Continue,Next button,7.0,object-60,temp_dist_trial,17.0,s_sh_16_1,student_shared,stapler,1.0,competing,paired,s_sh_16_1.jpg,Student,$${counterbalance_group},,sub-92
Desktop or Laptop,Linux x86_64,Chrome 137.0.0.0,3840x2160,2560x1440,Temporal Distance Task,cb_01,17.0,temp_dist_trial,dist_items,qkpkxw,2.0,response,81,347.0,1492.3999999999942,1499.0,347.0,1492.3999999999942,1499.0,1.0,1152.0,0.0,,Slider,Slider,4.0,object-56,temp_dist_trial,17.0,s_sh_16_1,student_shared,stapler,1.0,competing,paired,s_sh_16_1.jpg,Student,$${counterbalance_group},,sub-92
Desktop or Laptop,Linux x86_64,Chrome 137.0.0.0,3840x2160,2560x1440,Temporal Distance Task,cb_01,18.0,temp_dist_trial,num_items,zn7si1,1.0,response,1_ITEM,918.1000000000058,913.7000000000116,918.1000000000058,918.1000000000058,913.7000000000116,918.1000000000058,1.0,0.0,0.0,,Click Response,1_count,3.0,object-46,temp_dist_trial,18.0,s_a_05_1,student_art,clay,1.0,unique,single,s_a_05_1.jpg,Student,$${counterbalance_group},,sub-92
Desktop or Laptop,Linux x86_64,Chrome 137.0.0.0,3840x2160,2560x1440,Temporal Distance Task,cb_01,19.0,temp_dist_trial,num_items,zn7si1,1.0,response,1_ITEM,1251.0,1236.3999999999942,1251.0,1251.0,1236.3999999999942,1251.0,1.0,0.0,0.0,,Click Response,1_count,3.0,object-46,temp_dist_trial,19.0,s_s_12_1,student_stem,robotic arm,1.0,unique,paired,s_s_12_1.jpg,Student,$${counterbalance_group},,sub-92
Desktop or Laptop,Linux x86_64,Chrome 137.0.0.0,3840x2160,2560x1440,Temporal Distance Task,cb_01,20.0,temp_dist_trial,num_items,zn7si1,1.0,response,2_ITEM,1011.7999999940364,1003.0,1011.7999999940364,1011.7999999940364,1003.0,1011.7999999940364,1.0,0.0,0.0,,Click Response,2_count,5.0,object-49,temp_dist_trial,20.0,s_sh_14_1,student_shared,printer,1.0,competing,paired,s_sh_14_1.jpg,Student,$${counterbalance_group},,sub-92
Desktop or Laptop,Linux x86_64,Chrome 137.0.0.0,3840x2160,2560x1440,Temporal Distance Task,cb_01,20.0,temp_dist_trial,dist_items,qkpkxw,2.0,info,,3.6999999761610534,0.0,3.6999999761610534,3.6999999761610534,0.0,3.6999999761610534,1.0,0.0,0.0,,Slider,Slider,4.0,object-56,temp_dist_trial,20.0,s_sh_14_1,student_shared,printer,1.0,competing,paired,s_sh_14_1.jpg,Student,$${counterbalance_group},,sub-92
Desktop or Laptop,Linux x86_64,Chrome 137.0.0.0,3840x2160,2560x1440,Temporal Distance Task,cb_01,20.0,temp_dist_trial,dist_items,qkpkxw,2.0,continue,,1739.400000000009,1725.8000000000034,1739.400000000009,1739.400000000009,1725.8000000000034,1739.400000000009,1.0,0.0,0.0,,Click To Continue,Next button,7.0,object-60,temp_dist_trial,20.0,s_sh_14_1,student_shared,printer,1.0,competing,paired,s_sh_14_1.jpg,Student,$${counterbalance_group},,sub-92
Desktop or Laptop,Linux x86_64,Chrome 137.0.0.0,3840x2160,2560x1440,Temporal Distance Task,cb_01,20.0,temp_dist_trial,dist_items,qkpkxw,2.0,response,68,963.6999999999972,1725.8000000000034,1739.400000000009,963.6999999999972,1725.8000000000034,1739.400000000009,1.0,775.7000000000116,0.0,,Slider,Slider,4.0,object-56,temp_dist_trial,20.0,s_sh_14_1,student_shared,printer,1.0,competing,paired,s_sh_14_1.jpg,Student,$${counterbalance_group},,sub-92
Desktop or Laptop,Linux x86_64,Chrome 137.0.0.0,3840x2160,2560x1440,Temporal Distance Task,cb_01,21.0,temp_dist_trial,num_items,zn7si1,1.0,response,1_ITEM,1037.699999988079,1033.3000000000031,1037.699999988079,1037.699999988079,1033.3000000000031,1037.699999988079,1.0,0.0,0.0,,Click Response,1_count,3.0,object-46,temp_dist_trial,21.0,s_sh_24_1,student_shared,desk organizer,1.0,competing,paired,s_sh_24_1.jpg,Student,$${counterbalance_group},,sub-92
Desktop or Laptop,Linux x86_64,Chrome 137.0.0.0,3840x2160,2560x1440,Temporal Distance Task,cb_01,22.0,temp_dist_trial,num_items,zn7si1,1.0,response,1_ITEM,1037.7999999940366,1036.3000000000031,1037.7999999940366,1037.7999999940366,1036.3000000000031,1037.7999999940366,1.0,0.0,0.0,,Click Response,1_count,3.0,object-46,temp_dist_trial,22.0,s_sh_07_1,student_shared,ruler,1.0,competing,paired,s_sh_07_1.jpg,Student,$${counterbalance_group},,sub-92
Desktop or Laptop,Linux x86_64,Chrome 137.0.0.0,3840x2160,2560x1440,Temporal Distance Task,cb_01,23.0,temp_dist_trial,num_items,zn7si1,1.0,response,1_ITEM,902.9999999999852,886.2999999999884,902.9999999999852,902.9999999999852,886.2999999999884,902.9999999999852,1.0,0.0,0.0,,Click Response,1_count,3.0,object-46,temp_dist_trial,23.0,s_sh_12_1,student_shared,binder,1.0,competing,paired,s_sh_12_1.jpg,Student,$${counterbalance_group},,sub-92
Desktop or Laptop,Linux x86_64,Chrome 137.0.0.0,3840x2160,2560x1440,Temporal Distance Task,cb_01,24.0,temp_dist_trial,num_items,zn7si1,1.0,response,2_ITEM,917.499999976164,903.1000000000058,917.499999976164,917.499999976164,903.1000000000058,917.499999976164,1.0,0.0,0.0,,Click Response,2_count,5.0,object-49,temp_dist_trial,24.0,s_sh_23_1,student_shared,ballpoint pen,1.0,competing,paired,s_sh_23_1.jpg,Student,$${counterbalance_group},,sub-92
Desktop or Laptop,Linux x86_64,Chrome 137.0.0.0,3840x2160,2560x1440,Temporal Distance Task,cb_01,24.0,temp_dist_trial,dist_items,qkpkxw,2.0,info,,3.399999976158142,0.0,3.399999976158142,3.399999976158142,0.0,3.399999976158142,1.0,0.0,0.0,,Slider,Slider,4.0,object-56,temp_dist_trial,24.0,s_sh_23_1,student_shared,ballpoint pen,1.0,competing,paired,s_sh_23_1.jpg,Student,$${counterbalance_group},,sub-92
Desktop or Laptop,Linux x86_64,Chrome 137.0.0.0,3840x2160,2560x1440,Temporal Distance Task,cb_01,24.0,temp_dist_trial,dist_items,qkpkxw,2.0,continue,,1525.8999999761581,1524.1999999999966,1525.8999999761581,1525.8999999761581,1524.1999999999966,1525.8999999761581,1.0,0.0,0.0,,Click To Continue,Next button,7.0,object-60,temp_dist_trial,24.0,s_sh_23_1,student_shared,ballpoint pen,1.0,competing,paired,s_sh_23_1.jpg,Student,$${counterbalance_group},,sub-92
Desktop or Laptop,Linux x86_64,Chrome 137.0.0.0,3840x2160,2560x1440,Temporal Distance Task,cb_01,24.0,temp_dist_trial,dist_items,qkpkxw,2.0,response,71,865.1000000000058,1524.1999999999966,1526.1999999880786,865.1000000000058,1524.1999999999966,1526.1999999880786,1.0,661.0999999880733,0.0,,Slider,Slider,4.0,object-56,temp_dist_trial,24.0,s_sh_23_1,student_shared,ballpoint pen,1.0,competing,paired,s_sh_23_1.jpg,Student,$${counterbalance_group},,sub-92
Desktop or Laptop,Linux x86_64,Chrome 137.0.0.0,3840x2160,2560x1440,Temporal Distance Task,cb_01,25.0,temp_dist_trial,num_items,zn7si1,1.0,response,2_ITEM,921.8000000000028,913.6999999999972,921.8000000000028,921.8000000000028,913.6999999999972,921.8000000000028,1.0,0.0,0.0,,Click Response,2_count,5.0,object-49,temp_dist_trial,25.0,s_a_02_1,student_art,canvas,1.0,unique,paired,s_a_02_1.jpg,Student,$${counterbalance_group},,sub-92
Desktop or Laptop,Linux x86_64,Chrome 137.0.0.0,3840x2160,2560x1440,Temporal Distance Task,cb_01,25.0,temp_dist_trial,dist_items,qkpkxw,2.0,info,,4.299999994036625,0.0,4.299999994036625,4.299999994036625,0.0,4.299999994036625,1.0,0.0,0.0,,Slider,Slider,4.0,object-56,temp_dist_trial,25.0,s_a_02_1,student_art,canvas,1.0,unique,paired,s_a_02_1.jpg,Student,$${counterbalance_group},,sub-92
Desktop or Laptop,Linux x86_64,Chrome 137.0.0.0,3840x2160,2560x1440,Temporal Distance Task,cb_01,25.0,temp_dist_trial,dist_items,qkpkxw,2.0,continue,,1445.9999999821155,1436.3000000000034,1445.9999999821155,1445.9999999821155,1436.3000000000034,1445.9999999821155,1.0,0.0,0.0,,Click To Continue,Next button,7.0,object-60,temp_dist_trial,25.0,s_a_02_1,student_art,canvas,1.0,unique,paired,s_a_02_1.jpg,Student,$${counterbalance_group},,sub-92
Desktop or Laptop,Linux x86_64,Chrome 137.0.0.0,3840x2160,2560x1440,Temporal Distance Task,cb_01,25.0,temp_dist_trial,dist_items,qkpkxw,2.0,response,74,430.3000000000029,1436.3000000000034,1446.3999999880762,430.3000000000029,1436.3000000000034,1446.3999999880762,1.0,1016.0999999880733,0.0,,Slider,Slider,4.0,object-56,temp_dist_trial,25.0,s_a_02_1,student_art,canvas,1.0,unique,paired,s_a_02_1.jpg,Student,$${counterbalance_group},,sub-92
Desktop or Laptop,Linux x86_64,Chrome 137.0.0.0,3840x2160,2560x1440,Temporal Distance Task,cb_01,26.0,temp_dist_trial,num_items,zn7si1,1.0,response,1_ITEM,809.0,792.3999999999942,809.0,809.0,792.3999999999942,809.0,1.0,0.0,0.0,,Click Response,1_count,3.0,object-46,temp_dist_trial,26.0,s_s_19_1,student_stem,circuit board,1.0,unique,single,s_s_19_1.jpg,Student,$${counterbalance_group},,sub-92
Desktop or Laptop,Linux x86_64,Chrome 137.0.0.0,3840x2160,2560x1440,Temporal Distance Task,cb_01,27.0,temp_dist_trial,num_items,zn7si1,1.0,response,1_ITEM,878.1000000000058,869.7000000000116,878.1000000000058,878.1000000000058,869.7000000000116,878.1000000000058,1.0,0.0,0.0,,Click Response,1_count,3.0,object-46,temp_dist_trial,27.0,s_a_14_1,student_art,guitar pick,1.0,unique,single,s_a_14_1.jpg,Student,$${counterbalance_group},,sub-92
Desktop or Laptop,Linux x86_64,Chrome 137.0.0.0,3840x2160,2560x1440,Temporal Distance Task,cb_01,28.0,temp_dist_trial,num_items,zn7si1,1.0,response,2_ITEM,1261.9999999940335,1259.0999999999913,1261.9999999940335,1261.9999999940335,1259.0999999999913,1261.9999999940335,1.0,0.0,0.0,,Click Response,2_count,5.0,object-49,temp_dist_trial,28.0,s_s_09_1,student_stem,multimeter,1.0,unique,paired,s_s_09_1.jpg,Student,$${counterbalance_group},,sub-92
Desktop or Laptop,Linux x86_64,Chrome 137.0.0.0,3840x2160,2560x1440,Temporal Distance Task,cb_01,28.0,temp_dist_trial,dist_items,qkpkxw,2.0,info,,3.3000000000029104,0.0,3.3000000000029104,3.3000000000029104,0.0,3.3000000000029104,1.0,0.0,0.0,,Slider,Slider,4.0,object-56,temp_dist_trial,28.0,s_s_09_1,student_stem,multimeter,1.0,unique,paired,s_s_09_1.jpg,Student,$${counterbalance_group},,sub-92
Desktop or Laptop,Linux x86_64,Chrome 137.0.0.0,3840x2160,2560x1440,Temporal Distance Task,cb_01,28.0,temp_dist_trial,dist_items,qkpkxw,2.0,continue,,3116.699999999997,3100.0,3116.699999999997,3116.699999999997,3100.0,3116.699999999997,1.0,0.0,0.0,,Click To Continue,Next button,7.0,object-60,temp_dist_trial,28.0,s_s_09_1,student_stem,multimeter,1.0,unique,paired,s_s_09_1.jpg,Student,$${counterbalance_group},,sub-92
Desktop or Laptop,Linux x86_64,Chrome 137.0.0.0,3840x2160,2560x1440,Temporal Distance Task,cb_01,28.0,temp_dist_trial,dist_items,qkpkxw,2.0,response,86,684.9000000000087,3100.0,3116.699999999997,684.9000000000087,3100.0,3116.699999999997,1.0,2431.7999999999884,0.0,,Slider,Slider,4.0,object-56,temp_dist_trial,28.0,s_s_09_1,student_stem,multimeter,1.0,unique,paired,s_s_09_1.jpg,Student,$${counterbalance_group},,sub-92
Desktop or Laptop,Linux x86_64,Chrome 137.0.0.0,3840x2160,2560x1440,Temporal Distance Task,cb_01,29.0,temp_dist_trial,num_items,zn7si1,1.0,response,1_ITEM,930.0999999821216,922.6999999999972,930.0999999821216,930.0999999821216,922.6999999999972,930.0999999821216,1.0,0.0,0.0,,Click Response,1_count,3.0,object-46,temp_dist_trial,29.0,s_a_20_1,student_art,pin cushion,1.0,unique,paired,s_a_20_1.jpg,Student,$${counterbalance_group},,sub-92
Desktop or Laptop,Linux x86_64,Chrome 137.0.0.0,3840x2160,2560x1440,Temporal Distance Task,cb_01,30.0,temp_dist_trial,num_items,zn7si1,1.0,response,1_ITEM,847.2999999880849,837.8000000000029,847.2999999880849,847.2999999880849,837.8000000000029,847.2999999880849,1.0,0.0,0.0,,Click Response,1_count,3.0,object-46,temp_dist_trial,30.0,s_s_18_1,student_stem,brain model,1.0,unique,paired,s_s_18_1.jpg,Student,$${counterbalance_group},,sub-92
Desktop or Laptop,Linux x86_64,Chrome 137.0.0.0,3840x2160,2560x1440,Temporal Distance Task,cb_01,31.0,temp_dist_trial,num_items,zn7si1,1.0,response,1_ITEM,978.5999999821216,965.1999999999972,978.5999999821216,978.5999999821216,965.1999999999972,978.5999999821216,1.0,0.0,0.0,,Click Response,1_count,3.0,object-46,temp_dist_trial,31.0,s_s_04_1,student_stem,bunsen burner,1.0,unique,paired,s_s_04_1.jpg,Student,$${counterbalance_group},,sub-92
Desktop or Laptop,Linux x86_64,Chrome 137.0.0.0,3840x2160,2560x1440,Temporal Distance Task,cb_01,32.0,temp_dist_trial,num_items,zn7si1,1.0,response,1_ITEM,970.8999999880763,969.5999999999913,970.8999999880763,970.8999999880763,969.5999999999913,970.8999999880763,1.0,0.0,0.0,,Click Response,1_count,3.0,object-46,temp_dist_trial,32.0,s_a_19_1,student_art,ballet shoes,1.0,unique,paired,s_a_19_1.jpg,Student,$${counterbalance_group},,sub-92
Desktop or Laptop,Linux x86_64,Chrome 137.0.0.0,3840x2160,2560x1440,Temporal Distance Task,cb_01,33.0,temp_dist_trial,num_items,zn7si1,1.0,response,1_ITEM,866.3999999761581,865.1000000000058,866.3999999761581,866.3999999761581,865.1000000000058,866.3999999761581,1.0,0.0,0.0,,Click Response,1_count,3.0,object-46,temp_dist_trial,33.0,s_a_18_1,student_art,tutu,1.0,unique,single,s_a_18_1.jpg,Student,$${counterbalance_group},,sub-92
Desktop or Laptop,Linux x86_64,Chrome 137.0.0.0,3840x2160,2560x1440,Temporal Distance Task,cb_01,34.0,temp_dist_trial,num_items,zn7si1,1.0,response,2_ITEM,1423.1999999821128,1415.099999999991,1423.1999999821128,1423.1999999821128,1415.099999999991,1423.1999999821128,1.0,0.0,0.0,,Click Response,2_count,5.0,object-49,temp_dist_trial,34.0,s_sh_02_1,student_shared,eraser,1.0,competing,paired,s_sh_02_1.jpg,Student,$${counterbalance_group},,sub-92
Desktop or Laptop,Linux x86_64,Chrome 137.0.0.0,3840x2160,2560x1440,Temporal Distance Task,cb_01,34.0,temp_dist_trial,dist_items,qkpkxw,2.0,info,,3.899999994042446,0.0,3.899999994042446,3.899999994042446,0.0,3.899999994042446,1.0,0.0,0.0,,Slider,Slider,4.0,object-56,temp_dist_trial,34.0,s_sh_02_1,student_shared,eraser,1.0,competing,paired,s_sh_02_1.jpg,Student,$${counterbalance_group},,sub-92
Desktop or Laptop,Linux x86_64,Chrome 137.0.0.0,3840x2160,2560x1440,Temporal Distance Task,cb_01,34.0,temp_dist_trial,dist_items,qkpkxw,2.0,continue,,1105.8000000000031,1098.6000000000058,1105.8000000000031,1105.8000000000031,1098.6000000000058,1105.8000000000031,1.0,0.0,0.0,,Click To Continue,Next button,7.0,object-60,temp_dist_trial,34.0,s_sh_02_1,student_shared,eraser,1.0,competing,paired,s_sh_02_1.jpg,Student,$${counterbalance_group},,sub-92
Desktop or Laptop,Linux x86_64,Chrome 137.0.0.0,3840x2160,2560x1440,Temporal Distance Task,cb_01,34.0,temp_dist_trial,dist_items,qkpkxw,2.0,response,66,451.6000000000058,1098.6000000000058,1105.999999988082,451.6000000000058,1098.6000000000058,1105.999999988082,1.0,654.3999999880763,0.0,,Slider,Slider,4.0,object-56,temp_dist_trial,34.0,s_sh_02_1,student_shared,eraser,1.0,competing,paired,s_sh_02_1.jpg,Student,$${counterbalance_group},,sub-92
Desktop or Laptop,Linux x86_64,Chrome 137.0.0.0,3840x2160,2560x1440,Temporal Distance Task,cb_01,35.0,temp_dist_trial,num_items,zn7si1,1.0,response,2_ITEM,1407.2999999940366,1401.3999999999942,1407.2999999940366,1407.2999999940366,1401.3999999999942,1407.2999999940366,1.0,0.0,0.0,,Click Response,2_count,5.0,object-49,temp_dist_trial,35.0,s_sh_19_1,student_shared,portable plastic drawer,1.0,competing,paired,s_sh_19_1.jpg,Student,$${counterbalance_group},,sub-92
Desktop or Laptop,Linux x86_64,Chrome 137.0.0.0,3840x2160,2560x1440,Temporal Distance Task,cb_01,35.0,temp_dist_trial,dist_items,qkpkxw,2.0,info,,3.3999999999941792,0.0,3.3999999999941792,3.3999999999941792,0.0,3.3999999999941792,1.0,0.0,0.0,,Slider,Slider,4.0,object-56,temp_dist_trial,35.0,s_sh_19_1,student_shared,portable plastic drawer,1.0,competing,paired,s_sh_19_1.jpg,Student,$${counterbalance_group},,sub-92
Desktop or Laptop,Linux x86_64,Chrome 137.0.0.0,3840x2160,2560x1440,Temporal Distance Task,cb_01,35.0,temp_dist_trial,dist_items,qkpkxw,2.0,continue,,1396.4999999940335,1386.3999999999942,1396.4999999940335,1396.4999999940335,1386.3999999999942,1396.4999999940335,1.0,0.0,0.0,,Click To Continue,Next button,7.0,object-60,temp_dist_trial,35.0,s_sh_19_1,student_shared,portable plastic drawer,1.0,competing,paired,s_sh_19_1.jpg,Student,$${counterbalance_group},,sub-92
Desktop or Laptop,Linux x86_64,Chrome 137.0.0.0,3840x2160,2560x1440,Temporal Distance Task,cb_01,35.0,temp_dist_trial,dist_items,qkpkxw,2.0,response,34,731.8999999999942,1386.3999999999942,1396.8999999999942,731.8999999999942,1386.3999999999942,1396.8999999999942,1.0,665.0,0.0,,Slider,Slider,4.0,object-56,temp_dist_trial,35.0,s_sh_19_1,student_shared,portable plastic drawer,1.0,competing,paired,s_sh_19_1.jpg,Student,$${counterbalance_group},,sub-92
Desktop or Laptop,Linux x86_64,Chrome 137.0.0.0,3840x2160,2560x1440,Temporal Distance Task,cb_01,36.0,temp_dist_trial,num_items,zn7si1,1.0,response,1_ITEM,1145.5,1128.8000000000031,1145.5,1145.5,1128.8000000000031,1145.5,1.0,0.0,0.0,,Click Response,1_count,3.0,object-46,temp_dist_trial,36.0,s_sh_20_1,student_shared,tape,1.0,competing,single,s_sh_20_1.jpg,Student,$${counterbalance_group},,sub-92
Desktop or Laptop,Linux x86_64,Chrome 137.0.0.0,3840x2160,2560x1440,Temporal Distance Task,cb_01,37.0,temp_dist_trial,num_items,zn7si1,1.0,response,1_ITEM,1092.8999999880764,1086.3000000000031,1092.8999999880764,1092.8999999880764,1086.3000000000031,1092.8999999880764,1.0,0.0,0.0,,Click Response,1_count,3.0,object-46,temp_dist_trial,37.0,s_sh_09_1,student_shared,paper clips,1.0,competing,single,s_sh_09_1.jpg,Student,$${counterbalance_group},,sub-92
Desktop or Laptop,Linux x86_64,Chrome 137.0.0.0,3840x2160,2560x1440,Temporal Distance Task,cb_01,38.0,temp_dist_trial,num_items,zn7si1,1.0,response,2_ITEM,875.3999999999942,865.1999999999971,875.3999999999942,875.3999999999942,865.1999999999971,875.3999999999942,1.0,0.0,0.0,,Click Response,2_count,5.0,object-49,temp_dist_trial,38.0,s_sh_15_1,student_shared,usb drive,1.0,competing,paired,s_sh_15_1.jpg,Student,$${counterbalance_group},,sub-92
Desktop or Laptop,Linux x86_64,Chrome 137.0.0.0,3840x2160,2560x1440,Temporal Distance Task,cb_01,38.0,temp_dist_trial,dist_items,qkpkxw,2.0,info,,3.1999999761610525,0.0,3.1999999761610525,3.1999999761610525,0.0,3.1999999761610525,1.0,0.0,0.0,,Slider,Slider,4.0,object-56,temp_dist_trial,38.0,s_sh_15_1,student_shared,usb drive,1.0,competing,paired,s_sh_15_1.jpg,Student,$${counterbalance_group},,sub-92
Desktop or Laptop,Linux x86_64,Chrome 137.0.0.0,3840x2160,2560x1440,Temporal Distance Task,cb_01,38.0,temp_dist_trial,dist_items,qkpkxw,2.0,continue,,2277.499999988082,2262.1000000000063,2277.499999988082,2277.499999988082,2262.1000000000063,2277.499999988082,1.0,0.0,0.0,,Click To Continue,Next button,7.0,object-60,temp_dist_trial,38.0,s_sh_15_1,student_shared,usb drive,1.0,competing,paired,s_sh_15_1.jpg,Student,$${counterbalance_group},,sub-92
Desktop or Laptop,Linux x86_64,Chrome 137.0.0.0,3840x2160,2560x1440,Temporal Distance Task,cb_01,38.0,temp_dist_trial,dist_items,qkpkxw,2.0,response,26,1434.900000000009,2262.1000000000063,2278.700000000012,1434.900000000009,2262.1000000000063,2278.700000000012,1.0,843.8000000000029,0.0,,Slider,Slider,4.0,object-56,temp_dist_trial,38.0,s_sh_15_1,student_shared,usb drive,1.0,competing,paired,s_sh_15_1.jpg,Student,$${counterbalance_group},,sub-92
Desktop or Laptop,Linux x86_64,Chrome 137.0.0.0,3840x2160,2560x1440,Temporal Distance Task,cb_01,39.0,temp_dist_trial,num_items,zn7si1,1.0,response,1_ITEM,1278.9999999821155,1274.3000000000031,1278.9999999821155,1278.9999999821155,1274.3000000000031,1278.9999999821155,1.0,0.0,0.0,,Click Response,1_count,3.0,object-46,temp_dist_trial,39.0,s_a_11_1,student_art,clapperboard,1.0,unique,paired,s_a_11_1.jpg,Student,$${counterbalance_group},,sub-92
Desktop or Laptop,Linux x86_64,Chrome 137.0.0.0,3840x2160,2560x1440,Temporal Distance Task,cb_01,40.0,temp_dist_trial,num_items,zn7si1,1.0,response,1_ITEM,795.6999999880791,781.8999999999942,795.6999999880791,795.6999999880791,781.8999999999942,795.6999999880791,1.0,0.0,0.0,,Click Response,1_count,3.0,object-46,temp_dist_trial,40.0,s_sh_21_1,student_shared,file holder,1.0,competing,paired,s_sh_21_1.jpg,Student,$${counterbalance_group},,sub-92
Desktop or Laptop,Linux x86_64,Chrome 137.0.0.0,3840x2160,2560x1440,Temporal Distance Task,cb_01,41.0,temp_dist_trial,num_items,zn7si1,1.0,response,2_ITEM,793.1999999999971,786.3999999999942,793.1999999999971,793.1999999999971,786.3999999999942,793.1999999999971,1.0,0.0,0.0,,Click Response,2_count,5.0,object-49,temp_dist_trial,41.0,s_sh_05_1,student_shared,laptop,1.0,competing,paired,s_sh_05_1.jpg,Student,$${counterbalance_group},,sub-92
Desktop or Laptop,Linux x86_64,Chrome 137.0.0.0,3840x2160,2560x1440,Temporal Distance Task,cb_01,41.0,temp_dist_trial,dist_items,qkpkxw,2.0,info,,3.899999994042446,0.0,3.899999994042446,3.899999994042446,0.0,3.899999994042446,1.0,0.0,0.0,,Slider,Slider,4.0,object-56,temp_dist_trial,41.0,s_sh_05_1,student_shared,laptop,1.0,competing,paired,s_sh_05_1.jpg,Student,$${counterbalance_group},,sub-92
Desktop or Laptop,Linux x86_64,Chrome 137.0.0.0,3840x2160,2560x1440,Temporal Distance Task,cb_01,41.0,temp_dist_trial,dist_items,qkpkxw,2.0,continue,,990.3999999940423,987.8000000000028,990.3999999940423,990.3999999940423,987.8000000000028,990.3999999940423,1.0,0.0,0.0,,Click To Continue,Next button,7.0,object-60,temp_dist_trial,41.0,s_sh_05_1,student_shared,laptop,1.0,competing,paired,s_sh_05_1.jpg,Student,$${counterbalance_group},,sub-92
Desktop or Laptop,Linux x86_64,Chrome 137.0.0.0,3840x2160,2560x1440,Temporal Distance Task,cb_01,41.0,temp_dist_trial,dist_items,qkpkxw,2.0,response,65,381.90000000000884,987.8000000000028,990.699999976161,381.90000000000884,987.8000000000028,990.699999976161,1.0,608.7999999761523,0.0,,Slider,Slider,4.0,object-56,temp_dist_trial,41.0,s_sh_05_1,student_shared,laptop,1.0,competing,paired,s_sh_05_1.jpg,Student,$${counterbalance_group},,sub-92
Desktop or Laptop,Linux x86_64,Chrome 137.0.0.0,3840x2160,2560x1440,Temporal Distance Task,cb_01,42.0,temp_dist_trial,num_items,zn7si1,1.0,response,1_ITEM,1090.7999999821186,1077.3000000000031,1090.7999999821186,1090.7999999821186,1077.3000000000031,1090.7999999821186,1.0,0.0,0.0,,Click Response,1_count,3.0,object-46,temp_dist_trial,42.0,s_s_10_1,student_stem,3d molecule,1.0,unique,single,s_s_10_1.jpg,Student,$${counterbalance_group},,sub-92
Desktop or Laptop,Linux x86_64,Chrome 137.0.0.0,3840x2160,2560x1440,Temporal Distance Task,cb_01,43.0,temp_dist_trial,num_items,zn7si1,1.0,response,1_ITEM,832.2999999940365,824.1999999999971,832.2999999940365,832.2999999940365,824.1999999999971,832.2999999940365,1.0,0.0,0.0,,Click Response,1_count,3.0,object-46,temp_dist_trial,43.0,s_s_08_1,student_stem,soldering iron,1.0,unique,single,s_s_08_1.jpg,Student,$${counterbalance_group},,sub-92
Desktop or Laptop,Linux x86_64,Chrome 137.0.0.0,3840x2160,2560x1440,Temporal Distance Task,cb_01,44.0,temp_dist_trial,num_items,zn7si1,1.0,response,1_ITEM,977.6999999880792,971.1999999999972,977.6999999880792,977.6999999880792,971.1999999999972,977.6999999880792,1.0,0.0,0.0,,Click Response,1_count,3.0,object-46,temp_dist_trial,44.0,s_sh_18_1,student_shared,wall calendar,1.0,competing,single,s_sh_18_1.jpg,Student,$${counterbalance_group},,sub-92
Desktop or Laptop,Linux x86_64,Chrome 137.0.0.0,3840x2160,2560x1440,Temporal Distance Task,cb_01,45.0,temp_dist_trial,num_items,zn7si1,1.0,response,1_ITEM,1156.8999999940424,1151.4000000000087,1156.8999999940424,1156.8999999940424,1151.4000000000087,1156.8999999940424,1.0,0.0,0.0,,Click Response,1_count,3.0,object-46,temp_dist_trial,45.0,s_s_15_1,student_stem,jumper cables,1.0,unique,single,s_s_15_1.jpg,Student,$${counterbalance_group},,sub-92
Desktop or Laptop,Linux x86_64,Chrome 137.0.0.0,3840x2160,2560x1440,Temporal Distance Task,cb_01,46.0,temp_dist_trial,num_items,zn7si1,1.0,response,2_ITEM,1490.099999988073,1474.099999999991,1490.099999988073,1490.099999988073,1474.099999999991,1490.099999988073,1.0,0.0,0.0,,Click Response,2_count,5.0,object-49,temp_dist_trial,46.0,s_a_17_1,student_art,microphone,1.0,unique,paired,s_a_17_1.jpg,Student,$${counterbalance_group},,sub-92
Desktop or Laptop,Linux x86_64,Chrome 137.0.0.0,3840x2160,2560x1440,Temporal Distance Task,cb_01,46.0,temp_dist_trial,dist_items,qkpkxw,2.0,info,,2.999999982115696,0.0,2.999999982115696,2.999999982115696,0.0,2.999999982115696,1.0,0.0,0.0,,Slider,Slider,4.0,object-56,temp_dist_trial,46.0,s_a_17_1,student_art,microphone,1.0,unique,paired,s_a_17_1.jpg,Student,$${counterbalance_group},,sub-92
Desktop or Laptop,Linux x86_64,Chrome 137.0.0.0,3840x2160,2560x1440,Temporal Distance Task,cb_01,46.0,temp_dist_trial,dist_items,qkpkxw,2.0,continue,,1865.2999999940369,1862.0999999999915,1865.2999999940369,1865.2999999940369,1862.0999999999915,1865.2999999940369,1.0,0.0,0.0,,Click To Continue,Next button,7.0,object-60,temp_dist_trial,46.0,s_a_17_1,student_art,microphone,1.0,unique,paired,s_a_17_1.jpg,Student,$${counterbalance_group},,sub-92
Desktop or Laptop,Linux x86_64,Chrome 137.0.0.0,3840x2160,2560x1440,Temporal Distance Task,cb_01,46.0,temp_dist_trial,dist_items,qkpkxw,2.0,response,56,597.0,1862.0999999999915,1865.6999999999966,597.0,1862.0999999999915,1865.6999999999966,1.0,1268.6999999999969,0.0,,Slider,Slider,4.0,object-56,temp_dist_trial,46.0,s_a_17_1,student_art,microphone,1.0,unique,paired,s_a_17_1.jpg,Student,$${counterbalance_group},,sub-92
Desktop or Laptop,Linux x86_64,Chrome 137.0.0.0,3840x2160,2560x1440,Temporal Distance Task,cb_01,47.0,temp_dist_trial,num_items,zn7si1,1.0,response,1_ITEM,923.6999999940454,918.1000000000058,923.6999999940454,923.6999999940454,918.1000000000058,923.6999999940454,1.0,0.0,0.0,,Click Response,1_count,3.0,object-46,temp_dist_trial,47.0,s_a_16_1,student_art,piano,1.0,unique,paired,s_a_16_1.jpg,Student,$${counterbalance_group},,sub-92
Desktop or Laptop,Linux x86_64,Chrome 137.0.0.0,3840x2160,2560x1440,Temporal Distance Task,cb_01,48.0,temp_dist_trial,num_items,zn7si1,1.0,response,1_ITEM,665.1999999880792,653.1000000000057,665.1999999880792,665.1999999880792,653.1000000000057,665.1999999880792,1.0,0.0,0.0,,Click Response,1_count,3.0,object-46,temp_dist_trial,48.0,s_sh_01_1,student_shared,notebook,1.0,competing,single,s_sh_01_1.jpg,Student,$${counterbalance_group},,sub-92
Desktop or Laptop,Linux x86_64,Chrome 137.0.0.0,3840x2160,2560x1440,Temporal Distance Task,cb_01,2.0,temp_eventStart,Screen 1,dgtyxe,1.0,continue,,1216.2999999880851,1201.6000000000058,1216.2999999880851,1216.2999999880851,1201.6000000000058,1216.2999999880851,1.0,0.0,0.0,,Click To Continue,Next Button,3.0,object-43,temp_eventStart,,,Travel,,,,,,,$${counterbalance_group},,sub-92
Desktop or Laptop,Linux x86_64,Chrome 137.0.0.0,3840x2160,2560x1440,Temporal Distance Task,cb_01,49.0,temp_dist_trial,num_items,zn7si1,1.0,response,2_ITEM,1134.7000000000114,1118.1000000000058,1134.7000000000114,1134.7000000000114,1118.1000000000058,1134.7000000000114,1.0,0.0,0.0,,Click Response,2_count,5.0,object-49,temp_dist_trial,1.0,t_s_02_1,travel_shared,water bottle,1.0,competing,paired,t_s_02_1.jpg,Travel,$${counterbalance_group},,sub-92
Desktop or Laptop,Linux x86_64,Chrome 137.0.0.0,3840x2160,2560x1440,Temporal Distance Task,cb_01,49.0,temp_dist_trial,dist_items,qkpkxw,2.0,info,,3.8999999999941792,0.0,3.8999999999941792,3.8999999999941792,0.0,3.8999999999941792,1.0,0.0,0.0,,Slider,Slider,4.0,object-56,temp_dist_trial,1.0,t_s_02_1,travel_shared,water bottle,1.0,competing,paired,t_s_02_1.jpg,Travel,$${counterbalance_group},,sub-92
Desktop or Laptop,Linux x86_64,Chrome 137.0.0.0,3840x2160,2560x1440,Temporal Distance Task,cb_01,49.0,temp_dist_trial,dist_items,qkpkxw,2.0,continue,,1332.8999999999942,1327.2999999999886,1332.8999999999942,1332.8999999999942,1327.2999999999886,1332.8999999999942,1.0,0.0,0.0,,Click To Continue,Next button,7.0,object-60,temp_dist_trial,1.0,t_s_02_1,travel_shared,water bottle,1.0,competing,paired,t_s_02_1.jpg,Travel,$${counterbalance_group},,sub-92
Desktop or Laptop,Linux x86_64,Chrome 137.0.0.0,3840x2160,2560x1440,Temporal Distance Task,cb_01,49.0,temp_dist_trial,dist_items,qkpkxw,2.0,response,70,551.5,1327.2999999999886,1333.2999999761525,551.5,1327.2999999999886,1333.2999999761525,1.0,781.7999999761522,0.0,,Slider,Slider,4.0,object-56,temp_dist_trial,1.0,t_s_02_1,travel_shared,water bottle,1.0,competing,paired,t_s_02_1.jpg,Travel,$${counterbalance_group},,sub-92
Desktop or Laptop,Linux x86_64,Chrome 137.0.0.0,3840x2160,2560x1440,Temporal Distance Task,cb_01,50.0,temp_dist_trial,num_items,zn7si1,1.0,response,1_ITEM,1469.6000000000058,1465.1000000000058,1469.6000000000058,1469.6000000000058,1465.1000000000058,1469.6000000000058,1.0,0.0,0.0,,Click Response,1_count,3.0,object-46,temp_dist_trial,2.0,t_m_18_1,travel_Miami,waterproof tote,1.0,unique,paired,t_m_18_1.jpg,Travel,$${counterbalance_group},,sub-92
Desktop or Laptop,Linux x86_64,Chrome 137.0.0.0,3840x2160,2560x1440,Temporal Distance Task,cb_01,51.0,temp_dist_trial,num_items,zn7si1,1.0,response,1_ITEM,864.999999976164,853.1000000000058,864.999999976164,864.999999976164,853.1000000000058,864.999999976164,1.0,0.0,0.0,,Click Response,1_count,3.0,object-46,temp_dist_trial,3.0,t_s_01_1,travel_shared,fanny pack,1.0,competing,single,t_s_01_1.jpg,Travel,$${counterbalance_group},,sub-92
Desktop or Laptop,Linux x86_64,Chrome 137.0.0.0,3840x2160,2560x1440,Temporal Distance Task,cb_01,52.0,temp_dist_trial,num_items,zn7si1,1.0,response,1_ITEM,1224.999999976164,1219.7000000000114,1224.999999976164,1224.999999976164,1219.7000000000114,1224.999999976164,1.0,0.0,0.0,,Click Response,1_count,3.0,object-46,temp_dist_trial,4.0,t_s_12_1,travel_shared,clear toiletry bag,1.0,competing,paired,t_s_12_1.jpg,Travel,$${counterbalance_group},,sub-92
Desktop or Laptop,Linux x86_64,Chrome 137.0.0.0,3840x2160,2560x1440,Temporal Distance Task,cb_01,53.0,temp_dist_trial,num_items,zn7si1,1.0,response,2_ITEM,1038.2999999821186,1024.2000000000116,1038.2999999821186,1038.2999999821186,1024.2000000000116,1038.2999999821186,1.0,0.0,0.0,,Click Response,2_count,5.0,object-49,temp_dist_trial,5.0,t_s_06_1,travel_shared,luggage,1.0,competing,paired,t_s_06_1.jpg,Travel,$${counterbalance_group},,sub-92
Desktop or Laptop,Linux x86_64,Chrome 137.0.0.0,3840x2160,2560x1440,Temporal Distance Task,cb_01,53.0,temp_dist_trial,dist_items,qkpkxw,2.0,info,,3.7000000000116415,0.0,3.7000000000116415,3.7000000000116415,0.0,3.7000000000116415,1.0,0.0,0.0,,Slider,Slider,4.0,object-56,temp_dist_trial,5.0,t_s_06_1,travel_shared,luggage,1.0,competing,paired,t_s_06_1.jpg,Travel,$${counterbalance_group},,sub-92
Desktop or Laptop,Linux x86_64,Chrome 137.0.0.0,3840x2160,2560x1440,Temporal Distance Task,cb_01,53.0,temp_dist_trial,dist_items,qkpkxw,2.0,continue,,1058.9999999821302,1045.4000000000233,1058.9999999821302,1058.9999999821302,1045.4000000000233,1058.9999999821302,1.0,0.0,0.0,,Click To Continue,Next button,7.0,object-60,temp_dist_trial,5.0,t_s_06_1,travel_shared,luggage,1.0,competing,paired,t_s_06_1.jpg,Travel,$${counterbalance_group},,sub-92
Desktop or Laptop,Linux x86_64,Chrome 137.0.0.0,3840x2160,2560x1440,Temporal Distance Task,cb_01,53.0,temp_dist_trial,dist_items,qkpkxw,2.0,response,61,296.9000000000233,1045.4000000000233,1059.2000000000116,296.9000000000233,1045.4000000000233,1059.2000000000116,1.0,762.2999999999884,0.0,,Slider,Slider,4.0,object-56,temp_dist_trial,5.0,t_s_06_1,travel_shared,luggage,1.0,competing,paired,t_s_06_1.jpg,Travel,$${counterbalance_group},,sub-92
Desktop or Laptop,Linux x86_64,Chrome 137.0.0.0,3840x2160,2560x1440,Temporal Distance Task,cb_01,54.0,temp_dist_trial,num_items,zn7si1,1.0,response,1_ITEM,933.2999999999593,916.5999999999768,933.2999999999593,933.2999999999593,916.5999999999768,933.2999999999593,1.0,0.0,0.0,,Click Response,1_count,3.0,object-46,temp_dist_trial,6.0,t_i_20_1,travel_Iceland,lantern,1.0,unique,paired,t_i_20_1.jpg,Travel,$${counterbalance_group},,sub-92
Desktop or Laptop,Linux x86_64,Chrome 137.0.0.0,3840x2160,2560x1440,Temporal Distance Task,cb_01,55.0,temp_dist_trial,num_items,zn7si1,1.0,response,1_ITEM,765.4999999821302,753.0,765.4999999821302,765.4999999821302,753.0,765.4999999821302,1.0,0.0,0.0,,Click Response,1_count,3.0,object-46,temp_dist_trial,7.0,t_s_16_1,travel_shared,chapstick,1.0,competing,paired,t_s_16_1.jpg,Travel,$${counterbalance_group},,sub-92
Desktop or Laptop,Linux x86_64,Chrome 137.0.0.0,3840x2160,2560x1440,Temporal Distance Task,cb_01,56.0,temp_dist_trial,num_items,zn7si1,1.0,response,2_ITEM,2077.9999999821302,2069.5,2077.9999999821302,2077.9999999821302,2069.5,2077.9999999821302,1.0,0.0,0.0,,Click Response,2_count,5.0,object-49,temp_dist_trial,8.0,t_s_07_1,travel_shared,phone charger cable,1.0,competing,paired,t_s_07_1.jpg,Travel,$${counterbalance_group},,sub-92
Desktop or Laptop,Linux x86_64,Chrome 137.0.0.0,3840x2160,2560x1440,Temporal Distance Task,cb_01,56.0,temp_dist_trial,dist_items,qkpkxw,2.0,info,,3.9999999761639633,0.0,3.9999999761639633,3.9999999761639633,0.0,3.9999999761639633,1.0,0.0,0.0,,Slider,Slider,4.0,object-56,temp_dist_trial,8.0,t_s_07_1,travel_shared,phone charger cable,1.0,competing,paired,t_s_07_1.jpg,Travel,$${counterbalance_group},,sub-92
Desktop or Laptop,Linux x86_64,Chrome 137.0.0.0,3840x2160,2560x1440,Temporal Distance Task,cb_01,56.0,temp_dist_trial,dist_items,qkpkxw,2.0,continue,,5035.100000000006,5025.8000000000175,5035.100000000006,5035.100000000006,5025.8000000000175,5035.100000000006,1.0,0.0,0.0,,Click To Continue,Next button,7.0,object-60,temp_dist_trial,8.0,t_s_07_1,travel_shared,phone charger cable,1.0,competing,paired,t_s_07_1.jpg,Travel,$${counterbalance_group},,sub-92
Desktop or Laptop,Linux x86_64,Chrome 137.0.0.0,3840x2160,2560x1440,Temporal Distance Task,cb_01,56.0,temp_dist_trial,dist_items,qkpkxw,2.0,response,14,696.8999999999942,5025.8000000000175,5037.399999982124,696.8999999999942,5025.8000000000175,5037.399999982124,1.0,4340.499999982129,0.0,,Slider,Slider,4.0,object-56,temp_dist_trial,8.0,t_s_07_1,travel_shared,phone charger cable,1.0,competing,paired,t_s_07_1.jpg,Travel,$${counterbalance_group},,sub-92
Desktop or Laptop,Linux x86_64,Chrome 137.0.0.0,3840x2160,2560x1440,Temporal Distance Task,cb_01,57.0,temp_dist_trial,num_items,zn7si1,1.0,response,2_ITEM,1449.3999999940281,1434.6999999999825,1449.3999999940281,1449.3999999940281,1434.6999999999825,1449.3999999940281,1.0,0.0,0.0,,Click Response,2_count,5.0,object-49,temp_dist_trial,9.0,t_m_17_1,travel_Miami,water gun,1.0,unique,paired,t_m_17_1.jpg,Travel,$${counterbalance_group},,sub-92
Desktop or Laptop,Linux x86_64,Chrome 137.0.0.0,3840x2160,2560x1440,Temporal Distance Task,cb_01,57.0,temp_dist_trial,dist_items,qkpkxw,2.0,info,,3.399999982124428,0.0,3.399999982124428,3.399999982124428,0.0,3.399999982124428,1.0,0.0,0.0,,Slider,Slider,4.0,object-56,temp_dist_trial,9.0,t_m_17_1,travel_Miami,water gun,1.0,unique,paired,t_m_17_1.jpg,Travel,$${counterbalance_group},,sub-92
Desktop or Laptop,Linux x86_64,Chrome 137.0.0.0,3840x2160,2560x1440,Temporal Distance Task,cb_01,57.0,temp_dist_trial,dist_items,qkpkxw,2.0,continue,,1188.3999999821244,1181.8000000000175,1188.3999999821244,1188.3999999821244,1181.8000000000175,1188.3999999821244,1.0,0.0,0.0,,Click To Continue,Next button,7.0,object-60,temp_dist_trial,9.0,t_m_17_1,travel_Miami,water gun,1.0,unique,paired,t_m_17_1.jpg,Travel,$${counterbalance_group},,sub-92
Desktop or Laptop,Linux x86_64,Chrome 137.0.0.0,3840x2160,2560x1440,Temporal Distance Task,cb_01,57.0,temp_dist_trial,dist_items,qkpkxw,2.0,response,25,330.30000000001735,1181.8000000000175,1188.6000000000058,330.30000000001735,1181.8000000000175,1188.6000000000058,1.0,858.2999999999884,0.0,,Slider,Slider,4.0,object-56,temp_dist_trial,9.0,t_m_17_1,travel_Miami,water gun,1.0,unique,paired,t_m_17_1.jpg,Travel,$${counterbalance_group},,sub-92
Desktop or Laptop,Linux x86_64,Chrome 137.0.0.0,3840x2160,2560x1440,Temporal Distance Task,cb_01,58.0,temp_dist_trial,num_items,zn7si1,1.0,response,1_ITEM,1422.9999999880677,1409.0,1422.9999999880677,1422.9999999880677,1409.0,1422.9999999880677,1.0,0.0,0.0,,Click Response,1_count,3.0,object-46,temp_dist_trial,10.0,t_m_03_1,travel_Miami,wetsuit,1.0,unique,single,t_m_03_1.jpg,Travel,$${counterbalance_group},,sub-92
Desktop or Laptop,Linux x86_64,Chrome 137.0.0.0,3840x2160,2560x1440,Temporal Distance Task,cb_01,59.0,temp_dist_trial,num_items,zn7si1,1.0,response,1_ITEM,1040.2999999940512,1024.1000000000058,1040.2999999940512,1040.2999999940512,1024.1000000000058,1040.2999999940512,1.0,0.0,0.0,,Click Response,1_count,3.0,object-46,temp_dist_trial,11.0,t_i_16_1,travel_Iceland,skis,1.0,unique,single,t_i_16_1.jpg,Travel,$${counterbalance_group},,sub-92
Desktop or Laptop,Linux x86_64,Chrome 137.0.0.0,3840x2160,2560x1440,Temporal Distance Task,cb_01,60.0,temp_dist_trial,num_items,zn7si1,1.0,response,1_ITEM,873.1999999880791,865.1000000000058,873.1999999880791,873.1999999880791,865.1000000000058,873.1999999880791,1.0,0.0,0.0,,Click Response,1_count,3.0,object-46,temp_dist_trial,12.0,t_s_09_1,travel_shared,wallet,1.0,competing,paired,t_s_09_1.jpg,Travel,$${counterbalance_group},,sub-92
Desktop or Laptop,Linux x86_64,Chrome 137.0.0.0,3840x2160,2560x1440,Temporal Distance Task,cb_01,61.0,temp_dist_trial,num_items,zn7si1,1.0,response,1_ITEM,995.3999999999942,986.2999999999884,995.3999999999942,995.3999999999942,986.2999999999884,995.3999999999942,1.0,0.0,0.0,,Click Response,1_count,3.0,object-46,temp_dist_trial,13.0,t_s_13_1,travel_shared,contact lens case,1.0,competing,single,t_s_13_1.jpg,Travel,$${counterbalance_group},,sub-92
Desktop or Laptop,Linux x86_64,Chrome 137.0.0.0,3840x2160,2560x1440,Temporal Distance Task,cb_01,62.0,temp_dist_trial,num_items,zn7si1,1.0,response,1_ITEM,1268.999999976164,1257.5,1268.999999976164,1268.999999976164,1257.5,1268.999999976164,1.0,0.0,0.0,,Click Response,1_count,3.0,object-46,temp_dist_trial,14.0,t_i_18_1,travel_Iceland,ski mask,1.0,unique,single,t_i_18_1.jpg,Travel,$${counterbalance_group},,sub-92
Desktop or Laptop,Linux x86_64,Chrome 137.0.0.0,3840x2160,2560x1440,Temporal Distance Task,cb_01,63.0,temp_dist_trial,num_items,zn7si1,1.0,response,2_ITEM,966.0999999761698,953.1000000000058,966.0999999761698,966.0999999761698,953.1000000000058,966.0999999761698,1.0,0.0,0.0,,Click Response,2_count,5.0,object-49,temp_dist_trial,15.0,t_s_05_1,travel_shared,neck pillow,1.0,competing,paired,t_s_05_1.jpg,Travel,$${counterbalance_group},,sub-92
Desktop or Laptop,Linux x86_64,Chrome 137.0.0.0,3840x2160,2560x1440,Temporal Distance Task,cb_01,63.0,temp_dist_trial,dist_items,qkpkxw,2.0,info,,4.099999976169784,0.0,4.099999976169784,4.099999976169784,0.0,4.099999976169784,1.0,0.0,0.0,,Slider,Slider,4.0,object-56,temp_dist_trial,15.0,t_s_05_1,travel_shared,neck pillow,1.0,competing,paired,t_s_05_1.jpg,Travel,$${counterbalance_group},,sub-92
Desktop or Laptop,Linux x86_64,Chrome 137.0.0.0,3840x2160,2560x1440,Temporal Distance Task,cb_01,63.0,temp_dist_trial,dist_items,qkpkxw,2.0,continue,,1742.0999999761698,1725.8000000000175,1742.0999999761698,1742.0999999761698,1725.8000000000175,1742.0999999761698,1.0,0.0,0.0,,Click To Continue,Next button,7.0,object-60,temp_dist_trial,15.0,t_s_05_1,travel_shared,neck pillow,1.0,competing,paired,t_s_05_1.jpg,Travel,$${counterbalance_group},,sub-92
Desktop or Laptop,Linux x86_64,Chrome 137.0.0.0,3840x2160,2560x1440,Temporal Distance Task,cb_01,63.0,temp_dist_trial,dist_items,qkpkxw,2.0,response,33,1130.3000000000175,1725.8000000000175,1742.3999999880907,1130.3000000000175,1725.8000000000175,1742.3999999880907,1.0,612.0999999880733,0.0,,Slider,Slider,4.0,object-56,temp_dist_trial,15.0,t_s_05_1,travel_shared,neck pillow,1.0,competing,paired,t_s_05_1.jpg,Travel,$${counterbalance_group},,sub-92
Desktop or Laptop,Linux x86_64,Chrome 137.0.0.0,3840x2160,2560x1440,Temporal Distance Task,cb_01,64.0,temp_dist_trial,num_items,zn7si1,1.0,response,2_ITEM,904.3999999999942,887.7999999999884,904.3999999999942,904.3999999999942,887.7999999999884,904.3999999999942,1.0,0.0,0.0,,Click Response,2_count,5.0,object-49,temp_dist_trial,16.0,t_i_19_1,travel_Iceland,rope,1.0,unique,paired,t_i_19_1.jpg,Travel,$${counterbalance_group},,sub-92
Desktop or Laptop,Linux x86_64,Chrome 137.0.0.0,3840x2160,2560x1440,Temporal Distance Task,cb_01,64.0,temp_dist_trial,dist_items,qkpkxw,2.0,info,,3.6000000000058208,0.0,3.6000000000058208,3.6000000000058208,0.0,3.6000000000058208,1.0,0.0,0.0,,Slider,Slider,4.0,object-56,temp_dist_trial,16.0,t_i_19_1,travel_Iceland,rope,1.0,unique,paired,t_i_19_1.jpg,Travel,$${counterbalance_group},,sub-92
Desktop or Laptop,Linux x86_64,Chrome 137.0.0.0,3840x2160,2560x1440,Temporal Distance Task,cb_01,64.0,temp_dist_trial,dist_items,qkpkxw,2.0,continue,,1561.8999999821247,1553.1000000000058,1561.8999999821247,1561.8999999821247,1553.1000000000058,1561.8999999821247,1.0,0.0,0.0,,Click To Continue,Next button,7.0,object-60,temp_dist_trial,16.0,t_i_19_1,travel_Iceland,rope,1.0,unique,paired,t_i_19_1.jpg,Travel,$${counterbalance_group},,sub-92
Desktop or Laptop,Linux x86_64,Chrome 137.0.0.0,3840x2160,2560x1440,Temporal Distance Task,cb_01,64.0,temp_dist_trial,dist_items,qkpkxw,2.0,response,78,413.7000000000117,1553.1000000000058,1562.2999999880853,413.7000000000117,1553.1000000000058,1562.2999999880853,1.0,1148.5999999880733,0.0,,Slider,Slider,4.0,object-56,temp_dist_trial,16.0,t_i_19_1,travel_Iceland,rope,1.0,unique,paired,t_i_19_1.jpg,Travel,$${counterbalance_group},,sub-92
Desktop or Laptop,Linux x86_64,Chrome 137.0.0.0,3840x2160,2560x1440,Temporal Distance Task,cb_01,65.0,temp_dist_trial,num_items,zn7si1,1.0,response,1_ITEM,1240.899999976158,1234.7999999999886,1240.899999976158,1240.899999976158,1234.7999999999886,1240.899999976158,1.0,0.0,0.0,,Click Response,1_count,3.0,object-46,temp_dist_trial,17.0,t_i_08_1,travel_Iceland,thick socks,1.0,unique,paired,t_i_08_1.jpg,Travel,$${counterbalance_group},,sub-92
Desktop or Laptop,Linux x86_64,Chrome 137.0.0.0,3840x2160,2560x1440,Temporal Distance Task,cb_01,66.0,temp_dist_trial,num_items,zn7si1,1.0,response,2_ITEM,1052.099999982107,1036.3999999999942,1052.099999982107,1052.099999982107,1036.3999999999942,1052.099999982107,1.0,0.0,0.0,,Click Response,2_count,5.0,object-49,temp_dist_trial,18.0,t_m_01_1,travel_Miami,sandals,1.0,unique,paired,t_m_01_1.jpg,Travel,$${counterbalance_group},,sub-92
Desktop or Laptop,Linux x86_64,Chrome 137.0.0.0,3840x2160,2560x1440,Temporal Distance Task,cb_01,66.0,temp_dist_trial,dist_items,qkpkxw,2.0,info,,2.9999999940337148,0.0,2.9999999940337148,2.9999999940337148,0.0,2.9999999940337148,1.0,0.0,0.0,,Slider,Slider,4.0,object-56,temp_dist_trial,18.0,t_m_01_1,travel_Miami,sandals,1.0,unique,paired,t_m_01_1.jpg,Travel,$${counterbalance_group},,sub-92
Desktop or Laptop,Linux x86_64,Chrome 137.0.0.0,3840x2160,2560x1440,Temporal Distance Task,cb_01,66.0,temp_dist_trial,dist_items,qkpkxw,2.0,continue,,1471.8999999999942,1468.1000000000058,1471.8999999999942,1471.8999999999942,1468.1000000000058,1471.8999999999942,1.0,0.0,0.0,,Click To Continue,Next button,7.0,object-60,temp_dist_trial,18.0,t_m_01_1,travel_Miami,sandals,1.0,unique,paired,t_m_01_1.jpg,Travel,$${counterbalance_group},,sub-92
Desktop or Laptop,Linux x86_64,Chrome 137.0.0.0,3840x2160,2560x1440,Temporal Distance Task,cb_01,66.0,temp_dist_trial,dist_items,qkpkxw,2.0,response,62,496.8999999999942,1468.1000000000058,1472.2999999761525,496.8999999999942,1468.1000000000058,1472.2999999761525,1.0,975.399999976158,0.0,,Slider,Slider,4.0,object-56,temp_dist_trial,18.0,t_m_01_1,travel_Miami,sandals,1.0,unique,paired,t_m_01_1.jpg,Travel,$${counterbalance_group},,sub-92
Desktop or Laptop,Linux x86_64,Chrome 137.0.0.0,3840x2160,2560x1440,Temporal Distance Task,cb_01,67.0,temp_dist_trial,num_items,zn7si1,1.0,response,1_ITEM,866.9999999880673,851.5,866.9999999880673,866.9999999880673,851.5,866.9999999880673,1.0,0.0,0.0,,Click Response,1_count,3.0,object-46,temp_dist_trial,19.0,t_i_14_1,travel_Iceland,snow pants,1.0,unique,single,t_i_14_1.jpg,Travel,$${counterbalance_group},,sub-92
Desktop or Laptop,Linux x86_64,Chrome 137.0.0.0,3840x2160,2560x1440,Temporal Distance Task,cb_01,68.0,temp_dist_trial,num_items,zn7si1,1.0,response,2_ITEM,1095.4999999880674,1086.3999999999942,1095.4999999880674,1095.4999999880674,1086.3999999999942,1095.4999999880674,1.0,0.0,0.0,,Click Response,2_count,5.0,object-49,temp_dist_trial,20.0,t_s_22_1,travel_shared,belt,1.0,competing,paired,t_s_22_1.jpg,Travel,$${counterbalance_group},,sub-92
Desktop or Laptop,Linux x86_64,Chrome 137.0.0.0,3840x2160,2560x1440,Temporal Distance Task,cb_01,68.0,temp_dist_trial,dist_items,qkpkxw,2.0,info,,3.199999988079071,0.0,3.199999988079071,3.199999988079071,0.0,3.199999988079071,1.0,0.0,0.0,,Slider,Slider,4.0,object-56,temp_dist_trial,20.0,t_s_22_1,travel_shared,belt,1.0,competing,paired,t_s_22_1.jpg,Travel,$${counterbalance_group},,sub-92
Desktop or Laptop,Linux x86_64,Chrome 137.0.0.0,3840x2160,2560x1440,Temporal Distance Task,cb_01,68.0,temp_dist_trial,dist_items,qkpkxw,2.0,continue,,1670.5999999940395,1657.6000000000058,1670.5999999940395,1670.5999999940395,1657.6000000000058,1670.5999999940395,1.0,0.0,0.0,,Click To Continue,Next button,7.0,object-60,temp_dist_trial,20.0,t_s_22_1,travel_shared,belt,1.0,competing,paired,t_s_22_1.jpg,Travel,$${counterbalance_group},,sub-92
Desktop or Laptop,Linux x86_64,Chrome 137.0.0.0,3840x2160,2560x1440,Temporal Distance Task,cb_01,68.0,temp_dist_trial,dist_items,qkpkxw,2.0,response,62,597.0,1657.6000000000058,1670.7999999821186,597.0,1657.6000000000058,1670.7999999821186,1.0,1073.7999999821186,0.0,,Slider,Slider,4.0,object-56,temp_dist_trial,20.0,t_s_22_1,travel_shared,belt,1.0,competing,paired,t_s_22_1.jpg,Travel,$${counterbalance_group},,sub-92
Desktop or Laptop,Linux x86_64,Chrome 137.0.0.0,3840x2160,2560x1440,Temporal Distance Task,cb_01,69.0,temp_dist_trial,num_items,zn7si1,1.0,response,1_ITEM,837.1999999821128,833.2999999999884,837.1999999821128,837.1999999821128,833.2999999999884,837.1999999821128,1.0,0.0,0.0,,Click Response,1_count,3.0,object-46,temp_dist_trial,21.0,t_i_13_1,travel_Iceland,sleeping bag,1.0,unique,paired,t_i_13_1.jpg,Travel,$${counterbalance_group},,sub-92
Desktop or Laptop,Linux x86_64,Chrome 137.0.0.0,3840x2160,2560x1440,Temporal Distance Task,cb_01,70.0,temp_dist_trial,num_items,zn7si1,1.0,response,1_ITEM,1393.6000000000058,1386.2000000000116,1393.6000000000058,1393.6000000000058,1386.2000000000116,1393.6000000000058,1.0,0.0,0.0,,Click Response,1_count,3.0,object-46,temp_dist_trial,22.0,t_s_24_1,travel_shared,ear plugs,1.0,competing,single,t_s_24_1.jpg,Travel,$${counterbalance_group},,sub-92
Desktop or Laptop,Linux x86_64,Chrome 137.0.0.0,3840x2160,2560x1440,Temporal Distance Task,cb_01,71.0,temp_dist_trial,num_items,zn7si1,1.0,response,1_ITEM,1099.7999999761523,1086.3999999999942,1099.7999999761523,1099.7999999761523,1086.3999999999942,1099.7999999761523,1.0,0.0,0.0,,Click Response,1_count,3.0,object-46,temp_dist_trial,23.0,t_i_10_1,travel_Iceland,trekking poles,1.0,unique,paired,t_i_10_1.jpg,Travel,$${counterbalance_group},,sub-92
Desktop or Laptop,Linux x86_64,Chrome 137.0.0.0,3840x2160,2560x1440,Temporal Distance Task,cb_01,72.0,temp_dist_trial,num_items,zn7si1,1.0,response,2_ITEM,1238.1999999940456,1236.3999999999942,1238.1999999940456,1238.1999999940456,1236.3999999999942,1238.1999999940456,1.0,0.0,0.0,,Click Response,2_count,5.0,object-49,temp_dist_trial,24.0,t_i_05_1,travel_Iceland,hiking boots,1.0,unique,paired,t_i_05_1.jpg,Travel,$${counterbalance_group},,sub-92
Desktop or Laptop,Linux x86_64,Chrome 137.0.0.0,3840x2160,2560x1440,Temporal Distance Task,cb_01,72.0,temp_dist_trial,dist_items,qkpkxw,2.0,info,,3.4999999880674286,0.0,3.4999999880674286,3.4999999880674286,0.0,3.4999999880674286,1.0,0.0,0.0,,Slider,Slider,4.0,object-56,temp_dist_trial,24.0,t_i_05_1,travel_Iceland,hiking boots,1.0,unique,paired,t_i_05_1.jpg,Travel,$${counterbalance_group},,sub-92
Desktop or Laptop,Linux x86_64,Chrome 137.0.0.0,3840x2160,2560x1440,Temporal Distance Task,cb_01,72.0,temp_dist_trial,dist_items,qkpkxw,2.0,continue,,1431.7999999999884,1427.2999999999884,1431.7999999999884,1431.7999999999884,1427.2999999999884,1431.7999999999884,1.0,0.0,0.0,,Click To Continue,Next button,7.0,object-60,temp_dist_trial,24.0,t_i_05_1,travel_Iceland,hiking boots,1.0,unique,paired,t_i_05_1.jpg,Travel,$${counterbalance_group},,sub-92
Desktop or Laptop,Linux x86_64,Chrome 137.0.0.0,3840x2160,2560x1440,Temporal Distance Task,cb_01,72.0,temp_dist_trial,dist_items,qkpkxw,2.0,response,36,747.0,1427.2999999999884,1432.1999999761465,747.0,1427.2999999999884,1432.1999999761465,1.0,685.1999999761465,0.0,,Slider,Slider,4.0,object-56,temp_dist_trial,24.0,t_i_05_1,travel_Iceland,hiking boots,1.0,unique,paired,t_i_05_1.jpg,Travel,$${counterbalance_group},,sub-92
Desktop or Laptop,Linux x86_64,Chrome 137.0.0.0,3840x2160,2560x1440,Temporal Distance Task,cb_01,73.0,temp_dist_trial,num_items,zn7si1,1.0,response,1_ITEM,988.6999999880792,983.3999999999942,988.6999999880792,988.6999999880792,983.3999999999942,988.6999999880792,1.0,0.0,0.0,,Click Response,1_count,3.0,object-46,temp_dist_trial,25.0,t_s_10_1,travel_shared,luggage lock,1.0,competing,single,t_s_10_1.jpg,Travel,$${counterbalance_group},,sub-92
Desktop or Laptop,Linux x86_64,Chrome 137.0.0.0,3840x2160,2560x1440,Temporal Distance Task,cb_01,74.0,temp_dist_trial,num_items,zn7si1,1.0,response,1_ITEM,1065.5999999761698,1052.9000000000233,1065.5999999761698,1065.5999999761698,1052.9000000000233,1065.5999999761698,1.0,0.0,0.0,,Click Response,1_count,3.0,object-46,temp_dist_trial,26.0,t_m_07_1,travel_Miami,sunglasses,1.0,unique,single,t_m_07_1.jpg,Travel,$${counterbalance_group},,sub-92
Desktop or Laptop,Linux x86_64,Chrome 137.0.0.0,3840x2160,2560x1440,Temporal Distance Task,cb_01,75.0,temp_dist_trial,num_items,zn7si1,1.0,response,2_ITEM,1681.2000000000116,1669.6000000000058,1681.2000000000116,1681.2000000000116,1669.6000000000058,1681.2000000000116,1.0,0.0,0.0,,Click Response,2_count,5.0,object-49,temp_dist_trial,27.0,t_i_09_1,travel_Iceland,ear muffs,1.0,unique,paired,t_i_09_1.jpg,Travel,$${counterbalance_group},,sub-92
Desktop or Laptop,Linux x86_64,Chrome 137.0.0.0,3840x2160,2560x1440,Temporal Distance Task,cb_01,75.0,temp_dist_trial,dist_items,qkpkxw,2.0,info,,3.4999999761639637,0.0,3.4999999761639637,3.4999999761639637,0.0,3.4999999761639637,1.0,0.0,0.0,,Slider,Slider,4.0,object-56,temp_dist_trial,27.0,t_i_09_1,travel_Iceland,ear muffs,1.0,unique,paired,t_i_09_1.jpg,Travel,$${counterbalance_group},,sub-92
Desktop or Laptop,Linux x86_64,Chrome 137.0.0.0,3840x2160,2560x1440,Temporal Distance Task,cb_01,75.0,temp_dist_trial,dist_items,qkpkxw,2.0,continue,,1453.6999999940454,1450.0,1453.6999999940454,1453.6999999940454,1450.0,1453.6999999940454,1.0,0.0,0.0,,Click To Continue,Next button,7.0,object-60,temp_dist_trial,27.0,t_i_09_1,travel_Iceland,ear muffs,1.0,unique,paired,t_i_09_1.jpg,Travel,$${counterbalance_group},,sub-92
Desktop or Laptop,Linux x86_64,Chrome 137.0.0.0,3840x2160,2560x1440,Temporal Distance Task,cb_01,75.0,temp_dist_trial,dist_items,qkpkxw,2.0,response,36,380.2000000000117,1450.0,1453.999999976164,380.2000000000117,1450.0,1453.999999976164,1.0,1073.7999999761523,0.0,,Slider,Slider,4.0,object-56,temp_dist_trial,27.0,t_i_09_1,travel_Iceland,ear muffs,1.0,unique,paired,t_i_09_1.jpg,Travel,$${counterbalance_group},,sub-92
Desktop or Laptop,Linux x86_64,Chrome 137.0.0.0,3840x2160,2560x1440,Temporal Distance Task,cb_01,76.0,temp_dist_trial,num_items,zn7si1,1.0,response,1_ITEM,1340.2999999880851,1330.3000000000175,1340.2999999880851,1340.2999999880851,1330.3000000000175,1340.2999999880851,1.0,0.0,0.0,,Click Response,1_count,3.0,object-46,temp_dist_trial,28.0,t_m_06_1,travel_Miami,handheld fan,1.0,unique,single,t_m_06_1.jpg,Travel,$${counterbalance_group},,sub-92
Desktop or Laptop,Linux x86_64,Chrome 137.0.0.0,3840x2160,2560x1440,Temporal Distance Task,cb_01,77.0,temp_dist_trial,num_items,zn7si1,1.0,response,2_ITEM,1318.6999999821128,1303.0,1318.6999999821128,1318.6999999821128,1303.0,1318.6999999821128,1.0,0.0,0.0,,Click Response,2_count,5.0,object-49,temp_dist_trial,29.0,t_s_20_1,travel_shared,travel pill case,1.0,competing,paired,t_s_20_1.jpg,Travel,$${counterbalance_group},,sub-92
Desktop or Laptop,Linux x86_64,Chrome 137.0.0.0,3840x2160,2560x1440,Temporal Distance Task,cb_01,77.0,temp_dist_trial,dist_items,qkpkxw,2.0,info,,3.5999999880732503,0.0,3.5999999880732503,3.5999999880732503,0.0,3.5999999880732503,1.0,0.0,0.0,,Slider,Slider,4.0,object-56,temp_dist_trial,29.0,t_s_20_1,travel_shared,travel pill case,1.0,competing,paired,t_s_20_1.jpg,Travel,$${counterbalance_group},,sub-92
Desktop or Laptop,Linux x86_64,Chrome 137.0.0.0,3840x2160,2560x1440,Temporal Distance Task,cb_01,77.0,temp_dist_trial,dist_items,qkpkxw,2.0,continue,,1328.1999999821128,1313.6000000000058,1328.1999999821128,1328.1999999821128,1313.6000000000058,1328.1999999821128,1.0,0.0,0.0,,Click To Continue,Next button,7.0,object-60,temp_dist_trial,29.0,t_s_20_1,travel_shared,travel pill case,1.0,competing,paired,t_s_20_1.jpg,Travel,$${counterbalance_group},,sub-92
Desktop or Laptop,Linux x86_64,Chrome 137.0.0.0,3840x2160,2560x1440,Temporal Distance Task,cb_01,77.0,temp_dist_trial,dist_items,qkpkxw,2.0,response,27,436.3999999999942,1313.6000000000058,1328.6999999821128,436.3999999999942,1313.6000000000058,1328.6999999821128,1.0,892.2999999821187,0.0,,Slider,Slider,4.0,object-56,temp_dist_trial,29.0,t_s_20_1,travel_shared,travel pill case,1.0,competing,paired,t_s_20_1.jpg,Travel,$${counterbalance_group},,sub-92
Desktop or Laptop,Linux x86_64,Chrome 137.0.0.0,3840x2160,2560x1440,Temporal Distance Task,cb_01,78.0,temp_dist_trial,num_items,zn7si1,1.0,response,1_ITEM,958.6999999761464,951.5999999999768,958.6999999761464,958.6999999761464,951.5999999999768,958.6999999761464,1.0,0.0,0.0,,Click Response,1_count,3.0,object-46,temp_dist_trial,30.0,t_s_23_1,travel_shared,ball cap,1.0,competing,single,t_s_23_1.jpg,Travel,$${counterbalance_group},,sub-92
Desktop or Laptop,Linux x86_64,Chrome 137.0.0.0,3840x2160,2560x1440,Temporal Distance Task,cb_01,79.0,temp_dist_trial,num_items,zn7si1,1.0,response,2_ITEM,1026.5999999880733,1019.6999999999823,1026.5999999880733,1026.5999999880733,1019.6999999999823,1026.5999999880733,1.0,0.0,0.0,,Click Response,2_count,5.0,object-49,temp_dist_trial,31.0,t_s_14_1,travel_shared,hand sanitizer,1.0,competing,paired,t_s_14_1.jpg,Travel,$${counterbalance_group},,sub-92
Desktop or Laptop,Linux x86_64,Chrome 137.0.0.0,3840x2160,2560x1440,Temporal Distance Task,cb_01,79.0,temp_dist_trial,dist_items,qkpkxw,2.0,info,,3.8999999821244273,0.0,3.8999999821244273,3.8999999821244273,0.0,3.8999999821244273,1.0,0.0,0.0,,Slider,Slider,4.0,object-56,temp_dist_trial,31.0,t_s_14_1,travel_shared,hand sanitizer,1.0,competing,paired,t_s_14_1.jpg,Travel,$${counterbalance_group},,sub-92
Desktop or Laptop,Linux x86_64,Chrome 137.0.0.0,3840x2160,2560x1440,Temporal Distance Task,cb_01,79.0,temp_dist_trial,dist_items,qkpkxw,2.0,continue,,2528.199999994045,2521.1000000000063,2528.199999994045,2528.199999994045,2521.1000000000063,2528.199999994045,1.0,0.0,0.0,,Click To Continue,Next button,7.0,object-60,temp_dist_trial,31.0,t_s_14_1,travel_shared,hand sanitizer,1.0,competing,paired,t_s_14_1.jpg,Travel,$${counterbalance_group},,sub-92
Desktop or Laptop,Linux x86_64,Chrome 137.0.0.0,3840x2160,2560x1440,Temporal Distance Task,cb_01,79.0,temp_dist_trial,dist_items,qkpkxw,2.0,response,61,984.8000000000177,2521.1000000000063,2528.499999976164,984.8000000000177,2521.1000000000063,2528.499999976164,1.0,1543.6999999761465,0.0,,Slider,Slider,4.0,object-56,temp_dist_trial,31.0,t_s_14_1,travel_shared,hand sanitizer,1.0,competing,paired,t_s_14_1.jpg,Travel,$${counterbalance_group},,sub-92
Desktop or Laptop,Linux x86_64,Chrome 137.0.0.0,3840x2160,2560x1440,Temporal Distance Task,cb_01,80.0,temp_dist_trial,num_items,zn7si1,1.0,response,2_ITEM,1230.399999976158,1215.2000000000114,1230.399999976158,1230.399999976158,1215.2000000000114,1230.399999976158,1.0,0.0,0.0,,Click Response,2_count,5.0,object-49,temp_dist_trial,32.0,t_s_21_1,travel_shared,umbrella,1.0,competing,paired,t_s_21_1.jpg,Travel,$${counterbalance_group},,sub-92
Desktop or Laptop,Linux x86_64,Chrome 137.0.0.0,3840x2160,2560x1440,Temporal Distance Task,cb_01,80.0,temp_dist_trial,dist_items,qkpkxw,2.0,info,,3.1999999821127862,0.0,3.1999999821127862,3.1999999821127862,0.0,3.1999999821127862,1.0,0.0,0.0,,Slider,Slider,4.0,object-56,temp_dist_trial,32.0,t_s_21_1,travel_shared,umbrella,1.0,competing,paired,t_s_21_1.jpg,Travel,$${counterbalance_group},,sub-92
Desktop or Laptop,Linux x86_64,Chrome 137.0.0.0,3840x2160,2560x1440,Temporal Distance Task,cb_01,80.0,temp_dist_trial,dist_items,qkpkxw,2.0,continue,,1898.099999988073,1895.5,1898.099999988073,1898.099999988073,1895.5,1898.099999988073,1.0,0.0,0.0,,Click To Continue,Next button,7.0,object-60,temp_dist_trial,32.0,t_s_21_1,travel_shared,umbrella,1.0,competing,paired,t_s_21_1.jpg,Travel,$${counterbalance_group},,sub-92
Desktop or Laptop,Linux x86_64,Chrome 137.0.0.0,3840x2160,2560x1440,Temporal Distance Task,cb_01,80.0,temp_dist_trial,dist_items,qkpkxw,2.0,response,64,951.5,1895.5,1898.3999999999944,951.5,1895.5,1898.3999999999944,1.0,946.8999999999942,0.0,,Slider,Slider,4.0,object-56,temp_dist_trial,32.0,t_s_21_1,travel_shared,umbrella,1.0,competing,paired,t_s_21_1.jpg,Travel,$${counterbalance_group},,sub-92
Desktop or Laptop,Linux x86_64,Chrome 137.0.0.0,3840x2160,2560x1440,Temporal Distance Task,cb_01,81.0,temp_dist_trial,num_items,zn7si1,1.0,response,2_ITEM,1002.8999999999942,998.5,1002.8999999999942,1002.8999999999942,998.5,1002.8999999999942,1.0,0.0,0.0,,Click Response,2_count,5.0,object-49,temp_dist_trial,33.0,t_s_08_1,travel_shared,hand lotion,1.0,competing,paired,t_s_08_1.jpg,Travel,$${counterbalance_group},,sub-92
Desktop or Laptop,Linux x86_64,Chrome 137.0.0.0,3840x2160,2560x1440,Temporal Distance Task,cb_01,81.0,temp_dist_trial,dist_items,qkpkxw,2.0,info,,3.0999999940395355,0.0,3.0999999940395355,3.0999999940395355,0.0,3.0999999940395355,1.0,0.0,0.0,,Slider,Slider,4.0,object-56,temp_dist_trial,33.0,t_s_08_1,travel_shared,hand lotion,1.0,competing,paired,t_s_08_1.jpg,Travel,$${counterbalance_group},,sub-92
Desktop or Laptop,Linux x86_64,Chrome 137.0.0.0,3840x2160,2560x1440,Temporal Distance Task,cb_01,81.0,temp_dist_trial,dist_items,qkpkxw,2.0,continue,,1674.6999999880786,1660.7000000000116,1674.6999999880786,1674.6999999880786,1660.7000000000116,1674.6999999880786,1.0,0.0,0.0,,Click To Continue,Next button,7.0,object-60,temp_dist_trial,33.0,t_s_08_1,travel_shared,hand lotion,1.0,competing,paired,t_s_08_1.jpg,Travel,$${counterbalance_group},,sub-92
Desktop or Laptop,Linux x86_64,Chrome 137.0.0.0,3840x2160,2560x1440,Temporal Distance Task,cb_01,81.0,temp_dist_trial,dist_items,qkpkxw,2.0,response,70,931.8999999999942,1660.7000000000116,1675.0999999940395,931.8999999999942,1660.7000000000116,1675.0999999940395,1.0,743.1999999940454,0.0,,Slider,Slider,4.0,object-56,temp_dist_trial,33.0,t_s_08_1,travel_shared,hand lotion,1.0,competing,paired,t_s_08_1.jpg,Travel,$${counterbalance_group},,sub-92
Desktop or Laptop,Linux x86_64,Chrome 137.0.0.0,3840x2160,2560x1440,Temporal Distance Task,cb_01,82.0,temp_dist_trial,num_items,zn7si1,1.0,response,1_ITEM,942.2999999999884,937.7999999999884,942.2999999999884,942.2999999999884,937.7999999999884,942.2999999999884,1.0,0.0,0.0,,Click Response,1_count,3.0,object-46,temp_dist_trial,34.0,t_i_15_1,travel_Iceland,compass,1.0,unique,paired,t_i_15_1.jpg,Travel,$${counterbalance_group},,sub-92
Desktop or Laptop,Linux x86_64,Chrome 137.0.0.0,3840x2160,2560x1440,Temporal Distance Task,cb_01,83.0,temp_dist_trial,num_items,zn7si1,1.0,response,1_ITEM,1847.0,1836.2999999999884,1847.0,1847.0,1836.2999999999884,1847.0,1.0,0.0,0.0,,Click Response,1_count,3.0,object-46,temp_dist_trial,35.0,t_s_03_1,travel_shared,portable charger,1.0,competing,paired,t_s_03_1.jpg,Travel,$${counterbalance_group},,sub-92
Desktop or Laptop,Linux x86_64,Chrome 137.0.0.0,3840x2160,2560x1440,Temporal Distance Task,cb_01,84.0,temp_dist_trial,num_items,zn7si1,1.0,response,1_ITEM,863.2999999940512,853.0,863.2999999940512,863.2999999940512,853.0,863.2999999940512,1.0,0.0,0.0,,Click Response,1_count,3.0,object-46,temp_dist_trial,36.0,t_s_19_1,travel_shared,pajamas,1.0,competing,single,t_s_19_1.jpg,Travel,$${counterbalance_group},,sub-92
Desktop or Laptop,Linux x86_64,Chrome 137.0.0.0,3840x2160,2560x1440,Temporal Distance Task,cb_01,85.0,temp_dist_trial,num_items,zn7si1,1.0,response,1_ITEM,1167.5999999761698,1154.6000000000058,1167.5999999761698,1167.5999999761698,1154.6000000000058,1167.5999999761698,1.0,0.0,0.0,,Click Response,1_count,3.0,object-46,temp_dist_trial,37.0,t_i_04_1,travel_Iceland,portable camping stove,1.0,unique,single,t_i_04_1.jpg,Travel,$${counterbalance_group},,sub-92
Desktop or Laptop,Linux x86_64,Chrome 137.0.0.0,3840x2160,2560x1440,Temporal Distance Task,cb_01,86.0,temp_dist_trial,num_items,zn7si1,1.0,response,1_ITEM,1089.2999999821186,1081.7000000000116,1089.2999999821186,1089.2999999821186,1081.7000000000116,1089.2999999821186,1.0,0.0,0.0,,Click Response,1_count,3.0,object-46,temp_dist_trial,38.0,t_s_17_1,travel_shared,toothbrush,1.0,competing,paired,t_s_17_1.jpg,Travel,$${counterbalance_group},,sub-92
Desktop or Laptop,Linux x86_64,Chrome 137.0.0.0,3840x2160,2560x1440,Temporal Distance Task,cb_01,87.0,temp_dist_trial,num_items,zn7si1,1.0,response,1_ITEM,672.9999999821302,669.6000000000057,672.9999999821302,672.9999999821302,669.6000000000057,672.9999999821302,1.0,0.0,0.0,,Click Response,1_count,3.0,object-46,temp_dist_trial,39.0,t_m_16_1,travel_Miami,flippers,1.0,unique,paired,t_m_16_1.jpg,Travel,$${counterbalance_group},,sub-92
Desktop or Laptop,Linux x86_64,Chrome 137.0.0.0,3840x2160,2560x1440,Temporal Distance Task,cb_01,88.0,temp_dist_trial,num_items,zn7si1,1.0,response,1_ITEM,725.7999999880849,719.6000000000058,725.7999999880849,725.7999999880849,719.6000000000058,725.7999999880849,1.0,0.0,0.0,,Click Response,1_count,3.0,object-46,temp_dist_trial,40.0,t_s_11_1,travel_shared,eye mask,1.0,competing,paired,t_s_11_1.jpg,Travel,$${counterbalance_group},,sub-92
Desktop or Laptop,Linux x86_64,Chrome 137.0.0.0,3840x2160,2560x1440,Temporal Distance Task,cb_01,89.0,temp_dist_trial,num_items,zn7si1,1.0,response,2_ITEM,961.6999999880792,953.0,961.6999999880792,961.6999999880792,953.0,961.6999999880792,1.0,0.0,0.0,,Click Response,2_count,5.0,object-49,temp_dist_trial,41.0,t_s_04_1,travel_shared,instant camera,1.0,competing,single,t_s_04_1.jpg,Travel,$${counterbalance_group},,sub-92
Desktop or Laptop,Linux x86_64,Chrome 137.0.0.0,3840x2160,2560x1440,Temporal Distance Task,cb_01,89.0,temp_dist_trial,dist_items,qkpkxw,2.0,info,,3.899999976158142,0.0,3.899999976158142,3.899999976158142,0.0,3.899999976158142,1.0,0.0,0.0,,Slider,Slider,4.0,object-56,temp_dist_trial,41.0,t_s_04_1,travel_shared,instant camera,1.0,competing,single,t_s_04_1.jpg,Travel,$${counterbalance_group},,sub-92
Desktop or Laptop,Linux x86_64,Chrome 137.0.0.0,3840x2160,2560x1440,Temporal Distance Task,cb_01,89.0,temp_dist_trial,dist_items,qkpkxw,2.0,continue,,1770.0,1765.2000000000116,1770.0,1770.0,1765.2000000000116,1770.0,1.0,0.0,0.0,,Click To Continue,Next button,7.0,object-60,temp_dist_trial,41.0,t_s_04_1,travel_shared,instant camera,1.0,competing,single,t_s_04_1.jpg,Travel,$${counterbalance_group},,sub-92
Desktop or Laptop,Linux x86_64,Chrome 137.0.0.0,3840x2160,2560x1440,Temporal Distance Task,cb_01,89.0,temp_dist_trial,dist_items,qkpkxw,2.0,response,33,851.5,1765.2000000000116,1770.3999999761581,851.5,1765.2000000000116,1770.3999999761581,1.0,918.899999976158,0.0,,Slider,Slider,4.0,object-56,temp_dist_trial,41.0,t_s_04_1,travel_shared,instant camera,1.0,competing,single,t_s_04_1.jpg,Travel,$${counterbalance_group},,sub-92
Desktop or Laptop,Linux x86_64,Chrome 137.0.0.0,3840x2160,2560x1440,Temporal Distance Task,cb_01,90.0,temp_dist_trial,num_items,zn7si1,1.0,response,2_ITEM,1197.4999999880674,1184.7999999999886,1197.4999999880674,1197.4999999880674,1184.7999999999886,1197.4999999880674,1.0,0.0,0.0,,Click Response,2_count,5.0,object-49,temp_dist_trial,42.0,t_m_12_1,travel_Miami,foldable pail and shovel,1.0,unique,paired,t_m_12_1.jpg,Travel,$${counterbalance_group},,sub-92
Desktop or Laptop,Linux x86_64,Chrome 137.0.0.0,3840x2160,2560x1440,Temporal Distance Task,cb_01,90.0,temp_dist_trial,dist_items,qkpkxw,2.0,info,,3.799999988084892,0.0,3.799999988084892,3.799999988084892,0.0,3.799999988084892,1.0,0.0,0.0,,Slider,Slider,4.0,object-56,temp_dist_trial,42.0,t_m_12_1,travel_Miami,foldable pail and shovel,1.0,unique,paired,t_m_12_1.jpg,Travel,$${counterbalance_group},,sub-92
Desktop or Laptop,Linux x86_64,Chrome 137.0.0.0,3840x2160,2560x1440,Temporal Distance Task,cb_01,90.0,temp_dist_trial,dist_items,qkpkxw,2.0,continue,,3612.199999994045,3609.200000000012,3612.199999994045,3612.199999994045,3609.200000000012,3612.199999994045,1.0,0.0,0.0,,Click To Continue,Next button,7.0,object-60,temp_dist_trial,42.0,t_m_12_1,travel_Miami,foldable pail and shovel,1.0,unique,paired,t_m_12_1.jpg,Travel,$${counterbalance_group},,sub-92
Desktop or Laptop,Linux x86_64,Chrome 137.0.0.0,3840x2160,2560x1440,Temporal Distance Task,cb_01,90.0,temp_dist_trial,dist_items,qkpkxw,2.0,response,13,2480.3999999999937,3609.200000000012,3612.499999976164,2480.3999999999937,3609.200000000012,3612.499999976164,1.0,1132.0999999761698,0.0,,Slider,Slider,4.0,object-56,temp_dist_trial,42.0,t_m_12_1,travel_Miami,foldable pail and shovel,1.0,unique,paired,t_m_12_1.jpg,Travel,$${counterbalance_group},,sub-92
Desktop or Laptop,Linux x86_64,Chrome 137.0.0.0,3840x2160,2560x1440,Temporal Distance Task,cb_01,91.0,temp_dist_trial,num_items,zn7si1,1.0,response,1_ITEM,875.2999999761522,863.5,875.2999999761522,875.2999999761522,863.5,875.2999999761522,1.0,0.0,0.0,,Click Response,1_count,3.0,object-46,temp_dist_trial,43.0,t_m_19_1,travel_Miami,surfboard,1.0,unique,paired,t_m_19_1.jpg,Travel,$${counterbalance_group},,sub-92
Desktop or Laptop,Linux x86_64,Chrome 137.0.0.0,3840x2160,2560x1440,Temporal Distance Task,cb_01,92.0,temp_dist_trial,num_items,zn7si1,1.0,response,2_ITEM,967.899999994028,952.8999999999942,967.899999994028,967.899999994028,952.8999999999942,967.899999994028,1.0,0.0,0.0,,Click Response,2_count,5.0,object-49,temp_dist_trial,44.0,t_s_18_1,travel_shared,first aid kit,1.0,competing,paired,t_s_18_1.jpg,Travel,$${counterbalance_group},,sub-92
Desktop or Laptop,Linux x86_64,Chrome 137.0.0.0,3840x2160,2560x1440,Temporal Distance Task,cb_01,92.0,temp_dist_trial,dist_items,qkpkxw,2.0,info,,4.399999994027893,0.0,4.399999994027893,4.399999994027893,0.0,4.399999994027893,1.0,0.0,0.0,,Slider,Slider,4.0,object-56,temp_dist_trial,44.0,t_s_18_1,travel_shared,first aid kit,1.0,competing,paired,t_s_18_1.jpg,Travel,$${counterbalance_group},,sub-92
Desktop or Laptop,Linux x86_64,Chrome 137.0.0.0,3840x2160,2560x1440,Temporal Distance Task,cb_01,92.0,temp_dist_trial,dist_items,qkpkxw,2.0,continue,,1579.6999999761465,1568.1999999999825,1579.6999999761465,1579.6999999761465,1568.1999999999825,1579.6999999761465,1.0,0.0,0.0,,Click To Continue,Next button,7.0,object-60,temp_dist_trial,44.0,t_s_18_1,travel_shared,first aid kit,1.0,competing,paired,t_s_18_1.jpg,Travel,$${counterbalance_group},,sub-92
Desktop or Laptop,Linux x86_64,Chrome 137.0.0.0,3840x2160,2560x1440,Temporal Distance Task,cb_01,92.0,temp_dist_trial,dist_items,qkpkxw,2.0,response,39,598.3999999999943,1568.1999999999825,1580.099999982107,598.3999999999943,1568.1999999999825,1580.099999982107,1.0,981.6999999821128,0.0,,Slider,Slider,4.0,object-56,temp_dist_trial,44.0,t_s_18_1,travel_shared,first aid kit,1.0,competing,paired,t_s_18_1.jpg,Travel,$${counterbalance_group},,sub-92
Desktop or Laptop,Linux x86_64,Chrome 137.0.0.0,3840x2160,2560x1440,Temporal Distance Task,cb_01,93.0,temp_dist_trial,num_items,zn7si1,1.0,response,1_ITEM,907.2999999880847,895.3000000000177,907.2999999880847,907.2999999880847,895.3000000000177,907.2999999880847,1.0,0.0,0.0,,Click Response,1_count,3.0,object-46,temp_dist_trial,45.0,t_m_15_1,travel_Miami,shorts,1.0,unique,paired,t_m_15_1.jpg,Travel,$${counterbalance_group},,sub-92
Desktop or Laptop,Linux x86_64,Chrome 137.0.0.0,3840x2160,2560x1440,Temporal Distance Task,cb_01,94.0,temp_dist_trial,num_items,zn7si1,1.0,response,1_ITEM,1405.7999999940512,1396.9000000000233,1405.7999999940512,1405.7999999940512,1396.9000000000233,1405.7999999940512,1.0,0.0,0.0,,Click Response,1_count,3.0,object-46,temp_dist_trial,46.0,t_s_15_1,travel_shared,luggage tag,1.0,competing,single,t_s_15_1.jpg,Travel,$${counterbalance_group},,sub-92
Desktop or Laptop,Linux x86_64,Chrome 137.0.0.0,3840x2160,2560x1440,Temporal Distance Task,cb_01,95.0,temp_dist_trial,num_items,zn7si1,1.0,response,2_ITEM,1099.099999982107,1096.8999999999942,1099.099999982107,1099.099999982107,1096.8999999999942,1099.099999982107,1.0,0.0,0.0,,Click Response,2_count,5.0,object-49,temp_dist_trial,47.0,t_m_02_1,travel_Miami,t-shirt,1.0,unique,paired,t_m_02_1.jpg,Travel,$${counterbalance_group},,sub-92
Desktop or Laptop,Linux x86_64,Chrome 137.0.0.0,3840x2160,2560x1440,Temporal Distance Task,cb_01,95.0,temp_dist_trial,dist_items,qkpkxw,2.0,info,,3.699999982112786,0.0,3.699999982112786,3.699999982112786,0.0,3.699999982112786,1.0,0.0,0.0,,Slider,Slider,4.0,object-56,temp_dist_trial,47.0,t_m_02_1,travel_Miami,t-shirt,1.0,unique,paired,t_m_02_1.jpg,Travel,$${counterbalance_group},,sub-92
Desktop or Laptop,Linux x86_64,Chrome 137.0.0.0,3840x2160,2560x1440,Temporal Distance Task,cb_01,95.0,temp_dist_trial,dist_items,qkpkxw,2.0,continue,,2287.9999999940337,2284.7999999999884,2287.9999999940337,2287.9999999940337,2284.7999999999884,2287.9999999940337,1.0,0.0,0.0,,Click To Continue,Next button,7.0,object-60,temp_dist_trial,47.0,t_m_02_1,travel_Miami,t-shirt,1.0,unique,paired,t_m_02_1.jpg,Travel,$${counterbalance_group},,sub-92
Desktop or Laptop,Linux x86_64,Chrome 137.0.0.0,3840x2160,2560x1440,Temporal Distance Task,cb_01,95.0,temp_dist_trial,dist_items,qkpkxw,2.0,response,36,530.1999999999825,2284.7999999999884,2288.1999999821132,530.1999999999825,2284.7999999999884,2288.1999999821132,1.0,1757.99999998213,0.0,,Slider,Slider,4.0,object-56,temp_dist_trial,47.0,t_m_02_1,travel_Miami,t-shirt,1.0,unique,paired,t_m_02_1.jpg,Travel,$${counterbalance_group},,sub-92
Desktop or Laptop,Linux x86_64,Chrome 137.0.0.0,3840x2160,2560x1440,Temporal Distance Task,cb_01,96.0,temp_dist_trial,num_items,zn7si1,1.0,response,1_ITEM,899.2999999880849,892.3999999999942,899.2999999880849,899.2999999880849,892.3999999999942,899.2999999880849,1.0,0.0,0.0,,Click Response,1_count,3.0,object-46,temp_dist_trial,48.0,t_m_08_1,travel_Miami,flipflops,1.0,unique,single,t_m_08_1.jpg,Travel,$${counterbalance_group},,sub-92
Desktop or Laptop,Linux x86_64,Chrome 137.0.0.0,3840x2160,2560x1440,Temporal Distance Task,,,,,,,info,END,,,226348.0,,,,,,,,,,,,,,,,,,,,,,$${counterbalance_group},,sub-92
