Participant Device,Participant OS,Participant Browser,Participant Monitor Size,Participant Viewport Size,Task Name,Current Spreadsheet,Trial Number,Display,Screen,Screen ID,Screen Counter,Response Type,Response,Onset Time,Clock Time,Reaction Time,Absolute Onset Time,Absolute Clock Time,Absolute Reaction Time,Correct,Response Duration,Proportion,Tag,Component Name,Object Name,Object Number,Object ID,Spreadsheet: display,Spreadsheet: trial,Spreadsheet: stimulus_id,Spreadsheet: expected_goal,Spreadsheet: stimulus_name,Spreadsheet: c_group,Spreadsheet: condition,Spreadsheet: paired_status,Spreadsheet: stimulus_path,Spreadsheet: block_type,Manipulation: Spreadsheet,Store: enc_test_acc,sub_label
Desktop or Laptop,Windows 10,Chrome 137.0.0.0,1536x1024,1536x1024,Temporal Distance Task,$${counterbalance_group},,,,,,info,BEGIN,,,,,,,0.0,,,,,,,,,,,,,,,,,,,,sub-30
Desktop or Laptop,Windows 10,Chrome 137.0.0.0,1536x1024,1536x1024,Temporal Distance Task,cb_01,1.0,temp_instructions,intro_screen,3tnme7,1.0,continue,,8592.799999976158,8584.8,8592.799999976158,8592.799999976158,8584.8,8592.799999976158,1.0,0.0,0.0,,Click To Continue,Continue Button,4.0,object-29,temp_instructions,,,Student,,,,,,,,,sub-30
Desktop or Laptop,Windows 10,Chrome 137.0.0.0,1536x1024,1536x1024,Temporal Distance Task,cb_01,1.0,temp_instructions,intro_screen_2,52v7ur,2.0,continue,,8766.6,8749.800000000001,8766.6,8766.6,8749.800000000001,8766.6,1.0,0.0,0.0,,Click To Continue,Continue Button,4.0,object-39,temp_instructions,,,Student,,,,,,,,,sub-30
Desktop or Laptop,Windows 10,Chrome 137.0.0.0,1536x1024,1536x1024,Temporal Distance Task,cb_01,1.0,temp_instructions,intro_screen_3,i7lvwx,3.0,continue,,2450.2999999999993,2433.5,2450.2999999999993,2450.2999999999993,2433.5,2450.2999999999993,1.0,0.0,0.0,,Click To Continue,Continue Button,4.0,object-67,temp_instructions,,,Student,,,,,,,,,sub-30
Desktop or Laptop,Windows 10,Chrome 137.0.0.0,1536x1024,1536x1024,Temporal Distance Task,cb_01,1.0,temp_instructions,test_q1,5ieqx1,4.0,response,choice_3,3448.1999999761574,3433.3999999999987,3448.1999999761574,3448.1999999761574,3433.3999999999987,3448.1999999761574,1.0,0.0,0.0,,Click Response,choice_3,5.0,object-345,temp_instructions,,,Student,,,,,,,,,sub-30
Desktop or Laptop,Windows 10,Chrome 137.0.0.0,1536x1024,1536x1024,Temporal Distance Task,cb_01,1.0,temp_instructions,score_corr,7ilvjr,5.0,continue,,1126.7999999761596,1116.7000000000007,1126.7999999761596,1126.7999999761596,1116.7000000000007,1126.7999999761596,1.0,0.0,0.0,,Click To Continue,Continue Button,3.0,object-23,temp_instructions,,,Student,,,,,,,,,sub-30
Desktop or Laptop,Windows 10,Chrome 137.0.0.0,1536x1024,1536x1024,Temporal Distance Task,cb_01,1.0,temp_eventStart,Screen 1,dgtyxe,1.0,continue,,1583.2000000000005,1566.4000000000015,1583.2000000000005,1583.2000000000005,1566.4000000000015,1583.2000000000005,1.0,0.0,0.0,,Click To Continue,Next Button,3.0,object-43,temp_eventStart,,,Student,,,,,,,,,sub-30
Desktop or Laptop,Windows 10,Chrome 137.0.0.0,1536x1024,1536x1024,Temporal Distance Task,cb_01,1.0,temp_dist_trial,num_items,zn7si1,1.0,response,2_ITEM,2227.400000023841,2217.2000000000007,2227.400000023841,2227.400000023841,2217.2000000000007,2227.400000023841,1.0,0.0,0.0,,Click Response,2_count,5.0,object-49,temp_dist_trial,1.0,s_sh_22_1,student_shared,hole puncher,1.0,competing,single,s_sh_22_1.jpg,Student,,,sub-30
Desktop or Laptop,Windows 10,Chrome 137.0.0.0,1536x1024,1536x1024,Temporal Distance Task,cb_01,1.0,temp_dist_trial,dist_items,qkpkxw,2.0,info,,14.700000000000728,0.0,14.700000000000728,14.700000000000728,0.0,14.700000000000728,1.0,0.0,0.0,,Slider,Slider,4.0,object-56,temp_dist_trial,1.0,s_sh_22_1,student_shared,hole puncher,1.0,competing,single,s_sh_22_1.jpg,Student,,,sub-30
Desktop or Laptop,Windows 10,Chrome 137.0.0.0,1536x1024,1536x1024,Temporal Distance Task,cb_01,1.0,temp_dist_trial,dist_items,qkpkxw,2.0,continue,,4783.100000000002,4766.700000000002,4783.100000000002,4783.100000000002,4766.700000000002,4783.100000000002,1.0,0.0,0.0,,Click To Continue,Next button,7.0,object-60,temp_dist_trial,1.0,s_sh_22_1,student_shared,hole puncher,1.0,competing,single,s_sh_22_1.jpg,Student,,,sub-30
Desktop or Laptop,Windows 10,Chrome 137.0.0.0,1536x1024,1536x1024,Temporal Distance Task,cb_01,1.0,temp_dist_trial,dist_items,qkpkxw,2.0,response,35,1700.3999999999978,4766.700000000002,4783.100000000002,1700.3999999999978,4766.700000000002,4783.100000000002,1.0,3082.7000000000044,0.0,,Slider,Slider,4.0,object-56,temp_dist_trial,1.0,s_sh_22_1,student_shared,hole puncher,1.0,competing,single,s_sh_22_1.jpg,Student,,,sub-30
Desktop or Laptop,Windows 10,Chrome 137.0.0.0,1536x1024,1536x1024,Temporal Distance Task,cb_01,2.0,temp_dist_trial,num_items,zn7si1,1.0,response,1_ITEM,2377.700000047684,2366.900000000001,2377.700000047684,2377.700000047684,2366.900000000001,2377.700000047684,1.0,0.0,0.0,,Click Response,1_count,3.0,object-46,temp_dist_trial,2.0,s_sh_08_1,student_shared,post-its,1.0,competing,single,s_sh_08_1.jpg,Student,,,sub-30
Desktop or Laptop,Windows 10,Chrome 137.0.0.0,1536x1024,1536x1024,Temporal Distance Task,cb_01,3.0,temp_dist_trial,num_items,zn7si1,1.0,response,2_ITEM,1128.9000000000015,1117.0999999999983,1128.9000000000015,1128.9000000000015,1117.0999999999983,1128.9000000000015,1.0,0.0,0.0,,Click Response,2_count,5.0,object-49,temp_dist_trial,3.0,s_sh_10_1,student_shared,scissors,1.0,competing,paired,s_sh_10_1.jpg,Student,,,sub-30
Desktop or Laptop,Windows 10,Chrome 137.0.0.0,1536x1024,1536x1024,Temporal Distance Task,cb_01,3.0,temp_dist_trial,dist_items,qkpkxw,2.0,info,,9.300000071525574,0.0,9.300000071525574,9.300000071525574,0.0,9.300000071525574,1.0,0.0,0.0,,Slider,Slider,4.0,object-56,temp_dist_trial,3.0,s_sh_10_1,student_shared,scissors,1.0,competing,paired,s_sh_10_1.jpg,Student,,,sub-30
Desktop or Laptop,Windows 10,Chrome 137.0.0.0,1536x1024,1536x1024,Temporal Distance Task,cb_01,3.0,temp_dist_trial,dist_items,qkpkxw,2.0,continue,,4289.399999976158,4283.300000000003,4289.399999976158,4289.399999976158,4283.300000000003,4289.399999976158,1.0,0.0,0.0,,Click To Continue,Next button,7.0,object-60,temp_dist_trial,3.0,s_sh_10_1,student_shared,scissors,1.0,competing,paired,s_sh_10_1.jpg,Student,,,sub-30
Desktop or Laptop,Windows 10,Chrome 137.0.0.0,1536x1024,1536x1024,Temporal Distance Task,cb_01,3.0,temp_dist_trial,dist_items,qkpkxw,2.0,response,51,1999.8000000000034,4283.300000000003,4296.5,1999.8000000000034,4283.300000000003,4296.5,1.0,2296.699999999997,0.0,,Slider,Slider,4.0,object-56,temp_dist_trial,3.0,s_sh_10_1,student_shared,scissors,1.0,competing,paired,s_sh_10_1.jpg,Student,,,sub-30
Desktop or Laptop,Windows 10,Chrome 137.0.0.0,1536x1024,1536x1024,Temporal Distance Task,cb_01,4.0,temp_dist_trial,num_items,zn7si1,1.0,response,2_ITEM,1958.5999999761555,1949.8999999999944,1958.5999999761555,1958.5999999761555,1949.8999999999944,1958.5999999761555,1.0,0.0,0.0,,Click Response,2_count,5.0,object-49,temp_dist_trial,4.0,s_s_07_1,student_stem,periodic table,1.0,unique,paired,s_s_07_1.jpg,Student,,,sub-30
Desktop or Laptop,Windows 10,Chrome 137.0.0.0,1536x1024,1536x1024,Temporal Distance Task,cb_01,4.0,temp_dist_trial,dist_items,qkpkxw,2.0,info,,9.400000000001457,0.0,9.400000000001457,9.400000000001457,0.0,9.400000000001457,1.0,0.0,0.0,,Slider,Slider,4.0,object-56,temp_dist_trial,4.0,s_s_07_1,student_stem,periodic table,1.0,unique,paired,s_s_07_1.jpg,Student,,,sub-30
Desktop or Laptop,Windows 10,Chrome 137.0.0.0,1536x1024,1536x1024,Temporal Distance Task,cb_01,4.0,temp_dist_trial,dist_items,qkpkxw,2.0,continue,,2294.1000000476847,2283.2000000000044,2294.1000000476847,2294.1000000476847,2283.2000000000044,2294.1000000476847,1.0,0.0,0.0,,Click To Continue,Next button,7.0,object-60,temp_dist_trial,4.0,s_s_07_1,student_stem,periodic table,1.0,unique,paired,s_s_07_1.jpg,Student,,,sub-30
Desktop or Laptop,Windows 10,Chrome 137.0.0.0,1536x1024,1536x1024,Temporal Distance Task,cb_01,4.0,temp_dist_trial,dist_items,qkpkxw,2.0,response,14,1049.8000000000031,2283.2000000000044,2295.29999997616,1049.8000000000031,2283.2000000000044,2295.29999997616,1.0,1245.4999999761567,0.0,,Slider,Slider,4.0,object-56,temp_dist_trial,4.0,s_s_07_1,student_stem,periodic table,1.0,unique,paired,s_s_07_1.jpg,Student,,,sub-30
Desktop or Laptop,Windows 10,Chrome 137.0.0.0,1536x1024,1536x1024,Temporal Distance Task,cb_01,5.0,temp_dist_trial,num_items,zn7si1,1.0,response,1_ITEM,2538.300000023839,2533.3999999999937,2538.300000023839,2538.300000023839,2533.3999999999937,2538.300000023839,1.0,0.0,0.0,,Click Response,1_count,3.0,object-46,temp_dist_trial,5.0,s_sh_04_1,student_shared,laptop stand,1.0,competing,single,s_sh_04_1.jpg,Student,,,sub-30
Desktop or Laptop,Windows 10,Chrome 137.0.0.0,1536x1024,1536x1024,Temporal Distance Task,cb_01,6.0,temp_dist_trial,num_items,zn7si1,1.0,response,2_ITEM,1781.8000000000034,1766.9000000000015,1781.8000000000034,1781.8000000000034,1766.9000000000015,1781.8000000000034,1.0,0.0,0.0,,Click Response,2_count,5.0,object-49,temp_dist_trial,6.0,s_sh_11_1,student_shared,pencil case,1.0,competing,paired,s_sh_11_1.jpg,Student,,,sub-30
Desktop or Laptop,Windows 10,Chrome 137.0.0.0,1536x1024,1536x1024,Temporal Distance Task,cb_01,6.0,temp_dist_trial,dist_items,qkpkxw,2.0,info,,10.199999976161052,0.0,10.199999976161052,10.199999976161052,0.0,10.199999976161052,1.0,0.0,0.0,,Slider,Slider,4.0,object-56,temp_dist_trial,6.0,s_sh_11_1,student_shared,pencil case,1.0,competing,paired,s_sh_11_1.jpg,Student,,,sub-30
Desktop or Laptop,Windows 10,Chrome 137.0.0.0,1536x1024,1536x1024,Temporal Distance Task,cb_01,6.0,temp_dist_trial,dist_items,qkpkxw,2.0,continue,,2534.199999999997,2516.900000000001,2534.199999999997,2534.199999999997,2516.900000000001,2534.199999999997,1.0,0.0,0.0,,Click To Continue,Next button,7.0,object-60,temp_dist_trial,6.0,s_sh_11_1,student_shared,pencil case,1.0,competing,paired,s_sh_11_1.jpg,Student,,,sub-30
Desktop or Laptop,Windows 10,Chrome 137.0.0.0,1536x1024,1536x1024,Temporal Distance Task,cb_01,6.0,temp_dist_trial,dist_items,qkpkxw,2.0,response,74,1083.3000000000031,2516.900000000001,2534.199999999997,1083.3000000000031,2516.900000000001,2534.199999999997,1.0,1450.8999999999942,0.0,,Slider,Slider,4.0,object-56,temp_dist_trial,6.0,s_sh_11_1,student_shared,pencil case,1.0,competing,paired,s_sh_11_1.jpg,Student,,,sub-30
Desktop or Laptop,Windows 10,Chrome 137.0.0.0,1536x1024,1536x1024,Temporal Distance Task,cb_01,7.0,temp_dist_trial,num_items,zn7si1,1.0,response,2_ITEM,1341.0000000238433,1333.0,1341.0000000238433,1341.0000000238433,1333.0,1341.0000000238433,1.0,0.0,0.0,,Click Response,2_count,5.0,object-49,temp_dist_trial,7.0,s_a_10_1,student_art,tripod,1.0,unique,paired,s_a_10_1.jpg,Student,,,sub-30
Desktop or Laptop,Windows 10,Chrome 137.0.0.0,1536x1024,1536x1024,Temporal Distance Task,cb_01,7.0,temp_dist_trial,dist_items,qkpkxw,2.0,info,,9.600000071528484,0.0,9.600000071528484,9.600000071528484,0.0,9.600000071528484,1.0,0.0,0.0,,Slider,Slider,4.0,object-56,temp_dist_trial,7.0,s_a_10_1,student_art,tripod,1.0,unique,paired,s_a_10_1.jpg,Student,,,sub-30
Desktop or Laptop,Windows 10,Chrome 137.0.0.0,1536x1024,1536x1024,Temporal Distance Task,cb_01,7.0,temp_dist_trial,dist_items,qkpkxw,2.0,continue,,2518.6000000715285,2516.300000000003,2518.6000000715285,2518.6000000715285,2516.300000000003,2518.6000000715285,1.0,0.0,0.0,,Click To Continue,Next button,7.0,object-60,temp_dist_trial,7.0,s_a_10_1,student_art,tripod,1.0,unique,paired,s_a_10_1.jpg,Student,,,sub-30
Desktop or Laptop,Windows 10,Chrome 137.0.0.0,1536x1024,1536x1024,Temporal Distance Task,cb_01,7.0,temp_dist_trial,dist_items,qkpkxw,2.0,response,25,1400.0,2516.300000000003,2519.5000000476866,1400.0,2516.300000000003,2519.5000000476866,1.0,1119.5000000476866,0.0,,Slider,Slider,4.0,object-56,temp_dist_trial,7.0,s_a_10_1,student_art,tripod,1.0,unique,paired,s_a_10_1.jpg,Student,,,sub-30
Desktop or Laptop,Windows 10,Chrome 137.0.0.0,1536x1024,1536x1024,Temporal Distance Task,cb_01,8.0,temp_dist_trial,num_items,zn7si1,1.0,response,1_ITEM,1554.1000000238419,1550.4000000000015,1554.1000000238419,1554.1000000238419,1550.4000000000015,1554.1000000238419,1.0,0.0,0.0,,Click Response,1_count,3.0,object-46,temp_dist_trial,8.0,s_a_12_1,student_art,saxophone,1.0,unique,single,s_a_12_1.jpg,Student,,,sub-30
Desktop or Laptop,Windows 10,Chrome 137.0.0.0,1536x1024,1536x1024,Temporal Distance Task,cb_01,9.0,temp_dist_trial,num_items,zn7si1,1.0,response,num_miss,3000.5,3000.5,3000.5,3000.5,3000.5,3000.5,1.0,0.0,0.0,num_miss_tag,Time Limit,screen,0.0,screen,temp_dist_trial,9.0,s_s_02_1,student_stem,flask,1.0,unique,paired,s_s_02_1.jpg,Student,,,sub-30
Desktop or Laptop,Windows 10,Chrome 137.0.0.0,1536x1024,1536x1024,Temporal Distance Task,cb_01,10.0,temp_dist_trial,num_items,zn7si1,1.0,response,2_ITEM,1863.6000000238416,1849.6000000000056,1863.6000000238416,1863.6000000238416,1849.6000000000056,1863.6000000238416,1.0,0.0,0.0,,Click Response,2_count,5.0,object-49,temp_dist_trial,10.0,s_sh_03_1,student_shared,highlighter,1.0,competing,paired,s_sh_03_1.jpg,Student,,,sub-30
Desktop or Laptop,Windows 10,Chrome 137.0.0.0,1536x1024,1536x1024,Temporal Distance Task,cb_01,10.0,temp_dist_trial,dist_items,qkpkxw,2.0,info,,10.000000023836037,0.0,10.000000023836037,10.000000023836037,0.0,10.000000023836037,1.0,0.0,0.0,,Slider,Slider,4.0,object-56,temp_dist_trial,10.0,s_sh_03_1,student_shared,highlighter,1.0,competing,paired,s_sh_03_1.jpg,Student,,,sub-30
Desktop or Laptop,Windows 10,Chrome 137.0.0.0,1536x1024,1536x1024,Temporal Distance Task,cb_01,10.0,temp_dist_trial,dist_items,qkpkxw,2.0,continue,,2788.2000000715198,2783.0999999999913,2788.2000000715198,2788.2000000715198,2783.0999999999913,2788.2000000715198,1.0,0.0,0.0,,Click To Continue,Next button,7.0,object-60,temp_dist_trial,10.0,s_sh_03_1,student_shared,highlighter,1.0,competing,paired,s_sh_03_1.jpg,Student,,,sub-30
Desktop or Laptop,Windows 10,Chrome 137.0.0.0,1536x1024,1536x1024,Temporal Distance Task,cb_01,10.0,temp_dist_trial,dist_items,qkpkxw,2.0,response,16,1616.6999999999966,2783.0999999999913,2789.1000000476783,1616.6999999999966,2783.0999999999913,2789.1000000476783,1.0,1172.4000000476808,0.0,,Slider,Slider,4.0,object-56,temp_dist_trial,10.0,s_sh_03_1,student_shared,highlighter,1.0,competing,paired,s_sh_03_1.jpg,Student,,,sub-30
Desktop or Laptop,Windows 10,Chrome 137.0.0.0,1536x1024,1536x1024,Temporal Distance Task,cb_01,11.0,temp_dist_trial,num_items,zn7si1,1.0,response,2_ITEM,1348.699999976161,1333.5,1348.699999976161,1348.699999976161,1333.5,1348.699999976161,1.0,0.0,0.0,,Click Response,2_count,5.0,object-49,temp_dist_trial,11.0,s_s_05_1,student_stem,lab goggles,1.0,unique,paired,s_s_05_1.jpg,Student,,,sub-30
Desktop or Laptop,Windows 10,Chrome 137.0.0.0,1536x1024,1536x1024,Temporal Distance Task,cb_01,11.0,temp_dist_trial,dist_items,qkpkxw,2.0,info,,7.900000071531394,0.0,7.900000071531394,7.900000071531394,0.0,7.900000071531394,1.0,0.0,0.0,,Slider,Slider,4.0,object-56,temp_dist_trial,11.0,s_s_05_1,student_stem,lab goggles,1.0,unique,paired,s_s_05_1.jpg,Student,,,sub-30
Desktop or Laptop,Windows 10,Chrome 137.0.0.0,1536x1024,1536x1024,Temporal Distance Task,cb_01,11.0,temp_dist_trial,dist_items,qkpkxw,2.0,continue,,2269.999999976164,2266.700000000012,2269.999999976164,2269.999999976164,2266.700000000012,2269.999999976164,1.0,0.0,0.0,,Click To Continue,Next button,7.0,object-60,temp_dist_trial,11.0,s_s_05_1,student_stem,lab goggles,1.0,unique,paired,s_s_05_1.jpg,Student,,,sub-30
Desktop or Laptop,Windows 10,Chrome 137.0.0.0,1536x1024,1536x1024,Temporal Distance Task,cb_01,11.0,temp_dist_trial,dist_items,qkpkxw,2.0,response,37,1083.5,2266.700000000012,2270.800000047689,1083.5,2266.700000000012,2270.800000047689,1.0,1187.3000000476895,0.0,,Slider,Slider,4.0,object-56,temp_dist_trial,11.0,s_s_05_1,student_stem,lab goggles,1.0,unique,paired,s_s_05_1.jpg,Student,,,sub-30
Desktop or Laptop,Windows 10,Chrome 137.0.0.0,1536x1024,1536x1024,Temporal Distance Task,cb_01,12.0,temp_dist_trial,num_items,zn7si1,1.0,response,2_ITEM,1041.8999999999942,1033.0999999999913,1041.8999999999942,1041.8999999999942,1033.0999999999913,1041.8999999999942,1.0,0.0,0.0,,Click Response,2_count,5.0,object-49,temp_dist_trial,12.0,s_s_01_1,student_stem,microscope,1.0,unique,paired,s_s_01_1.jpg,Student,,,sub-30
Desktop or Laptop,Windows 10,Chrome 137.0.0.0,1536x1024,1536x1024,Temporal Distance Task,cb_01,12.0,temp_dist_trial,dist_items,qkpkxw,2.0,info,,11.200000071519751,0.0,11.200000071519751,11.200000071519751,0.0,11.200000071519751,1.0,0.0,0.0,,Slider,Slider,4.0,object-56,temp_dist_trial,12.0,s_s_01_1,student_stem,microscope,1.0,unique,paired,s_s_01_1.jpg,Student,,,sub-30
Desktop or Laptop,Windows 10,Chrome 137.0.0.0,1536x1024,1536x1024,Temporal Distance Task,cb_01,12.0,temp_dist_trial,dist_items,qkpkxw,2.0,continue,,3311.7999999761523,3300.0999999999913,3311.7999999761523,3311.7999999761523,3300.0999999999913,3311.7999999761523,1.0,0.0,0.0,,Click To Continue,Next button,7.0,object-60,temp_dist_trial,12.0,s_s_01_1,student_stem,microscope,1.0,unique,paired,s_s_01_1.jpg,Student,,,sub-30
Desktop or Laptop,Windows 10,Chrome 137.0.0.0,1536x1024,1536x1024,Temporal Distance Task,cb_01,12.0,temp_dist_trial,dist_items,qkpkxw,2.0,response,41,683.2999999999884,3300.0999999999913,3316.8999999999933,683.2999999999884,3300.0999999999913,3316.8999999999933,1.0,2633.6000000000063,0.0,,Slider,Slider,4.0,object-56,temp_dist_trial,12.0,s_s_01_1,student_stem,microscope,1.0,unique,paired,s_s_01_1.jpg,Student,,,sub-30
Desktop or Laptop,Windows 10,Chrome 137.0.0.0,1536x1024,1536x1024,Temporal Distance Task,cb_01,13.0,temp_dist_trial,num_items,zn7si1,1.0,response,2_ITEM,1173.1000000715285,1166.8000000000031,1173.1000000715285,1173.1000000715285,1166.8000000000031,1173.1000000715285,1.0,0.0,0.0,,Click Response,2_count,5.0,object-49,temp_dist_trial,13.0,s_a_04_1,student_art,easel,1.0,unique,paired,s_a_04_1.jpg,Student,,,sub-30
Desktop or Laptop,Windows 10,Chrome 137.0.0.0,1536x1024,1536x1024,Temporal Distance Task,cb_01,13.0,temp_dist_trial,dist_items,qkpkxw,2.0,info,,12.600000047677893,0.0,12.600000047677893,12.600000047677893,0.0,12.600000047677893,1.0,0.0,0.0,,Slider,Slider,4.0,object-56,temp_dist_trial,13.0,s_a_04_1,student_art,easel,1.0,unique,paired,s_a_04_1.jpg,Student,,,sub-30
Desktop or Laptop,Windows 10,Chrome 137.0.0.0,1536x1024,1536x1024,Temporal Distance Task,cb_01,13.0,temp_dist_trial,dist_items,qkpkxw,2.0,continue,,1771.600000047678,1767.099999999991,1771.600000047678,1771.600000047678,1767.099999999991,1771.600000047678,1.0,0.0,0.0,,Click To Continue,Next button,7.0,object-60,temp_dist_trial,13.0,s_a_04_1,student_art,easel,1.0,unique,paired,s_a_04_1.jpg,Student,,,sub-30
Desktop or Laptop,Windows 10,Chrome 137.0.0.0,1536x1024,1536x1024,Temporal Distance Task,cb_01,13.0,temp_dist_trial,dist_items,qkpkxw,2.0,response,14,733.7999999999884,1767.099999999991,1772.3999999999942,733.7999999999884,1767.099999999991,1772.3999999999942,1.0,1038.6000000000058,0.0,,Slider,Slider,4.0,object-56,temp_dist_trial,13.0,s_a_04_1,student_art,easel,1.0,unique,paired,s_a_04_1.jpg,Student,,,sub-30
Desktop or Laptop,Windows 10,Chrome 137.0.0.0,1536x1024,1536x1024,Temporal Distance Task,cb_01,14.0,temp_dist_trial,num_items,zn7si1,1.0,response,1_ITEM,1974.4000000238445,1967.1000000000056,1974.4000000238445,1974.4000000238445,1967.1000000000056,1974.4000000238445,1.0,0.0,0.0,,Click Response,1_count,3.0,object-46,temp_dist_trial,14.0,s_sh_17_1,student_shared,wireless mouse,1.0,competing,single,s_sh_17_1.jpg,Student,,,sub-30
Desktop or Laptop,Windows 10,Chrome 137.0.0.0,1536x1024,1536x1024,Temporal Distance Task,cb_01,15.0,temp_dist_trial,num_items,zn7si1,1.0,response,2_ITEM,1666.7000000000116,1650.1000000000058,1666.7000000000116,1666.7000000000116,1650.1000000000058,1666.7000000000116,1.0,0.0,0.0,,Click Response,2_count,5.0,object-49,temp_dist_trial,15.0,s_sh_13_1,student_shared,index cards,1.0,competing,paired,s_sh_13_1.jpg,Student,,,sub-30
Desktop or Laptop,Windows 10,Chrome 137.0.0.0,1536x1024,1536x1024,Temporal Distance Task,cb_01,15.0,temp_dist_trial,dist_items,qkpkxw,2.0,info,,11.199999976161052,0.0,11.199999976161052,11.199999976161052,0.0,11.199999976161052,1.0,0.0,0.0,,Slider,Slider,4.0,object-56,temp_dist_trial,15.0,s_sh_13_1,student_shared,index cards,1.0,competing,paired,s_sh_13_1.jpg,Student,,,sub-30
Desktop or Laptop,Windows 10,Chrome 137.0.0.0,1536x1024,1536x1024,Temporal Distance Task,cb_01,15.0,temp_dist_trial,dist_items,qkpkxw,2.0,continue,,1950.3999999999944,1933.6999999999966,1950.3999999999944,1950.3999999999944,1933.6999999999966,1950.3999999999944,1.0,0.0,0.0,,Click To Continue,Next button,7.0,object-60,temp_dist_trial,15.0,s_sh_13_1,student_shared,index cards,1.0,competing,paired,s_sh_13_1.jpg,Student,,,sub-30
Desktop or Laptop,Windows 10,Chrome 137.0.0.0,1536x1024,1536x1024,Temporal Distance Task,cb_01,15.0,temp_dist_trial,dist_items,qkpkxw,2.0,response,65,1033.3000000000031,1933.6999999999966,1950.3999999999944,1033.3000000000031,1933.6999999999966,1950.3999999999944,1.0,917.0999999999913,0.0,,Slider,Slider,4.0,object-56,temp_dist_trial,15.0,s_sh_13_1,student_shared,index cards,1.0,competing,paired,s_sh_13_1.jpg,Student,,,sub-30
Desktop or Laptop,Windows 10,Chrome 137.0.0.0,1536x1024,1536x1024,Temporal Distance Task,cb_01,16.0,temp_dist_trial,num_items,zn7si1,1.0,response,2_ITEM,1472.6000000000058,1465.900000000009,1472.6000000000058,1472.6000000000058,1465.900000000009,1472.6000000000058,1.0,0.0,0.0,,Click Response,2_count,5.0,object-49,temp_dist_trial,16.0,s_sh_06_1,student_shared,clipboard,1.0,competing,paired,s_sh_06_1.jpg,Student,,,sub-30
Desktop or Laptop,Windows 10,Chrome 137.0.0.0,1536x1024,1536x1024,Temporal Distance Task,cb_01,16.0,temp_dist_trial,dist_items,qkpkxw,2.0,info,,11.800000023838948,0.0,11.800000023838948,11.800000023838948,0.0,11.800000023838948,1.0,0.0,0.0,,Slider,Slider,4.0,object-56,temp_dist_trial,16.0,s_sh_06_1,student_shared,clipboard,1.0,competing,paired,s_sh_06_1.jpg,Student,,,sub-30
Desktop or Laptop,Windows 10,Chrome 137.0.0.0,1536x1024,1536x1024,Temporal Distance Task,cb_01,16.0,temp_dist_trial,dist_items,qkpkxw,2.0,continue,,1908.0000000715231,1899.8999999999944,1908.0000000715231,1908.0000000715231,1899.8999999999944,1908.0000000715231,1.0,0.0,0.0,,Click To Continue,Next button,7.0,object-60,temp_dist_trial,16.0,s_sh_06_1,student_shared,clipboard,1.0,competing,paired,s_sh_06_1.jpg,Student,,,sub-30
Desktop or Laptop,Windows 10,Chrome 137.0.0.0,1536x1024,1536x1024,Temporal Distance Task,cb_01,16.0,temp_dist_trial,dist_items,qkpkxw,2.0,response,59,933.3000000000028,1899.8999999999944,1908.6999999999966,933.3000000000028,1899.8999999999944,1908.6999999999966,1.0,975.3999999999942,0.0,,Slider,Slider,4.0,object-56,temp_dist_trial,16.0,s_sh_06_1,student_shared,clipboard,1.0,competing,paired,s_sh_06_1.jpg,Student,,,sub-30
Desktop or Laptop,Windows 10,Chrome 137.0.0.0,1536x1024,1536x1024,Temporal Distance Task,cb_01,17.0,temp_dist_trial,num_items,zn7si1,1.0,response,2_ITEM,1120.6000000715283,1116.5,1120.6000000715283,1120.6000000715283,1116.5,1120.6000000715283,1.0,0.0,0.0,,Click Response,2_count,5.0,object-49,temp_dist_trial,17.0,s_sh_16_1,student_shared,stapler,1.0,competing,paired,s_sh_16_1.jpg,Student,,,sub-30
Desktop or Laptop,Windows 10,Chrome 137.0.0.0,1536x1024,1536x1024,Temporal Distance Task,cb_01,17.0,temp_dist_trial,dist_items,qkpkxw,2.0,info,,10.699999976161052,0.0,10.699999976161052,10.699999976161052,0.0,10.699999976161052,1.0,0.0,0.0,,Slider,Slider,4.0,object-56,temp_dist_trial,17.0,s_sh_16_1,student_shared,stapler,1.0,competing,paired,s_sh_16_1.jpg,Student,,,sub-30
Desktop or Laptop,Windows 10,Chrome 137.0.0.0,1536x1024,1536x1024,Temporal Distance Task,cb_01,17.0,temp_dist_trial,dist_items,qkpkxw,2.0,continue,,2817.300000000003,2800.6000000000067,2817.300000000003,2817.300000000003,2800.6000000000067,2817.300000000003,1.0,0.0,0.0,,Click To Continue,Next button,7.0,object-60,temp_dist_trial,17.0,s_sh_16_1,student_shared,stapler,1.0,competing,paired,s_sh_16_1.jpg,Student,,,sub-30
Desktop or Laptop,Windows 10,Chrome 137.0.0.0,1536x1024,1536x1024,Temporal Distance Task,cb_01,17.0,temp_dist_trial,dist_items,qkpkxw,2.0,response,48,1717.1000000000058,2800.6000000000067,2817.300000000003,1717.1000000000058,2800.6000000000067,2817.300000000003,1.0,1100.1999999999969,0.0,,Slider,Slider,4.0,object-56,temp_dist_trial,17.0,s_sh_16_1,student_shared,stapler,1.0,competing,paired,s_sh_16_1.jpg,Student,,,sub-30
Desktop or Laptop,Windows 10,Chrome 137.0.0.0,1536x1024,1536x1024,Temporal Distance Task,cb_01,18.0,temp_dist_trial,num_items,zn7si1,1.0,response,1_ITEM,1586.1999999999966,1583.3000000000034,1586.1999999999966,1586.1999999999966,1583.3000000000034,1586.1999999999966,1.0,0.0,0.0,,Click Response,1_count,3.0,object-46,temp_dist_trial,18.0,s_a_05_1,student_art,clay,1.0,unique,single,s_a_05_1.jpg,Student,,,sub-30
Desktop or Laptop,Windows 10,Chrome 137.0.0.0,1536x1024,1536x1024,Temporal Distance Task,cb_01,19.0,temp_dist_trial,num_items,zn7si1,1.0,response,2_ITEM,1533.3999999999796,1516.599999999991,1533.3999999999796,1533.3999999999796,1516.599999999991,1533.3999999999796,1.0,0.0,0.0,,Click Response,2_count,5.0,object-49,temp_dist_trial,19.0,s_s_12_1,student_stem,robotic arm,1.0,unique,paired,s_s_12_1.jpg,Student,,,sub-30
Desktop or Laptop,Windows 10,Chrome 137.0.0.0,1536x1024,1536x1024,Temporal Distance Task,cb_01,19.0,temp_dist_trial,dist_items,qkpkxw,2.0,info,,9.999999976163963,0.0,9.999999976163963,9.999999976163963,0.0,9.999999976163963,1.0,0.0,0.0,,Slider,Slider,4.0,object-56,temp_dist_trial,19.0,s_s_12_1,student_stem,robotic arm,1.0,unique,paired,s_s_12_1.jpg,Student,,,sub-30
Desktop or Laptop,Windows 10,Chrome 137.0.0.0,1536x1024,1536x1024,Temporal Distance Task,cb_01,19.0,temp_dist_trial,dist_items,qkpkxw,2.0,continue,,1673.1000000000058,1667.2000000000116,1673.1000000000058,1673.1000000000058,1667.2000000000116,1673.1000000000058,1.0,0.0,0.0,,Click To Continue,Next button,7.0,object-60,temp_dist_trial,19.0,s_s_12_1,student_stem,robotic arm,1.0,unique,paired,s_s_12_1.jpg,Student,,,sub-30
Desktop or Laptop,Windows 10,Chrome 137.0.0.0,1536x1024,1536x1024,Temporal Distance Task,cb_01,19.0,temp_dist_trial,dist_items,qkpkxw,2.0,response,80,800.1000000000058,1667.2000000000116,1682.3000000476895,800.1000000000058,1667.2000000000116,1682.3000000476895,1.0,882.2000000476837,0.0,,Slider,Slider,4.0,object-56,temp_dist_trial,19.0,s_s_12_1,student_stem,robotic arm,1.0,unique,paired,s_s_12_1.jpg,Student,,,sub-30
Desktop or Laptop,Windows 10,Chrome 137.0.0.0,1536x1024,1536x1024,Temporal Distance Task,cb_01,20.0,temp_dist_trial,num_items,zn7si1,1.0,response,2_ITEM,1454.2999999761525,1450.1999999999966,1454.2999999761525,1454.2999999761525,1450.1999999999966,1454.2999999761525,1.0,0.0,0.0,,Click Response,2_count,5.0,object-49,temp_dist_trial,20.0,s_sh_14_1,student_shared,printer,1.0,competing,paired,s_sh_14_1.jpg,Student,,,sub-30
Desktop or Laptop,Windows 10,Chrome 137.0.0.0,1536x1024,1536x1024,Temporal Distance Task,cb_01,20.0,temp_dist_trial,dist_items,qkpkxw,2.0,info,,10.600000047677897,0.0,10.600000047677897,10.600000047677897,0.0,10.600000047677897,1.0,0.0,0.0,,Slider,Slider,4.0,object-56,temp_dist_trial,20.0,s_sh_14_1,student_shared,printer,1.0,competing,paired,s_sh_14_1.jpg,Student,,,sub-30
Desktop or Laptop,Windows 10,Chrome 137.0.0.0,1536x1024,1536x1024,Temporal Distance Task,cb_01,20.0,temp_dist_trial,dist_items,qkpkxw,2.0,continue,,2232.5,2216.3999999999937,2232.5,2232.5,2216.3999999999937,2232.5,1.0,0.0,0.0,,Click To Continue,Next button,7.0,object-60,temp_dist_trial,20.0,s_sh_14_1,student_shared,printer,1.0,competing,paired,s_sh_14_1.jpg,Student,,,sub-30
Desktop or Laptop,Windows 10,Chrome 137.0.0.0,1536x1024,1536x1024,Temporal Distance Task,cb_01,20.0,temp_dist_trial,dist_items,qkpkxw,2.0,response,39,1316.5,2216.3999999999937,2232.5,1316.5,2216.3999999999937,2232.5,1.0,916.0,0.0,,Slider,Slider,4.0,object-56,temp_dist_trial,20.0,s_sh_14_1,student_shared,printer,1.0,competing,paired,s_sh_14_1.jpg,Student,,,sub-30
Desktop or Laptop,Windows 10,Chrome 137.0.0.0,1536x1024,1536x1024,Temporal Distance Task,cb_01,21.0,temp_dist_trial,num_items,zn7si1,1.0,response,2_ITEM,961.600000023842,950.3999999999942,961.600000023842,961.600000023842,950.3999999999942,961.600000023842,1.0,0.0,0.0,,Click Response,2_count,5.0,object-49,temp_dist_trial,21.0,s_sh_24_1,student_shared,desk organizer,1.0,competing,paired,s_sh_24_1.jpg,Student,,,sub-30
Desktop or Laptop,Windows 10,Chrome 137.0.0.0,1536x1024,1536x1024,Temporal Distance Task,cb_01,21.0,temp_dist_trial,dist_items,qkpkxw,2.0,info,,8.400000071531393,0.0,8.400000071531393,8.400000071531393,0.0,8.400000071531393,1.0,0.0,0.0,,Slider,Slider,4.0,object-56,temp_dist_trial,21.0,s_sh_24_1,student_shared,desk organizer,1.0,competing,paired,s_sh_24_1.jpg,Student,,,sub-30
Desktop or Laptop,Windows 10,Chrome 137.0.0.0,1536x1024,1536x1024,Temporal Distance Task,cb_01,21.0,temp_dist_trial,dist_items,qkpkxw,2.0,continue,,2977.700000023848,2966.5,2977.700000023848,2977.700000023848,2966.5,2977.700000023848,1.0,0.0,0.0,,Click To Continue,Next button,7.0,object-60,temp_dist_trial,21.0,s_sh_24_1,student_shared,desk organizer,1.0,competing,paired,s_sh_24_1.jpg,Student,,,sub-30
Desktop or Laptop,Windows 10,Chrome 137.0.0.0,1536x1024,1536x1024,Temporal Distance Task,cb_01,21.0,temp_dist_trial,dist_items,qkpkxw,2.0,response,28,733.4000000000087,2966.5,2978.700000023848,733.4000000000087,2966.5,2978.700000023848,1.0,2245.300000023839,0.0,,Slider,Slider,4.0,object-56,temp_dist_trial,21.0,s_sh_24_1,student_shared,desk organizer,1.0,competing,paired,s_sh_24_1.jpg,Student,,,sub-30
Desktop or Laptop,Windows 10,Chrome 137.0.0.0,1536x1024,1536x1024,Temporal Distance Task,cb_01,22.0,temp_dist_trial,num_items,zn7si1,1.0,response,2_ITEM,794.9000000715314,783.4000000000087,794.9000000715314,794.9000000715314,783.4000000000087,794.9000000715314,1.0,0.0,0.0,,Click Response,2_count,5.0,object-49,temp_dist_trial,22.0,s_sh_07_1,student_shared,ruler,1.0,competing,paired,s_sh_07_1.jpg,Student,,,sub-30
Desktop or Laptop,Windows 10,Chrome 137.0.0.0,1536x1024,1536x1024,Temporal Distance Task,cb_01,22.0,temp_dist_trial,dist_items,qkpkxw,2.0,info,,16.09999999999127,0.0,16.09999999999127,16.09999999999127,0.0,16.09999999999127,1.0,0.0,0.0,,Slider,Slider,4.0,object-56,temp_dist_trial,22.0,s_sh_07_1,student_shared,ruler,1.0,competing,paired,s_sh_07_1.jpg,Student,,,sub-30
Desktop or Laptop,Windows 10,Chrome 137.0.0.0,1536x1024,1536x1024,Temporal Distance Task,cb_01,22.0,temp_dist_trial,dist_items,qkpkxw,2.0,continue,,2972.900000023845,2967.300000000003,2972.900000023845,2972.900000023845,2967.300000000003,2972.900000023845,1.0,0.0,0.0,,Click To Continue,Next button,7.0,object-60,temp_dist_trial,22.0,s_sh_07_1,student_shared,ruler,1.0,competing,paired,s_sh_07_1.jpg,Student,,,sub-30
Desktop or Laptop,Windows 10,Chrome 137.0.0.0,1536x1024,1536x1024,Temporal Distance Task,cb_01,22.0,temp_dist_trial,dist_items,qkpkxw,2.0,response,23,1183.6999999999969,2967.300000000003,2984.0,1183.6999999999969,2967.300000000003,2984.0,1.0,1800.3000000000034,0.0,,Slider,Slider,4.0,object-56,temp_dist_trial,22.0,s_sh_07_1,student_shared,ruler,1.0,competing,paired,s_sh_07_1.jpg,Student,,,sub-30
Desktop or Laptop,Windows 10,Chrome 137.0.0.0,1536x1024,1536x1024,Temporal Distance Task,cb_01,23.0,temp_dist_trial,num_items,zn7si1,1.0,response,2_ITEM,1226.2000000476835,1216.8000000000031,1226.2000000476835,1226.2000000476835,1216.8000000000031,1226.2000000476835,1.0,0.0,0.0,,Click Response,2_count,5.0,object-49,temp_dist_trial,23.0,s_sh_12_1,student_shared,binder,1.0,competing,paired,s_sh_12_1.jpg,Student,,,sub-30
Desktop or Laptop,Windows 10,Chrome 137.0.0.0,1536x1024,1536x1024,Temporal Distance Task,cb_01,23.0,temp_dist_trial,dist_items,qkpkxw,2.0,info,,9.699999976161052,0.0,9.699999976161052,9.699999976161052,0.0,9.699999976161052,1.0,0.0,0.0,,Slider,Slider,4.0,object-56,temp_dist_trial,23.0,s_sh_12_1,student_shared,binder,1.0,competing,paired,s_sh_12_1.jpg,Student,,,sub-30
Desktop or Laptop,Windows 10,Chrome 137.0.0.0,1536x1024,1536x1024,Temporal Distance Task,cb_01,23.0,temp_dist_trial,dist_items,qkpkxw,2.0,continue,,2550.300000000003,2533.5,2550.300000000003,2550.300000000003,2533.5,2550.300000000003,1.0,0.0,0.0,,Click To Continue,Next button,7.0,object-60,temp_dist_trial,23.0,s_sh_12_1,student_shared,binder,1.0,competing,paired,s_sh_12_1.jpg,Student,,,sub-30
Desktop or Laptop,Windows 10,Chrome 137.0.0.0,1536x1024,1536x1024,Temporal Distance Task,cb_01,23.0,temp_dist_trial,dist_items,qkpkxw,2.0,response,21,916.8000000000028,2533.5,2550.300000000003,916.8000000000028,2533.5,2550.300000000003,1.0,1633.5,0.0,,Slider,Slider,4.0,object-56,temp_dist_trial,23.0,s_sh_12_1,student_shared,binder,1.0,competing,paired,s_sh_12_1.jpg,Student,,,sub-30
Desktop or Laptop,Windows 10,Chrome 137.0.0.0,1536x1024,1536x1024,Temporal Distance Task,cb_01,24.0,temp_dist_trial,num_items,zn7si1,1.0,response,2_ITEM,803.0000000476866,799.6000000000058,803.0000000476866,803.0000000476866,799.6000000000058,803.0000000476866,1.0,0.0,0.0,,Click Response,2_count,5.0,object-49,temp_dist_trial,24.0,s_sh_23_1,student_shared,ballpoint pen,1.0,competing,paired,s_sh_23_1.jpg,Student,,,sub-30
Desktop or Laptop,Windows 10,Chrome 137.0.0.0,1536x1024,1536x1024,Temporal Distance Task,cb_01,24.0,temp_dist_trial,dist_items,qkpkxw,2.0,info,,9.600000000005819,0.0,9.600000000005819,9.600000000005819,0.0,9.600000000005819,1.0,0.0,0.0,,Slider,Slider,4.0,object-56,temp_dist_trial,24.0,s_sh_23_1,student_shared,ballpoint pen,1.0,competing,paired,s_sh_23_1.jpg,Student,,,sub-30
Desktop or Laptop,Windows 10,Chrome 137.0.0.0,1536x1024,1536x1024,Temporal Distance Task,cb_01,24.0,temp_dist_trial,dist_items,qkpkxw,2.0,continue,,1777.2000000238475,1766.8000000000034,1777.2000000238475,1777.2000000238475,1766.8000000000034,1777.2000000238475,1.0,0.0,0.0,,Click To Continue,Next button,7.0,object-60,temp_dist_trial,24.0,s_sh_23_1,student_shared,ballpoint pen,1.0,competing,paired,s_sh_23_1.jpg,Student,,,sub-30
Desktop or Laptop,Windows 10,Chrome 137.0.0.0,1536x1024,1536x1024,Temporal Distance Task,cb_01,24.0,temp_dist_trial,dist_items,qkpkxw,2.0,response,38,834.1000000000058,1766.8000000000034,1778.2000000238475,834.1000000000058,1766.8000000000034,1778.2000000238475,1.0,944.100000023842,0.0,,Slider,Slider,4.0,object-56,temp_dist_trial,24.0,s_sh_23_1,student_shared,ballpoint pen,1.0,competing,paired,s_sh_23_1.jpg,Student,,,sub-30
Desktop or Laptop,Windows 10,Chrome 137.0.0.0,1536x1024,1536x1024,Temporal Distance Task,cb_01,25.0,temp_dist_trial,num_items,zn7si1,1.0,response,2_ITEM,849.6000000715285,833.6999999999971,849.6000000715285,849.6000000715285,833.6999999999971,849.6000000715285,1.0,0.0,0.0,,Click Response,2_count,5.0,object-49,temp_dist_trial,25.0,s_a_02_1,student_art,canvas,1.0,unique,paired,s_a_02_1.jpg,Student,,,sub-30
Desktop or Laptop,Windows 10,Chrome 137.0.0.0,1536x1024,1536x1024,Temporal Distance Task,cb_01,25.0,temp_dist_trial,dist_items,qkpkxw,2.0,info,,8.900000023844768,0.0,8.900000023844768,8.900000023844768,0.0,8.900000023844768,1.0,0.0,0.0,,Slider,Slider,4.0,object-56,temp_dist_trial,25.0,s_a_02_1,student_art,canvas,1.0,unique,paired,s_a_02_1.jpg,Student,,,sub-30
Desktop or Laptop,Windows 10,Chrome 137.0.0.0,1536x1024,1536x1024,Temporal Distance Task,cb_01,25.0,temp_dist_trial,dist_items,qkpkxw,2.0,continue,,2205.300000000003,2199.699999999997,2205.300000000003,2205.300000000003,2199.699999999997,2205.300000000003,1.0,0.0,0.0,,Click To Continue,Next button,7.0,object-60,temp_dist_trial,25.0,s_a_02_1,student_art,canvas,1.0,unique,paired,s_a_02_1.jpg,Student,,,sub-30
Desktop or Laptop,Windows 10,Chrome 137.0.0.0,1536x1024,1536x1024,Temporal Distance Task,cb_01,25.0,temp_dist_trial,dist_items,qkpkxw,2.0,response,37,816.3000000000029,2199.699999999997,2215.4000000238448,816.3000000000029,2199.699999999997,2215.4000000238448,1.0,1399.1000000238419,0.0,,Slider,Slider,4.0,object-56,temp_dist_trial,25.0,s_a_02_1,student_art,canvas,1.0,unique,paired,s_a_02_1.jpg,Student,,,sub-30
Desktop or Laptop,Windows 10,Chrome 137.0.0.0,1536x1024,1536x1024,Temporal Distance Task,cb_01,26.0,temp_dist_trial,num_items,zn7si1,1.0,response,1_ITEM,1573.6000000000058,1566.8000000000034,1573.6000000000058,1573.6000000000058,1566.8000000000034,1573.6000000000058,1.0,0.0,0.0,,Click Response,1_count,3.0,object-46,temp_dist_trial,26.0,s_s_19_1,student_stem,circuit board,1.0,unique,single,s_s_19_1.jpg,Student,,,sub-30
Desktop or Laptop,Windows 10,Chrome 137.0.0.0,1536x1024,1536x1024,Temporal Distance Task,cb_01,27.0,temp_dist_trial,num_items,zn7si1,1.0,response,1_ITEM,1056.0000000476866,1050.1000000000058,1056.0000000476866,1056.0000000476866,1050.1000000000058,1056.0000000476866,1.0,0.0,0.0,,Click Response,1_count,3.0,object-46,temp_dist_trial,27.0,s_a_14_1,student_art,guitar pick,1.0,unique,single,s_a_14_1.jpg,Student,,,sub-30
Desktop or Laptop,Windows 10,Chrome 137.0.0.0,1536x1024,1536x1024,Temporal Distance Task,cb_01,28.0,temp_dist_trial,num_items,zn7si1,1.0,response,2_ITEM,1544.9000000238445,1533.400000000009,1544.9000000238445,1544.9000000238445,1533.400000000009,1544.9000000238445,1.0,0.0,0.0,,Click Response,2_count,5.0,object-49,temp_dist_trial,28.0,s_s_09_1,student_stem,multimeter,1.0,unique,paired,s_s_09_1.jpg,Student,,,sub-30
Desktop or Laptop,Windows 10,Chrome 137.0.0.0,1536x1024,1536x1024,Temporal Distance Task,cb_01,28.0,temp_dist_trial,dist_items,qkpkxw,2.0,info,,10.500000047686626,0.0,10.500000047686626,10.500000047686626,0.0,10.500000047686626,1.0,0.0,0.0,,Slider,Slider,4.0,object-56,temp_dist_trial,28.0,s_s_09_1,student_stem,multimeter,1.0,unique,paired,s_s_09_1.jpg,Student,,,sub-30
Desktop or Laptop,Windows 10,Chrome 137.0.0.0,1536x1024,1536x1024,Temporal Distance Task,cb_01,28.0,temp_dist_trial,dist_items,qkpkxw,2.0,continue,,1971.0000000476864,1967.0,1971.0000000476864,1971.0000000476864,1967.0,1971.0000000476864,1.0,0.0,0.0,,Click To Continue,Next button,7.0,object-60,temp_dist_trial,28.0,s_s_09_1,student_stem,multimeter,1.0,unique,paired,s_s_09_1.jpg,Student,,,sub-30
Desktop or Laptop,Windows 10,Chrome 137.0.0.0,1536x1024,1536x1024,Temporal Distance Task,cb_01,28.0,temp_dist_trial,dist_items,qkpkxw,2.0,response,61,884.5,1967.0,1972.0000000476864,884.5,1967.0,1972.0000000476864,1.0,1087.5000000476866,0.0,,Slider,Slider,4.0,object-56,temp_dist_trial,28.0,s_s_09_1,student_stem,multimeter,1.0,unique,paired,s_s_09_1.jpg,Student,,,sub-30
Desktop or Laptop,Windows 10,Chrome 137.0.0.0,1536x1024,1536x1024,Temporal Distance Task,cb_01,29.0,temp_dist_trial,num_items,zn7si1,1.0,response,2_ITEM,1420.5000000476864,1417.0000000000146,1420.5000000476864,1420.5000000476864,1417.0000000000146,1420.5000000476864,1.0,0.0,0.0,,Click Response,2_count,5.0,object-49,temp_dist_trial,29.0,s_a_20_1,student_art,pin cushion,1.0,unique,paired,s_a_20_1.jpg,Student,,,sub-30
Desktop or Laptop,Windows 10,Chrome 137.0.0.0,1536x1024,1536x1024,Temporal Distance Task,cb_01,29.0,temp_dist_trial,dist_items,qkpkxw,2.0,info,,9.700000047683718,0.0,9.700000047683718,9.700000047683718,0.0,9.700000047683718,1.0,0.0,0.0,,Slider,Slider,4.0,object-56,temp_dist_trial,29.0,s_a_20_1,student_art,pin cushion,1.0,unique,paired,s_a_20_1.jpg,Student,,,sub-30
Desktop or Laptop,Windows 10,Chrome 137.0.0.0,1536x1024,1536x1024,Temporal Distance Task,cb_01,29.0,temp_dist_trial,dist_items,qkpkxw,2.0,continue,,1808.3999999761581,1800.2999999999884,1808.3999999761581,1808.3999999761581,1800.2999999999884,1808.3999999761581,1.0,0.0,0.0,,Click To Continue,Next button,7.0,object-60,temp_dist_trial,29.0,s_a_20_1,student_art,pin cushion,1.0,unique,paired,s_a_20_1.jpg,Student,,,sub-30
Desktop or Laptop,Windows 10,Chrome 137.0.0.0,1536x1024,1536x1024,Temporal Distance Task,cb_01,29.0,temp_dist_trial,dist_items,qkpkxw,2.0,response,30,833.5,1800.2999999999884,1816.999999999971,833.5,1800.2999999999884,1816.999999999971,1.0,983.4999999999707,0.0,,Slider,Slider,4.0,object-56,temp_dist_trial,29.0,s_a_20_1,student_art,pin cushion,1.0,unique,paired,s_a_20_1.jpg,Student,,,sub-30
Desktop or Laptop,Windows 10,Chrome 137.0.0.0,1536x1024,1536x1024,Temporal Distance Task,cb_01,30.0,temp_dist_trial,num_items,zn7si1,1.0,response,2_ITEM,1207.9000000476954,1200.3000000000175,1207.9000000476954,1207.9000000476954,1200.3000000000175,1207.9000000476954,1.0,0.0,0.0,,Click Response,2_count,5.0,object-49,temp_dist_trial,30.0,s_s_18_1,student_stem,brain model,1.0,unique,paired,s_s_18_1.jpg,Student,,,sub-30
Desktop or Laptop,Windows 10,Chrome 137.0.0.0,1536x1024,1536x1024,Temporal Distance Task,cb_01,30.0,temp_dist_trial,dist_items,qkpkxw,2.0,info,,9.599999976169784,0.0,9.599999976169784,9.599999976169784,0.0,9.599999976169784,1.0,0.0,0.0,,Slider,Slider,4.0,object-56,temp_dist_trial,30.0,s_s_18_1,student_stem,brain model,1.0,unique,paired,s_s_18_1.jpg,Student,,,sub-30
Desktop or Laptop,Windows 10,Chrome 137.0.0.0,1536x1024,1536x1024,Temporal Distance Task,cb_01,30.0,temp_dist_trial,dist_items,qkpkxw,2.0,continue,,3478.700000000012,3467.1000000000067,3478.700000000012,3478.700000000012,3467.1000000000067,3478.700000000012,1.0,0.0,0.0,,Click To Continue,Next button,7.0,object-60,temp_dist_trial,30.0,s_s_18_1,student_stem,brain model,1.0,unique,paired,s_s_18_1.jpg,Student,,,sub-30
Desktop or Laptop,Windows 10,Chrome 137.0.0.0,1536x1024,1536x1024,Temporal Distance Task,cb_01,30.0,temp_dist_trial,dist_items,qkpkxw,2.0,response,62,716.6000000000058,3467.1000000000067,3479.5000000715368,716.6000000000058,3467.1000000000067,3479.5000000715368,1.0,2762.9000000715314,0.0,,Slider,Slider,4.0,object-56,temp_dist_trial,30.0,s_s_18_1,student_stem,brain model,1.0,unique,paired,s_s_18_1.jpg,Student,,,sub-30
Desktop or Laptop,Windows 10,Chrome 137.0.0.0,1536x1024,1536x1024,Temporal Distance Task,cb_01,31.0,temp_dist_trial,num_items,zn7si1,1.0,response,2_ITEM,2283.1000000000063,2266.5,2283.1000000000063,2283.1000000000063,2266.5,2283.1000000000063,1.0,0.0,0.0,,Click Response,2_count,5.0,object-49,temp_dist_trial,31.0,s_s_04_1,student_stem,bunsen burner,1.0,unique,paired,s_s_04_1.jpg,Student,,,sub-30
Desktop or Laptop,Windows 10,Chrome 137.0.0.0,1536x1024,1536x1024,Temporal Distance Task,cb_01,31.0,temp_dist_trial,dist_items,qkpkxw,2.0,info,,7.900000071531394,0.0,7.900000071531394,7.900000071531394,0.0,7.900000071531394,1.0,0.0,0.0,,Slider,Slider,4.0,object-56,temp_dist_trial,31.0,s_s_04_1,student_stem,bunsen burner,1.0,unique,paired,s_s_04_1.jpg,Student,,,sub-30
Desktop or Laptop,Windows 10,Chrome 137.0.0.0,1536x1024,1536x1024,Temporal Distance Task,cb_01,31.0,temp_dist_trial,dist_items,qkpkxw,2.0,continue,,2166.3000000000175,2149.700000000012,2166.3000000000175,2166.3000000000175,2149.700000000012,2166.3000000000175,1.0,0.0,0.0,,Click To Continue,Next button,7.0,object-60,temp_dist_trial,31.0,s_s_04_1,student_stem,bunsen burner,1.0,unique,paired,s_s_04_1.jpg,Student,,,sub-30
Desktop or Laptop,Windows 10,Chrome 137.0.0.0,1536x1024,1536x1024,Temporal Distance Task,cb_01,31.0,temp_dist_trial,dist_items,qkpkxw,2.0,response,63,1066.7000000000116,2149.700000000012,2166.3000000000175,1066.7000000000116,2149.700000000012,2166.3000000000175,1.0,1099.6000000000058,0.0,,Slider,Slider,4.0,object-56,temp_dist_trial,31.0,s_s_04_1,student_stem,bunsen burner,1.0,unique,paired,s_s_04_1.jpg,Student,,,sub-30
Desktop or Laptop,Windows 10,Chrome 137.0.0.0,1536x1024,1536x1024,Temporal Distance Task,cb_01,32.0,temp_dist_trial,num_items,zn7si1,1.0,response,2_ITEM,1233.999999999971,1217.1999999999825,1233.999999999971,1233.999999999971,1217.1999999999825,1233.999999999971,1.0,0.0,0.0,,Click Response,2_count,5.0,object-49,temp_dist_trial,32.0,s_a_19_1,student_art,ballet shoes,1.0,unique,paired,s_a_19_1.jpg,Student,,,sub-30
Desktop or Laptop,Windows 10,Chrome 137.0.0.0,1536x1024,1536x1024,Temporal Distance Task,cb_01,32.0,temp_dist_trial,dist_items,qkpkxw,2.0,info,,11.3000000238535,0.0,11.3000000238535,11.3000000238535,0.0,11.3000000238535,1.0,0.0,0.0,,Slider,Slider,4.0,object-56,temp_dist_trial,32.0,s_a_19_1,student_art,ballet shoes,1.0,unique,paired,s_a_19_1.jpg,Student,,,sub-30
Desktop or Laptop,Windows 10,Chrome 137.0.0.0,1536x1024,1536x1024,Temporal Distance Task,cb_01,32.0,temp_dist_trial,dist_items,qkpkxw,2.0,continue,,3093.4000000476954,3083.1000000000067,3093.4000000476954,3093.4000000476954,3083.1000000000067,3093.4000000476954,1.0,0.0,0.0,,Click To Continue,Next button,7.0,object-60,temp_dist_trial,32.0,s_a_19_1,student_art,ballet shoes,1.0,unique,paired,s_a_19_1.jpg,Student,,,sub-30
Desktop or Laptop,Windows 10,Chrome 137.0.0.0,1536x1024,1536x1024,Temporal Distance Task,cb_01,32.0,temp_dist_trial,dist_items,qkpkxw,2.0,response,82,766.8000000000177,3083.1000000000067,3093.800000023853,766.8000000000177,3083.1000000000067,3093.800000023853,1.0,2327.000000023836,0.0,,Slider,Slider,4.0,object-56,temp_dist_trial,32.0,s_a_19_1,student_art,ballet shoes,1.0,unique,paired,s_a_19_1.jpg,Student,,,sub-30
Desktop or Laptop,Windows 10,Chrome 137.0.0.0,1536x1024,1536x1024,Temporal Distance Task,cb_01,33.0,temp_dist_trial,num_items,zn7si1,1.0,response,num_miss,3000.1000000000067,3000.1000000000067,3000.1000000000067,3000.1000000000067,3000.1000000000067,3000.1000000000067,1.0,0.0,0.0,num_miss_tag,Time Limit,screen,0.0,screen,temp_dist_trial,33.0,s_a_18_1,student_art,tutu,1.0,unique,single,s_a_18_1.jpg,Student,,,sub-30
Desktop or Laptop,Windows 10,Chrome 137.0.0.0,1536x1024,1536x1024,Temporal Distance Task,cb_01,34.0,temp_dist_trial,num_items,zn7si1,1.0,response,1_ITEM,720.4000000238302,716.5,720.4000000238302,720.4000000238302,716.5,720.4000000238302,1.0,0.0,0.0,,Click Response,1_count,3.0,object-46,temp_dist_trial,34.0,s_sh_02_1,student_shared,eraser,1.0,competing,paired,s_sh_02_1.jpg,Student,,,sub-30
Desktop or Laptop,Windows 10,Chrome 137.0.0.0,1536x1024,1536x1024,Temporal Distance Task,cb_01,35.0,temp_dist_trial,num_items,zn7si1,1.0,response,num_miss,2999.700000000012,2999.700000000012,2999.700000000012,2999.700000000012,2999.700000000012,2999.700000000012,1.0,0.0,0.0,num_miss_tag,Time Limit,screen,0.0,screen,temp_dist_trial,35.0,s_sh_19_1,student_shared,portable plastic drawer,1.0,competing,paired,s_sh_19_1.jpg,Student,,,sub-30
Desktop or Laptop,Windows 10,Chrome 137.0.0.0,1536x1024,1536x1024,Temporal Distance Task,cb_01,36.0,temp_dist_trial,num_items,zn7si1,1.0,response,2_ITEM,2592.6000000000063,2583.5,2592.6000000000063,2592.6000000000063,2583.5,2592.6000000000063,1.0,0.0,0.0,,Click Response,2_count,5.0,object-49,temp_dist_trial,36.0,s_sh_20_1,student_shared,tape,1.0,competing,single,s_sh_20_1.jpg,Student,,,sub-30
Desktop or Laptop,Windows 10,Chrome 137.0.0.0,1536x1024,1536x1024,Temporal Distance Task,cb_01,36.0,temp_dist_trial,dist_items,qkpkxw,2.0,info,,10.700000000011645,0.0,10.700000000011645,10.700000000011645,0.0,10.700000000011645,1.0,0.0,0.0,,Slider,Slider,4.0,object-56,temp_dist_trial,36.0,s_sh_20_1,student_shared,tape,1.0,competing,single,s_sh_20_1.jpg,Student,,,sub-30
Desktop or Laptop,Windows 10,Chrome 137.0.0.0,1536x1024,1536x1024,Temporal Distance Task,cb_01,36.0,temp_dist_trial,dist_items,qkpkxw,2.0,response,dist_miss,7000.300000000018,7000.300000000018,7000.300000000018,7000.300000000018,7000.300000000018,7000.300000000018,1.0,0.0,0.0,dist_miss_tag,Time Limit,screen,0.0,screen,temp_dist_trial,36.0,s_sh_20_1,student_shared,tape,1.0,competing,single,s_sh_20_1.jpg,Student,,,sub-30
Desktop or Laptop,Windows 10,Chrome 137.0.0.0,1536x1024,1536x1024,Temporal Distance Task,cb_01,36.0,temp_dist_trial,dist_items,qkpkxw,2.0,response,44,1799.7000000000116,7000.300000000018,7007.7000000000135,1799.7000000000116,7000.300000000018,7007.7000000000135,1.0,5208.0,0.0,,Slider,Slider,4.0,object-56,temp_dist_trial,36.0,s_sh_20_1,student_shared,tape,1.0,competing,single,s_sh_20_1.jpg,Student,,,sub-30
Desktop or Laptop,Windows 10,Chrome 137.0.0.0,1536x1024,1536x1024,Temporal Distance Task,cb_01,37.0,temp_dist_trial,num_items,zn7si1,1.0,response,1_ITEM,1682.6999999999825,1666.3999999999942,1682.6999999999825,1682.6999999999825,1666.3999999999942,1682.6999999999825,1.0,0.0,0.0,,Click Response,1_count,3.0,object-46,temp_dist_trial,37.0,s_sh_09_1,student_shared,paper clips,1.0,competing,single,s_sh_09_1.jpg,Student,,,sub-30
Desktop or Laptop,Windows 10,Chrome 137.0.0.0,1536x1024,1536x1024,Temporal Distance Task,cb_01,38.0,temp_dist_trial,num_items,zn7si1,1.0,response,1_ITEM,1913.8000000715256,1900.2999999999884,1913.8000000715256,1913.8000000715256,1900.2999999999884,1913.8000000715256,1.0,0.0,0.0,,Click Response,1_count,3.0,object-46,temp_dist_trial,38.0,s_sh_15_1,student_shared,usb drive,1.0,competing,paired,s_sh_15_1.jpg,Student,,,sub-30
Desktop or Laptop,Windows 10,Chrome 137.0.0.0,1536x1024,1536x1024,Temporal Distance Task,cb_01,39.0,temp_dist_trial,num_items,zn7si1,1.0,response,2_ITEM,1596.1000000000058,1583.5,1596.1000000000058,1596.1000000000058,1583.5,1596.1000000000058,1.0,0.0,0.0,,Click Response,2_count,5.0,object-49,temp_dist_trial,39.0,s_a_11_1,student_art,clapperboard,1.0,unique,paired,s_a_11_1.jpg,Student,,,sub-30
Desktop or Laptop,Windows 10,Chrome 137.0.0.0,1536x1024,1536x1024,Temporal Distance Task,cb_01,39.0,temp_dist_trial,dist_items,qkpkxw,2.0,info,,8.300000047689537,0.0,8.300000047689537,8.300000047689537,0.0,8.300000047689537,1.0,0.0,0.0,,Slider,Slider,4.0,object-56,temp_dist_trial,39.0,s_a_11_1,student_art,clapperboard,1.0,unique,paired,s_a_11_1.jpg,Student,,,sub-30
Desktop or Laptop,Windows 10,Chrome 137.0.0.0,1536x1024,1536x1024,Temporal Distance Task,cb_01,39.0,temp_dist_trial,dist_items,qkpkxw,2.0,response,dist_miss,7000.399999999994,7000.399999999994,7000.399999999994,7000.399999999994,7000.399999999994,7000.399999999994,1.0,0.0,0.0,dist_miss_tag,Time Limit,screen,0.0,screen,temp_dist_trial,39.0,s_a_11_1,student_art,clapperboard,1.0,unique,paired,s_a_11_1.jpg,Student,,,sub-30
Desktop or Laptop,Windows 10,Chrome 137.0.0.0,1536x1024,1536x1024,Temporal Distance Task,cb_01,39.0,temp_dist_trial,dist_items,qkpkxw,2.0,response,20,1050.6000000000058,7000.399999999994,7013.90000007153,1050.6000000000058,7000.399999999994,7013.90000007153,1.0,5963.300000071526,0.0,,Slider,Slider,4.0,object-56,temp_dist_trial,39.0,s_a_11_1,student_art,clapperboard,1.0,unique,paired,s_a_11_1.jpg,Student,,,sub-30
Desktop or Laptop,Windows 10,Chrome 137.0.0.0,1536x1024,1536x1024,Temporal Distance Task,cb_01,40.0,temp_dist_trial,num_items,zn7si1,1.0,response,2_ITEM,2810.700000000012,2800.1000000000067,2810.700000000012,2810.700000000012,2800.1000000000067,2810.700000000012,1.0,0.0,0.0,,Click Response,2_count,5.0,object-49,temp_dist_trial,40.0,s_sh_21_1,student_shared,file holder,1.0,competing,paired,s_sh_21_1.jpg,Student,,,sub-30
Desktop or Laptop,Windows 10,Chrome 137.0.0.0,1536x1024,1536x1024,Temporal Distance Task,cb_01,40.0,temp_dist_trial,dist_items,qkpkxw,2.0,info,,7.600000000005821,0.0,7.600000000005821,7.600000000005821,0.0,7.600000000005821,1.0,0.0,0.0,,Slider,Slider,4.0,object-56,temp_dist_trial,40.0,s_sh_21_1,student_shared,file holder,1.0,competing,paired,s_sh_21_1.jpg,Student,,,sub-30
Desktop or Laptop,Windows 10,Chrome 137.0.0.0,1536x1024,1536x1024,Temporal Distance Task,cb_01,40.0,temp_dist_trial,dist_items,qkpkxw,2.0,continue,,3817.200000000012,3800.1000000000067,3817.200000000012,3817.200000000012,3800.1000000000067,3817.200000000012,1.0,0.0,0.0,,Click To Continue,Next button,7.0,object-60,temp_dist_trial,40.0,s_sh_21_1,student_shared,file holder,1.0,competing,paired,s_sh_21_1.jpg,Student,,,sub-30
Desktop or Laptop,Windows 10,Chrome 137.0.0.0,1536x1024,1536x1024,Temporal Distance Task,cb_01,40.0,temp_dist_trial,dist_items,qkpkxw,2.0,response,35,1183.3999999999942,3800.1000000000067,3817.200000000012,1183.3999999999942,3800.1000000000067,3817.200000000012,1.0,2633.800000000017,0.0,,Slider,Slider,4.0,object-56,temp_dist_trial,40.0,s_sh_21_1,student_shared,file holder,1.0,competing,paired,s_sh_21_1.jpg,Student,,,sub-30
Desktop or Laptop,Windows 10,Chrome 137.0.0.0,1536x1024,1536x1024,Temporal Distance Task,cb_01,41.0,temp_dist_trial,num_items,zn7si1,1.0,response,num_miss,3000.3999999999933,3000.3999999999933,3000.3999999999933,3000.3999999999933,3000.3999999999933,3000.3999999999933,1.0,0.0,0.0,num_miss_tag,Time Limit,screen,0.0,screen,temp_dist_trial,41.0,s_sh_05_1,student_shared,laptop,1.0,competing,paired,s_sh_05_1.jpg,Student,,,sub-30
Desktop or Laptop,Windows 10,Chrome 137.0.0.0,1536x1024,1536x1024,Temporal Distance Task,cb_01,42.0,temp_dist_trial,num_items,zn7si1,1.0,response,2_ITEM,1088.500000047672,1083.2999999999884,1088.500000047672,1088.500000047672,1083.2999999999884,1088.500000047672,1.0,0.0,0.0,,Click Response,2_count,5.0,object-49,temp_dist_trial,42.0,s_s_10_1,student_stem,3d molecule,1.0,unique,single,s_s_10_1.jpg,Student,,,sub-30
Desktop or Laptop,Windows 10,Chrome 137.0.0.0,1536x1024,1536x1024,Temporal Distance Task,cb_01,42.0,temp_dist_trial,dist_items,qkpkxw,2.0,info,,10.20000002384768,0.0,10.20000002384768,10.20000002384768,0.0,10.20000002384768,1.0,0.0,0.0,,Slider,Slider,4.0,object-56,temp_dist_trial,42.0,s_s_10_1,student_stem,3d molecule,1.0,unique,single,s_s_10_1.jpg,Student,,,sub-30
Desktop or Laptop,Windows 10,Chrome 137.0.0.0,1536x1024,1536x1024,Temporal Distance Task,cb_01,42.0,temp_dist_trial,dist_items,qkpkxw,2.0,continue,,4088.400000071531,4083.300000000018,4088.400000071531,4088.400000071531,4083.300000000018,4088.400000071531,1.0,0.0,0.0,,Click To Continue,Next button,7.0,object-60,temp_dist_trial,42.0,s_s_10_1,student_stem,3d molecule,1.0,unique,single,s_s_10_1.jpg,Student,,,sub-30
Desktop or Laptop,Windows 10,Chrome 137.0.0.0,1536x1024,1536x1024,Temporal Distance Task,cb_01,42.0,temp_dist_trial,dist_items,qkpkxw,2.0,response,44,2800.200000000012,4083.300000000018,4089.1000000000067,2800.200000000012,4083.300000000018,4089.1000000000067,1.0,1288.8999999999942,0.0,,Slider,Slider,4.0,object-56,temp_dist_trial,42.0,s_s_10_1,student_stem,3d molecule,1.0,unique,single,s_s_10_1.jpg,Student,,,sub-30
Desktop or Laptop,Windows 10,Chrome 137.0.0.0,1536x1024,1536x1024,Temporal Distance Task,cb_01,43.0,temp_dist_trial,num_items,zn7si1,1.0,response,1_ITEM,2149.2999999999884,2133.5999999999767,2149.2999999999884,2149.2999999999884,2133.5999999999767,2149.2999999999884,1.0,0.0,0.0,,Click Response,1_count,3.0,object-46,temp_dist_trial,43.0,s_s_08_1,student_stem,soldering iron,1.0,unique,single,s_s_08_1.jpg,Student,,,sub-30
Desktop or Laptop,Windows 10,Chrome 137.0.0.0,1536x1024,1536x1024,Temporal Distance Task,cb_01,44.0,temp_dist_trial,num_items,zn7si1,1.0,response,1_ITEM,2077.700000023848,2066.700000000012,2077.700000023848,2077.700000023848,2066.700000000012,2077.700000023848,1.0,0.0,0.0,,Click Response,1_count,3.0,object-46,temp_dist_trial,44.0,s_sh_18_1,student_shared,wall calendar,1.0,competing,single,s_sh_18_1.jpg,Student,,,sub-30
Desktop or Laptop,Windows 10,Chrome 137.0.0.0,1536x1024,1536x1024,Temporal Distance Task,cb_01,45.0,temp_dist_trial,num_items,zn7si1,1.0,response,1_ITEM,2170.100000047678,2166.5,2170.100000047678,2170.100000047678,2166.5,2170.100000047678,1.0,0.0,0.0,,Click Response,1_count,3.0,object-46,temp_dist_trial,45.0,s_s_15_1,student_stem,jumper cables,1.0,unique,single,s_s_15_1.jpg,Student,,,sub-30
Desktop or Laptop,Windows 10,Chrome 137.0.0.0,1536x1024,1536x1024,Temporal Distance Task,cb_01,46.0,temp_dist_trial,num_items,zn7si1,1.0,response,2_ITEM,1496.499999976164,1483.5,1496.499999976164,1496.499999976164,1483.5,1496.499999976164,1.0,0.0,0.0,,Click Response,2_count,5.0,object-49,temp_dist_trial,46.0,s_a_17_1,student_art,microphone,1.0,unique,paired,s_a_17_1.jpg,Student,,,sub-30
Desktop or Laptop,Windows 10,Chrome 137.0.0.0,1536x1024,1536x1024,Temporal Distance Task,cb_01,46.0,temp_dist_trial,dist_items,qkpkxw,2.0,info,,7.2000000000116415,0.0,7.2000000000116415,7.2000000000116415,0.0,7.2000000000116415,1.0,0.0,0.0,,Slider,Slider,4.0,object-56,temp_dist_trial,46.0,s_a_17_1,student_art,microphone,1.0,unique,paired,s_a_17_1.jpg,Student,,,sub-30
Desktop or Laptop,Windows 10,Chrome 137.0.0.0,1536x1024,1536x1024,Temporal Distance Task,cb_01,46.0,temp_dist_trial,dist_items,qkpkxw,2.0,response,dist_miss,6999.900000000023,6999.900000000023,6999.900000000023,6999.900000000023,6999.900000000023,6999.900000000023,1.0,0.0,0.0,dist_miss_tag,Time Limit,screen,0.0,screen,temp_dist_trial,46.0,s_a_17_1,student_art,microphone,1.0,unique,paired,s_a_17_1.jpg,Student,,,sub-30
Desktop or Laptop,Windows 10,Chrome 137.0.0.0,1536x1024,1536x1024,Temporal Distance Task,cb_01,46.0,temp_dist_trial,dist_items,qkpkxw,2.0,response,100,1850.1000000000056,6999.900000000023,7001.900000047695,1850.1000000000056,6999.900000000023,7001.900000047695,1.0,5151.8000000476895,0.0,,Slider,Slider,4.0,object-56,temp_dist_trial,46.0,s_a_17_1,student_art,microphone,1.0,unique,paired,s_a_17_1.jpg,Student,,,sub-30
Desktop or Laptop,Windows 10,Chrome 137.0.0.0,1536x1024,1536x1024,Temporal Distance Task,cb_01,47.0,temp_dist_trial,num_items,zn7si1,1.0,response,2_ITEM,1450.3999999999942,1433.7999999999884,1450.3999999999942,1450.3999999999942,1433.7999999999884,1450.3999999999942,1.0,0.0,0.0,,Click Response,2_count,5.0,object-49,temp_dist_trial,47.0,s_a_16_1,student_art,piano,1.0,unique,paired,s_a_16_1.jpg,Student,,,sub-30
Desktop or Laptop,Windows 10,Chrome 137.0.0.0,1536x1024,1536x1024,Temporal Distance Task,cb_01,47.0,temp_dist_trial,dist_items,qkpkxw,2.0,info,,10.100000023841858,0.0,10.100000023841858,10.100000023841858,0.0,10.100000023841858,1.0,0.0,0.0,,Slider,Slider,4.0,object-56,temp_dist_trial,47.0,s_a_16_1,student_art,piano,1.0,unique,paired,s_a_16_1.jpg,Student,,,sub-30
Desktop or Laptop,Windows 10,Chrome 137.0.0.0,1536x1024,1536x1024,Temporal Distance Task,cb_01,47.0,temp_dist_trial,dist_items,qkpkxw,2.0,response,dist_miss,7000.399999999994,7000.399999999994,7000.399999999994,7000.399999999994,7000.399999999994,7000.399999999994,1.0,0.0,0.0,dist_miss_tag,Time Limit,screen,0.0,screen,temp_dist_trial,47.0,s_a_16_1,student_art,piano,1.0,unique,paired,s_a_16_1.jpg,Student,,,sub-30
Desktop or Laptop,Windows 10,Chrome 137.0.0.0,1536x1024,1536x1024,Temporal Distance Task,cb_01,47.0,temp_dist_trial,dist_items,qkpkxw,2.0,response,69,2366.7999999999884,7000.399999999994,7002.7000000476855,2366.7999999999884,7000.399999999994,7002.7000000476855,1.0,4635.900000047694,0.0,,Slider,Slider,4.0,object-56,temp_dist_trial,47.0,s_a_16_1,student_art,piano,1.0,unique,paired,s_a_16_1.jpg,Student,,,sub-30
Desktop or Laptop,Windows 10,Chrome 137.0.0.0,1536x1024,1536x1024,Temporal Distance Task,cb_01,48.0,temp_dist_trial,num_items,zn7si1,1.0,response,1_ITEM,2687.4000000715314,2683.300000000017,2687.4000000715314,2687.4000000715314,2683.300000000017,2687.4000000715314,1.0,0.0,0.0,,Click Response,1_count,3.0,object-46,temp_dist_trial,48.0,s_sh_01_1,student_shared,notebook,1.0,competing,single,s_sh_01_1.jpg,Student,,,sub-30
Desktop or Laptop,Windows 10,Chrome 137.0.0.0,1536x1024,1536x1024,Temporal Distance Task,cb_01,2.0,temp_eventStart,Screen 1,dgtyxe,1.0,continue,,22154.500000071537,22150.900000000023,22154.500000071537,22154.500000071537,22150.900000000023,22154.500000071537,1.0,0.0,0.0,,Click To Continue,Next Button,3.0,object-43,temp_eventStart,,,Travel,,,,,,,,,sub-30
Desktop or Laptop,Windows 10,Chrome 137.0.0.0,1536x1024,1536x1024,Temporal Distance Task,cb_01,49.0,temp_dist_trial,num_items,zn7si1,1.0,response,2_ITEM,1722.000000047672,1717.0,1722.000000047672,1722.000000047672,1717.0,1722.000000047672,1.0,0.0,0.0,,Click Response,2_count,5.0,object-49,temp_dist_trial,1.0,t_s_02_1,travel_shared,water bottle,1.0,competing,paired,t_s_02_1.jpg,Travel,,,sub-30
Desktop or Laptop,Windows 10,Chrome 137.0.0.0,1536x1024,1536x1024,Temporal Distance Task,cb_01,49.0,temp_dist_trial,dist_items,qkpkxw,2.0,info,,7.600000023841858,0.0,7.600000023841858,7.600000023841858,0.0,7.600000023841858,1.0,0.0,0.0,,Slider,Slider,4.0,object-56,temp_dist_trial,1.0,t_s_02_1,travel_shared,water bottle,1.0,competing,paired,t_s_02_1.jpg,Travel,,,sub-30
Desktop or Laptop,Windows 10,Chrome 137.0.0.0,1536x1024,1536x1024,Temporal Distance Task,cb_01,49.0,temp_dist_trial,dist_items,qkpkxw,2.0,continue,,2050.000000000029,2033.2000000000119,2050.000000000029,2050.000000000029,2033.2000000000119,2050.000000000029,1.0,0.0,0.0,,Click To Continue,Next button,7.0,object-60,temp_dist_trial,1.0,t_s_02_1,travel_shared,water bottle,1.0,competing,paired,t_s_02_1.jpg,Travel,,,sub-30
Desktop or Laptop,Windows 10,Chrome 137.0.0.0,1536x1024,1536x1024,Temporal Distance Task,cb_01,49.0,temp_dist_trial,dist_items,qkpkxw,2.0,response,73,1233.6000000000058,2033.2000000000119,2050.000000000029,1233.6000000000058,2033.2000000000119,2050.000000000029,1.0,816.4000000000232,0.0,,Slider,Slider,4.0,object-56,temp_dist_trial,1.0,t_s_02_1,travel_shared,water bottle,1.0,competing,paired,t_s_02_1.jpg,Travel,,,sub-30
Desktop or Laptop,Windows 10,Chrome 137.0.0.0,1536x1024,1536x1024,Temporal Distance Task,cb_01,50.0,temp_dist_trial,num_items,zn7si1,1.0,response,2_ITEM,1371.100000071514,1367.2999999999886,1371.100000071514,1371.100000071514,1367.2999999999886,1371.100000071514,1.0,0.0,0.0,,Click Response,2_count,5.0,object-49,temp_dist_trial,2.0,t_m_18_1,travel_Miami,waterproof tote,1.0,unique,paired,t_m_18_1.jpg,Travel,,,sub-30
Desktop or Laptop,Windows 10,Chrome 137.0.0.0,1536x1024,1536x1024,Temporal Distance Task,cb_01,50.0,temp_dist_trial,dist_items,qkpkxw,2.0,info,,9.100000000005819,0.0,9.100000000005819,9.100000000005819,0.0,9.100000000005819,1.0,0.0,0.0,,Slider,Slider,4.0,object-56,temp_dist_trial,2.0,t_m_18_1,travel_Miami,waterproof tote,1.0,unique,paired,t_m_18_1.jpg,Travel,,,sub-30
Desktop or Laptop,Windows 10,Chrome 137.0.0.0,1536x1024,1536x1024,Temporal Distance Task,cb_01,50.0,temp_dist_trial,dist_items,qkpkxw,2.0,continue,,2891.200000023848,2883.3999999999933,2891.200000023848,2891.200000023848,2883.3999999999933,2891.200000023848,1.0,0.0,0.0,,Click To Continue,Next button,7.0,object-60,temp_dist_trial,2.0,t_m_18_1,travel_Miami,waterproof tote,1.0,unique,paired,t_m_18_1.jpg,Travel,,,sub-30
Desktop or Laptop,Windows 10,Chrome 137.0.0.0,1536x1024,1536x1024,Temporal Distance Task,cb_01,50.0,temp_dist_trial,dist_items,qkpkxw,2.0,response,80,1833.8000000000175,2883.3999999999933,2892.300000047689,1833.8000000000175,2883.3999999999933,2892.300000047689,1.0,1058.500000047672,0.0,,Slider,Slider,4.0,object-56,temp_dist_trial,2.0,t_m_18_1,travel_Miami,waterproof tote,1.0,unique,paired,t_m_18_1.jpg,Travel,,,sub-30
Desktop or Laptop,Windows 10,Chrome 137.0.0.0,1536x1024,1536x1024,Temporal Distance Task,cb_01,51.0,temp_dist_trial,num_items,zn7si1,1.0,response,2_ITEM,942.0000000715373,933.4000000000232,942.0000000715373,942.0000000715373,933.4000000000232,942.0000000715373,1.0,0.0,0.0,,Click Response,2_count,5.0,object-49,temp_dist_trial,3.0,t_s_01_1,travel_shared,fanny pack,1.0,competing,single,t_s_01_1.jpg,Travel,,,sub-30
Desktop or Laptop,Windows 10,Chrome 137.0.0.0,1536x1024,1536x1024,Temporal Distance Task,cb_01,51.0,temp_dist_trial,dist_items,qkpkxw,2.0,info,,7.7999999999883585,0.0,7.7999999999883585,7.7999999999883585,0.0,7.7999999999883585,1.0,0.0,0.0,,Slider,Slider,4.0,object-56,temp_dist_trial,3.0,t_s_01_1,travel_shared,fanny pack,1.0,competing,single,t_s_01_1.jpg,Travel,,,sub-30
Desktop or Laptop,Windows 10,Chrome 137.0.0.0,1536x1024,1536x1024,Temporal Distance Task,cb_01,51.0,temp_dist_trial,dist_items,qkpkxw,2.0,continue,,1965.7999999999595,1949.5999999999767,1965.7999999999595,1965.7999999999595,1949.5999999999767,1965.7999999999595,1.0,0.0,0.0,,Click To Continue,Next button,7.0,object-60,temp_dist_trial,3.0,t_s_01_1,travel_shared,fanny pack,1.0,competing,single,t_s_01_1.jpg,Travel,,,sub-30
Desktop or Laptop,Windows 10,Chrome 137.0.0.0,1536x1024,1536x1024,Temporal Distance Task,cb_01,51.0,temp_dist_trial,dist_items,qkpkxw,2.0,response,35,966.5999999999768,1949.5999999999767,1965.7999999999595,966.5999999999768,1949.5999999999767,1965.7999999999595,1.0,999.1999999999823,0.0,,Slider,Slider,4.0,object-56,temp_dist_trial,3.0,t_s_01_1,travel_shared,fanny pack,1.0,competing,single,t_s_01_1.jpg,Travel,,,sub-30
Desktop or Laptop,Windows 10,Chrome 137.0.0.0,1536x1024,1536x1024,Temporal Distance Task,cb_01,52.0,temp_dist_trial,num_items,zn7si1,1.0,response,2_ITEM,1408.5999999761698,1400.5,1408.5999999761698,1408.5999999761698,1400.5,1408.5999999761698,1.0,0.0,0.0,,Click Response,2_count,5.0,object-49,temp_dist_trial,4.0,t_s_12_1,travel_shared,clear toiletry bag,1.0,competing,paired,t_s_12_1.jpg,Travel,,,sub-30
Desktop or Laptop,Windows 10,Chrome 137.0.0.0,1536x1024,1536x1024,Temporal Distance Task,cb_01,52.0,temp_dist_trial,dist_items,qkpkxw,2.0,info,,9.500000071537217,0.0,9.500000071537217,9.500000071537217,0.0,9.500000071537217,1.0,0.0,0.0,,Slider,Slider,4.0,object-56,temp_dist_trial,4.0,t_s_12_1,travel_shared,clear toiletry bag,1.0,competing,paired,t_s_12_1.jpg,Travel,,,sub-30
Desktop or Laptop,Windows 10,Chrome 137.0.0.0,1536x1024,1536x1024,Temporal Distance Task,cb_01,52.0,temp_dist_trial,dist_items,qkpkxw,2.0,continue,,2383.500000000029,2366.800000000017,2383.500000000029,2383.500000000029,2366.800000000017,2383.500000000029,1.0,0.0,0.0,,Click To Continue,Next button,7.0,object-60,temp_dist_trial,4.0,t_s_12_1,travel_shared,clear toiletry bag,1.0,competing,paired,t_s_12_1.jpg,Travel,,,sub-30
Desktop or Laptop,Windows 10,Chrome 137.0.0.0,1536x1024,1536x1024,Temporal Distance Task,cb_01,52.0,temp_dist_trial,dist_items,qkpkxw,2.0,response,18,799.6000000000058,2366.800000000017,2383.500000000029,799.6000000000058,2366.800000000017,2383.500000000029,1.0,1583.9000000000233,0.0,,Slider,Slider,4.0,object-56,temp_dist_trial,4.0,t_s_12_1,travel_shared,clear toiletry bag,1.0,competing,paired,t_s_12_1.jpg,Travel,,,sub-30
Desktop or Laptop,Windows 10,Chrome 137.0.0.0,1536x1024,1536x1024,Temporal Distance Task,cb_01,53.0,temp_dist_trial,num_items,zn7si1,1.0,response,2_ITEM,1127.1000000476781,1116.6000000000058,1127.1000000476781,1127.1000000476781,1116.6000000000058,1127.1000000476781,1.0,0.0,0.0,,Click Response,2_count,5.0,object-49,temp_dist_trial,5.0,t_s_06_1,travel_shared,luggage,1.0,competing,paired,t_s_06_1.jpg,Travel,,,sub-30
Desktop or Laptop,Windows 10,Chrome 137.0.0.0,1536x1024,1536x1024,Temporal Distance Task,cb_01,53.0,temp_dist_trial,dist_items,qkpkxw,2.0,info,,7.400000023830215,0.0,7.400000023830215,7.400000023830215,0.0,7.400000023830215,1.0,0.0,0.0,,Slider,Slider,4.0,object-56,temp_dist_trial,5.0,t_s_06_1,travel_shared,luggage,1.0,competing,paired,t_s_06_1.jpg,Travel,,,sub-30
Desktop or Laptop,Windows 10,Chrome 137.0.0.0,1536x1024,1536x1024,Temporal Distance Task,cb_01,53.0,temp_dist_trial,dist_items,qkpkxw,2.0,continue,,4172.000000047672,4166.899999999965,4172.000000047672,4172.000000047672,4166.899999999965,4172.000000047672,1.0,0.0,0.0,,Click To Continue,Next button,7.0,object-60,temp_dist_trial,5.0,t_s_06_1,travel_shared,luggage,1.0,competing,paired,t_s_06_1.jpg,Travel,,,sub-30
Desktop or Laptop,Windows 10,Chrome 137.0.0.0,1536x1024,1536x1024,Temporal Distance Task,cb_01,53.0,temp_dist_trial,dist_items,qkpkxw,2.0,response,28,950.1999999999823,4166.899999999965,4173.1999999761465,950.1999999999823,4166.899999999965,4173.1999999761465,1.0,3222.999999976164,0.0,,Slider,Slider,4.0,object-56,temp_dist_trial,5.0,t_s_06_1,travel_shared,luggage,1.0,competing,paired,t_s_06_1.jpg,Travel,,,sub-30
Desktop or Laptop,Windows 10,Chrome 137.0.0.0,1536x1024,1536x1024,Temporal Distance Task,cb_01,54.0,temp_dist_trial,num_items,zn7si1,1.0,response,2_ITEM,948.0000000238653,933.1000000000348,948.0000000238653,948.0000000238653,933.1000000000348,948.0000000238653,1.0,0.0,0.0,,Click Response,2_count,5.0,object-49,temp_dist_trial,6.0,t_i_20_1,travel_Iceland,lantern,1.0,unique,paired,t_i_20_1.jpg,Travel,,,sub-30
Desktop or Laptop,Windows 10,Chrome 137.0.0.0,1536x1024,1536x1024,Temporal Distance Task,cb_01,54.0,temp_dist_trial,dist_items,qkpkxw,2.0,info,,10.800000047660431,0.0,10.800000047660431,10.800000047660431,0.0,10.800000047660431,1.0,0.0,0.0,,Slider,Slider,4.0,object-56,temp_dist_trial,6.0,t_i_20_1,travel_Iceland,lantern,1.0,unique,paired,t_i_20_1.jpg,Travel,,,sub-30
Desktop or Laptop,Windows 10,Chrome 137.0.0.0,1536x1024,1536x1024,Temporal Distance Task,cb_01,54.0,temp_dist_trial,dist_items,qkpkxw,2.0,continue,,1370.5999999999767,1366.5999999999767,1370.5999999999767,1370.5999999999767,1366.5999999999767,1370.5999999999767,1.0,0.0,0.0,,Click To Continue,Next button,7.0,object-60,temp_dist_trial,6.0,t_i_20_1,travel_Iceland,lantern,1.0,unique,paired,t_i_20_1.jpg,Travel,,,sub-30
Desktop or Laptop,Windows 10,Chrome 137.0.0.0,1536x1024,1536x1024,Temporal Distance Task,cb_01,54.0,temp_dist_trial,dist_items,qkpkxw,2.0,response,63,633.3999999999653,1366.5999999999767,1371.0999999999767,633.3999999999653,1366.5999999999767,1371.0999999999767,1.0,737.7000000000116,0.0,,Slider,Slider,4.0,object-56,temp_dist_trial,6.0,t_i_20_1,travel_Iceland,lantern,1.0,unique,paired,t_i_20_1.jpg,Travel,,,sub-30
Desktop or Laptop,Windows 10,Chrome 137.0.0.0,1536x1024,1536x1024,Temporal Distance Task,cb_01,55.0,temp_dist_trial,num_items,zn7si1,1.0,response,2_ITEM,844.0,833.7000000000116,844.0,844.0,833.7000000000116,844.0,1.0,0.0,0.0,,Click Response,2_count,5.0,object-49,temp_dist_trial,7.0,t_s_16_1,travel_shared,chapstick,1.0,competing,paired,t_s_16_1.jpg,Travel,,,sub-30
Desktop or Laptop,Windows 10,Chrome 137.0.0.0,1536x1024,1536x1024,Temporal Distance Task,cb_01,55.0,temp_dist_trial,dist_items,qkpkxw,2.0,info,,9.6999999761465,0.0,9.6999999761465,9.6999999761465,0.0,9.6999999761465,1.0,0.0,0.0,,Slider,Slider,4.0,object-56,temp_dist_trial,7.0,t_s_16_1,travel_shared,chapstick,1.0,competing,paired,t_s_16_1.jpg,Travel,,,sub-30
Desktop or Laptop,Windows 10,Chrome 137.0.0.0,1536x1024,1536x1024,Temporal Distance Task,cb_01,55.0,temp_dist_trial,dist_items,qkpkxw,2.0,continue,,1905.000000047672,1900.5,1905.000000047672,1905.000000047672,1900.5,1905.000000047672,1.0,0.0,0.0,,Click To Continue,Next button,7.0,object-60,temp_dist_trial,7.0,t_s_16_1,travel_shared,chapstick,1.0,competing,paired,t_s_16_1.jpg,Travel,,,sub-30
Desktop or Laptop,Windows 10,Chrome 137.0.0.0,1536x1024,1536x1024,Temporal Distance Task,cb_01,55.0,temp_dist_trial,dist_items,qkpkxw,2.0,response,44,800.3999999999651,1900.5,1905.7999999999884,800.3999999999651,1900.5,1905.7999999999884,1.0,1105.4000000000233,0.0,,Slider,Slider,4.0,object-56,temp_dist_trial,7.0,t_s_16_1,travel_shared,chapstick,1.0,competing,paired,t_s_16_1.jpg,Travel,,,sub-30
Desktop or Laptop,Windows 10,Chrome 137.0.0.0,1536x1024,1536x1024,Temporal Distance Task,cb_01,56.0,temp_dist_trial,num_items,zn7si1,1.0,response,2_ITEM,1666.7999999999884,1650.0999999999767,1666.7999999999884,1666.7999999999884,1650.0999999999767,1666.7999999999884,1.0,0.0,0.0,,Click Response,2_count,5.0,object-49,temp_dist_trial,8.0,t_s_07_1,travel_shared,phone charger cable,1.0,competing,paired,t_s_07_1.jpg,Travel,,,sub-30
Desktop or Laptop,Windows 10,Chrome 137.0.0.0,1536x1024,1536x1024,Temporal Distance Task,cb_01,56.0,temp_dist_trial,dist_items,qkpkxw,2.0,info,,7.300000023853498,0.0,7.300000023853498,7.300000023853498,0.0,7.300000023853498,1.0,0.0,0.0,,Slider,Slider,4.0,object-56,temp_dist_trial,8.0,t_s_07_1,travel_shared,phone charger cable,1.0,competing,paired,t_s_07_1.jpg,Travel,,,sub-30
Desktop or Laptop,Windows 10,Chrome 137.0.0.0,1536x1024,1536x1024,Temporal Distance Task,cb_01,56.0,temp_dist_trial,dist_items,qkpkxw,2.0,continue,,3954.0999999761693,3950.299999999989,3954.0999999761693,3954.0999999761693,3950.299999999989,3954.0999999761693,1.0,0.0,0.0,,Click To Continue,Next button,7.0,object-60,temp_dist_trial,8.0,t_s_07_1,travel_shared,phone charger cable,1.0,competing,paired,t_s_07_1.jpg,Travel,,,sub-30
Desktop or Laptop,Windows 10,Chrome 137.0.0.0,1536x1024,1536x1024,Temporal Distance Task,cb_01,56.0,temp_dist_trial,dist_items,qkpkxw,2.0,response,18,1366.7000000000114,3950.299999999989,3962.700000000012,1366.7000000000114,3950.299999999989,3962.700000000012,1.0,2596.0,0.0,,Slider,Slider,4.0,object-56,temp_dist_trial,8.0,t_s_07_1,travel_shared,phone charger cable,1.0,competing,paired,t_s_07_1.jpg,Travel,,,sub-30
Desktop or Laptop,Windows 10,Chrome 137.0.0.0,1536x1024,1536x1024,Temporal Distance Task,cb_01,57.0,temp_dist_trial,num_items,zn7si1,1.0,response,2_ITEM,836.000000023865,833.3000000000467,836.000000023865,836.000000023865,833.3000000000467,836.000000023865,1.0,0.0,0.0,,Click Response,2_count,5.0,object-49,temp_dist_trial,9.0,t_m_17_1,travel_Miami,water gun,1.0,unique,paired,t_m_17_1.jpg,Travel,,,sub-30
Desktop or Laptop,Windows 10,Chrome 137.0.0.0,1536x1024,1536x1024,Temporal Distance Task,cb_01,57.0,temp_dist_trial,dist_items,qkpkxw,2.0,info,,9.200000023818577,0.0,9.200000023818577,9.200000023818577,0.0,9.200000023818577,1.0,0.0,0.0,,Slider,Slider,4.0,object-56,temp_dist_trial,9.0,t_m_17_1,travel_Miami,water gun,1.0,unique,paired,t_m_17_1.jpg,Travel,,,sub-30
Desktop or Laptop,Windows 10,Chrome 137.0.0.0,1536x1024,1536x1024,Temporal Distance Task,cb_01,57.0,temp_dist_trial,dist_items,qkpkxw,2.0,continue,,2014.7000000238183,2000.1999999999528,2014.7000000238183,2014.7000000238183,2000.1999999999528,2014.7000000238183,1.0,0.0,0.0,,Click To Continue,Next button,7.0,object-60,temp_dist_trial,9.0,t_m_17_1,travel_Miami,water gun,1.0,unique,paired,t_m_17_1.jpg,Travel,,,sub-30
Desktop or Laptop,Windows 10,Chrome 137.0.0.0,1536x1024,1536x1024,Temporal Distance Task,cb_01,57.0,temp_dist_trial,dist_items,qkpkxw,2.0,response,20,966.5999999999768,2000.1999999999528,2015.4000000715023,966.5999999999768,2000.1999999999528,2015.4000000715023,1.0,1048.8000000715256,0.0,,Slider,Slider,4.0,object-56,temp_dist_trial,9.0,t_m_17_1,travel_Miami,water gun,1.0,unique,paired,t_m_17_1.jpg,Travel,,,sub-30
Desktop or Laptop,Windows 10,Chrome 137.0.0.0,1536x1024,1536x1024,Temporal Distance Task,cb_01,58.0,temp_dist_trial,num_items,zn7si1,1.0,response,1_ITEM,1430.100000047707,1416.5,1430.100000047707,1430.100000047707,1416.5,1430.100000047707,1.0,0.0,0.0,,Click Response,1_count,3.0,object-46,temp_dist_trial,10.0,t_m_03_1,travel_Miami,wetsuit,1.0,unique,single,t_m_03_1.jpg,Travel,,,sub-30
Desktop or Laptop,Windows 10,Chrome 137.0.0.0,1536x1024,1536x1024,Temporal Distance Task,cb_01,59.0,temp_dist_trial,num_items,zn7si1,1.0,response,2_ITEM,1411.9000000000233,1399.8000000000463,1411.9000000000233,1411.9000000000233,1399.8000000000463,1411.9000000000233,1.0,0.0,0.0,,Click Response,2_count,5.0,object-49,temp_dist_trial,11.0,t_i_16_1,travel_Iceland,skis,1.0,unique,single,t_i_16_1.jpg,Travel,,,sub-30
Desktop or Laptop,Windows 10,Chrome 137.0.0.0,1536x1024,1536x1024,Temporal Distance Task,cb_01,59.0,temp_dist_trial,dist_items,qkpkxw,2.0,info,,10.700000000011645,0.0,10.700000000011645,10.700000000011645,0.0,10.700000000011645,1.0,0.0,0.0,,Slider,Slider,4.0,object-56,temp_dist_trial,11.0,t_i_16_1,travel_Iceland,skis,1.0,unique,single,t_i_16_1.jpg,Travel,,,sub-30
Desktop or Laptop,Windows 10,Chrome 137.0.0.0,1536x1024,1536x1024,Temporal Distance Task,cb_01,59.0,temp_dist_trial,dist_items,qkpkxw,2.0,continue,,1754.4000000476956,1750.4000000000233,1754.4000000476956,1754.4000000476956,1750.4000000000233,1754.4000000476956,1.0,0.0,0.0,,Click To Continue,Next button,7.0,object-60,temp_dist_trial,11.0,t_i_16_1,travel_Iceland,skis,1.0,unique,single,t_i_16_1.jpg,Travel,,,sub-30
Desktop or Laptop,Windows 10,Chrome 137.0.0.0,1536x1024,1536x1024,Temporal Distance Task,cb_01,59.0,temp_dist_trial,dist_items,qkpkxw,2.0,response,87,883.7000000000116,1750.4000000000233,1755.4000000476956,883.7000000000116,1750.4000000000233,1755.4000000476956,1.0,871.7000000476837,0.0,,Slider,Slider,4.0,object-56,temp_dist_trial,11.0,t_i_16_1,travel_Iceland,skis,1.0,unique,single,t_i_16_1.jpg,Travel,,,sub-30
Desktop or Laptop,Windows 10,Chrome 137.0.0.0,1536x1024,1536x1024,Temporal Distance Task,cb_01,60.0,temp_dist_trial,num_items,zn7si1,1.0,response,2_ITEM,1293.600000071514,1283.399999999965,1293.600000071514,1293.600000071514,1283.399999999965,1293.600000071514,1.0,0.0,0.0,,Click Response,2_count,5.0,object-49,temp_dist_trial,12.0,t_s_09_1,travel_shared,wallet,1.0,competing,paired,t_s_09_1.jpg,Travel,,,sub-30
Desktop or Laptop,Windows 10,Chrome 137.0.0.0,1536x1024,1536x1024,Temporal Distance Task,cb_01,60.0,temp_dist_trial,dist_items,qkpkxw,2.0,info,,11.00000002386514,0.0,11.00000002386514,11.00000002386514,0.0,11.00000002386514,1.0,0.0,0.0,,Slider,Slider,4.0,object-56,temp_dist_trial,12.0,t_s_09_1,travel_shared,wallet,1.0,competing,paired,t_s_09_1.jpg,Travel,,,sub-30
Desktop or Laptop,Windows 10,Chrome 137.0.0.0,1536x1024,1536x1024,Temporal Distance Task,cb_01,60.0,temp_dist_trial,dist_items,qkpkxw,2.0,continue,,2757.9000000000237,2749.8000000000466,2757.9000000000237,2757.9000000000237,2749.8000000000466,2757.9000000000237,1.0,0.0,0.0,,Click To Continue,Next button,7.0,object-60,temp_dist_trial,12.0,t_s_09_1,travel_shared,wallet,1.0,competing,paired,t_s_09_1.jpg,Travel,,,sub-30
Desktop or Laptop,Windows 10,Chrome 137.0.0.0,1536x1024,1536x1024,Temporal Distance Task,cb_01,60.0,temp_dist_trial,dist_items,qkpkxw,2.0,response,64,849.7000000000116,2749.8000000000466,2766.500000000058,849.7000000000116,2749.8000000000466,2766.500000000058,1.0,1916.8000000000463,0.0,,Slider,Slider,4.0,object-56,temp_dist_trial,12.0,t_s_09_1,travel_shared,wallet,1.0,competing,paired,t_s_09_1.jpg,Travel,,,sub-30
Desktop or Laptop,Windows 10,Chrome 137.0.0.0,1536x1024,1536x1024,Temporal Distance Task,cb_01,61.0,temp_dist_trial,num_items,zn7si1,1.0,response,1_ITEM,1768.9999999761346,1766.3999999999646,1768.9999999761346,1768.9999999761346,1766.3999999999646,1768.9999999761346,1.0,0.0,0.0,,Click Response,1_count,3.0,object-46,temp_dist_trial,13.0,t_s_13_1,travel_shared,contact lens case,1.0,competing,single,t_s_13_1.jpg,Travel,,,sub-30
Desktop or Laptop,Windows 10,Chrome 137.0.0.0,1536x1024,1536x1024,Temporal Distance Task,cb_01,62.0,temp_dist_trial,num_items,zn7si1,1.0,response,1_ITEM,966.4000000000232,949.7000000000116,966.4000000000232,966.4000000000232,949.7000000000116,966.4000000000232,1.0,0.0,0.0,,Click Response,1_count,3.0,object-46,temp_dist_trial,14.0,t_i_18_1,travel_Iceland,ski mask,1.0,unique,single,t_i_18_1.jpg,Travel,,,sub-30
Desktop or Laptop,Windows 10,Chrome 137.0.0.0,1536x1024,1536x1024,Temporal Distance Task,cb_01,63.0,temp_dist_trial,num_items,zn7si1,1.0,response,1_ITEM,2066.200000000012,2050.4000000000233,2066.200000000012,2066.200000000012,2050.4000000000233,2066.200000000012,1.0,0.0,0.0,,Click Response,1_count,3.0,object-46,temp_dist_trial,15.0,t_s_05_1,travel_shared,neck pillow,1.0,competing,paired,t_s_05_1.jpg,Travel,,,sub-30
Desktop or Laptop,Windows 10,Chrome 137.0.0.0,1536x1024,1536x1024,Temporal Distance Task,cb_01,64.0,temp_dist_trial,num_items,zn7si1,1.0,response,1_ITEM,1699.2999999999884,1683.3999999999646,1699.2999999999884,1699.2999999999884,1683.3999999999646,1699.2999999999884,1.0,0.0,0.0,,Click Response,1_count,3.0,object-46,temp_dist_trial,16.0,t_i_19_1,travel_Iceland,rope,1.0,unique,paired,t_i_19_1.jpg,Travel,,,sub-30
Desktop or Laptop,Windows 10,Chrome 137.0.0.0,1536x1024,1536x1024,Temporal Distance Task,cb_01,65.0,temp_dist_trial,num_items,zn7si1,1.0,response,1_ITEM,1182.100000047707,1166.8000000000466,1182.100000047707,1182.100000047707,1166.8000000000466,1182.100000047707,1.0,0.0,0.0,,Click Response,1_count,3.0,object-46,temp_dist_trial,17.0,t_i_08_1,travel_Iceland,thick socks,1.0,unique,paired,t_i_08_1.jpg,Travel,,,sub-30
Desktop or Laptop,Windows 10,Chrome 137.0.0.0,1536x1024,1536x1024,Temporal Distance Task,cb_01,66.0,temp_dist_trial,num_items,zn7si1,1.0,response,2_ITEM,2581.099999999977,2567.2999999999884,2581.099999999977,2581.099999999977,2567.2999999999884,2581.099999999977,1.0,0.0,0.0,,Click Response,2_count,5.0,object-49,temp_dist_trial,18.0,t_m_01_1,travel_Miami,sandals,1.0,unique,paired,t_m_01_1.jpg,Travel,,,sub-30
Desktop or Laptop,Windows 10,Chrome 137.0.0.0,1536x1024,1536x1024,Temporal Distance Task,cb_01,66.0,temp_dist_trial,dist_items,qkpkxw,2.0,info,,8.000000047672074,0.0,8.000000047672074,8.000000047672074,0.0,8.000000047672074,1.0,0.0,0.0,,Slider,Slider,4.0,object-56,temp_dist_trial,18.0,t_m_01_1,travel_Miami,sandals,1.0,unique,paired,t_m_01_1.jpg,Travel,,,sub-30
Desktop or Laptop,Windows 10,Chrome 137.0.0.0,1536x1024,1536x1024,Temporal Distance Task,cb_01,66.0,temp_dist_trial,dist_items,qkpkxw,2.0,continue,,3083.399999999965,3066.7999999999884,3083.399999999965,3083.399999999965,3066.7999999999884,3083.399999999965,1.0,0.0,0.0,,Click To Continue,Next button,7.0,object-60,temp_dist_trial,18.0,t_m_01_1,travel_Miami,sandals,1.0,unique,paired,t_m_01_1.jpg,Travel,,,sub-30
Desktop or Laptop,Windows 10,Chrome 137.0.0.0,1536x1024,1536x1024,Temporal Distance Task,cb_01,66.0,temp_dist_trial,dist_items,qkpkxw,2.0,response,84,1349.899999999965,3066.7999999999884,3083.399999999965,1349.899999999965,3066.7999999999884,3083.399999999965,1.0,1733.5,0.0,,Slider,Slider,4.0,object-56,temp_dist_trial,18.0,t_m_01_1,travel_Miami,sandals,1.0,unique,paired,t_m_01_1.jpg,Travel,,,sub-30
Desktop or Laptop,Windows 10,Chrome 137.0.0.0,1536x1024,1536x1024,Temporal Distance Task,cb_01,67.0,temp_dist_trial,num_items,zn7si1,1.0,response,1_ITEM,2353.8000000715256,2350.099999999977,2353.8000000715256,2353.8000000715256,2350.099999999977,2353.8000000715256,1.0,0.0,0.0,,Click Response,1_count,3.0,object-46,temp_dist_trial,19.0,t_i_14_1,travel_Iceland,snow pants,1.0,unique,single,t_i_14_1.jpg,Travel,,,sub-30
Desktop or Laptop,Windows 10,Chrome 137.0.0.0,1536x1024,1536x1024,Temporal Distance Task,cb_01,68.0,temp_dist_trial,num_items,zn7si1,1.0,response,2_ITEM,1570.5000000238654,1566.3000000000463,1570.5000000238654,1570.5000000238654,1566.3000000000463,1570.5000000238654,1.0,0.0,0.0,,Click Response,2_count,5.0,object-49,temp_dist_trial,20.0,t_s_22_1,travel_shared,belt,1.0,competing,paired,t_s_22_1.jpg,Travel,,,sub-30
Desktop or Laptop,Windows 10,Chrome 137.0.0.0,1536x1024,1536x1024,Temporal Distance Task,cb_01,68.0,temp_dist_trial,dist_items,qkpkxw,2.0,info,,7.800000071525574,0.0,7.800000071525574,7.800000071525574,0.0,7.800000071525574,1.0,0.0,0.0,,Slider,Slider,4.0,object-56,temp_dist_trial,20.0,t_s_22_1,travel_shared,belt,1.0,competing,paired,t_s_22_1.jpg,Travel,,,sub-30
Desktop or Laptop,Windows 10,Chrome 137.0.0.0,1536x1024,1536x1024,Temporal Distance Task,cb_01,68.0,temp_dist_trial,dist_items,qkpkxw,2.0,continue,,2458.600000023842,2450.200000000012,2458.600000023842,2458.600000023842,2450.200000000012,2458.600000023842,1.0,0.0,0.0,,Click To Continue,Next button,7.0,object-60,temp_dist_trial,20.0,t_s_22_1,travel_shared,belt,1.0,competing,paired,t_s_22_1.jpg,Travel,,,sub-30
Desktop or Laptop,Windows 10,Chrome 137.0.0.0,1536x1024,1536x1024,Temporal Distance Task,cb_01,68.0,temp_dist_trial,dist_items,qkpkxw,2.0,response,72,1366.5999999999767,2450.200000000012,2464.8000000715256,1366.5999999999767,2450.200000000012,2464.8000000715256,1.0,1098.2000000715489,0.0,,Slider,Slider,4.0,object-56,temp_dist_trial,20.0,t_s_22_1,travel_shared,belt,1.0,competing,paired,t_s_22_1.jpg,Travel,,,sub-30
Desktop or Laptop,Windows 10,Chrome 137.0.0.0,1536x1024,1536x1024,Temporal Distance Task,cb_01,69.0,temp_dist_trial,num_items,zn7si1,1.0,response,2_ITEM,933.2000000000116,916.5,933.2000000000116,933.2000000000116,916.5,933.2000000000116,1.0,0.0,0.0,,Click Response,2_count,5.0,object-49,temp_dist_trial,21.0,t_i_13_1,travel_Iceland,sleeping bag,1.0,unique,paired,t_i_13_1.jpg,Travel,,,sub-30
Desktop or Laptop,Windows 10,Chrome 137.0.0.0,1536x1024,1536x1024,Temporal Distance Task,cb_01,69.0,temp_dist_trial,dist_items,qkpkxw,2.0,info,,8.799999976181427,0.0,8.799999976181427,8.799999976181427,0.0,8.799999976181427,1.0,0.0,0.0,,Slider,Slider,4.0,object-56,temp_dist_trial,21.0,t_i_13_1,travel_Iceland,sleeping bag,1.0,unique,paired,t_i_13_1.jpg,Travel,,,sub-30
Desktop or Laptop,Windows 10,Chrome 137.0.0.0,1536x1024,1536x1024,Temporal Distance Task,cb_01,69.0,temp_dist_trial,dist_items,qkpkxw,2.0,continue,,1544.0000000238654,1533.7000000000116,1544.0000000238654,1544.0000000238654,1533.7000000000116,1544.0000000238654,1.0,0.0,0.0,,Click To Continue,Next button,7.0,object-60,temp_dist_trial,21.0,t_i_13_1,travel_Iceland,sleeping bag,1.0,unique,paired,t_i_13_1.jpg,Travel,,,sub-30
Desktop or Laptop,Windows 10,Chrome 137.0.0.0,1536x1024,1536x1024,Temporal Distance Task,cb_01,69.0,temp_dist_trial,dist_items,qkpkxw,2.0,response,29,550.2000000000116,1533.7000000000116,1545.0000000238654,550.2000000000116,1533.7000000000116,1545.0000000238654,1.0,994.8000000238536,0.0,,Slider,Slider,4.0,object-56,temp_dist_trial,21.0,t_i_13_1,travel_Iceland,sleeping bag,1.0,unique,paired,t_i_13_1.jpg,Travel,,,sub-30
Desktop or Laptop,Windows 10,Chrome 137.0.0.0,1536x1024,1536x1024,Temporal Distance Task,cb_01,70.0,temp_dist_trial,num_items,zn7si1,1.0,response,1_ITEM,1427.9000000476956,1416.5,1427.9000000476956,1427.9000000476956,1416.5,1427.9000000476956,1.0,0.0,0.0,,Click Response,1_count,3.0,object-46,temp_dist_trial,22.0,t_s_24_1,travel_shared,ear plugs,1.0,competing,single,t_s_24_1.jpg,Travel,,,sub-30
Desktop or Laptop,Windows 10,Chrome 137.0.0.0,1536x1024,1536x1024,Temporal Distance Task,cb_01,71.0,temp_dist_trial,num_items,zn7si1,1.0,response,2_ITEM,1775.4999999761346,1766.7999999999884,1775.4999999761346,1775.4999999761346,1766.7999999999884,1775.4999999761346,1.0,0.0,0.0,,Click Response,2_count,5.0,object-49,temp_dist_trial,23.0,t_i_10_1,travel_Iceland,trekking poles,1.0,unique,paired,t_i_10_1.jpg,Travel,,,sub-30
Desktop or Laptop,Windows 10,Chrome 137.0.0.0,1536x1024,1536x1024,Temporal Distance Task,cb_01,71.0,temp_dist_trial,dist_items,qkpkxw,2.0,info,,10.000000047672074,0.0,10.000000047672074,10.000000047672074,0.0,10.000000047672074,1.0,0.0,0.0,,Slider,Slider,4.0,object-56,temp_dist_trial,23.0,t_i_10_1,travel_Iceland,trekking poles,1.0,unique,paired,t_i_10_1.jpg,Travel,,,sub-30
Desktop or Laptop,Windows 10,Chrome 137.0.0.0,1536x1024,1536x1024,Temporal Distance Task,cb_01,71.0,temp_dist_trial,dist_items,qkpkxw,2.0,continue,,1999.2999999999884,1983.2999999999884,1999.2999999999884,1999.2999999999884,1983.2999999999884,1999.2999999999884,1.0,0.0,0.0,,Click To Continue,Next button,7.0,object-60,temp_dist_trial,23.0,t_i_10_1,travel_Iceland,trekking poles,1.0,unique,paired,t_i_10_1.jpg,Travel,,,sub-30
Desktop or Laptop,Windows 10,Chrome 137.0.0.0,1536x1024,1536x1024,Temporal Distance Task,cb_01,71.0,temp_dist_trial,dist_items,qkpkxw,2.0,response,78,1033.0,1983.2999999999884,2000.0,1033.0,1983.2999999999884,2000.0,1.0,967.0,0.0,,Slider,Slider,4.0,object-56,temp_dist_trial,23.0,t_i_10_1,travel_Iceland,trekking poles,1.0,unique,paired,t_i_10_1.jpg,Travel,,,sub-30
Desktop or Laptop,Windows 10,Chrome 137.0.0.0,1536x1024,1536x1024,Temporal Distance Task,cb_01,72.0,temp_dist_trial,num_items,zn7si1,1.0,response,2_ITEM,2799.300000071525,2783.5,2799.300000071525,2799.300000071525,2783.5,2799.300000071525,1.0,0.0,0.0,,Click Response,2_count,5.0,object-49,temp_dist_trial,24.0,t_i_05_1,travel_Iceland,hiking boots,1.0,unique,paired,t_i_05_1.jpg,Travel,,,sub-30
Desktop or Laptop,Windows 10,Chrome 137.0.0.0,1536x1024,1536x1024,Temporal Distance Task,cb_01,72.0,temp_dist_trial,dist_items,qkpkxw,2.0,info,,9.100000023841858,0.0,9.100000023841858,9.100000023841858,0.0,9.100000023841858,1.0,0.0,0.0,,Slider,Slider,4.0,object-56,temp_dist_trial,24.0,t_i_05_1,travel_Iceland,hiking boots,1.0,unique,paired,t_i_05_1.jpg,Travel,,,sub-30
Desktop or Laptop,Windows 10,Chrome 137.0.0.0,1536x1024,1536x1024,Temporal Distance Task,cb_01,72.0,temp_dist_trial,dist_items,qkpkxw,2.0,continue,,1909.700000047684,1899.7000000000119,1909.700000047684,1909.700000047684,1899.7000000000119,1909.700000047684,1.0,0.0,0.0,,Click To Continue,Next button,7.0,object-60,temp_dist_trial,24.0,t_i_05_1,travel_Iceland,hiking boots,1.0,unique,paired,t_i_05_1.jpg,Travel,,,sub-30
Desktop or Laptop,Windows 10,Chrome 137.0.0.0,1536x1024,1536x1024,Temporal Distance Task,cb_01,72.0,temp_dist_trial,dist_items,qkpkxw,2.0,response,76,950.2000000000116,1899.7000000000119,1910.3000000715256,950.2000000000116,1899.7000000000119,1910.3000000715256,1.0,960.1000000715139,0.0,,Slider,Slider,4.0,object-56,temp_dist_trial,24.0,t_i_05_1,travel_Iceland,hiking boots,1.0,unique,paired,t_i_05_1.jpg,Travel,,,sub-30
Desktop or Laptop,Windows 10,Chrome 137.0.0.0,1536x1024,1536x1024,Temporal Distance Task,cb_01,73.0,temp_dist_trial,num_items,zn7si1,1.0,response,1_ITEM,2025.900000023831,2017.0999999999767,2025.900000023831,2025.900000023831,2017.0999999999767,2025.900000023831,1.0,0.0,0.0,,Click Response,1_count,3.0,object-46,temp_dist_trial,25.0,t_s_10_1,travel_shared,luggage lock,1.0,competing,single,t_s_10_1.jpg,Travel,,,sub-30
Desktop or Laptop,Windows 10,Chrome 137.0.0.0,1536x1024,1536x1024,Temporal Distance Task,cb_01,74.0,temp_dist_trial,num_items,zn7si1,1.0,response,2_ITEM,919.9000000476954,916.4000000000232,919.9000000476954,919.9000000476954,916.4000000000232,919.9000000476954,1.0,0.0,0.0,,Click Response,2_count,5.0,object-49,temp_dist_trial,26.0,t_m_07_1,travel_Miami,sunglasses,1.0,unique,single,t_m_07_1.jpg,Travel,,,sub-30
Desktop or Laptop,Windows 10,Chrome 137.0.0.0,1536x1024,1536x1024,Temporal Distance Task,cb_01,74.0,temp_dist_trial,dist_items,qkpkxw,2.0,info,,7.900000071502291,0.0,7.900000071502291,7.900000071502291,0.0,7.900000071502291,1.0,0.0,0.0,,Slider,Slider,4.0,object-56,temp_dist_trial,26.0,t_m_07_1,travel_Miami,sunglasses,1.0,unique,single,t_m_07_1.jpg,Travel,,,sub-30
Desktop or Laptop,Windows 10,Chrome 137.0.0.0,1536x1024,1536x1024,Temporal Distance Task,cb_01,74.0,temp_dist_trial,dist_items,qkpkxw,2.0,continue,,1811.2000000238183,1800.1999999999537,1811.2000000238183,1811.2000000238183,1800.1999999999537,1811.2000000238183,1.0,0.0,0.0,,Click To Continue,Next button,7.0,object-60,temp_dist_trial,26.0,t_m_07_1,travel_Miami,sunglasses,1.0,unique,single,t_m_07_1.jpg,Travel,,,sub-30
Desktop or Laptop,Windows 10,Chrome 137.0.0.0,1536x1024,1536x1024,Temporal Distance Task,cb_01,74.0,temp_dist_trial,dist_items,qkpkxw,2.0,response,74,1016.8999999999652,1800.1999999999537,1812.0999999999767,1016.8999999999652,1800.1999999999537,1812.0999999999767,1.0,795.2000000000116,0.0,,Slider,Slider,4.0,object-56,temp_dist_trial,26.0,t_m_07_1,travel_Miami,sunglasses,1.0,unique,single,t_m_07_1.jpg,Travel,,,sub-30
Desktop or Laptop,Windows 10,Chrome 137.0.0.0,1536x1024,1536x1024,Temporal Distance Task,cb_01,75.0,temp_dist_trial,num_items,zn7si1,1.0,response,2_ITEM,1288.7000000715489,1283.3000000000466,1288.7000000715489,1288.7000000715489,1283.3000000000466,1288.7000000715489,1.0,0.0,0.0,,Click Response,2_count,5.0,object-49,temp_dist_trial,27.0,t_i_09_1,travel_Iceland,ear muffs,1.0,unique,paired,t_i_09_1.jpg,Travel,,,sub-30
Desktop or Laptop,Windows 10,Chrome 137.0.0.0,1536x1024,1536x1024,Temporal Distance Task,cb_01,75.0,temp_dist_trial,dist_items,qkpkxw,2.0,info,,10.100000023841858,0.0,10.100000023841858,10.100000023841858,0.0,10.100000023841858,1.0,0.0,0.0,,Slider,Slider,4.0,object-56,temp_dist_trial,27.0,t_i_09_1,travel_Iceland,ear muffs,1.0,unique,paired,t_i_09_1.jpg,Travel,,,sub-30
Desktop or Laptop,Windows 10,Chrome 137.0.0.0,1536x1024,1536x1024,Temporal Distance Task,cb_01,75.0,temp_dist_trial,dist_items,qkpkxw,2.0,continue,,2355.0,2350.599999999977,2355.0,2355.0,2350.599999999977,2355.0,1.0,0.0,0.0,,Click To Continue,Next button,7.0,object-60,temp_dist_trial,27.0,t_i_09_1,travel_Iceland,ear muffs,1.0,unique,paired,t_i_09_1.jpg,Travel,,,sub-30
Desktop or Laptop,Windows 10,Chrome 137.0.0.0,1536x1024,1536x1024,Temporal Distance Task,cb_01,75.0,temp_dist_trial,dist_items,qkpkxw,2.0,response,31,667.2999999999884,2350.599999999977,2363.8000000715256,667.2999999999884,2350.599999999977,2363.8000000715256,1.0,1696.5000000715372,0.0,,Slider,Slider,4.0,object-56,temp_dist_trial,27.0,t_i_09_1,travel_Iceland,ear muffs,1.0,unique,paired,t_i_09_1.jpg,Travel,,,sub-30
Desktop or Laptop,Windows 10,Chrome 137.0.0.0,1536x1024,1536x1024,Temporal Distance Task,cb_01,76.0,temp_dist_trial,num_items,zn7si1,1.0,response,1_ITEM,1796.600000047707,1783.5,1796.600000047707,1796.600000047707,1783.5,1796.600000047707,1.0,0.0,0.0,,Click Response,1_count,3.0,object-46,temp_dist_trial,28.0,t_m_06_1,travel_Miami,handheld fan,1.0,unique,single,t_m_06_1.jpg,Travel,,,sub-30
Desktop or Laptop,Windows 10,Chrome 137.0.0.0,1536x1024,1536x1024,Temporal Distance Task,cb_01,77.0,temp_dist_trial,num_items,zn7si1,1.0,response,1_ITEM,1971.600000047707,1967.3000000000463,1971.600000047707,1971.600000047707,1967.3000000000463,1971.600000047707,1.0,0.0,0.0,,Click Response,1_count,3.0,object-46,temp_dist_trial,29.0,t_s_20_1,travel_shared,travel pill case,1.0,competing,paired,t_s_20_1.jpg,Travel,,,sub-30
Desktop or Laptop,Windows 10,Chrome 137.0.0.0,1536x1024,1536x1024,Temporal Distance Task,cb_01,78.0,temp_dist_trial,num_items,zn7si1,1.0,response,1_ITEM,1850.0,1833.5,1850.0,1850.0,1833.5,1850.0,1.0,0.0,0.0,,Click Response,1_count,3.0,object-46,temp_dist_trial,30.0,t_s_23_1,travel_shared,ball cap,1.0,competing,single,t_s_23_1.jpg,Travel,,,sub-30
Desktop or Laptop,Windows 10,Chrome 137.0.0.0,1536x1024,1536x1024,Temporal Distance Task,cb_01,79.0,temp_dist_trial,num_items,zn7si1,1.0,response,2_ITEM,1294.9000000238302,1283.399999999965,1294.9000000238302,1294.9000000238302,1283.399999999965,1294.9000000238302,1.0,0.0,0.0,,Click Response,2_count,5.0,object-49,temp_dist_trial,31.0,t_s_14_1,travel_shared,hand sanitizer,1.0,competing,paired,t_s_14_1.jpg,Travel,,,sub-30
Desktop or Laptop,Windows 10,Chrome 137.0.0.0,1536x1024,1536x1024,Temporal Distance Task,cb_01,79.0,temp_dist_trial,dist_items,qkpkxw,2.0,info,,5.900000023830216,0.0,5.900000023830216,5.900000023830216,0.0,5.900000023830216,1.0,0.0,0.0,,Slider,Slider,4.0,object-56,temp_dist_trial,31.0,t_s_14_1,travel_shared,hand sanitizer,1.0,competing,paired,t_s_14_1.jpg,Travel,,,sub-30
Desktop or Laptop,Windows 10,Chrome 137.0.0.0,1536x1024,1536x1024,Temporal Distance Task,cb_01,79.0,temp_dist_trial,dist_items,qkpkxw,2.0,continue,,3371.1000000715144,3367.0999999999767,3371.1000000715144,3371.1000000715144,3367.0999999999767,3371.1000000715144,1.0,0.0,0.0,,Click To Continue,Next button,7.0,object-60,temp_dist_trial,31.0,t_s_14_1,travel_shared,hand sanitizer,1.0,competing,paired,t_s_14_1.jpg,Travel,,,sub-30
Desktop or Laptop,Windows 10,Chrome 137.0.0.0,1536x1024,1536x1024,Temporal Distance Task,cb_01,79.0,temp_dist_trial,dist_items,qkpkxw,2.0,response,71,783.8999999999651,3367.0999999999767,3378.000000047672,783.8999999999651,3367.0999999999767,3378.000000047672,1.0,2594.100000047707,0.0,,Slider,Slider,4.0,object-56,temp_dist_trial,31.0,t_s_14_1,travel_shared,hand sanitizer,1.0,competing,paired,t_s_14_1.jpg,Travel,,,sub-30
Desktop or Laptop,Windows 10,Chrome 137.0.0.0,1536x1024,1536x1024,Temporal Distance Task,cb_01,80.0,temp_dist_trial,num_items,zn7si1,1.0,response,2_ITEM,826.9000000476954,817.2999999999884,826.9000000476954,826.9000000476954,817.2999999999884,826.9000000476954,1.0,0.0,0.0,,Click Response,2_count,5.0,object-49,temp_dist_trial,32.0,t_s_21_1,travel_shared,umbrella,1.0,competing,paired,t_s_21_1.jpg,Travel,,,sub-30
Desktop or Laptop,Windows 10,Chrome 137.0.0.0,1536x1024,1536x1024,Temporal Distance Task,cb_01,80.0,temp_dist_trial,dist_items,qkpkxw,2.0,info,,8.800000047660431,0.0,8.800000047660431,8.800000047660431,0.0,8.800000047660431,1.0,0.0,0.0,,Slider,Slider,4.0,object-56,temp_dist_trial,32.0,t_s_21_1,travel_shared,umbrella,1.0,competing,paired,t_s_21_1.jpg,Travel,,,sub-30
Desktop or Laptop,Windows 10,Chrome 137.0.0.0,1536x1024,1536x1024,Temporal Distance Task,cb_01,80.0,temp_dist_trial,dist_items,qkpkxw,2.0,continue,,1695.9000000715023,1683.2999999999884,1695.9000000715023,1695.9000000715023,1683.2999999999884,1695.9000000715023,1.0,0.0,0.0,,Click To Continue,Next button,7.0,object-60,temp_dist_trial,32.0,t_s_21_1,travel_shared,umbrella,1.0,competing,paired,t_s_21_1.jpg,Travel,,,sub-30
Desktop or Laptop,Windows 10,Chrome 137.0.0.0,1536x1024,1536x1024,Temporal Distance Task,cb_01,80.0,temp_dist_trial,dist_items,qkpkxw,2.0,response,27,750.2999999999884,1683.2999999999884,1696.4000000715023,750.2999999999884,1683.2999999999884,1696.4000000715023,1.0,946.1000000715139,0.0,,Slider,Slider,4.0,object-56,temp_dist_trial,32.0,t_s_21_1,travel_shared,umbrella,1.0,competing,paired,t_s_21_1.jpg,Travel,,,sub-30
Desktop or Laptop,Windows 10,Chrome 137.0.0.0,1536x1024,1536x1024,Temporal Distance Task,cb_01,81.0,temp_dist_trial,num_items,zn7si1,1.0,response,2_ITEM,844.9000000238302,833.5,844.9000000238302,844.9000000238302,833.5,844.9000000238302,1.0,0.0,0.0,,Click Response,2_count,5.0,object-49,temp_dist_trial,33.0,t_s_08_1,travel_shared,hand lotion,1.0,competing,paired,t_s_08_1.jpg,Travel,,,sub-30
Desktop or Laptop,Windows 10,Chrome 137.0.0.0,1536x1024,1536x1024,Temporal Distance Task,cb_01,81.0,temp_dist_trial,dist_items,qkpkxw,2.0,info,,8.900000071502289,0.0,8.900000071502289,8.900000071502289,0.0,8.900000071502289,1.0,0.0,0.0,,Slider,Slider,4.0,object-56,temp_dist_trial,33.0,t_s_08_1,travel_shared,hand lotion,1.0,competing,paired,t_s_08_1.jpg,Travel,,,sub-30
Desktop or Laptop,Windows 10,Chrome 137.0.0.0,1536x1024,1536x1024,Temporal Distance Task,cb_01,81.0,temp_dist_trial,dist_items,qkpkxw,2.0,continue,,1954.2000000238183,1950.0,1954.2000000238183,1954.2000000238183,1950.0,1954.2000000238183,1.0,0.0,0.0,,Click To Continue,Next button,7.0,object-60,temp_dist_trial,33.0,t_s_08_1,travel_shared,hand lotion,1.0,competing,paired,t_s_08_1.jpg,Travel,,,sub-30
Desktop or Laptop,Windows 10,Chrome 137.0.0.0,1536x1024,1536x1024,Temporal Distance Task,cb_01,81.0,temp_dist_trial,dist_items,qkpkxw,2.0,response,13,716.7999999999884,1950.0,1955.0999999999767,716.7999999999884,1950.0,1955.0999999999767,1.0,1238.2999999999886,0.0,,Slider,Slider,4.0,object-56,temp_dist_trial,33.0,t_s_08_1,travel_shared,hand lotion,1.0,competing,paired,t_s_08_1.jpg,Travel,,,sub-30
Desktop or Laptop,Windows 10,Chrome 137.0.0.0,1536x1024,1536x1024,Temporal Distance Task,cb_01,82.0,temp_dist_trial,num_items,zn7si1,1.0,response,2_ITEM,1028.0999999999767,1017.0,1028.0999999999767,1028.0999999999767,1017.0,1028.0999999999767,1.0,0.0,0.0,,Click Response,2_count,5.0,object-49,temp_dist_trial,34.0,t_i_15_1,travel_Iceland,compass,1.0,unique,paired,t_i_15_1.jpg,Travel,,,sub-30
Desktop or Laptop,Windows 10,Chrome 137.0.0.0,1536x1024,1536x1024,Temporal Distance Task,cb_01,82.0,temp_dist_trial,dist_items,qkpkxw,2.0,info,,8.099999999976717,0.0,8.099999999976717,8.099999999976717,0.0,8.099999999976717,1.0,0.0,0.0,,Slider,Slider,4.0,object-56,temp_dist_trial,34.0,t_i_15_1,travel_Iceland,compass,1.0,unique,paired,t_i_15_1.jpg,Travel,,,sub-30
Desktop or Laptop,Windows 10,Chrome 137.0.0.0,1536x1024,1536x1024,Temporal Distance Task,cb_01,82.0,temp_dist_trial,dist_items,qkpkxw,2.0,continue,,1728.0999999999767,1716.5,1728.0999999999767,1728.0999999999767,1716.5,1728.0999999999767,1.0,0.0,0.0,,Click To Continue,Next button,7.0,object-60,temp_dist_trial,34.0,t_i_15_1,travel_Iceland,compass,1.0,unique,paired,t_i_15_1.jpg,Travel,,,sub-30
Desktop or Laptop,Windows 10,Chrome 137.0.0.0,1536x1024,1536x1024,Temporal Distance Task,cb_01,82.0,temp_dist_trial,dist_items,qkpkxw,2.0,response,67,916.3999999999652,1716.5,1729.3000000476604,916.3999999999652,1716.5,1729.3000000476604,1.0,812.9000000476954,0.0,,Slider,Slider,4.0,object-56,temp_dist_trial,34.0,t_i_15_1,travel_Iceland,compass,1.0,unique,paired,t_i_15_1.jpg,Travel,,,sub-30
Desktop or Laptop,Windows 10,Chrome 137.0.0.0,1536x1024,1536x1024,Temporal Distance Task,cb_01,83.0,temp_dist_trial,num_items,zn7si1,1.0,response,2_ITEM,982.3000000476603,966.8999999999652,982.3000000476603,982.3000000476603,966.8999999999652,982.3000000476603,1.0,0.0,0.0,,Click Response,2_count,5.0,object-49,temp_dist_trial,35.0,t_s_03_1,travel_shared,portable charger,1.0,competing,paired,t_s_03_1.jpg,Travel,,,sub-30
