Participant Device,Participant OS,Participant Browser,Participant Monitor Size,Participant Viewport Size,Task Name,Current Spreadsheet,Trial Number,Display,Screen,Screen ID,Screen Counter,Response Type,Response,Onset Time,Clock Time,Reaction Time,Absolute Onset Time,Absolute Clock Time,Absolute Reaction Time,Correct,Response Duration,Proportion,Tag,Component Name,Object Name,Object Number,Object ID,Spreadsheet: display,Spreadsheet: trial,Spreadsheet: stimulus_id,Spreadsheet: expected_goal,Spreadsheet: stimulus_name,Spreadsheet: c_group,Spreadsheet: condition,Spreadsheet: paired_status,Spreadsheet: stimulus_path,Spreadsheet: block_type,Manipulation: Spreadsheet,Store: enc_test_acc,sub_label
Desktop or Laptop,Windows 10,Chrome 138.0.0.0,1920x1080,1920x953,Temporal Distance Task,$${counterbalance_group},,,,,,info,BEGIN,,,,,,,0.0,,,,,,,,,,,,,,,,,,,,sub-29
Desktop or Laptop,Windows 10,Chrome 138.0.0.0,1920x1080,1920x953,Temporal Distance Task,cb_02,1.0,temp_instructions,intro_screen,3tnme7,1.0,continue,,8378.100000023842,8367.2,8378.100000023842,8378.100000023842,8367.2,8378.100000023842,1.0,0.0,0.0,,Click To Continue,Continue Button,4.0,object-29,temp_instructions,,,Travel,,,,,,,,,sub-29
Desktop or Laptop,Windows 10,Chrome 138.0.0.0,1920x1080,1920x953,Temporal Distance Task,cb_02,1.0,temp_instructions,intro_screen_2,52v7ur,2.0,continue,,11532.500000047683,11517.399999999998,11532.500000047683,11532.500000047683,11517.399999999998,11532.500000047683,1.0,0.0,0.0,,Click To Continue,Continue Button,4.0,object-39,temp_instructions,,,Travel,,,,,,,,,sub-29
Desktop or Laptop,Windows 10,Chrome 138.0.0.0,1920x1080,1920x953,Temporal Distance Task,cb_02,1.0,temp_instructions,intro_screen_3,i7lvwx,3.0,continue,,16734.000000023847,16717.700000000004,16734.000000023847,16734.000000023847,16717.700000000004,16734.000000023847,1.0,0.0,0.0,,Click To Continue,Continue Button,4.0,object-67,temp_instructions,,,Travel,,,,,,,,,sub-29
Desktop or Laptop,Windows 10,Chrome 138.0.0.0,1920x1080,1920x953,Temporal Distance Task,cb_02,1.0,temp_instructions,test_q1,5ieqx1,4.0,response,choice_3,5753.800000023839,5750.299999999997,5753.800000023839,5753.800000023839,5750.299999999997,5753.800000023839,1.0,0.0,0.0,,Click Response,choice_3,5.0,object-345,temp_instructions,,,Travel,,,,,,,,,sub-29
Desktop or Laptop,Windows 10,Chrome 138.0.0.0,1920x1080,1920x953,Temporal Distance Task,cb_02,1.0,temp_instructions,score_corr,7ilvjr,5.0,continue,,806.6000000476853,800.0999999999983,806.6000000476853,806.6000000476853,800.0999999999983,806.6000000476853,1.0,0.0,0.0,,Click To Continue,Continue Button,3.0,object-23,temp_instructions,,,Travel,,,,,,,,,sub-29
Desktop or Laptop,Windows 10,Chrome 138.0.0.0,1920x1080,1920x953,Temporal Distance Task,cb_02,1.0,temp_eventStart,Screen 1,dgtyxe,1.0,continue,,2233.400000000001,2216.800000000003,2233.400000000001,2233.400000000001,2216.800000000003,2233.400000000001,1.0,0.0,0.0,,Click To Continue,Next Button,3.0,object-43,temp_eventStart,,,Travel,,,,,,,,,sub-29
Desktop or Laptop,Windows 10,Chrome 138.0.0.0,1920x1080,1920x953,Temporal Distance Task,cb_02,1.0,temp_dist_trial,num_items,zn7si1,1.0,response,2_ITEM,1847.9000000953674,1833.5,1847.9000000953674,1847.9000000953674,1833.5,1847.9000000953674,1.0,0.0,0.0,,Click Response,2_count,5.0,object-49,temp_dist_trial,1.0,t_s_02_1,travel_shared,water bottle,2.0,competing,single,t_s_02_1.jpg,Travel,,,sub-29
Desktop or Laptop,Windows 10,Chrome 138.0.0.0,1920x1080,1920x953,Temporal Distance Task,cb_02,1.0,temp_dist_trial,dist_items,qkpkxw,2.0,info,,8.400000071524119,0.0,8.400000071524119,8.400000071524119,0.0,8.400000071524119,1.0,0.0,0.0,,Slider,Slider,4.0,object-56,temp_dist_trial,1.0,t_s_02_1,travel_shared,water bottle,2.0,competing,single,t_s_02_1.jpg,Travel,,,sub-29
Desktop or Laptop,Windows 10,Chrome 138.0.0.0,1920x1080,1920x953,Temporal Distance Task,cb_02,1.0,temp_dist_trial,dist_items,qkpkxw,2.0,continue,,2593.000000095366,2583.5999999999985,2593.000000095366,2593.000000095366,2583.5999999999985,2593.000000095366,1.0,0.0,0.0,,Click To Continue,Next button,7.0,object-60,temp_dist_trial,1.0,t_s_02_1,travel_shared,water bottle,2.0,competing,single,t_s_02_1.jpg,Travel,,,sub-29
Desktop or Laptop,Windows 10,Chrome 138.0.0.0,1920x1080,1920x953,Temporal Distance Task,cb_02,1.0,temp_dist_trial,dist_items,qkpkxw,2.0,response,27,1750.1999999999966,2583.5999999999985,2594.200000023841,1750.1999999999966,2583.5999999999985,2594.200000023841,1.0,844.0000000238432,0.0,,Slider,Slider,4.0,object-56,temp_dist_trial,1.0,t_s_02_1,travel_shared,water bottle,2.0,competing,single,t_s_02_1.jpg,Travel,,,sub-29
Desktop or Laptop,Windows 10,Chrome 138.0.0.0,1920x1080,1920x953,Temporal Distance Task,cb_02,2.0,temp_dist_trial,num_items,zn7si1,1.0,response,2_ITEM,1959.3000000715256,1950.0,1959.3000000715256,1959.3000000715256,1950.0,1959.3000000715256,1.0,0.0,0.0,,Click Response,2_count,5.0,object-49,temp_dist_trial,2.0,t_s_11_1,travel_shared,eye mask,2.0,competing,paired,t_s_11_1.jpg,Travel,,,sub-29
Desktop or Laptop,Windows 10,Chrome 138.0.0.0,1920x1080,1920x953,Temporal Distance Task,cb_02,2.0,temp_dist_trial,dist_items,qkpkxw,2.0,info,,5.300000071525575,0.0,5.300000071525575,5.300000071525575,0.0,5.300000071525575,1.0,0.0,0.0,,Slider,Slider,4.0,object-56,temp_dist_trial,2.0,t_s_11_1,travel_shared,eye mask,2.0,competing,paired,t_s_11_1.jpg,Travel,,,sub-29
Desktop or Laptop,Windows 10,Chrome 138.0.0.0,1920x1080,1920x953,Temporal Distance Task,cb_02,2.0,temp_dist_trial,dist_items,qkpkxw,2.0,continue,,1660.7000000476835,1650.3000000000034,1660.7000000476835,1660.7000000476835,1650.3000000000034,1660.7000000476835,1.0,0.0,0.0,,Click To Continue,Next button,7.0,object-60,temp_dist_trial,2.0,t_s_11_1,travel_shared,eye mask,2.0,competing,paired,t_s_11_1.jpg,Travel,,,sub-29
Desktop or Laptop,Windows 10,Chrome 138.0.0.0,1920x1080,1920x953,Temporal Distance Task,cb_02,2.0,temp_dist_trial,dist_items,qkpkxw,2.0,response,26,1033.5,1650.3000000000034,1661.8000000715256,1033.5,1650.3000000000034,1661.8000000715256,1.0,628.3000000715257,0.0,,Slider,Slider,4.0,object-56,temp_dist_trial,2.0,t_s_11_1,travel_shared,eye mask,2.0,competing,paired,t_s_11_1.jpg,Travel,,,sub-29
Desktop or Laptop,Windows 10,Chrome 138.0.0.0,1920x1080,1920x953,Temporal Distance Task,cb_02,3.0,temp_dist_trial,num_items,zn7si1,1.0,response,1_ITEM,2015.6999999999966,2000.0,2015.6999999999966,2015.6999999999966,2000.0,2015.6999999999966,1.0,0.0,0.0,,Click Response,1_count,3.0,object-46,temp_dist_trial,3.0,t_s_21_1,travel_shared,umbrella,2.0,competing,single,t_s_21_1.jpg,Travel,,,sub-29
Desktop or Laptop,Windows 10,Chrome 138.0.0.0,1920x1080,1920x953,Temporal Distance Task,cb_02,4.0,temp_dist_trial,num_items,zn7si1,1.0,response,2_ITEM,1579.6999999999966,1566.7999999999954,1579.6999999999966,1579.6999999999966,1566.7999999999954,1579.6999999999966,1.0,0.0,0.0,,Click Response,2_count,5.0,object-49,temp_dist_trial,4.0,t_m_18_1,travel_Miami,waterproof tote,2.0,unique,paired,t_m_18_1.jpg,Travel,,,sub-29
Desktop or Laptop,Windows 10,Chrome 138.0.0.0,1920x1080,1920x953,Temporal Distance Task,cb_02,4.0,temp_dist_trial,dist_items,qkpkxw,2.0,info,,6.400000000001455,0.0,6.400000000001455,6.400000000001455,0.0,6.400000000001455,1.0,0.0,0.0,,Slider,Slider,4.0,object-56,temp_dist_trial,4.0,t_m_18_1,travel_Miami,waterproof tote,2.0,unique,paired,t_m_18_1.jpg,Travel,,,sub-29
Desktop or Laptop,Windows 10,Chrome 138.0.0.0,1920x1080,1920x953,Temporal Distance Task,cb_02,4.0,temp_dist_trial,dist_items,qkpkxw,2.0,continue,,3359.200000071527,3350.099999999999,3359.200000071527,3359.200000071527,3350.099999999999,3359.200000071527,1.0,0.0,0.0,,Click To Continue,Next button,7.0,object-60,temp_dist_trial,4.0,t_m_18_1,travel_Miami,waterproof tote,2.0,unique,paired,t_m_18_1.jpg,Travel,,,sub-29
Desktop or Laptop,Windows 10,Chrome 138.0.0.0,1920x1080,1920x953,Temporal Distance Task,cb_02,4.0,temp_dist_trial,dist_items,qkpkxw,2.0,response,25,1700.2000000000046,3350.099999999999,3359.6000000476847,1700.2000000000046,3350.099999999999,3359.6000000476847,1.0,1659.4000000476804,0.0,,Slider,Slider,4.0,object-56,temp_dist_trial,4.0,t_m_18_1,travel_Miami,waterproof tote,2.0,unique,paired,t_m_18_1.jpg,Travel,,,sub-29
Desktop or Laptop,Windows 10,Chrome 138.0.0.0,1920x1080,1920x953,Temporal Distance Task,cb_02,5.0,temp_dist_trial,num_items,zn7si1,1.0,response,2_ITEM,2533.1000000715285,2517.0,2533.1000000715285,2533.1000000715285,2517.0,2533.1000000715285,1.0,0.0,0.0,,Click Response,2_count,5.0,object-49,temp_dist_trial,5.0,t_i_15_1,travel_Iceland,compass,2.0,unique,paired,t_i_15_1.jpg,Travel,,,sub-29
Desktop or Laptop,Windows 10,Chrome 138.0.0.0,1920x1080,1920x953,Temporal Distance Task,cb_02,5.0,temp_dist_trial,dist_items,qkpkxw,2.0,info,,5.500000047686624,0.0,5.500000047686624,5.500000047686624,0.0,5.500000047686624,1.0,0.0,0.0,,Slider,Slider,4.0,object-56,temp_dist_trial,5.0,t_i_15_1,travel_Iceland,compass,2.0,unique,paired,t_i_15_1.jpg,Travel,,,sub-29
Desktop or Laptop,Windows 10,Chrome 138.0.0.0,1920x1080,1920x953,Temporal Distance Task,cb_02,5.0,temp_dist_trial,dist_items,qkpkxw,2.0,continue,,2014.3000000000034,2000.1000000000056,2014.3000000000034,2014.3000000000034,2000.1000000000056,2014.3000000000034,1.0,0.0,0.0,,Click To Continue,Next button,7.0,object-60,temp_dist_trial,5.0,t_i_15_1,travel_Iceland,compass,2.0,unique,paired,t_i_15_1.jpg,Travel,,,sub-29
Desktop or Laptop,Windows 10,Chrome 138.0.0.0,1920x1080,1920x953,Temporal Distance Task,cb_02,5.0,temp_dist_trial,dist_items,qkpkxw,2.0,response,64,1550.1999999999966,2000.1000000000056,2014.7000000953706,1550.1999999999966,2000.1000000000056,2014.7000000953706,1.0,464.50000009537325,0.0,,Slider,Slider,4.0,object-56,temp_dist_trial,5.0,t_i_15_1,travel_Iceland,compass,2.0,unique,paired,t_i_15_1.jpg,Travel,,,sub-29
Desktop or Laptop,Windows 10,Chrome 138.0.0.0,1920x1080,1920x953,Temporal Distance Task,cb_02,6.0,temp_dist_trial,num_items,zn7si1,1.0,response,1_ITEM,1656.4000000476804,1650.099999999991,1656.4000000476804,1656.4000000476804,1650.099999999991,1656.4000000476804,1.0,0.0,0.0,,Click Response,1_count,3.0,object-46,temp_dist_trial,6.0,t_s_09_1,travel_shared,wallet,2.0,competing,single,t_s_09_1.jpg,Travel,,,sub-29
Desktop or Laptop,Windows 10,Chrome 138.0.0.0,1920x1080,1920x953,Temporal Distance Task,cb_02,7.0,temp_dist_trial,num_items,zn7si1,1.0,response,2_ITEM,1756.8000000476895,1750.1000000000058,1756.8000000476895,1756.8000000476895,1750.1000000000058,1756.8000000476895,1.0,0.0,0.0,,Click Response,2_count,5.0,object-49,temp_dist_trial,7.0,t_s_18_1,travel_shared,first aid kit,2.0,competing,paired,t_s_18_1.jpg,Travel,,,sub-29
Desktop or Laptop,Windows 10,Chrome 138.0.0.0,1920x1080,1920x953,Temporal Distance Task,cb_02,7.0,temp_dist_trial,dist_items,qkpkxw,2.0,info,,12.500000047686624,0.0,12.500000047686624,12.500000047686624,0.0,12.500000047686624,1.0,0.0,0.0,,Slider,Slider,4.0,object-56,temp_dist_trial,7.0,t_s_18_1,travel_shared,first aid kit,2.0,competing,paired,t_s_18_1.jpg,Travel,,,sub-29
Desktop or Laptop,Windows 10,Chrome 138.0.0.0,1920x1080,1920x953,Temporal Distance Task,cb_02,7.0,temp_dist_trial,dist_items,qkpkxw,2.0,continue,,2126.0000000476866,2116.6000000000063,2126.0000000476866,2126.0000000476866,2116.6000000000063,2126.0000000476866,1.0,0.0,0.0,,Click To Continue,Next button,7.0,object-60,temp_dist_trial,7.0,t_s_18_1,travel_shared,first aid kit,2.0,competing,paired,t_s_18_1.jpg,Travel,,,sub-29
Desktop or Laptop,Windows 10,Chrome 138.0.0.0,1920x1080,1920x953,Temporal Distance Task,cb_02,7.0,temp_dist_trial,dist_items,qkpkxw,2.0,response,58,1633.3000000000034,2116.6000000000063,2126.300000000003,1633.3000000000034,2116.6000000000063,2126.300000000003,1.0,493.0,0.0,,Slider,Slider,4.0,object-56,temp_dist_trial,7.0,t_s_18_1,travel_shared,first aid kit,2.0,competing,paired,t_s_18_1.jpg,Travel,,,sub-29
Desktop or Laptop,Windows 10,Chrome 138.0.0.0,1920x1080,1920x953,Temporal Distance Task,cb_02,8.0,temp_dist_trial,num_items,zn7si1,1.0,response,1_ITEM,2070.5000000715227,2066.8999999999937,2070.5000000715227,2070.5000000715227,2066.8999999999937,2070.5000000715227,1.0,0.0,0.0,,Click Response,1_count,3.0,object-46,temp_dist_trial,8.0,t_s_16_1,travel_shared,chapstick,2.0,competing,single,t_s_16_1.jpg,Travel,,,sub-29
Desktop or Laptop,Windows 10,Chrome 138.0.0.0,1920x1080,1920x953,Temporal Distance Task,cb_02,9.0,temp_dist_trial,num_items,zn7si1,1.0,response,1_ITEM,1395.7000000715198,1383.3999999999942,1395.7000000715198,1395.7000000715198,1383.3999999999942,1395.7000000715198,1.0,0.0,0.0,,Click Response,1_count,3.0,object-46,temp_dist_trial,9.0,t_m_01_1,travel_Miami,sandals,2.0,unique,paired,t_m_01_1.jpg,Travel,,,sub-29
Desktop or Laptop,Windows 10,Chrome 138.0.0.0,1920x1080,1920x953,Temporal Distance Task,cb_02,10.0,temp_dist_trial,num_items,zn7si1,1.0,response,1_ITEM,1963.000000023836,1950.0999999999915,1963.000000023836,1963.000000023836,1950.0999999999915,1963.000000023836,1.0,0.0,0.0,,Click Response,1_count,3.0,object-46,temp_dist_trial,10.0,t_i_20_1,travel_Iceland,lantern,2.0,unique,paired,t_i_20_1.jpg,Travel,,,sub-29
Desktop or Laptop,Windows 10,Chrome 138.0.0.0,1920x1080,1920x953,Temporal Distance Task,cb_02,11.0,temp_dist_trial,num_items,zn7si1,1.0,response,2_ITEM,1617.8000000000034,1616.6999999999966,1617.8000000000034,1617.8000000000034,1616.6999999999966,1617.8000000000034,1.0,0.0,0.0,,Click Response,2_count,5.0,object-49,temp_dist_trial,11.0,t_s_07_1,travel_shared,phone charger cable,2.0,competing,paired,t_s_07_1.jpg,Travel,,,sub-29
Desktop or Laptop,Windows 10,Chrome 138.0.0.0,1920x1080,1920x953,Temporal Distance Task,cb_02,11.0,temp_dist_trial,dist_items,qkpkxw,2.0,info,,4.900000095367432,0.0,4.900000095367432,4.900000095367432,0.0,4.900000095367432,1.0,0.0,0.0,,Slider,Slider,4.0,object-56,temp_dist_trial,11.0,t_s_07_1,travel_shared,phone charger cable,2.0,competing,paired,t_s_07_1.jpg,Travel,,,sub-29
Desktop or Laptop,Windows 10,Chrome 138.0.0.0,1920x1080,1920x953,Temporal Distance Task,cb_02,11.0,temp_dist_trial,dist_items,qkpkxw,2.0,continue,,2722.200000047684,2716.800000000003,2722.200000047684,2722.200000047684,2716.800000000003,2722.200000047684,1.0,0.0,0.0,,Click To Continue,Next button,7.0,object-60,temp_dist_trial,11.0,t_s_07_1,travel_shared,phone charger cable,2.0,competing,paired,t_s_07_1.jpg,Travel,,,sub-29
Desktop or Laptop,Windows 10,Chrome 138.0.0.0,1920x1080,1920x953,Temporal Distance Task,cb_02,11.0,temp_dist_trial,dist_items,qkpkxw,2.0,response,64,2283.5,2716.800000000003,2722.5,2283.5,2716.800000000003,2722.5,1.0,439.0,0.0,,Slider,Slider,4.0,object-56,temp_dist_trial,11.0,t_s_07_1,travel_shared,phone charger cable,2.0,competing,paired,t_s_07_1.jpg,Travel,,,sub-29
Desktop or Laptop,Windows 10,Chrome 138.0.0.0,1920x1080,1920x953,Temporal Distance Task,cb_02,12.0,temp_dist_trial,num_items,zn7si1,1.0,response,1_ITEM,1785.0000000715231,1783.3999999999942,1785.0000000715231,1785.0000000715231,1783.3999999999942,1785.0000000715231,1.0,0.0,0.0,,Click Response,1_count,3.0,object-46,temp_dist_trial,12.0,t_s_01_1,travel_shared,fanny pack,2.0,competing,paired,t_s_01_1.jpg,Travel,,,sub-29
Desktop or Laptop,Windows 10,Chrome 138.0.0.0,1920x1080,1920x953,Temporal Distance Task,cb_02,13.0,temp_dist_trial,num_items,zn7si1,1.0,response,1_ITEM,2600.0,2583.5,2600.0,2600.0,2583.5,2600.0,1.0,0.0,0.0,,Click Response,1_count,3.0,object-46,temp_dist_trial,13.0,t_m_12_1,travel_Miami,foldable pail and shovel,2.0,unique,paired,t_m_12_1.jpg,Travel,,,sub-29
Desktop or Laptop,Windows 10,Chrome 138.0.0.0,1920x1080,1920x953,Temporal Distance Task,cb_02,14.0,temp_dist_trial,num_items,zn7si1,1.0,response,1_ITEM,1442.2000000238475,1433.400000000009,1442.2000000238475,1442.2000000238475,1433.400000000009,1442.2000000238475,1.0,0.0,0.0,,Click Response,1_count,3.0,object-46,temp_dist_trial,14.0,t_i_14_1,travel_Iceland,snow pants,2.0,unique,single,t_i_14_1.jpg,Travel,,,sub-29
Desktop or Laptop,Windows 10,Chrome 138.0.0.0,1920x1080,1920x953,Temporal Distance Task,cb_02,15.0,temp_dist_trial,num_items,zn7si1,1.0,response,2_ITEM,1151.300000023839,1150.0,1151.300000023839,1151.300000023839,1150.0,1151.300000023839,1.0,0.0,0.0,,Click Response,2_count,5.0,object-49,temp_dist_trial,15.0,t_s_04_1,travel_shared,instant camera,2.0,competing,paired,t_s_04_1.jpg,Travel,,,sub-29
Desktop or Laptop,Windows 10,Chrome 138.0.0.0,1920x1080,1920x953,Temporal Distance Task,cb_02,15.0,temp_dist_trial,dist_items,qkpkxw,2.0,info,,6.800000047689537,0.0,6.800000047689537,6.800000047689537,0.0,6.800000047689537,1.0,0.0,0.0,,Slider,Slider,4.0,object-56,temp_dist_trial,15.0,t_s_04_1,travel_shared,instant camera,2.0,competing,paired,t_s_04_1.jpg,Travel,,,sub-29
Desktop or Laptop,Windows 10,Chrome 138.0.0.0,1920x1080,1920x953,Temporal Distance Task,cb_02,15.0,temp_dist_trial,dist_items,qkpkxw,2.0,continue,,4373.600000000006,4366.900000000009,4373.600000000006,4373.600000000006,4366.900000000009,4373.600000000006,1.0,0.0,0.0,,Click To Continue,Next button,7.0,object-60,temp_dist_trial,15.0,t_s_04_1,travel_shared,instant camera,2.0,competing,paired,t_s_04_1.jpg,Travel,,,sub-29
Desktop or Laptop,Windows 10,Chrome 138.0.0.0,1920x1080,1920x953,Temporal Distance Task,cb_02,15.0,temp_dist_trial,dist_items,qkpkxw,2.0,response,54,2600.1000000000063,4366.900000000009,4374.500000095373,2600.1000000000063,4366.900000000009,4374.500000095373,1.0,1774.4000000953674,0.0,,Slider,Slider,4.0,object-56,temp_dist_trial,15.0,t_s_04_1,travel_shared,instant camera,2.0,competing,paired,t_s_04_1.jpg,Travel,,,sub-29
Desktop or Laptop,Windows 10,Chrome 138.0.0.0,1920x1080,1920x953,Temporal Distance Task,cb_02,16.0,temp_dist_trial,num_items,zn7si1,1.0,response,1_ITEM,1881.8000000238392,1866.8000000000034,1881.8000000238392,1881.8000000238392,1866.8000000000034,1881.8000000238392,1.0,0.0,0.0,,Click Response,1_count,3.0,object-46,temp_dist_trial,16.0,t_i_16_1,travel_Iceland,skis,2.0,unique,single,t_i_16_1.jpg,Travel,,,sub-29
Desktop or Laptop,Windows 10,Chrome 138.0.0.0,1920x1080,1920x953,Temporal Distance Task,cb_02,17.0,temp_dist_trial,num_items,zn7si1,1.0,response,1_ITEM,1589.3999999999942,1583.5,1589.3999999999942,1589.3999999999942,1583.5,1589.3999999999942,1.0,0.0,0.0,,Click Response,1_count,3.0,object-46,temp_dist_trial,17.0,t_m_08_1,travel_Miami,flipflops,2.0,unique,single,t_m_08_1.jpg,Travel,,,sub-29
Desktop or Laptop,Windows 10,Chrome 138.0.0.0,1920x1080,1920x953,Temporal Distance Task,cb_02,18.0,temp_dist_trial,num_items,zn7si1,1.0,response,2_ITEM,1574.7000000476835,1566.8000000000034,1574.7000000476835,1574.7000000476835,1566.8000000000034,1574.7000000476835,1.0,0.0,0.0,,Click Response,2_count,5.0,object-49,temp_dist_trial,18.0,t_i_19_1,travel_Iceland,rope,2.0,unique,paired,t_i_19_1.jpg,Travel,,,sub-29
Desktop or Laptop,Windows 10,Chrome 138.0.0.0,1920x1080,1920x953,Temporal Distance Task,cb_02,18.0,temp_dist_trial,dist_items,qkpkxw,2.0,info,,6.500000071522663,0.0,6.500000071522663,6.500000071522663,0.0,6.500000071522663,1.0,0.0,0.0,,Slider,Slider,4.0,object-56,temp_dist_trial,18.0,t_i_19_1,travel_Iceland,rope,2.0,unique,paired,t_i_19_1.jpg,Travel,,,sub-29
Desktop or Laptop,Windows 10,Chrome 138.0.0.0,1920x1080,1920x953,Temporal Distance Task,cb_02,18.0,temp_dist_trial,dist_items,qkpkxw,2.0,continue,,2864.800000023839,2850.199999999997,2864.800000023839,2864.800000023839,2850.199999999997,2864.800000023839,1.0,0.0,0.0,,Click To Continue,Next button,7.0,object-60,temp_dist_trial,18.0,t_i_19_1,travel_Iceland,rope,2.0,unique,paired,t_i_19_1.jpg,Travel,,,sub-29
Desktop or Laptop,Windows 10,Chrome 138.0.0.0,1920x1080,1920x953,Temporal Distance Task,cb_02,18.0,temp_dist_trial,dist_items,qkpkxw,2.0,response,36,2366.8999999999937,2850.199999999997,2865.6000000953645,2366.8999999999937,2850.199999999997,2865.6000000953645,1.0,498.7000000953704,0.0,,Slider,Slider,4.0,object-56,temp_dist_trial,18.0,t_i_19_1,travel_Iceland,rope,2.0,unique,paired,t_i_19_1.jpg,Travel,,,sub-29
Desktop or Laptop,Windows 10,Chrome 138.0.0.0,1920x1080,1920x953,Temporal Distance Task,cb_02,19.0,temp_dist_trial,num_items,zn7si1,1.0,response,num_miss,3000.199999999997,3000.199999999997,3000.199999999997,3000.199999999997,3000.199999999997,3000.199999999997,1.0,0.0,0.0,num_miss_tag,Time Limit,screen,0.0,screen,temp_dist_trial,19.0,t_i_04_1,travel_Iceland,portable camping stove,2.0,unique,single,t_i_04_1.jpg,Travel,,,sub-29
Desktop or Laptop,Windows 10,Chrome 138.0.0.0,1920x1080,1920x953,Temporal Distance Task,cb_02,20.0,temp_dist_trial,num_items,zn7si1,1.0,response,2_ITEM,1638.5000000476864,1633.3000000000034,1638.5000000476864,1638.5000000476864,1633.3000000000034,1638.5000000476864,1.0,0.0,0.0,,Click Response,2_count,5.0,object-49,temp_dist_trial,20.0,t_s_06_1,travel_shared,luggage,2.0,competing,single,t_s_06_1.jpg,Travel,,,sub-29
Desktop or Laptop,Windows 10,Chrome 138.0.0.0,1920x1080,1920x953,Temporal Distance Task,cb_02,20.0,temp_dist_trial,dist_items,qkpkxw,2.0,info,,12.100000047677893,0.0,12.100000047677893,12.100000047677893,0.0,12.100000047677893,1.0,0.0,0.0,,Slider,Slider,4.0,object-56,temp_dist_trial,20.0,t_s_06_1,travel_shared,luggage,2.0,competing,single,t_s_06_1.jpg,Travel,,,sub-29
Desktop or Laptop,Windows 10,Chrome 138.0.0.0,1920x1080,1920x953,Temporal Distance Task,cb_02,20.0,temp_dist_trial,dist_items,qkpkxw,2.0,continue,,1697.8000000953616,1683.3999999999942,1697.8000000953616,1697.8000000953616,1683.3999999999942,1697.8000000953616,1.0,0.0,0.0,,Click To Continue,Next button,7.0,object-60,temp_dist_trial,20.0,t_s_06_1,travel_shared,luggage,2.0,competing,single,t_s_06_1.jpg,Travel,,,sub-29
Desktop or Laptop,Windows 10,Chrome 138.0.0.0,1920x1080,1920x953,Temporal Distance Task,cb_02,20.0,temp_dist_trial,dist_items,qkpkxw,2.0,response,79,966.5999999999913,1683.3999999999942,1698.8999999999942,966.5999999999913,1683.3999999999942,1698.8999999999942,1.0,732.3000000000029,0.0,,Slider,Slider,4.0,object-56,temp_dist_trial,20.0,t_s_06_1,travel_shared,luggage,2.0,competing,single,t_s_06_1.jpg,Travel,,,sub-29
Desktop or Laptop,Windows 10,Chrome 138.0.0.0,1920x1080,1920x953,Temporal Distance Task,cb_02,21.0,temp_dist_trial,num_items,zn7si1,1.0,response,2_ITEM,1010.100000023842,1000.0,1010.100000023842,1010.100000023842,1000.0,1010.100000023842,1.0,0.0,0.0,,Click Response,2_count,5.0,object-49,temp_dist_trial,21.0,t_s_17_1,travel_shared,toothbrush,2.0,competing,paired,t_s_17_1.jpg,Travel,,,sub-29
Desktop or Laptop,Windows 10,Chrome 138.0.0.0,1920x1080,1920x953,Temporal Distance Task,cb_02,21.0,temp_dist_trial,dist_items,qkpkxw,2.0,info,,8.000000023836037,0.0,8.000000023836037,8.000000023836037,0.0,8.000000023836037,1.0,0.0,0.0,,Slider,Slider,4.0,object-56,temp_dist_trial,21.0,t_s_17_1,travel_shared,toothbrush,2.0,competing,paired,t_s_17_1.jpg,Travel,,,sub-29
Desktop or Laptop,Windows 10,Chrome 138.0.0.0,1920x1080,1920x953,Temporal Distance Task,cb_02,21.0,temp_dist_trial,dist_items,qkpkxw,2.0,continue,,1190.7000000715198,1183.2999999999886,1190.7000000715198,1190.7000000715198,1183.2999999999886,1190.7000000715198,1.0,0.0,0.0,,Click To Continue,Next button,7.0,object-60,temp_dist_trial,21.0,t_s_17_1,travel_shared,toothbrush,2.0,competing,paired,t_s_17_1.jpg,Travel,,,sub-29
Desktop or Laptop,Windows 10,Chrome 138.0.0.0,1920x1080,1920x953,Temporal Distance Task,cb_02,21.0,temp_dist_trial,dist_items,qkpkxw,2.0,response,35,683.2999999999884,1183.2999999999886,1191.3999999999942,683.2999999999884,1183.2999999999886,1191.3999999999942,1.0,508.1000000000058,0.0,,Slider,Slider,4.0,object-56,temp_dist_trial,21.0,t_s_17_1,travel_shared,toothbrush,2.0,competing,paired,t_s_17_1.jpg,Travel,,,sub-29
Desktop or Laptop,Windows 10,Chrome 138.0.0.0,1920x1080,1920x953,Temporal Distance Task,cb_02,22.0,temp_dist_trial,num_items,zn7si1,1.0,response,2_ITEM,1109.0000000953733,1100.1000000000058,1109.0000000953733,1109.0000000953733,1100.1000000000058,1109.0000000953733,1.0,0.0,0.0,,Click Response,2_count,5.0,object-49,temp_dist_trial,22.0,t_i_09_1,travel_Iceland,ear muffs,2.0,unique,paired,t_i_09_1.jpg,Travel,,,sub-29
Desktop or Laptop,Windows 10,Chrome 138.0.0.0,1920x1080,1920x953,Temporal Distance Task,cb_02,22.0,temp_dist_trial,dist_items,qkpkxw,2.0,info,,5.1000000000058225,0.0,5.1000000000058225,5.1000000000058225,0.0,5.1000000000058225,1.0,0.0,0.0,,Slider,Slider,4.0,object-56,temp_dist_trial,22.0,t_i_09_1,travel_Iceland,ear muffs,2.0,unique,paired,t_i_09_1.jpg,Travel,,,sub-29
Desktop or Laptop,Windows 10,Chrome 138.0.0.0,1920x1080,1920x953,Temporal Distance Task,cb_02,22.0,temp_dist_trial,dist_items,qkpkxw,2.0,continue,,1527.4000000715314,1516.900000000009,1527.4000000715314,1527.4000000715314,1516.900000000009,1527.4000000715314,1.0,0.0,0.0,,Click To Continue,Next button,7.0,object-60,temp_dist_trial,22.0,t_i_09_1,travel_Iceland,ear muffs,2.0,unique,paired,t_i_09_1.jpg,Travel,,,sub-29
Desktop or Laptop,Windows 10,Chrome 138.0.0.0,1920x1080,1920x953,Temporal Distance Task,cb_02,22.0,temp_dist_trial,dist_items,qkpkxw,2.0,response,28,633.5,1516.900000000009,1528.4000000715314,633.5,1516.900000000009,1528.4000000715314,1.0,894.9000000715314,0.0,,Slider,Slider,4.0,object-56,temp_dist_trial,22.0,t_i_09_1,travel_Iceland,ear muffs,2.0,unique,paired,t_i_09_1.jpg,Travel,,,sub-29
Desktop or Laptop,Windows 10,Chrome 138.0.0.0,1920x1080,1920x953,Temporal Distance Task,cb_02,23.0,temp_dist_trial,num_items,zn7si1,1.0,response,2_ITEM,1295.5000000715227,1283.3000000000031,1295.5000000715227,1295.5000000715227,1283.3000000000031,1295.5000000715227,1.0,0.0,0.0,,Click Response,2_count,5.0,object-49,temp_dist_trial,23.0,t_m_17_1,travel_Miami,water gun,2.0,unique,paired,t_m_17_1.jpg,Travel,,,sub-29
Desktop or Laptop,Windows 10,Chrome 138.0.0.0,1920x1080,1920x953,Temporal Distance Task,cb_02,23.0,temp_dist_trial,dist_items,qkpkxw,2.0,info,,4.8999999999941775,0.0,4.8999999999941775,4.8999999999941775,0.0,4.8999999999941775,1.0,0.0,0.0,,Slider,Slider,4.0,object-56,temp_dist_trial,23.0,t_m_17_1,travel_Miami,water gun,2.0,unique,paired,t_m_17_1.jpg,Travel,,,sub-29
Desktop or Laptop,Windows 10,Chrome 138.0.0.0,1920x1080,1920x953,Temporal Distance Task,cb_02,23.0,temp_dist_trial,dist_items,qkpkxw,2.0,continue,,1738.8000000953616,1733.5,1738.8000000953616,1738.8000000953616,1733.5,1738.8000000953616,1.0,0.0,0.0,,Click To Continue,Next button,7.0,object-60,temp_dist_trial,23.0,t_m_17_1,travel_Miami,water gun,2.0,unique,paired,t_m_17_1.jpg,Travel,,,sub-29
Desktop or Laptop,Windows 10,Chrome 138.0.0.0,1920x1080,1920x953,Temporal Distance Task,cb_02,23.0,temp_dist_trial,dist_items,qkpkxw,2.0,response,58,983.5999999999913,1733.5,1739.2000000715198,983.5999999999913,1733.5,1739.2000000715198,1.0,755.6000000715285,0.0,,Slider,Slider,4.0,object-56,temp_dist_trial,23.0,t_m_17_1,travel_Miami,water gun,2.0,unique,paired,t_m_17_1.jpg,Travel,,,sub-29
Desktop or Laptop,Windows 10,Chrome 138.0.0.0,1920x1080,1920x953,Temporal Distance Task,cb_02,24.0,temp_dist_trial,num_items,zn7si1,1.0,response,2_ITEM,979.2000000715198,966.7999999999884,979.2000000715198,979.2000000715198,966.7999999999884,979.2000000715198,1.0,0.0,0.0,,Click Response,2_count,5.0,object-49,temp_dist_trial,24.0,t_s_23_1,travel_shared,ball cap,2.0,competing,paired,t_s_23_1.jpg,Travel,,,sub-29
Desktop or Laptop,Windows 10,Chrome 138.0.0.0,1920x1080,1920x953,Temporal Distance Task,cb_02,24.0,temp_dist_trial,dist_items,qkpkxw,2.0,info,,4.6000000000058225,0.0,4.6000000000058225,4.6000000000058225,0.0,4.6000000000058225,1.0,0.0,0.0,,Slider,Slider,4.0,object-56,temp_dist_trial,24.0,t_s_23_1,travel_shared,ball cap,2.0,competing,paired,t_s_23_1.jpg,Travel,,,sub-29
Desktop or Laptop,Windows 10,Chrome 138.0.0.0,1920x1080,1920x953,Temporal Distance Task,cb_02,24.0,temp_dist_trial,dist_items,qkpkxw,2.0,continue,,2785.300000047689,2783.5,2785.300000047689,2785.300000047689,2783.5,2785.300000047689,1.0,0.0,0.0,,Click To Continue,Next button,7.0,object-60,temp_dist_trial,24.0,t_s_23_1,travel_shared,ball cap,2.0,competing,paired,t_s_23_1.jpg,Travel,,,sub-29
Desktop or Laptop,Windows 10,Chrome 138.0.0.0,1920x1080,1920x953,Temporal Distance Task,cb_02,24.0,temp_dist_trial,dist_items,qkpkxw,2.0,response,68,2216.700000000012,2783.5,2800.0999999999913,2216.700000000012,2783.5,2800.0999999999913,1.0,583.3999999999796,0.0,,Slider,Slider,4.0,object-56,temp_dist_trial,24.0,t_s_23_1,travel_shared,ball cap,2.0,competing,paired,t_s_23_1.jpg,Travel,,,sub-29
Desktop or Laptop,Windows 10,Chrome 138.0.0.0,1920x1080,1920x953,Temporal Distance Task,cb_02,25.0,temp_dist_trial,num_items,zn7si1,1.0,response,1_ITEM,1247.5000000953733,1233.3000000000031,1247.5000000953733,1247.5000000953733,1233.3000000000031,1247.5000000953733,1.0,0.0,0.0,,Click Response,1_count,3.0,object-46,temp_dist_trial,25.0,t_m_02_1,travel_Miami,t-shirt,2.0,unique,paired,t_m_02_1.jpg,Travel,,,sub-29
Desktop or Laptop,Windows 10,Chrome 138.0.0.0,1920x1080,1920x953,Temporal Distance Task,cb_02,26.0,temp_dist_trial,num_items,zn7si1,1.0,response,2_ITEM,1924.1999999999966,1916.8000000000034,1924.1999999999966,1924.1999999999966,1916.8000000000034,1924.1999999999966,1.0,0.0,0.0,,Click Response,2_count,5.0,object-49,temp_dist_trial,26.0,t_m_06_1,travel_Miami,handheld fan,2.0,unique,single,t_m_06_1.jpg,Travel,,,sub-29
Desktop or Laptop,Windows 10,Chrome 138.0.0.0,1920x1080,1920x953,Temporal Distance Task,cb_02,26.0,temp_dist_trial,dist_items,qkpkxw,2.0,info,,7.600000071528482,0.0,7.600000071528482,7.600000071528482,0.0,7.600000071528482,1.0,0.0,0.0,,Slider,Slider,4.0,object-56,temp_dist_trial,26.0,t_m_06_1,travel_Miami,handheld fan,2.0,unique,single,t_m_06_1.jpg,Travel,,,sub-29
Desktop or Laptop,Windows 10,Chrome 138.0.0.0,1920x1080,1920x953,Temporal Distance Task,cb_02,26.0,temp_dist_trial,dist_items,qkpkxw,2.0,continue,,1945.4000000238445,1933.5,1945.4000000238445,1945.4000000238445,1933.5,1945.4000000238445,1.0,0.0,0.0,,Click To Continue,Next button,7.0,object-60,temp_dist_trial,26.0,t_m_06_1,travel_Miami,handheld fan,2.0,unique,single,t_m_06_1.jpg,Travel,,,sub-29
Desktop or Laptop,Windows 10,Chrome 138.0.0.0,1920x1080,1920x953,Temporal Distance Task,cb_02,26.0,temp_dist_trial,dist_items,qkpkxw,2.0,response,76,983.3000000000028,1933.5,1946.2000000953706,983.3000000000028,1933.5,1946.2000000953706,1.0,962.9000000953674,0.0,,Slider,Slider,4.0,object-56,temp_dist_trial,26.0,t_m_06_1,travel_Miami,handheld fan,2.0,unique,single,t_m_06_1.jpg,Travel,,,sub-29
Desktop or Laptop,Windows 10,Chrome 138.0.0.0,1920x1080,1920x953,Temporal Distance Task,cb_02,27.0,temp_dist_trial,num_items,zn7si1,1.0,response,2_ITEM,1310.1000000715285,1299.9000000000087,1310.1000000715285,1310.1000000715285,1299.9000000000087,1310.1000000715285,1.0,0.0,0.0,,Click Response,2_count,5.0,object-49,temp_dist_trial,27.0,t_s_13_1,travel_shared,contact lens case,2.0,competing,paired,t_s_13_1.jpg,Travel,,,sub-29
Desktop or Laptop,Windows 10,Chrome 138.0.0.0,1920x1080,1920x953,Temporal Distance Task,cb_02,27.0,temp_dist_trial,dist_items,qkpkxw,2.0,info,,5.100000047677893,0.0,5.100000047677893,5.100000047677893,0.0,5.100000047677893,1.0,0.0,0.0,,Slider,Slider,4.0,object-56,temp_dist_trial,27.0,t_s_13_1,travel_shared,contact lens case,2.0,competing,paired,t_s_13_1.jpg,Travel,,,sub-29
Desktop or Laptop,Windows 10,Chrome 138.0.0.0,1920x1080,1920x953,Temporal Distance Task,cb_02,27.0,temp_dist_trial,dist_items,qkpkxw,2.0,continue,,1901.8000000953616,1900.1000000000056,1901.8000000953616,1901.8000000953616,1900.1000000000056,1901.8000000953616,1.0,0.0,0.0,,Click To Continue,Next button,7.0,object-60,temp_dist_trial,27.0,t_s_13_1,travel_shared,contact lens case,2.0,competing,paired,t_s_13_1.jpg,Travel,,,sub-29
Desktop or Laptop,Windows 10,Chrome 138.0.0.0,1920x1080,1920x953,Temporal Distance Task,cb_02,27.0,temp_dist_trial,dist_items,qkpkxw,2.0,response,40,1183.6000000000058,1900.1000000000056,1902.7000000715198,1183.6000000000058,1900.1000000000056,1902.7000000715198,1.0,719.1000000715138,0.0,,Slider,Slider,4.0,object-56,temp_dist_trial,27.0,t_s_13_1,travel_shared,contact lens case,2.0,competing,paired,t_s_13_1.jpg,Travel,,,sub-29
Desktop or Laptop,Windows 10,Chrome 138.0.0.0,1920x1080,1920x953,Temporal Distance Task,cb_02,28.0,temp_dist_trial,num_items,zn7si1,1.0,response,2_ITEM,1541.100000071514,1533.5999999999767,1541.100000071514,1541.100000071514,1533.5999999999767,1541.100000071514,1.0,0.0,0.0,,Click Response,2_count,5.0,object-49,temp_dist_trial,28.0,t_s_03_1,travel_shared,portable charger,2.0,competing,single,t_s_03_1.jpg,Travel,,,sub-29
Desktop or Laptop,Windows 10,Chrome 138.0.0.0,1920x1080,1920x953,Temporal Distance Task,cb_02,28.0,temp_dist_trial,dist_items,qkpkxw,2.0,info,,4.100000071513931,0.0,4.100000071513931,4.100000071513931,0.0,4.100000071513931,1.0,0.0,0.0,,Slider,Slider,4.0,object-56,temp_dist_trial,28.0,t_s_03_1,travel_shared,portable charger,2.0,competing,single,t_s_03_1.jpg,Travel,,,sub-29
Desktop or Laptop,Windows 10,Chrome 138.0.0.0,1920x1080,1920x953,Temporal Distance Task,cb_02,28.0,temp_dist_trial,dist_items,qkpkxw,2.0,continue,,1796.100000071514,1783.3999999999942,1796.100000071514,1796.100000071514,1783.3999999999942,1796.100000071514,1.0,0.0,0.0,,Click To Continue,Next button,7.0,object-60,temp_dist_trial,28.0,t_s_03_1,travel_shared,portable charger,2.0,competing,single,t_s_03_1.jpg,Travel,,,sub-29
Desktop or Laptop,Windows 10,Chrome 138.0.0.0,1920x1080,1920x953,Temporal Distance Task,cb_02,28.0,temp_dist_trial,dist_items,qkpkxw,2.0,response,69,1050.0999999999767,1783.3999999999942,1796.2999999999884,1050.0999999999767,1783.3999999999942,1796.2999999999884,1.0,746.2000000000116,0.0,,Slider,Slider,4.0,object-56,temp_dist_trial,28.0,t_s_03_1,travel_shared,portable charger,2.0,competing,single,t_s_03_1.jpg,Travel,,,sub-29
Desktop or Laptop,Windows 10,Chrome 138.0.0.0,1920x1080,1920x953,Temporal Distance Task,cb_02,29.0,temp_dist_trial,num_items,zn7si1,1.0,response,2_ITEM,1801.100000047678,1800.1000000000058,1801.100000047678,1801.100000047678,1800.1000000000058,1801.100000047678,1.0,0.0,0.0,,Click Response,2_count,5.0,object-49,temp_dist_trial,29.0,t_s_24_1,travel_shared,ear plugs,2.0,competing,paired,t_s_24_1.jpg,Travel,,,sub-29
Desktop or Laptop,Windows 10,Chrome 138.0.0.0,1920x1080,1920x953,Temporal Distance Task,cb_02,29.0,temp_dist_trial,dist_items,qkpkxw,2.0,info,,5.8000000238534986,0.0,5.8000000238534986,5.8000000238534986,0.0,5.8000000238534986,1.0,0.0,0.0,,Slider,Slider,4.0,object-56,temp_dist_trial,29.0,t_s_24_1,travel_shared,ear plugs,2.0,competing,paired,t_s_24_1.jpg,Travel,,,sub-29
Desktop or Laptop,Windows 10,Chrome 138.0.0.0,1920x1080,1920x953,Temporal Distance Task,cb_02,29.0,temp_dist_trial,dist_items,qkpkxw,2.0,continue,,1088.8000000238535,1083.5,1088.8000000238535,1088.8000000238535,1083.5,1088.8000000238535,1.0,0.0,0.0,,Click To Continue,Next button,7.0,object-60,temp_dist_trial,29.0,t_s_24_1,travel_shared,ear plugs,2.0,competing,paired,t_s_24_1.jpg,Travel,,,sub-29
Desktop or Laptop,Windows 10,Chrome 138.0.0.0,1920x1080,1920x953,Temporal Distance Task,cb_02,29.0,temp_dist_trial,dist_items,qkpkxw,2.0,response,18,400.0,1083.5,1089.2000000000116,400.0,1083.5,1089.2000000000116,1.0,689.2000000000116,0.0,,Slider,Slider,4.0,object-56,temp_dist_trial,29.0,t_s_24_1,travel_shared,ear plugs,2.0,competing,paired,t_s_24_1.jpg,Travel,,,sub-29
Desktop or Laptop,Windows 10,Chrome 138.0.0.0,1920x1080,1920x953,Temporal Distance Task,cb_02,30.0,temp_dist_trial,num_items,zn7si1,1.0,response,2_ITEM,1656.3000000238535,1650.0,1656.3000000238535,1656.3000000238535,1650.0,1656.3000000238535,1.0,0.0,0.0,,Click Response,2_count,5.0,object-49,temp_dist_trial,30.0,t_m_19_1,travel_Miami,surfboard,2.0,unique,paired,t_m_19_1.jpg,Travel,,,sub-29
Desktop or Laptop,Windows 10,Chrome 138.0.0.0,1920x1080,1920x953,Temporal Distance Task,cb_02,30.0,temp_dist_trial,dist_items,qkpkxw,2.0,info,,3.5000000953732524,0.0,3.5000000953732524,3.5000000953732524,0.0,3.5000000953732524,1.0,0.0,0.0,,Slider,Slider,4.0,object-56,temp_dist_trial,30.0,t_m_19_1,travel_Miami,surfboard,2.0,unique,paired,t_m_19_1.jpg,Travel,,,sub-29
Desktop or Laptop,Windows 10,Chrome 138.0.0.0,1920x1080,1920x953,Temporal Distance Task,cb_02,30.0,temp_dist_trial,dist_items,qkpkxw,2.0,continue,,1443.4000000715314,1433.3999999999942,1443.4000000715314,1443.4000000715314,1433.3999999999942,1443.4000000715314,1.0,0.0,0.0,,Click To Continue,Next button,7.0,object-60,temp_dist_trial,30.0,t_m_19_1,travel_Miami,surfboard,2.0,unique,paired,t_m_19_1.jpg,Travel,,,sub-29
Desktop or Laptop,Windows 10,Chrome 138.0.0.0,1920x1080,1920x953,Temporal Distance Task,cb_02,30.0,temp_dist_trial,dist_items,qkpkxw,2.0,response,69,533.3000000000175,1433.3999999999942,1443.8000000476895,533.3000000000175,1433.3999999999942,1443.8000000476895,1.0,910.500000047672,0.0,,Slider,Slider,4.0,object-56,temp_dist_trial,30.0,t_m_19_1,travel_Miami,surfboard,2.0,unique,paired,t_m_19_1.jpg,Travel,,,sub-29
Desktop or Laptop,Windows 10,Chrome 138.0.0.0,1920x1080,1920x953,Temporal Distance Task,cb_02,31.0,temp_dist_trial,num_items,zn7si1,1.0,response,2_ITEM,1163.7000000000114,1150.0,1163.7000000000114,1163.7000000000114,1150.0,1163.7000000000114,1.0,0.0,0.0,,Click Response,2_count,5.0,object-49,temp_dist_trial,31.0,t_s_15_1,travel_shared,luggage tag,2.0,competing,paired,t_s_15_1.jpg,Travel,,,sub-29
Desktop or Laptop,Windows 10,Chrome 138.0.0.0,1920x1080,1920x953,Temporal Distance Task,cb_02,31.0,temp_dist_trial,dist_items,qkpkxw,2.0,info,,3.2000000238476787,0.0,3.2000000238476787,3.2000000238476787,0.0,3.2000000238476787,1.0,0.0,0.0,,Slider,Slider,4.0,object-56,temp_dist_trial,31.0,t_s_15_1,travel_shared,luggage tag,2.0,competing,paired,t_s_15_1.jpg,Travel,,,sub-29
Desktop or Laptop,Windows 10,Chrome 138.0.0.0,1920x1080,1920x953,Temporal Distance Task,cb_02,31.0,temp_dist_trial,dist_items,qkpkxw,2.0,continue,,1318.9000000715316,1316.7000000000114,1318.9000000715316,1318.9000000715316,1316.7000000000114,1318.9000000715316,1.0,0.0,0.0,,Click To Continue,Next button,7.0,object-60,temp_dist_trial,31.0,t_s_15_1,travel_shared,luggage tag,2.0,competing,paired,t_s_15_1.jpg,Travel,,,sub-29
Desktop or Laptop,Windows 10,Chrome 138.0.0.0,1920x1080,1920x953,Temporal Distance Task,cb_02,31.0,temp_dist_trial,dist_items,qkpkxw,2.0,response,58,600.1000000000057,1316.7000000000114,1333.4000000000233,600.1000000000057,1316.7000000000114,1333.4000000000233,1.0,733.3000000000177,0.0,,Slider,Slider,4.0,object-56,temp_dist_trial,31.0,t_s_15_1,travel_shared,luggage tag,2.0,competing,paired,t_s_15_1.jpg,Travel,,,sub-29
Desktop or Laptop,Windows 10,Chrome 138.0.0.0,1920x1080,1920x953,Temporal Distance Task,cb_02,32.0,temp_dist_trial,num_items,zn7si1,1.0,response,1_ITEM,1837.3999999999944,1833.3999999999944,1837.3999999999944,1837.3999999999944,1833.3999999999944,1837.3999999999944,1.0,0.0,0.0,,Click Response,1_count,3.0,object-46,temp_dist_trial,32.0,t_i_18_1,travel_Iceland,ski mask,2.0,unique,single,t_i_18_1.jpg,Travel,,,sub-29
Desktop or Laptop,Windows 10,Chrome 138.0.0.0,1920x1080,1920x953,Temporal Distance Task,cb_02,33.0,temp_dist_trial,num_items,zn7si1,1.0,response,2_ITEM,906.1000000476781,900.0,906.1000000476781,906.1000000476781,900.0,906.1000000476781,1.0,0.0,0.0,,Click Response,2_count,5.0,object-49,temp_dist_trial,33.0,t_s_05_1,travel_shared,neck pillow,2.0,competing,paired,t_s_05_1.jpg,Travel,,,sub-29
Desktop or Laptop,Windows 10,Chrome 138.0.0.0,1920x1080,1920x953,Temporal Distance Task,cb_02,33.0,temp_dist_trial,dist_items,qkpkxw,2.0,info,,4.200000047683717,0.0,4.200000047683717,4.200000047683717,0.0,4.200000047683717,1.0,0.0,0.0,,Slider,Slider,4.0,object-56,temp_dist_trial,33.0,t_s_05_1,travel_shared,neck pillow,2.0,competing,paired,t_s_05_1.jpg,Travel,,,sub-29
Desktop or Laptop,Windows 10,Chrome 138.0.0.0,1920x1080,1920x953,Temporal Distance Task,cb_02,33.0,temp_dist_trial,dist_items,qkpkxw,2.0,continue,,1526.0,1516.8999999999942,1526.0,1526.0,1516.8999999999942,1526.0,1.0,0.0,0.0,,Click To Continue,Next button,7.0,object-60,temp_dist_trial,33.0,t_s_05_1,travel_shared,neck pillow,2.0,competing,paired,t_s_05_1.jpg,Travel,,,sub-29
Desktop or Laptop,Windows 10,Chrome 138.0.0.0,1920x1080,1920x953,Temporal Distance Task,cb_02,33.0,temp_dist_trial,dist_items,qkpkxw,2.0,response,35,516.8999999999942,1516.8999999999942,1527.1000000238419,516.8999999999942,1516.8999999999942,1527.1000000238419,1.0,1010.2000000238477,0.0,,Slider,Slider,4.0,object-56,temp_dist_trial,33.0,t_s_05_1,travel_shared,neck pillow,2.0,competing,paired,t_s_05_1.jpg,Travel,,,sub-29
Desktop or Laptop,Windows 10,Chrome 138.0.0.0,1920x1080,1920x953,Temporal Distance Task,cb_02,34.0,temp_dist_trial,num_items,zn7si1,1.0,response,2_ITEM,1384.8000000476895,1383.3000000000175,1384.8000000476895,1384.8000000476895,1383.3000000000175,1384.8000000476895,1.0,0.0,0.0,,Click Response,2_count,5.0,object-49,temp_dist_trial,34.0,t_s_20_1,travel_shared,travel pill case,2.0,competing,paired,t_s_20_1.jpg,Travel,,,sub-29
Desktop or Laptop,Windows 10,Chrome 138.0.0.0,1920x1080,1920x953,Temporal Distance Task,cb_02,34.0,temp_dist_trial,dist_items,qkpkxw,2.0,info,,3.7000000000116415,0.0,3.7000000000116415,3.7000000000116415,0.0,3.7000000000116415,1.0,0.0,0.0,,Slider,Slider,4.0,object-56,temp_dist_trial,34.0,t_s_20_1,travel_shared,travel pill case,2.0,competing,paired,t_s_20_1.jpg,Travel,,,sub-29
Desktop or Laptop,Windows 10,Chrome 138.0.0.0,1920x1080,1920x953,Temporal Distance Task,cb_02,34.0,temp_dist_trial,dist_items,qkpkxw,2.0,continue,,3029.700000000012,3017.0,3029.700000000012,3029.700000000012,3017.0,3029.700000000012,1.0,0.0,0.0,,Click To Continue,Next button,7.0,object-60,temp_dist_trial,34.0,t_s_20_1,travel_shared,travel pill case,2.0,competing,paired,t_s_20_1.jpg,Travel,,,sub-29
Desktop or Laptop,Windows 10,Chrome 138.0.0.0,1920x1080,1920x953,Temporal Distance Task,cb_02,34.0,temp_dist_trial,dist_items,qkpkxw,2.0,response,76,1033.5,3017.0,3031.4000000476954,1033.5,3017.0,3031.4000000476954,1.0,1997.9000000476958,0.0,,Slider,Slider,4.0,object-56,temp_dist_trial,34.0,t_s_20_1,travel_shared,travel pill case,2.0,competing,paired,t_s_20_1.jpg,Travel,,,sub-29
Desktop or Laptop,Windows 10,Chrome 138.0.0.0,1920x1080,1920x953,Temporal Distance Task,cb_02,35.0,temp_dist_trial,num_items,zn7si1,1.0,response,2_ITEM,1134.100000095379,1133.2000000000114,1134.100000095379,1134.100000095379,1133.2000000000114,1134.100000095379,1.0,0.0,0.0,,Click Response,2_count,5.0,object-49,temp_dist_trial,35.0,t_i_10_1,travel_Iceland,trekking poles,2.0,unique,paired,t_i_10_1.jpg,Travel,,,sub-29
Desktop or Laptop,Windows 10,Chrome 138.0.0.0,1920x1080,1920x953,Temporal Distance Task,cb_02,35.0,temp_dist_trial,dist_items,qkpkxw,2.0,info,,3.8000000953616113,0.0,3.8000000953616113,3.8000000953616113,0.0,3.8000000953616113,1.0,0.0,0.0,,Slider,Slider,4.0,object-56,temp_dist_trial,35.0,t_i_10_1,travel_Iceland,trekking poles,2.0,unique,paired,t_i_10_1.jpg,Travel,,,sub-29
Desktop or Laptop,Windows 10,Chrome 138.0.0.0,1920x1080,1920x953,Temporal Distance Task,cb_02,35.0,temp_dist_trial,dist_items,qkpkxw,2.0,continue,,1371.7000000715198,1366.7999999999886,1371.7000000715198,1371.7000000715198,1366.7999999999886,1371.7000000715198,1.0,0.0,0.0,,Click To Continue,Next button,7.0,object-60,temp_dist_trial,35.0,t_i_10_1,travel_Iceland,trekking poles,2.0,unique,paired,t_i_10_1.jpg,Travel,,,sub-29
Desktop or Laptop,Windows 10,Chrome 138.0.0.0,1920x1080,1920x953,Temporal Distance Task,cb_02,35.0,temp_dist_trial,dist_items,qkpkxw,2.0,response,37,900.0,1366.7999999999886,1372.2000000715198,900.0,1366.7999999999886,1372.2000000715198,1.0,472.20000007151975,0.0,,Slider,Slider,4.0,object-56,temp_dist_trial,35.0,t_i_10_1,travel_Iceland,trekking poles,2.0,unique,paired,t_i_10_1.jpg,Travel,,,sub-29
Desktop or Laptop,Windows 10,Chrome 138.0.0.0,1920x1080,1920x953,Temporal Distance Task,cb_02,36.0,temp_dist_trial,num_items,zn7si1,1.0,response,2_ITEM,1467.4000000715314,1466.7000000000116,1467.4000000715314,1467.4000000715314,1466.7000000000116,1467.4000000715314,1.0,0.0,0.0,,Click Response,2_count,5.0,object-49,temp_dist_trial,36.0,t_s_08_1,travel_shared,hand lotion,2.0,competing,paired,t_s_08_1.jpg,Travel,,,sub-29
Desktop or Laptop,Windows 10,Chrome 138.0.0.0,1920x1080,1920x953,Temporal Distance Task,cb_02,36.0,temp_dist_trial,dist_items,qkpkxw,2.0,info,,7.2000000000116415,0.0,7.2000000000116415,7.2000000000116415,0.0,7.2000000000116415,1.0,0.0,0.0,,Slider,Slider,4.0,object-56,temp_dist_trial,36.0,t_s_08_1,travel_shared,hand lotion,2.0,competing,paired,t_s_08_1.jpg,Travel,,,sub-29
Desktop or Laptop,Windows 10,Chrome 138.0.0.0,1920x1080,1920x953,Temporal Distance Task,cb_02,36.0,temp_dist_trial,dist_items,qkpkxw,2.0,continue,,1495.5000000715372,1483.3000000000175,1495.5000000715372,1495.5000000715372,1483.3000000000175,1495.5000000715372,1.0,0.0,0.0,,Click To Continue,Next button,7.0,object-60,temp_dist_trial,36.0,t_s_08_1,travel_shared,hand lotion,2.0,competing,paired,t_s_08_1.jpg,Travel,,,sub-29
Desktop or Laptop,Windows 10,Chrome 138.0.0.0,1920x1080,1920x953,Temporal Distance Task,cb_02,36.0,temp_dist_trial,dist_items,qkpkxw,2.0,response,65,883.2000000000116,1483.3000000000175,1496.100000095379,883.2000000000116,1483.3000000000175,1496.100000095379,1.0,612.9000000953673,0.0,,Slider,Slider,4.0,object-56,temp_dist_trial,36.0,t_s_08_1,travel_shared,hand lotion,2.0,competing,paired,t_s_08_1.jpg,Travel,,,sub-29
Desktop or Laptop,Windows 10,Chrome 138.0.0.0,1920x1080,1920x953,Temporal Distance Task,cb_02,37.0,temp_dist_trial,num_items,zn7si1,1.0,response,1_ITEM,1142.8000000953614,1133.3999999999942,1142.8000000953614,1142.8000000953614,1133.3999999999942,1142.8000000953614,1.0,0.0,0.0,,Click Response,1_count,3.0,object-46,temp_dist_trial,37.0,t_m_03_1,travel_Miami,wetsuit,2.0,unique,single,t_m_03_1.jpg,Travel,,,sub-29
Desktop or Laptop,Windows 10,Chrome 138.0.0.0,1920x1080,1920x953,Temporal Distance Task,cb_02,38.0,temp_dist_trial,num_items,zn7si1,1.0,response,2_ITEM,963.2000000238477,950.1000000000058,963.2000000238477,963.2000000238477,950.1000000000058,963.2000000238477,1.0,0.0,0.0,,Click Response,2_count,5.0,object-49,temp_dist_trial,38.0,t_s_22_1,travel_shared,belt,2.0,competing,paired,t_s_22_1.jpg,Travel,,,sub-29
Desktop or Laptop,Windows 10,Chrome 138.0.0.0,1920x1080,1920x953,Temporal Distance Task,cb_02,38.0,temp_dist_trial,dist_items,qkpkxw,2.0,info,,5.300000071525575,0.0,5.300000071525575,5.300000071525575,0.0,5.300000071525575,1.0,0.0,0.0,,Slider,Slider,4.0,object-56,temp_dist_trial,38.0,t_s_22_1,travel_shared,belt,2.0,competing,paired,t_s_22_1.jpg,Travel,,,sub-29
Desktop or Laptop,Windows 10,Chrome 138.0.0.0,1920x1080,1920x953,Temporal Distance Task,cb_02,38.0,temp_dist_trial,dist_items,qkpkxw,2.0,continue,,2716.200000047684,2700.2999999999884,2716.200000047684,2716.200000047684,2700.2999999999884,2716.200000047684,1.0,0.0,0.0,,Click To Continue,Next button,7.0,object-60,temp_dist_trial,38.0,t_s_22_1,travel_shared,belt,2.0,competing,paired,t_s_22_1.jpg,Travel,,,sub-29
Desktop or Laptop,Windows 10,Chrome 138.0.0.0,1920x1080,1920x953,Temporal Distance Task,cb_02,38.0,temp_dist_trial,dist_items,qkpkxw,2.0,response,25,533.5,2700.2999999999884,2716.999999999971,533.5,2700.2999999999884,2716.999999999971,1.0,2183.499999999971,0.0,,Slider,Slider,4.0,object-56,temp_dist_trial,38.0,t_s_22_1,travel_shared,belt,2.0,competing,paired,t_s_22_1.jpg,Travel,,,sub-29
Desktop or Laptop,Windows 10,Chrome 138.0.0.0,1920x1080,1920x953,Temporal Distance Task,cb_02,39.0,temp_dist_trial,num_items,zn7si1,1.0,response,2_ITEM,1597.4000000476956,1583.4000000000233,1597.4000000476956,1597.4000000476956,1583.4000000000233,1597.4000000476956,1.0,0.0,0.0,,Click Response,2_count,5.0,object-49,temp_dist_trial,39.0,t_m_07_1,travel_Miami,sunglasses,2.0,unique,single,t_m_07_1.jpg,Travel,,,sub-29
Desktop or Laptop,Windows 10,Chrome 138.0.0.0,1920x1080,1920x953,Temporal Distance Task,cb_02,39.0,temp_dist_trial,dist_items,qkpkxw,2.0,info,,3.70000009535579,0.0,3.70000009535579,3.70000009535579,0.0,3.70000009535579,1.0,0.0,0.0,,Slider,Slider,4.0,object-56,temp_dist_trial,39.0,t_m_07_1,travel_Miami,sunglasses,2.0,unique,single,t_m_07_1.jpg,Travel,,,sub-29
Desktop or Laptop,Windows 10,Chrome 138.0.0.0,1920x1080,1920x953,Temporal Distance Task,cb_02,39.0,temp_dist_trial,dist_items,qkpkxw,2.0,continue,,941.4000000238302,933.3999999999942,941.4000000238302,941.4000000238302,933.3999999999942,941.4000000238302,1.0,0.0,0.0,,Click To Continue,Next button,7.0,object-60,temp_dist_trial,39.0,t_m_07_1,travel_Miami,sunglasses,2.0,unique,single,t_m_07_1.jpg,Travel,,,sub-29
Desktop or Laptop,Windows 10,Chrome 138.0.0.0,1920x1080,1920x953,Temporal Distance Task,cb_02,39.0,temp_dist_trial,dist_items,qkpkxw,2.0,response,68,366.5999999999767,933.3999999999942,942.4000000238302,366.5999999999767,933.3999999999942,942.4000000238302,1.0,575.8000000238535,0.0,,Slider,Slider,4.0,object-56,temp_dist_trial,39.0,t_m_07_1,travel_Miami,sunglasses,2.0,unique,single,t_m_07_1.jpg,Travel,,,sub-29
Desktop or Laptop,Windows 10,Chrome 138.0.0.0,1920x1080,1920x953,Temporal Distance Task,cb_02,40.0,temp_dist_trial,num_items,zn7si1,1.0,response,2_ITEM,974.500000023836,966.7999999999884,974.500000023836,974.500000023836,966.7999999999884,974.500000023836,1.0,0.0,0.0,,Click Response,2_count,5.0,object-49,temp_dist_trial,40.0,t_s_19_1,travel_shared,pajamas,2.0,competing,paired,t_s_19_1.jpg,Travel,,,sub-29
Desktop or Laptop,Windows 10,Chrome 138.0.0.0,1920x1080,1920x953,Temporal Distance Task,cb_02,40.0,temp_dist_trial,dist_items,qkpkxw,2.0,info,,3.7000000000116415,0.0,3.7000000000116415,3.7000000000116415,0.0,3.7000000000116415,1.0,0.0,0.0,,Slider,Slider,4.0,object-56,temp_dist_trial,40.0,t_s_19_1,travel_shared,pajamas,2.0,competing,paired,t_s_19_1.jpg,Travel,,,sub-29
Desktop or Laptop,Windows 10,Chrome 138.0.0.0,1920x1080,1920x953,Temporal Distance Task,cb_02,40.0,temp_dist_trial,dist_items,qkpkxw,2.0,continue,,1228.2000000000114,1216.8000000000175,1228.2000000000114,1228.2000000000114,1216.8000000000175,1228.2000000000114,1.0,0.0,0.0,,Click To Continue,Next button,7.0,object-60,temp_dist_trial,40.0,t_s_19_1,travel_shared,pajamas,2.0,competing,paired,t_s_19_1.jpg,Travel,,,sub-29
Desktop or Laptop,Windows 10,Chrome 138.0.0.0,1920x1080,1920x953,Temporal Distance Task,cb_02,40.0,temp_dist_trial,dist_items,qkpkxw,2.0,response,31,500.1000000000058,1216.8000000000175,1229.4000000476954,500.1000000000058,1216.8000000000175,1229.4000000476954,1.0,729.3000000476895,0.0,,Slider,Slider,4.0,object-56,temp_dist_trial,40.0,t_s_19_1,travel_shared,pajamas,2.0,competing,paired,t_s_19_1.jpg,Travel,,,sub-29
Desktop or Laptop,Windows 10,Chrome 138.0.0.0,1920x1080,1920x953,Temporal Distance Task,cb_02,41.0,temp_dist_trial,num_items,zn7si1,1.0,response,1_ITEM,2362.8000000953616,2350.1000000000063,2362.8000000953616,2362.8000000953616,2350.1000000000063,2362.8000000953616,1.0,0.0,0.0,,Click Response,1_count,3.0,object-46,temp_dist_trial,41.0,t_i_05_1,travel_Iceland,hiking boots,2.0,unique,paired,t_i_05_1.jpg,Travel,,,sub-29
Desktop or Laptop,Windows 10,Chrome 138.0.0.0,1920x1080,1920x953,Temporal Distance Task,cb_02,42.0,temp_dist_trial,num_items,zn7si1,1.0,response,2_ITEM,1136.500000047672,1133.5,1136.500000047672,1136.500000047672,1133.5,1136.500000047672,1.0,0.0,0.0,,Click Response,2_count,5.0,object-49,temp_dist_trial,42.0,t_i_08_1,travel_Iceland,thick socks,2.0,unique,paired,t_i_08_1.jpg,Travel,,,sub-29
Desktop or Laptop,Windows 10,Chrome 138.0.0.0,1920x1080,1920x953,Temporal Distance Task,cb_02,42.0,temp_dist_trial,dist_items,qkpkxw,2.0,info,,5.000000023836037,0.0,5.000000023836037,5.000000023836037,0.0,5.000000023836037,1.0,0.0,0.0,,Slider,Slider,4.0,object-56,temp_dist_trial,42.0,t_i_08_1,travel_Iceland,thick socks,2.0,unique,paired,t_i_08_1.jpg,Travel,,,sub-29
Desktop or Laptop,Windows 10,Chrome 138.0.0.0,1920x1080,1920x953,Temporal Distance Task,cb_02,42.0,temp_dist_trial,dist_items,qkpkxw,2.0,continue,,1439.600000047678,1433.3999999999942,1439.600000047678,1439.600000047678,1433.3999999999942,1439.600000047678,1.0,0.0,0.0,,Click To Continue,Next button,7.0,object-60,temp_dist_trial,42.0,t_i_08_1,travel_Iceland,thick socks,2.0,unique,paired,t_i_08_1.jpg,Travel,,,sub-29
Desktop or Laptop,Windows 10,Chrome 138.0.0.0,1920x1080,1920x953,Temporal Distance Task,cb_02,42.0,temp_dist_trial,dist_items,qkpkxw,2.0,response,86,533.3999999999942,1433.3999999999942,1443.8999999999942,533.3999999999942,1433.3999999999942,1443.8999999999942,1.0,910.5,0.0,,Slider,Slider,4.0,object-56,temp_dist_trial,42.0,t_i_08_1,travel_Iceland,thick socks,2.0,unique,paired,t_i_08_1.jpg,Travel,,,sub-29
Desktop or Laptop,Windows 10,Chrome 138.0.0.0,1920x1080,1920x953,Temporal Distance Task,cb_02,43.0,temp_dist_trial,num_items,zn7si1,1.0,response,1_ITEM,1397.6000000238419,1383.5,1397.6000000238419,1397.6000000238419,1383.5,1397.6000000238419,1.0,0.0,0.0,,Click Response,1_count,3.0,object-46,temp_dist_trial,43.0,t_m_15_1,travel_Miami,shorts,2.0,unique,paired,t_m_15_1.jpg,Travel,,,sub-29
Desktop or Laptop,Windows 10,Chrome 138.0.0.0,1920x1080,1920x953,Temporal Distance Task,cb_02,44.0,temp_dist_trial,num_items,zn7si1,1.0,response,2_ITEM,1039.9000000715314,1033.5,1039.9000000715314,1039.9000000715314,1033.5,1039.9000000715314,1.0,0.0,0.0,,Click Response,2_count,5.0,object-49,temp_dist_trial,44.0,t_s_14_1,travel_shared,hand sanitizer,2.0,competing,single,t_s_14_1.jpg,Travel,,,sub-29
Desktop or Laptop,Windows 10,Chrome 138.0.0.0,1920x1080,1920x953,Temporal Distance Task,cb_02,44.0,temp_dist_trial,dist_items,qkpkxw,2.0,info,,5.9000000715313945,0.0,5.9000000715313945,5.9000000715313945,0.0,5.9000000715313945,1.0,0.0,0.0,,Slider,Slider,4.0,object-56,temp_dist_trial,44.0,t_s_14_1,travel_shared,hand sanitizer,2.0,competing,single,t_s_14_1.jpg,Travel,,,sub-29
Desktop or Laptop,Windows 10,Chrome 138.0.0.0,1920x1080,1920x953,Temporal Distance Task,cb_02,44.0,temp_dist_trial,dist_items,qkpkxw,2.0,continue,,1203.4000000715316,1200.2000000000114,1203.4000000715316,1203.4000000715316,1200.2000000000114,1203.4000000715316,1.0,0.0,0.0,,Click To Continue,Next button,7.0,object-60,temp_dist_trial,44.0,t_s_14_1,travel_shared,hand sanitizer,2.0,competing,single,t_s_14_1.jpg,Travel,,,sub-29
Desktop or Laptop,Windows 10,Chrome 138.0.0.0,1920x1080,1920x953,Temporal Distance Task,cb_02,44.0,temp_dist_trial,dist_items,qkpkxw,2.0,response,66,333.30000000001735,1200.2000000000114,1204.4000000715316,333.30000000001735,1200.2000000000114,1204.4000000715316,1.0,871.1000000715138,0.0,,Slider,Slider,4.0,object-56,temp_dist_trial,44.0,t_s_14_1,travel_shared,hand sanitizer,2.0,competing,single,t_s_14_1.jpg,Travel,,,sub-29
Desktop or Laptop,Windows 10,Chrome 138.0.0.0,1920x1080,1920x953,Temporal Distance Task,cb_02,45.0,temp_dist_trial,num_items,zn7si1,1.0,response,2_ITEM,1059.1000000476781,1050.1000000000058,1059.1000000476781,1059.1000000476781,1050.1000000000058,1059.1000000476781,1.0,0.0,0.0,,Click Response,2_count,5.0,object-49,temp_dist_trial,45.0,t_s_10_1,travel_shared,luggage lock,2.0,competing,paired,t_s_10_1.jpg,Travel,,,sub-29
Desktop or Laptop,Windows 10,Chrome 138.0.0.0,1920x1080,1920x953,Temporal Distance Task,cb_02,45.0,temp_dist_trial,dist_items,qkpkxw,2.0,info,,3.5000000238360367,0.0,3.5000000238360367,3.5000000238360367,0.0,3.5000000238360367,1.0,0.0,0.0,,Slider,Slider,4.0,object-56,temp_dist_trial,45.0,t_s_10_1,travel_shared,luggage lock,2.0,competing,paired,t_s_10_1.jpg,Travel,,,sub-29
Desktop or Laptop,Windows 10,Chrome 138.0.0.0,1920x1080,1920x953,Temporal Distance Task,cb_02,45.0,temp_dist_trial,dist_items,qkpkxw,2.0,continue,,1305.2000000715198,1300.1000000000058,1305.2000000715198,1305.2000000715198,1300.1000000000058,1305.2000000715198,1.0,0.0,0.0,,Click To Continue,Next button,7.0,object-60,temp_dist_trial,45.0,t_s_10_1,travel_shared,luggage lock,2.0,competing,paired,t_s_10_1.jpg,Travel,,,sub-29
Desktop or Laptop,Windows 10,Chrome 138.0.0.0,1920x1080,1920x953,Temporal Distance Task,cb_02,45.0,temp_dist_trial,dist_items,qkpkxw,2.0,response,58,550.1000000000058,1300.1000000000058,1306.3999999999942,550.1000000000058,1300.1000000000058,1306.3999999999942,1.0,756.2999999999884,0.0,,Slider,Slider,4.0,object-56,temp_dist_trial,45.0,t_s_10_1,travel_shared,luggage lock,2.0,competing,paired,t_s_10_1.jpg,Travel,,,sub-29
Desktop or Laptop,Windows 10,Chrome 138.0.0.0,1920x1080,1920x953,Temporal Distance Task,cb_02,46.0,temp_dist_trial,num_items,zn7si1,1.0,response,2_ITEM,1373.600000071514,1366.7999999999886,1373.600000071514,1373.600000071514,1366.7999999999886,1373.600000071514,1.0,0.0,0.0,,Click Response,2_count,5.0,object-49,temp_dist_trial,46.0,t_s_12_1,travel_shared,clear toiletry bag,2.0,competing,single,t_s_12_1.jpg,Travel,,,sub-29
Desktop or Laptop,Windows 10,Chrome 138.0.0.0,1920x1080,1920x953,Temporal Distance Task,cb_02,46.0,temp_dist_trial,dist_items,qkpkxw,2.0,info,,4.200000047683717,0.0,4.200000047683717,4.200000047683717,0.0,4.200000047683717,1.0,0.0,0.0,,Slider,Slider,4.0,object-56,temp_dist_trial,46.0,t_s_12_1,travel_shared,clear toiletry bag,2.0,competing,single,t_s_12_1.jpg,Travel,,,sub-29
Desktop or Laptop,Windows 10,Chrome 138.0.0.0,1920x1080,1920x953,Temporal Distance Task,cb_02,46.0,temp_dist_trial,dist_items,qkpkxw,2.0,continue,,1788.4000000953674,1783.3999999999942,1788.4000000953674,1788.4000000953674,1783.3999999999942,1788.4000000953674,1.0,0.0,0.0,,Click To Continue,Next button,7.0,object-60,temp_dist_trial,46.0,t_s_12_1,travel_shared,clear toiletry bag,2.0,competing,single,t_s_12_1.jpg,Travel,,,sub-29
Desktop or Laptop,Windows 10,Chrome 138.0.0.0,1920x1080,1920x953,Temporal Distance Task,cb_02,46.0,temp_dist_trial,dist_items,qkpkxw,2.0,response,35,966.7000000000116,1783.3999999999942,1800.0,966.7000000000116,1783.3999999999942,1800.0,1.0,833.2999999999884,0.0,,Slider,Slider,4.0,object-56,temp_dist_trial,46.0,t_s_12_1,travel_shared,clear toiletry bag,2.0,competing,single,t_s_12_1.jpg,Travel,,,sub-29
Desktop or Laptop,Windows 10,Chrome 138.0.0.0,1920x1080,1920x953,Temporal Distance Task,cb_02,47.0,temp_dist_trial,num_items,zn7si1,1.0,response,2_ITEM,892.0000000953733,883.3000000000177,892.0000000953733,892.0000000953733,883.3000000000177,892.0000000953733,1.0,0.0,0.0,,Click Response,2_count,5.0,object-49,temp_dist_trial,47.0,t_i_13_1,travel_Iceland,sleeping bag,2.0,unique,paired,t_i_13_1.jpg,Travel,,,sub-29
Desktop or Laptop,Windows 10,Chrome 138.0.0.0,1920x1080,1920x953,Temporal Distance Task,cb_02,47.0,temp_dist_trial,dist_items,qkpkxw,2.0,info,,3.8000000238534986,0.0,3.8000000238534986,3.8000000238534986,0.0,3.8000000238534986,1.0,0.0,0.0,,Slider,Slider,4.0,object-56,temp_dist_trial,47.0,t_i_13_1,travel_Iceland,sleeping bag,2.0,unique,paired,t_i_13_1.jpg,Travel,,,sub-29
Desktop or Laptop,Windows 10,Chrome 138.0.0.0,1920x1080,1920x953,Temporal Distance Task,cb_02,47.0,temp_dist_trial,dist_items,qkpkxw,2.0,continue,,1435.4000000476956,1433.4000000000233,1435.4000000476956,1435.4000000476956,1433.4000000000233,1435.4000000476956,1.0,0.0,0.0,,Click To Continue,Next button,7.0,object-60,temp_dist_trial,47.0,t_i_13_1,travel_Iceland,sleeping bag,2.0,unique,paired,t_i_13_1.jpg,Travel,,,sub-29
Desktop or Laptop,Windows 10,Chrome 138.0.0.0,1920x1080,1920x953,Temporal Distance Task,cb_02,47.0,temp_dist_trial,dist_items,qkpkxw,2.0,response,63,1000.1000000000058,1433.4000000000233,1436.4000000476956,1000.1000000000058,1433.4000000000233,1436.4000000476956,1.0,436.3000000476896,0.0,,Slider,Slider,4.0,object-56,temp_dist_trial,47.0,t_i_13_1,travel_Iceland,sleeping bag,2.0,unique,paired,t_i_13_1.jpg,Travel,,,sub-29
Desktop or Laptop,Windows 10,Chrome 138.0.0.0,1920x1080,1920x953,Temporal Distance Task,cb_02,48.0,temp_dist_trial,num_items,zn7si1,1.0,response,1_ITEM,1339.100000071514,1333.3999999999942,1339.100000071514,1339.100000071514,1333.3999999999942,1339.100000071514,1.0,0.0,0.0,,Click Response,1_count,3.0,object-46,temp_dist_trial,48.0,t_m_16_1,travel_Miami,flippers,2.0,unique,paired,t_m_16_1.jpg,Travel,,,sub-29
Desktop or Laptop,Windows 10,Chrome 138.0.0.0,1920x1080,1920x953,Temporal Distance Task,cb_02,2.0,temp_eventStart,Screen 1,dgtyxe,1.0,continue,,962.2999999999884,950.0999999999768,962.2999999999884,962.2999999999884,950.0999999999768,962.2999999999884,1.0,0.0,0.0,,Click To Continue,Next Button,3.0,object-43,temp_eventStart,,,Student,,,,,,,,,sub-29
Desktop or Laptop,Windows 10,Chrome 138.0.0.0,1920x1080,1920x953,Temporal Distance Task,cb_02,49.0,temp_dist_trial,num_items,zn7si1,1.0,response,1_ITEM,1446.4000000476956,1433.4000000000233,1446.4000000476956,1446.4000000476956,1433.4000000000233,1446.4000000476956,1.0,0.0,0.0,,Click Response,1_count,3.0,object-46,temp_dist_trial,1.0,s_sh_24_1,student_shared,desk organizer,2.0,competing,single,s_sh_24_1.jpg,Student,,,sub-29
Desktop or Laptop,Windows 10,Chrome 138.0.0.0,1920x1080,1920x953,Temporal Distance Task,cb_02,50.0,temp_dist_trial,num_items,zn7si1,1.0,response,2_ITEM,909.7000000715198,900.1000000000058,909.7000000715198,909.7000000715198,900.1000000000058,909.7000000715198,1.0,0.0,0.0,,Click Response,2_count,5.0,object-49,temp_dist_trial,2.0,s_sh_12_1,student_shared,binder,2.0,competing,single,s_sh_12_1.jpg,Student,,,sub-29
Desktop or Laptop,Windows 10,Chrome 138.0.0.0,1920x1080,1920x953,Temporal Distance Task,cb_02,50.0,temp_dist_trial,dist_items,qkpkxw,2.0,info,,7.800000023853498,0.0,7.800000023853498,7.800000023853498,0.0,7.800000023853498,1.0,0.0,0.0,,Slider,Slider,4.0,object-56,temp_dist_trial,2.0,s_sh_12_1,student_shared,binder,2.0,competing,single,s_sh_12_1.jpg,Student,,,sub-29
Desktop or Laptop,Windows 10,Chrome 138.0.0.0,1920x1080,1920x953,Temporal Distance Task,cb_02,50.0,temp_dist_trial,dist_items,qkpkxw,2.0,continue,,1499.7000000000116,1483.4000000000233,1499.7000000000116,1499.7000000000116,1483.4000000000233,1499.7000000000116,1.0,0.0,0.0,,Click To Continue,Next button,7.0,object-60,temp_dist_trial,2.0,s_sh_12_1,student_shared,binder,2.0,competing,single,s_sh_12_1.jpg,Student,,,sub-29
Desktop or Laptop,Windows 10,Chrome 138.0.0.0,1920x1080,1920x953,Temporal Distance Task,cb_02,50.0,temp_dist_trial,dist_items,qkpkxw,2.0,response,64,583.3000000000175,1483.4000000000233,1500.1000000000354,583.3000000000175,1483.4000000000233,1500.1000000000354,1.0,916.8000000000177,0.0,,Slider,Slider,4.0,object-56,temp_dist_trial,2.0,s_sh_12_1,student_shared,binder,2.0,competing,single,s_sh_12_1.jpg,Student,,,sub-29
Desktop or Laptop,Windows 10,Chrome 138.0.0.0,1920x1080,1920x953,Temporal Distance Task,cb_02,51.0,temp_dist_trial,num_items,zn7si1,1.0,response,2_ITEM,1458.7000000953558,1450.0,1458.7000000953558,1458.7000000953558,1450.0,1458.7000000953558,1.0,0.0,0.0,,Click Response,2_count,5.0,object-49,temp_dist_trial,3.0,s_sh_13_1,student_shared,index cards,2.0,competing,single,s_sh_13_1.jpg,Student,,,sub-29
Desktop or Laptop,Windows 10,Chrome 138.0.0.0,1920x1080,1920x953,Temporal Distance Task,cb_02,51.0,temp_dist_trial,dist_items,qkpkxw,2.0,info,,3.9000000238302164,0.0,3.9000000238302164,3.9000000238302164,0.0,3.9000000238302164,1.0,0.0,0.0,,Slider,Slider,4.0,object-56,temp_dist_trial,3.0,s_sh_13_1,student_shared,index cards,2.0,competing,single,s_sh_13_1.jpg,Student,,,sub-29
Desktop or Laptop,Windows 10,Chrome 138.0.0.0,1920x1080,1920x953,Temporal Distance Task,cb_02,51.0,temp_dist_trial,dist_items,qkpkxw,2.0,continue,,1425.2999999999884,1416.7999999999884,1425.2999999999884,1425.2999999999884,1416.7999999999884,1425.2999999999884,1.0,0.0,0.0,,Click To Continue,Next button,7.0,object-60,temp_dist_trial,3.0,s_sh_13_1,student_shared,index cards,2.0,competing,single,s_sh_13_1.jpg,Student,,,sub-29
Desktop or Laptop,Windows 10,Chrome 138.0.0.0,1920x1080,1920x953,Temporal Distance Task,cb_02,51.0,temp_dist_trial,dist_items,qkpkxw,2.0,response,38,883.5,1416.7999999999884,1426.000000047672,883.5,1416.7999999999884,1426.000000047672,1.0,542.5000000476721,0.0,,Slider,Slider,4.0,object-56,temp_dist_trial,3.0,s_sh_13_1,student_shared,index cards,2.0,competing,single,s_sh_13_1.jpg,Student,,,sub-29
Desktop or Laptop,Windows 10,Chrome 138.0.0.0,1920x1080,1920x953,Temporal Distance Task,cb_02,52.0,temp_dist_trial,num_items,zn7si1,1.0,response,2_ITEM,1108.4000000953674,1100.2000000000116,1108.4000000953674,1108.4000000953674,1100.2000000000116,1108.4000000953674,1.0,0.0,0.0,,Click Response,2_count,5.0,object-49,temp_dist_trial,4.0,s_s_05_1,student_stem,lab goggles,2.0,unique,paired,s_s_05_1.jpg,Student,,,sub-29
Desktop or Laptop,Windows 10,Chrome 138.0.0.0,1920x1080,1920x953,Temporal Distance Task,cb_02,52.0,temp_dist_trial,dist_items,qkpkxw,2.0,info,,7.300000095361612,0.0,7.300000095361612,7.300000095361612,0.0,7.300000095361612,1.0,0.0,0.0,,Slider,Slider,4.0,object-56,temp_dist_trial,4.0,s_s_05_1,student_stem,lab goggles,2.0,unique,paired,s_s_05_1.jpg,Student,,,sub-29
Desktop or Laptop,Windows 10,Chrome 138.0.0.0,1920x1080,1920x953,Temporal Distance Task,cb_02,52.0,temp_dist_trial,dist_items,qkpkxw,2.0,continue,,1427.500000023836,1416.7999999999884,1427.500000023836,1427.500000023836,1416.7999999999884,1427.500000023836,1.0,0.0,0.0,,Click To Continue,Next button,7.0,object-60,temp_dist_trial,4.0,s_s_05_1,student_stem,lab goggles,2.0,unique,paired,s_s_05_1.jpg,Student,,,sub-29
Desktop or Laptop,Windows 10,Chrome 138.0.0.0,1920x1080,1920x953,Temporal Distance Task,cb_02,52.0,temp_dist_trial,dist_items,qkpkxw,2.0,response,30,916.7999999999884,1416.7999999999884,1428.7000000715198,916.7999999999884,1416.7999999999884,1428.7000000715198,1.0,511.9000000715314,0.0,,Slider,Slider,4.0,object-56,temp_dist_trial,4.0,s_s_05_1,student_stem,lab goggles,2.0,unique,paired,s_s_05_1.jpg,Student,,,sub-29
Desktop or Laptop,Windows 10,Chrome 138.0.0.0,1920x1080,1920x953,Temporal Distance Task,cb_02,53.0,temp_dist_trial,num_items,zn7si1,1.0,response,1_ITEM,1116.5000000953733,1100.0,1116.5000000953733,1116.5000000953733,1100.0,1116.5000000953733,1.0,0.0,0.0,,Click Response,1_count,3.0,object-46,temp_dist_trial,5.0,s_a_05_1,student_art,clay,2.0,unique,single,s_a_05_1.jpg,Student,,,sub-29
Desktop or Laptop,Windows 10,Chrome 138.0.0.0,1920x1080,1920x953,Temporal Distance Task,cb_02,54.0,temp_dist_trial,num_items,zn7si1,1.0,response,2_ITEM,1709.4000000715314,1700.2000000000116,1709.4000000715314,1709.4000000715314,1700.2000000000116,1709.4000000715314,1.0,0.0,0.0,,Click Response,2_count,5.0,object-49,temp_dist_trial,6.0,s_sh_18_1,student_shared,wall calendar,2.0,competing,paired,s_sh_18_1.jpg,Student,,,sub-29
Desktop or Laptop,Windows 10,Chrome 138.0.0.0,1920x1080,1920x953,Temporal Distance Task,cb_02,54.0,temp_dist_trial,dist_items,qkpkxw,2.0,info,,4.400000095367432,0.0,4.400000095367432,4.400000095367432,0.0,4.400000095367432,1.0,0.0,0.0,,Slider,Slider,4.0,object-56,temp_dist_trial,6.0,s_sh_18_1,student_shared,wall calendar,2.0,competing,paired,s_sh_18_1.jpg,Student,,,sub-29
Desktop or Laptop,Windows 10,Chrome 138.0.0.0,1920x1080,1920x953,Temporal Distance Task,cb_02,54.0,temp_dist_trial,dist_items,qkpkxw,2.0,continue,,1223.5,1216.7999999999886,1223.5,1223.5,1216.7999999999886,1223.5,1.0,0.0,0.0,,Click To Continue,Next button,7.0,object-60,temp_dist_trial,6.0,s_sh_18_1,student_shared,wall calendar,2.0,competing,paired,s_sh_18_1.jpg,Student,,,sub-29
Desktop or Laptop,Windows 10,Chrome 138.0.0.0,1920x1080,1920x953,Temporal Distance Task,cb_02,54.0,temp_dist_trial,dist_items,qkpkxw,2.0,response,57,566.7999999999884,1216.7999999999886,1224.9000000953674,566.7999999999884,1216.7999999999886,1224.9000000953674,1.0,658.1000000953791,0.0,,Slider,Slider,4.0,object-56,temp_dist_trial,6.0,s_sh_18_1,student_shared,wall calendar,2.0,competing,paired,s_sh_18_1.jpg,Student,,,sub-29
Desktop or Laptop,Windows 10,Chrome 138.0.0.0,1920x1080,1920x953,Temporal Distance Task,cb_02,55.0,temp_dist_trial,num_items,zn7si1,1.0,response,2_ITEM,926.4000000476954,916.7000000000116,926.4000000476954,926.4000000476954,916.7000000000116,926.4000000476954,1.0,0.0,0.0,,Click Response,2_count,5.0,object-49,temp_dist_trial,7.0,s_a_17_1,student_art,microphone,2.0,unique,paired,s_a_17_1.jpg,Student,,,sub-29
Desktop or Laptop,Windows 10,Chrome 138.0.0.0,1920x1080,1920x953,Temporal Distance Task,cb_02,55.0,temp_dist_trial,dist_items,qkpkxw,2.0,info,,3.2000000715197525,0.0,3.2000000715197525,3.2000000715197525,0.0,3.2000000715197525,1.0,0.0,0.0,,Slider,Slider,4.0,object-56,temp_dist_trial,7.0,s_a_17_1,student_art,microphone,2.0,unique,paired,s_a_17_1.jpg,Student,,,sub-29
Desktop or Laptop,Windows 10,Chrome 138.0.0.0,1920x1080,1920x953,Temporal Distance Task,cb_02,55.0,temp_dist_trial,dist_items,qkpkxw,2.0,continue,,878.000000023836,866.6999999999823,878.000000023836,878.000000023836,866.6999999999823,878.000000023836,1.0,0.0,0.0,,Click To Continue,Next button,7.0,object-60,temp_dist_trial,7.0,s_a_17_1,student_art,microphone,2.0,unique,paired,s_a_17_1.jpg,Student,,,sub-29
Desktop or Laptop,Windows 10,Chrome 138.0.0.0,1920x1080,1920x953,Temporal Distance Task,cb_02,55.0,temp_dist_trial,dist_items,qkpkxw,2.0,response,66,433.3999999999942,866.6999999999823,878.3999999999942,433.3999999999942,866.6999999999823,878.3999999999942,1.0,445.0,0.0,,Slider,Slider,4.0,object-56,temp_dist_trial,7.0,s_a_17_1,student_art,microphone,2.0,unique,paired,s_a_17_1.jpg,Student,,,sub-29
Desktop or Laptop,Windows 10,Chrome 138.0.0.0,1920x1080,1920x953,Temporal Distance Task,cb_02,56.0,temp_dist_trial,num_items,zn7si1,1.0,response,2_ITEM,1900.0999999999767,1883.5,1900.0999999999767,1900.0999999999767,1883.5,1900.0999999999767,1.0,0.0,0.0,,Click Response,2_count,5.0,object-49,temp_dist_trial,8.0,s_sh_02_1,student_shared,eraser,2.0,competing,paired,s_sh_02_1.jpg,Student,,,sub-29
Desktop or Laptop,Windows 10,Chrome 138.0.0.0,1920x1080,1920x953,Temporal Distance Task,cb_02,56.0,temp_dist_trial,dist_items,qkpkxw,2.0,info,,3.70000009535579,0.0,3.70000009535579,3.70000009535579,0.0,3.70000009535579,1.0,0.0,0.0,,Slider,Slider,4.0,object-56,temp_dist_trial,8.0,s_sh_02_1,student_shared,eraser,2.0,competing,paired,s_sh_02_1.jpg,Student,,,sub-29
Desktop or Laptop,Windows 10,Chrome 138.0.0.0,1920x1080,1920x953,Temporal Distance Task,cb_02,56.0,temp_dist_trial,dist_items,qkpkxw,2.0,continue,,1581.7000000953558,1566.7999999999884,1581.7000000953558,1581.7000000953558,1566.7999999999884,1581.7000000953558,1.0,0.0,0.0,,Click To Continue,Next button,7.0,object-60,temp_dist_trial,8.0,s_sh_02_1,student_shared,eraser,2.0,competing,paired,s_sh_02_1.jpg,Student,,,sub-29
Desktop or Laptop,Windows 10,Chrome 138.0.0.0,1920x1080,1920x953,Temporal Distance Task,cb_02,56.0,temp_dist_trial,dist_items,qkpkxw,2.0,response,40,683.3999999999943,1566.7999999999884,1582.000000047672,683.3999999999943,1566.7999999999884,1582.000000047672,1.0,898.6000000476779,0.0,,Slider,Slider,4.0,object-56,temp_dist_trial,8.0,s_sh_02_1,student_shared,eraser,2.0,competing,paired,s_sh_02_1.jpg,Student,,,sub-29
Desktop or Laptop,Windows 10,Chrome 138.0.0.0,1920x1080,1920x953,Temporal Distance Task,cb_02,57.0,temp_dist_trial,num_items,zn7si1,1.0,response,2_ITEM,1662.0,1650.1000000000058,1662.0,1662.0,1650.1000000000058,1662.0,1.0,0.0,0.0,,Click Response,2_count,5.0,object-49,temp_dist_trial,9.0,s_a_10_1,student_art,tripod,2.0,unique,paired,s_a_10_1.jpg,Student,,,sub-29
Desktop or Laptop,Windows 10,Chrome 138.0.0.0,1920x1080,1920x953,Temporal Distance Task,cb_02,57.0,temp_dist_trial,dist_items,qkpkxw,2.0,info,,4.700000047683716,0.0,4.700000047683716,4.700000047683716,0.0,4.700000047683716,1.0,0.0,0.0,,Slider,Slider,4.0,object-56,temp_dist_trial,9.0,s_a_10_1,student_art,tripod,2.0,unique,paired,s_a_10_1.jpg,Student,,,sub-29
Desktop or Laptop,Windows 10,Chrome 138.0.0.0,1920x1080,1920x953,Temporal Distance Task,cb_02,57.0,temp_dist_trial,dist_items,qkpkxw,2.0,continue,,1674.9000000953674,1666.8999999999942,1674.9000000953674,1674.9000000953674,1666.8999999999942,1674.9000000953674,1.0,0.0,0.0,,Click To Continue,Next button,7.0,object-60,temp_dist_trial,9.0,s_a_10_1,student_art,tripod,2.0,unique,paired,s_a_10_1.jpg,Student,,,sub-29
Desktop or Laptop,Windows 10,Chrome 138.0.0.0,1920x1080,1920x953,Temporal Distance Task,cb_02,57.0,temp_dist_trial,dist_items,qkpkxw,2.0,response,62,683.5,1666.8999999999942,1675.2000000476835,683.5,1666.8999999999942,1675.2000000476835,1.0,991.7000000476836,0.0,,Slider,Slider,4.0,object-56,temp_dist_trial,9.0,s_a_10_1,student_art,tripod,2.0,unique,paired,s_a_10_1.jpg,Student,,,sub-29
Desktop or Laptop,Windows 10,Chrome 138.0.0.0,1920x1080,1920x953,Temporal Distance Task,cb_02,58.0,temp_dist_trial,num_items,zn7si1,1.0,response,2_ITEM,1302.2000000238475,1300.1000000000058,1302.2000000238475,1302.2000000238475,1300.1000000000058,1302.2000000238475,1.0,0.0,0.0,,Click Response,2_count,5.0,object-49,temp_dist_trial,10.0,s_sh_09_1,student_shared,paper clips,2.0,competing,paired,s_sh_09_1.jpg,Student,,,sub-29
Desktop or Laptop,Windows 10,Chrome 138.0.0.0,1920x1080,1920x953,Temporal Distance Task,cb_02,58.0,temp_dist_trial,dist_items,qkpkxw,2.0,info,,4.800000071525575,0.0,4.800000071525575,4.800000071525575,0.0,4.800000071525575,1.0,0.0,0.0,,Slider,Slider,4.0,object-56,temp_dist_trial,10.0,s_sh_09_1,student_shared,paper clips,2.0,competing,paired,s_sh_09_1.jpg,Student,,,sub-29
Desktop or Laptop,Windows 10,Chrome 138.0.0.0,1920x1080,1920x953,Temporal Distance Task,cb_02,58.0,temp_dist_trial,dist_items,qkpkxw,2.0,continue,,1391.9000000953674,1383.5,1391.9000000953674,1391.9000000953674,1383.5,1391.9000000953674,1.0,0.0,0.0,,Click To Continue,Next button,7.0,object-60,temp_dist_trial,10.0,s_sh_09_1,student_shared,paper clips,2.0,competing,paired,s_sh_09_1.jpg,Student,,,sub-29
Desktop or Laptop,Windows 10,Chrome 138.0.0.0,1920x1080,1920x953,Temporal Distance Task,cb_02,58.0,temp_dist_trial,dist_items,qkpkxw,2.0,response,36,816.7000000000116,1383.5,1396.2000000476835,816.7000000000116,1383.5,1396.2000000476835,1.0,579.5000000476721,0.0,,Slider,Slider,4.0,object-56,temp_dist_trial,10.0,s_sh_09_1,student_shared,paper clips,2.0,competing,paired,s_sh_09_1.jpg,Student,,,sub-29
Desktop or Laptop,Windows 10,Chrome 138.0.0.0,1920x1080,1920x953,Temporal Distance Task,cb_02,59.0,temp_dist_trial,num_items,zn7si1,1.0,response,1_ITEM,1222.3000000715256,1216.6000000000058,1222.3000000715256,1222.3000000715256,1216.6000000000058,1222.3000000715256,1.0,0.0,0.0,,Click Response,1_count,3.0,object-46,temp_dist_trial,11.0,s_sh_19_1,student_shared,portable plastic drawer,2.0,competing,paired,s_sh_19_1.jpg,Student,,,sub-29
Desktop or Laptop,Windows 10,Chrome 138.0.0.0,1920x1080,1920x953,Temporal Distance Task,cb_02,60.0,temp_dist_trial,num_items,zn7si1,1.0,response,2_ITEM,1619.500000047672,1616.8999999999942,1619.500000047672,1619.500000047672,1616.8999999999942,1619.500000047672,1.0,0.0,0.0,,Click Response,2_count,5.0,object-49,temp_dist_trial,12.0,s_s_18_1,student_stem,brain model,2.0,unique,paired,s_s_18_1.jpg,Student,,,sub-29
Desktop or Laptop,Windows 10,Chrome 138.0.0.0,1920x1080,1920x953,Temporal Distance Task,cb_02,60.0,temp_dist_trial,dist_items,qkpkxw,2.0,info,,6.9000000953674325,0.0,6.9000000953674325,6.9000000953674325,0.0,6.9000000953674325,1.0,0.0,0.0,,Slider,Slider,4.0,object-56,temp_dist_trial,12.0,s_s_18_1,student_stem,brain model,2.0,unique,paired,s_s_18_1.jpg,Student,,,sub-29
Desktop or Laptop,Windows 10,Chrome 138.0.0.0,1920x1080,1920x953,Temporal Distance Task,cb_02,60.0,temp_dist_trial,dist_items,qkpkxw,2.0,continue,,3472.6000000238428,3466.7999999999884,3472.6000000238428,3472.6000000238428,3466.7999999999884,3472.6000000238428,1.0,0.0,0.0,,Click To Continue,Next button,7.0,object-60,temp_dist_trial,12.0,s_s_18_1,student_stem,brain model,2.0,unique,paired,s_s_18_1.jpg,Student,,,sub-29
Desktop or Laptop,Windows 10,Chrome 138.0.0.0,1920x1080,1920x953,Temporal Distance Task,cb_02,60.0,temp_dist_trial,dist_items,qkpkxw,2.0,response,66,983.2999999999884,3466.7999999999884,3473.0,983.2999999999884,3466.7999999999884,3473.0,1.0,2489.700000000012,0.0,,Slider,Slider,4.0,object-56,temp_dist_trial,12.0,s_s_18_1,student_stem,brain model,2.0,unique,paired,s_s_18_1.jpg,Student,,,sub-29
Desktop or Laptop,Windows 10,Chrome 138.0.0.0,1920x1080,1920x953,Temporal Distance Task,cb_02,61.0,temp_dist_trial,num_items,zn7si1,1.0,response,2_ITEM,1507.2000000000116,1500.1000000000058,1507.2000000000116,1507.2000000000116,1500.1000000000058,1507.2000000000116,1.0,0.0,0.0,,Click Response,2_count,5.0,object-49,temp_dist_trial,13.0,s_a_11_1,student_art,clapperboard,2.0,unique,paired,s_a_11_1.jpg,Student,,,sub-29
Desktop or Laptop,Windows 10,Chrome 138.0.0.0,1920x1080,1920x953,Temporal Distance Task,cb_02,61.0,temp_dist_trial,dist_items,qkpkxw,2.0,info,,6.000000095373252,0.0,6.000000095373252,6.000000095373252,0.0,6.000000095373252,1.0,0.0,0.0,,Slider,Slider,4.0,object-56,temp_dist_trial,13.0,s_a_11_1,student_art,clapperboard,2.0,unique,paired,s_a_11_1.jpg,Student,,,sub-29
Desktop or Laptop,Windows 10,Chrome 138.0.0.0,1920x1080,1920x953,Temporal Distance Task,cb_02,61.0,temp_dist_trial,dist_items,qkpkxw,2.0,continue,,1735.8000000476895,1733.5,1735.8000000476895,1735.8000000476895,1733.5,1735.8000000476895,1.0,0.0,0.0,,Click To Continue,Next button,7.0,object-60,temp_dist_trial,13.0,s_a_11_1,student_art,clapperboard,2.0,unique,paired,s_a_11_1.jpg,Student,,,sub-29
Desktop or Laptop,Windows 10,Chrome 138.0.0.0,1920x1080,1920x953,Temporal Distance Task,cb_02,61.0,temp_dist_trial,dist_items,qkpkxw,2.0,response,44,666.8000000000175,1733.5,1745.8000000476895,666.8000000000175,1733.5,1745.8000000476895,1.0,1079.000000047672,0.0,,Slider,Slider,4.0,object-56,temp_dist_trial,13.0,s_a_11_1,student_art,clapperboard,2.0,unique,paired,s_a_11_1.jpg,Student,,,sub-29
Desktop or Laptop,Windows 10,Chrome 138.0.0.0,1920x1080,1920x953,Temporal Distance Task,cb_02,62.0,temp_dist_trial,num_items,zn7si1,1.0,response,2_ITEM,1160.6000000000058,1149.8999999999942,1160.6000000000058,1160.6000000000058,1149.8999999999942,1160.6000000000058,1.0,0.0,0.0,,Click Response,2_count,5.0,object-49,temp_dist_trial,14.0,s_sh_22_1,student_shared,hole puncher,2.0,competing,paired,s_sh_22_1.jpg,Student,,,sub-29
Desktop or Laptop,Windows 10,Chrome 138.0.0.0,1920x1080,1920x953,Temporal Distance Task,cb_02,62.0,temp_dist_trial,dist_items,qkpkxw,2.0,info,,4.100000023841858,0.0,4.100000023841858,4.100000023841858,0.0,4.100000023841858,1.0,0.0,0.0,,Slider,Slider,4.0,object-56,temp_dist_trial,14.0,s_sh_22_1,student_shared,hole puncher,2.0,competing,paired,s_sh_22_1.jpg,Student,,,sub-29
Desktop or Laptop,Windows 10,Chrome 138.0.0.0,1920x1080,1920x953,Temporal Distance Task,cb_02,62.0,temp_dist_trial,dist_items,qkpkxw,2.0,continue,,1400.8000000715256,1399.8999999999942,1400.8000000715256,1400.8000000715256,1399.8999999999942,1400.8000000715256,1.0,0.0,0.0,,Click To Continue,Next button,7.0,object-60,temp_dist_trial,14.0,s_sh_22_1,student_shared,hole puncher,2.0,competing,paired,s_sh_22_1.jpg,Student,,,sub-29
Desktop or Laptop,Windows 10,Chrome 138.0.0.0,1920x1080,1920x953,Temporal Distance Task,cb_02,62.0,temp_dist_trial,dist_items,qkpkxw,2.0,response,38,433.3999999999942,1399.8999999999942,1401.1000000238419,433.3999999999942,1399.8999999999942,1401.1000000238419,1.0,967.7000000238477,0.0,,Slider,Slider,4.0,object-56,temp_dist_trial,14.0,s_sh_22_1,student_shared,hole puncher,2.0,competing,paired,s_sh_22_1.jpg,Student,,,sub-29
Desktop or Laptop,Windows 10,Chrome 138.0.0.0,1920x1080,1920x953,Temporal Distance Task,cb_02,63.0,temp_dist_trial,num_items,zn7si1,1.0,response,2_ITEM,1284.5000000953733,1283.6000000000058,1284.5000000953733,1284.5000000953733,1283.6000000000058,1284.5000000953733,1.0,0.0,0.0,,Click Response,2_count,5.0,object-49,temp_dist_trial,15.0,s_sh_21_1,student_shared,file holder,2.0,competing,paired,s_sh_21_1.jpg,Student,,,sub-29
Desktop or Laptop,Windows 10,Chrome 138.0.0.0,1920x1080,1920x953,Temporal Distance Task,cb_02,63.0,temp_dist_trial,dist_items,qkpkxw,2.0,info,,3.100000023841858,0.0,3.100000023841858,3.100000023841858,0.0,3.100000023841858,1.0,0.0,0.0,,Slider,Slider,4.0,object-56,temp_dist_trial,15.0,s_sh_21_1,student_shared,file holder,2.0,competing,paired,s_sh_21_1.jpg,Student,,,sub-29
Desktop or Laptop,Windows 10,Chrome 138.0.0.0,1920x1080,1920x953,Temporal Distance Task,cb_02,63.0,temp_dist_trial,dist_items,qkpkxw,2.0,continue,,1640.0,1633.5,1640.0,1640.0,1633.5,1640.0,1.0,0.0,0.0,,Click To Continue,Next button,7.0,object-60,temp_dist_trial,15.0,s_sh_21_1,student_shared,file holder,2.0,competing,paired,s_sh_21_1.jpg,Student,,,sub-29
Desktop or Laptop,Windows 10,Chrome 138.0.0.0,1920x1080,1920x953,Temporal Distance Task,cb_02,63.0,temp_dist_trial,dist_items,qkpkxw,2.0,response,61,1066.7999999999884,1633.5,1640.5,1066.7999999999884,1633.5,1640.5,1.0,573.7000000000116,0.0,,Slider,Slider,4.0,object-56,temp_dist_trial,15.0,s_sh_21_1,student_shared,file holder,2.0,competing,paired,s_sh_21_1.jpg,Student,,,sub-29
Desktop or Laptop,Windows 10,Chrome 138.0.0.0,1920x1080,1920x953,Temporal Distance Task,cb_02,64.0,temp_dist_trial,num_items,zn7si1,1.0,response,2_ITEM,1189.4000000953674,1183.3999999999942,1189.4000000953674,1189.4000000953674,1183.3999999999942,1189.4000000953674,1.0,0.0,0.0,,Click Response,2_count,5.0,object-49,temp_dist_trial,16.0,s_s_15_1,student_stem,jumper cables,2.0,unique,single,s_s_15_1.jpg,Student,,,sub-29
Desktop or Laptop,Windows 10,Chrome 138.0.0.0,1920x1080,1920x953,Temporal Distance Task,cb_02,64.0,temp_dist_trial,dist_items,qkpkxw,2.0,info,,3.700000023847679,0.0,3.700000023847679,3.700000023847679,0.0,3.700000023847679,1.0,0.0,0.0,,Slider,Slider,4.0,object-56,temp_dist_trial,16.0,s_s_15_1,student_stem,jumper cables,2.0,unique,single,s_s_15_1.jpg,Student,,,sub-29
Desktop or Laptop,Windows 10,Chrome 138.0.0.0,1920x1080,1920x953,Temporal Distance Task,cb_02,64.0,temp_dist_trial,dist_items,qkpkxw,2.0,continue,,1172.2000000238475,1166.7000000000114,1172.2000000238475,1172.2000000238475,1166.7000000000114,1172.2000000238475,1.0,0.0,0.0,,Click To Continue,Next button,7.0,object-60,temp_dist_trial,16.0,s_s_15_1,student_stem,jumper cables,2.0,unique,single,s_s_15_1.jpg,Student,,,sub-29
Desktop or Laptop,Windows 10,Chrome 138.0.0.0,1920x1080,1920x953,Temporal Distance Task,cb_02,64.0,temp_dist_trial,dist_items,qkpkxw,2.0,response,42,566.7000000000116,1166.7000000000114,1173.6000000000058,566.7000000000116,1166.7000000000114,1173.6000000000058,1.0,606.8999999999943,0.0,,Slider,Slider,4.0,object-56,temp_dist_trial,16.0,s_s_15_1,student_stem,jumper cables,2.0,unique,single,s_s_15_1.jpg,Student,,,sub-29
Desktop or Laptop,Windows 10,Chrome 138.0.0.0,1920x1080,1920x953,Temporal Distance Task,cb_02,65.0,temp_dist_trial,num_items,zn7si1,1.0,response,2_ITEM,1519.000000023836,1516.6999999999825,1519.000000023836,1519.000000023836,1516.6999999999825,1519.000000023836,1.0,0.0,0.0,,Click Response,2_count,5.0,object-49,temp_dist_trial,17.0,s_sh_14_1,student_shared,printer,2.0,competing,single,s_sh_14_1.jpg,Student,,,sub-29
Desktop or Laptop,Windows 10,Chrome 138.0.0.0,1920x1080,1920x953,Temporal Distance Task,cb_02,65.0,temp_dist_trial,dist_items,qkpkxw,2.0,info,,3.9000000476953574,0.0,3.9000000476953574,3.9000000476953574,0.0,3.9000000476953574,1.0,0.0,0.0,,Slider,Slider,4.0,object-56,temp_dist_trial,17.0,s_sh_14_1,student_shared,printer,2.0,competing,single,s_sh_14_1.jpg,Student,,,sub-29
Desktop or Laptop,Windows 10,Chrome 138.0.0.0,1920x1080,1920x953,Temporal Distance Task,cb_02,65.0,temp_dist_trial,dist_items,qkpkxw,2.0,continue,,1641.0000000715372,1633.5,1641.0000000715372,1641.0000000715372,1633.5,1641.0000000715372,1.0,0.0,0.0,,Click To Continue,Next button,7.0,object-60,temp_dist_trial,17.0,s_sh_14_1,student_shared,printer,2.0,competing,single,s_sh_14_1.jpg,Student,,,sub-29
Desktop or Laptop,Windows 10,Chrome 138.0.0.0,1920x1080,1920x953,Temporal Distance Task,cb_02,65.0,temp_dist_trial,dist_items,qkpkxw,2.0,response,26,716.9000000000232,1633.5,1641.7000000000116,716.9000000000232,1633.5,1641.7000000000116,1.0,924.7999999999884,0.0,,Slider,Slider,4.0,object-56,temp_dist_trial,17.0,s_sh_14_1,student_shared,printer,2.0,competing,single,s_sh_14_1.jpg,Student,,,sub-29
Desktop or Laptop,Windows 10,Chrome 138.0.0.0,1920x1080,1920x953,Temporal Distance Task,cb_02,66.0,temp_dist_trial,num_items,zn7si1,1.0,response,1_ITEM,1555.2000000000116,1550.1000000000058,1555.2000000000116,1555.2000000000116,1550.1000000000058,1555.2000000000116,1.0,0.0,0.0,,Click Response,1_count,3.0,object-46,temp_dist_trial,18.0,s_sh_20_1,student_shared,tape,2.0,competing,paired,s_sh_20_1.jpg,Student,,,sub-29
Desktop or Laptop,Windows 10,Chrome 138.0.0.0,1920x1080,1920x953,Temporal Distance Task,cb_02,67.0,temp_dist_trial,num_items,zn7si1,1.0,response,2_ITEM,1189.9000000953674,1183.2999999999886,1189.9000000953674,1189.9000000953674,1183.2999999999886,1189.9000000953674,1.0,0.0,0.0,,Click Response,2_count,5.0,object-49,temp_dist_trial,19.0,s_s_09_1,student_stem,multimeter,2.0,unique,paired,s_s_09_1.jpg,Student,,,sub-29
Desktop or Laptop,Windows 10,Chrome 138.0.0.0,1920x1080,1920x953,Temporal Distance Task,cb_02,67.0,temp_dist_trial,dist_items,qkpkxw,2.0,info,,4.400000023830216,0.0,4.400000023830216,4.400000023830216,0.0,4.400000023830216,1.0,0.0,0.0,,Slider,Slider,4.0,object-56,temp_dist_trial,19.0,s_s_09_1,student_stem,multimeter,2.0,unique,paired,s_s_09_1.jpg,Student,,,sub-29
Desktop or Laptop,Windows 10,Chrome 138.0.0.0,1920x1080,1920x953,Temporal Distance Task,cb_02,67.0,temp_dist_trial,dist_items,qkpkxw,2.0,continue,,1559.2000000953558,1550.2999999999884,1559.2000000953558,1559.2000000953558,1550.2999999999884,1559.2000000953558,1.0,0.0,0.0,,Click To Continue,Next button,7.0,object-60,temp_dist_trial,19.0,s_s_09_1,student_stem,multimeter,2.0,unique,paired,s_s_09_1.jpg,Student,,,sub-29
Desktop or Laptop,Windows 10,Chrome 138.0.0.0,1920x1080,1920x953,Temporal Distance Task,cb_02,67.0,temp_dist_trial,dist_items,qkpkxw,2.0,response,63,866.8999999999942,1550.2999999999884,1560.2000000953558,866.8999999999942,1550.2999999999884,1560.2000000953558,1.0,693.3000000953616,0.0,,Slider,Slider,4.0,object-56,temp_dist_trial,19.0,s_s_09_1,student_stem,multimeter,2.0,unique,paired,s_s_09_1.jpg,Student,,,sub-29
Desktop or Laptop,Windows 10,Chrome 138.0.0.0,1920x1080,1920x953,Temporal Distance Task,cb_02,68.0,temp_dist_trial,num_items,zn7si1,1.0,response,2_ITEM,1598.8000000715256,1583.3999999999942,1598.8000000715256,1598.8000000715256,1583.3999999999942,1598.8000000715256,1.0,0.0,0.0,,Click Response,2_count,5.0,object-49,temp_dist_trial,20.0,s_sh_05_1,student_shared,laptop,2.0,competing,paired,s_sh_05_1.jpg,Student,,,sub-29
Desktop or Laptop,Windows 10,Chrome 138.0.0.0,1920x1080,1920x953,Temporal Distance Task,cb_02,68.0,temp_dist_trial,dist_items,qkpkxw,2.0,info,,4.4000000715313945,0.0,4.4000000715313945,4.4000000715313945,0.0,4.4000000715313945,1.0,0.0,0.0,,Slider,Slider,4.0,object-56,temp_dist_trial,20.0,s_sh_05_1,student_shared,laptop,2.0,competing,paired,s_sh_05_1.jpg,Student,,,sub-29
Desktop or Laptop,Windows 10,Chrome 138.0.0.0,1920x1080,1920x953,Temporal Distance Task,cb_02,68.0,temp_dist_trial,dist_items,qkpkxw,2.0,continue,,1029.4000000715314,1016.7000000000116,1029.4000000715314,1029.4000000715314,1016.7000000000116,1029.4000000715314,1.0,0.0,0.0,,Click To Continue,Next button,7.0,object-60,temp_dist_trial,20.0,s_sh_05_1,student_shared,laptop,2.0,competing,paired,s_sh_05_1.jpg,Student,,,sub-29
Desktop or Laptop,Windows 10,Chrome 138.0.0.0,1920x1080,1920x953,Temporal Distance Task,cb_02,68.0,temp_dist_trial,dist_items,qkpkxw,2.0,response,70,516.8000000000175,1016.7000000000116,1029.7000000238477,516.8000000000175,1016.7000000000116,1029.7000000238477,1.0,512.9000000238302,0.0,,Slider,Slider,4.0,object-56,temp_dist_trial,20.0,s_sh_05_1,student_shared,laptop,2.0,competing,paired,s_sh_05_1.jpg,Student,,,sub-29
Desktop or Laptop,Windows 10,Chrome 138.0.0.0,1920x1080,1920x953,Temporal Distance Task,cb_02,69.0,temp_dist_trial,num_items,zn7si1,1.0,response,2_ITEM,1522.3000000953616,1516.6999999999825,1522.3000000953616,1522.3000000953616,1516.6999999999825,1522.3000000953616,1.0,0.0,0.0,,Click Response,2_count,5.0,object-49,temp_dist_trial,21.0,s_s_19_1,student_stem,circuit board,2.0,unique,single,s_s_19_1.jpg,Student,,,sub-29
Desktop or Laptop,Windows 10,Chrome 138.0.0.0,1920x1080,1920x953,Temporal Distance Task,cb_02,69.0,temp_dist_trial,dist_items,qkpkxw,2.0,info,,4.3000000238534986,0.0,4.3000000238534986,4.3000000238534986,0.0,4.3000000238534986,1.0,0.0,0.0,,Slider,Slider,4.0,object-56,temp_dist_trial,21.0,s_s_19_1,student_stem,circuit board,2.0,unique,single,s_s_19_1.jpg,Student,,,sub-29
Desktop or Laptop,Windows 10,Chrome 138.0.0.0,1920x1080,1920x953,Temporal Distance Task,cb_02,69.0,temp_dist_trial,dist_items,qkpkxw,2.0,continue,,1569.100000095379,1566.9000000000233,1569.100000095379,1569.100000095379,1566.9000000000233,1569.100000095379,1.0,0.0,0.0,,Click To Continue,Next button,7.0,object-60,temp_dist_trial,21.0,s_s_19_1,student_stem,circuit board,2.0,unique,single,s_s_19_1.jpg,Student,,,sub-29
Desktop or Laptop,Windows 10,Chrome 138.0.0.0,1920x1080,1920x953,Temporal Distance Task,cb_02,69.0,temp_dist_trial,dist_items,qkpkxw,2.0,response,56,866.9000000000232,1566.9000000000233,1569.7000000000116,866.9000000000232,1566.9000000000233,1569.7000000000116,1.0,702.7999999999884,0.0,,Slider,Slider,4.0,object-56,temp_dist_trial,21.0,s_s_19_1,student_stem,circuit board,2.0,unique,single,s_s_19_1.jpg,Student,,,sub-29
Desktop or Laptop,Windows 10,Chrome 138.0.0.0,1920x1080,1920x953,Temporal Distance Task,cb_02,70.0,temp_dist_trial,num_items,zn7si1,1.0,response,1_ITEM,1392.9000000238302,1383.3999999999942,1392.9000000238302,1392.9000000238302,1383.3999999999942,1392.9000000238302,1.0,0.0,0.0,,Click Response,1_count,3.0,object-46,temp_dist_trial,22.0,s_a_14_1,student_art,guitar pick,2.0,unique,single,s_a_14_1.jpg,Student,,,sub-29
Desktop or Laptop,Windows 10,Chrome 138.0.0.0,1920x1080,1920x953,Temporal Distance Task,cb_02,71.0,temp_dist_trial,num_items,zn7si1,1.0,response,1_ITEM,1551.3000000953616,1550.1000000000058,1551.3000000953616,1551.3000000953616,1550.1000000000058,1551.3000000953616,1.0,0.0,0.0,,Click Response,1_count,3.0,object-46,temp_dist_trial,23.0,s_sh_04_1,student_shared,laptop stand,2.0,competing,paired,s_sh_04_1.jpg,Student,,,sub-29
Desktop or Laptop,Windows 10,Chrome 138.0.0.0,1920x1080,1920x953,Temporal Distance Task,cb_02,72.0,temp_dist_trial,num_items,zn7si1,1.0,response,2_ITEM,1073.0000000715372,1066.7000000000116,1073.0000000715372,1073.0000000715372,1066.7000000000116,1073.0000000715372,1.0,0.0,0.0,,Click Response,2_count,5.0,object-49,temp_dist_trial,24.0,s_sh_15_1,student_shared,usb drive,2.0,competing,single,s_sh_15_1.jpg,Student,,,sub-29
Desktop or Laptop,Windows 10,Chrome 138.0.0.0,1920x1080,1920x953,Temporal Distance Task,cb_02,72.0,temp_dist_trial,dist_items,qkpkxw,2.0,info,,5.1000000000058225,0.0,5.1000000000058225,5.1000000000058225,0.0,5.1000000000058225,1.0,0.0,0.0,,Slider,Slider,4.0,object-56,temp_dist_trial,24.0,s_sh_15_1,student_shared,usb drive,2.0,competing,single,s_sh_15_1.jpg,Student,,,sub-29
Desktop or Laptop,Windows 10,Chrome 138.0.0.0,1920x1080,1920x953,Temporal Distance Task,cb_02,72.0,temp_dist_trial,dist_items,qkpkxw,2.0,continue,,1360.7000000238475,1350.1000000000058,1360.7000000238475,1360.7000000238475,1350.1000000000058,1360.7000000238475,1.0,0.0,0.0,,Click To Continue,Next button,7.0,object-60,temp_dist_trial,24.0,s_sh_15_1,student_shared,usb drive,2.0,competing,single,s_sh_15_1.jpg,Student,,,sub-29
Desktop or Laptop,Windows 10,Chrome 138.0.0.0,1920x1080,1920x953,Temporal Distance Task,cb_02,72.0,temp_dist_trial,dist_items,qkpkxw,2.0,response,34,483.5,1350.1000000000058,1361.2000000238475,483.5,1350.1000000000058,1361.2000000238475,1.0,877.7000000238478,0.0,,Slider,Slider,4.0,object-56,temp_dist_trial,24.0,s_sh_15_1,student_shared,usb drive,2.0,competing,single,s_sh_15_1.jpg,Student,,,sub-29
Desktop or Laptop,Windows 10,Chrome 138.0.0.0,1920x1080,1920x953,Temporal Distance Task,cb_02,73.0,temp_dist_trial,num_items,zn7si1,1.0,response,2_ITEM,2508.0,2500.2999999999884,2508.0,2508.0,2500.2999999999884,2508.0,1.0,0.0,0.0,,Click Response,2_count,5.0,object-49,temp_dist_trial,25.0,s_s_12_1,student_stem,robotic arm,2.0,unique,paired,s_s_12_1.jpg,Student,,,sub-29
Desktop or Laptop,Windows 10,Chrome 138.0.0.0,1920x1080,1920x953,Temporal Distance Task,cb_02,73.0,temp_dist_trial,dist_items,qkpkxw,2.0,info,,4.000000071537215,0.0,4.000000071537215,4.000000071537215,0.0,4.000000071537215,1.0,0.0,0.0,,Slider,Slider,4.0,object-56,temp_dist_trial,25.0,s_s_12_1,student_stem,robotic arm,2.0,unique,paired,s_s_12_1.jpg,Student,,,sub-29
Desktop or Laptop,Windows 10,Chrome 138.0.0.0,1920x1080,1920x953,Temporal Distance Task,cb_02,73.0,temp_dist_trial,dist_items,qkpkxw,2.0,continue,,1313.8000000238535,1300.0,1313.8000000238535,1313.8000000238535,1300.0,1313.8000000238535,1.0,0.0,0.0,,Click To Continue,Next button,7.0,object-60,temp_dist_trial,25.0,s_s_12_1,student_stem,robotic arm,2.0,unique,paired,s_s_12_1.jpg,Student,,,sub-29
Desktop or Laptop,Windows 10,Chrome 138.0.0.0,1920x1080,1920x953,Temporal Distance Task,cb_02,73.0,temp_dist_trial,dist_items,qkpkxw,2.0,response,80,733.4000000000232,1300.0,1314.3000000238535,733.4000000000232,1300.0,1314.3000000238535,1.0,580.9000000238302,0.0,,Slider,Slider,4.0,object-56,temp_dist_trial,25.0,s_s_12_1,student_stem,robotic arm,2.0,unique,paired,s_s_12_1.jpg,Student,,,sub-29
Desktop or Laptop,Windows 10,Chrome 138.0.0.0,1920x1080,1920x953,Temporal Distance Task,cb_02,74.0,temp_dist_trial,num_items,zn7si1,1.0,response,2_ITEM,1077.5000000715372,1066.7999999999884,1077.5000000715372,1077.5000000715372,1066.7999999999884,1077.5000000715372,1.0,0.0,0.0,,Click Response,2_count,5.0,object-49,temp_dist_trial,26.0,s_sh_23_1,student_shared,ballpoint pen,2.0,competing,paired,s_sh_23_1.jpg,Student,,,sub-29
Desktop or Laptop,Windows 10,Chrome 138.0.0.0,1920x1080,1920x953,Temporal Distance Task,cb_02,74.0,temp_dist_trial,dist_items,qkpkxw,2.0,info,,5.800000071525574,0.0,5.800000071525574,5.800000071525574,0.0,5.800000071525574,1.0,0.0,0.0,,Slider,Slider,4.0,object-56,temp_dist_trial,26.0,s_sh_23_1,student_shared,ballpoint pen,2.0,competing,paired,s_sh_23_1.jpg,Student,,,sub-29
Desktop or Laptop,Windows 10,Chrome 138.0.0.0,1920x1080,1920x953,Temporal Distance Task,cb_02,74.0,temp_dist_trial,dist_items,qkpkxw,2.0,continue,,2088.200000047684,2083.5999999999767,2088.200000047684,2088.200000047684,2083.5999999999767,2088.200000047684,1.0,0.0,0.0,,Click To Continue,Next button,7.0,object-60,temp_dist_trial,26.0,s_sh_23_1,student_shared,ballpoint pen,2.0,competing,paired,s_sh_23_1.jpg,Student,,,sub-29
Desktop or Laptop,Windows 10,Chrome 138.0.0.0,1920x1080,1920x953,Temporal Distance Task,cb_02,74.0,temp_dist_trial,dist_items,qkpkxw,2.0,response,33,900.2000000000116,2083.5999999999767,2089.5,900.2000000000116,2083.5999999999767,2089.5,1.0,1189.2999999999886,0.0,,Slider,Slider,4.0,object-56,temp_dist_trial,26.0,s_sh_23_1,student_shared,ballpoint pen,2.0,competing,paired,s_sh_23_1.jpg,Student,,,sub-29
Desktop or Laptop,Windows 10,Chrome 138.0.0.0,1920x1080,1920x953,Temporal Distance Task,cb_02,75.0,temp_dist_trial,num_items,zn7si1,1.0,response,1_ITEM,1143.8000000953907,1133.3000000000466,1143.8000000953907,1143.8000000953907,1133.3000000000466,1143.8000000953907,1.0,0.0,0.0,,Click Response,1_count,3.0,object-46,temp_dist_trial,27.0,s_sh_11_1,student_shared,pencil case,2.0,competing,single,s_sh_11_1.jpg,Student,,,sub-29
Desktop or Laptop,Windows 10,Chrome 138.0.0.0,1920x1080,1920x953,Temporal Distance Task,cb_02,76.0,temp_dist_trial,num_items,zn7si1,1.0,response,1_ITEM,1261.7000000238186,1250.0,1261.7000000238186,1261.7000000238186,1250.0,1261.7000000238186,1.0,0.0,0.0,,Click Response,1_count,3.0,object-46,temp_dist_trial,28.0,s_a_12_1,student_art,saxophone,2.0,unique,single,s_a_12_1.jpg,Student,,,sub-29
Desktop or Laptop,Windows 10,Chrome 138.0.0.0,1920x1080,1920x953,Temporal Distance Task,cb_02,77.0,temp_dist_trial,num_items,zn7si1,1.0,response,1_ITEM,1329.7000000476835,1316.7000000000114,1329.7000000476835,1329.7000000476835,1316.7000000000114,1329.7000000476835,1.0,0.0,0.0,,Click Response,1_count,3.0,object-46,temp_dist_trial,29.0,s_a_18_1,student_art,tutu,2.0,unique,single,s_a_18_1.jpg,Student,,,sub-29
Desktop or Laptop,Windows 10,Chrome 138.0.0.0,1920x1080,1920x953,Temporal Distance Task,cb_02,78.0,temp_dist_trial,num_items,zn7si1,1.0,response,2_ITEM,1563.000000095344,1550.0,1563.000000095344,1563.000000095344,1550.0,1563.000000095344,1.0,0.0,0.0,,Click Response,2_count,5.0,object-49,temp_dist_trial,30.0,s_s_02_1,student_stem,flask,2.0,unique,paired,s_s_02_1.jpg,Student,,,sub-29
Desktop or Laptop,Windows 10,Chrome 138.0.0.0,1920x1080,1920x953,Temporal Distance Task,cb_02,78.0,temp_dist_trial,dist_items,qkpkxw,2.0,info,,4.900000071502291,0.0,4.900000071502291,4.900000071502291,0.0,4.900000071502291,1.0,0.0,0.0,,Slider,Slider,4.0,object-56,temp_dist_trial,30.0,s_s_02_1,student_stem,flask,2.0,unique,paired,s_s_02_1.jpg,Student,,,sub-29
Desktop or Laptop,Windows 10,Chrome 138.0.0.0,1920x1080,1920x953,Temporal Distance Task,cb_02,78.0,temp_dist_trial,dist_items,qkpkxw,2.0,continue,,3819.7000000238186,3817.0999999999767,3819.7000000238186,3819.7000000238186,3817.0999999999767,3819.7000000238186,1.0,0.0,0.0,,Click To Continue,Next button,7.0,object-60,temp_dist_trial,30.0,s_s_02_1,student_stem,flask,2.0,unique,paired,s_s_02_1.jpg,Student,,,sub-29
Desktop or Laptop,Windows 10,Chrome 138.0.0.0,1920x1080,1920x953,Temporal Distance Task,cb_02,78.0,temp_dist_trial,dist_items,qkpkxw,2.0,response,35,533.5999999999766,3817.0999999999767,3820.500000095344,533.5999999999766,3817.0999999999767,3820.500000095344,1.0,3286.9000000953674,0.0,,Slider,Slider,4.0,object-56,temp_dist_trial,30.0,s_s_02_1,student_stem,flask,2.0,unique,paired,s_s_02_1.jpg,Student,,,sub-29
Desktop or Laptop,Windows 10,Chrome 138.0.0.0,1920x1080,1920x953,Temporal Distance Task,cb_02,79.0,temp_dist_trial,num_items,zn7si1,1.0,response,2_ITEM,1362.8000000715256,1349.9000000000233,1362.8000000715256,1362.8000000715256,1349.9000000000233,1362.8000000715256,1.0,0.0,0.0,,Click Response,2_count,5.0,object-49,temp_dist_trial,31.0,s_sh_03_1,student_shared,highlighter,2.0,competing,paired,s_sh_03_1.jpg,Student,,,sub-29
Desktop or Laptop,Windows 10,Chrome 138.0.0.0,1920x1080,1920x953,Temporal Distance Task,cb_02,79.0,temp_dist_trial,dist_items,qkpkxw,2.0,info,,4.800000071525575,0.0,4.800000071525575,4.800000071525575,0.0,4.800000071525575,1.0,0.0,0.0,,Slider,Slider,4.0,object-56,temp_dist_trial,31.0,s_sh_03_1,student_shared,highlighter,2.0,competing,paired,s_sh_03_1.jpg,Student,,,sub-29
Desktop or Laptop,Windows 10,Chrome 138.0.0.0,1920x1080,1920x953,Temporal Distance Task,cb_02,79.0,temp_dist_trial,dist_items,qkpkxw,2.0,continue,,1222.7000000476835,1216.7000000000114,1222.7000000476835,1222.7000000476835,1216.7000000000114,1222.7000000476835,1.0,0.0,0.0,,Click To Continue,Next button,7.0,object-60,temp_dist_trial,31.0,s_sh_03_1,student_shared,highlighter,2.0,competing,paired,s_sh_03_1.jpg,Student,,,sub-29
Desktop or Laptop,Windows 10,Chrome 138.0.0.0,1920x1080,1920x953,Temporal Distance Task,cb_02,79.0,temp_dist_trial,dist_items,qkpkxw,2.0,response,61,600.0,1216.7000000000114,1223.7000000476835,600.0,1216.7000000000114,1223.7000000476835,1.0,623.7000000476837,0.0,,Slider,Slider,4.0,object-56,temp_dist_trial,31.0,s_sh_03_1,student_shared,highlighter,2.0,competing,paired,s_sh_03_1.jpg,Student,,,sub-29
Desktop or Laptop,Windows 10,Chrome 138.0.0.0,1920x1080,1920x953,Temporal Distance Task,cb_02,80.0,temp_dist_trial,num_items,zn7si1,1.0,response,2_ITEM,1051.2999999999884,1050.0,1051.2999999999884,1051.2999999999884,1050.0,1051.2999999999884,1.0,0.0,0.0,,Click Response,2_count,5.0,object-49,temp_dist_trial,32.0,s_sh_06_1,student_shared,clipboard,2.0,competing,single,s_sh_06_1.jpg,Student,,,sub-29
Desktop or Laptop,Windows 10,Chrome 138.0.0.0,1920x1080,1920x953,Temporal Distance Task,cb_02,80.0,temp_dist_trial,dist_items,qkpkxw,2.0,info,,5.2999999999883585,0.0,5.2999999999883585,5.2999999999883585,0.0,5.2999999999883585,1.0,0.0,0.0,,Slider,Slider,4.0,object-56,temp_dist_trial,32.0,s_sh_06_1,student_shared,clipboard,2.0,competing,single,s_sh_06_1.jpg,Student,,,sub-29
