Participant Device,Participant OS,Participant Browser,Participant Monitor Size,Participant Viewport Size,Task Name,Current Spreadsheet,Trial Number,Display,Screen,Screen ID,Screen Counter,Response Type,Response,Onset Time,Clock Time,Reaction Time,Absolute Onset Time,Absolute Clock Time,Absolute Reaction Time,Correct,Response Duration,Proportion,Tag,Component Name,Object Name,Object Number,Object ID,Spreadsheet: display,Spreadsheet: trial,Spreadsheet: stimulus_id,Spreadsheet: expected_goal,Spreadsheet: stimulus_name,Spreadsheet: c_group,Spreadsheet: condition,Spreadsheet: paired_status,Spreadsheet: stimulus_path,Spreadsheet: block_type,Manipulation: Spreadsheet,Store: enc_test_acc,sub_label
Desktop or Laptop,Windows 10,Edge 138.0.0.0,1280x720,1232x602,Temporal Distance Task,$${counterbalance_group},,,,,,info,BEGIN,,,,,,,0.0,,,,,,,,,,,,,,,,,,,,sub-13
Desktop or Laptop,Windows 10,Edge 138.0.0.0,1280x720,1232x602,Temporal Distance Task,cb_05,1.0,temp_instructions,intro_screen,3tnme7,1.0,continue,,6616.900000023841,6600.000000000001,6616.900000023841,6616.900000023841,6600.000000000001,6616.900000023841,1.0,0.0,0.0,,Click To Continue,Continue Button,4.0,object-29,temp_instructions,,,Student,,,,,,,,,sub-13
Desktop or Laptop,Windows 10,Edge 138.0.0.0,1280x720,1232x602,Temporal Distance Task,cb_05,1.0,temp_instructions,intro_screen_2,52v7ur,2.0,continue,,17550.499999928474,17533.0,17550.499999928474,17550.499999928474,17533.0,17550.499999928474,1.0,0.0,0.0,,Click To Continue,Continue Button,4.0,object-39,temp_instructions,,,Student,,,,,,,,,sub-13
Desktop or Laptop,Windows 10,Edge 138.0.0.0,1280x720,1232x602,Temporal Distance Task,cb_05,1.0,temp_instructions,intro_screen_3,i7lvwx,3.0,continue,,9899.799999999992,9866.499999999996,9899.799999999992,9899.799999999992,9866.499999999996,9899.799999999992,1.0,0.0,0.0,,Click To Continue,Continue Button,4.0,object-67,temp_instructions,,,Student,,,,,,,,,sub-13
Desktop or Laptop,Windows 10,Edge 138.0.0.0,1280x720,1232x602,Temporal Distance Task,cb_05,1.0,temp_instructions,test_q1,5ieqx1,4.0,response,choice_1,5823.599999952319,5800.0,5823.599999952319,5823.599999952319,5800.0,5823.599999952319,0.0,0.0,0.0,,Click Response,choice_1,3.0,object-343,temp_instructions,,,Student,,,,,,,,,sub-13
Desktop or Laptop,Windows 10,Edge 138.0.0.0,1280x720,1232x602,Temporal Distance Task,cb_05,1.0,temp_instructions,intro_screen,3tnme7,5.0,continue,,3149.900000023845,3133.300000000003,3149.900000023845,3149.900000023845,3133.300000000003,3149.900000023845,1.0,0.0,0.0,,Click To Continue,Continue Button,4.0,object-29,temp_instructions,,,Student,,,,,,,,,sub-13
Desktop or Laptop,Windows 10,Edge 138.0.0.0,1280x720,1232x602,Temporal Distance Task,cb_05,1.0,temp_instructions,intro_screen_2,52v7ur,6.0,continue,,5727.100000023842,5699.0999999999985,5727.100000023842,5727.100000023842,5699.0999999999985,5727.100000023842,1.0,0.0,0.0,,Click To Continue,Continue Button,4.0,object-39,temp_instructions,,,Student,,,,,,,,,sub-13
Desktop or Laptop,Windows 10,Edge 138.0.0.0,1280x720,1232x602,Temporal Distance Task,cb_05,1.0,temp_instructions,intro_screen_3,i7lvwx,7.0,continue,,887.5999999284758,866.7000000000045,887.5999999284758,887.5999999284758,866.7000000000045,887.5999999284758,1.0,0.0,0.0,,Click To Continue,Continue Button,4.0,object-67,temp_instructions,,,Student,,,,,,,,,sub-13
Desktop or Laptop,Windows 10,Edge 138.0.0.0,1280x720,1232x602,Temporal Distance Task,cb_05,1.0,temp_instructions,test_q1,5ieqx1,8.0,response,choice_3,1541.4999999523136,1533.2999999999954,1541.4999999523136,1541.4999999523136,1533.2999999999954,1541.4999999523136,1.0,0.0,0.0,,Click Response,choice_3,5.0,object-345,temp_instructions,,,Student,,,,,,,,,sub-13
Desktop or Laptop,Windows 10,Edge 138.0.0.0,1280x720,1232x602,Temporal Distance Task,cb_05,1.0,temp_instructions,score_corr,7ilvjr,9.0,continue,,1353.9000000000015,1333.3000000000031,1353.9000000000015,1353.9000000000015,1333.3000000000031,1353.9000000000015,1.0,0.0,0.0,,Click To Continue,Continue Button,3.0,object-23,temp_instructions,,,Student,,,,,,,,,sub-13
Desktop or Laptop,Windows 10,Edge 138.0.0.0,1280x720,1232x602,Temporal Distance Task,cb_05,1.0,temp_eventStart,Screen 1,dgtyxe,1.0,continue,,4627.999999976158,4600.0,4627.999999976158,4627.999999976158,4600.0,4627.999999976158,1.0,0.0,0.0,,Click To Continue,Next Button,3.0,object-43,temp_eventStart,,,Student,,,,,,,,,sub-13
Desktop or Laptop,Windows 10,Edge 138.0.0.0,1280x720,1232x602,Temporal Distance Task,cb_05,1.0,temp_dist_trial,num_items,zn7si1,1.0,response,2_ITEM,1864.299999928473,1833.299999999996,1864.299999928473,1864.299999928473,1833.299999999996,1864.299999928473,1.0,0.0,0.0,,Click Response,2_count,5.0,object-49,temp_dist_trial,1.0,s_a_08_1,student_art,sewing machine,5.0,unique,paired,s_a_08_1.jpg,Student,,,sub-13
Desktop or Laptop,Windows 10,Edge 138.0.0.0,1280x720,1232x602,Temporal Distance Task,cb_05,1.0,temp_dist_trial,dist_items,qkpkxw,2.0,info,,8.599999976155232,0.0,8.599999976155232,8.599999976155232,0.0,8.599999976155232,1.0,0.0,0.0,,Slider,Slider,4.0,object-56,temp_dist_trial,1.0,s_a_08_1,student_art,sewing machine,5.0,unique,paired,s_a_08_1.jpg,Student,,,sub-13
Desktop or Laptop,Windows 10,Edge 138.0.0.0,1280x720,1232x602,Temporal Distance Task,cb_05,1.0,temp_dist_trial,dist_items,qkpkxw,2.0,continue,,4054.800000023839,4033.3999999999933,4054.800000023839,4054.800000023839,4033.3999999999933,4054.800000023839,1.0,0.0,0.0,,Click To Continue,Next button,7.0,object-60,temp_dist_trial,1.0,s_a_08_1,student_art,sewing machine,5.0,unique,paired,s_a_08_1.jpg,Student,,,sub-13
Desktop or Laptop,Windows 10,Edge 138.0.0.0,1280x720,1232x602,Temporal Distance Task,cb_05,1.0,temp_dist_trial,dist_items,qkpkxw,2.0,response,89,1966.6999999999966,4033.3999999999933,4056.8999999284724,1966.6999999999966,4033.3999999999933,4056.8999999284724,1.0,2090.1999999284744,0.0,,Slider,Slider,4.0,object-56,temp_dist_trial,1.0,s_a_08_1,student_art,sewing machine,5.0,unique,paired,s_a_08_1.jpg,Student,,,sub-13
Desktop or Laptop,Windows 10,Edge 138.0.0.0,1280x720,1232x602,Temporal Distance Task,cb_05,2.0,temp_dist_trial,num_items,zn7si1,1.0,response,1_ITEM,1885.9999999284769,1866.6000000000056,1885.9999999284769,1885.9999999284769,1866.6000000000056,1885.9999999284769,1.0,0.0,0.0,,Click Response,1_count,3.0,object-46,temp_dist_trial,2.0,s_s_03_1,student_stem,petri dish,5.0,unique,paired,s_s_03_1.jpg,Student,,,sub-13
Desktop or Laptop,Windows 10,Edge 138.0.0.0,1280x720,1232x602,Temporal Distance Task,cb_05,3.0,temp_dist_trial,num_items,zn7si1,1.0,response,2_ITEM,1237.3999999999942,1233.2999999999886,1237.3999999999942,1237.3999999999942,1233.2999999999886,1237.3999999999942,1.0,0.0,0.0,,Click Response,2_count,5.0,object-49,temp_dist_trial,3.0,s_sh_02_1,student_shared,eraser,5.0,competing,paired,s_sh_02_1.jpg,Student,,,sub-13
Desktop or Laptop,Windows 10,Edge 138.0.0.0,1280x720,1232x602,Temporal Distance Task,cb_05,3.0,temp_dist_trial,dist_items,qkpkxw,2.0,info,,7.69999999999709,0.0,7.69999999999709,7.69999999999709,0.0,7.69999999999709,1.0,0.0,0.0,,Slider,Slider,4.0,object-56,temp_dist_trial,3.0,s_sh_02_1,student_shared,eraser,5.0,competing,paired,s_sh_02_1.jpg,Student,,,sub-13
Desktop or Laptop,Windows 10,Edge 138.0.0.0,1280x720,1232x602,Temporal Distance Task,cb_05,3.0,temp_dist_trial,dist_items,qkpkxw,2.0,continue,,2035.1999999999966,2033.1999999999966,2035.1999999999966,2035.1999999999966,2033.1999999999966,2035.1999999999966,1.0,0.0,0.0,,Click To Continue,Next button,7.0,object-60,temp_dist_trial,3.0,s_sh_02_1,student_shared,eraser,5.0,competing,paired,s_sh_02_1.jpg,Student,,,sub-13
Desktop or Laptop,Windows 10,Edge 138.0.0.0,1280x720,1232x602,Temporal Distance Task,cb_05,3.0,temp_dist_trial,dist_items,qkpkxw,2.0,response,69,900.0,2033.1999999999966,2035.6999999999966,900.0,2033.1999999999966,2035.6999999999966,1.0,1135.6999999999969,0.0,,Slider,Slider,4.0,object-56,temp_dist_trial,3.0,s_sh_02_1,student_shared,eraser,5.0,competing,paired,s_sh_02_1.jpg,Student,,,sub-13
Desktop or Laptop,Windows 10,Edge 138.0.0.0,1280x720,1232x602,Temporal Distance Task,cb_05,4.0,temp_dist_trial,num_items,zn7si1,1.0,response,2_ITEM,2042.3999999761581,2033.3999999999944,2042.3999999761581,2042.3999999761581,2033.3999999999944,2042.3999999761581,1.0,0.0,0.0,,Click Response,2_count,5.0,object-49,temp_dist_trial,4.0,s_a_01_1,student_art,paintbrush,5.0,unique,paired,s_a_01_1.jpg,Student,,,sub-13
Desktop or Laptop,Windows 10,Edge 138.0.0.0,1280x720,1232x602,Temporal Distance Task,cb_05,4.0,temp_dist_trial,dist_items,qkpkxw,2.0,info,,4.5,0.0,4.5,4.5,0.0,4.5,1.0,0.0,0.0,,Slider,Slider,4.0,object-56,temp_dist_trial,4.0,s_a_01_1,student_art,paintbrush,5.0,unique,paired,s_a_01_1.jpg,Student,,,sub-13
Desktop or Laptop,Windows 10,Edge 138.0.0.0,1280x720,1232x602,Temporal Distance Task,cb_05,4.0,temp_dist_trial,dist_items,qkpkxw,2.0,continue,,2078.399999976158,2066.699999999997,2078.399999976158,2078.399999976158,2066.699999999997,2078.399999976158,1.0,0.0,0.0,,Click To Continue,Next button,7.0,object-60,temp_dist_trial,4.0,s_a_01_1,student_art,paintbrush,5.0,unique,paired,s_a_01_1.jpg,Student,,,sub-13
Desktop or Laptop,Windows 10,Edge 138.0.0.0,1280x720,1232x602,Temporal Distance Task,cb_05,4.0,temp_dist_trial,dist_items,qkpkxw,2.0,response,62,866.6999999999971,2066.699999999997,2078.7999999523167,866.6999999999971,2066.699999999997,2078.7999999523167,1.0,1212.0999999523192,0.0,,Slider,Slider,4.0,object-56,temp_dist_trial,4.0,s_a_01_1,student_art,paintbrush,5.0,unique,paired,s_a_01_1.jpg,Student,,,sub-13
Desktop or Laptop,Windows 10,Edge 138.0.0.0,1280x720,1232x602,Temporal Distance Task,cb_05,5.0,temp_dist_trial,num_items,zn7si1,1.0,response,1_ITEM,2612.9000000238448,2600.0,2612.9000000238448,2612.9000000238448,2600.0,2612.9000000238448,1.0,0.0,0.0,,Click Response,1_count,3.0,object-46,temp_dist_trial,5.0,s_s_17_1,student_stem,ring stand,5.0,unique,paired,s_s_17_1.jpg,Student,,,sub-13
Desktop or Laptop,Windows 10,Edge 138.0.0.0,1280x720,1232x602,Temporal Distance Task,cb_05,6.0,temp_dist_trial,num_items,zn7si1,1.0,response,1_ITEM,2862.099999976155,2833.300000000003,2862.099999976155,2862.099999976155,2833.300000000003,2862.099999976155,1.0,0.0,0.0,,Click Response,1_count,3.0,object-46,temp_dist_trial,6.0,s_sh_11_1,student_shared,pencil case,5.0,competing,single,s_sh_11_1.jpg,Student,,,sub-13
Desktop or Laptop,Windows 10,Edge 138.0.0.0,1280x720,1232x602,Temporal Distance Task,cb_05,7.0,temp_dist_trial,num_items,zn7si1,1.0,response,2_ITEM,1296.100000023842,1266.6999999999969,1296.100000023842,1296.100000023842,1266.6999999999969,1296.100000023842,1.0,0.0,0.0,,Click Response,2_count,5.0,object-49,temp_dist_trial,7.0,s_a_07_1,student_art,yarn,5.0,unique,paired,s_a_07_1.jpg,Student,,,sub-13
Desktop or Laptop,Windows 10,Edge 138.0.0.0,1280x720,1232x602,Temporal Distance Task,cb_05,7.0,temp_dist_trial,dist_items,qkpkxw,2.0,info,,9.099999976155232,0.0,9.099999976155232,9.099999976155232,0.0,9.099999976155232,1.0,0.0,0.0,,Slider,Slider,4.0,object-56,temp_dist_trial,7.0,s_a_07_1,student_art,yarn,5.0,unique,paired,s_a_07_1.jpg,Student,,,sub-13
Desktop or Laptop,Windows 10,Edge 138.0.0.0,1280x720,1232x602,Temporal Distance Task,cb_05,7.0,temp_dist_trial,dist_items,qkpkxw,2.0,continue,,2512.699999999997,2499.8999999999937,2512.699999999997,2512.699999999997,2499.8999999999937,2512.699999999997,1.0,0.0,0.0,,Click To Continue,Next button,7.0,object-60,temp_dist_trial,7.0,s_a_07_1,student_art,yarn,5.0,unique,paired,s_a_07_1.jpg,Student,,,sub-13
Desktop or Laptop,Windows 10,Edge 138.0.0.0,1280x720,1232x602,Temporal Distance Task,cb_05,7.0,temp_dist_trial,dist_items,qkpkxw,2.0,response,43,1200.0,2499.8999999999937,2512.999999952313,1200.0,2499.8999999999937,2512.999999952313,1.0,1312.9999999523136,0.0,,Slider,Slider,4.0,object-56,temp_dist_trial,7.0,s_a_07_1,student_art,yarn,5.0,unique,paired,s_a_07_1.jpg,Student,,,sub-13
Desktop or Laptop,Windows 10,Edge 138.0.0.0,1280x720,1232x602,Temporal Distance Task,cb_05,8.0,temp_dist_trial,num_items,zn7si1,1.0,response,2_ITEM,1327.699999976161,1300.0,1327.699999976161,1327.699999976161,1300.0,1327.699999976161,1.0,0.0,0.0,,Click Response,2_count,5.0,object-49,temp_dist_trial,8.0,s_a_13_1,student_art,violin,5.0,unique,paired,s_a_13_1.jpg,Student,,,sub-13
Desktop or Laptop,Windows 10,Edge 138.0.0.0,1280x720,1232x602,Temporal Distance Task,cb_05,8.0,temp_dist_trial,dist_items,qkpkxw,2.0,info,,4.3999999999941775,0.0,4.3999999999941775,4.3999999999941775,0.0,4.3999999999941775,1.0,0.0,0.0,,Slider,Slider,4.0,object-56,temp_dist_trial,8.0,s_a_13_1,student_art,violin,5.0,unique,paired,s_a_13_1.jpg,Student,,,sub-13
Desktop or Laptop,Windows 10,Edge 138.0.0.0,1280x720,1232x602,Temporal Distance Task,cb_05,8.0,temp_dist_trial,dist_items,qkpkxw,2.0,continue,,2960.2999999761523,2933.2999999999884,2960.2999999761523,2960.2999999761523,2933.2999999999884,2960.2999999761523,1.0,0.0,0.0,,Click To Continue,Next button,7.0,object-60,temp_dist_trial,8.0,s_a_13_1,student_art,violin,5.0,unique,paired,s_a_13_1.jpg,Student,,,sub-13
Desktop or Laptop,Windows 10,Edge 138.0.0.0,1280x720,1232x602,Temporal Distance Task,cb_05,8.0,temp_dist_trial,dist_items,qkpkxw,2.0,response,51,1033.2999999999884,2933.2999999999884,2964.8999999999933,1033.2999999999884,2933.2999999999884,2964.8999999999933,1.0,1931.6000000000056,0.0,,Slider,Slider,4.0,object-56,temp_dist_trial,8.0,s_a_13_1,student_art,violin,5.0,unique,paired,s_a_13_1.jpg,Student,,,sub-13
Desktop or Laptop,Windows 10,Edge 138.0.0.0,1280x720,1232x602,Temporal Distance Task,cb_05,9.0,temp_dist_trial,num_items,zn7si1,1.0,response,1_ITEM,2211.700000023848,2200.0,2211.700000023848,2211.700000023848,2200.0,2211.700000023848,1.0,0.0,0.0,,Click Response,1_count,3.0,object-46,temp_dist_trial,9.0,s_sh_17_1,student_shared,wireless mouse,5.0,competing,paired,s_sh_17_1.jpg,Student,,,sub-13
Desktop or Laptop,Windows 10,Edge 138.0.0.0,1280x720,1232x602,Temporal Distance Task,cb_05,10.0,temp_dist_trial,num_items,zn7si1,1.0,response,num_miss,3000.0,3000.0,3000.0,3000.0,3000.0,3000.0,1.0,0.0,0.0,num_miss_tag,Time Limit,screen,0.0,screen,temp_dist_trial,10.0,s_s_05_1,student_stem,lab goggles,5.0,unique,single,s_s_05_1.jpg,Student,,,sub-13
Desktop or Laptop,Windows 10,Edge 138.0.0.0,1280x720,1232x602,Temporal Distance Task,cb_05,11.0,temp_dist_trial,num_items,zn7si1,1.0,response,1_ITEM,1817.5,1798.8999999999942,1817.5,1817.5,1798.8999999999942,1817.5,1.0,0.0,0.0,,Click Response,1_count,3.0,object-46,temp_dist_trial,11.0,s_s_16_1,student_stem,toolbox,5.0,unique,paired,s_s_16_1.jpg,Student,,,sub-13
Desktop or Laptop,Windows 10,Edge 138.0.0.0,1280x720,1232x602,Temporal Distance Task,cb_05,12.0,temp_dist_trial,num_items,zn7si1,1.0,response,1_ITEM,1843.7999999523165,1833.3000000000034,1843.7999999523165,1843.7999999523165,1833.3000000000034,1843.7999999523165,1.0,0.0,0.0,,Click Response,1_count,3.0,object-46,temp_dist_trial,12.0,s_sh_24_1,student_shared,desk organizer,5.0,competing,single,s_sh_24_1.jpg,Student,,,sub-13
Desktop or Laptop,Windows 10,Edge 138.0.0.0,1280x720,1232x602,Temporal Distance Task,cb_05,13.0,temp_dist_trial,num_items,zn7si1,1.0,response,2_ITEM,1298.9000000238448,1266.6999999999969,1298.9000000238448,1298.9000000238448,1266.6999999999969,1298.9000000238448,1.0,0.0,0.0,,Click Response,2_count,5.0,object-49,temp_dist_trial,13.0,s_a_15_1,student_art,drum kit,5.0,unique,paired,s_a_15_1.jpg,Student,,,sub-13
Desktop or Laptop,Windows 10,Edge 138.0.0.0,1280x720,1232x602,Temporal Distance Task,cb_05,13.0,temp_dist_trial,dist_items,qkpkxw,2.0,info,,4.299999952316283,0.0,4.299999952316283,4.299999952316283,0.0,4.299999952316283,1.0,0.0,0.0,,Slider,Slider,4.0,object-56,temp_dist_trial,13.0,s_a_15_1,student_art,drum kit,5.0,unique,paired,s_a_15_1.jpg,Student,,,sub-13
Desktop or Laptop,Windows 10,Edge 138.0.0.0,1280x720,1232x602,Temporal Distance Task,cb_05,13.0,temp_dist_trial,dist_items,qkpkxw,2.0,continue,,2978.2999999523163,2966.699999999997,2978.2999999523163,2978.2999999523163,2966.699999999997,2978.2999999523163,1.0,0.0,0.0,,Click To Continue,Next button,7.0,object-60,temp_dist_trial,13.0,s_a_15_1,student_art,drum kit,5.0,unique,paired,s_a_15_1.jpg,Student,,,sub-13
Desktop or Laptop,Windows 10,Edge 138.0.0.0,1280x720,1232x602,Temporal Distance Task,cb_05,13.0,temp_dist_trial,dist_items,qkpkxw,2.0,response,67,1866.6999999999966,2966.699999999997,2978.5,1866.6999999999966,2966.699999999997,2978.5,1.0,1111.8000000000031,0.0,,Slider,Slider,4.0,object-56,temp_dist_trial,13.0,s_a_15_1,student_art,drum kit,5.0,unique,paired,s_a_15_1.jpg,Student,,,sub-13
Desktop or Laptop,Windows 10,Edge 138.0.0.0,1280x720,1232x602,Temporal Distance Task,cb_05,14.0,temp_dist_trial,num_items,zn7si1,1.0,response,1_ITEM,2734.699999976161,2733.199999999997,2734.699999976161,2734.699999976161,2733.199999999997,2734.699999976161,1.0,0.0,0.0,,Click Response,1_count,3.0,object-46,temp_dist_trial,14.0,s_a_06_1,student_art,pastels,5.0,unique,paired,s_a_06_1.jpg,Student,,,sub-13
Desktop or Laptop,Windows 10,Edge 138.0.0.0,1280x720,1232x602,Temporal Distance Task,cb_05,15.0,temp_dist_trial,num_items,zn7si1,1.0,response,1_ITEM,1201.3999999284715,1200.0,1201.3999999284715,1201.3999999284715,1200.0,1201.3999999284715,1.0,0.0,0.0,,Click Response,1_count,3.0,object-46,temp_dist_trial,15.0,s_sh_20_1,student_shared,tape,5.0,competing,paired,s_sh_20_1.jpg,Student,,,sub-13
Desktop or Laptop,Windows 10,Edge 138.0.0.0,1280x720,1232x602,Temporal Distance Task,cb_05,16.0,temp_dist_trial,num_items,zn7si1,1.0,response,num_miss,2999.8999999999933,2999.8999999999933,2999.8999999999933,2999.8999999999933,2999.8999999999933,2999.8999999999933,1.0,0.0,0.0,num_miss_tag,Time Limit,screen,0.0,screen,temp_dist_trial,16.0,s_a_03_1,student_art,palette,5.0,unique,paired,s_a_03_1.jpg,Student,,,sub-13
Desktop or Laptop,Windows 10,Edge 138.0.0.0,1280x720,1232x602,Temporal Distance Task,cb_05,17.0,temp_dist_trial,num_items,zn7si1,1.0,response,1_ITEM,413.99999992847717,399.6999999999971,413.99999992847717,413.99999992847717,399.6999999999971,413.99999992847717,1.0,0.0,0.0,,Click Response,1_count,3.0,object-46,temp_dist_trial,17.0,s_sh_16_1,student_shared,stapler,5.0,competing,paired,s_sh_16_1.jpg,Student,,,sub-13
Desktop or Laptop,Windows 10,Edge 138.0.0.0,1280x720,1232x602,Temporal Distance Task,cb_05,18.0,temp_dist_trial,num_items,zn7si1,1.0,response,1_ITEM,1002.1999999284744,1000.0,1002.1999999284744,1002.1999999284744,1000.0,1002.1999999284744,1.0,0.0,0.0,,Click Response,1_count,3.0,object-46,temp_dist_trial,18.0,s_sh_14_1,student_shared,printer,5.0,competing,single,s_sh_14_1.jpg,Student,,,sub-13
Desktop or Laptop,Windows 10,Edge 138.0.0.0,1280x720,1232x602,Temporal Distance Task,cb_05,19.0,temp_dist_trial,num_items,zn7si1,1.0,response,1_ITEM,2024.899999952322,2000.0,2024.899999952322,2024.899999952322,2000.0,2024.899999952322,1.0,0.0,0.0,,Click Response,1_count,3.0,object-46,temp_dist_trial,19.0,s_sh_19_1,student_shared,portable plastic drawer,5.0,competing,paired,s_sh_19_1.jpg,Student,,,sub-13
Desktop or Laptop,Windows 10,Edge 138.0.0.0,1280x720,1232x602,Temporal Distance Task,cb_05,20.0,temp_dist_trial,num_items,zn7si1,1.0,response,1_ITEM,1481.2999999523165,1466.6999999999966,1481.2999999523165,1481.2999999523165,1466.6999999999966,1481.2999999523165,1.0,0.0,0.0,,Click Response,1_count,3.0,object-46,temp_dist_trial,20.0,s_s_04_1,student_stem,bunsen burner,5.0,unique,single,s_s_04_1.jpg,Student,,,sub-13
Desktop or Laptop,Windows 10,Edge 138.0.0.0,1280x720,1232x602,Temporal Distance Task,cb_05,21.0,temp_dist_trial,num_items,zn7si1,1.0,response,1_ITEM,2807.3999999284715,2800.0,2807.3999999284715,2807.3999999284715,2800.0,2807.3999999284715,1.0,0.0,0.0,,Click Response,1_count,3.0,object-46,temp_dist_trial,21.0,s_s_14_1,student_stem,funnel,5.0,unique,paired,s_s_14_1.jpg,Student,,,sub-13
Desktop or Laptop,Windows 10,Edge 138.0.0.0,1280x720,1232x602,Temporal Distance Task,cb_05,22.0,temp_dist_trial,num_items,zn7si1,1.0,response,num_miss,2999.900000000009,2999.900000000009,2999.900000000009,2999.900000000009,2999.900000000009,2999.900000000009,1.0,0.0,0.0,num_miss_tag,Time Limit,screen,0.0,screen,temp_dist_trial,22.0,s_sh_15_1,student_shared,usb drive,5.0,competing,single,s_sh_15_1.jpg,Student,,,sub-13
Desktop or Laptop,Windows 10,Edge 138.0.0.0,1280x720,1232x602,Temporal Distance Task,cb_05,23.0,temp_dist_trial,num_items,zn7si1,1.0,response,1_ITEM,2113.1000000000063,2099.9000000000087,2113.1000000000063,2113.1000000000063,2099.9000000000087,2113.1000000000063,1.0,0.0,0.0,,Click Response,1_count,3.0,object-46,temp_dist_trial,23.0,s_sh_10_1,student_shared,scissors,5.0,competing,single,s_sh_10_1.jpg,Student,,,sub-13
Desktop or Laptop,Windows 10,Edge 138.0.0.0,1280x720,1232x602,Temporal Distance Task,cb_05,24.0,temp_dist_trial,num_items,zn7si1,1.0,response,1_ITEM,2069.300000000003,2066.6000000000063,2069.300000000003,2069.300000000003,2066.6000000000063,2069.300000000003,1.0,0.0,0.0,,Click Response,1_count,3.0,object-46,temp_dist_trial,24.0,s_s_12_1,student_stem,robotic arm,5.0,unique,single,s_s_12_1.jpg,Student,,,sub-13
Desktop or Laptop,Windows 10,Edge 138.0.0.0,1280x720,1232x602,Temporal Distance Task,cb_05,25.0,temp_dist_trial,num_items,zn7si1,1.0,response,2_ITEM,948.8000000000028,933.3000000000028,948.8000000000028,948.8000000000028,933.3000000000028,948.8000000000028,1.0,0.0,0.0,,Click Response,2_count,5.0,object-49,temp_dist_trial,25.0,s_sh_23_1,student_shared,ballpoint pen,5.0,competing,paired,s_sh_23_1.jpg,Student,,,sub-13
Desktop or Laptop,Windows 10,Edge 138.0.0.0,1280x720,1232x602,Temporal Distance Task,cb_05,25.0,temp_dist_trial,dist_items,qkpkxw,2.0,info,,3.8000000000029104,0.0,3.8000000000029104,3.8000000000029104,0.0,3.8000000000029104,1.0,0.0,0.0,,Slider,Slider,4.0,object-56,temp_dist_trial,25.0,s_sh_23_1,student_shared,ballpoint pen,5.0,competing,paired,s_sh_23_1.jpg,Student,,,sub-13
Desktop or Laptop,Windows 10,Edge 138.0.0.0,1280x720,1232x602,Temporal Distance Task,cb_05,25.0,temp_dist_trial,dist_items,qkpkxw,2.0,continue,,2459.800000000003,2433.300000000003,2459.800000000003,2459.800000000003,2433.300000000003,2459.800000000003,1.0,0.0,0.0,,Click To Continue,Next button,7.0,object-60,temp_dist_trial,25.0,s_sh_23_1,student_shared,ballpoint pen,5.0,competing,paired,s_sh_23_1.jpg,Student,,,sub-13
Desktop or Laptop,Windows 10,Edge 138.0.0.0,1280x720,1232x602,Temporal Distance Task,cb_05,25.0,temp_dist_trial,dist_items,qkpkxw,2.0,response,65,1033.3000000000031,2433.300000000003,2460.300000000003,1033.3000000000031,2433.300000000003,2460.300000000003,1.0,1427.0,0.0,,Slider,Slider,4.0,object-56,temp_dist_trial,25.0,s_sh_23_1,student_shared,ballpoint pen,5.0,competing,paired,s_sh_23_1.jpg,Student,,,sub-13
Desktop or Laptop,Windows 10,Edge 138.0.0.0,1280x720,1232x602,Temporal Distance Task,cb_05,26.0,temp_dist_trial,num_items,zn7si1,1.0,response,2_ITEM,2953.0,2933.2999999999884,2953.0,2953.0,2933.2999999999884,2953.0,1.0,0.0,0.0,,Click Response,2_count,5.0,object-49,temp_dist_trial,26.0,s_sh_06_1,student_shared,clipboard,5.0,competing,single,s_sh_06_1.jpg,Student,,,sub-13
Desktop or Laptop,Windows 10,Edge 138.0.0.0,1280x720,1232x602,Temporal Distance Task,cb_05,26.0,temp_dist_trial,dist_items,qkpkxw,2.0,info,,4.0,0.0,4.0,4.0,0.0,4.0,1.0,0.0,0.0,,Slider,Slider,4.0,object-56,temp_dist_trial,26.0,s_sh_06_1,student_shared,clipboard,5.0,competing,single,s_sh_06_1.jpg,Student,,,sub-13
Desktop or Laptop,Windows 10,Edge 138.0.0.0,1280x720,1232x602,Temporal Distance Task,cb_05,26.0,temp_dist_trial,dist_items,qkpkxw,2.0,continue,,2152.7999999523167,2133.2999999999884,2152.7999999523167,2152.7999999523167,2133.2999999999884,2152.7999999523167,1.0,0.0,0.0,,Click To Continue,Next button,7.0,object-60,temp_dist_trial,26.0,s_sh_06_1,student_shared,clipboard,5.0,competing,single,s_sh_06_1.jpg,Student,,,sub-13
Desktop or Laptop,Windows 10,Edge 138.0.0.0,1280x720,1232x602,Temporal Distance Task,cb_05,26.0,temp_dist_trial,dist_items,qkpkxw,2.0,response,49,666.6000000000057,2133.2999999999884,2153.100000023842,666.6000000000057,2133.2999999999884,2153.100000023842,1.0,1486.500000023836,0.0,,Slider,Slider,4.0,object-56,temp_dist_trial,26.0,s_sh_06_1,student_shared,clipboard,5.0,competing,single,s_sh_06_1.jpg,Student,,,sub-13
Desktop or Laptop,Windows 10,Edge 138.0.0.0,1280x720,1232x602,Temporal Distance Task,cb_05,27.0,temp_dist_trial,num_items,zn7si1,1.0,response,num_miss,2999.9000000000237,2999.9000000000237,2999.9000000000237,2999.9000000000237,2999.9000000000237,2999.9000000000237,1.0,0.0,0.0,num_miss_tag,Time Limit,screen,0.0,screen,temp_dist_trial,27.0,s_s_18_1,student_stem,brain model,5.0,unique,single,s_s_18_1.jpg,Student,,,sub-13
Desktop or Laptop,Windows 10,Edge 138.0.0.0,1280x720,1232x602,Temporal Distance Task,cb_05,28.0,temp_dist_trial,num_items,zn7si1,1.0,response,1_ITEM,2380.200000000012,2366.6000000000063,2380.200000000012,2380.200000000012,2366.6000000000063,2380.200000000012,1.0,0.0,0.0,,Click Response,1_count,3.0,object-46,temp_dist_trial,28.0,s_sh_08_1,student_shared,post-its,5.0,competing,paired,s_sh_08_1.jpg,Student,,,sub-13
Desktop or Laptop,Windows 10,Edge 138.0.0.0,1280x720,1232x602,Temporal Distance Task,cb_05,29.0,temp_dist_trial,num_items,zn7si1,1.0,response,1_ITEM,1230.5,1200.0,1230.5,1230.5,1200.0,1230.5,1.0,0.0,0.0,,Click Response,1_count,3.0,object-46,temp_dist_trial,29.0,s_a_20_1,student_art,pin cushion,5.0,unique,single,s_a_20_1.jpg,Student,,,sub-13
Desktop or Laptop,Windows 10,Edge 138.0.0.0,1280x720,1232x602,Temporal Distance Task,cb_05,30.0,temp_dist_trial,num_items,zn7si1,1.0,response,1_ITEM,1286.1999999761465,1266.5999999999767,1286.1999999761465,1286.1999999761465,1266.5999999999767,1286.1999999761465,1.0,0.0,0.0,,Click Response,1_count,3.0,object-46,temp_dist_trial,30.0,s_s_13_1,student_stem,telescope,5.0,unique,paired,s_s_13_1.jpg,Student,,,sub-13
Desktop or Laptop,Windows 10,Edge 138.0.0.0,1280x720,1232x602,Temporal Distance Task,cb_05,31.0,temp_dist_trial,num_items,zn7si1,1.0,response,1_ITEM,2434.9000000238298,2433.2999999999884,2434.9000000238298,2434.9000000238298,2433.2999999999884,2434.9000000238298,1.0,0.0,0.0,,Click Response,1_count,3.0,object-46,temp_dist_trial,31.0,s_sh_13_1,student_shared,index cards,5.0,competing,single,s_sh_13_1.jpg,Student,,,sub-13
Desktop or Laptop,Windows 10,Edge 138.0.0.0,1280x720,1232x602,Temporal Distance Task,cb_05,32.0,temp_dist_trial,num_items,zn7si1,1.0,response,2_ITEM,1266.3999999523219,1233.2000000000114,1266.3999999523219,1266.3999999523219,1233.2000000000114,1266.3999999523219,1.0,0.0,0.0,,Click Response,2_count,5.0,object-49,temp_dist_trial,32.0,s_sh_05_1,student_shared,laptop,5.0,competing,paired,s_sh_05_1.jpg,Student,,,sub-13
Desktop or Laptop,Windows 10,Edge 138.0.0.0,1280x720,1232x602,Temporal Distance Task,cb_05,32.0,temp_dist_trial,dist_items,qkpkxw,2.0,info,,3.399999928486068,0.0,3.399999928486068,3.399999928486068,0.0,3.399999928486068,1.0,0.0,0.0,,Slider,Slider,4.0,object-56,temp_dist_trial,32.0,s_sh_05_1,student_shared,laptop,5.0,competing,paired,s_sh_05_1.jpg,Student,,,sub-13
Desktop or Laptop,Windows 10,Edge 138.0.0.0,1280x720,1232x602,Temporal Distance Task,cb_05,32.0,temp_dist_trial,dist_items,qkpkxw,2.0,continue,,2620.999999952328,2599.9000000000233,2620.999999952328,2620.999999952328,2599.9000000000233,2620.999999952328,1.0,0.0,0.0,,Click To Continue,Next button,7.0,object-60,temp_dist_trial,32.0,s_sh_05_1,student_shared,laptop,5.0,competing,paired,s_sh_05_1.jpg,Student,,,sub-13
Desktop or Laptop,Windows 10,Edge 138.0.0.0,1280x720,1232x602,Temporal Distance Task,cb_05,32.0,temp_dist_trial,dist_items,qkpkxw,2.0,response,62,1600.0,2599.9000000000233,2621.700000000012,1600.0,2599.9000000000233,2621.700000000012,1.0,1021.7000000000116,0.0,,Slider,Slider,4.0,object-56,temp_dist_trial,32.0,s_sh_05_1,student_shared,laptop,5.0,competing,paired,s_sh_05_1.jpg,Student,,,sub-13
Desktop or Laptop,Windows 10,Edge 138.0.0.0,1280x720,1232x602,Temporal Distance Task,cb_05,33.0,temp_dist_trial,num_items,zn7si1,1.0,response,2_ITEM,1502.2999999999884,1500.0,1502.2999999999884,1502.2999999999884,1500.0,1502.2999999999884,1.0,0.0,0.0,,Click Response,2_count,5.0,object-49,temp_dist_trial,33.0,s_sh_21_1,student_shared,file holder,5.0,competing,paired,s_sh_21_1.jpg,Student,,,sub-13
Desktop or Laptop,Windows 10,Edge 138.0.0.0,1280x720,1232x602,Temporal Distance Task,cb_05,33.0,temp_dist_trial,dist_items,qkpkxw,2.0,info,,4.000000023836037,0.0,4.000000023836037,4.000000023836037,0.0,4.000000023836037,1.0,0.0,0.0,,Slider,Slider,4.0,object-56,temp_dist_trial,33.0,s_sh_21_1,student_shared,file holder,5.0,competing,paired,s_sh_21_1.jpg,Student,,,sub-13
Desktop or Laptop,Windows 10,Edge 138.0.0.0,1280x720,1232x602,Temporal Distance Task,cb_05,33.0,temp_dist_trial,dist_items,qkpkxw,2.0,continue,,2274.599999928469,2266.6999999999825,2274.599999928469,2274.599999928469,2266.6999999999825,2274.599999928469,1.0,0.0,0.0,,Click To Continue,Next button,7.0,object-60,temp_dist_trial,33.0,s_sh_21_1,student_shared,file holder,5.0,competing,paired,s_sh_21_1.jpg,Student,,,sub-13
Desktop or Laptop,Windows 10,Edge 138.0.0.0,1280x720,1232x602,Temporal Distance Task,cb_05,33.0,temp_dist_trial,dist_items,qkpkxw,2.0,response,53,1333.2999999999886,2266.6999999999825,2279.599999928469,1333.2999999999886,2266.6999999999825,2279.599999928469,1.0,946.2999999284802,0.0,,Slider,Slider,4.0,object-56,temp_dist_trial,33.0,s_sh_21_1,student_shared,file holder,5.0,competing,paired,s_sh_21_1.jpg,Student,,,sub-13
Desktop or Laptop,Windows 10,Edge 138.0.0.0,1280x720,1232x602,Temporal Distance Task,cb_05,34.0,temp_dist_trial,num_items,zn7si1,1.0,response,1_ITEM,2254.999999952328,2233.200000000012,2254.999999952328,2254.999999952328,2233.200000000012,2254.999999952328,1.0,0.0,0.0,,Click Response,1_count,3.0,object-46,temp_dist_trial,34.0,s_sh_03_1,student_shared,highlighter,5.0,competing,paired,s_sh_03_1.jpg,Student,,,sub-13
Desktop or Laptop,Windows 10,Edge 138.0.0.0,1280x720,1232x602,Temporal Distance Task,cb_05,35.0,temp_dist_trial,num_items,zn7si1,1.0,response,2_ITEM,2783.7999999284802,2766.6000000000067,2783.7999999284802,2783.7999999284802,2766.6000000000067,2783.7999999284802,1.0,0.0,0.0,,Click Response,2_count,5.0,object-49,temp_dist_trial,35.0,s_s_20_1,student_stem,dna model,5.0,unique,paired,s_s_20_1.jpg,Student,,,sub-13
Desktop or Laptop,Windows 10,Edge 138.0.0.0,1280x720,1232x602,Temporal Distance Task,cb_05,35.0,temp_dist_trial,dist_items,qkpkxw,2.0,info,,3.3999999523221054,0.0,3.3999999523221054,3.3999999523221054,0.0,3.3999999523221054,1.0,0.0,0.0,,Slider,Slider,4.0,object-56,temp_dist_trial,35.0,s_s_20_1,student_stem,dna model,5.0,unique,paired,s_s_20_1.jpg,Student,,,sub-13
Desktop or Laptop,Windows 10,Edge 138.0.0.0,1280x720,1232x602,Temporal Distance Task,cb_05,35.0,temp_dist_trial,dist_items,qkpkxw,2.0,continue,,3905.200000023848,3899.8999999999933,3905.200000023848,3905.200000023848,3899.8999999999933,3905.200000023848,1.0,0.0,0.0,,Click To Continue,Next button,7.0,object-60,temp_dist_trial,35.0,s_s_20_1,student_stem,dna model,5.0,unique,paired,s_s_20_1.jpg,Student,,,sub-13
Desktop or Laptop,Windows 10,Edge 138.0.0.0,1280x720,1232x602,Temporal Distance Task,cb_05,35.0,temp_dist_trial,dist_items,qkpkxw,2.0,response,59,1633.3000000000175,3899.8999999999933,3905.499999976164,1633.3000000000175,3899.8999999999933,3905.499999976164,1.0,2272.1999999761465,0.0,,Slider,Slider,4.0,object-56,temp_dist_trial,35.0,s_s_20_1,student_stem,dna model,5.0,unique,paired,s_s_20_1.jpg,Student,,,sub-13
Desktop or Laptop,Windows 10,Edge 138.0.0.0,1280x720,1232x602,Temporal Distance Task,cb_05,36.0,temp_dist_trial,num_items,zn7si1,1.0,response,1_ITEM,1266.600000000035,1233.3000000000175,1266.600000000035,1266.600000000035,1233.3000000000175,1266.600000000035,1.0,0.0,0.0,,Click Response,1_count,3.0,object-46,temp_dist_trial,36.0,s_a_10_1,student_art,tripod,5.0,unique,single,s_a_10_1.jpg,Student,,,sub-13
Desktop or Laptop,Windows 10,Edge 138.0.0.0,1280x720,1232x602,Temporal Distance Task,cb_05,37.0,temp_dist_trial,num_items,zn7si1,1.0,response,2_ITEM,1250.1999999284744,1233.2999999999886,1250.1999999284744,1250.1999999284744,1233.2999999999886,1250.1999999284744,1.0,0.0,0.0,,Click Response,2_count,5.0,object-49,temp_dist_trial,37.0,s_a_09_1,student_art,picture frame,5.0,unique,paired,s_a_09_1.jpg,Student,,,sub-13
Desktop or Laptop,Windows 10,Edge 138.0.0.0,1280x720,1232x602,Temporal Distance Task,cb_05,37.0,temp_dist_trial,dist_items,qkpkxw,2.0,info,,3.399999976158142,0.0,3.399999976158142,3.399999976158142,0.0,3.399999976158142,1.0,0.0,0.0,,Slider,Slider,4.0,object-56,temp_dist_trial,37.0,s_a_09_1,student_art,picture frame,5.0,unique,paired,s_a_09_1.jpg,Student,,,sub-13
Desktop or Laptop,Windows 10,Edge 138.0.0.0,1280x720,1232x602,Temporal Distance Task,cb_05,37.0,temp_dist_trial,dist_items,qkpkxw,2.0,continue,,2420.899999976158,2399.8999999999937,2420.899999976158,2420.899999976158,2399.8999999999937,2420.899999976158,1.0,0.0,0.0,,Click To Continue,Next button,7.0,object-60,temp_dist_trial,37.0,s_a_09_1,student_art,picture frame,5.0,unique,paired,s_a_09_1.jpg,Student,,,sub-13
Desktop or Laptop,Windows 10,Edge 138.0.0.0,1280x720,1232x602,Temporal Distance Task,cb_05,37.0,temp_dist_trial,dist_items,qkpkxw,2.0,response,59,1233.2000000000114,2399.8999999999937,2421.399999976158,1233.2000000000114,2399.8999999999937,2421.399999976158,1.0,1188.1999999761465,0.0,,Slider,Slider,4.0,object-56,temp_dist_trial,37.0,s_a_09_1,student_art,picture frame,5.0,unique,paired,s_a_09_1.jpg,Student,,,sub-13
Desktop or Laptop,Windows 10,Edge 138.0.0.0,1280x720,1232x602,Temporal Distance Task,cb_05,38.0,temp_dist_trial,num_items,zn7si1,1.0,response,1_ITEM,1431.7000000238475,1400.0,1431.7000000238475,1431.7000000238475,1400.0,1431.7000000238475,1.0,0.0,0.0,,Click Response,1_count,3.0,object-46,temp_dist_trial,38.0,s_a_11_1,student_art,clapperboard,5.0,unique,single,s_a_11_1.jpg,Student,,,sub-13
Desktop or Laptop,Windows 10,Edge 138.0.0.0,1280x720,1232x602,Temporal Distance Task,cb_05,39.0,temp_dist_trial,num_items,zn7si1,1.0,response,2_ITEM,1260.999999952328,1233.3000000000175,1260.999999952328,1260.999999952328,1233.3000000000175,1260.999999952328,1.0,0.0,0.0,,Click Response,2_count,5.0,object-49,temp_dist_trial,39.0,s_sh_04_1,student_shared,laptop stand,5.0,competing,paired,s_sh_04_1.jpg,Student,,,sub-13
Desktop or Laptop,Windows 10,Edge 138.0.0.0,1280x720,1232x602,Temporal Distance Task,cb_05,39.0,temp_dist_trial,dist_items,qkpkxw,2.0,info,,6.4999999284627865,0.0,6.4999999284627865,6.4999999284627865,0.0,6.4999999284627865,1.0,0.0,0.0,,Slider,Slider,4.0,object-56,temp_dist_trial,39.0,s_sh_04_1,student_shared,laptop stand,5.0,competing,paired,s_sh_04_1.jpg,Student,,,sub-13
Desktop or Laptop,Windows 10,Edge 138.0.0.0,1280x720,1232x602,Temporal Distance Task,cb_05,39.0,temp_dist_trial,dist_items,qkpkxw,2.0,continue,,3221.2999999999884,3200.0,3221.2999999999884,3221.2999999999884,3200.0,3221.2999999999884,1.0,0.0,0.0,,Click To Continue,Next button,7.0,object-60,temp_dist_trial,39.0,s_sh_04_1,student_shared,laptop stand,5.0,competing,paired,s_sh_04_1.jpg,Student,,,sub-13
Desktop or Laptop,Windows 10,Edge 138.0.0.0,1280x720,1232x602,Temporal Distance Task,cb_05,39.0,temp_dist_trial,dist_items,qkpkxw,2.0,response,44,2266.6999999999825,3200.0,3223.9000000238293,2266.6999999999825,3200.0,3223.9000000238293,1.0,957.2000000238477,0.0,,Slider,Slider,4.0,object-56,temp_dist_trial,39.0,s_sh_04_1,student_shared,laptop stand,5.0,competing,paired,s_sh_04_1.jpg,Student,,,sub-13
Desktop or Laptop,Windows 10,Edge 138.0.0.0,1280x720,1232x602,Temporal Distance Task,cb_05,40.0,temp_dist_trial,num_items,zn7si1,1.0,response,2_ITEM,1209.9999999284628,1200.0,1209.9999999284628,1209.9999999284628,1200.0,1209.9999999284628,1.0,0.0,0.0,,Click Response,2_count,5.0,object-49,temp_dist_trial,40.0,s_sh_09_1,student_shared,paper clips,5.0,competing,paired,s_sh_09_1.jpg,Student,,,sub-13
Desktop or Laptop,Windows 10,Edge 138.0.0.0,1280x720,1232x602,Temporal Distance Task,cb_05,40.0,temp_dist_trial,dist_items,qkpkxw,2.0,info,,2.9999999523279257,0.0,2.9999999523279257,2.9999999523279257,0.0,2.9999999523279257,1.0,0.0,0.0,,Slider,Slider,4.0,object-56,temp_dist_trial,40.0,s_sh_09_1,student_shared,paper clips,5.0,competing,paired,s_sh_09_1.jpg,Student,,,sub-13
Desktop or Laptop,Windows 10,Edge 138.0.0.0,1280x720,1232x602,Temporal Distance Task,cb_05,40.0,temp_dist_trial,dist_items,qkpkxw,2.0,continue,,2493.200000000012,2466.700000000012,2493.200000000012,2493.200000000012,2466.700000000012,2493.200000000012,1.0,0.0,0.0,,Click To Continue,Next button,7.0,object-60,temp_dist_trial,40.0,s_sh_09_1,student_shared,paper clips,5.0,competing,paired,s_sh_09_1.jpg,Student,,,sub-13
Desktop or Laptop,Windows 10,Edge 138.0.0.0,1280x720,1232x602,Temporal Distance Task,cb_05,40.0,temp_dist_trial,dist_items,qkpkxw,2.0,response,44,1466.7000000000116,2466.700000000012,2493.399999928486,1466.7000000000116,2466.700000000012,2493.399999928486,1.0,1026.6999999284744,0.0,,Slider,Slider,4.0,object-56,temp_dist_trial,40.0,s_sh_09_1,student_shared,paper clips,5.0,competing,paired,s_sh_09_1.jpg,Student,,,sub-13
Desktop or Laptop,Windows 10,Edge 138.0.0.0,1280x720,1232x602,Temporal Distance Task,cb_05,41.0,temp_dist_trial,num_items,zn7si1,1.0,response,2_ITEM,1868.6000000238416,1866.6000000000056,1868.6000000238416,1868.6000000238416,1866.6000000000056,1868.6000000238416,1.0,0.0,0.0,,Click Response,2_count,5.0,object-49,temp_dist_trial,41.0,s_sh_22_1,student_shared,hole puncher,5.0,competing,paired,s_sh_22_1.jpg,Student,,,sub-13
Desktop or Laptop,Windows 10,Edge 138.0.0.0,1280x720,1232x602,Temporal Distance Task,cb_05,41.0,temp_dist_trial,dist_items,qkpkxw,2.0,info,,4.199999928474426,0.0,4.199999928474426,4.199999928474426,0.0,4.199999928474426,1.0,0.0,0.0,,Slider,Slider,4.0,object-56,temp_dist_trial,41.0,s_sh_22_1,student_shared,hole puncher,5.0,competing,paired,s_sh_22_1.jpg,Student,,,sub-13
Desktop or Laptop,Windows 10,Edge 138.0.0.0,1280x720,1232x602,Temporal Distance Task,cb_05,41.0,temp_dist_trial,dist_items,qkpkxw,2.0,continue,,2129.100000023842,2099.8999999999937,2129.100000023842,2129.100000023842,2099.8999999999937,2129.100000023842,1.0,0.0,0.0,,Click To Continue,Next button,7.0,object-60,temp_dist_trial,41.0,s_sh_22_1,student_shared,hole puncher,5.0,competing,paired,s_sh_22_1.jpg,Student,,,sub-13
Desktop or Laptop,Windows 10,Edge 138.0.0.0,1280x720,1232x602,Temporal Distance Task,cb_05,41.0,temp_dist_trial,dist_items,qkpkxw,2.0,response,63,1300.0,2099.8999999999937,2129.6999999284744,1300.0,2099.8999999999937,2129.6999999284744,1.0,829.6999999284744,0.0,,Slider,Slider,4.0,object-56,temp_dist_trial,41.0,s_sh_22_1,student_shared,hole puncher,5.0,competing,paired,s_sh_22_1.jpg,Student,,,sub-13
Desktop or Laptop,Windows 10,Edge 138.0.0.0,1280x720,1232x602,Temporal Distance Task,cb_05,42.0,temp_dist_trial,num_items,zn7si1,1.0,response,2_ITEM,1639.899999952322,1633.3999999999942,1639.899999952322,1639.899999952322,1633.3999999999942,1639.899999952322,1.0,0.0,0.0,,Click Response,2_count,5.0,object-49,temp_dist_trial,42.0,s_sh_01_1,student_shared,notebook,5.0,competing,paired,s_sh_01_1.jpg,Student,,,sub-13
Desktop or Laptop,Windows 10,Edge 138.0.0.0,1280x720,1232x602,Temporal Distance Task,cb_05,42.0,temp_dist_trial,dist_items,qkpkxw,2.0,info,,4.2999999999883585,0.0,4.2999999999883585,4.2999999999883585,0.0,4.2999999999883585,1.0,0.0,0.0,,Slider,Slider,4.0,object-56,temp_dist_trial,42.0,s_sh_01_1,student_shared,notebook,5.0,competing,paired,s_sh_01_1.jpg,Student,,,sub-13
Desktop or Laptop,Windows 10,Edge 138.0.0.0,1280x720,1232x602,Temporal Distance Task,cb_05,42.0,temp_dist_trial,dist_items,qkpkxw,2.0,continue,,2555.099999952305,2533.2999999999884,2555.099999952305,2555.099999952305,2533.2999999999884,2555.099999952305,1.0,0.0,0.0,,Click To Continue,Next button,7.0,object-60,temp_dist_trial,42.0,s_sh_01_1,student_shared,notebook,5.0,competing,paired,s_sh_01_1.jpg,Student,,,sub-13
Desktop or Laptop,Windows 10,Edge 138.0.0.0,1280x720,1232x602,Temporal Distance Task,cb_05,42.0,temp_dist_trial,dist_items,qkpkxw,2.0,response,37,1900.0,2533.2999999999884,2555.2999999999884,1900.0,2533.2999999999884,2555.2999999999884,1.0,655.2999999999884,0.0,,Slider,Slider,4.0,object-56,temp_dist_trial,42.0,s_sh_01_1,student_shared,notebook,5.0,competing,paired,s_sh_01_1.jpg,Student,,,sub-13
Desktop or Laptop,Windows 10,Edge 138.0.0.0,1280x720,1232x602,Temporal Distance Task,cb_05,43.0,temp_dist_trial,num_items,zn7si1,1.0,response,1_ITEM,1728.2999999523165,1700.0,1728.2999999523165,1728.2999999523165,1700.0,1728.2999999523165,1.0,0.0,0.0,,Click Response,1_count,3.0,object-46,temp_dist_trial,43.0,s_s_11_1,student_stem,scientific scale,5.0,unique,paired,s_s_11_1.jpg,Student,,,sub-13
Desktop or Laptop,Windows 10,Edge 138.0.0.0,1280x720,1232x602,Temporal Distance Task,cb_05,44.0,temp_dist_trial,num_items,zn7si1,1.0,response,2_ITEM,1063.1000000000058,1033.3000000000177,1063.1000000000058,1063.1000000000058,1033.3000000000177,1063.1000000000058,1.0,0.0,0.0,,Click Response,2_count,5.0,object-49,temp_dist_trial,44.0,s_sh_07_1,student_shared,ruler,5.0,competing,paired,s_sh_07_1.jpg,Student,,,sub-13
Desktop or Laptop,Windows 10,Edge 138.0.0.0,1280x720,1232x602,Temporal Distance Task,cb_05,44.0,temp_dist_trial,dist_items,qkpkxw,2.0,info,,5.300000023853499,0.0,5.300000023853499,5.300000023853499,0.0,5.300000023853499,1.0,0.0,0.0,,Slider,Slider,4.0,object-56,temp_dist_trial,44.0,s_sh_07_1,student_shared,ruler,5.0,competing,paired,s_sh_07_1.jpg,Student,,,sub-13
Desktop or Laptop,Windows 10,Edge 138.0.0.0,1280x720,1232x602,Temporal Distance Task,cb_05,44.0,temp_dist_trial,dist_items,qkpkxw,2.0,continue,,2720.999999952328,2700.1000000000063,2720.999999952328,2720.999999952328,2700.1000000000063,2720.999999952328,1.0,0.0,0.0,,Click To Continue,Next button,7.0,object-60,temp_dist_trial,44.0,s_sh_07_1,student_shared,ruler,5.0,competing,paired,s_sh_07_1.jpg,Student,,,sub-13
Desktop or Laptop,Windows 10,Edge 138.0.0.0,1280x720,1232x602,Temporal Distance Task,cb_05,44.0,temp_dist_trial,dist_items,qkpkxw,2.0,response,60,1466.7000000000116,2700.1000000000063,2721.300000023853,1466.7000000000116,2700.1000000000063,2721.300000023853,1.0,1254.600000023842,0.0,,Slider,Slider,4.0,object-56,temp_dist_trial,44.0,s_sh_07_1,student_shared,ruler,5.0,competing,paired,s_sh_07_1.jpg,Student,,,sub-13
Desktop or Laptop,Windows 10,Edge 138.0.0.0,1280x720,1232x602,Temporal Distance Task,cb_05,45.0,temp_dist_trial,num_items,zn7si1,1.0,response,2_ITEM,2747.200000023848,2733.200000000012,2747.200000023848,2747.200000023848,2733.200000000012,2747.200000023848,1.0,0.0,0.0,,Click Response,2_count,5.0,object-49,temp_dist_trial,45.0,s_a_04_1,student_art,easel,5.0,unique,single,s_a_04_1.jpg,Student,,,sub-13
Desktop or Laptop,Windows 10,Edge 138.0.0.0,1280x720,1232x602,Temporal Distance Task,cb_05,45.0,temp_dist_trial,dist_items,qkpkxw,2.0,info,,2.7999999999883585,0.0,2.7999999999883585,2.7999999999883585,0.0,2.7999999999883585,1.0,0.0,0.0,,Slider,Slider,4.0,object-56,temp_dist_trial,45.0,s_a_04_1,student_art,easel,5.0,unique,single,s_a_04_1.jpg,Student,,,sub-13
Desktop or Laptop,Windows 10,Edge 138.0.0.0,1280x720,1232x602,Temporal Distance Task,cb_05,45.0,temp_dist_trial,dist_items,qkpkxw,2.0,continue,,1732.6999999761465,1700.0,1732.6999999761465,1732.6999999761465,1700.0,1732.6999999761465,1.0,0.0,0.0,,Click To Continue,Next button,7.0,object-60,temp_dist_trial,45.0,s_a_04_1,student_art,easel,5.0,unique,single,s_a_04_1.jpg,Student,,,sub-13
Desktop or Laptop,Windows 10,Edge 138.0.0.0,1280x720,1232x602,Temporal Distance Task,cb_05,45.0,temp_dist_trial,dist_items,qkpkxw,2.0,response,63,733.3999999999942,1700.0,1733.0999999523044,733.3999999999942,1700.0,1733.0999999523044,1.0,999.6999999523103,0.0,,Slider,Slider,4.0,object-56,temp_dist_trial,45.0,s_a_04_1,student_art,easel,5.0,unique,single,s_a_04_1.jpg,Student,,,sub-13
Desktop or Laptop,Windows 10,Edge 138.0.0.0,1280x720,1232x602,Temporal Distance Task,cb_05,46.0,temp_dist_trial,num_items,zn7si1,1.0,response,2_ITEM,1404.1999999761465,1400.0,1404.1999999761465,1404.1999999761465,1400.0,1404.1999999761465,1.0,0.0,0.0,,Click Response,2_count,5.0,object-49,temp_dist_trial,46.0,s_s_06_1,student_stem,calculator,5.0,unique,paired,s_s_06_1.jpg,Student,,,sub-13
Desktop or Laptop,Windows 10,Edge 138.0.0.0,1280x720,1232x602,Temporal Distance Task,cb_05,46.0,temp_dist_trial,dist_items,qkpkxw,2.0,info,,3.5999999284686046,0.0,3.5999999284686046,3.5999999284686046,0.0,3.5999999284686046,1.0,0.0,0.0,,Slider,Slider,4.0,object-56,temp_dist_trial,46.0,s_s_06_1,student_stem,calculator,5.0,unique,paired,s_s_06_1.jpg,Student,,,sub-13
Desktop or Laptop,Windows 10,Edge 138.0.0.0,1280x720,1232x602,Temporal Distance Task,cb_05,46.0,temp_dist_trial,dist_items,qkpkxw,2.0,continue,,2123.5999999284686,2100.0,2123.5999999284686,2123.5999999284686,2100.0,2123.5999999284686,1.0,0.0,0.0,,Click To Continue,Next button,7.0,object-60,temp_dist_trial,46.0,s_s_06_1,student_stem,calculator,5.0,unique,paired,s_s_06_1.jpg,Student,,,sub-13
Desktop or Laptop,Windows 10,Edge 138.0.0.0,1280x720,1232x602,Temporal Distance Task,cb_05,46.0,temp_dist_trial,dist_items,qkpkxw,2.0,response,63,1100.0,2100.0,2124.1999999523105,1100.0,2100.0,2124.1999999523105,1.0,1024.1999999523102,0.0,,Slider,Slider,4.0,object-56,temp_dist_trial,46.0,s_s_06_1,student_stem,calculator,5.0,unique,paired,s_s_06_1.jpg,Student,,,sub-13
Desktop or Laptop,Windows 10,Edge 138.0.0.0,1280x720,1232x602,Temporal Distance Task,cb_05,47.0,temp_dist_trial,num_items,zn7si1,1.0,response,1_ITEM,1099.0999999284686,1066.6999999999823,1099.0999999284686,1099.0999999284686,1066.6999999999823,1099.0999999284686,1.0,0.0,0.0,,Click Response,1_count,3.0,object-46,temp_dist_trial,47.0,s_sh_12_1,student_shared,binder,5.0,competing,single,s_sh_12_1.jpg,Student,,,sub-13
Desktop or Laptop,Windows 10,Edge 138.0.0.0,1280x720,1232x602,Temporal Distance Task,cb_05,48.0,temp_dist_trial,num_items,zn7si1,1.0,response,2_ITEM,1480.899999952322,1466.6000000000058,1480.899999952322,1480.899999952322,1466.6000000000058,1480.899999952322,1.0,0.0,0.0,,Click Response,2_count,5.0,object-49,temp_dist_trial,48.0,s_sh_18_1,student_shared,wall calendar,5.0,competing,paired,s_sh_18_1.jpg,Student,,,sub-13
Desktop or Laptop,Windows 10,Edge 138.0.0.0,1280x720,1232x602,Temporal Distance Task,cb_05,48.0,temp_dist_trial,dist_items,qkpkxw,2.0,info,,3.799999928480248,0.0,3.799999928480248,3.799999928480248,0.0,3.799999928480248,1.0,0.0,0.0,,Slider,Slider,4.0,object-56,temp_dist_trial,48.0,s_sh_18_1,student_shared,wall calendar,5.0,competing,paired,s_sh_18_1.jpg,Student,,,sub-13
Desktop or Laptop,Windows 10,Edge 138.0.0.0,1280x720,1232x602,Temporal Distance Task,cb_05,48.0,temp_dist_trial,dist_items,qkpkxw,2.0,continue,,2365.2999999284802,2333.300000000017,2365.2999999284802,2365.2999999284802,2333.300000000017,2365.2999999284802,1.0,0.0,0.0,,Click To Continue,Next button,7.0,object-60,temp_dist_trial,48.0,s_sh_18_1,student_shared,wall calendar,5.0,competing,paired,s_sh_18_1.jpg,Student,,,sub-13
Desktop or Laptop,Windows 10,Edge 138.0.0.0,1280x720,1232x602,Temporal Distance Task,cb_05,48.0,temp_dist_trial,dist_items,qkpkxw,2.0,response,60,1533.3000000000175,2333.300000000017,2366.7000000000407,1533.3000000000175,2333.300000000017,2366.7000000000407,1.0,833.4000000000232,0.0,,Slider,Slider,4.0,object-56,temp_dist_trial,48.0,s_sh_18_1,student_shared,wall calendar,5.0,competing,paired,s_sh_18_1.jpg,Student,,,sub-13
Desktop or Laptop,Windows 10,Edge 138.0.0.0,1280x720,1232x602,Temporal Distance Task,cb_05,2.0,temp_eventStart,Screen 1,dgtyxe,1.0,continue,,1794.1999999761465,1766.5999999999767,1794.1999999761465,1794.1999999761465,1766.5999999999767,1794.1999999761465,1.0,0.0,0.0,,Click To Continue,Next Button,3.0,object-43,temp_eventStart,,,Travel,,,,,,,,,sub-13
Desktop or Laptop,Windows 10,Edge 138.0.0.0,1280x720,1232x602,Temporal Distance Task,cb_05,49.0,temp_dist_trial,num_items,zn7si1,1.0,response,2_ITEM,1396.999999952328,1366.7000000000114,1396.999999952328,1396.999999952328,1366.7000000000114,1396.999999952328,1.0,0.0,0.0,,Click Response,2_count,5.0,object-49,temp_dist_trial,1.0,t_m_20_1,travel_Miami,inflatable beachball,5.0,unique,paired,t_m_20_1.jpg,Travel,,,sub-13
Desktop or Laptop,Windows 10,Edge 138.0.0.0,1280x720,1232x602,Temporal Distance Task,cb_05,49.0,temp_dist_trial,dist_items,qkpkxw,2.0,info,,6.999999976163963,0.0,6.999999976163963,6.999999976163963,0.0,6.999999976163963,1.0,0.0,0.0,,Slider,Slider,4.0,object-56,temp_dist_trial,1.0,t_m_20_1,travel_Miami,inflatable beachball,5.0,unique,paired,t_m_20_1.jpg,Travel,,,sub-13
Desktop or Laptop,Windows 10,Edge 138.0.0.0,1280x720,1232x602,Temporal Distance Task,cb_05,49.0,temp_dist_trial,dist_items,qkpkxw,2.0,continue,,2356.999999976164,2333.200000000012,2356.999999976164,2356.999999976164,2333.200000000012,2356.999999976164,1.0,0.0,0.0,,Click To Continue,Next button,7.0,object-60,temp_dist_trial,1.0,t_m_20_1,travel_Miami,inflatable beachball,5.0,unique,paired,t_m_20_1.jpg,Travel,,,sub-13
Desktop or Laptop,Windows 10,Edge 138.0.0.0,1280x720,1232x602,Temporal Distance Task,cb_05,49.0,temp_dist_trial,dist_items,qkpkxw,2.0,response,39,1333.3000000000175,2333.200000000012,2357.399999952322,1333.3000000000175,2333.200000000012,2357.399999952322,1.0,1024.0999999523046,0.0,,Slider,Slider,4.0,object-56,temp_dist_trial,1.0,t_m_20_1,travel_Miami,inflatable beachball,5.0,unique,paired,t_m_20_1.jpg,Travel,,,sub-13
Desktop or Laptop,Windows 10,Edge 138.0.0.0,1280x720,1232x602,Temporal Distance Task,cb_05,50.0,temp_dist_trial,num_items,zn7si1,1.0,response,2_ITEM,1888.8999999999944,1866.6999999999825,1888.8999999999944,1888.8999999999944,1866.6999999999825,1888.8999999999944,1.0,0.0,0.0,,Click Response,2_count,5.0,object-49,temp_dist_trial,2.0,t_i_13_1,travel_Iceland,sleeping bag,5.0,unique,single,t_i_13_1.jpg,Travel,,,sub-13
Desktop or Laptop,Windows 10,Edge 138.0.0.0,1280x720,1232x602,Temporal Distance Task,cb_05,50.0,temp_dist_trial,dist_items,qkpkxw,2.0,info,,5.499999976163963,0.0,5.499999976163963,5.499999976163963,0.0,5.499999976163963,1.0,0.0,0.0,,Slider,Slider,4.0,object-56,temp_dist_trial,2.0,t_i_13_1,travel_Iceland,sleeping bag,5.0,unique,single,t_i_13_1.jpg,Travel,,,sub-13
Desktop or Laptop,Windows 10,Edge 138.0.0.0,1280x720,1232x602,Temporal Distance Task,cb_05,50.0,temp_dist_trial,dist_items,qkpkxw,2.0,continue,,2099.7999999284802,2066.700000000012,2099.7999999284802,2099.7999999284802,2066.700000000012,2099.7999999284802,1.0,0.0,0.0,,Click To Continue,Next button,7.0,object-60,temp_dist_trial,2.0,t_i_13_1,travel_Iceland,sleeping bag,5.0,unique,single,t_i_13_1.jpg,Travel,,,sub-13
Desktop or Laptop,Windows 10,Edge 138.0.0.0,1280x720,1232x602,Temporal Distance Task,cb_05,50.0,temp_dist_trial,dist_items,qkpkxw,2.0,response,48,1400.1000000000058,2066.700000000012,2100.1000000000063,1400.1000000000058,2066.700000000012,2100.1000000000063,1.0,700.0,0.0,,Slider,Slider,4.0,object-56,temp_dist_trial,2.0,t_i_13_1,travel_Iceland,sleeping bag,5.0,unique,single,t_i_13_1.jpg,Travel,,,sub-13
Desktop or Laptop,Windows 10,Edge 138.0.0.0,1280x720,1232x602,Temporal Distance Task,cb_05,51.0,temp_dist_trial,num_items,zn7si1,1.0,response,2_ITEM,1580.5999999284686,1566.6000000000058,1580.5999999284686,1580.5999999284686,1566.6000000000058,1580.5999999284686,1.0,0.0,0.0,,Click Response,2_count,5.0,object-49,temp_dist_trial,3.0,t_s_05_1,travel_shared,neck pillow,5.0,competing,paired,t_s_05_1.jpg,Travel,,,sub-13
Desktop or Laptop,Windows 10,Edge 138.0.0.0,1280x720,1232x602,Temporal Distance Task,cb_05,51.0,temp_dist_trial,dist_items,qkpkxw,2.0,info,,4.299999976152321,0.0,4.299999976152321,4.299999976152321,0.0,4.299999976152321,1.0,0.0,0.0,,Slider,Slider,4.0,object-56,temp_dist_trial,3.0,t_s_05_1,travel_shared,neck pillow,5.0,competing,paired,t_s_05_1.jpg,Travel,,,sub-13
Desktop or Laptop,Windows 10,Edge 138.0.0.0,1280x720,1232x602,Temporal Distance Task,cb_05,51.0,temp_dist_trial,dist_items,qkpkxw,2.0,continue,,2021.500000023836,1999.8999999999944,2021.500000023836,2021.500000023836,1999.8999999999944,2021.500000023836,1.0,0.0,0.0,,Click To Continue,Next button,7.0,object-60,temp_dist_trial,3.0,t_s_05_1,travel_shared,neck pillow,5.0,competing,paired,t_s_05_1.jpg,Travel,,,sub-13
Desktop or Laptop,Windows 10,Edge 138.0.0.0,1280x720,1232x602,Temporal Distance Task,cb_05,51.0,temp_dist_trial,dist_items,qkpkxw,2.0,response,43,1099.8999999999942,1999.8999999999944,2021.6999999523105,1099.8999999999942,1999.8999999999944,2021.6999999523105,1.0,921.7999999523164,0.0,,Slider,Slider,4.0,object-56,temp_dist_trial,3.0,t_s_05_1,travel_shared,neck pillow,5.0,competing,paired,t_s_05_1.jpg,Travel,,,sub-13
Desktop or Laptop,Windows 10,Edge 138.0.0.0,1280x720,1232x602,Temporal Distance Task,cb_05,52.0,temp_dist_trial,num_items,zn7si1,1.0,response,2_ITEM,1382.7999999523165,1366.7000000000114,1382.7999999523165,1382.7999999523165,1366.7000000000114,1382.7999999523165,1.0,0.0,0.0,,Click Response,2_count,5.0,object-49,temp_dist_trial,4.0,t_s_07_1,travel_shared,phone charger cable,5.0,competing,paired,t_s_07_1.jpg,Travel,,,sub-13
Desktop or Laptop,Windows 10,Edge 138.0.0.0,1280x720,1232x602,Temporal Distance Task,cb_05,52.0,temp_dist_trial,dist_items,qkpkxw,2.0,info,,2.9999999523279257,0.0,2.9999999523279257,2.9999999523279257,0.0,2.9999999523279257,1.0,0.0,0.0,,Slider,Slider,4.0,object-56,temp_dist_trial,4.0,t_s_07_1,travel_shared,phone charger cable,5.0,competing,paired,t_s_07_1.jpg,Travel,,,sub-13
Desktop or Laptop,Windows 10,Edge 138.0.0.0,1280x720,1232x602,Temporal Distance Task,cb_05,52.0,temp_dist_trial,dist_items,qkpkxw,2.0,continue,,3250.5999999761707,3233.4000000000237,3250.5999999761707,3250.5999999761707,3233.4000000000237,3250.5999999761707,1.0,0.0,0.0,,Click To Continue,Next button,7.0,object-60,temp_dist_trial,4.0,t_s_07_1,travel_shared,phone charger cable,5.0,competing,paired,t_s_07_1.jpg,Travel,,,sub-13
Desktop or Laptop,Windows 10,Edge 138.0.0.0,1280x720,1232x602,Temporal Distance Task,cb_05,52.0,temp_dist_trial,dist_items,qkpkxw,2.0,response,41,2300.0,3233.4000000000237,3251.0999999761707,2300.0,3233.4000000000237,3251.0999999761707,1.0,951.0999999761698,0.0,,Slider,Slider,4.0,object-56,temp_dist_trial,4.0,t_s_07_1,travel_shared,phone charger cable,5.0,competing,paired,t_s_07_1.jpg,Travel,,,sub-13
Desktop or Laptop,Windows 10,Edge 138.0.0.0,1280x720,1232x602,Temporal Distance Task,cb_05,53.0,temp_dist_trial,num_items,zn7si1,1.0,response,2_ITEM,1357.6999999761465,1333.2999999999886,1357.6999999761465,1357.6999999761465,1333.2999999999886,1357.6999999761465,1.0,0.0,0.0,,Click Response,2_count,5.0,object-49,temp_dist_trial,5.0,t_i_03_1,travel_Iceland,winter jacket,5.0,unique,paired,t_i_03_1.jpg,Travel,,,sub-13
Desktop or Laptop,Windows 10,Edge 138.0.0.0,1280x720,1232x602,Temporal Distance Task,cb_05,53.0,temp_dist_trial,dist_items,qkpkxw,2.0,info,,3.599999952304642,0.0,3.599999952304642,3.599999952304642,0.0,3.599999952304642,1.0,0.0,0.0,,Slider,Slider,4.0,object-56,temp_dist_trial,5.0,t_i_03_1,travel_Iceland,winter jacket,5.0,unique,paired,t_i_03_1.jpg,Travel,,,sub-13
Desktop or Laptop,Windows 10,Edge 138.0.0.0,1280x720,1232x602,Temporal Distance Task,cb_05,53.0,temp_dist_trial,dist_items,qkpkxw,2.0,continue,,2155.6999999761465,2133.2999999999884,2155.6999999761465,2155.6999999761465,2133.2999999999884,2155.6999999761465,1.0,0.0,0.0,,Click To Continue,Next button,7.0,object-60,temp_dist_trial,5.0,t_i_03_1,travel_Iceland,winter jacket,5.0,unique,paired,t_i_03_1.jpg,Travel,,,sub-13
Desktop or Laptop,Windows 10,Edge 138.0.0.0,1280x720,1232x602,Temporal Distance Task,cb_05,53.0,temp_dist_trial,dist_items,qkpkxw,2.0,response,36,1400.0,2133.2999999999884,2159.4000000238298,1400.0,2133.2999999999884,2159.4000000238298,1.0,759.4000000238302,0.0,,Slider,Slider,4.0,object-56,temp_dist_trial,5.0,t_i_03_1,travel_Iceland,winter jacket,5.0,unique,paired,t_i_03_1.jpg,Travel,,,sub-13
Desktop or Laptop,Windows 10,Edge 138.0.0.0,1280x720,1232x602,Temporal Distance Task,cb_05,54.0,temp_dist_trial,num_items,zn7si1,1.0,response,1_ITEM,1594.6000000238419,1566.6000000000058,1594.6000000238419,1594.6000000238419,1566.6000000000058,1594.6000000238419,1.0,0.0,0.0,,Click Response,1_count,3.0,object-46,temp_dist_trial,6.0,t_m_10_1,travel_Miami,tanktop,5.0,unique,paired,t_m_10_1.jpg,Travel,,,sub-13
Desktop or Laptop,Windows 10,Edge 138.0.0.0,1280x720,1232x602,Temporal Distance Task,cb_05,55.0,temp_dist_trial,num_items,zn7si1,1.0,response,1_ITEM,1172.399999976158,1166.6000000000058,1172.399999976158,1172.399999976158,1166.6000000000058,1172.399999976158,1.0,0.0,0.0,,Click Response,1_count,3.0,object-46,temp_dist_trial,7.0,t_s_01_1,travel_shared,fanny pack,5.0,competing,paired,t_s_01_1.jpg,Travel,,,sub-13
Desktop or Laptop,Windows 10,Edge 138.0.0.0,1280x720,1232x602,Temporal Distance Task,cb_05,56.0,temp_dist_trial,num_items,zn7si1,1.0,response,1_ITEM,1381.0999999761698,1366.6000000000058,1381.0999999761698,1381.0999999761698,1366.6000000000058,1381.0999999761698,1.0,0.0,0.0,,Click Response,1_count,3.0,object-46,temp_dist_trial,8.0,t_i_02_1,travel_Iceland,scarf,5.0,unique,paired,t_i_02_1.jpg,Travel,,,sub-13
Desktop or Laptop,Windows 10,Edge 138.0.0.0,1280x720,1232x602,Temporal Distance Task,cb_05,57.0,temp_dist_trial,num_items,zn7si1,1.0,response,1_ITEM,1703.5999999761698,1700.0,1703.5999999761698,1703.5999999761698,1700.0,1703.5999999761698,1.0,0.0,0.0,,Click Response,1_count,3.0,object-46,temp_dist_trial,9.0,t_m_12_1,travel_Miami,foldable pail and shovel,5.0,unique,single,t_m_12_1.jpg,Travel,,,sub-13
Desktop or Laptop,Windows 10,Edge 138.0.0.0,1280x720,1232x602,Temporal Distance Task,cb_05,58.0,temp_dist_trial,num_items,zn7si1,1.0,response,2_ITEM,1113.2000000238477,1100.0,1113.2000000238477,1113.2000000238477,1100.0,1113.2000000238477,1.0,0.0,0.0,,Click Response,2_count,5.0,object-49,temp_dist_trial,10.0,t_s_19_1,travel_shared,pajamas,5.0,competing,paired,t_s_19_1.jpg,Travel,,,sub-13
Desktop or Laptop,Windows 10,Edge 138.0.0.0,1280x720,1232x602,Temporal Distance Task,cb_05,58.0,temp_dist_trial,dist_items,qkpkxw,2.0,info,,3.5999999284686046,0.0,3.5999999284686046,3.5999999284686046,0.0,3.5999999284686046,1.0,0.0,0.0,,Slider,Slider,4.0,object-56,temp_dist_trial,10.0,t_s_19_1,travel_shared,pajamas,5.0,competing,paired,t_s_19_1.jpg,Travel,,,sub-13
Desktop or Laptop,Windows 10,Edge 138.0.0.0,1280x720,1232x602,Temporal Distance Task,cb_05,58.0,temp_dist_trial,dist_items,qkpkxw,2.0,continue,,3461.7999999761523,3433.199999999982,3461.7999999761523,3461.7999999761523,3433.199999999982,3461.7999999761523,1.0,0.0,0.0,,Click To Continue,Next button,7.0,object-60,temp_dist_trial,10.0,t_s_19_1,travel_shared,pajamas,5.0,competing,paired,t_s_19_1.jpg,Travel,,,sub-13
Desktop or Laptop,Windows 10,Edge 138.0.0.0,1280x720,1232x602,Temporal Distance Task,cb_05,58.0,temp_dist_trial,dist_items,qkpkxw,2.0,response,38,2499.8999999999937,3433.199999999982,3466.399999999965,2499.8999999999937,3433.199999999982,3466.399999999965,1.0,966.4999999999707,0.0,,Slider,Slider,4.0,object-56,temp_dist_trial,10.0,t_s_19_1,travel_shared,pajamas,5.0,competing,paired,t_s_19_1.jpg,Travel,,,sub-13
Desktop or Laptop,Windows 10,Edge 138.0.0.0,1280x720,1232x602,Temporal Distance Task,cb_05,59.0,temp_dist_trial,num_items,zn7si1,1.0,response,1_ITEM,1965.800000023853,1933.4000000000235,1965.800000023853,1965.800000023853,1933.4000000000235,1965.800000023853,1.0,0.0,0.0,,Click Response,1_count,3.0,object-46,temp_dist_trial,11.0,t_s_12_1,travel_shared,clear toiletry bag,5.0,competing,single,t_s_12_1.jpg,Travel,,,sub-13
Desktop or Laptop,Windows 10,Edge 138.0.0.0,1280x720,1232x602,Temporal Distance Task,cb_05,60.0,temp_dist_trial,num_items,zn7si1,1.0,response,2_ITEM,1880.2000000000119,1866.6000000000056,1880.2000000000119,1880.2000000000119,1866.6000000000056,1880.2000000000119,1.0,0.0,0.0,,Click Response,2_count,5.0,object-49,temp_dist_trial,12.0,t_s_20_1,travel_shared,travel pill case,5.0,competing,paired,t_s_20_1.jpg,Travel,,,sub-13
Desktop or Laptop,Windows 10,Edge 138.0.0.0,1280x720,1232x602,Temporal Distance Task,cb_05,60.0,temp_dist_trial,dist_items,qkpkxw,2.0,info,,3.3000000238534994,0.0,3.3000000238534994,3.3000000238534994,0.0,3.3000000238534994,1.0,0.0,0.0,,Slider,Slider,4.0,object-56,temp_dist_trial,12.0,t_s_20_1,travel_shared,travel pill case,5.0,competing,paired,t_s_20_1.jpg,Travel,,,sub-13
Desktop or Laptop,Windows 10,Edge 138.0.0.0,1280x720,1232x602,Temporal Distance Task,cb_05,60.0,temp_dist_trial,dist_items,qkpkxw,2.0,continue,,1804.7000000000119,1800.0,1804.7000000000119,1804.7000000000119,1800.0,1804.7000000000119,1.0,0.0,0.0,,Click To Continue,Next button,7.0,object-60,temp_dist_trial,12.0,t_s_20_1,travel_shared,travel pill case,5.0,competing,paired,t_s_20_1.jpg,Travel,,,sub-13
Desktop or Laptop,Windows 10,Edge 138.0.0.0,1280x720,1232x602,Temporal Distance Task,cb_05,60.0,temp_dist_trial,dist_items,qkpkxw,2.0,response,37,900.0,1800.0,1805.099999976169,900.0,1800.0,1805.099999976169,1.0,905.0999999761698,0.0,,Slider,Slider,4.0,object-56,temp_dist_trial,12.0,t_s_20_1,travel_shared,travel pill case,5.0,competing,paired,t_s_20_1.jpg,Travel,,,sub-13
Desktop or Laptop,Windows 10,Edge 138.0.0.0,1280x720,1232x602,Temporal Distance Task,cb_05,61.0,temp_dist_trial,num_items,zn7si1,1.0,response,1_ITEM,1350.8000000238535,1333.3000000000175,1350.8000000238535,1350.8000000238535,1333.3000000000175,1350.8000000238535,1.0,0.0,0.0,,Click Response,1_count,3.0,object-46,temp_dist_trial,13.0,t_s_21_1,travel_shared,umbrella,5.0,competing,single,t_s_21_1.jpg,Travel,,,sub-13
Desktop or Laptop,Windows 10,Edge 138.0.0.0,1280x720,1232x602,Temporal Distance Task,cb_05,62.0,temp_dist_trial,num_items,zn7si1,1.0,response,num_miss,2999.9000000000237,2999.9000000000237,2999.9000000000237,2999.9000000000237,2999.9000000000237,2999.9000000000237,1.0,0.0,0.0,num_miss_tag,Time Limit,screen,0.0,screen,temp_dist_trial,14.0,t_m_04_1,travel_Miami,UV jacket,5.0,unique,paired,t_m_04_1.jpg,Travel,,,sub-13
Desktop or Laptop,Windows 10,Edge 138.0.0.0,1280x720,1232x602,Temporal Distance Task,cb_05,63.0,temp_dist_trial,num_items,zn7si1,1.0,response,2_ITEM,450.69999995231046,433.2999999999884,450.69999995231046,450.69999995231046,433.2999999999884,450.69999995231046,1.0,0.0,0.0,,Click Response,2_count,5.0,object-49,temp_dist_trial,15.0,t_m_14_1,travel_Miami,swim goggles,5.0,unique,paired,t_m_14_1.jpg,Travel,,,sub-13
Desktop or Laptop,Windows 10,Edge 138.0.0.0,1280x720,1232x602,Temporal Distance Task,cb_05,63.0,temp_dist_trial,dist_items,qkpkxw,2.0,info,,6.799999976152321,0.0,6.799999976152321,6.799999976152321,0.0,6.799999976152321,1.0,0.0,0.0,,Slider,Slider,4.0,object-56,temp_dist_trial,15.0,t_m_14_1,travel_Miami,swim goggles,5.0,unique,paired,t_m_14_1.jpg,Travel,,,sub-13
Desktop or Laptop,Windows 10,Edge 138.0.0.0,1280x720,1232x602,Temporal Distance Task,cb_05,63.0,temp_dist_trial,dist_items,qkpkxw,2.0,continue,,6621.59999992847,6599.899999999994,6621.59999992847,6621.59999992847,6599.899999999994,6621.59999992847,1.0,0.0,0.0,,Click To Continue,Next button,7.0,object-60,temp_dist_trial,15.0,t_m_14_1,travel_Miami,swim goggles,5.0,unique,paired,t_m_14_1.jpg,Travel,,,sub-13
Desktop or Laptop,Windows 10,Edge 138.0.0.0,1280x720,1232x602,Temporal Distance Task,cb_05,63.0,temp_dist_trial,dist_items,qkpkxw,2.0,response,45,5699.899999999994,6599.899999999994,6621.899999999994,5699.899999999994,6599.899999999994,6621.899999999994,1.0,922.0,0.0,,Slider,Slider,4.0,object-56,temp_dist_trial,15.0,t_m_14_1,travel_Miami,swim goggles,5.0,unique,paired,t_m_14_1.jpg,Travel,,,sub-13
Desktop or Laptop,Windows 10,Edge 138.0.0.0,1280x720,1232x602,Temporal Distance Task,cb_05,64.0,temp_dist_trial,num_items,zn7si1,1.0,response,2_ITEM,1601.5,1599.9000000000233,1601.5,1601.5,1599.9000000000233,1601.5,1.0,0.0,0.0,,Click Response,2_count,5.0,object-49,temp_dist_trial,16.0,t_i_17_1,travel_Iceland,binoculars,5.0,unique,paired,t_i_17_1.jpg,Travel,,,sub-13
Desktop or Laptop,Windows 10,Edge 138.0.0.0,1280x720,1232x602,Temporal Distance Task,cb_05,64.0,temp_dist_trial,dist_items,qkpkxw,2.0,info,,3.7000000238185753,0.0,3.7000000238185753,3.7000000238185753,0.0,3.7000000238185753,1.0,0.0,0.0,,Slider,Slider,4.0,object-56,temp_dist_trial,16.0,t_i_17_1,travel_Iceland,binoculars,5.0,unique,paired,t_i_17_1.jpg,Travel,,,sub-13
Desktop or Laptop,Windows 10,Edge 138.0.0.0,1280x720,1232x602,Temporal Distance Task,cb_05,64.0,temp_dist_trial,dist_items,qkpkxw,2.0,continue,,2206.299999928451,2200.0,2206.299999928451,2206.299999928451,2200.0,2206.299999928451,1.0,0.0,0.0,,Click To Continue,Next button,7.0,object-60,temp_dist_trial,16.0,t_i_17_1,travel_Iceland,binoculars,5.0,unique,paired,t_i_17_1.jpg,Travel,,,sub-13
Desktop or Laptop,Windows 10,Edge 138.0.0.0,1280x720,1232x602,Temporal Distance Task,cb_05,64.0,temp_dist_trial,dist_items,qkpkxw,2.0,response,64,1166.6999999999534,2200.0,2208.5999999999767,1166.6999999999534,2200.0,2208.5999999999767,1.0,1041.9000000000233,0.0,,Slider,Slider,4.0,object-56,temp_dist_trial,16.0,t_i_17_1,travel_Iceland,binoculars,5.0,unique,paired,t_i_17_1.jpg,Travel,,,sub-13
Desktop or Laptop,Windows 10,Edge 138.0.0.0,1280x720,1232x602,Temporal Distance Task,cb_05,65.0,temp_dist_trial,num_items,zn7si1,1.0,response,num_miss,3000.0,3000.0,3000.0,3000.0,3000.0,3000.0,1.0,0.0,0.0,num_miss_tag,Time Limit,screen,0.0,screen,temp_dist_trial,17.0,t_s_18_1,travel_shared,first aid kit,5.0,competing,paired,t_s_18_1.jpg,Travel,,,sub-13
Desktop or Laptop,Windows 10,Edge 138.0.0.0,1280x720,1232x602,Temporal Distance Task,cb_05,66.0,temp_dist_trial,num_items,zn7si1,1.0,response,1_ITEM,722.2000000000116,699.9000000000232,722.2000000000116,722.2000000000116,699.9000000000232,722.2000000000116,1.0,0.0,0.0,,Click Response,1_count,3.0,object-46,temp_dist_trial,18.0,t_i_11_1,travel_Iceland,headlamp,5.0,unique,paired,t_i_11_1.jpg,Travel,,,sub-13
Desktop or Laptop,Windows 10,Edge 138.0.0.0,1280x720,1232x602,Temporal Distance Task,cb_05,67.0,temp_dist_trial,num_items,zn7si1,1.0,response,2_ITEM,2019.9000000000235,1999.9000000000235,2019.9000000000235,2019.9000000000235,1999.9000000000235,2019.9000000000235,1.0,0.0,0.0,,Click Response,2_count,5.0,object-49,temp_dist_trial,19.0,t_s_04_1,travel_shared,instant camera,5.0,competing,paired,t_s_04_1.jpg,Travel,,,sub-13
Desktop or Laptop,Windows 10,Edge 138.0.0.0,1280x720,1232x602,Temporal Distance Task,cb_05,67.0,temp_dist_trial,dist_items,qkpkxw,2.0,info,,5.599999999976717,0.0,5.599999999976717,5.599999999976717,0.0,5.599999999976717,1.0,0.0,0.0,,Slider,Slider,4.0,object-56,temp_dist_trial,19.0,t_s_04_1,travel_shared,instant camera,5.0,competing,paired,t_s_04_1.jpg,Travel,,,sub-13
Desktop or Laptop,Windows 10,Edge 138.0.0.0,1280x720,1232x602,Temporal Distance Task,cb_05,67.0,temp_dist_trial,dist_items,qkpkxw,2.0,continue,,4412.599999999977,4399.899999999965,4412.599999999977,4412.599999999977,4399.899999999965,4412.599999999977,1.0,0.0,0.0,,Click To Continue,Next button,7.0,object-60,temp_dist_trial,19.0,t_s_04_1,travel_shared,instant camera,5.0,competing,paired,t_s_04_1.jpg,Travel,,,sub-13
Desktop or Laptop,Windows 10,Edge 138.0.0.0,1280x720,1232x602,Temporal Distance Task,cb_05,67.0,temp_dist_trial,dist_items,qkpkxw,2.0,response,47,3566.5999999999767,4399.899999999965,4415.399999952293,3566.5999999999767,4399.899999999965,4415.399999952293,1.0,848.7999999523163,0.0,,Slider,Slider,4.0,object-56,temp_dist_trial,19.0,t_s_04_1,travel_shared,instant camera,5.0,competing,paired,t_s_04_1.jpg,Travel,,,sub-13
Desktop or Laptop,Windows 10,Edge 138.0.0.0,1280x720,1232x602,Temporal Distance Task,cb_05,68.0,temp_dist_trial,num_items,zn7si1,1.0,response,2_ITEM,1302.0999999761698,1300.0,1302.0999999761698,1302.0999999761698,1300.0,1302.0999999761698,1.0,0.0,0.0,,Click Response,2_count,5.0,object-49,temp_dist_trial,20.0,t_i_12_1,travel_Iceland,tent,5.0,unique,paired,t_i_12_1.jpg,Travel,,,sub-13
Desktop or Laptop,Windows 10,Edge 138.0.0.0,1280x720,1232x602,Temporal Distance Task,cb_05,68.0,temp_dist_trial,dist_items,qkpkxw,2.0,info,,3.9999999284627847,0.0,3.9999999284627847,3.9999999284627847,0.0,3.9999999284627847,1.0,0.0,0.0,,Slider,Slider,4.0,object-56,temp_dist_trial,20.0,t_i_12_1,travel_Iceland,tent,5.0,unique,paired,t_i_12_1.jpg,Travel,,,sub-13
Desktop or Laptop,Windows 10,Edge 138.0.0.0,1280x720,1232x602,Temporal Distance Task,cb_05,68.0,temp_dist_trial,dist_items,qkpkxw,2.0,continue,,4959.299999999987,4933.200000000013,4959.299999999987,4959.299999999987,4933.200000000013,4959.299999999987,1.0,0.0,0.0,,Click To Continue,Next button,7.0,object-60,temp_dist_trial,20.0,t_i_12_1,travel_Iceland,tent,5.0,unique,paired,t_i_12_1.jpg,Travel,,,sub-13
Desktop or Laptop,Windows 10,Edge 138.0.0.0,1280x720,1232x602,Temporal Distance Task,cb_05,68.0,temp_dist_trial,dist_items,qkpkxw,2.0,response,45,3399.899999999965,4933.200000000013,4959.6999999761465,3399.899999999965,4933.200000000013,4959.6999999761465,1.0,1559.7999999761817,0.0,,Slider,Slider,4.0,object-56,temp_dist_trial,20.0,t_i_12_1,travel_Iceland,tent,5.0,unique,paired,t_i_12_1.jpg,Travel,,,sub-13
Desktop or Laptop,Windows 10,Edge 138.0.0.0,1280x720,1232x602,Temporal Distance Task,cb_05,69.0,temp_dist_trial,num_items,zn7si1,1.0,response,2_ITEM,1309.9999999761349,1300.0,1309.9999999761349,1309.9999999761349,1300.0,1309.9999999761349,1.0,0.0,0.0,,Click Response,2_count,5.0,object-49,temp_dist_trial,21.0,t_i_07_1,travel_Iceland,hiking backpack,5.0,unique,paired,t_i_07_1.jpg,Travel,,,sub-13
Desktop or Laptop,Windows 10,Edge 138.0.0.0,1280x720,1232x602,Temporal Distance Task,cb_05,69.0,temp_dist_trial,dist_items,qkpkxw,2.0,info,,3.9999999523279257,0.0,3.9999999523279257,3.9999999523279257,0.0,3.9999999523279257,1.0,0.0,0.0,,Slider,Slider,4.0,object-56,temp_dist_trial,21.0,t_i_07_1,travel_Iceland,hiking backpack,5.0,unique,paired,t_i_07_1.jpg,Travel,,,sub-13
Desktop or Laptop,Windows 10,Edge 138.0.0.0,1280x720,1232x602,Temporal Distance Task,cb_05,69.0,temp_dist_trial,dist_items,qkpkxw,2.0,continue,,2224.899999928486,2200.0,2224.899999928486,2224.899999928486,2200.0,2224.899999928486,1.0,0.0,0.0,,Click To Continue,Next button,7.0,object-60,temp_dist_trial,21.0,t_i_07_1,travel_Iceland,hiking backpack,5.0,unique,paired,t_i_07_1.jpg,Travel,,,sub-13
Desktop or Laptop,Windows 10,Edge 138.0.0.0,1280x720,1232x602,Temporal Distance Task,cb_05,69.0,temp_dist_trial,dist_items,qkpkxw,2.0,response,66,1266.600000000035,2200.0,2227.200000000012,1266.600000000035,2200.0,2227.200000000012,1.0,960.5999999999768,0.0,,Slider,Slider,4.0,object-56,temp_dist_trial,21.0,t_i_07_1,travel_Iceland,hiking backpack,5.0,unique,paired,t_i_07_1.jpg,Travel,,,sub-13
Desktop or Laptop,Windows 10,Edge 138.0.0.0,1280x720,1232x602,Temporal Distance Task,cb_05,70.0,temp_dist_trial,num_items,zn7si1,1.0,response,2_ITEM,1223.7000000000114,1199.9000000000233,1223.7000000000114,1223.7000000000114,1199.9000000000233,1223.7000000000114,1.0,0.0,0.0,,Click Response,2_count,5.0,object-49,temp_dist_trial,22.0,t_m_05_1,travel_Miami,sunscreen,5.0,unique,paired,t_m_05_1.jpg,Travel,,,sub-13
Desktop or Laptop,Windows 10,Edge 138.0.0.0,1280x720,1232x602,Temporal Distance Task,cb_05,70.0,temp_dist_trial,dist_items,qkpkxw,2.0,info,,3.2999999761814247,0.0,3.2999999761814247,3.2999999761814247,0.0,3.2999999761814247,1.0,0.0,0.0,,Slider,Slider,4.0,object-56,temp_dist_trial,22.0,t_m_05_1,travel_Miami,sunscreen,5.0,unique,paired,t_m_05_1.jpg,Travel,,,sub-13
Desktop or Laptop,Windows 10,Edge 138.0.0.0,1280x720,1232x602,Temporal Distance Task,cb_05,70.0,temp_dist_trial,dist_items,qkpkxw,2.0,continue,,2787.099999928497,2766.600000000035,2787.099999928497,2787.099999928497,2766.600000000035,2787.099999928497,1.0,0.0,0.0,,Click To Continue,Next button,7.0,object-60,temp_dist_trial,22.0,t_m_05_1,travel_Miami,sunscreen,5.0,unique,paired,t_m_05_1.jpg,Travel,,,sub-13
Desktop or Laptop,Windows 10,Edge 138.0.0.0,1280x720,1232x602,Temporal Distance Task,cb_05,70.0,temp_dist_trial,dist_items,qkpkxw,2.0,response,34,1799.9000000000233,2766.600000000035,2787.4000000000237,1799.9000000000233,2766.600000000035,2787.4000000000237,1.0,987.5,0.0,,Slider,Slider,4.0,object-56,temp_dist_trial,22.0,t_m_05_1,travel_Miami,sunscreen,5.0,unique,paired,t_m_05_1.jpg,Travel,,,sub-13
Desktop or Laptop,Windows 10,Edge 138.0.0.0,1280x720,1232x602,Temporal Distance Task,cb_05,71.0,temp_dist_trial,num_items,zn7si1,1.0,response,2_ITEM,1995.6999999761465,1966.7000000000119,1995.6999999761465,1995.6999999761465,1966.7000000000119,1995.6999999761465,1.0,0.0,0.0,,Click Response,2_count,5.0,object-49,temp_dist_trial,23.0,t_i_01_1,travel_Iceland,gloves,5.0,unique,paired,t_i_01_1.jpg,Travel,,,sub-13
Desktop or Laptop,Windows 10,Edge 138.0.0.0,1280x720,1232x602,Temporal Distance Task,cb_05,71.0,temp_dist_trial,dist_items,qkpkxw,2.0,info,,3.799999952316284,0.0,3.799999952316284,3.799999952316284,0.0,3.799999952316284,1.0,0.0,0.0,,Slider,Slider,4.0,object-56,temp_dist_trial,23.0,t_i_01_1,travel_Iceland,gloves,5.0,unique,paired,t_i_01_1.jpg,Travel,,,sub-13
Desktop or Laptop,Windows 10,Edge 138.0.0.0,1280x720,1232x602,Temporal Distance Task,cb_05,71.0,temp_dist_trial,dist_items,qkpkxw,2.0,continue,,2371.2999999523167,2366.599999999977,2371.2999999523167,2371.2999999523167,2366.599999999977,2371.2999999523167,1.0,0.0,0.0,,Click To Continue,Next button,7.0,object-60,temp_dist_trial,23.0,t_i_01_1,travel_Iceland,gloves,5.0,unique,paired,t_i_01_1.jpg,Travel,,,sub-13
Desktop or Laptop,Windows 10,Edge 138.0.0.0,1280x720,1232x602,Temporal Distance Task,cb_05,71.0,temp_dist_trial,dist_items,qkpkxw,2.0,response,27,1433.2999999999884,2366.599999999977,2371.600000023842,1433.2999999999884,2366.599999999977,2371.600000023842,1.0,938.3000000238536,0.0,,Slider,Slider,4.0,object-56,temp_dist_trial,23.0,t_i_01_1,travel_Iceland,gloves,5.0,unique,paired,t_i_01_1.jpg,Travel,,,sub-13
Desktop or Laptop,Windows 10,Edge 138.0.0.0,1280x720,1232x602,Temporal Distance Task,cb_05,72.0,temp_dist_trial,num_items,zn7si1,1.0,response,num_miss,3000.0,3000.0,3000.0,3000.0,3000.0,3000.0,1.0,0.0,0.0,num_miss_tag,Time Limit,screen,0.0,screen,temp_dist_trial,24.0,t_m_17_1,travel_Miami,water gun,5.0,unique,single,t_m_17_1.jpg,Travel,,,sub-13
Desktop or Laptop,Windows 10,Edge 138.0.0.0,1280x720,1232x602,Temporal Distance Task,cb_05,73.0,temp_dist_trial,num_items,zn7si1,1.0,response,1_ITEM,1778.1999999284744,1766.5999999999767,1778.1999999284744,1778.1999999284744,1766.5999999999767,1778.1999999284744,1.0,0.0,0.0,,Click Response,1_count,3.0,object-46,temp_dist_trial,25.0,t_s_03_1,travel_shared,portable charger,5.0,competing,single,t_s_03_1.jpg,Travel,,,sub-13
Desktop or Laptop,Windows 10,Edge 138.0.0.0,1280x720,1232x602,Temporal Distance Task,cb_05,74.0,temp_dist_trial,num_items,zn7si1,1.0,response,1_ITEM,1746.0,1733.2000000000116,1746.0,1746.0,1733.2000000000116,1746.0,1.0,0.0,0.0,,Click Response,1_count,3.0,object-46,temp_dist_trial,26.0,t_i_06_1,travel_Iceland,knit hat,5.0,unique,paired,t_i_06_1.jpg,Travel,,,sub-13
Desktop or Laptop,Windows 10,Edge 138.0.0.0,1280x720,1232x602,Temporal Distance Task,cb_05,75.0,temp_dist_trial,num_items,zn7si1,1.0,response,1_ITEM,1660.5999999999767,1633.2999999999884,1660.5999999999767,1660.5999999999767,1633.2999999999884,1660.5999999999767,1.0,0.0,0.0,,Click Response,1_count,3.0,object-46,temp_dist_trial,27.0,t_m_01_1,travel_Miami,sandals,5.0,unique,single,t_m_01_1.jpg,Travel,,,sub-13
Desktop or Laptop,Windows 10,Edge 138.0.0.0,1280x720,1232x602,Temporal Distance Task,cb_05,76.0,temp_dist_trial,num_items,zn7si1,1.0,response,2_ITEM,1395.6999999523396,1366.600000000035,1395.6999999523396,1395.6999999523396,1366.600000000035,1395.6999999523396,1.0,0.0,0.0,,Click Response,2_count,5.0,object-49,temp_dist_trial,28.0,t_s_15_1,travel_shared,luggage tag,5.0,competing,paired,t_s_15_1.jpg,Travel,,,sub-13
Desktop or Laptop,Windows 10,Edge 138.0.0.0,1280x720,1232x602,Temporal Distance Task,cb_05,76.0,temp_dist_trial,dist_items,qkpkxw,2.0,info,,6.199999952339567,0.0,6.199999952339567,6.199999952339567,0.0,6.199999952339567,1.0,0.0,0.0,,Slider,Slider,4.0,object-56,temp_dist_trial,28.0,t_s_15_1,travel_shared,luggage tag,5.0,competing,paired,t_s_15_1.jpg,Travel,,,sub-13
Desktop or Laptop,Windows 10,Edge 138.0.0.0,1280x720,1232x602,Temporal Distance Task,cb_05,76.0,temp_dist_trial,dist_items,qkpkxw,2.0,continue,,2626.0999999284977,2599.9000000000233,2626.0999999284977,2626.0999999284977,2599.9000000000233,2626.0999999284977,1.0,0.0,0.0,,Click To Continue,Next button,7.0,object-60,temp_dist_trial,28.0,t_s_15_1,travel_shared,luggage tag,5.0,competing,paired,t_s_15_1.jpg,Travel,,,sub-13
Desktop or Laptop,Windows 10,Edge 138.0.0.0,1280x720,1232x602,Temporal Distance Task,cb_05,76.0,temp_dist_trial,dist_items,qkpkxw,2.0,response,65,1766.6000000000354,2599.9000000000233,2629.4000000000233,1766.6000000000354,2599.9000000000233,2629.4000000000233,1.0,862.7999999999884,0.0,,Slider,Slider,4.0,object-56,temp_dist_trial,28.0,t_s_15_1,travel_shared,luggage tag,5.0,competing,paired,t_s_15_1.jpg,Travel,,,sub-13
Desktop or Laptop,Windows 10,Edge 138.0.0.0,1280x720,1232x602,Temporal Distance Task,cb_05,77.0,temp_dist_trial,num_items,zn7si1,1.0,response,1_ITEM,1423.7999999523165,1400.0,1423.7999999523165,1423.7999999523165,1400.0,1423.7999999523165,1.0,0.0,0.0,,Click Response,1_count,3.0,object-46,temp_dist_trial,29.0,t_s_02_1,travel_shared,water bottle,5.0,competing,single,t_s_02_1.jpg,Travel,,,sub-13
Desktop or Laptop,Windows 10,Edge 138.0.0.0,1280x720,1232x602,Temporal Distance Task,cb_05,78.0,temp_dist_trial,num_items,zn7si1,1.0,response,2_ITEM,2454.1999999761465,2433.2999999999884,2454.1999999761465,2454.1999999761465,2433.2999999999884,2454.1999999761465,1.0,0.0,0.0,,Click Response,2_count,5.0,object-49,temp_dist_trial,30.0,t_m_11_1,travel_Miami,collapsible beach chair,5.0,unique,paired,t_m_11_1.jpg,Travel,,,sub-13
Desktop or Laptop,Windows 10,Edge 138.0.0.0,1280x720,1232x602,Temporal Distance Task,cb_05,78.0,temp_dist_trial,dist_items,qkpkxw,2.0,info,,6.199999976146501,0.0,6.199999976146501,6.199999976146501,0.0,6.199999976146501,1.0,0.0,0.0,,Slider,Slider,4.0,object-56,temp_dist_trial,30.0,t_m_11_1,travel_Miami,collapsible beach chair,5.0,unique,paired,t_m_11_1.jpg,Travel,,,sub-13
Desktop or Laptop,Windows 10,Edge 138.0.0.0,1280x720,1232x602,Temporal Distance Task,cb_05,78.0,temp_dist_trial,dist_items,qkpkxw,2.0,continue,,2104.7999999999884,2099.899999999965,2104.7999999999884,2104.7999999999884,2099.899999999965,2104.7999999999884,1.0,0.0,0.0,,Click To Continue,Next button,7.0,object-60,temp_dist_trial,30.0,t_m_11_1,travel_Miami,collapsible beach chair,5.0,unique,paired,t_m_11_1.jpg,Travel,,,sub-13
Desktop or Laptop,Windows 10,Edge 138.0.0.0,1280x720,1232x602,Temporal Distance Task,cb_05,78.0,temp_dist_trial,dist_items,qkpkxw,2.0,response,69,1166.5999999999767,2099.899999999965,2105.1999999761465,1166.5999999999767,2099.899999999965,2105.1999999761465,1.0,938.5999999761698,0.0,,Slider,Slider,4.0,object-56,temp_dist_trial,30.0,t_m_11_1,travel_Miami,collapsible beach chair,5.0,unique,paired,t_m_11_1.jpg,Travel,,,sub-13
Desktop or Laptop,Windows 10,Edge 138.0.0.0,1280x720,1232x602,Temporal Distance Task,cb_05,79.0,temp_dist_trial,num_items,zn7si1,1.0,response,num_miss,3000.0,3000.0,3000.0,3000.0,3000.0,3000.0,1.0,0.0,0.0,num_miss_tag,Time Limit,screen,0.0,screen,temp_dist_trial,31.0,t_s_22_1,travel_shared,belt,5.0,competing,paired,t_s_22_1.jpg,Travel,,,sub-13
Desktop or Laptop,Windows 10,Edge 138.0.0.0,1280x720,1232x602,Temporal Distance Task,cb_05,80.0,temp_dist_trial,num_items,zn7si1,1.0,response,2_ITEM,1173.7000000238186,1166.5999999999767,1173.7000000238186,1173.7000000238186,1166.5999999999767,1173.7000000238186,1.0,0.0,0.0,,Click Response,2_count,5.0,object-49,temp_dist_trial,32.0,t_s_24_1,travel_shared,ear plugs,5.0,competing,paired,t_s_24_1.jpg,Travel,,,sub-13
Desktop or Laptop,Windows 10,Edge 138.0.0.0,1280x720,1232x602,Temporal Distance Task,cb_05,80.0,temp_dist_trial,dist_items,qkpkxw,2.0,info,,5.899999952293001,0.0,5.899999952293001,5.899999952293001,0.0,5.899999952293001,1.0,0.0,0.0,,Slider,Slider,4.0,object-56,temp_dist_trial,32.0,t_s_24_1,travel_shared,ear plugs,5.0,competing,paired,t_s_24_1.jpg,Travel,,,sub-13
Desktop or Laptop,Windows 10,Edge 138.0.0.0,1280x720,1232x602,Temporal Distance Task,cb_05,80.0,temp_dist_trial,dist_items,qkpkxw,2.0,continue,,1669.4999999761346,1666.5999999999767,1669.4999999761346,1669.4999999761346,1666.5999999999767,1669.4999999761346,1.0,0.0,0.0,,Click To Continue,Next button,7.0,object-60,temp_dist_trial,32.0,t_s_24_1,travel_shared,ear plugs,5.0,competing,paired,t_s_24_1.jpg,Travel,,,sub-13
Desktop or Laptop,Windows 10,Edge 138.0.0.0,1280x720,1232x602,Temporal Distance Task,cb_05,80.0,temp_dist_trial,dist_items,qkpkxw,2.0,response,70,933.2999999999884,1666.5999999999767,1669.7999999284511,933.2999999999884,1666.5999999999767,1669.7999999284511,1.0,736.4999999284627,0.0,,Slider,Slider,4.0,object-56,temp_dist_trial,32.0,t_s_24_1,travel_shared,ear plugs,5.0,competing,paired,t_s_24_1.jpg,Travel,,,sub-13
Desktop or Laptop,Windows 10,Edge 138.0.0.0,1280x720,1232x602,Temporal Distance Task,cb_05,81.0,temp_dist_trial,num_items,zn7si1,1.0,response,1_ITEM,1541.5,1533.4000000000233,1541.5,1541.5,1533.4000000000233,1541.5,1.0,0.0,0.0,,Click Response,1_count,3.0,object-46,temp_dist_trial,33.0,t_s_09_1,travel_shared,wallet,5.0,competing,single,t_s_09_1.jpg,Travel,,,sub-13
Desktop or Laptop,Windows 10,Edge 138.0.0.0,1280x720,1232x602,Temporal Distance Task,cb_05,82.0,temp_dist_trial,num_items,zn7si1,1.0,response,2_ITEM,2542.7999999999884,2533.2999999999884,2542.7999999999884,2542.7999999999884,2533.2999999999884,2542.7999999999884,1.0,0.0,0.0,,Click Response,2_count,5.0,object-49,temp_dist_trial,34.0,t_i_15_1,travel_Iceland,compass,5.0,unique,single,t_i_15_1.jpg,Travel,,,sub-13
Desktop or Laptop,Windows 10,Edge 138.0.0.0,1280x720,1232x602,Temporal Distance Task,cb_05,82.0,temp_dist_trial,dist_items,qkpkxw,2.0,info,,2.6999999761465006,0.0,2.6999999761465006,2.6999999761465006,0.0,2.6999999761465006,1.0,0.0,0.0,,Slider,Slider,4.0,object-56,temp_dist_trial,34.0,t_i_15_1,travel_Iceland,compass,5.0,unique,single,t_i_15_1.jpg,Travel,,,sub-13
Desktop or Laptop,Windows 10,Edge 138.0.0.0,1280x720,1232x602,Temporal Distance Task,cb_05,82.0,temp_dist_trial,dist_items,qkpkxw,2.0,continue,,2021.400000023831,1999.8999999999646,2021.400000023831,2021.400000023831,1999.8999999999646,2021.400000023831,1.0,0.0,0.0,,Click To Continue,Next button,7.0,object-60,temp_dist_trial,34.0,t_i_15_1,travel_Iceland,compass,5.0,unique,single,t_i_15_1.jpg,Travel,,,sub-13
Desktop or Laptop,Windows 10,Edge 138.0.0.0,1280x720,1232x602,Temporal Distance Task,cb_05,82.0,temp_dist_trial,dist_items,qkpkxw,2.0,response,65,1166.5999999999767,1999.8999999999646,2021.5999999523046,1166.5999999999767,1999.8999999999646,2021.5999999523046,1.0,854.9999999523279,0.0,,Slider,Slider,4.0,object-56,temp_dist_trial,34.0,t_i_15_1,travel_Iceland,compass,5.0,unique,single,t_i_15_1.jpg,Travel,,,sub-13
Desktop or Laptop,Windows 10,Edge 138.0.0.0,1280x720,1232x602,Temporal Distance Task,cb_05,83.0,temp_dist_trial,num_items,zn7si1,1.0,response,1_ITEM,1671.5999999284977,1666.7000000000116,1671.5999999284977,1671.5999999284977,1666.7000000000116,1671.5999999284977,1.0,0.0,0.0,,Click Response,1_count,3.0,object-46,temp_dist_trial,35.0,t_m_13_1,travel_Miami,floatie,5.0,unique,paired,t_m_13_1.jpg,Travel,,,sub-13
Desktop or Laptop,Windows 10,Edge 138.0.0.0,1280x720,1232x602,Temporal Distance Task,cb_05,84.0,temp_dist_trial,num_items,zn7si1,1.0,response,1_ITEM,1158.7999999284511,1133.399999999965,1158.7999999284511,1158.7999999284511,1133.399999999965,1158.7999999284511,1.0,0.0,0.0,,Click Response,1_count,3.0,object-46,temp_dist_trial,36.0,t_i_05_1,travel_Iceland,hiking boots,5.0,unique,single,t_i_05_1.jpg,Travel,,,sub-13
Desktop or Laptop,Windows 10,Edge 138.0.0.0,1280x720,1232x602,Temporal Distance Task,cb_05,85.0,temp_dist_trial,num_items,zn7si1,1.0,response,1_ITEM,1982.899999952293,1966.6999999999528,1982.899999952293,1982.899999952293,1966.6999999999528,1982.899999952293,1.0,0.0,0.0,,Click Response,1_count,3.0,object-46,temp_dist_trial,37.0,t_i_09_1,travel_Iceland,ear muffs,5.0,unique,single,t_i_09_1.jpg,Travel,,,sub-13
Desktop or Laptop,Windows 10,Edge 138.0.0.0,1280x720,1232x602,Temporal Distance Task,cb_05,86.0,temp_dist_trial,num_items,zn7si1,1.0,response,2_ITEM,1453.399999928486,1433.2000000000116,1453.399999928486,1453.399999928486,1433.2000000000116,1453.399999928486,1.0,0.0,0.0,,Click Response,2_count,5.0,object-49,temp_dist_trial,38.0,t_s_08_1,travel_shared,hand lotion,5.0,competing,paired,t_s_08_1.jpg,Travel,,,sub-13
Desktop or Laptop,Windows 10,Edge 138.0.0.0,1280x720,1232x602,Temporal Distance Task,cb_05,86.0,temp_dist_trial,dist_items,qkpkxw,2.0,info,,3.2999999284511428,0.0,3.2999999284511428,3.2999999284511428,0.0,3.2999999284511428,1.0,0.0,0.0,,Slider,Slider,4.0,object-56,temp_dist_trial,38.0,t_s_08_1,travel_shared,hand lotion,5.0,competing,paired,t_s_08_1.jpg,Travel,,,sub-13
Desktop or Laptop,Windows 10,Edge 138.0.0.0,1280x720,1232x602,Temporal Distance Task,cb_05,86.0,temp_dist_trial,dist_items,qkpkxw,2.0,continue,,1923.9999999761346,1900.0,1923.9999999761346,1923.9999999761346,1900.0,1923.9999999761346,1.0,0.0,0.0,,Click To Continue,Next button,7.0,object-60,temp_dist_trial,38.0,t_s_08_1,travel_shared,hand lotion,5.0,competing,paired,t_s_08_1.jpg,Travel,,,sub-13
Desktop or Laptop,Windows 10,Edge 138.0.0.0,1280x720,1232x602,Temporal Distance Task,cb_05,86.0,temp_dist_trial,dist_items,qkpkxw,2.0,response,64,1066.5999999999767,1900.0,1924.2000000238183,1066.5999999999767,1900.0,1924.2000000238183,1.0,857.6000000238419,0.0,,Slider,Slider,4.0,object-56,temp_dist_trial,38.0,t_s_08_1,travel_shared,hand lotion,5.0,competing,paired,t_s_08_1.jpg,Travel,,,sub-13
Desktop or Laptop,Windows 10,Edge 138.0.0.0,1280x720,1232x602,Temporal Distance Task,cb_05,87.0,temp_dist_trial,num_items,zn7si1,1.0,response,1_ITEM,1945.399999952293,1933.2999999999884,1945.399999952293,1945.399999952293,1933.2999999999884,1945.399999952293,1.0,0.0,0.0,,Click Response,1_count,3.0,object-46,temp_dist_trial,39.0,t_s_11_1,travel_shared,eye mask,5.0,competing,paired,t_s_11_1.jpg,Travel,,,sub-13
Desktop or Laptop,Windows 10,Edge 138.0.0.0,1280x720,1232x602,Temporal Distance Task,cb_05,88.0,temp_dist_trial,num_items,zn7si1,1.0,response,num_miss,3000.0,3000.0,3000.0,3000.0,3000.0,3000.0,1.0,0.0,0.0,num_miss_tag,Time Limit,screen,0.0,screen,temp_dist_trial,40.0,t_m_02_1,travel_Miami,t-shirt,5.0,unique,single,t_m_02_1.jpg,Travel,,,sub-13
Desktop or Laptop,Windows 10,Edge 138.0.0.0,1280x720,1232x602,Temporal Distance Task,cb_05,89.0,temp_dist_trial,num_items,zn7si1,1.0,response,2_ITEM,2833.4000000000237,2800.0,2833.4000000000237,2833.4000000000237,2800.0,2833.4000000000237,1.0,0.0,0.0,,Click Response,2_count,5.0,object-49,temp_dist_trial,41.0,t_s_23_1,travel_shared,ball cap,5.0,competing,paired,t_s_23_1.jpg,Travel,,,sub-13
Desktop or Laptop,Windows 10,Edge 138.0.0.0,1280x720,1232x602,Temporal Distance Task,cb_05,89.0,temp_dist_trial,dist_items,qkpkxw,2.0,info,,3.4999999284627847,0.0,3.4999999284627847,3.4999999284627847,0.0,3.4999999284627847,1.0,0.0,0.0,,Slider,Slider,4.0,object-56,temp_dist_trial,41.0,t_s_23_1,travel_shared,ball cap,5.0,competing,paired,t_s_23_1.jpg,Travel,,,sub-13
Desktop or Laptop,Windows 10,Edge 138.0.0.0,1280x720,1232x602,Temporal Distance Task,cb_05,89.0,temp_dist_trial,dist_items,qkpkxw,2.0,continue,,1824.5999999523046,1799.7000000000116,1824.5999999523046,1824.5999999523046,1799.7000000000116,1824.5999999523046,1.0,0.0,0.0,,Click To Continue,Next button,7.0,object-60,temp_dist_trial,41.0,t_s_23_1,travel_shared,ball cap,5.0,competing,paired,t_s_23_1.jpg,Travel,,,sub-13
Desktop or Laptop,Windows 10,Edge 138.0.0.0,1280x720,1232x602,Temporal Distance Task,cb_05,89.0,temp_dist_trial,dist_items,qkpkxw,2.0,response,66,1066.399999999965,1799.7000000000116,1824.900000023831,1066.399999999965,1799.7000000000116,1824.900000023831,1.0,758.500000023865,0.0,,Slider,Slider,4.0,object-56,temp_dist_trial,41.0,t_s_23_1,travel_shared,ball cap,5.0,competing,paired,t_s_23_1.jpg,Travel,,,sub-13
Desktop or Laptop,Windows 10,Edge 138.0.0.0,1280x720,1232x602,Temporal Distance Task,cb_05,90.0,temp_dist_trial,num_items,zn7si1,1.0,response,2_ITEM,2043.5999999999767,2033.2999999999884,2043.5999999999767,2043.5999999999767,2033.2999999999884,2043.5999999999767,1.0,0.0,0.0,,Click Response,2_count,5.0,object-49,temp_dist_trial,42.0,t_s_13_1,travel_shared,contact lens case,5.0,competing,paired,t_s_13_1.jpg,Travel,,,sub-13
Desktop or Laptop,Windows 10,Edge 138.0.0.0,1280x720,1232x602,Temporal Distance Task,cb_05,90.0,temp_dist_trial,dist_items,qkpkxw,2.0,info,,3.900000000023284,0.0,3.900000000023284,3.900000000023284,0.0,3.900000000023284,1.0,0.0,0.0,,Slider,Slider,4.0,object-56,temp_dist_trial,42.0,t_s_13_1,travel_shared,contact lens case,5.0,competing,paired,t_s_13_1.jpg,Travel,,,sub-13
Desktop or Laptop,Windows 10,Edge 138.0.0.0,1280x720,1232x602,Temporal Distance Task,cb_05,90.0,temp_dist_trial,dist_items,qkpkxw,2.0,continue,,2334.4000000000233,2333.3000000000466,2334.4000000000233,2334.4000000000233,2333.3000000000466,2334.4000000000233,1.0,0.0,0.0,,Click To Continue,Next button,7.0,object-60,temp_dist_trial,42.0,t_s_13_1,travel_shared,contact lens case,5.0,competing,paired,t_s_13_1.jpg,Travel,,,sub-13
Desktop or Laptop,Windows 10,Edge 138.0.0.0,1280x720,1232x602,Temporal Distance Task,cb_05,90.0,temp_dist_trial,dist_items,qkpkxw,2.0,response,68,1433.2000000000116,2333.3000000000466,2334.799999976181,1433.2000000000116,2333.3000000000466,2334.799999976181,1.0,901.5999999761698,0.0,,Slider,Slider,4.0,object-56,temp_dist_trial,42.0,t_s_13_1,travel_shared,contact lens case,5.0,competing,paired,t_s_13_1.jpg,Travel,,,sub-13
Desktop or Laptop,Windows 10,Edge 138.0.0.0,1280x720,1232x602,Temporal Distance Task,cb_05,91.0,temp_dist_trial,num_items,zn7si1,1.0,response,2_ITEM,1189.2999999284511,1166.5999999999767,1189.2999999284511,1189.2999999284511,1166.5999999999767,1189.2999999284511,1.0,0.0,0.0,,Click Response,2_count,5.0,object-49,temp_dist_trial,43.0,t_s_06_1,travel_shared,luggage,5.0,competing,single,t_s_06_1.jpg,Travel,,,sub-13
Desktop or Laptop,Windows 10,Edge 138.0.0.0,1280x720,1232x602,Temporal Distance Task,cb_05,91.0,temp_dist_trial,dist_items,qkpkxw,2.0,info,,3.2000000238185757,0.0,3.2000000238185757,3.2000000238185757,0.0,3.2000000238185757,1.0,0.0,0.0,,Slider,Slider,4.0,object-56,temp_dist_trial,43.0,t_s_06_1,travel_shared,luggage,5.0,competing,single,t_s_06_1.jpg,Travel,,,sub-13
Desktop or Laptop,Windows 10,Edge 138.0.0.0,1280x720,1232x602,Temporal Distance Task,cb_05,91.0,temp_dist_trial,dist_items,qkpkxw,2.0,continue,,2708.099999999977,2699.899999999965,2708.099999999977,2708.099999999977,2699.899999999965,2708.099999999977,1.0,0.0,0.0,,Click To Continue,Next button,7.0,object-60,temp_dist_trial,43.0,t_s_06_1,travel_shared,luggage,5.0,competing,single,t_s_06_1.jpg,Travel,,,sub-13
Desktop or Laptop,Windows 10,Edge 138.0.0.0,1280x720,1232x602,Temporal Distance Task,cb_05,91.0,temp_dist_trial,dist_items,qkpkxw,2.0,response,61,1700.0,2699.899999999965,2708.299999928451,1700.0,2699.899999999965,2708.299999928451,1.0,1008.2999999284513,0.0,,Slider,Slider,4.0,object-56,temp_dist_trial,43.0,t_s_06_1,travel_shared,luggage,5.0,competing,single,t_s_06_1.jpg,Travel,,,sub-13
Desktop or Laptop,Windows 10,Edge 138.0.0.0,1280x720,1232x602,Temporal Distance Task,cb_05,92.0,temp_dist_trial,num_items,zn7si1,1.0,response,1_ITEM,1586.2000000000116,1566.6000000000354,1586.2000000000116,1586.2000000000116,1566.6000000000354,1586.2000000000116,1.0,0.0,0.0,,Click Response,1_count,3.0,object-46,temp_dist_trial,44.0,t_s_16_1,travel_shared,chapstick,5.0,competing,single,t_s_16_1.jpg,Travel,,,sub-13
Desktop or Laptop,Windows 10,Edge 138.0.0.0,1280x720,1232x602,Temporal Distance Task,cb_05,93.0,temp_dist_trial,num_items,zn7si1,1.0,response,1_ITEM,1159.7999999284511,1133.1999999999534,1159.7999999284511,1159.7999999284511,1133.1999999999534,1159.7999999284511,1.0,0.0,0.0,,Click Response,1_count,3.0,object-46,temp_dist_trial,45.0,t_s_17_1,travel_shared,toothbrush,5.0,competing,paired,t_s_17_1.jpg,Travel,,,sub-13
Desktop or Laptop,Windows 10,Edge 138.0.0.0,1280x720,1232x602,Temporal Distance Task,cb_05,94.0,temp_dist_trial,num_items,zn7si1,1.0,response,1_ITEM,1041.600000023842,1033.2999999999884,1041.600000023842,1041.600000023842,1033.2999999999884,1041.600000023842,1.0,0.0,0.0,,Click Response,1_count,3.0,object-46,temp_dist_trial,46.0,t_s_10_1,travel_shared,luggage lock,5.0,competing,paired,t_s_10_1.jpg,Travel,,,sub-13
Desktop or Laptop,Windows 10,Edge 138.0.0.0,1280x720,1232x602,Temporal Distance Task,cb_05,95.0,temp_dist_trial,num_items,zn7si1,1.0,response,1_ITEM,1260.0999999999767,1233.399999999965,1260.0999999999767,1260.0999999999767,1233.399999999965,1260.0999999999767,1.0,0.0,0.0,,Click Response,1_count,3.0,object-46,temp_dist_trial,47.0,t_s_14_1,travel_shared,hand sanitizer,5.0,competing,single,t_s_14_1.jpg,Travel,,,sub-13
Desktop or Laptop,Windows 10,Edge 138.0.0.0,1280x720,1232x602,Temporal Distance Task,cb_05,96.0,temp_dist_trial,num_items,zn7si1,1.0,response,1_ITEM,2770.2000000238186,2766.699999999953,2770.2000000238186,2770.2000000238186,2766.699999999953,2770.2000000238186,1.0,0.0,0.0,,Click Response,1_count,3.0,object-46,temp_dist_trial,48.0,t_m_09_1,travel_Miami,beach towel,5.0,unique,paired,t_m_09_1.jpg,Travel,,,sub-13
Desktop or Laptop,Windows 10,Edge 138.0.0.0,1280x720,1232x602,Temporal Distance Task,$${counterbalance_group},,,,,,info,END,,,363944.0,,,,0.0,,,,,,,,,,,,,,,,,,,,sub-13
