Participant Device,Participant OS,Participant Browser,Participant Monitor Size,Participant Viewport Size,Task Name,Current Spreadsheet,Trial Number,Display,Screen,Screen ID,Screen Counter,Response Type,Response,Onset Time,Clock Time,Reaction Time,Absolute Onset Time,Absolute Clock Time,Absolute Reaction Time,Correct,Response Duration,Proportion,Tag,Component Name,Object Name,Object Number,Object ID,Spreadsheet: display,Spreadsheet: trial,Spreadsheet: stimulus_id,Spreadsheet: expected_goal,Spreadsheet: stimulus_name,Spreadsheet: c_group,Spreadsheet: condition,Spreadsheet: paired_status,Spreadsheet: stimulus_path,Spreadsheet: block_type,Manipulation: Spreadsheet,Store: enc_test_acc,sub_label
Desktop or Laptop,Windows 10,Opera 120.0.0.0,1536x864,1536x864,Temporal Distance Task,,,,,,,info,BEGIN,,,,,,,,,,,,,,,,,,,,,,,,,$${counterbalance_group},,sub-89
Desktop or Laptop,Windows 10,Opera 120.0.0.0,1536x864,1536x864,Temporal Distance Task,cb_07,1.0,temp_instructions,intro_screen,3tnme7,1.0,continue,,9197.3,9180.6,9197.3,9197.3,9180.6,9197.3,1.0,0.0,0.0,,Click To Continue,Continue Button,4.0,object-29,temp_instructions,,,Student,,,,,,,$${counterbalance_group},,sub-89
Desktop or Laptop,Windows 10,Opera 120.0.0.0,1536x864,1536x864,Temporal Distance Task,cb_07,1.0,temp_instructions,intro_screen_2,52v7ur,2.0,continue,,9738.4,9730.2,9738.4,9738.4,9730.2,9738.4,1.0,0.0,0.0,,Click To Continue,Continue Button,4.0,object-39,temp_instructions,,,Student,,,,,,,$${counterbalance_group},,sub-89
Desktop or Laptop,Windows 10,Opera 120.0.0.0,1536x864,1536x864,Temporal Distance Task,cb_07,1.0,temp_instructions,intro_screen_3,i7lvwx,3.0,continue,,5815.500000000004,5798.600000000002,5815.500000000004,5815.500000000004,5798.600000000002,5815.500000000004,1.0,0.0,0.0,,Click To Continue,Continue Button,4.0,object-67,temp_instructions,,,Student,,,,,,,$${counterbalance_group},,sub-89
Desktop or Laptop,Windows 10,Opera 120.0.0.0,1536x864,1536x864,Temporal Distance Task,cb_07,1.0,temp_instructions,test_q1,5ieqx1,4.0,response,choice_3,12521.999999976155,12512.699999999995,12521.999999976155,12521.999999976155,12512.699999999995,12521.999999976155,1.0,0.0,0.0,,Click Response,choice_3,5.0,object-345,temp_instructions,,,Student,,,,,,,$${counterbalance_group},,sub-89
Desktop or Laptop,Windows 10,Opera 120.0.0.0,1536x864,1536x864,Temporal Distance Task,cb_07,1.0,temp_instructions,score_corr,7ilvjr,5.0,continue,,1512.1000000476852,1499.3000000000034,1512.1000000476852,1512.1000000476852,1499.3000000000034,1512.1000000476852,1.0,0.0,0.0,,Click To Continue,Continue Button,3.0,object-23,temp_instructions,,,Student,,,,,,,$${counterbalance_group},,sub-89
Desktop or Laptop,Windows 10,Opera 120.0.0.0,1536x864,1536x864,Temporal Distance Task,cb_07,1.0,temp_eventStart,Screen 1,dgtyxe,1.0,continue,,3715.099999999999,3698.699999999997,3715.099999999999,3715.099999999999,3698.699999999997,3715.099999999999,1.0,0.0,0.0,,Click To Continue,Next Button,3.0,object-43,temp_eventStart,,,Student,,,,,,,$${counterbalance_group},,sub-89
Desktop or Laptop,Windows 10,Opera 120.0.0.0,1536x864,1536x864,Temporal Distance Task,cb_07,1.0,temp_dist_trial,num_items,zn7si1,1.0,response,1_ITEM,2925.29999997616,2915.900000000001,2925.29999997616,2925.29999997616,2915.900000000001,2925.29999997616,1.0,0.0,0.0,,Click Response,1_count,3.0,object-46,temp_dist_trial,1.0,s_sh_13_1,student_shared,index cards,7.0,competing,paired,s_sh_13_1.jpg,Student,$${counterbalance_group},,sub-89
Desktop or Laptop,Windows 10,Opera 120.0.0.0,1536x864,1536x864,Temporal Distance Task,cb_07,2.0,temp_dist_trial,num_items,zn7si1,1.0,response,1_ITEM,1164.1999999999969,1149.8999999999942,1164.1999999999969,1164.1999999999969,1149.8999999999942,1164.1999999999969,1.0,0.0,0.0,,Click Response,1_count,3.0,object-46,temp_dist_trial,2.0,s_a_09_1,student_art,picture frame,7.0,unique,single,s_a_09_1.jpg,Student,$${counterbalance_group},,sub-89
Desktop or Laptop,Windows 10,Opera 120.0.0.0,1536x864,1536x864,Temporal Distance Task,cb_07,3.0,temp_dist_trial,num_items,zn7si1,1.0,response,2_ITEM,1182.4999999761567,1166.5,1182.4999999761567,1182.4999999761567,1166.5,1182.4999999761567,1.0,0.0,0.0,,Click Response,2_count,5.0,object-49,temp_dist_trial,3.0,s_sh_02_1,student_shared,eraser,7.0,competing,paired,s_sh_02_1.jpg,Student,$${counterbalance_group},,sub-89
Desktop or Laptop,Windows 10,Opera 120.0.0.0,1536x864,1536x864,Temporal Distance Task,cb_07,3.0,temp_dist_trial,dist_items,qkpkxw,2.0,info,,12.600000047685173,0.0,12.600000047685173,12.600000047685173,0.0,12.600000047685173,1.0,0.0,0.0,,Slider,Slider,4.0,object-56,temp_dist_trial,3.0,s_sh_02_1,student_shared,eraser,7.0,competing,paired,s_sh_02_1.jpg,Student,$${counterbalance_group},,sub-89
Desktop or Laptop,Windows 10,Opera 120.0.0.0,1536x864,1536x864,Temporal Distance Task,cb_07,3.0,temp_dist_trial,dist_items,qkpkxw,2.0,continue,,4293.2999999761605,4282.200000000004,4293.2999999761605,4293.2999999761605,4282.200000000004,4293.2999999761605,1.0,0.0,0.0,,Click To Continue,Next button,7.0,object-60,temp_dist_trial,3.0,s_sh_02_1,student_shared,eraser,7.0,competing,paired,s_sh_02_1.jpg,Student,$${counterbalance_group},,sub-89
Desktop or Laptop,Windows 10,Opera 120.0.0.0,1536x864,1536x864,Temporal Distance Task,cb_07,3.0,temp_dist_trial,dist_items,qkpkxw,2.0,response,77,2949.2000000000044,4282.200000000004,4295.4000000000015,2949.2000000000044,4282.200000000004,4295.4000000000015,1.0,1346.1999999999969,0.0,,Slider,Slider,4.0,object-56,temp_dist_trial,3.0,s_sh_02_1,student_shared,eraser,7.0,competing,paired,s_sh_02_1.jpg,Student,$${counterbalance_group},,sub-89
Desktop or Laptop,Windows 10,Opera 120.0.0.0,1536x864,1536x864,Temporal Distance Task,cb_07,4.0,temp_dist_trial,num_items,zn7si1,1.0,response,2_ITEM,1970.9000000476806,1965.8999999999944,1970.9000000476806,1970.9000000476806,1965.8999999999944,1970.9000000476806,1.0,0.0,0.0,,Click Response,2_count,5.0,object-49,temp_dist_trial,4.0,s_sh_07_1,student_shared,ruler,7.0,competing,paired,s_sh_07_1.jpg,Student,$${counterbalance_group},,sub-89
Desktop or Laptop,Windows 10,Opera 120.0.0.0,1536x864,1536x864,Temporal Distance Task,cb_07,4.0,temp_dist_trial,dist_items,qkpkxw,2.0,info,,16.80000000000291,0.0,16.80000000000291,16.80000000000291,0.0,16.80000000000291,1.0,0.0,0.0,,Slider,Slider,4.0,object-56,temp_dist_trial,4.0,s_sh_07_1,student_shared,ruler,7.0,competing,paired,s_sh_07_1.jpg,Student,$${counterbalance_group},,sub-89
Desktop or Laptop,Windows 10,Opera 120.0.0.0,1536x864,1536x864,Temporal Distance Task,cb_07,4.0,temp_dist_trial,dist_items,qkpkxw,2.0,continue,,2698.199999999997,2682.3999999999937,2698.199999999997,2698.199999999997,2682.3999999999937,2698.199999999997,1.0,0.0,0.0,,Click To Continue,Next button,7.0,object-60,temp_dist_trial,4.0,s_sh_07_1,student_shared,ruler,7.0,competing,paired,s_sh_07_1.jpg,Student,$${counterbalance_group},,sub-89
Desktop or Laptop,Windows 10,Opera 120.0.0.0,1536x864,1536x864,Temporal Distance Task,cb_07,4.0,temp_dist_trial,dist_items,qkpkxw,2.0,response,27,1432.8999999999942,2682.3999999999937,2699.0999999999913,1432.8999999999942,2682.3999999999937,2699.0999999999913,1.0,1266.1999999999969,0.0,,Slider,Slider,4.0,object-56,temp_dist_trial,4.0,s_sh_07_1,student_shared,ruler,7.0,competing,paired,s_sh_07_1.jpg,Student,$${counterbalance_group},,sub-89
Desktop or Laptop,Windows 10,Opera 120.0.0.0,1536x864,1536x864,Temporal Distance Task,cb_07,5.0,temp_dist_trial,num_items,zn7si1,1.0,response,2_ITEM,2343.4000000238448,2332.6000000000063,2343.4000000238448,2343.4000000238448,2332.6000000000063,2343.4000000238448,1.0,0.0,0.0,,Click Response,2_count,5.0,object-49,temp_dist_trial,5.0,s_s_16_1,student_stem,toolbox,7.0,unique,paired,s_s_16_1.jpg,Student,$${counterbalance_group},,sub-89
Desktop or Laptop,Windows 10,Opera 120.0.0.0,1536x864,1536x864,Temporal Distance Task,cb_07,5.0,temp_dist_trial,dist_items,qkpkxw,2.0,info,,16.5,0.0,16.5,16.5,0.0,16.5,1.0,0.0,0.0,,Slider,Slider,4.0,object-56,temp_dist_trial,5.0,s_s_16_1,student_stem,toolbox,7.0,unique,paired,s_s_16_1.jpg,Student,$${counterbalance_group},,sub-89
Desktop or Laptop,Windows 10,Opera 120.0.0.0,1536x864,1536x864,Temporal Distance Task,cb_07,5.0,temp_dist_trial,dist_items,qkpkxw,2.0,continue,,5343.699999976161,5331.800000000003,5343.699999976161,5343.699999976161,5331.800000000003,5343.699999976161,1.0,0.0,0.0,,Click To Continue,Next button,7.0,object-60,temp_dist_trial,5.0,s_s_16_1,student_stem,toolbox,7.0,unique,paired,s_s_16_1.jpg,Student,$${counterbalance_group},,sub-89
Desktop or Laptop,Windows 10,Opera 120.0.0.0,1536x864,1536x864,Temporal Distance Task,cb_07,5.0,temp_dist_trial,dist_items,qkpkxw,2.0,response,28,2532.6000000000063,5331.800000000003,5344.800000000003,2532.6000000000063,5331.800000000003,5344.800000000003,1.0,2812.199999999997,0.0,,Slider,Slider,4.0,object-56,temp_dist_trial,5.0,s_s_16_1,student_stem,toolbox,7.0,unique,paired,s_s_16_1.jpg,Student,$${counterbalance_group},,sub-89
Desktop or Laptop,Windows 10,Opera 120.0.0.0,1536x864,1536x864,Temporal Distance Task,cb_07,6.0,temp_dist_trial,num_items,zn7si1,1.0,response,2_ITEM,2063.700000047684,2049.300000000003,2063.700000047684,2063.700000047684,2049.300000000003,2063.700000047684,1.0,0.0,0.0,,Click Response,2_count,5.0,object-49,temp_dist_trial,6.0,s_a_18_1,student_art,tutu,7.0,unique,paired,s_a_18_1.jpg,Student,$${counterbalance_group},,sub-89
Desktop or Laptop,Windows 10,Opera 120.0.0.0,1536x864,1536x864,Temporal Distance Task,cb_07,6.0,temp_dist_trial,dist_items,qkpkxw,2.0,info,,16.80000000000291,0.0,16.80000000000291,16.80000000000291,0.0,16.80000000000291,1.0,0.0,0.0,,Slider,Slider,4.0,object-56,temp_dist_trial,6.0,s_a_18_1,student_art,tutu,7.0,unique,paired,s_a_18_1.jpg,Student,$${counterbalance_group},,sub-89
Desktop or Laptop,Windows 10,Opera 120.0.0.0,1536x864,1536x864,Temporal Distance Task,cb_07,6.0,temp_dist_trial,dist_items,qkpkxw,2.0,continue,,2299.0000000000146,2282.6000000000063,2299.0000000000146,2299.0000000000146,2282.6000000000063,2299.0000000000146,1.0,0.0,0.0,,Click To Continue,Next button,7.0,object-60,temp_dist_trial,6.0,s_a_18_1,student_art,tutu,7.0,unique,paired,s_a_18_1.jpg,Student,$${counterbalance_group},,sub-89
Desktop or Laptop,Windows 10,Opera 120.0.0.0,1536x864,1536x864,Temporal Distance Task,cb_07,6.0,temp_dist_trial,dist_items,qkpkxw,2.0,response,19,1182.9000000000087,2282.6000000000063,2299.0000000000146,1182.9000000000087,2282.6000000000063,2299.0000000000146,1.0,1116.1000000000058,0.0,,Slider,Slider,4.0,object-56,temp_dist_trial,6.0,s_a_18_1,student_art,tutu,7.0,unique,paired,s_a_18_1.jpg,Student,$${counterbalance_group},,sub-89
Desktop or Laptop,Windows 10,Opera 120.0.0.0,1536x864,1536x864,Temporal Distance Task,cb_07,7.0,temp_dist_trial,num_items,zn7si1,1.0,response,2_ITEM,2014.8000000238392,1999.3000000000034,2014.8000000238392,2014.8000000238392,1999.3000000000034,2014.8000000238392,1.0,0.0,0.0,,Click Response,2_count,5.0,object-49,temp_dist_trial,7.0,s_a_05_1,student_art,clay,7.0,unique,paired,s_a_05_1.jpg,Student,$${counterbalance_group},,sub-89
Desktop or Laptop,Windows 10,Opera 120.0.0.0,1536x864,1536x864,Temporal Distance Task,cb_07,7.0,temp_dist_trial,dist_items,qkpkxw,2.0,info,,12.600000023841858,0.0,12.600000023841858,12.600000023841858,0.0,12.600000023841858,1.0,0.0,0.0,,Slider,Slider,4.0,object-56,temp_dist_trial,7.0,s_a_05_1,student_art,clay,7.0,unique,paired,s_a_05_1.jpg,Student,$${counterbalance_group},,sub-89
Desktop or Laptop,Windows 10,Opera 120.0.0.0,1536x864,1536x864,Temporal Distance Task,cb_07,7.0,temp_dist_trial,dist_items,qkpkxw,2.0,continue,,3913.2000000476837,3898.8999999999933,3913.2000000476837,3913.2000000476837,3898.8999999999933,3913.2000000476837,1.0,0.0,0.0,,Click To Continue,Next button,7.0,object-60,temp_dist_trial,7.0,s_a_05_1,student_art,clay,7.0,unique,paired,s_a_05_1.jpg,Student,$${counterbalance_group},,sub-89
Desktop or Laptop,Windows 10,Opera 120.0.0.0,1536x864,1536x864,Temporal Distance Task,cb_07,7.0,temp_dist_trial,dist_items,qkpkxw,2.0,response,41,949.6999999999972,3898.8999999999933,3914.1000000238414,949.6999999999972,3898.8999999999933,3914.1000000238414,1.0,2964.400000023845,0.0,,Slider,Slider,4.0,object-56,temp_dist_trial,7.0,s_a_05_1,student_art,clay,7.0,unique,paired,s_a_05_1.jpg,Student,$${counterbalance_group},,sub-89
Desktop or Laptop,Windows 10,Opera 120.0.0.0,1536x864,1536x864,Temporal Distance Task,cb_07,8.0,temp_dist_trial,num_items,zn7si1,1.0,response,1_ITEM,2815.9000000000237,2799.200000000012,2815.9000000000237,2815.9000000000237,2799.200000000012,2815.9000000000237,1.0,0.0,0.0,,Click Response,1_count,3.0,object-46,temp_dist_trial,8.0,s_sh_04_1,student_shared,laptop stand,7.0,competing,single,s_sh_04_1.jpg,Student,$${counterbalance_group},,sub-89
Desktop or Laptop,Windows 10,Opera 120.0.0.0,1536x864,1536x864,Temporal Distance Task,cb_07,9.0,temp_dist_trial,num_items,zn7si1,1.0,response,2_ITEM,1297.5000000476864,1283.0,1297.5000000476864,1297.5000000476864,1283.0,1297.5000000476864,1.0,0.0,0.0,,Click Response,2_count,5.0,object-49,temp_dist_trial,9.0,s_a_14_1,student_art,guitar pick,7.0,unique,paired,s_a_14_1.jpg,Student,$${counterbalance_group},,sub-89
Desktop or Laptop,Windows 10,Opera 120.0.0.0,1536x864,1536x864,Temporal Distance Task,cb_07,9.0,temp_dist_trial,dist_items,qkpkxw,2.0,info,,16.5,0.0,16.5,16.5,0.0,16.5,1.0,0.0,0.0,,Slider,Slider,4.0,object-56,temp_dist_trial,9.0,s_a_14_1,student_art,guitar pick,7.0,unique,paired,s_a_14_1.jpg,Student,$${counterbalance_group},,sub-89
Desktop or Laptop,Windows 10,Opera 120.0.0.0,1536x864,1536x864,Temporal Distance Task,cb_07,9.0,temp_dist_trial,dist_items,qkpkxw,2.0,continue,,2814.8999999999933,2799.199999999997,2814.8999999999933,2814.8999999999933,2799.199999999997,2814.8999999999933,1.0,0.0,0.0,,Click To Continue,Next button,7.0,object-60,temp_dist_trial,9.0,s_a_14_1,student_art,guitar pick,7.0,unique,paired,s_a_14_1.jpg,Student,$${counterbalance_group},,sub-89
Desktop or Laptop,Windows 10,Opera 120.0.0.0,1536x864,1536x864,Temporal Distance Task,cb_07,9.0,temp_dist_trial,dist_items,qkpkxw,2.0,response,30,1816.2999999999884,2799.199999999997,2815.800000000003,1816.2999999999884,2799.199999999997,2815.800000000003,1.0,999.5000000000148,0.0,,Slider,Slider,4.0,object-56,temp_dist_trial,9.0,s_a_14_1,student_art,guitar pick,7.0,unique,paired,s_a_14_1.jpg,Student,$${counterbalance_group},,sub-89
Desktop or Laptop,Windows 10,Opera 120.0.0.0,1536x864,1536x864,Temporal Distance Task,cb_07,10.0,temp_dist_trial,num_items,zn7si1,1.0,response,1_ITEM,1465.8000000238392,1449.5,1465.8000000238392,1465.8000000238392,1449.5,1465.8000000238392,1.0,0.0,0.0,,Click Response,1_count,3.0,object-46,temp_dist_trial,10.0,s_a_01_1,student_art,paintbrush,7.0,unique,paired,s_a_01_1.jpg,Student,$${counterbalance_group},,sub-89
Desktop or Laptop,Windows 10,Opera 120.0.0.0,1536x864,1536x864,Temporal Distance Task,cb_07,11.0,temp_dist_trial,num_items,zn7si1,1.0,response,2_ITEM,1209.8000000476895,1199.3000000000031,1209.8000000476895,1209.8000000476895,1199.3000000000031,1209.8000000476895,1.0,0.0,0.0,,Click Response,2_count,5.0,object-49,temp_dist_trial,11.0,s_sh_16_1,student_shared,stapler,7.0,competing,paired,s_sh_16_1.jpg,Student,$${counterbalance_group},,sub-89
Desktop or Laptop,Windows 10,Opera 120.0.0.0,1536x864,1536x864,Temporal Distance Task,cb_07,11.0,temp_dist_trial,dist_items,qkpkxw,2.0,info,,9.69999999999709,0.0,9.69999999999709,9.69999999999709,0.0,9.69999999999709,1.0,0.0,0.0,,Slider,Slider,4.0,object-56,temp_dist_trial,11.0,s_sh_16_1,student_shared,stapler,7.0,competing,paired,s_sh_16_1.jpg,Student,$${counterbalance_group},,sub-89
Desktop or Laptop,Windows 10,Opera 120.0.0.0,1536x864,1536x864,Temporal Distance Task,cb_07,11.0,temp_dist_trial,dist_items,qkpkxw,2.0,continue,,1743.0999999761555,1733.0,1743.0999999761555,1743.0999999761555,1733.0,1743.0999999761555,1.0,0.0,0.0,,Click To Continue,Next button,7.0,object-60,temp_dist_trial,11.0,s_sh_16_1,student_shared,stapler,7.0,competing,paired,s_sh_16_1.jpg,Student,$${counterbalance_group},,sub-89
Desktop or Laptop,Windows 10,Opera 120.0.0.0,1536x864,1536x864,Temporal Distance Task,cb_07,11.0,temp_dist_trial,dist_items,qkpkxw,2.0,response,83,749.8000000000029,1733.0,1744.1999999999966,749.8000000000029,1733.0,1744.1999999999966,1.0,994.3999999999942,0.0,,Slider,Slider,4.0,object-56,temp_dist_trial,11.0,s_sh_16_1,student_shared,stapler,7.0,competing,paired,s_sh_16_1.jpg,Student,$${counterbalance_group},,sub-89
Desktop or Laptop,Windows 10,Opera 120.0.0.0,1536x864,1536x864,Temporal Distance Task,cb_07,12.0,temp_dist_trial,num_items,zn7si1,1.0,response,2_ITEM,1260.4000000476808,1249.5999999999913,1260.4000000476808,1260.4000000476808,1249.5999999999913,1260.4000000476808,1.0,0.0,0.0,,Click Response,2_count,5.0,object-49,temp_dist_trial,12.0,s_a_07_1,student_art,yarn,7.0,unique,paired,s_a_07_1.jpg,Student,$${counterbalance_group},,sub-89
Desktop or Laptop,Windows 10,Opera 120.0.0.0,1536x864,1536x864,Temporal Distance Task,cb_07,12.0,temp_dist_trial,dist_items,qkpkxw,2.0,info,,15.69999999999709,0.0,15.69999999999709,15.69999999999709,0.0,15.69999999999709,1.0,0.0,0.0,,Slider,Slider,4.0,object-56,temp_dist_trial,12.0,s_a_07_1,student_art,yarn,7.0,unique,paired,s_a_07_1.jpg,Student,$${counterbalance_group},,sub-89
Desktop or Laptop,Windows 10,Opera 120.0.0.0,1536x864,1536x864,Temporal Distance Task,cb_07,12.0,temp_dist_trial,dist_items,qkpkxw,2.0,continue,,3188.900000023845,3182.400000000009,3188.900000023845,3188.900000023845,3182.400000000009,3188.900000023845,1.0,0.0,0.0,,Click To Continue,Next button,7.0,object-60,temp_dist_trial,12.0,s_a_07_1,student_art,yarn,7.0,unique,paired,s_a_07_1.jpg,Student,$${counterbalance_group},,sub-89
Desktop or Laptop,Windows 10,Opera 120.0.0.0,1536x864,1536x864,Temporal Distance Task,cb_07,12.0,temp_dist_trial,dist_items,qkpkxw,2.0,response,64,1083.1999999999969,3182.400000000009,3199.100000000021,1083.1999999999969,3182.400000000009,3199.100000000021,1.0,2115.9000000000233,0.0,,Slider,Slider,4.0,object-56,temp_dist_trial,12.0,s_a_07_1,student_art,yarn,7.0,unique,paired,s_a_07_1.jpg,Student,$${counterbalance_group},,sub-89
Desktop or Laptop,Windows 10,Opera 120.0.0.0,1536x864,1536x864,Temporal Distance Task,cb_07,13.0,temp_dist_trial,num_items,zn7si1,1.0,response,2_ITEM,2215.6999999999825,2199.0999999999913,2215.6999999999825,2215.6999999999825,2199.0999999999913,2215.6999999999825,1.0,0.0,0.0,,Click Response,2_count,5.0,object-49,temp_dist_trial,13.0,s_sh_21_1,student_shared,file holder,7.0,competing,paired,s_sh_21_1.jpg,Student,$${counterbalance_group},,sub-89
Desktop or Laptop,Windows 10,Opera 120.0.0.0,1536x864,1536x864,Temporal Distance Task,cb_07,13.0,temp_dist_trial,dist_items,qkpkxw,2.0,info,,8.100000023841858,0.0,8.100000023841858,8.100000023841858,0.0,8.100000023841858,1.0,0.0,0.0,,Slider,Slider,4.0,object-56,temp_dist_trial,13.0,s_sh_21_1,student_shared,file holder,7.0,competing,paired,s_sh_21_1.jpg,Student,$${counterbalance_group},,sub-89
Desktop or Laptop,Windows 10,Opera 120.0.0.0,1536x864,1536x864,Temporal Distance Task,cb_07,13.0,temp_dist_trial,dist_items,qkpkxw,2.0,continue,,2144.0,2132.800000000003,2144.0,2144.0,2132.800000000003,2144.0,1.0,0.0,0.0,,Click To Continue,Next button,7.0,object-60,temp_dist_trial,13.0,s_sh_21_1,student_shared,file holder,7.0,competing,paired,s_sh_21_1.jpg,Student,$${counterbalance_group},,sub-89
Desktop or Laptop,Windows 10,Opera 120.0.0.0,1536x864,1536x864,Temporal Distance Task,cb_07,13.0,temp_dist_trial,dist_items,qkpkxw,2.0,response,81,1166.3999999999942,2132.800000000003,2144.8000000715256,1166.3999999999942,2132.800000000003,2144.8000000715256,1.0,978.4000000715314,0.0,,Slider,Slider,4.0,object-56,temp_dist_trial,13.0,s_sh_21_1,student_shared,file holder,7.0,competing,paired,s_sh_21_1.jpg,Student,$${counterbalance_group},,sub-89
Desktop or Laptop,Windows 10,Opera 120.0.0.0,1536x864,1536x864,Temporal Distance Task,cb_07,14.0,temp_dist_trial,num_items,zn7si1,1.0,response,2_ITEM,1960.0000000715231,1949.3000000000034,1960.0000000715231,1960.0000000715231,1949.3000000000034,1960.0000000715231,1.0,0.0,0.0,,Click Response,2_count,5.0,object-49,temp_dist_trial,14.0,s_sh_11_1,student_shared,pencil case,7.0,competing,paired,s_sh_11_1.jpg,Student,$${counterbalance_group},,sub-89
Desktop or Laptop,Windows 10,Opera 120.0.0.0,1536x864,1536x864,Temporal Distance Task,cb_07,14.0,temp_dist_trial,dist_items,qkpkxw,2.0,info,,12.000000023836035,0.0,12.000000023836035,12.000000023836035,0.0,12.000000023836035,1.0,0.0,0.0,,Slider,Slider,4.0,object-56,temp_dist_trial,14.0,s_sh_11_1,student_shared,pencil case,7.0,competing,paired,s_sh_11_1.jpg,Student,$${counterbalance_group},,sub-89
Desktop or Laptop,Windows 10,Opera 120.0.0.0,1536x864,1536x864,Temporal Distance Task,cb_07,14.0,temp_dist_trial,dist_items,qkpkxw,2.0,continue,,2327.100000047678,2316.0999999999913,2327.100000047678,2327.100000047678,2316.0999999999913,2327.100000047678,1.0,0.0,0.0,,Click To Continue,Next button,7.0,object-60,temp_dist_trial,14.0,s_sh_11_1,student_shared,pencil case,7.0,competing,paired,s_sh_11_1.jpg,Student,$${counterbalance_group},,sub-89
Desktop or Laptop,Windows 10,Opera 120.0.0.0,1536x864,1536x864,Temporal Distance Task,cb_07,14.0,temp_dist_trial,dist_items,qkpkxw,2.0,response,19,1233.0,2316.0999999999913,2328.500000023836,1233.0,2316.0999999999913,2328.500000023836,1.0,1095.500000023836,0.0,,Slider,Slider,4.0,object-56,temp_dist_trial,14.0,s_sh_11_1,student_shared,pencil case,7.0,competing,paired,s_sh_11_1.jpg,Student,$${counterbalance_group},,sub-89
Desktop or Laptop,Windows 10,Opera 120.0.0.0,1536x864,1536x864,Temporal Distance Task,cb_07,15.0,temp_dist_trial,num_items,zn7si1,1.0,response,num_miss,2998.800000000003,2998.800000000003,2998.800000000003,2998.800000000003,2998.800000000003,2998.800000000003,1.0,0.0,0.0,num_miss_tag,Time Limit,screen,0.0,screen,temp_dist_trial,15.0,s_sh_05_1,student_shared,laptop,7.0,competing,paired,s_sh_05_1.jpg,Student,$${counterbalance_group},,sub-89
Desktop or Laptop,Windows 10,Opera 120.0.0.0,1536x864,1536x864,Temporal Distance Task,cb_07,16.0,temp_dist_trial,num_items,zn7si1,1.0,response,2_ITEM,153.39999997615809,149.89999999999418,153.39999997615809,153.39999997615809,149.89999999999418,153.39999997615809,1.0,0.0,0.0,,Click Response,2_count,5.0,object-49,temp_dist_trial,16.0,s_sh_06_1,student_shared,clipboard,7.0,competing,paired,s_sh_06_1.jpg,Student,$${counterbalance_group},,sub-89
Desktop or Laptop,Windows 10,Opera 120.0.0.0,1536x864,1536x864,Temporal Distance Task,cb_07,16.0,temp_dist_trial,dist_items,qkpkxw,2.0,info,,13.500000071522665,0.0,13.500000071522665,13.500000071522665,0.0,13.500000071522665,1.0,0.0,0.0,,Slider,Slider,4.0,object-56,temp_dist_trial,16.0,s_sh_06_1,student_shared,clipboard,7.0,competing,paired,s_sh_06_1.jpg,Student,$${counterbalance_group},,sub-89
Desktop or Laptop,Windows 10,Opera 120.0.0.0,1536x864,1536x864,Temporal Distance Task,cb_07,16.0,temp_dist_trial,dist_items,qkpkxw,2.0,continue,,1714.1999999999966,1699.3000000000034,1714.1999999999966,1714.1999999999966,1699.3000000000034,1714.1999999999966,1.0,0.0,0.0,,Click To Continue,Next button,7.0,object-60,temp_dist_trial,16.0,s_sh_06_1,student_shared,clipboard,7.0,competing,paired,s_sh_06_1.jpg,Student,$${counterbalance_group},,sub-89
Desktop or Laptop,Windows 10,Opera 120.0.0.0,1536x864,1536x864,Temporal Distance Task,cb_07,16.0,temp_dist_trial,dist_items,qkpkxw,2.0,response,88,749.8000000000029,1699.3000000000034,1715.1999999999966,749.8000000000029,1699.3000000000034,1715.1999999999966,1.0,965.3999999999942,0.0,,Slider,Slider,4.0,object-56,temp_dist_trial,16.0,s_sh_06_1,student_shared,clipboard,7.0,competing,paired,s_sh_06_1.jpg,Student,$${counterbalance_group},,sub-89
Desktop or Laptop,Windows 10,Opera 120.0.0.0,1536x864,1536x864,Temporal Distance Task,cb_07,17.0,temp_dist_trial,num_items,zn7si1,1.0,response,num_miss,2999.199999999997,2999.199999999997,2999.199999999997,2999.199999999997,2999.199999999997,2999.199999999997,1.0,0.0,0.0,num_miss_tag,Time Limit,screen,0.0,screen,temp_dist_trial,17.0,s_s_10_1,student_stem,3d molecule,7.0,unique,paired,s_s_10_1.jpg,Student,$${counterbalance_group},,sub-89
Desktop or Laptop,Windows 10,Opera 120.0.0.0,1536x864,1536x864,Temporal Distance Task,cb_07,18.0,temp_dist_trial,num_items,zn7si1,1.0,response,2_ITEM,1812.3000000238392,1799.1999999999966,1812.3000000238392,1812.3000000238392,1799.1999999999966,1812.3000000238392,1.0,0.0,0.0,,Click Response,2_count,5.0,object-49,temp_dist_trial,18.0,s_a_12_1,student_art,saxophone,7.0,unique,paired,s_a_12_1.jpg,Student,$${counterbalance_group},,sub-89
Desktop or Laptop,Windows 10,Opera 120.0.0.0,1536x864,1536x864,Temporal Distance Task,cb_07,18.0,temp_dist_trial,dist_items,qkpkxw,2.0,info,,16.5,0.0,16.5,16.5,0.0,16.5,1.0,0.0,0.0,,Slider,Slider,4.0,object-56,temp_dist_trial,18.0,s_a_12_1,student_art,saxophone,7.0,unique,paired,s_a_12_1.jpg,Student,$${counterbalance_group},,sub-89
Desktop or Laptop,Windows 10,Opera 120.0.0.0,1536x864,1536x864,Temporal Distance Task,cb_07,18.0,temp_dist_trial,dist_items,qkpkxw,2.0,continue,,2065.700000000012,2049.200000000012,2065.700000000012,2065.700000000012,2049.200000000012,2065.700000000012,1.0,0.0,0.0,,Click To Continue,Next button,7.0,object-60,temp_dist_trial,18.0,s_a_12_1,student_art,saxophone,7.0,unique,paired,s_a_12_1.jpg,Student,$${counterbalance_group},,sub-89
Desktop or Laptop,Windows 10,Opera 120.0.0.0,1536x864,1536x864,Temporal Distance Task,cb_07,18.0,temp_dist_trial,dist_items,qkpkxw,2.0,response,87,866.5,2049.200000000012,2065.700000000012,866.5,2049.200000000012,2065.700000000012,1.0,1199.2000000000114,0.0,,Slider,Slider,4.0,object-56,temp_dist_trial,18.0,s_a_12_1,student_art,saxophone,7.0,unique,paired,s_a_12_1.jpg,Student,$${counterbalance_group},,sub-89
Desktop or Laptop,Windows 10,Opera 120.0.0.0,1536x864,1536x864,Temporal Distance Task,cb_07,19.0,temp_dist_trial,num_items,zn7si1,1.0,response,2_ITEM,1298.2999999761525,1283.0,1298.2999999761525,1298.2999999761525,1283.0,1298.2999999761525,1.0,0.0,0.0,,Click Response,2_count,5.0,object-49,temp_dist_trial,19.0,s_s_15_1,student_stem,jumper cables,7.0,unique,paired,s_s_15_1.jpg,Student,$${counterbalance_group},,sub-89
Desktop or Laptop,Windows 10,Opera 120.0.0.0,1536x864,1536x864,Temporal Distance Task,cb_07,19.0,temp_dist_trial,dist_items,qkpkxw,2.0,info,,12.29999997615232,0.0,12.29999997615232,12.29999997615232,0.0,12.29999997615232,1.0,0.0,0.0,,Slider,Slider,4.0,object-56,temp_dist_trial,19.0,s_s_15_1,student_stem,jumper cables,7.0,unique,paired,s_s_15_1.jpg,Student,$${counterbalance_group},,sub-89
Desktop or Laptop,Windows 10,Opera 120.0.0.0,1536x864,1536x864,Temporal Distance Task,cb_07,19.0,temp_dist_trial,dist_items,qkpkxw,2.0,continue,,2140.7000000715198,2132.5999999999913,2140.7000000715198,2140.7000000715198,2132.5999999999913,2140.7000000715198,1.0,0.0,0.0,,Click To Continue,Next button,7.0,object-60,temp_dist_trial,19.0,s_s_15_1,student_stem,jumper cables,7.0,unique,paired,s_s_15_1.jpg,Student,$${counterbalance_group},,sub-89
Desktop or Laptop,Windows 10,Opera 120.0.0.0,1536x864,1536x864,Temporal Distance Task,cb_07,19.0,temp_dist_trial,dist_items,qkpkxw,2.0,response,16,933.2999999999884,2132.5999999999913,2141.100000047678,933.2999999999884,2132.5999999999913,2141.100000047678,1.0,1207.8000000476895,0.0,,Slider,Slider,4.0,object-56,temp_dist_trial,19.0,s_s_15_1,student_stem,jumper cables,7.0,unique,paired,s_s_15_1.jpg,Student,$${counterbalance_group},,sub-89
Desktop or Laptop,Windows 10,Opera 120.0.0.0,1536x864,1536x864,Temporal Distance Task,cb_07,20.0,temp_dist_trial,num_items,zn7si1,1.0,response,1_ITEM,1553.3000000000034,1549.8000000000034,1553.3000000000034,1553.3000000000034,1549.8000000000034,1553.3000000000034,1.0,0.0,0.0,,Click Response,1_count,3.0,object-46,temp_dist_trial,20.0,s_s_11_1,student_stem,scientific scale,7.0,unique,paired,s_s_11_1.jpg,Student,$${counterbalance_group},,sub-89
Desktop or Laptop,Windows 10,Opera 120.0.0.0,1536x864,1536x864,Temporal Distance Task,cb_07,21.0,temp_dist_trial,num_items,zn7si1,1.0,response,1_ITEM,1052.5000000476866,1049.8000000000031,1052.5000000476866,1052.5000000476866,1049.8000000000031,1052.5000000476866,1.0,0.0,0.0,,Click Response,1_count,3.0,object-46,temp_dist_trial,21.0,s_s_17_1,student_stem,ring stand,7.0,unique,single,s_s_17_1.jpg,Student,$${counterbalance_group},,sub-89
Desktop or Laptop,Windows 10,Opera 120.0.0.0,1536x864,1536x864,Temporal Distance Task,cb_07,22.0,temp_dist_trial,num_items,zn7si1,1.0,response,1_ITEM,2192.799999976153,2182.8999999999937,2192.799999976153,2192.799999976153,2182.8999999999937,2192.799999976153,1.0,0.0,0.0,,Click Response,1_count,3.0,object-46,temp_dist_trial,22.0,s_sh_17_1,student_shared,wireless mouse,7.0,competing,single,s_sh_17_1.jpg,Student,$${counterbalance_group},,sub-89
Desktop or Laptop,Windows 10,Opera 120.0.0.0,1536x864,1536x864,Temporal Distance Task,cb_07,23.0,temp_dist_trial,num_items,zn7si1,1.0,response,1_ITEM,1998.0999999761555,1982.8999999999944,1998.0999999761555,1998.0999999761555,1982.8999999999944,1998.0999999761555,1.0,0.0,0.0,,Click Response,1_count,3.0,object-46,temp_dist_trial,23.0,s_sh_20_1,student_shared,tape,7.0,competing,single,s_sh_20_1.jpg,Student,$${counterbalance_group},,sub-89
Desktop or Laptop,Windows 10,Opera 120.0.0.0,1536x864,1536x864,Temporal Distance Task,cb_07,24.0,temp_dist_trial,num_items,zn7si1,1.0,response,2_ITEM,2577.8999999999937,2565.8999999999937,2577.8999999999937,2577.8999999999937,2565.8999999999937,2577.8999999999937,1.0,0.0,0.0,,Click Response,2_count,5.0,object-49,temp_dist_trial,24.0,s_sh_12_1,student_shared,binder,7.0,competing,paired,s_sh_12_1.jpg,Student,$${counterbalance_group},,sub-89
Desktop or Laptop,Windows 10,Opera 120.0.0.0,1536x864,1536x864,Temporal Distance Task,cb_07,24.0,temp_dist_trial,dist_items,qkpkxw,2.0,info,,10.700000047683718,0.0,10.700000047683718,10.700000047683718,0.0,10.700000047683718,1.0,0.0,0.0,,Slider,Slider,4.0,object-56,temp_dist_trial,24.0,s_sh_12_1,student_shared,binder,7.0,competing,paired,s_sh_12_1.jpg,Student,$${counterbalance_group},,sub-89
Desktop or Laptop,Windows 10,Opera 120.0.0.0,1536x864,1536x864,Temporal Distance Task,cb_07,24.0,temp_dist_trial,dist_items,qkpkxw,2.0,continue,,1905.1000000238416,1899.2000000000119,1905.1000000238416,1905.1000000238416,1899.2000000000119,1905.1000000238416,1.0,0.0,0.0,,Click To Continue,Next button,7.0,object-60,temp_dist_trial,24.0,s_sh_12_1,student_shared,binder,7.0,competing,paired,s_sh_12_1.jpg,Student,$${counterbalance_group},,sub-89
Desktop or Laptop,Windows 10,Opera 120.0.0.0,1536x864,1536x864,Temporal Distance Task,cb_07,24.0,temp_dist_trial,dist_items,qkpkxw,2.0,response,30,1066.1000000000058,1899.2000000000119,1905.8000000715256,1066.1000000000058,1899.2000000000119,1905.8000000715256,1.0,839.7000000715198,0.0,,Slider,Slider,4.0,object-56,temp_dist_trial,24.0,s_sh_12_1,student_shared,binder,7.0,competing,paired,s_sh_12_1.jpg,Student,$${counterbalance_group},,sub-89
Desktop or Laptop,Windows 10,Opera 120.0.0.0,1536x864,1536x864,Temporal Distance Task,cb_07,25.0,temp_dist_trial,num_items,zn7si1,1.0,response,1_ITEM,850.0999999999768,833.1999999999823,850.0999999999768,850.0999999999768,833.1999999999823,850.0999999999768,1.0,0.0,0.0,,Click Response,1_count,3.0,object-46,temp_dist_trial,25.0,s_s_03_1,student_stem,petri dish,7.0,unique,single,s_s_03_1.jpg,Student,$${counterbalance_group},,sub-89
Desktop or Laptop,Windows 10,Opera 120.0.0.0,1536x864,1536x864,Temporal Distance Task,cb_07,26.0,temp_dist_trial,num_items,zn7si1,1.0,response,1_ITEM,1179.8000000238535,1166.2000000000114,1179.8000000238535,1179.8000000238535,1166.2000000000114,1179.8000000238535,1.0,0.0,0.0,,Click Response,1_count,3.0,object-46,temp_dist_trial,26.0,s_sh_01_1,student_shared,notebook,7.0,competing,single,s_sh_01_1.jpg,Student,$${counterbalance_group},,sub-89
Desktop or Laptop,Windows 10,Opera 120.0.0.0,1536x864,1536x864,Temporal Distance Task,cb_07,27.0,temp_dist_trial,num_items,zn7si1,1.0,response,1_ITEM,2441.8000000715256,2432.5,2441.8000000715256,2441.8000000715256,2432.5,2441.8000000715256,1.0,0.0,0.0,,Click Response,1_count,3.0,object-46,temp_dist_trial,27.0,s_sh_18_1,student_shared,wall calendar,7.0,competing,single,s_sh_18_1.jpg,Student,$${counterbalance_group},,sub-89
Desktop or Laptop,Windows 10,Opera 120.0.0.0,1536x864,1536x864,Temporal Distance Task,cb_07,28.0,temp_dist_trial,num_items,zn7si1,1.0,response,2_ITEM,933.1000000000058,916.6000000000058,933.1000000000058,933.1000000000058,916.6000000000058,933.1000000000058,1.0,0.0,0.0,,Click Response,2_count,5.0,object-49,temp_dist_trial,28.0,s_sh_10_1,student_shared,scissors,7.0,competing,paired,s_sh_10_1.jpg,Student,$${counterbalance_group},,sub-89
Desktop or Laptop,Windows 10,Opera 120.0.0.0,1536x864,1536x864,Temporal Distance Task,cb_07,28.0,temp_dist_trial,dist_items,qkpkxw,2.0,info,,12.800000047689535,0.0,12.800000047689535,12.800000047689535,0.0,12.800000047689535,1.0,0.0,0.0,,Slider,Slider,4.0,object-56,temp_dist_trial,28.0,s_sh_10_1,student_shared,scissors,7.0,competing,paired,s_sh_10_1.jpg,Student,$${counterbalance_group},,sub-89
Desktop or Laptop,Windows 10,Opera 120.0.0.0,1536x864,1536x864,Temporal Distance Task,cb_07,28.0,temp_dist_trial,dist_items,qkpkxw,2.0,continue,,1724.9000000715314,1715.8999999999942,1724.9000000715314,1724.9000000715314,1715.8999999999942,1724.9000000715314,1.0,0.0,0.0,,Click To Continue,Next button,7.0,object-60,temp_dist_trial,28.0,s_sh_10_1,student_shared,scissors,7.0,competing,paired,s_sh_10_1.jpg,Student,$${counterbalance_group},,sub-89
Desktop or Laptop,Windows 10,Opera 120.0.0.0,1536x864,1536x864,Temporal Distance Task,cb_07,28.0,temp_dist_trial,dist_items,qkpkxw,2.0,response,79,832.8999999999942,1715.8999999999942,1732.499999999971,832.8999999999942,1715.8999999999942,1732.499999999971,1.0,899.5999999999768,0.0,,Slider,Slider,4.0,object-56,temp_dist_trial,28.0,s_sh_10_1,student_shared,scissors,7.0,competing,paired,s_sh_10_1.jpg,Student,$${counterbalance_group},,sub-89
Desktop or Laptop,Windows 10,Opera 120.0.0.0,1536x864,1536x864,Temporal Distance Task,cb_07,29.0,temp_dist_trial,num_items,zn7si1,1.0,response,2_ITEM,1060.2000000000116,1049.7000000000116,1060.2000000000116,1060.2000000000116,1049.7000000000116,1060.2000000000116,1.0,0.0,0.0,,Click Response,2_count,5.0,object-49,temp_dist_trial,29.0,s_sh_23_1,student_shared,ballpoint pen,7.0,competing,paired,s_sh_23_1.jpg,Student,$${counterbalance_group},,sub-89
Desktop or Laptop,Windows 10,Opera 120.0.0.0,1536x864,1536x864,Temporal Distance Task,cb_07,29.0,temp_dist_trial,dist_items,qkpkxw,2.0,info,,11.499999976163965,0.0,11.499999976163965,11.499999976163965,0.0,11.499999976163965,1.0,0.0,0.0,,Slider,Slider,4.0,object-56,temp_dist_trial,29.0,s_sh_23_1,student_shared,ballpoint pen,7.0,competing,paired,s_sh_23_1.jpg,Student,$${counterbalance_group},,sub-89
Desktop or Laptop,Windows 10,Opera 120.0.0.0,1536x864,1536x864,Temporal Distance Task,cb_07,29.0,temp_dist_trial,dist_items,qkpkxw,2.0,continue,,1746.4000000715314,1733.1000000000058,1746.4000000715314,1746.4000000715314,1733.1000000000058,1746.4000000715314,1.0,0.0,0.0,,Click To Continue,Next button,7.0,object-60,temp_dist_trial,29.0,s_sh_23_1,student_shared,ballpoint pen,7.0,competing,paired,s_sh_23_1.jpg,Student,$${counterbalance_group},,sub-89
Desktop or Laptop,Windows 10,Opera 120.0.0.0,1536x864,1536x864,Temporal Distance Task,cb_07,29.0,temp_dist_trial,dist_items,qkpkxw,2.0,response,80,900.0,1733.1000000000058,1747.4000000715314,900.0,1733.1000000000058,1747.4000000715314,1.0,847.4000000715314,0.0,,Slider,Slider,4.0,object-56,temp_dist_trial,29.0,s_sh_23_1,student_shared,ballpoint pen,7.0,competing,paired,s_sh_23_1.jpg,Student,$${counterbalance_group},,sub-89
Desktop or Laptop,Windows 10,Opera 120.0.0.0,1536x864,1536x864,Temporal Distance Task,cb_07,30.0,temp_dist_trial,num_items,zn7si1,1.0,response,2_ITEM,903.2000000476836,899.5,903.2000000476836,903.2000000476836,899.5,903.2000000476836,1.0,0.0,0.0,,Click Response,2_count,5.0,object-49,temp_dist_trial,30.0,s_a_06_1,student_art,pastels,7.0,unique,paired,s_a_06_1.jpg,Student,$${counterbalance_group},,sub-89
Desktop or Laptop,Windows 10,Opera 120.0.0.0,1536x864,1536x864,Temporal Distance Task,cb_07,30.0,temp_dist_trial,dist_items,qkpkxw,2.0,info,,15.700000000011642,0.0,15.700000000011642,15.700000000011642,0.0,15.700000000011642,1.0,0.0,0.0,,Slider,Slider,4.0,object-56,temp_dist_trial,30.0,s_a_06_1,student_art,pastels,7.0,unique,paired,s_a_06_1.jpg,Student,$${counterbalance_group},,sub-89
Desktop or Laptop,Windows 10,Opera 120.0.0.0,1536x864,1536x864,Temporal Distance Task,cb_07,30.0,temp_dist_trial,dist_items,qkpkxw,2.0,continue,,2949.6000000000067,2932.700000000012,2949.6000000000067,2949.6000000000067,2932.700000000012,2949.6000000000067,1.0,0.0,0.0,,Click To Continue,Next button,7.0,object-60,temp_dist_trial,30.0,s_a_06_1,student_art,pastels,7.0,unique,paired,s_a_06_1.jpg,Student,$${counterbalance_group},,sub-89
Desktop or Laptop,Windows 10,Opera 120.0.0.0,1536x864,1536x864,Temporal Distance Task,cb_07,30.0,temp_dist_trial,dist_items,qkpkxw,2.0,response,22,2066.200000000012,2932.700000000012,2949.6000000000067,2066.200000000012,2932.700000000012,2949.6000000000067,1.0,883.3999999999942,0.0,,Slider,Slider,4.0,object-56,temp_dist_trial,30.0,s_a_06_1,student_art,pastels,7.0,unique,paired,s_a_06_1.jpg,Student,$${counterbalance_group},,sub-89
Desktop or Laptop,Windows 10,Opera 120.0.0.0,1536x864,1536x864,Temporal Distance Task,cb_07,31.0,temp_dist_trial,num_items,zn7si1,1.0,response,2_ITEM,1628.1000000238419,1615.8999999999942,1628.1000000238419,1628.1000000238419,1615.8999999999942,1628.1000000238419,1.0,0.0,0.0,,Click Response,2_count,5.0,object-49,temp_dist_trial,31.0,s_sh_14_1,student_shared,printer,7.0,competing,paired,s_sh_14_1.jpg,Student,$${counterbalance_group},,sub-89
Desktop or Laptop,Windows 10,Opera 120.0.0.0,1536x864,1536x864,Temporal Distance Task,cb_07,31.0,temp_dist_trial,dist_items,qkpkxw,2.0,info,,11.900000071531393,0.0,11.900000071531393,11.900000071531393,0.0,11.900000071531393,1.0,0.0,0.0,,Slider,Slider,4.0,object-56,temp_dist_trial,31.0,s_sh_14_1,student_shared,printer,7.0,competing,paired,s_sh_14_1.jpg,Student,$${counterbalance_group},,sub-89
Desktop or Laptop,Windows 10,Opera 120.0.0.0,1536x864,1536x864,Temporal Distance Task,cb_07,31.0,temp_dist_trial,dist_items,qkpkxw,2.0,continue,,1796.6000000000058,1782.8000000000175,1796.6000000000058,1796.6000000000058,1782.8000000000175,1796.6000000000058,1.0,0.0,0.0,,Click To Continue,Next button,7.0,object-60,temp_dist_trial,31.0,s_sh_14_1,student_shared,printer,7.0,competing,paired,s_sh_14_1.jpg,Student,$${counterbalance_group},,sub-89
Desktop or Laptop,Windows 10,Opera 120.0.0.0,1536x864,1536x864,Temporal Distance Task,cb_07,31.0,temp_dist_trial,dist_items,qkpkxw,2.0,response,91,683.2000000000116,1782.8000000000175,1799.3000000000175,683.2000000000116,1782.8000000000175,1799.3000000000175,1.0,1116.1000000000058,0.0,,Slider,Slider,4.0,object-56,temp_dist_trial,31.0,s_sh_14_1,student_shared,printer,7.0,competing,paired,s_sh_14_1.jpg,Student,$${counterbalance_group},,sub-89
Desktop or Laptop,Windows 10,Opera 120.0.0.0,1536x864,1536x864,Temporal Distance Task,cb_07,32.0,temp_dist_trial,num_items,zn7si1,1.0,response,1_ITEM,2176.1999999761465,2166.1999999999825,2176.1999999761465,2176.1999999761465,2166.1999999999825,2176.1999999761465,1.0,0.0,0.0,,Click Response,1_count,3.0,object-46,temp_dist_trial,32.0,s_sh_03_1,student_shared,highlighter,7.0,competing,paired,s_sh_03_1.jpg,Student,$${counterbalance_group},,sub-89
Desktop or Laptop,Windows 10,Opera 120.0.0.0,1536x864,1536x864,Temporal Distance Task,cb_07,33.0,temp_dist_trial,num_items,zn7si1,1.0,response,1_ITEM,2613.300000047689,2599.3999999999937,2613.300000047689,2613.300000047689,2599.3999999999937,2613.300000047689,1.0,0.0,0.0,,Click Response,1_count,3.0,object-46,temp_dist_trial,33.0,s_a_08_1,student_art,sewing machine,7.0,unique,single,s_a_08_1.jpg,Student,$${counterbalance_group},,sub-89
Desktop or Laptop,Windows 10,Opera 120.0.0.0,1536x864,1536x864,Temporal Distance Task,cb_07,34.0,temp_dist_trial,num_items,zn7si1,1.0,response,2_ITEM,944.3000000715256,933.5,944.3000000715256,944.3000000715256,933.5,944.3000000715256,1.0,0.0,0.0,,Click Response,2_count,5.0,object-49,temp_dist_trial,34.0,s_sh_24_1,student_shared,desk organizer,7.0,competing,paired,s_sh_24_1.jpg,Student,$${counterbalance_group},,sub-89
Desktop or Laptop,Windows 10,Opera 120.0.0.0,1536x864,1536x864,Temporal Distance Task,cb_07,34.0,temp_dist_trial,dist_items,qkpkxw,2.0,info,,9.79999997615232,0.0,9.79999997615232,9.79999997615232,0.0,9.79999997615232,1.0,0.0,0.0,,Slider,Slider,4.0,object-56,temp_dist_trial,34.0,s_sh_24_1,student_shared,desk organizer,7.0,competing,paired,s_sh_24_1.jpg,Student,$${counterbalance_group},,sub-89
Desktop or Laptop,Windows 10,Opera 120.0.0.0,1536x864,1536x864,Temporal Distance Task,cb_07,34.0,temp_dist_trial,dist_items,qkpkxw,2.0,continue,,2286.600000047678,2282.6999999999825,2286.600000047678,2286.600000047678,2282.6999999999825,2286.600000047678,1.0,0.0,0.0,,Click To Continue,Next button,7.0,object-60,temp_dist_trial,34.0,s_sh_24_1,student_shared,desk organizer,7.0,competing,paired,s_sh_24_1.jpg,Student,$${counterbalance_group},,sub-89
Desktop or Laptop,Windows 10,Opera 120.0.0.0,1536x864,1536x864,Temporal Distance Task,cb_07,34.0,temp_dist_trial,dist_items,qkpkxw,2.0,response,81,683.1000000000057,2282.6999999999825,2287.8999999999937,683.1000000000057,2282.6999999999825,2287.8999999999937,1.0,1604.7999999999884,0.0,,Slider,Slider,4.0,object-56,temp_dist_trial,34.0,s_sh_24_1,student_shared,desk organizer,7.0,competing,paired,s_sh_24_1.jpg,Student,$${counterbalance_group},,sub-89
Desktop or Laptop,Windows 10,Opera 120.0.0.0,1536x864,1536x864,Temporal Distance Task,cb_07,35.0,temp_dist_trial,num_items,zn7si1,1.0,response,2_ITEM,1896.800000023853,1882.6000000000056,1896.800000023853,1896.800000023853,1882.6000000000056,1896.800000023853,1.0,0.0,0.0,,Click Response,2_count,5.0,object-49,temp_dist_trial,35.0,s_s_08_1,student_stem,soldering iron,7.0,unique,paired,s_s_08_1.jpg,Student,$${counterbalance_group},,sub-89
Desktop or Laptop,Windows 10,Opera 120.0.0.0,1536x864,1536x864,Temporal Distance Task,cb_07,35.0,temp_dist_trial,dist_items,qkpkxw,2.0,info,,7.300000047689537,0.0,7.300000047689537,7.300000047689537,0.0,7.300000047689537,1.0,0.0,0.0,,Slider,Slider,4.0,object-56,temp_dist_trial,35.0,s_s_08_1,student_stem,soldering iron,7.0,unique,paired,s_s_08_1.jpg,Student,$${counterbalance_group},,sub-89
Desktop or Laptop,Windows 10,Opera 120.0.0.0,1536x864,1536x864,Temporal Distance Task,cb_07,35.0,temp_dist_trial,dist_items,qkpkxw,2.0,continue,,1809.6000000000056,1799.3999999999942,1809.6000000000056,1809.6000000000056,1799.3999999999942,1809.6000000000056,1.0,0.0,0.0,,Click To Continue,Next button,7.0,object-60,temp_dist_trial,35.0,s_s_08_1,student_stem,soldering iron,7.0,unique,paired,s_s_08_1.jpg,Student,$${counterbalance_group},,sub-89
Desktop or Laptop,Windows 10,Opera 120.0.0.0,1536x864,1536x864,Temporal Distance Task,cb_07,35.0,temp_dist_trial,dist_items,qkpkxw,2.0,response,86,933.2000000000116,1799.3999999999942,1810.9000000715314,933.2000000000116,1799.3999999999942,1810.9000000715314,1.0,877.7000000715198,0.0,,Slider,Slider,4.0,object-56,temp_dist_trial,35.0,s_s_08_1,student_stem,soldering iron,7.0,unique,paired,s_s_08_1.jpg,Student,$${counterbalance_group},,sub-89
Desktop or Laptop,Windows 10,Opera 120.0.0.0,1536x864,1536x864,Temporal Distance Task,cb_07,36.0,temp_dist_trial,num_items,zn7si1,1.0,response,1_ITEM,1873.5000000715368,1865.9000000000235,1873.5000000715368,1873.5000000715368,1865.9000000000235,1873.5000000715368,1.0,0.0,0.0,,Click Response,1_count,3.0,object-46,temp_dist_trial,36.0,s_a_03_1,student_art,palette,7.0,unique,single,s_a_03_1.jpg,Student,$${counterbalance_group},,sub-89
Desktop or Laptop,Windows 10,Opera 120.0.0.0,1536x864,1536x864,Temporal Distance Task,cb_07,37.0,temp_dist_trial,num_items,zn7si1,1.0,response,num_miss,2999.5,2999.5,2999.5,2999.5,2999.5,2999.5,1.0,0.0,0.0,num_miss_tag,Time Limit,screen,0.0,screen,temp_dist_trial,37.0,s_s_20_1,student_stem,dna model,7.0,unique,paired,s_s_20_1.jpg,Student,$${counterbalance_group},,sub-89
Desktop or Laptop,Windows 10,Opera 120.0.0.0,1536x864,1536x864,Temporal Distance Task,cb_07,38.0,temp_dist_trial,num_items,zn7si1,1.0,response,num_miss,2998.9000000000237,2998.9000000000237,2998.9000000000237,2998.9000000000237,2998.9000000000237,2998.9000000000237,1.0,0.0,0.0,num_miss_tag,Time Limit,screen,0.0,screen,temp_dist_trial,38.0,s_sh_22_1,student_shared,hole puncher,7.0,competing,single,s_sh_22_1.jpg,Student,$${counterbalance_group},,sub-89
Desktop or Laptop,Windows 10,Opera 120.0.0.0,1536x864,1536x864,Temporal Distance Task,cb_07,39.0,temp_dist_trial,num_items,zn7si1,1.0,response,1_ITEM,145.60000002384191,133.5,145.60000002384191,145.60000002384191,133.5,145.60000002384191,1.0,0.0,0.0,,Click Response,1_count,3.0,object-46,temp_dist_trial,39.0,s_sh_19_1,student_shared,portable plastic drawer,7.0,competing,paired,s_sh_19_1.jpg,Student,$${counterbalance_group},,sub-89
Desktop or Laptop,Windows 10,Opera 120.0.0.0,1536x864,1536x864,Temporal Distance Task,cb_07,40.0,temp_dist_trial,num_items,zn7si1,1.0,response,1_ITEM,1519.8999999999942,1516.2999999999884,1519.8999999999942,1519.8999999999942,1516.2999999999884,1519.8999999999942,1.0,0.0,0.0,,Click Response,1_count,3.0,object-46,temp_dist_trial,40.0,s_sh_08_1,student_shared,post-its,7.0,competing,single,s_sh_08_1.jpg,Student,$${counterbalance_group},,sub-89
Desktop or Laptop,Windows 10,Opera 120.0.0.0,1536x864,1536x864,Temporal Distance Task,cb_07,41.0,temp_dist_trial,num_items,zn7si1,1.0,response,1_ITEM,1810.2999999999884,1799.5999999999767,1810.2999999999884,1810.2999999999884,1799.5999999999767,1810.2999999999884,1.0,0.0,0.0,,Click Response,1_count,3.0,object-46,temp_dist_trial,41.0,s_a_15_1,student_art,drum kit,7.0,unique,paired,s_a_15_1.jpg,Student,$${counterbalance_group},,sub-89
Desktop or Laptop,Windows 10,Opera 120.0.0.0,1536x864,1536x864,Temporal Distance Task,cb_07,42.0,temp_dist_trial,num_items,zn7si1,1.0,response,2_ITEM,1202.500000023836,1199.6999999999825,1202.500000023836,1202.500000023836,1199.6999999999825,1202.500000023836,1.0,0.0,0.0,,Click Response,2_count,5.0,object-49,temp_dist_trial,42.0,s_s_06_1,student_stem,calculator,7.0,unique,paired,s_s_06_1.jpg,Student,$${counterbalance_group},,sub-89
Desktop or Laptop,Windows 10,Opera 120.0.0.0,1536x864,1536x864,Temporal Distance Task,cb_07,42.0,temp_dist_trial,dist_items,qkpkxw,2.0,info,,15.999999976163965,0.0,15.999999976163965,15.999999976163965,0.0,15.999999976163965,1.0,0.0,0.0,,Slider,Slider,4.0,object-56,temp_dist_trial,42.0,s_s_06_1,student_stem,calculator,7.0,unique,paired,s_s_06_1.jpg,Student,$${counterbalance_group},,sub-89
Desktop or Laptop,Windows 10,Opera 120.0.0.0,1536x864,1536x864,Temporal Distance Task,cb_07,42.0,temp_dist_trial,dist_items,qkpkxw,2.0,continue,,3260.9000000715314,3248.6000000000067,3260.9000000715314,3260.9000000715314,3248.6000000000067,3260.9000000715314,1.0,0.0,0.0,,Click To Continue,Next button,7.0,object-60,temp_dist_trial,42.0,s_s_06_1,student_stem,calculator,7.0,unique,paired,s_s_06_1.jpg,Student,$${counterbalance_group},,sub-89
Desktop or Laptop,Windows 10,Opera 120.0.0.0,1536x864,1536x864,Temporal Distance Task,cb_07,42.0,temp_dist_trial,dist_items,qkpkxw,2.0,response,85,982.8999999999942,3248.6000000000067,3261.4000000715314,982.8999999999942,3248.6000000000067,3261.4000000715314,1.0,2278.5000000715368,0.0,,Slider,Slider,4.0,object-56,temp_dist_trial,42.0,s_s_06_1,student_stem,calculator,7.0,unique,paired,s_s_06_1.jpg,Student,$${counterbalance_group},,sub-89
Desktop or Laptop,Windows 10,Opera 120.0.0.0,1536x864,1536x864,Temporal Distance Task,cb_07,43.0,temp_dist_trial,num_items,zn7si1,1.0,response,1_ITEM,1171.5,1166.5,1171.5,1171.5,1166.5,1171.5,1.0,0.0,0.0,,Click Response,1_count,3.0,object-46,temp_dist_trial,43.0,s_s_13_1,student_stem,telescope,7.0,unique,single,s_s_13_1.jpg,Student,$${counterbalance_group},,sub-89
Desktop or Laptop,Windows 10,Opera 120.0.0.0,1536x864,1536x864,Temporal Distance Task,cb_07,44.0,temp_dist_trial,num_items,zn7si1,1.0,response,1_ITEM,1089.499999976164,1083.0,1089.499999976164,1089.499999976164,1083.0,1089.499999976164,1.0,0.0,0.0,,Click Response,1_count,3.0,object-46,temp_dist_trial,44.0,s_a_13_1,student_art,violin,7.0,unique,single,s_a_13_1.jpg,Student,$${counterbalance_group},,sub-89
Desktop or Laptop,Windows 10,Opera 120.0.0.0,1536x864,1536x864,Temporal Distance Task,cb_07,45.0,temp_dist_trial,num_items,zn7si1,1.0,response,2_ITEM,1242.0,1232.7999999999886,1242.0,1242.0,1232.7999999999886,1242.0,1.0,0.0,0.0,,Click Response,2_count,5.0,object-49,temp_dist_trial,45.0,s_sh_15_1,student_shared,usb drive,7.0,competing,paired,s_sh_15_1.jpg,Student,$${counterbalance_group},,sub-89
Desktop or Laptop,Windows 10,Opera 120.0.0.0,1536x864,1536x864,Temporal Distance Task,cb_07,45.0,temp_dist_trial,dist_items,qkpkxw,2.0,info,,16.699999999982538,0.0,16.699999999982538,16.699999999982538,0.0,16.699999999982538,1.0,0.0,0.0,,Slider,Slider,4.0,object-56,temp_dist_trial,45.0,s_sh_15_1,student_shared,usb drive,7.0,competing,paired,s_sh_15_1.jpg,Student,$${counterbalance_group},,sub-89
Desktop or Laptop,Windows 10,Opera 120.0.0.0,1536x864,1536x864,Temporal Distance Task,cb_07,45.0,temp_dist_trial,dist_items,qkpkxw,2.0,continue,,2325.5999999761702,2315.800000000017,2325.5999999761702,2325.5999999761702,2315.800000000017,2325.5999999761702,1.0,0.0,0.0,,Click To Continue,Next button,7.0,object-60,temp_dist_trial,45.0,s_sh_15_1,student_shared,usb drive,7.0,competing,paired,s_sh_15_1.jpg,Student,$${counterbalance_group},,sub-89
Desktop or Laptop,Windows 10,Opera 120.0.0.0,1536x864,1536x864,Temporal Distance Task,cb_07,45.0,temp_dist_trial,dist_items,qkpkxw,2.0,response,76,766.3000000000177,2315.800000000017,2326.700000000012,766.3000000000177,2315.800000000017,2326.700000000012,1.0,1560.3999999999942,0.0,,Slider,Slider,4.0,object-56,temp_dist_trial,45.0,s_sh_15_1,student_shared,usb drive,7.0,competing,paired,s_sh_15_1.jpg,Student,$${counterbalance_group},,sub-89
Desktop or Laptop,Windows 10,Opera 120.0.0.0,1536x864,1536x864,Temporal Distance Task,cb_07,46.0,temp_dist_trial,num_items,zn7si1,1.0,response,1_ITEM,891.3999999999942,883.0,891.3999999999942,891.3999999999942,883.0,891.3999999999942,1.0,0.0,0.0,,Click Response,1_count,3.0,object-46,temp_dist_trial,46.0,s_s_14_1,student_stem,funnel,7.0,unique,single,s_s_14_1.jpg,Student,$${counterbalance_group},,sub-89
Desktop or Laptop,Windows 10,Opera 120.0.0.0,1536x864,1536x864,Temporal Distance Task,cb_07,47.0,temp_dist_trial,num_items,zn7si1,1.0,response,2_ITEM,1050.000000000029,1033.2000000000116,1050.000000000029,1050.000000000029,1033.2000000000116,1050.000000000029,1.0,0.0,0.0,,Click Response,2_count,5.0,object-49,temp_dist_trial,47.0,s_s_19_1,student_stem,circuit board,7.0,unique,paired,s_s_19_1.jpg,Student,$${counterbalance_group},,sub-89
Desktop or Laptop,Windows 10,Opera 120.0.0.0,1536x864,1536x864,Temporal Distance Task,cb_07,47.0,temp_dist_trial,dist_items,qkpkxw,2.0,info,,9.999999976163963,0.0,9.999999976163963,9.999999976163963,0.0,9.999999976163963,1.0,0.0,0.0,,Slider,Slider,4.0,object-56,temp_dist_trial,47.0,s_s_19_1,student_stem,circuit board,7.0,unique,paired,s_s_19_1.jpg,Student,$${counterbalance_group},,sub-89
Desktop or Laptop,Windows 10,Opera 120.0.0.0,1536x864,1536x864,Temporal Distance Task,cb_07,47.0,temp_dist_trial,dist_items,qkpkxw,2.0,continue,,2855.9000000715314,2849.3999999999933,2855.9000000715314,2855.9000000715314,2849.3999999999933,2855.9000000715314,1.0,0.0,0.0,,Click To Continue,Next button,7.0,object-60,temp_dist_trial,47.0,s_s_19_1,student_stem,circuit board,7.0,unique,paired,s_s_19_1.jpg,Student,$${counterbalance_group},,sub-89
Desktop or Laptop,Windows 10,Opera 120.0.0.0,1536x864,1536x864,Temporal Distance Task,cb_07,47.0,temp_dist_trial,dist_items,qkpkxw,2.0,response,18,1033.0,2849.3999999999933,2866.0999999999767,1033.0,2849.3999999999933,2866.0999999999767,1.0,1833.0999999999767,0.0,,Slider,Slider,4.0,object-56,temp_dist_trial,47.0,s_s_19_1,student_stem,circuit board,7.0,unique,paired,s_s_19_1.jpg,Student,$${counterbalance_group},,sub-89
Desktop or Laptop,Windows 10,Opera 120.0.0.0,1536x864,1536x864,Temporal Distance Task,cb_07,48.0,temp_dist_trial,num_items,zn7si1,1.0,response,1_ITEM,1343.0999999761698,1332.8000000000175,1343.0999999761698,1343.0999999761698,1332.8000000000175,1343.0999999761698,1.0,0.0,0.0,,Click Response,1_count,3.0,object-46,temp_dist_trial,48.0,s_sh_09_1,student_shared,paper clips,7.0,competing,single,s_sh_09_1.jpg,Student,$${counterbalance_group},,sub-89
Desktop or Laptop,Windows 10,Opera 120.0.0.0,1536x864,1536x864,Temporal Distance Task,cb_07,2.0,temp_eventStart,Screen 1,dgtyxe,1.0,continue,,15262.999999999969,15245.699999999983,15262.999999999969,15262.999999999969,15245.699999999983,15262.999999999969,1.0,0.0,0.0,,Click To Continue,Next Button,3.0,object-43,temp_eventStart,,,Travel,,,,,,,$${counterbalance_group},,sub-89
Desktop or Laptop,Windows 10,Opera 120.0.0.0,1536x864,1536x864,Temporal Distance Task,cb_07,49.0,temp_dist_trial,num_items,zn7si1,1.0,response,2_ITEM,1551.9000000715314,1548.7000000000116,1551.9000000715314,1551.9000000715314,1548.7000000000116,1551.9000000715314,1.0,0.0,0.0,,Click Response,2_count,5.0,object-49,temp_dist_trial,1.0,t_i_04_1,travel_Iceland,portable camping stove,7.0,unique,paired,t_i_04_1.jpg,Travel,$${counterbalance_group},,sub-89
Desktop or Laptop,Windows 10,Opera 120.0.0.0,1536x864,1536x864,Temporal Distance Task,cb_07,49.0,temp_dist_trial,dist_items,qkpkxw,2.0,info,,16.799999999988362,0.0,16.799999999988362,16.799999999988362,0.0,16.799999999988362,1.0,0.0,0.0,,Slider,Slider,4.0,object-56,temp_dist_trial,1.0,t_i_04_1,travel_Iceland,portable camping stove,7.0,unique,paired,t_i_04_1.jpg,Travel,$${counterbalance_group},,sub-89
Desktop or Laptop,Windows 10,Opera 120.0.0.0,1536x864,1536x864,Temporal Distance Task,cb_07,49.0,temp_dist_trial,dist_items,qkpkxw,2.0,continue,,2447.300000047689,2432.3999999999937,2447.300000047689,2447.300000047689,2432.3999999999937,2447.300000047689,1.0,0.0,0.0,,Click To Continue,Next button,7.0,object-60,temp_dist_trial,1.0,t_i_04_1,travel_Iceland,portable camping stove,7.0,unique,paired,t_i_04_1.jpg,Travel,$${counterbalance_group},,sub-89
Desktop or Laptop,Windows 10,Opera 120.0.0.0,1536x864,1536x864,Temporal Distance Task,cb_07,49.0,temp_dist_trial,dist_items,qkpkxw,2.0,response,79,866.3000000000177,2432.3999999999937,2447.9000000715314,866.3000000000177,2432.3999999999937,2447.9000000715314,1.0,1581.600000071514,0.0,,Slider,Slider,4.0,object-56,temp_dist_trial,1.0,t_i_04_1,travel_Iceland,portable camping stove,7.0,unique,paired,t_i_04_1.jpg,Travel,$${counterbalance_group},,sub-89
Desktop or Laptop,Windows 10,Opera 120.0.0.0,1536x864,1536x864,Temporal Distance Task,cb_07,50.0,temp_dist_trial,num_items,zn7si1,1.0,response,1_ITEM,932.0000000715373,916.2000000000116,932.0000000715373,932.0000000715373,916.2000000000116,932.0000000715373,1.0,0.0,0.0,,Click Response,1_count,3.0,object-46,temp_dist_trial,2.0,t_i_17_1,travel_Iceland,binoculars,7.0,unique,single,t_i_17_1.jpg,Travel,$${counterbalance_group},,sub-89
Desktop or Laptop,Windows 10,Opera 120.0.0.0,1536x864,1536x864,Temporal Distance Task,cb_07,51.0,temp_dist_trial,num_items,zn7si1,1.0,response,1_ITEM,1021.100000023842,1016.2000000000116,1021.100000023842,1021.100000023842,1016.2000000000116,1021.100000023842,1.0,0.0,0.0,,Click Response,1_count,3.0,object-46,temp_dist_trial,3.0,t_m_04_1,travel_Miami,UV jacket,7.0,unique,single,t_m_04_1.jpg,Travel,$${counterbalance_group},,sub-89
Desktop or Laptop,Windows 10,Opera 120.0.0.0,1536x864,1536x864,Temporal Distance Task,cb_07,52.0,temp_dist_trial,num_items,zn7si1,1.0,response,1_ITEM,1010.3000000238536,999.7000000000116,1010.3000000238536,1010.3000000238536,999.7000000000116,1010.3000000238536,1.0,0.0,0.0,,Click Response,1_count,3.0,object-46,temp_dist_trial,4.0,t_m_20_1,travel_Miami,inflatable beachball,7.0,unique,single,t_m_20_1.jpg,Travel,$${counterbalance_group},,sub-89
Desktop or Laptop,Windows 10,Opera 120.0.0.0,1536x864,1536x864,Temporal Distance Task,cb_07,53.0,temp_dist_trial,num_items,zn7si1,1.0,response,1_ITEM,982.7000000000116,966.4000000000232,982.7000000000116,982.7000000000116,966.4000000000232,982.7000000000116,1.0,0.0,0.0,,Click Response,1_count,3.0,object-46,temp_dist_trial,5.0,t_s_24_1,travel_shared,ear plugs,7.0,competing,single,t_s_24_1.jpg,Travel,$${counterbalance_group},,sub-89
Desktop or Laptop,Windows 10,Opera 120.0.0.0,1536x864,1536x864,Temporal Distance Task,cb_07,54.0,temp_dist_trial,num_items,zn7si1,1.0,response,2_ITEM,1022.000000023836,1016.6999999999823,1022.000000023836,1022.000000023836,1016.6999999999823,1022.000000023836,1.0,0.0,0.0,,Click Response,2_count,5.0,object-49,temp_dist_trial,6.0,t_s_16_1,travel_shared,chapstick,7.0,competing,paired,t_s_16_1.jpg,Travel,$${counterbalance_group},,sub-89
Desktop or Laptop,Windows 10,Opera 120.0.0.0,1536x864,1536x864,Temporal Distance Task,cb_07,54.0,temp_dist_trial,dist_items,qkpkxw,2.0,info,,10.100000071513932,0.0,10.100000071513932,10.100000071513932,0.0,10.100000071513932,1.0,0.0,0.0,,Slider,Slider,4.0,object-56,temp_dist_trial,6.0,t_s_16_1,travel_shared,chapstick,7.0,competing,paired,t_s_16_1.jpg,Travel,$${counterbalance_group},,sub-89
Desktop or Laptop,Windows 10,Opera 120.0.0.0,1536x864,1536x864,Temporal Distance Task,cb_07,54.0,temp_dist_trial,dist_items,qkpkxw,2.0,continue,,1900.6999999761465,1899.5999999999767,1900.6999999761465,1900.6999999761465,1899.5999999999767,1900.6999999761465,1.0,0.0,0.0,,Click To Continue,Next button,7.0,object-60,temp_dist_trial,6.0,t_s_16_1,travel_shared,chapstick,7.0,competing,paired,t_s_16_1.jpg,Travel,$${counterbalance_group},,sub-89
Desktop or Laptop,Windows 10,Opera 120.0.0.0,1536x864,1536x864,Temporal Distance Task,cb_07,54.0,temp_dist_trial,dist_items,qkpkxw,2.0,response,17,849.7999999999884,1899.5999999999767,1901.000000047672,849.7999999999884,1899.5999999999767,1901.000000047672,1.0,1051.2000000476835,0.0,,Slider,Slider,4.0,object-56,temp_dist_trial,6.0,t_s_16_1,travel_shared,chapstick,7.0,competing,paired,t_s_16_1.jpg,Travel,$${counterbalance_group},,sub-89
Desktop or Laptop,Windows 10,Opera 120.0.0.0,1536x864,1536x864,Temporal Distance Task,cb_07,55.0,temp_dist_trial,num_items,zn7si1,1.0,response,1_ITEM,793.3000000238535,783.2000000000116,793.3000000238535,793.3000000238535,783.2000000000116,793.3000000238535,1.0,0.0,0.0,,Click Response,1_count,3.0,object-46,temp_dist_trial,7.0,t_s_23_1,travel_shared,ball cap,7.0,competing,single,t_s_23_1.jpg,Travel,$${counterbalance_group},,sub-89
Desktop or Laptop,Windows 10,Opera 120.0.0.0,1536x864,1536x864,Temporal Distance Task,cb_07,56.0,temp_dist_trial,num_items,zn7si1,1.0,response,1_ITEM,1766.0,1749.5,1766.0,1766.0,1749.5,1766.0,1.0,0.0,0.0,,Click Response,1_count,3.0,object-46,temp_dist_trial,8.0,t_i_11_1,travel_Iceland,headlamp,7.0,unique,paired,t_i_11_1.jpg,Travel,$${counterbalance_group},,sub-89
Desktop or Laptop,Windows 10,Opera 120.0.0.0,1536x864,1536x864,Temporal Distance Task,cb_07,57.0,temp_dist_trial,num_items,zn7si1,1.0,response,2_ITEM,1610.7000000238475,1599.3000000000175,1610.7000000238475,1610.7000000238475,1599.3000000000175,1610.7000000238475,1.0,0.0,0.0,,Click Response,2_count,5.0,object-49,temp_dist_trial,9.0,t_i_03_1,travel_Iceland,winter jacket,7.0,unique,single,t_i_03_1.jpg,Travel,$${counterbalance_group},,sub-89
Desktop or Laptop,Windows 10,Opera 120.0.0.0,1536x864,1536x864,Temporal Distance Task,cb_07,57.0,temp_dist_trial,dist_items,qkpkxw,2.0,info,,7.899999976158142,0.0,7.899999976158142,7.899999976158142,0.0,7.899999976158142,1.0,0.0,0.0,,Slider,Slider,4.0,object-56,temp_dist_trial,9.0,t_i_03_1,travel_Iceland,winter jacket,7.0,unique,single,t_i_03_1.jpg,Travel,$${counterbalance_group},,sub-89
Desktop or Laptop,Windows 10,Opera 120.0.0.0,1536x864,1536x864,Temporal Distance Task,cb_07,57.0,temp_dist_trial,dist_items,qkpkxw,2.0,continue,,2223.200000047684,2216.1000000000063,2223.200000047684,2223.200000047684,2216.1000000000063,2223.200000047684,1.0,0.0,0.0,,Click To Continue,Next button,7.0,object-60,temp_dist_trial,9.0,t_i_03_1,travel_Iceland,winter jacket,7.0,unique,single,t_i_03_1.jpg,Travel,$${counterbalance_group},,sub-89
Desktop or Laptop,Windows 10,Opera 120.0.0.0,1536x864,1536x864,Temporal Distance Task,cb_07,57.0,temp_dist_trial,dist_items,qkpkxw,2.0,response,28,666.6000000000057,2216.1000000000063,2224.0,666.6000000000057,2216.1000000000063,2224.0,1.0,1557.3999999999942,0.0,,Slider,Slider,4.0,object-56,temp_dist_trial,9.0,t_i_03_1,travel_Iceland,winter jacket,7.0,unique,single,t_i_03_1.jpg,Travel,$${counterbalance_group},,sub-89
Desktop or Laptop,Windows 10,Opera 120.0.0.0,1536x864,1536x864,Temporal Distance Task,cb_07,58.0,temp_dist_trial,num_items,zn7si1,1.0,response,1_ITEM,903.8999999999942,899.6999999999823,903.8999999999942,903.8999999999942,899.6999999999823,903.8999999999942,1.0,0.0,0.0,,Click Response,1_count,3.0,object-46,temp_dist_trial,10.0,t_i_12_1,travel_Iceland,tent,7.0,unique,paired,t_i_12_1.jpg,Travel,$${counterbalance_group},,sub-89
Desktop or Laptop,Windows 10,Opera 120.0.0.0,1536x864,1536x864,Temporal Distance Task,cb_07,59.0,temp_dist_trial,num_items,zn7si1,1.0,response,1_ITEM,1127.2000000000114,1116.2000000000116,1127.2000000000114,1127.2000000000114,1116.2000000000116,1127.2000000000114,1.0,0.0,0.0,,Click Response,1_count,3.0,object-46,temp_dist_trial,11.0,t_s_15_1,travel_shared,luggage tag,7.0,competing,single,t_s_15_1.jpg,Travel,$${counterbalance_group},,sub-89
Desktop or Laptop,Windows 10,Opera 120.0.0.0,1536x864,1536x864,Temporal Distance Task,cb_07,60.0,temp_dist_trial,num_items,zn7si1,1.0,response,2_ITEM,963.9000000476954,950.0,963.9000000476954,963.9000000476954,950.0,963.9000000476954,1.0,0.0,0.0,,Click Response,2_count,5.0,object-49,temp_dist_trial,12.0,t_m_05_1,travel_Miami,sunscreen,7.0,unique,paired,t_m_05_1.jpg,Travel,$${counterbalance_group},,sub-89
Desktop or Laptop,Windows 10,Opera 120.0.0.0,1536x864,1536x864,Temporal Distance Task,cb_07,60.0,temp_dist_trial,dist_items,qkpkxw,2.0,info,,11.600000047677893,0.0,11.600000047677893,11.600000047677893,0.0,11.600000047677893,1.0,0.0,0.0,,Slider,Slider,4.0,object-56,temp_dist_trial,12.0,t_m_05_1,travel_Miami,sunscreen,7.0,unique,paired,t_m_05_1.jpg,Travel,$${counterbalance_group},,sub-89
Desktop or Laptop,Windows 10,Opera 120.0.0.0,1536x864,1536x864,Temporal Distance Task,cb_07,60.0,temp_dist_trial,dist_items,qkpkxw,2.0,continue,,1945.500000023836,1932.6999999999825,1945.500000023836,1945.500000023836,1932.6999999999825,1945.500000023836,1.0,0.0,0.0,,Click To Continue,Next button,7.0,object-60,temp_dist_trial,12.0,t_m_05_1,travel_Miami,sunscreen,7.0,unique,paired,t_m_05_1.jpg,Travel,$${counterbalance_group},,sub-89
Desktop or Laptop,Windows 10,Opera 120.0.0.0,1536x864,1536x864,Temporal Distance Task,cb_07,60.0,temp_dist_trial,dist_items,qkpkxw,2.0,response,25,866.2999999999884,1932.6999999999825,1946.100000047678,866.2999999999884,1932.6999999999825,1946.100000047678,1.0,1079.8000000476898,0.0,,Slider,Slider,4.0,object-56,temp_dist_trial,12.0,t_m_05_1,travel_Miami,sunscreen,7.0,unique,paired,t_m_05_1.jpg,Travel,$${counterbalance_group},,sub-89
Desktop or Laptop,Windows 10,Opera 120.0.0.0,1536x864,1536x864,Temporal Distance Task,cb_07,61.0,temp_dist_trial,num_items,zn7si1,1.0,response,1_ITEM,1140.0999999761698,1133.0,1140.0999999761698,1140.0999999761698,1133.0,1140.0999999761698,1.0,0.0,0.0,,Click Response,1_count,3.0,object-46,temp_dist_trial,13.0,t_s_01_1,travel_shared,fanny pack,7.0,competing,single,t_s_01_1.jpg,Travel,$${counterbalance_group},,sub-89
Desktop or Laptop,Windows 10,Opera 120.0.0.0,1536x864,1536x864,Temporal Distance Task,cb_07,62.0,temp_dist_trial,num_items,zn7si1,1.0,response,1_ITEM,1296.9000000238302,1283.0999999999767,1296.9000000238302,1296.9000000238302,1283.0999999999767,1296.9000000238302,1.0,0.0,0.0,,Click Response,1_count,3.0,object-46,temp_dist_trial,14.0,t_m_09_1,travel_Miami,beach towel,7.0,unique,paired,t_m_09_1.jpg,Travel,$${counterbalance_group},,sub-89
Desktop or Laptop,Windows 10,Opera 120.0.0.0,1536x864,1536x864,Temporal Distance Task,cb_07,63.0,temp_dist_trial,num_items,zn7si1,1.0,response,2_ITEM,1067.0,1050.0,1067.0,1067.0,1050.0,1067.0,1.0,0.0,0.0,,Click Response,2_count,5.0,object-49,temp_dist_trial,15.0,t_m_07_1,travel_Miami,sunglasses,7.0,unique,paired,t_m_07_1.jpg,Travel,$${counterbalance_group},,sub-89
Desktop or Laptop,Windows 10,Opera 120.0.0.0,1536x864,1536x864,Temporal Distance Task,cb_07,63.0,temp_dist_trial,dist_items,qkpkxw,2.0,info,,8.600000047677895,0.0,8.600000047677895,8.600000047677895,0.0,8.600000047677895,1.0,0.0,0.0,,Slider,Slider,4.0,object-56,temp_dist_trial,15.0,t_m_07_1,travel_Miami,sunglasses,7.0,unique,paired,t_m_07_1.jpg,Travel,$${counterbalance_group},,sub-89
Desktop or Laptop,Windows 10,Opera 120.0.0.0,1536x864,1536x864,Temporal Distance Task,cb_07,63.0,temp_dist_trial,dist_items,qkpkxw,2.0,continue,,2177.600000047678,2167.1000000000063,2177.600000047678,2177.600000047678,2167.1000000000063,2177.600000047678,1.0,0.0,0.0,,Click To Continue,Next button,7.0,object-60,temp_dist_trial,15.0,t_m_07_1,travel_Miami,sunglasses,7.0,unique,paired,t_m_07_1.jpg,Travel,$${counterbalance_group},,sub-89
Desktop or Laptop,Windows 10,Opera 120.0.0.0,1536x864,1536x864,Temporal Distance Task,cb_07,63.0,temp_dist_trial,dist_items,qkpkxw,2.0,response,24,816.3999999999942,2167.1000000000063,2184.8000000000175,816.3999999999942,2167.1000000000063,2184.8000000000175,1.0,1368.4000000000233,0.0,,Slider,Slider,4.0,object-56,temp_dist_trial,15.0,t_m_07_1,travel_Miami,sunglasses,7.0,unique,paired,t_m_07_1.jpg,Travel,$${counterbalance_group},,sub-89
Desktop or Laptop,Windows 10,Opera 120.0.0.0,1536x864,1536x864,Temporal Distance Task,cb_07,64.0,temp_dist_trial,num_items,zn7si1,1.0,response,1_ITEM,1280.6999999761465,1265.0999999999767,1280.6999999761465,1280.6999999761465,1265.0999999999767,1280.6999999761465,1.0,0.0,0.0,,Click Response,1_count,3.0,object-46,temp_dist_trial,16.0,t_s_09_1,travel_shared,wallet,7.0,competing,paired,t_s_09_1.jpg,Travel,$${counterbalance_group},,sub-89
Desktop or Laptop,Windows 10,Opera 120.0.0.0,1536x864,1536x864,Temporal Distance Task,cb_07,65.0,temp_dist_trial,num_items,zn7si1,1.0,response,1_ITEM,2029.700000023848,2015.8999999999944,2029.700000023848,2029.700000023848,2015.8999999999944,2029.700000023848,1.0,0.0,0.0,,Click Response,1_count,3.0,object-46,temp_dist_trial,17.0,t_m_14_1,travel_Miami,swim goggles,7.0,unique,single,t_m_14_1.jpg,Travel,$${counterbalance_group},,sub-89
Desktop or Laptop,Windows 10,Opera 120.0.0.0,1536x864,1536x864,Temporal Distance Task,cb_07,66.0,temp_dist_trial,num_items,zn7si1,1.0,response,2_ITEM,1011.1000000476781,999.8999999999942,1011.1000000476781,1011.1000000476781,999.8999999999942,1011.1000000476781,1.0,0.0,0.0,,Click Response,2_count,5.0,object-49,temp_dist_trial,18.0,t_s_03_1,travel_shared,portable charger,7.0,competing,paired,t_s_03_1.jpg,Travel,$${counterbalance_group},,sub-89
Desktop or Laptop,Windows 10,Opera 120.0.0.0,1536x864,1536x864,Temporal Distance Task,cb_07,66.0,temp_dist_trial,dist_items,qkpkxw,2.0,info,,9.400000071531394,0.0,9.400000071531394,9.400000071531394,0.0,9.400000071531394,1.0,0.0,0.0,,Slider,Slider,4.0,object-56,temp_dist_trial,18.0,t_s_03_1,travel_shared,portable charger,7.0,competing,paired,t_s_03_1.jpg,Travel,$${counterbalance_group},,sub-89
Desktop or Laptop,Windows 10,Opera 120.0.0.0,1536x864,1536x864,Temporal Distance Task,cb_07,66.0,temp_dist_trial,dist_items,qkpkxw,2.0,continue,,2145.9000000715314,2132.8000000000175,2145.9000000715314,2145.9000000715314,2132.8000000000175,2145.9000000715314,1.0,0.0,0.0,,Click To Continue,Next button,7.0,object-60,temp_dist_trial,18.0,t_s_03_1,travel_shared,portable charger,7.0,competing,paired,t_s_03_1.jpg,Travel,$${counterbalance_group},,sub-89
Desktop or Laptop,Windows 10,Opera 120.0.0.0,1536x864,1536x864,Temporal Distance Task,cb_07,66.0,temp_dist_trial,dist_items,qkpkxw,2.0,response,27,616.6000000000057,2132.8000000000175,2147.700000023848,616.6000000000057,2132.8000000000175,2147.700000023848,1.0,1531.1000000238419,0.0,,Slider,Slider,4.0,object-56,temp_dist_trial,18.0,t_s_03_1,travel_shared,portable charger,7.0,competing,paired,t_s_03_1.jpg,Travel,$${counterbalance_group},,sub-89
Desktop or Laptop,Windows 10,Opera 120.0.0.0,1536x864,1536x864,Temporal Distance Task,cb_07,67.0,temp_dist_trial,num_items,zn7si1,1.0,response,2_ITEM,2720.6999999761465,2715.6999999999825,2720.6999999761465,2720.6999999761465,2715.6999999999825,2720.6999999761465,1.0,0.0,0.0,,Click Response,2_count,5.0,object-49,temp_dist_trial,19.0,t_s_20_1,travel_shared,travel pill case,7.0,competing,paired,t_s_20_1.jpg,Travel,$${counterbalance_group},,sub-89
Desktop or Laptop,Windows 10,Opera 120.0.0.0,1536x864,1536x864,Temporal Distance Task,cb_07,67.0,temp_dist_trial,dist_items,qkpkxw,2.0,info,,7.199999976146501,0.0,7.199999976146501,7.199999976146501,0.0,7.199999976146501,1.0,0.0,0.0,,Slider,Slider,4.0,object-56,temp_dist_trial,19.0,t_s_20_1,travel_shared,travel pill case,7.0,competing,paired,t_s_20_1.jpg,Travel,$${counterbalance_group},,sub-89
Desktop or Laptop,Windows 10,Opera 120.0.0.0,1536x864,1536x864,Temporal Distance Task,cb_07,67.0,temp_dist_trial,dist_items,qkpkxw,2.0,continue,,1963.100000071514,1949.5,1963.100000071514,1963.100000071514,1949.5,1963.100000071514,1.0,0.0,0.0,,Click To Continue,Next button,7.0,object-60,temp_dist_trial,19.0,t_s_20_1,travel_shared,travel pill case,7.0,competing,paired,t_s_20_1.jpg,Travel,$${counterbalance_group},,sub-89
Desktop or Laptop,Windows 10,Opera 120.0.0.0,1536x864,1536x864,Temporal Distance Task,cb_07,67.0,temp_dist_trial,dist_items,qkpkxw,2.0,response,20,749.8999999999942,1949.5,1963.600000071514,749.8999999999942,1949.5,1963.600000071514,1.0,1213.7000000715198,0.0,,Slider,Slider,4.0,object-56,temp_dist_trial,19.0,t_s_20_1,travel_shared,travel pill case,7.0,competing,paired,t_s_20_1.jpg,Travel,$${counterbalance_group},,sub-89
Desktop or Laptop,Windows 10,Opera 120.0.0.0,1536x864,1536x864,Temporal Distance Task,cb_07,68.0,temp_dist_trial,num_items,zn7si1,1.0,response,1_ITEM,785.6999999761465,782.7999999999884,785.6999999761465,785.6999999761465,782.7999999999884,785.6999999761465,1.0,0.0,0.0,,Click Response,1_count,3.0,object-46,temp_dist_trial,20.0,t_s_21_1,travel_shared,umbrella,7.0,competing,paired,t_s_21_1.jpg,Travel,$${counterbalance_group},,sub-89
Desktop or Laptop,Windows 10,Opera 120.0.0.0,1536x864,1536x864,Temporal Distance Task,cb_07,69.0,temp_dist_trial,num_items,zn7si1,1.0,response,2_ITEM,1161.000000023836,1149.7999999999886,1161.000000023836,1161.000000023836,1149.7999999999886,1161.000000023836,1.0,0.0,0.0,,Click Response,2_count,5.0,object-49,temp_dist_trial,21.0,t_i_16_1,travel_Iceland,skis,7.0,unique,paired,t_i_16_1.jpg,Travel,$${counterbalance_group},,sub-89
Desktop or Laptop,Windows 10,Opera 120.0.0.0,1536x864,1536x864,Temporal Distance Task,cb_07,69.0,temp_dist_trial,dist_items,qkpkxw,2.0,info,,10.500000047672074,0.0,10.500000047672074,10.500000047672074,0.0,10.500000047672074,1.0,0.0,0.0,,Slider,Slider,4.0,object-56,temp_dist_trial,21.0,t_i_16_1,travel_Iceland,skis,7.0,unique,paired,t_i_16_1.jpg,Travel,$${counterbalance_group},,sub-89
Desktop or Laptop,Windows 10,Opera 120.0.0.0,1536x864,1536x864,Temporal Distance Task,cb_07,69.0,temp_dist_trial,dist_items,qkpkxw,2.0,continue,,2048.2999999999884,2032.7999999999884,2048.2999999999884,2048.2999999999884,2032.7999999999884,2048.2999999999884,1.0,0.0,0.0,,Click To Continue,Next button,7.0,object-60,temp_dist_trial,21.0,t_i_16_1,travel_Iceland,skis,7.0,unique,paired,t_i_16_1.jpg,Travel,$${counterbalance_group},,sub-89
Desktop or Laptop,Windows 10,Opera 120.0.0.0,1536x864,1536x864,Temporal Distance Task,cb_07,69.0,temp_dist_trial,dist_items,qkpkxw,2.0,response,13,816.5999999999768,2032.7999999999884,2049.6999999999825,816.5999999999768,2032.7999999999884,2049.6999999999825,1.0,1233.1000000000058,0.0,,Slider,Slider,4.0,object-56,temp_dist_trial,21.0,t_i_16_1,travel_Iceland,skis,7.0,unique,paired,t_i_16_1.jpg,Travel,$${counterbalance_group},,sub-89
Desktop or Laptop,Windows 10,Opera 120.0.0.0,1536x864,1536x864,Temporal Distance Task,cb_07,70.0,temp_dist_trial,num_items,zn7si1,1.0,response,2_ITEM,1142.5,1132.7999999999886,1142.5,1142.5,1132.7999999999886,1142.5,1.0,0.0,0.0,,Click Response,2_count,5.0,object-49,temp_dist_trial,22.0,t_s_06_1,travel_shared,luggage,7.0,competing,paired,t_s_06_1.jpg,Travel,$${counterbalance_group},,sub-89
Desktop or Laptop,Windows 10,Opera 120.0.0.0,1536x864,1536x864,Temporal Distance Task,cb_07,70.0,temp_dist_trial,dist_items,qkpkxw,2.0,info,,8.8000000238535,0.0,8.8000000238535,8.8000000238535,0.0,8.8000000238535,1.0,0.0,0.0,,Slider,Slider,4.0,object-56,temp_dist_trial,22.0,t_s_06_1,travel_shared,luggage,7.0,competing,paired,t_s_06_1.jpg,Travel,$${counterbalance_group},,sub-89
Desktop or Laptop,Windows 10,Opera 120.0.0.0,1536x864,1536x864,Temporal Distance Task,cb_07,70.0,temp_dist_trial,dist_items,qkpkxw,2.0,continue,,2477.0999999761702,2466.100000000035,2477.0999999761702,2477.0999999761702,2466.100000000035,2477.0999999761702,1.0,0.0,0.0,,Click To Continue,Next button,7.0,object-60,temp_dist_trial,22.0,t_s_06_1,travel_shared,luggage,7.0,competing,paired,t_s_06_1.jpg,Travel,$${counterbalance_group},,sub-89
Desktop or Laptop,Windows 10,Opera 120.0.0.0,1536x864,1536x864,Temporal Distance Task,cb_07,70.0,temp_dist_trial,dist_items,qkpkxw,2.0,response,76,749.7000000000116,2466.100000000035,2482.8000000000466,749.7000000000116,2466.100000000035,2482.8000000000466,1.0,1733.1000000000354,0.0,,Slider,Slider,4.0,object-56,temp_dist_trial,22.0,t_s_06_1,travel_shared,luggage,7.0,competing,paired,t_s_06_1.jpg,Travel,$${counterbalance_group},,sub-89
Desktop or Laptop,Windows 10,Opera 120.0.0.0,1536x864,1536x864,Temporal Distance Task,cb_07,71.0,temp_dist_trial,num_items,zn7si1,1.0,response,2_ITEM,1106.3000000476604,1099.6999999999532,1106.3000000476604,1106.3000000476604,1099.6999999999532,1106.3000000476604,1.0,0.0,0.0,,Click Response,2_count,5.0,object-49,temp_dist_trial,23.0,t_s_05_1,travel_shared,neck pillow,7.0,competing,paired,t_s_05_1.jpg,Travel,$${counterbalance_group},,sub-89
Desktop or Laptop,Windows 10,Opera 120.0.0.0,1536x864,1536x864,Temporal Distance Task,cb_07,71.0,temp_dist_trial,dist_items,qkpkxw,2.0,info,,11.200000071548855,0.0,11.200000071548855,11.200000071548855,0.0,11.200000071548855,1.0,0.0,0.0,,Slider,Slider,4.0,object-56,temp_dist_trial,23.0,t_s_05_1,travel_shared,neck pillow,7.0,competing,paired,t_s_05_1.jpg,Travel,$${counterbalance_group},,sub-89
Desktop or Laptop,Windows 10,Opera 120.0.0.0,1536x864,1536x864,Temporal Distance Task,cb_07,71.0,temp_dist_trial,dist_items,qkpkxw,2.0,continue,,3298.899999999965,3282.5,3298.899999999965,3298.899999999965,3282.5,3298.899999999965,1.0,0.0,0.0,,Click To Continue,Next button,7.0,object-60,temp_dist_trial,23.0,t_s_05_1,travel_shared,neck pillow,7.0,competing,paired,t_s_05_1.jpg,Travel,$${counterbalance_group},,sub-89
Desktop or Laptop,Windows 10,Opera 120.0.0.0,1536x864,1536x864,Temporal Distance Task,cb_07,71.0,temp_dist_trial,dist_items,qkpkxw,2.0,response,15,1716.4000000000233,3282.5,3298.899999999965,1716.4000000000233,3282.5,3298.899999999965,1.0,1582.4999999999418,0.0,,Slider,Slider,4.0,object-56,temp_dist_trial,23.0,t_s_05_1,travel_shared,neck pillow,7.0,competing,paired,t_s_05_1.jpg,Travel,$${counterbalance_group},,sub-89
Desktop or Laptop,Windows 10,Opera 120.0.0.0,1536x864,1536x864,Temporal Distance Task,cb_07,72.0,temp_dist_trial,num_items,zn7si1,1.0,response,2_ITEM,1337.600000047707,1332.9000000000233,1337.600000047707,1337.600000047707,1332.9000000000233,1337.600000047707,1.0,0.0,0.0,,Click Response,2_count,5.0,object-49,temp_dist_trial,24.0,t_s_12_1,travel_shared,clear toiletry bag,7.0,competing,paired,t_s_12_1.jpg,Travel,$${counterbalance_group},,sub-89
Desktop or Laptop,Windows 10,Opera 120.0.0.0,1536x864,1536x864,Temporal Distance Task,cb_07,72.0,temp_dist_trial,dist_items,qkpkxw,2.0,info,,7.0000000715372135,0.0,7.0000000715372135,7.0000000715372135,0.0,7.0000000715372135,1.0,0.0,0.0,,Slider,Slider,4.0,object-56,temp_dist_trial,24.0,t_s_12_1,travel_shared,clear toiletry bag,7.0,competing,paired,t_s_12_1.jpg,Travel,$${counterbalance_group},,sub-89
Desktop or Laptop,Windows 10,Opera 120.0.0.0,1536x864,1536x864,Temporal Distance Task,cb_07,72.0,temp_dist_trial,dist_items,qkpkxw,2.0,continue,,2088.200000000012,2082.9000000000233,2088.200000000012,2088.200000000012,2082.9000000000233,2088.200000000012,1.0,0.0,0.0,,Click To Continue,Next button,7.0,object-60,temp_dist_trial,24.0,t_s_12_1,travel_shared,clear toiletry bag,7.0,competing,paired,t_s_12_1.jpg,Travel,$${counterbalance_group},,sub-89
Desktop or Laptop,Windows 10,Opera 120.0.0.0,1536x864,1536x864,Temporal Distance Task,cb_07,72.0,temp_dist_trial,dist_items,qkpkxw,2.0,response,13,733.1000000000349,2082.9000000000233,2089.800000023853,733.1000000000349,2082.9000000000233,2089.800000023853,1.0,1356.7000000238186,0.0,,Slider,Slider,4.0,object-56,temp_dist_trial,24.0,t_s_12_1,travel_shared,clear toiletry bag,7.0,competing,paired,t_s_12_1.jpg,Travel,$${counterbalance_group},,sub-89
Desktop or Laptop,Windows 10,Opera 120.0.0.0,1536x864,1536x864,Temporal Distance Task,cb_07,73.0,temp_dist_trial,num_items,zn7si1,1.0,response,1_ITEM,1431.500000047672,1416.2999999999884,1431.500000047672,1431.500000047672,1416.2999999999884,1431.500000047672,1.0,0.0,0.0,,Click Response,1_count,3.0,object-46,temp_dist_trial,25.0,t_s_10_1,travel_shared,luggage lock,7.0,competing,single,t_s_10_1.jpg,Travel,$${counterbalance_group},,sub-89
Desktop or Laptop,Windows 10,Opera 120.0.0.0,1536x864,1536x864,Temporal Distance Task,cb_07,74.0,temp_dist_trial,num_items,zn7si1,1.0,response,2_ITEM,998.8000000476603,982.7999999999884,998.8000000476603,998.8000000476603,982.7999999999884,998.8000000476603,1.0,0.0,0.0,,Click Response,2_count,5.0,object-49,temp_dist_trial,26.0,t_s_22_1,travel_shared,belt,7.0,competing,paired,t_s_22_1.jpg,Travel,$${counterbalance_group},,sub-89
Desktop or Laptop,Windows 10,Opera 120.0.0.0,1536x864,1536x864,Temporal Distance Task,cb_07,74.0,temp_dist_trial,dist_items,qkpkxw,2.0,info,,10.6999999761465,0.0,10.6999999761465,10.6999999761465,0.0,10.6999999761465,1.0,0.0,0.0,,Slider,Slider,4.0,object-56,temp_dist_trial,26.0,t_s_22_1,travel_shared,belt,7.0,competing,paired,t_s_22_1.jpg,Travel,$${counterbalance_group},,sub-89
Desktop or Laptop,Windows 10,Opera 120.0.0.0,1536x864,1536x864,Temporal Distance Task,cb_07,74.0,temp_dist_trial,dist_items,qkpkxw,2.0,continue,,1981.2999999999884,1966.0,1981.2999999999884,1981.2999999999884,1966.0,1981.2999999999884,1.0,0.0,0.0,,Click To Continue,Next button,7.0,object-60,temp_dist_trial,26.0,t_s_22_1,travel_shared,belt,7.0,competing,paired,t_s_22_1.jpg,Travel,$${counterbalance_group},,sub-89
Desktop or Laptop,Windows 10,Opera 120.0.0.0,1536x864,1536x864,Temporal Distance Task,cb_07,74.0,temp_dist_trial,dist_items,qkpkxw,2.0,response,40,750.0999999999768,1966.0,1981.500000047672,750.0999999999768,1966.0,1981.500000047672,1.0,1231.4000000476954,0.0,,Slider,Slider,4.0,object-56,temp_dist_trial,26.0,t_s_22_1,travel_shared,belt,7.0,competing,paired,t_s_22_1.jpg,Travel,$${counterbalance_group},,sub-89
Desktop or Laptop,Windows 10,Opera 120.0.0.0,1536x864,1536x864,Temporal Distance Task,cb_07,75.0,temp_dist_trial,num_items,zn7si1,1.0,response,2_ITEM,1638.2999999999884,1632.8999999999646,1638.2999999999884,1638.2999999999884,1632.8999999999646,1638.2999999999884,1.0,0.0,0.0,,Click Response,2_count,5.0,object-49,temp_dist_trial,27.0,t_s_07_1,travel_shared,phone charger cable,7.0,competing,paired,t_s_07_1.jpg,Travel,$${counterbalance_group},,sub-89
Desktop or Laptop,Windows 10,Opera 120.0.0.0,1536x864,1536x864,Temporal Distance Task,cb_07,75.0,temp_dist_trial,dist_items,qkpkxw,2.0,info,,4.200000023818575,0.0,4.200000023818575,4.200000023818575,0.0,4.200000023818575,1.0,0.0,0.0,,Slider,Slider,4.0,object-56,temp_dist_trial,27.0,t_s_07_1,travel_shared,phone charger cable,7.0,competing,paired,t_s_07_1.jpg,Travel,$${counterbalance_group},,sub-89
Desktop or Laptop,Windows 10,Opera 120.0.0.0,1536x864,1536x864,Temporal Distance Task,cb_07,75.0,temp_dist_trial,dist_items,qkpkxw,2.0,continue,,3131.400000071503,3115.899999999965,3131.400000071503,3131.400000071503,3115.899999999965,3131.400000071503,1.0,0.0,0.0,,Click To Continue,Next button,7.0,object-60,temp_dist_trial,27.0,t_s_07_1,travel_shared,phone charger cable,7.0,competing,paired,t_s_07_1.jpg,Travel,$${counterbalance_group},,sub-89
Desktop or Laptop,Windows 10,Opera 120.0.0.0,1536x864,1536x864,Temporal Distance Task,cb_07,75.0,temp_dist_trial,dist_items,qkpkxw,2.0,response,75,649.7999999999884,3115.899999999965,3132.5999999999767,649.7999999999884,3115.899999999965,3132.5999999999767,1.0,2482.7999999999884,0.0,,Slider,Slider,4.0,object-56,temp_dist_trial,27.0,t_s_07_1,travel_shared,phone charger cable,7.0,competing,paired,t_s_07_1.jpg,Travel,$${counterbalance_group},,sub-89
Desktop or Laptop,Windows 10,Opera 120.0.0.0,1536x864,1536x864,Temporal Distance Task,cb_07,76.0,temp_dist_trial,num_items,zn7si1,1.0,response,2_ITEM,1914.099999976169,1899.2999999999884,1914.099999976169,1914.099999976169,1899.2999999999884,1914.099999976169,1.0,0.0,0.0,,Click Response,2_count,5.0,object-49,temp_dist_trial,28.0,t_m_03_1,travel_Miami,wetsuit,7.0,unique,paired,t_m_03_1.jpg,Travel,$${counterbalance_group},,sub-89
Desktop or Laptop,Windows 10,Opera 120.0.0.0,1536x864,1536x864,Temporal Distance Task,cb_07,76.0,temp_dist_trial,dist_items,qkpkxw,2.0,info,,14.700000071548855,0.0,14.700000071548855,14.700000071548855,0.0,14.700000071548855,1.0,0.0,0.0,,Slider,Slider,4.0,object-56,temp_dist_trial,28.0,t_m_03_1,travel_Miami,wetsuit,7.0,unique,paired,t_m_03_1.jpg,Travel,$${counterbalance_group},,sub-89
Desktop or Laptop,Windows 10,Opera 120.0.0.0,1536x864,1536x864,Temporal Distance Task,cb_07,76.0,temp_dist_trial,dist_items,qkpkxw,2.0,continue,,1870.9000000000235,1866.1000000000354,1870.9000000000235,1870.9000000000235,1866.1000000000354,1870.9000000000235,1.0,0.0,0.0,,Click To Continue,Next button,7.0,object-60,temp_dist_trial,28.0,t_m_03_1,travel_Miami,wetsuit,7.0,unique,paired,t_m_03_1.jpg,Travel,$${counterbalance_group},,sub-89
Desktop or Laptop,Windows 10,Opera 120.0.0.0,1536x864,1536x864,Temporal Distance Task,cb_07,76.0,temp_dist_trial,dist_items,qkpkxw,2.0,response,29,916.3000000000467,1866.1000000000354,1882.500000000059,916.3000000000467,1866.1000000000354,1882.500000000059,1.0,966.2000000000116,0.0,,Slider,Slider,4.0,object-56,temp_dist_trial,28.0,t_m_03_1,travel_Miami,wetsuit,7.0,unique,paired,t_m_03_1.jpg,Travel,$${counterbalance_group},,sub-89
Desktop or Laptop,Windows 10,Opera 120.0.0.0,1536x864,1536x864,Temporal Distance Task,cb_07,77.0,temp_dist_trial,num_items,zn7si1,1.0,response,2_ITEM,1285.500000047672,1282.7999999999886,1285.500000047672,1285.500000047672,1282.7999999999886,1285.500000047672,1.0,0.0,0.0,,Click Response,2_count,5.0,object-49,temp_dist_trial,29.0,t_s_02_1,travel_shared,water bottle,7.0,competing,paired,t_s_02_1.jpg,Travel,$${counterbalance_group},,sub-89
Desktop or Laptop,Windows 10,Opera 120.0.0.0,1536x864,1536x864,Temporal Distance Task,cb_07,77.0,temp_dist_trial,dist_items,qkpkxw,2.0,info,,5.600000071513931,0.0,5.600000071513931,5.600000071513931,0.0,5.600000071513931,1.0,0.0,0.0,,Slider,Slider,4.0,object-56,temp_dist_trial,29.0,t_s_02_1,travel_shared,water bottle,7.0,competing,paired,t_s_02_1.jpg,Travel,$${counterbalance_group},,sub-89
Desktop or Laptop,Windows 10,Opera 120.0.0.0,1536x864,1536x864,Temporal Distance Task,cb_07,77.0,temp_dist_trial,dist_items,qkpkxw,2.0,continue,,2346.2999999999884,2332.7999999999884,2346.2999999999884,2346.2999999999884,2332.7999999999884,2346.2999999999884,1.0,0.0,0.0,,Click To Continue,Next button,7.0,object-60,temp_dist_trial,29.0,t_s_02_1,travel_shared,water bottle,7.0,competing,paired,t_s_02_1.jpg,Travel,$${counterbalance_group},,sub-89
Desktop or Laptop,Windows 10,Opera 120.0.0.0,1536x864,1536x864,Temporal Distance Task,cb_07,77.0,temp_dist_trial,dist_items,qkpkxw,2.0,response,76,683.3999999999653,2332.7999999999884,2347.000000047672,683.3999999999653,2332.7999999999884,2347.000000047672,1.0,1663.600000047707,0.0,,Slider,Slider,4.0,object-56,temp_dist_trial,29.0,t_s_02_1,travel_shared,water bottle,7.0,competing,paired,t_s_02_1.jpg,Travel,$${counterbalance_group},,sub-89
Desktop or Laptop,Windows 10,Opera 120.0.0.0,1536x864,1536x864,Temporal Distance Task,cb_07,78.0,temp_dist_trial,num_items,zn7si1,1.0,response,2_ITEM,1391.1000000238419,1382.9000000000233,1391.1000000238419,1391.1000000238419,1382.9000000000233,1391.1000000238419,1.0,0.0,0.0,,Click Response,2_count,5.0,object-49,temp_dist_trial,30.0,t_s_14_1,travel_shared,hand sanitizer,7.0,competing,paired,t_s_14_1.jpg,Travel,$${counterbalance_group},,sub-89
Desktop or Laptop,Windows 10,Opera 120.0.0.0,1536x864,1536x864,Temporal Distance Task,cb_07,78.0,temp_dist_trial,dist_items,qkpkxw,2.0,info,,11.700000047683716,0.0,11.700000047683716,11.700000047683716,0.0,11.700000047683716,1.0,0.0,0.0,,Slider,Slider,4.0,object-56,temp_dist_trial,30.0,t_s_14_1,travel_shared,hand sanitizer,7.0,competing,paired,t_s_14_1.jpg,Travel,$${counterbalance_group},,sub-89
Desktop or Laptop,Windows 10,Opera 120.0.0.0,1536x864,1536x864,Temporal Distance Task,cb_07,78.0,temp_dist_trial,dist_items,qkpkxw,2.0,continue,,1976.700000047684,1966.2000000000119,1976.700000047684,1976.700000047684,1966.2000000000119,1976.700000047684,1.0,0.0,0.0,,Click To Continue,Next button,7.0,object-60,temp_dist_trial,30.0,t_s_14_1,travel_shared,hand sanitizer,7.0,competing,paired,t_s_14_1.jpg,Travel,$${counterbalance_group},,sub-89
Desktop or Laptop,Windows 10,Opera 120.0.0.0,1536x864,1536x864,Temporal Distance Task,cb_07,78.0,temp_dist_trial,dist_items,qkpkxw,2.0,response,24,682.9000000000233,1966.2000000000119,1978.5,682.9000000000233,1966.2000000000119,1978.5,1.0,1295.5999999999767,0.0,,Slider,Slider,4.0,object-56,temp_dist_trial,30.0,t_s_14_1,travel_shared,hand sanitizer,7.0,competing,paired,t_s_14_1.jpg,Travel,$${counterbalance_group},,sub-89
Desktop or Laptop,Windows 10,Opera 120.0.0.0,1536x864,1536x864,Temporal Distance Task,cb_07,79.0,temp_dist_trial,num_items,zn7si1,1.0,response,1_ITEM,1206.000000047672,1199.399999999965,1206.000000047672,1206.000000047672,1199.399999999965,1206.000000047672,1.0,0.0,0.0,,Click Response,1_count,3.0,object-46,temp_dist_trial,31.0,t_m_10_1,travel_Miami,tanktop,7.0,unique,single,t_m_10_1.jpg,Travel,$${counterbalance_group},,sub-89
Desktop or Laptop,Windows 10,Opera 120.0.0.0,1536x864,1536x864,Temporal Distance Task,cb_07,80.0,temp_dist_trial,num_items,zn7si1,1.0,response,2_ITEM,1796.9000000476956,1783.1000000000354,1796.9000000476956,1796.9000000476956,1783.1000000000354,1796.9000000476956,1.0,0.0,0.0,,Click Response,2_count,5.0,object-49,temp_dist_trial,32.0,t_m_11_1,travel_Miami,collapsible beach chair,7.0,unique,paired,t_m_11_1.jpg,Travel,$${counterbalance_group},,sub-89
Desktop or Laptop,Windows 10,Opera 120.0.0.0,1536x864,1536x864,Temporal Distance Task,cb_07,80.0,temp_dist_trial,dist_items,qkpkxw,2.0,info,,12.599999976169784,0.0,12.599999976169784,12.599999976169784,0.0,12.599999976169784,1.0,0.0,0.0,,Slider,Slider,4.0,object-56,temp_dist_trial,32.0,t_m_11_1,travel_Miami,collapsible beach chair,7.0,unique,paired,t_m_11_1.jpg,Travel,$${counterbalance_group},,sub-89
Desktop or Laptop,Windows 10,Opera 120.0.0.0,1536x864,1536x864,Temporal Distance Task,cb_07,80.0,temp_dist_trial,dist_items,qkpkxw,2.0,continue,,3379.800000023853,3365.5,3379.800000023853,3379.800000023853,3365.5,3379.800000023853,1.0,0.0,0.0,,Click To Continue,Next button,7.0,object-60,temp_dist_trial,32.0,t_m_11_1,travel_Miami,collapsible beach chair,7.0,unique,paired,t_m_11_1.jpg,Travel,$${counterbalance_group},,sub-89
Desktop or Laptop,Windows 10,Opera 120.0.0.0,1536x864,1536x864,Temporal Distance Task,cb_07,80.0,temp_dist_trial,dist_items,qkpkxw,2.0,response,86,633.1000000000347,3365.5,3380.4000000476954,633.1000000000347,3365.5,3380.4000000476954,1.0,2747.3000000476604,0.0,,Slider,Slider,4.0,object-56,temp_dist_trial,32.0,t_m_11_1,travel_Miami,collapsible beach chair,7.0,unique,paired,t_m_11_1.jpg,Travel,$${counterbalance_group},,sub-89
Desktop or Laptop,Windows 10,Opera 120.0.0.0,1536x864,1536x864,Temporal Distance Task,cb_07,81.0,temp_dist_trial,num_items,zn7si1,1.0,response,2_ITEM,1371.0999999761698,1366.100000000035,1371.0999999761698,1371.0999999761698,1366.100000000035,1371.0999999761698,1.0,0.0,0.0,,Click Response,2_count,5.0,object-49,temp_dist_trial,33.0,t_s_08_1,travel_shared,hand lotion,7.0,competing,paired,t_s_08_1.jpg,Travel,$${counterbalance_group},,sub-89
Desktop or Laptop,Windows 10,Opera 120.0.0.0,1536x864,1536x864,Temporal Distance Task,cb_07,81.0,temp_dist_trial,dist_items,qkpkxw,2.0,info,,6.499999976134857,0.0,6.499999976134857,6.499999976134857,0.0,6.499999976134857,1.0,0.0,0.0,,Slider,Slider,4.0,object-56,temp_dist_trial,33.0,t_s_08_1,travel_shared,hand lotion,7.0,competing,paired,t_s_08_1.jpg,Travel,$${counterbalance_group},,sub-89
Desktop or Laptop,Windows 10,Opera 120.0.0.0,1536x864,1536x864,Temporal Distance Task,cb_07,81.0,temp_dist_trial,dist_items,qkpkxw,2.0,continue,,1699.1999999999537,1682.6999999999537,1699.1999999999537,1699.1999999999537,1682.6999999999537,1699.1999999999537,1.0,0.0,0.0,,Click To Continue,Next button,7.0,object-60,temp_dist_trial,33.0,t_s_08_1,travel_shared,hand lotion,7.0,competing,paired,t_s_08_1.jpg,Travel,$${counterbalance_group},,sub-89
Desktop or Laptop,Windows 10,Opera 120.0.0.0,1536x864,1536x864,Temporal Distance Task,cb_07,81.0,temp_dist_trial,dist_items,qkpkxw,2.0,response,80,750.0,1682.6999999999537,1699.1999999999537,750.0,1682.6999999999537,1699.1999999999537,1.0,949.1999999999533,0.0,,Slider,Slider,4.0,object-56,temp_dist_trial,33.0,t_s_08_1,travel_shared,hand lotion,7.0,competing,paired,t_s_08_1.jpg,Travel,$${counterbalance_group},,sub-89
Desktop or Laptop,Windows 10,Opera 120.0.0.0,1536x864,1536x864,Temporal Distance Task,cb_07,82.0,temp_dist_trial,num_items,zn7si1,1.0,response,1_ITEM,1782.9000000000233,1766.2000000000116,1782.9000000000233,1782.9000000000233,1766.2000000000116,1782.9000000000233,1.0,0.0,0.0,,Click Response,1_count,3.0,object-46,temp_dist_trial,34.0,t_i_07_1,travel_Iceland,hiking backpack,7.0,unique,single,t_i_07_1.jpg,Travel,$${counterbalance_group},,sub-89
Desktop or Laptop,Windows 10,Opera 120.0.0.0,1536x864,1536x864,Temporal Distance Task,cb_07,83.0,temp_dist_trial,num_items,zn7si1,1.0,response,2_ITEM,1213.5999999761698,1199.7000000000114,1213.5999999761698,1213.5999999761698,1199.7000000000114,1213.5999999761698,1.0,0.0,0.0,,Click Response,2_count,5.0,object-49,temp_dist_trial,35.0,t_s_18_1,travel_shared,first aid kit,7.0,competing,paired,t_s_18_1.jpg,Travel,$${counterbalance_group},,sub-89
Desktop or Laptop,Windows 10,Opera 120.0.0.0,1536x864,1536x864,Temporal Distance Task,cb_07,83.0,temp_dist_trial,dist_items,qkpkxw,2.0,info,,7.7000000000116415,0.0,7.7000000000116415,7.7000000000116415,0.0,7.7000000000116415,1.0,0.0,0.0,,Slider,Slider,4.0,object-56,temp_dist_trial,35.0,t_s_18_1,travel_shared,first aid kit,7.0,competing,paired,t_s_18_1.jpg,Travel,$${counterbalance_group},,sub-89
Desktop or Laptop,Windows 10,Opera 120.0.0.0,1536x864,1536x864,Temporal Distance Task,cb_07,83.0,temp_dist_trial,dist_items,qkpkxw,2.0,continue,,3314.4000000476954,3299.100000000035,3314.4000000476954,3314.4000000476954,3299.100000000035,3314.4000000476954,1.0,0.0,0.0,,Click To Continue,Next button,7.0,object-60,temp_dist_trial,35.0,t_s_18_1,travel_shared,first aid kit,7.0,competing,paired,t_s_18_1.jpg,Travel,$${counterbalance_group},,sub-89
Desktop or Laptop,Windows 10,Opera 120.0.0.0,1536x864,1536x864,Temporal Distance Task,cb_07,83.0,temp_dist_trial,dist_items,qkpkxw,2.0,response,33,982.9000000000232,3299.100000000035,3315.5000000715368,982.9000000000232,3299.100000000035,3315.5000000715368,1.0,2332.600000071514,0.0,,Slider,Slider,4.0,object-56,temp_dist_trial,35.0,t_s_18_1,travel_shared,first aid kit,7.0,competing,paired,t_s_18_1.jpg,Travel,$${counterbalance_group},,sub-89
Desktop or Laptop,Windows 10,Opera 120.0.0.0,1536x864,1536x864,Temporal Distance Task,cb_07,84.0,temp_dist_trial,num_items,zn7si1,1.0,response,1_ITEM,839.5999999999768,833.0999999999768,839.5999999999768,839.5999999999768,833.0999999999768,839.5999999999768,1.0,0.0,0.0,,Click Response,1_count,3.0,object-46,temp_dist_trial,36.0,t_i_14_1,travel_Iceland,snow pants,7.0,unique,paired,t_i_14_1.jpg,Travel,$${counterbalance_group},,sub-89
Desktop or Laptop,Windows 10,Opera 120.0.0.0,1536x864,1536x864,Temporal Distance Task,cb_07,85.0,temp_dist_trial,num_items,zn7si1,1.0,response,2_ITEM,1175.4000000476954,1166.4000000000233,1175.4000000476954,1175.4000000476954,1166.4000000000233,1175.4000000476954,1.0,0.0,0.0,,Click Response,2_count,5.0,object-49,temp_dist_trial,37.0,t_i_01_1,travel_Iceland,gloves,7.0,unique,paired,t_i_01_1.jpg,Travel,$${counterbalance_group},,sub-89
Desktop or Laptop,Windows 10,Opera 120.0.0.0,1536x864,1536x864,Temporal Distance Task,cb_07,85.0,temp_dist_trial,dist_items,qkpkxw,2.0,info,,5.399999976158142,0.0,5.399999976158142,5.399999976158142,0.0,5.399999976158142,1.0,0.0,0.0,,Slider,Slider,4.0,object-56,temp_dist_trial,37.0,t_i_01_1,travel_Iceland,gloves,7.0,unique,paired,t_i_01_1.jpg,Travel,$${counterbalance_group},,sub-89
Desktop or Laptop,Windows 10,Opera 120.0.0.0,1536x864,1536x864,Temporal Distance Task,cb_07,85.0,temp_dist_trial,dist_items,qkpkxw,2.0,continue,,2083.100000000035,2066.200000000012,2083.100000000035,2083.100000000035,2066.200000000012,2083.100000000035,1.0,0.0,0.0,,Click To Continue,Next button,7.0,object-60,temp_dist_trial,37.0,t_i_01_1,travel_Iceland,gloves,7.0,unique,paired,t_i_01_1.jpg,Travel,$${counterbalance_group},,sub-89
Desktop or Laptop,Windows 10,Opera 120.0.0.0,1536x864,1536x864,Temporal Distance Task,cb_07,85.0,temp_dist_trial,dist_items,qkpkxw,2.0,response,71,983.2999999999884,2066.200000000012,2083.100000000035,983.2999999999884,2066.200000000012,2083.100000000035,1.0,1099.8000000000468,0.0,,Slider,Slider,4.0,object-56,temp_dist_trial,37.0,t_i_01_1,travel_Iceland,gloves,7.0,unique,paired,t_i_01_1.jpg,Travel,$${counterbalance_group},,sub-89
Desktop or Laptop,Windows 10,Opera 120.0.0.0,1536x864,1536x864,Temporal Distance Task,cb_07,86.0,temp_dist_trial,num_items,zn7si1,1.0,response,2_ITEM,1849.7000000000119,1832.7999999999884,1849.7000000000119,1849.7000000000119,1832.7999999999884,1849.7000000000119,1.0,0.0,0.0,,Click Response,2_count,5.0,object-49,temp_dist_trial,38.0,t_i_18_1,travel_Iceland,ski mask,7.0,unique,paired,t_i_18_1.jpg,Travel,$${counterbalance_group},,sub-89
Desktop or Laptop,Windows 10,Opera 120.0.0.0,1536x864,1536x864,Temporal Distance Task,cb_07,86.0,temp_dist_trial,dist_items,qkpkxw,2.0,info,,12.500000071537215,0.0,12.500000071537215,12.500000071537215,0.0,12.500000071537215,1.0,0.0,0.0,,Slider,Slider,4.0,object-56,temp_dist_trial,38.0,t_i_18_1,travel_Iceland,ski mask,7.0,unique,paired,t_i_18_1.jpg,Travel,$${counterbalance_group},,sub-89
Desktop or Laptop,Windows 10,Opera 120.0.0.0,1536x864,1536x864,Temporal Distance Task,cb_07,86.0,temp_dist_trial,dist_items,qkpkxw,2.0,continue,,1613.0999999761698,1599.2999999999884,1613.0999999761698,1613.0999999761698,1599.2999999999884,1613.0999999761698,1.0,0.0,0.0,,Click To Continue,Next button,7.0,object-60,temp_dist_trial,38.0,t_i_18_1,travel_Iceland,ski mask,7.0,unique,paired,t_i_18_1.jpg,Travel,$${counterbalance_group},,sub-89
Desktop or Laptop,Windows 10,Opera 120.0.0.0,1536x864,1536x864,Temporal Distance Task,cb_07,86.0,temp_dist_trial,dist_items,qkpkxw,2.0,response,18,682.9000000000233,1599.2999999999884,1613.4000000476956,682.9000000000233,1599.2999999999884,1613.4000000476956,1.0,930.500000047672,0.0,,Slider,Slider,4.0,object-56,temp_dist_trial,38.0,t_i_18_1,travel_Iceland,ski mask,7.0,unique,paired,t_i_18_1.jpg,Travel,$${counterbalance_group},,sub-89
Desktop or Laptop,Windows 10,Opera 120.0.0.0,1536x864,1536x864,Temporal Distance Task,cb_07,87.0,temp_dist_trial,num_items,zn7si1,1.0,response,2_ITEM,1232.7999999761814,1216.2000000000114,1232.7999999761814,1232.7999999761814,1216.2000000000114,1232.7999999761814,1.0,0.0,0.0,,Click Response,2_count,5.0,object-49,temp_dist_trial,39.0,t_m_06_1,travel_Miami,handheld fan,7.0,unique,paired,t_m_06_1.jpg,Travel,$${counterbalance_group},,sub-89
Desktop or Laptop,Windows 10,Opera 120.0.0.0,1536x864,1536x864,Temporal Distance Task,cb_07,87.0,temp_dist_trial,dist_items,qkpkxw,2.0,info,,12.400000071502287,0.0,12.400000071502287,12.400000071502287,0.0,12.400000071502287,1.0,0.0,0.0,,Slider,Slider,4.0,object-56,temp_dist_trial,39.0,t_m_06_1,travel_Miami,handheld fan,7.0,unique,paired,t_m_06_1.jpg,Travel,$${counterbalance_group},,sub-89
Desktop or Laptop,Windows 10,Opera 120.0.0.0,1536x864,1536x864,Temporal Distance Task,cb_07,87.0,temp_dist_trial,dist_items,qkpkxw,2.0,continue,,2170.4000000715023,2166.0,2170.4000000715023,2170.4000000715023,2166.0,2170.4000000715023,1.0,0.0,0.0,,Click To Continue,Next button,7.0,object-60,temp_dist_trial,39.0,t_m_06_1,travel_Miami,handheld fan,7.0,unique,paired,t_m_06_1.jpg,Travel,$${counterbalance_group},,sub-89
Desktop or Laptop,Windows 10,Opera 120.0.0.0,1536x864,1536x864,Temporal Distance Task,cb_07,87.0,temp_dist_trial,dist_items,qkpkxw,2.0,response,17,1166.2999999999886,2166.0,2171.5999999999767,1166.2999999999886,2166.0,2171.5999999999767,1.0,1005.2999999999884,0.0,,Slider,Slider,4.0,object-56,temp_dist_trial,39.0,t_m_06_1,travel_Miami,handheld fan,7.0,unique,paired,t_m_06_1.jpg,Travel,$${counterbalance_group},,sub-89
Desktop or Laptop,Windows 10,Opera 120.0.0.0,1536x864,1536x864,Temporal Distance Task,cb_07,88.0,temp_dist_trial,num_items,zn7si1,1.0,response,2_ITEM,2712.099999999977,2699.2999999999884,2712.099999999977,2712.099999999977,2699.2999999999884,2712.099999999977,1.0,0.0,0.0,,Click Response,2_count,5.0,object-49,temp_dist_trial,40.0,t_i_06_1,travel_Iceland,knit hat,7.0,unique,paired,t_i_06_1.jpg,Travel,$${counterbalance_group},,sub-89
Desktop or Laptop,Windows 10,Opera 120.0.0.0,1536x864,1536x864,Temporal Distance Task,cb_07,88.0,temp_dist_trial,dist_items,qkpkxw,2.0,info,,12.5,0.0,12.5,12.5,0.0,12.5,1.0,0.0,0.0,,Slider,Slider,4.0,object-56,temp_dist_trial,40.0,t_i_06_1,travel_Iceland,knit hat,7.0,unique,paired,t_i_06_1.jpg,Travel,$${counterbalance_group},,sub-89
Desktop or Laptop,Windows 10,Opera 120.0.0.0,1536x864,1536x864,Temporal Distance Task,cb_07,88.0,temp_dist_trial,dist_items,qkpkxw,2.0,continue,,3430.1000000238428,3415.9000000000237,3430.1000000238428,3430.1000000238428,3415.9000000000237,3430.1000000238428,1.0,0.0,0.0,,Click To Continue,Next button,7.0,object-60,temp_dist_trial,40.0,t_i_06_1,travel_Iceland,knit hat,7.0,unique,paired,t_i_06_1.jpg,Travel,$${counterbalance_group},,sub-89
Desktop or Laptop,Windows 10,Opera 120.0.0.0,1536x864,1536x864,Temporal Distance Task,cb_07,88.0,temp_dist_trial,dist_items,qkpkxw,2.0,response,52,1033.0,3415.9000000000237,3432.8000000000466,1033.0,3415.9000000000237,3432.8000000000466,1.0,2399.8000000000466,0.0,,Slider,Slider,4.0,object-56,temp_dist_trial,40.0,t_i_06_1,travel_Iceland,knit hat,7.0,unique,paired,t_i_06_1.jpg,Travel,$${counterbalance_group},,sub-89
Desktop or Laptop,Windows 10,Opera 120.0.0.0,1536x864,1536x864,Temporal Distance Task,cb_07,89.0,temp_dist_trial,num_items,zn7si1,1.0,response,1_ITEM,1436.9000000715023,1432.5,1436.9000000715023,1436.9000000715023,1432.5,1436.9000000715023,1.0,0.0,0.0,,Click Response,1_count,3.0,object-46,temp_dist_trial,41.0,t_s_17_1,travel_shared,toothbrush,7.0,competing,paired,t_s_17_1.jpg,Travel,$${counterbalance_group},,sub-89
