Participant Device,Participant OS,Participant Browser,Participant Monitor Size,Participant Viewport Size,Task Name,Current Spreadsheet,Trial Number,Display,Screen,Screen ID,Screen Counter,Response Type,Response,Onset Time,Clock Time,Reaction Time,Absolute Onset Time,Absolute Clock Time,Absolute Reaction Time,Correct,Response Duration,Proportion,Tag,Component Name,Object Name,Object Number,Object ID,Spreadsheet: display,Spreadsheet: trial,Spreadsheet: stimulus_id,Spreadsheet: expected_goal,Spreadsheet: stimulus_name,Spreadsheet: c_group,Spreadsheet: condition,Spreadsheet: paired_status,Spreadsheet: stimulus_path,Spreadsheet: block_type,Manipulation: Spreadsheet,Store: enc_test_acc,sub_label
Desktop or Laptop,Windows 10,Chrome 135.0.0.0,1366x768,1366x768,Temporal Distance Task,$${counterbalance_group},,,,,,info,BEGIN,,,,,,,0.0,,,,,,,,,,,,,,,,,,,,sub-66
Desktop or Laptop,Windows 10,Chrome 135.0.0.0,1366x768,1366x768,Temporal Distance Task,cb_05,1.0,temp_instructions,intro_screen,3tnme7,1.0,continue,,25946.59999995232,25931.4,25946.59999995232,25946.59999995232,25931.4,25946.59999995232,1.0,0.0,0.0,,Click To Continue,Continue Button,4.0,object-29,temp_instructions,,,Student,,,,,,,,,sub-66
Desktop or Laptop,Windows 10,Chrome 135.0.0.0,1366x768,1366x768,Temporal Distance Task,cb_05,1.0,temp_instructions,intro_screen_2,52v7ur,2.0,continue,,28799.799999976163,28790.4,28799.799999976163,28799.799999976163,28790.4,28799.799999976163,1.0,0.0,0.0,,Click To Continue,Continue Button,4.0,object-39,temp_instructions,,,Student,,,,,,,,,sub-66
Desktop or Laptop,Windows 10,Chrome 135.0.0.0,1366x768,1366x768,Temporal Distance Task,cb_05,1.0,temp_instructions,intro_screen_3,i7lvwx,3.0,continue,,18760.399999976158,18750.399999999994,18760.399999976158,18760.399999976158,18750.399999999994,18760.399999976158,1.0,0.0,0.0,,Click To Continue,Continue Button,4.0,object-67,temp_instructions,,,Student,,,,,,,,,sub-66
Desktop or Laptop,Windows 10,Chrome 135.0.0.0,1366x768,1366x768,Temporal Distance Task,cb_05,1.0,temp_instructions,test_q1,5ieqx1,4.0,response,choice_3,21994.999999976157,21991.60000000001,21994.999999976157,21994.999999976157,21991.60000000001,21994.999999976157,1.0,0.0,0.0,,Click Response,choice_3,5.0,object-345,temp_instructions,,,Student,,,,,,,,,sub-66
Desktop or Laptop,Windows 10,Chrome 135.0.0.0,1366x768,1366x768,Temporal Distance Task,cb_05,1.0,temp_instructions,score_corr,7ilvjr,5.0,continue,,2274.7999999523167,2260.800000000003,2274.7999999523167,2274.7999999523167,2260.800000000003,2274.7999999523167,1.0,0.0,0.0,,Click To Continue,Continue Button,3.0,object-23,temp_instructions,,,Student,,,,,,,,,sub-66
Desktop or Laptop,Windows 10,Chrome 135.0.0.0,1366x768,1366x768,Temporal Distance Task,cb_05,1.0,temp_eventStart,Screen 1,dgtyxe,1.0,continue,,8717.999999952313,8710.199999999997,8717.999999952313,8717.999999952313,8710.199999999997,8717.999999952313,1.0,0.0,0.0,,Click To Continue,Next Button,3.0,object-43,temp_eventStart,,,Student,,,,,,,,,sub-66
Desktop or Laptop,Windows 10,Chrome 135.0.0.0,1366x768,1366x768,Temporal Distance Task,cb_05,1.0,temp_dist_trial,num_items,zn7si1,1.0,response,num_miss,2992.199999999997,2992.199999999997,2992.199999999997,2992.199999999997,2992.199999999997,2992.199999999997,1.0,0.0,0.0,num_miss_tag,Time Limit,screen,0.0,screen,temp_dist_trial,1.0,s_a_08_1,student_art,sewing machine,5.0,unique,paired,s_a_08_1.jpg,Student,,,sub-66
Desktop or Laptop,Windows 10,Chrome 135.0.0.0,1366x768,1366x768,Temporal Distance Task,cb_05,2.0,temp_dist_trial,num_items,zn7si1,1.0,response,1_ITEM,2582.099999904633,2576.5,2582.099999904633,2582.099999904633,2576.5,2582.099999904633,1.0,0.0,0.0,,Click Response,1_count,3.0,object-46,temp_dist_trial,2.0,s_s_03_1,student_stem,petri dish,5.0,unique,paired,s_s_03_1.jpg,Student,,,sub-66
Desktop or Laptop,Windows 10,Chrome 135.0.0.0,1366x768,1366x768,Temporal Distance Task,cb_05,3.0,temp_dist_trial,num_items,zn7si1,1.0,response,2_ITEM,1756.4999999523136,1745.3999999999942,1756.4999999523136,1756.4999999523136,1745.3999999999942,1756.4999999523136,1.0,0.0,0.0,,Click Response,2_count,5.0,object-49,temp_dist_trial,3.0,s_sh_02_1,student_shared,eraser,5.0,competing,paired,s_sh_02_1.jpg,Student,,,sub-66
Desktop or Laptop,Windows 10,Chrome 135.0.0.0,1366x768,1366x768,Temporal Distance Task,cb_05,3.0,temp_dist_trial,dist_items,qkpkxw,2.0,info,,13.899999976158142,0.0,13.899999976158142,13.899999976158142,0.0,13.899999976158142,1.0,0.0,0.0,,Slider,Slider,4.0,object-56,temp_dist_trial,3.0,s_sh_02_1,student_shared,eraser,5.0,competing,paired,s_sh_02_1.jpg,Student,,,sub-66
Desktop or Laptop,Windows 10,Chrome 135.0.0.0,1366x768,1366x768,Temporal Distance Task,cb_05,3.0,temp_dist_trial,dist_items,qkpkxw,2.0,continue,,6922.099999904633,6915.0,6922.099999904633,6922.099999904633,6915.0,6922.099999904633,1.0,0.0,0.0,,Click To Continue,Next button,7.0,object-60,temp_dist_trial,3.0,s_sh_02_1,student_shared,eraser,5.0,competing,paired,s_sh_02_1.jpg,Student,,,sub-66
Desktop or Laptop,Windows 10,Chrome 135.0.0.0,1366x768,1366x768,Temporal Distance Task,cb_05,3.0,temp_dist_trial,dist_items,qkpkxw,2.0,response,43,4820.600000000006,6915.0,6929.199999928474,4820.600000000006,6915.0,6929.199999928474,1.0,2108.5999999284686,0.0,,Slider,Slider,4.0,object-56,temp_dist_trial,3.0,s_sh_02_1,student_shared,eraser,5.0,competing,paired,s_sh_02_1.jpg,Student,,,sub-66
Desktop or Laptop,Windows 10,Chrome 135.0.0.0,1366x768,1366x768,Temporal Distance Task,cb_05,4.0,temp_dist_trial,num_items,zn7si1,1.0,response,2_ITEM,2293.999999999971,2277.2999999999884,2293.999999999971,2293.999999999971,2277.2999999999884,2293.999999999971,1.0,0.0,0.0,,Click Response,2_count,5.0,object-49,temp_dist_trial,4.0,s_a_01_1,student_art,paintbrush,5.0,unique,paired,s_a_01_1.jpg,Student,,,sub-66
Desktop or Laptop,Windows 10,Chrome 135.0.0.0,1366x768,1366x768,Temporal Distance Task,cb_05,4.0,temp_dist_trial,dist_items,qkpkxw,2.0,info,,6.299999999988358,0.0,6.299999999988358,6.299999999988358,0.0,6.299999999988358,1.0,0.0,0.0,,Slider,Slider,4.0,object-56,temp_dist_trial,4.0,s_a_01_1,student_art,paintbrush,5.0,unique,paired,s_a_01_1.jpg,Student,,,sub-66
Desktop or Laptop,Windows 10,Chrome 135.0.0.0,1366x768,1366x768,Temporal Distance Task,cb_05,4.0,temp_dist_trial,dist_items,qkpkxw,2.0,continue,,5160.599999952306,5153.0,5160.599999952306,5160.599999952306,5153.0,5160.599999952306,1.0,0.0,0.0,,Click To Continue,Next button,7.0,object-60,temp_dist_trial,4.0,s_a_01_1,student_art,paintbrush,5.0,unique,paired,s_a_01_1.jpg,Student,,,sub-66
Desktop or Laptop,Windows 10,Chrome 135.0.0.0,1366x768,1366x768,Temporal Distance Task,cb_05,4.0,temp_dist_trial,dist_items,qkpkxw,2.0,response,57,1230.0999999999767,5153.0,5162.099999952306,1230.0999999999767,5153.0,5162.099999952306,1.0,3931.999999952328,0.0,,Slider,Slider,4.0,object-56,temp_dist_trial,4.0,s_a_01_1,student_art,paintbrush,5.0,unique,paired,s_a_01_1.jpg,Student,,,sub-66
Desktop or Laptop,Windows 10,Chrome 135.0.0.0,1366x768,1366x768,Temporal Distance Task,cb_05,5.0,temp_dist_trial,num_items,zn7si1,1.0,response,2_ITEM,2144.2999999999884,2127.6999999999825,2144.2999999999884,2144.2999999999884,2127.6999999999825,2144.2999999999884,1.0,0.0,0.0,,Click Response,2_count,5.0,object-49,temp_dist_trial,5.0,s_s_17_1,student_stem,ring stand,5.0,unique,paired,s_s_17_1.jpg,Student,,,sub-66
Desktop or Laptop,Windows 10,Chrome 135.0.0.0,1366x768,1366x768,Temporal Distance Task,cb_05,5.0,temp_dist_trial,dist_items,qkpkxw,2.0,info,,15.499999928462785,0.0,15.499999928462785,15.499999928462785,0.0,15.499999928462785,1.0,0.0,0.0,,Slider,Slider,4.0,object-56,temp_dist_trial,5.0,s_s_17_1,student_stem,ring stand,5.0,unique,paired,s_s_17_1.jpg,Student,,,sub-66
Desktop or Laptop,Windows 10,Chrome 135.0.0.0,1366x768,1366x768,Temporal Distance Task,cb_05,5.0,temp_dist_trial,dist_items,qkpkxw,2.0,continue,,2318.2999999999884,2310.599999999977,2318.2999999999884,2318.2999999999884,2310.599999999977,2318.2999999999884,1.0,0.0,0.0,,Click To Continue,Next button,7.0,object-60,temp_dist_trial,5.0,s_s_17_1,student_stem,ring stand,5.0,unique,paired,s_s_17_1.jpg,Student,,,sub-66
Desktop or Laptop,Windows 10,Chrome 135.0.0.0,1366x768,1366x768,Temporal Distance Task,cb_05,5.0,temp_dist_trial,dist_items,qkpkxw,2.0,response,60,930.6999999999823,2310.599999999977,2319.2999999999884,930.6999999999823,2310.599999999977,2319.2999999999884,1.0,1388.6000000000058,0.0,,Slider,Slider,4.0,object-56,temp_dist_trial,5.0,s_s_17_1,student_stem,ring stand,5.0,unique,paired,s_s_17_1.jpg,Student,,,sub-66
Desktop or Laptop,Windows 10,Chrome 135.0.0.0,1366x768,1366x768,Temporal Distance Task,cb_05,6.0,temp_dist_trial,num_items,zn7si1,1.0,response,num_miss,2992.1000000000067,2992.1000000000067,2992.1000000000067,2992.1000000000067,2992.1000000000067,2992.1000000000067,1.0,0.0,0.0,num_miss_tag,Time Limit,screen,0.0,screen,temp_dist_trial,6.0,s_sh_11_1,student_shared,pencil case,5.0,competing,single,s_sh_11_1.jpg,Student,,,sub-66
Desktop or Laptop,Windows 10,Chrome 135.0.0.0,1366x768,1366x768,Temporal Distance Task,cb_05,7.0,temp_dist_trial,num_items,zn7si1,1.0,response,2_ITEM,2526.6000000000063,2510.0,2526.6000000000063,2526.6000000000063,2510.0,2526.6000000000063,1.0,0.0,0.0,,Click Response,2_count,5.0,object-49,temp_dist_trial,7.0,s_a_07_1,student_art,yarn,5.0,unique,paired,s_a_07_1.jpg,Student,,,sub-66
Desktop or Laptop,Windows 10,Chrome 135.0.0.0,1366x768,1366x768,Temporal Distance Task,cb_05,7.0,temp_dist_trial,dist_items,qkpkxw,2.0,info,,16.5,0.0,16.5,16.5,0.0,16.5,1.0,0.0,0.0,,Slider,Slider,4.0,object-56,temp_dist_trial,7.0,s_a_07_1,student_art,yarn,5.0,unique,paired,s_a_07_1.jpg,Student,,,sub-66
Desktop or Laptop,Windows 10,Chrome 135.0.0.0,1366x768,1366x768,Temporal Distance Task,cb_05,7.0,temp_dist_trial,dist_items,qkpkxw,2.0,continue,,4205.6999999999825,4189.0,4205.6999999999825,4205.6999999999825,4189.0,4205.6999999999825,1.0,0.0,0.0,,Click To Continue,Next button,7.0,object-60,temp_dist_trial,7.0,s_a_07_1,student_art,yarn,5.0,unique,paired,s_a_07_1.jpg,Student,,,sub-66
Desktop or Laptop,Windows 10,Chrome 135.0.0.0,1366x768,1366x768,Temporal Distance Task,cb_05,7.0,temp_dist_trial,dist_items,qkpkxw,2.0,response,59,1811.7000000000119,4189.0,4205.6999999999825,1811.7000000000119,4189.0,4205.6999999999825,1.0,2393.999999999971,0.0,,Slider,Slider,4.0,object-56,temp_dist_trial,7.0,s_a_07_1,student_art,yarn,5.0,unique,paired,s_a_07_1.jpg,Student,,,sub-66
Desktop or Laptop,Windows 10,Chrome 135.0.0.0,1366x768,1366x768,Temporal Distance Task,cb_05,8.0,temp_dist_trial,num_items,zn7si1,1.0,response,2_ITEM,2850.2999999284802,2842.3999999999933,2850.2999999284802,2850.2999999284802,2842.3999999999933,2850.2999999284802,1.0,0.0,0.0,,Click Response,2_count,5.0,object-49,temp_dist_trial,8.0,s_a_13_1,student_art,violin,5.0,unique,paired,s_a_13_1.jpg,Student,,,sub-66
Desktop or Laptop,Windows 10,Chrome 135.0.0.0,1366x768,1366x768,Temporal Distance Task,cb_05,8.0,temp_dist_trial,dist_items,qkpkxw,2.0,info,,8.6999999761465,0.0,8.6999999761465,8.6999999761465,0.0,8.6999999761465,1.0,0.0,0.0,,Slider,Slider,4.0,object-56,temp_dist_trial,8.0,s_a_13_1,student_art,violin,5.0,unique,paired,s_a_13_1.jpg,Student,,,sub-66
Desktop or Laptop,Windows 10,Chrome 135.0.0.0,1366x768,1366x768,Temporal Distance Task,cb_05,8.0,temp_dist_trial,dist_items,qkpkxw,2.0,continue,,2790.899999904621,2776.0,2790.899999904621,2790.899999904621,2776.0,2790.899999904621,1.0,0.0,0.0,,Click To Continue,Next button,7.0,object-60,temp_dist_trial,8.0,s_a_13_1,student_art,violin,5.0,unique,paired,s_a_13_1.jpg,Student,,,sub-66
Desktop or Laptop,Windows 10,Chrome 135.0.0.0,1366x768,1366x768,Temporal Distance Task,cb_05,8.0,temp_dist_trial,dist_items,qkpkxw,2.0,response,59,1479.2999999999884,2776.0,2791.9999999284632,1479.2999999999884,2776.0,2791.9999999284632,1.0,1312.6999999284744,0.0,,Slider,Slider,4.0,object-56,temp_dist_trial,8.0,s_a_13_1,student_art,violin,5.0,unique,paired,s_a_13_1.jpg,Student,,,sub-66
Desktop or Laptop,Windows 10,Chrome 135.0.0.0,1366x768,1366x768,Temporal Distance Task,cb_05,9.0,temp_dist_trial,num_items,zn7si1,1.0,response,2_ITEM,2054.2999999999884,2044.5,2054.2999999999884,2054.2999999999884,2044.5,2054.2999999999884,1.0,0.0,0.0,,Click Response,2_count,5.0,object-49,temp_dist_trial,9.0,s_sh_17_1,student_shared,wireless mouse,5.0,competing,paired,s_sh_17_1.jpg,Student,,,sub-66
Desktop or Laptop,Windows 10,Chrome 135.0.0.0,1366x768,1366x768,Temporal Distance Task,cb_05,9.0,temp_dist_trial,dist_items,qkpkxw,2.0,info,,16.700000000011638,0.0,16.700000000011638,16.700000000011638,0.0,16.700000000011638,1.0,0.0,0.0,,Slider,Slider,4.0,object-56,temp_dist_trial,9.0,s_sh_17_1,student_shared,wireless mouse,5.0,competing,paired,s_sh_17_1.jpg,Student,,,sub-66
Desktop or Laptop,Windows 10,Chrome 135.0.0.0,1366x768,1366x768,Temporal Distance Task,cb_05,9.0,temp_dist_trial,dist_items,qkpkxw,2.0,continue,,2737.299999976153,2726.1999999999825,2737.299999976153,2737.299999976153,2726.1999999999825,2737.299999976153,1.0,0.0,0.0,,Click To Continue,Next button,7.0,object-60,temp_dist_trial,9.0,s_sh_17_1,student_shared,wireless mouse,5.0,competing,paired,s_sh_17_1.jpg,Student,,,sub-66
Desktop or Laptop,Windows 10,Chrome 135.0.0.0,1366x768,1366x768,Temporal Distance Task,cb_05,9.0,temp_dist_trial,dist_items,qkpkxw,2.0,response,45,1429.2999999999884,2726.1999999999825,2742.899999999965,1429.2999999999884,2726.1999999999825,2742.899999999965,1.0,1313.5999999999767,0.0,,Slider,Slider,4.0,object-56,temp_dist_trial,9.0,s_sh_17_1,student_shared,wireless mouse,5.0,competing,paired,s_sh_17_1.jpg,Student,,,sub-66
Desktop or Laptop,Windows 10,Chrome 135.0.0.0,1366x768,1366x768,Temporal Distance Task,cb_05,10.0,temp_dist_trial,num_items,zn7si1,1.0,response,num_miss,2992.0,2992.0,2992.0,2992.0,2992.0,2992.0,1.0,0.0,0.0,num_miss_tag,Time Limit,screen,0.0,screen,temp_dist_trial,10.0,s_s_05_1,student_stem,lab goggles,5.0,unique,single,s_s_05_1.jpg,Student,,,sub-66
Desktop or Laptop,Windows 10,Chrome 135.0.0.0,1366x768,1366x768,Temporal Distance Task,cb_05,11.0,temp_dist_trial,num_items,zn7si1,1.0,response,2_ITEM,1153.7000000000114,1147.1000000000058,1153.7000000000114,1153.7000000000114,1147.1000000000058,1153.7000000000114,1.0,0.0,0.0,,Click Response,2_count,5.0,object-49,temp_dist_trial,11.0,s_s_16_1,student_stem,toolbox,5.0,unique,paired,s_s_16_1.jpg,Student,,,sub-66
Desktop or Laptop,Windows 10,Chrome 135.0.0.0,1366x768,1366x768,Temporal Distance Task,cb_05,11.0,temp_dist_trial,dist_items,qkpkxw,2.0,info,,10.899999904620929,0.0,10.899999904620929,10.899999904620929,0.0,10.899999904620929,1.0,0.0,0.0,,Slider,Slider,4.0,object-56,temp_dist_trial,11.0,s_s_16_1,student_stem,toolbox,5.0,unique,paired,s_s_16_1.jpg,Student,,,sub-66
Desktop or Laptop,Windows 10,Chrome 135.0.0.0,1366x768,1366x768,Temporal Distance Task,cb_05,11.0,temp_dist_trial,dist_items,qkpkxw,2.0,continue,,3790.200000000012,3773.5,3790.200000000012,3790.200000000012,3773.5,3790.200000000012,1.0,0.0,0.0,,Click To Continue,Next button,7.0,object-60,temp_dist_trial,11.0,s_s_16_1,student_stem,toolbox,5.0,unique,paired,s_s_16_1.jpg,Student,,,sub-66
Desktop or Laptop,Windows 10,Chrome 135.0.0.0,1366x768,1366x768,Temporal Distance Task,cb_05,11.0,temp_dist_trial,dist_items,qkpkxw,2.0,response,66,2958.7999999999884,3773.5,3790.200000000012,2958.7999999999884,3773.5,3790.200000000012,1.0,831.4000000000232,0.0,,Slider,Slider,4.0,object-56,temp_dist_trial,11.0,s_s_16_1,student_stem,toolbox,5.0,unique,paired,s_s_16_1.jpg,Student,,,sub-66
Desktop or Laptop,Windows 10,Chrome 135.0.0.0,1366x768,1366x768,Temporal Distance Task,cb_05,12.0,temp_dist_trial,num_items,zn7si1,1.0,response,1_ITEM,2224.2999999999884,2210.7999999999884,2224.2999999999884,2224.2999999999884,2210.7999999999884,2224.2999999999884,1.0,0.0,0.0,,Click Response,1_count,3.0,object-46,temp_dist_trial,12.0,s_sh_24_1,student_shared,desk organizer,5.0,competing,single,s_sh_24_1.jpg,Student,,,sub-66
Desktop or Laptop,Windows 10,Chrome 135.0.0.0,1366x768,1366x768,Temporal Distance Task,cb_05,13.0,temp_dist_trial,num_items,zn7si1,1.0,response,2_ITEM,1908.1000000000056,1895.0,1908.1000000000056,1908.1000000000056,1895.0,1908.1000000000056,1.0,0.0,0.0,,Click Response,2_count,5.0,object-49,temp_dist_trial,13.0,s_a_15_1,student_art,drum kit,5.0,unique,paired,s_a_15_1.jpg,Student,,,sub-66
Desktop or Laptop,Windows 10,Chrome 135.0.0.0,1366x768,1366x768,Temporal Distance Task,cb_05,13.0,temp_dist_trial,dist_items,qkpkxw,2.0,info,,16.5,0.0,16.5,16.5,0.0,16.5,1.0,0.0,0.0,,Slider,Slider,4.0,object-56,temp_dist_trial,13.0,s_a_15_1,student_art,drum kit,5.0,unique,paired,s_a_15_1.jpg,Student,,,sub-66
Desktop or Laptop,Windows 10,Chrome 135.0.0.0,1366x768,1366x768,Temporal Distance Task,cb_05,13.0,temp_dist_trial,dist_items,qkpkxw,2.0,continue,,2570.6000000000063,2559.8999999999937,2570.6000000000063,2570.6000000000063,2559.8999999999937,2570.6000000000063,1.0,0.0,0.0,,Click To Continue,Next button,7.0,object-60,temp_dist_trial,13.0,s_a_15_1,student_art,drum kit,5.0,unique,paired,s_a_15_1.jpg,Student,,,sub-66
Desktop or Laptop,Windows 10,Chrome 135.0.0.0,1366x768,1366x768,Temporal Distance Task,cb_05,13.0,temp_dist_trial,dist_items,qkpkxw,2.0,response,59,1612.3999999999942,2559.8999999999937,2571.2999999284802,1612.3999999999942,2559.8999999999937,2571.2999999284802,1.0,958.8999999284861,0.0,,Slider,Slider,4.0,object-56,temp_dist_trial,13.0,s_a_15_1,student_art,drum kit,5.0,unique,paired,s_a_15_1.jpg,Student,,,sub-66
Desktop or Laptop,Windows 10,Chrome 135.0.0.0,1366x768,1366x768,Temporal Distance Task,cb_05,14.0,temp_dist_trial,num_items,zn7si1,1.0,response,2_ITEM,2269.999999952328,2260.9000000000233,2269.999999952328,2269.999999952328,2260.9000000000233,2269.999999952328,1.0,0.0,0.0,,Click Response,2_count,5.0,object-49,temp_dist_trial,14.0,s_a_06_1,student_art,pastels,5.0,unique,paired,s_a_06_1.jpg,Student,,,sub-66
Desktop or Laptop,Windows 10,Chrome 135.0.0.0,1366x768,1366x768,Temporal Distance Task,cb_05,14.0,temp_dist_trial,dist_items,qkpkxw,2.0,info,,15.0,0.0,15.0,15.0,0.0,15.0,1.0,0.0,0.0,,Slider,Slider,4.0,object-56,temp_dist_trial,14.0,s_a_06_1,student_art,pastels,5.0,unique,paired,s_a_06_1.jpg,Student,,,sub-66
Desktop or Laptop,Windows 10,Chrome 135.0.0.0,1366x768,1366x768,Temporal Distance Task,cb_05,14.0,temp_dist_trial,dist_items,qkpkxw,2.0,continue,,2398.599999904633,2393.7999999999884,2398.599999904633,2398.599999904633,2393.7999999999884,2398.599999904633,1.0,0.0,0.0,,Click To Continue,Next button,7.0,object-60,temp_dist_trial,14.0,s_a_06_1,student_art,pastels,5.0,unique,paired,s_a_06_1.jpg,Student,,,sub-66
Desktop or Laptop,Windows 10,Chrome 135.0.0.0,1366x768,1366x768,Temporal Distance Task,cb_05,14.0,temp_dist_trial,dist_items,qkpkxw,2.0,response,43,1363.1000000000058,2393.7999999999884,2399.899999976158,1363.1000000000058,2393.7999999999884,2399.899999976158,1.0,1036.7999999761523,0.0,,Slider,Slider,4.0,object-56,temp_dist_trial,14.0,s_a_06_1,student_art,pastels,5.0,unique,paired,s_a_06_1.jpg,Student,,,sub-66
Desktop or Laptop,Windows 10,Chrome 135.0.0.0,1366x768,1366x768,Temporal Distance Task,cb_05,15.0,temp_dist_trial,num_items,zn7si1,1.0,response,2_ITEM,1379.6999999999825,1363.0,1379.6999999999825,1379.6999999999825,1363.0,1379.6999999999825,1.0,0.0,0.0,,Click Response,2_count,5.0,object-49,temp_dist_trial,15.0,s_sh_20_1,student_shared,tape,5.0,competing,paired,s_sh_20_1.jpg,Student,,,sub-66
Desktop or Laptop,Windows 10,Chrome 135.0.0.0,1366x768,1366x768,Temporal Distance Task,cb_05,15.0,temp_dist_trial,dist_items,qkpkxw,2.0,info,,12.1999999761465,0.0,12.1999999761465,12.1999999761465,0.0,12.1999999761465,1.0,0.0,0.0,,Slider,Slider,4.0,object-56,temp_dist_trial,15.0,s_sh_20_1,student_shared,tape,5.0,competing,paired,s_sh_20_1.jpg,Student,,,sub-66
Desktop or Laptop,Windows 10,Chrome 135.0.0.0,1366x768,1366x768,Temporal Distance Task,cb_05,15.0,temp_dist_trial,dist_items,qkpkxw,2.0,continue,,3751.899999904621,3740.0999999999767,3751.899999904621,3751.899999904621,3740.0999999999767,3751.899999904621,1.0,0.0,0.0,,Click To Continue,Next button,7.0,object-60,temp_dist_trial,15.0,s_sh_20_1,student_shared,tape,5.0,competing,paired,s_sh_20_1.jpg,Student,,,sub-66
Desktop or Laptop,Windows 10,Chrome 135.0.0.0,1366x768,1366x768,Temporal Distance Task,cb_05,15.0,temp_dist_trial,dist_items,qkpkxw,2.0,response,44,2227.3999999999937,3740.0999999999767,3752.699999976146,2227.3999999999937,3740.0999999999767,3752.699999976146,1.0,1525.2999999761525,0.0,,Slider,Slider,4.0,object-56,temp_dist_trial,15.0,s_sh_20_1,student_shared,tape,5.0,competing,paired,s_sh_20_1.jpg,Student,,,sub-66
Desktop or Laptop,Windows 10,Chrome 135.0.0.0,1366x768,1366x768,Temporal Distance Task,cb_05,16.0,temp_dist_trial,num_items,zn7si1,1.0,response,2_ITEM,1691.5999999761698,1678.8000000000175,1691.5999999761698,1691.5999999761698,1678.8000000000175,1691.5999999761698,1.0,0.0,0.0,,Click Response,2_count,5.0,object-49,temp_dist_trial,16.0,s_a_03_1,student_art,palette,5.0,unique,paired,s_a_03_1.jpg,Student,,,sub-66
Desktop or Laptop,Windows 10,Chrome 135.0.0.0,1366x768,1366x768,Temporal Distance Task,cb_05,16.0,temp_dist_trial,dist_items,qkpkxw,2.0,info,,16.599999999976713,0.0,16.599999999976713,16.599999999976713,0.0,16.599999999976713,1.0,0.0,0.0,,Slider,Slider,4.0,object-56,temp_dist_trial,16.0,s_a_03_1,student_art,palette,5.0,unique,paired,s_a_03_1.jpg,Student,,,sub-66
Desktop or Laptop,Windows 10,Chrome 135.0.0.0,1366x768,1366x768,Temporal Distance Task,cb_05,16.0,temp_dist_trial,dist_items,qkpkxw,2.0,continue,,6482.900000000023,6466.300000000018,6482.900000000023,6482.900000000023,6466.300000000018,6482.900000000023,1.0,0.0,0.0,,Click To Continue,Next button,7.0,object-60,temp_dist_trial,16.0,s_a_03_1,student_art,palette,5.0,unique,paired,s_a_03_1.jpg,Student,,,sub-66
Desktop or Laptop,Windows 10,Chrome 135.0.0.0,1366x768,1366x768,Temporal Distance Task,cb_05,16.0,temp_dist_trial,dist_items,qkpkxw,2.0,response,44,3989.6000000000067,6466.300000000018,6482.900000000023,3989.6000000000067,6466.300000000018,6482.900000000023,1.0,2493.300000000017,0.0,,Slider,Slider,4.0,object-56,temp_dist_trial,16.0,s_a_03_1,student_art,palette,5.0,unique,paired,s_a_03_1.jpg,Student,,,sub-66
Desktop or Laptop,Windows 10,Chrome 135.0.0.0,1366x768,1366x768,Temporal Distance Task,cb_05,17.0,temp_dist_trial,num_items,zn7si1,1.0,response,2_ITEM,1433.3999999999942,1429.3999999999942,1433.3999999999942,1433.3999999999942,1429.3999999999942,1433.3999999999942,1.0,0.0,0.0,,Click Response,2_count,5.0,object-49,temp_dist_trial,17.0,s_sh_16_1,student_shared,stapler,5.0,competing,paired,s_sh_16_1.jpg,Student,,,sub-66
Desktop or Laptop,Windows 10,Chrome 135.0.0.0,1366x768,1366x768,Temporal Distance Task,cb_05,17.0,temp_dist_trial,dist_items,qkpkxw,2.0,info,,9.499999976163963,0.0,9.499999976163963,9.499999976163963,0.0,9.499999976163963,1.0,0.0,0.0,,Slider,Slider,4.0,object-56,temp_dist_trial,17.0,s_sh_16_1,student_shared,stapler,5.0,competing,paired,s_sh_16_1.jpg,Student,,,sub-66
Desktop or Laptop,Windows 10,Chrome 135.0.0.0,1366x768,1366x768,Temporal Distance Task,cb_05,17.0,temp_dist_trial,dist_items,qkpkxw,2.0,continue,,4450.600000000006,4438.399999999994,4450.600000000006,4450.600000000006,4438.399999999994,4450.600000000006,1.0,0.0,0.0,,Click To Continue,Next button,7.0,object-60,temp_dist_trial,17.0,s_sh_16_1,student_shared,stapler,5.0,competing,paired,s_sh_16_1.jpg,Student,,,sub-66
Desktop or Laptop,Windows 10,Chrome 135.0.0.0,1366x768,1366x768,Temporal Distance Task,cb_05,17.0,temp_dist_trial,dist_items,qkpkxw,2.0,response,55,1413.0,4438.399999999994,4451.699999904638,1413.0,4438.399999999994,4451.699999904638,1.0,3038.6999999046393,0.0,,Slider,Slider,4.0,object-56,temp_dist_trial,17.0,s_sh_16_1,student_shared,stapler,5.0,competing,paired,s_sh_16_1.jpg,Student,,,sub-66
Desktop or Laptop,Windows 10,Chrome 135.0.0.0,1366x768,1366x768,Temporal Distance Task,cb_05,18.0,temp_dist_trial,num_items,zn7si1,1.0,response,num_miss,2992.1000000000067,2992.1000000000067,2992.1000000000067,2992.1000000000067,2992.1000000000067,2992.1000000000067,1.0,0.0,0.0,num_miss_tag,Time Limit,screen,0.0,screen,temp_dist_trial,18.0,s_sh_14_1,student_shared,printer,5.0,competing,single,s_sh_14_1.jpg,Student,,,sub-66
Desktop or Laptop,Windows 10,Chrome 135.0.0.0,1366x768,1366x768,Temporal Distance Task,cb_05,19.0,temp_dist_trial,num_items,zn7si1,1.0,response,2_ITEM,922.7999999761523,914.2999999999884,922.7999999761523,922.7999999761523,914.2999999999884,922.7999999761523,1.0,0.0,0.0,,Click Response,2_count,5.0,object-49,temp_dist_trial,19.0,s_sh_19_1,student_shared,portable plastic drawer,5.0,competing,paired,s_sh_19_1.jpg,Student,,,sub-66
Desktop or Laptop,Windows 10,Chrome 135.0.0.0,1366x768,1366x768,Temporal Distance Task,cb_05,19.0,temp_dist_trial,dist_items,qkpkxw,2.0,info,,5.399999999994179,0.0,5.399999999994179,5.399999999994179,0.0,5.399999999994179,1.0,0.0,0.0,,Slider,Slider,4.0,object-56,temp_dist_trial,19.0,s_sh_19_1,student_shared,portable plastic drawer,5.0,competing,paired,s_sh_19_1.jpg,Student,,,sub-66
Desktop or Laptop,Windows 10,Chrome 135.0.0.0,1366x768,1366x768,Temporal Distance Task,cb_05,19.0,temp_dist_trial,dist_items,qkpkxw,2.0,continue,,3519.599999928469,3507.5,3519.599999928469,3519.599999928469,3507.5,3519.599999928469,1.0,0.0,0.0,,Click To Continue,Next button,7.0,object-60,temp_dist_trial,19.0,s_sh_19_1,student_shared,portable plastic drawer,5.0,competing,paired,s_sh_19_1.jpg,Student,,,sub-66
Desktop or Laptop,Windows 10,Chrome 135.0.0.0,1366x768,1366x768,Temporal Distance Task,cb_05,19.0,temp_dist_trial,dist_items,qkpkxw,2.0,response,61,1828.3999999999944,3507.5,3520.3999999999933,1828.3999999999944,3507.5,3520.3999999999933,1.0,1692.0,0.0,,Slider,Slider,4.0,object-56,temp_dist_trial,19.0,s_sh_19_1,student_shared,portable plastic drawer,5.0,competing,paired,s_sh_19_1.jpg,Student,,,sub-66
Desktop or Laptop,Windows 10,Chrome 135.0.0.0,1366x768,1366x768,Temporal Distance Task,cb_05,20.0,temp_dist_trial,num_items,zn7si1,1.0,response,1_ITEM,2220.3999999999937,2210.7999999999884,2220.3999999999937,2220.3999999999937,2210.7999999999884,2220.3999999999937,1.0,0.0,0.0,,Click Response,1_count,3.0,object-46,temp_dist_trial,20.0,s_s_04_1,student_stem,bunsen burner,5.0,unique,single,s_s_04_1.jpg,Student,,,sub-66
Desktop or Laptop,Windows 10,Chrome 135.0.0.0,1366x768,1366x768,Temporal Distance Task,cb_05,21.0,temp_dist_trial,num_items,zn7si1,1.0,response,1_ITEM,1295.9999999284628,1280.0,1295.9999999284628,1295.9999999284628,1280.0,1295.9999999284628,1.0,0.0,0.0,,Click Response,1_count,3.0,object-46,temp_dist_trial,21.0,s_s_14_1,student_stem,funnel,5.0,unique,paired,s_s_14_1.jpg,Student,,,sub-66
Desktop or Laptop,Windows 10,Chrome 135.0.0.0,1366x768,1366x768,Temporal Distance Task,cb_05,22.0,temp_dist_trial,num_items,zn7si1,1.0,response,2_ITEM,2863.199999928475,2859.0,2863.199999928475,2863.199999928475,2859.0,2863.199999928475,1.0,0.0,0.0,,Click Response,2_count,5.0,object-49,temp_dist_trial,22.0,s_sh_15_1,student_shared,usb drive,5.0,competing,single,s_sh_15_1.jpg,Student,,,sub-66
Desktop or Laptop,Windows 10,Chrome 135.0.0.0,1366x768,1366x768,Temporal Distance Task,cb_05,22.0,temp_dist_trial,dist_items,qkpkxw,2.0,info,,11.499999976163965,0.0,11.499999976163965,11.499999976163965,0.0,11.499999976163965,1.0,0.0,0.0,,Slider,Slider,4.0,object-56,temp_dist_trial,22.0,s_sh_15_1,student_shared,usb drive,5.0,competing,single,s_sh_15_1.jpg,Student,,,sub-66
Desktop or Laptop,Windows 10,Chrome 135.0.0.0,1366x768,1366x768,Temporal Distance Task,cb_05,22.0,temp_dist_trial,dist_items,qkpkxw,2.0,continue,,2618.6999999046384,2609.800000000017,2618.6999999046384,2618.6999999046384,2609.800000000017,2618.6999999046384,1.0,0.0,0.0,,Click To Continue,Next button,7.0,object-60,temp_dist_trial,22.0,s_sh_15_1,student_shared,usb drive,5.0,competing,single,s_sh_15_1.jpg,Student,,,sub-66
Desktop or Laptop,Windows 10,Chrome 135.0.0.0,1366x768,1366x768,Temporal Distance Task,cb_05,22.0,temp_dist_trial,dist_items,qkpkxw,2.0,response,56,1446.3000000000175,2609.800000000017,2619.6000000000063,1446.3000000000175,2609.800000000017,2619.6000000000063,1.0,1173.2999999999886,0.0,,Slider,Slider,4.0,object-56,temp_dist_trial,22.0,s_sh_15_1,student_shared,usb drive,5.0,competing,single,s_sh_15_1.jpg,Student,,,sub-66
Desktop or Laptop,Windows 10,Chrome 135.0.0.0,1366x768,1366x768,Temporal Distance Task,cb_05,23.0,temp_dist_trial,num_items,zn7si1,1.0,response,2_ITEM,1424.399999904621,1412.8999999999942,1424.399999904621,1424.399999904621,1412.8999999999942,1424.399999904621,1.0,0.0,0.0,,Click Response,2_count,5.0,object-49,temp_dist_trial,23.0,s_sh_10_1,student_shared,scissors,5.0,competing,single,s_sh_10_1.jpg,Student,,,sub-66
Desktop or Laptop,Windows 10,Chrome 135.0.0.0,1366x768,1366x768,Temporal Distance Task,cb_05,23.0,temp_dist_trial,dist_items,qkpkxw,2.0,info,,12.399999928486068,0.0,12.399999928486068,12.399999928486068,0.0,12.399999928486068,1.0,0.0,0.0,,Slider,Slider,4.0,object-56,temp_dist_trial,23.0,s_sh_10_1,student_shared,scissors,5.0,competing,single,s_sh_10_1.jpg,Student,,,sub-66
Desktop or Laptop,Windows 10,Chrome 135.0.0.0,1366x768,1366x768,Temporal Distance Task,cb_05,23.0,temp_dist_trial,dist_items,qkpkxw,2.0,continue,,2762.5999999761707,2759.4000000000237,2762.5999999761707,2762.5999999761707,2759.4000000000237,2762.5999999761707,1.0,0.0,0.0,,Click To Continue,Next button,7.0,object-60,temp_dist_trial,23.0,s_sh_10_1,student_shared,scissors,5.0,competing,single,s_sh_10_1.jpg,Student,,,sub-66
Desktop or Laptop,Windows 10,Chrome 135.0.0.0,1366x768,1366x768,Temporal Distance Task,cb_05,23.0,temp_dist_trial,dist_items,qkpkxw,2.0,response,57,1828.7000000000119,2759.4000000000237,2764.0999999761707,1828.7000000000119,2759.4000000000237,2764.0999999761707,1.0,935.399999976158,0.0,,Slider,Slider,4.0,object-56,temp_dist_trial,23.0,s_sh_10_1,student_shared,scissors,5.0,competing,single,s_sh_10_1.jpg,Student,,,sub-66
Desktop or Laptop,Windows 10,Chrome 135.0.0.0,1366x768,1366x768,Temporal Distance Task,cb_05,24.0,temp_dist_trial,num_items,zn7si1,1.0,response,1_ITEM,2498.899999904621,2493.5,2498.899999904621,2498.899999904621,2493.5,2498.899999904621,1.0,0.0,0.0,,Click Response,1_count,3.0,object-46,temp_dist_trial,24.0,s_s_12_1,student_stem,robotic arm,5.0,unique,single,s_s_12_1.jpg,Student,,,sub-66
Desktop or Laptop,Windows 10,Chrome 135.0.0.0,1366x768,1366x768,Temporal Distance Task,cb_05,25.0,temp_dist_trial,num_items,zn7si1,1.0,response,2_ITEM,1459.6999999284744,1446.2000000000116,1459.6999999284744,1459.6999999284744,1446.2000000000116,1459.6999999284744,1.0,0.0,0.0,,Click Response,2_count,5.0,object-49,temp_dist_trial,25.0,s_sh_23_1,student_shared,ballpoint pen,5.0,competing,paired,s_sh_23_1.jpg,Student,,,sub-66
Desktop or Laptop,Windows 10,Chrome 135.0.0.0,1366x768,1366x768,Temporal Distance Task,cb_05,25.0,temp_dist_trial,dist_items,qkpkxw,2.0,info,,6.399999999994179,0.0,6.399999999994179,6.399999999994179,0.0,6.399999999994179,1.0,0.0,0.0,,Slider,Slider,4.0,object-56,temp_dist_trial,25.0,s_sh_23_1,student_shared,ballpoint pen,5.0,competing,paired,s_sh_23_1.jpg,Student,,,sub-66
Desktop or Laptop,Windows 10,Chrome 135.0.0.0,1366x768,1366x768,Temporal Distance Task,cb_05,25.0,temp_dist_trial,dist_items,qkpkxw,2.0,continue,,3244.699999952311,3241.2999999999884,3244.699999952311,3244.699999952311,3241.2999999999884,3244.699999952311,1.0,0.0,0.0,,Click To Continue,Next button,7.0,object-60,temp_dist_trial,25.0,s_sh_23_1,student_shared,ballpoint pen,5.0,competing,paired,s_sh_23_1.jpg,Student,,,sub-66
Desktop or Laptop,Windows 10,Chrome 135.0.0.0,1366x768,1366x768,Temporal Distance Task,cb_05,25.0,temp_dist_trial,dist_items,qkpkxw,2.0,response,44,1645.6000000000058,3241.2999999999884,3245.599999928469,1645.6000000000058,3241.2999999999884,3245.599999928469,1.0,1599.9999999284628,0.0,,Slider,Slider,4.0,object-56,temp_dist_trial,25.0,s_sh_23_1,student_shared,ballpoint pen,5.0,competing,paired,s_sh_23_1.jpg,Student,,,sub-66
Desktop or Laptop,Windows 10,Chrome 135.0.0.0,1366x768,1366x768,Temporal Distance Task,cb_05,26.0,temp_dist_trial,num_items,zn7si1,1.0,response,2_ITEM,1267.7999999284802,1263.3999999999942,1267.7999999284802,1267.7999999284802,1263.3999999999942,1267.7999999284802,1.0,0.0,0.0,,Click Response,2_count,5.0,object-49,temp_dist_trial,26.0,s_sh_06_1,student_shared,clipboard,5.0,competing,single,s_sh_06_1.jpg,Student,,,sub-66
Desktop or Laptop,Windows 10,Chrome 135.0.0.0,1366x768,1366x768,Temporal Distance Task,cb_05,26.0,temp_dist_trial,dist_items,qkpkxw,2.0,info,,12.599999904632568,0.0,12.599999904632568,12.599999904632568,0.0,12.599999904632568,1.0,0.0,0.0,,Slider,Slider,4.0,object-56,temp_dist_trial,26.0,s_sh_06_1,student_shared,clipboard,5.0,competing,single,s_sh_06_1.jpg,Student,,,sub-66
Desktop or Laptop,Windows 10,Chrome 135.0.0.0,1366x768,1366x768,Temporal Distance Task,cb_05,26.0,temp_dist_trial,dist_items,qkpkxw,2.0,continue,,2738.899999976158,2726.2999999999884,2738.899999976158,2738.899999976158,2726.2999999999884,2738.899999976158,1.0,0.0,0.0,,Click To Continue,Next button,7.0,object-60,temp_dist_trial,26.0,s_sh_06_1,student_shared,clipboard,5.0,competing,single,s_sh_06_1.jpg,Student,,,sub-66
Desktop or Laptop,Windows 10,Chrome 135.0.0.0,1366x768,1366x768,Temporal Distance Task,cb_05,26.0,temp_dist_trial,dist_items,qkpkxw,2.0,response,65,997.2999999999884,2726.2999999999884,2740.599999904633,997.2999999999884,2726.2999999999884,2740.599999904633,1.0,1743.2999999046442,0.0,,Slider,Slider,4.0,object-56,temp_dist_trial,26.0,s_sh_06_1,student_shared,clipboard,5.0,competing,single,s_sh_06_1.jpg,Student,,,sub-66
Desktop or Laptop,Windows 10,Chrome 135.0.0.0,1366x768,1366x768,Temporal Distance Task,cb_05,27.0,temp_dist_trial,num_items,zn7si1,1.0,response,1_ITEM,2947.999999952328,2942.200000000012,2947.999999952328,2947.999999952328,2942.200000000012,2947.999999952328,1.0,0.0,0.0,,Click Response,1_count,3.0,object-46,temp_dist_trial,27.0,s_s_18_1,student_stem,brain model,5.0,unique,single,s_s_18_1.jpg,Student,,,sub-66
Desktop or Laptop,Windows 10,Chrome 135.0.0.0,1366x768,1366x768,Temporal Distance Task,cb_05,28.0,temp_dist_trial,num_items,zn7si1,1.0,response,2_ITEM,2757.4999999284632,2742.8999999999937,2757.4999999284632,2757.4999999284632,2742.8999999999937,2757.4999999284632,1.0,0.0,0.0,,Click Response,2_count,5.0,object-49,temp_dist_trial,28.0,s_sh_08_1,student_shared,post-its,5.0,competing,paired,s_sh_08_1.jpg,Student,,,sub-66
Desktop or Laptop,Windows 10,Chrome 135.0.0.0,1366x768,1366x768,Temporal Distance Task,cb_05,28.0,temp_dist_trial,dist_items,qkpkxw,2.0,info,,11.699999904638393,0.0,11.699999904638393,11.699999904638393,0.0,11.699999904638393,1.0,0.0,0.0,,Slider,Slider,4.0,object-56,temp_dist_trial,28.0,s_sh_08_1,student_shared,post-its,5.0,competing,paired,s_sh_08_1.jpg,Student,,,sub-66
Desktop or Laptop,Windows 10,Chrome 135.0.0.0,1366x768,1366x768,Temporal Distance Task,cb_05,28.0,temp_dist_trial,dist_items,qkpkxw,2.0,continue,,5452.200000000013,5435.600000000006,5452.200000000013,5452.200000000013,5435.600000000006,5452.200000000013,1.0,0.0,0.0,,Click To Continue,Next button,7.0,object-60,temp_dist_trial,28.0,s_sh_08_1,student_shared,post-its,5.0,competing,paired,s_sh_08_1.jpg,Student,,,sub-66
Desktop or Laptop,Windows 10,Chrome 135.0.0.0,1366x768,1366x768,Temporal Distance Task,cb_05,28.0,temp_dist_trial,dist_items,qkpkxw,2.0,response,46,3208.1000000000067,5435.600000000006,5452.200000000013,3208.1000000000067,5435.600000000006,5452.200000000013,1.0,2244.1000000000063,0.0,,Slider,Slider,4.0,object-56,temp_dist_trial,28.0,s_sh_08_1,student_shared,post-its,5.0,competing,paired,s_sh_08_1.jpg,Student,,,sub-66
Desktop or Laptop,Windows 10,Chrome 135.0.0.0,1366x768,1366x768,Temporal Distance Task,cb_05,29.0,temp_dist_trial,num_items,zn7si1,1.0,response,1_ITEM,2465.2999999523167,2460.200000000012,2465.2999999523167,2465.2999999523167,2460.200000000012,2465.2999999523167,1.0,0.0,0.0,,Click Response,1_count,3.0,object-46,temp_dist_trial,29.0,s_a_20_1,student_art,pin cushion,5.0,unique,single,s_a_20_1.jpg,Student,,,sub-66
Desktop or Laptop,Windows 10,Chrome 135.0.0.0,1366x768,1366x768,Temporal Distance Task,cb_05,30.0,temp_dist_trial,num_items,zn7si1,1.0,response,num_miss,2992.0,2992.0,2992.0,2992.0,2992.0,2992.0,1.0,0.0,0.0,num_miss_tag,Time Limit,screen,0.0,screen,temp_dist_trial,30.0,s_s_13_1,student_stem,telescope,5.0,unique,paired,s_s_13_1.jpg,Student,,,sub-66
Desktop or Laptop,Windows 10,Chrome 135.0.0.0,1366x768,1366x768,Temporal Distance Task,cb_05,31.0,temp_dist_trial,num_items,zn7si1,1.0,response,1_ITEM,684.2999999761523,681.5,684.2999999761523,684.2999999761523,681.5,684.2999999761523,1.0,0.0,0.0,,Click Response,1_count,3.0,object-46,temp_dist_trial,31.0,s_sh_13_1,student_shared,index cards,5.0,competing,single,s_sh_13_1.jpg,Student,,,sub-66
Desktop or Laptop,Windows 10,Chrome 135.0.0.0,1366x768,1366x768,Temporal Distance Task,cb_05,32.0,temp_dist_trial,num_items,zn7si1,1.0,response,2_ITEM,1664.5999999046326,1662.2999999999884,1664.5999999046326,1664.5999999046326,1662.2999999999884,1664.5999999046326,1.0,0.0,0.0,,Click Response,2_count,5.0,object-49,temp_dist_trial,32.0,s_sh_05_1,student_shared,laptop,5.0,competing,paired,s_sh_05_1.jpg,Student,,,sub-66
Desktop or Laptop,Windows 10,Chrome 135.0.0.0,1366x768,1366x768,Temporal Distance Task,cb_05,32.0,temp_dist_trial,dist_items,qkpkxw,2.0,info,,6.299999976152321,0.0,6.299999976152321,6.299999976152321,0.0,6.299999976152321,1.0,0.0,0.0,,Slider,Slider,4.0,object-56,temp_dist_trial,32.0,s_sh_05_1,student_shared,laptop,5.0,competing,paired,s_sh_05_1.jpg,Student,,,sub-66
Desktop or Laptop,Windows 10,Chrome 135.0.0.0,1366x768,1366x768,Temporal Distance Task,cb_05,32.0,temp_dist_trial,dist_items,qkpkxw,2.0,continue,,4610.0999999284695,4604.600000000006,4610.0999999284695,4610.0999999284695,4604.600000000006,4610.0999999284695,1.0,0.0,0.0,,Click To Continue,Next button,7.0,object-60,temp_dist_trial,32.0,s_sh_05_1,student_shared,laptop,5.0,competing,paired,s_sh_05_1.jpg,Student,,,sub-66
Desktop or Laptop,Windows 10,Chrome 135.0.0.0,1366x768,1366x768,Temporal Distance Task,cb_05,32.0,temp_dist_trial,dist_items,qkpkxw,2.0,response,58,3291.5,4604.600000000006,4616.799999976151,3291.5,4604.600000000006,4616.799999976151,1.0,1325.2999999761525,0.0,,Slider,Slider,4.0,object-56,temp_dist_trial,32.0,s_sh_05_1,student_shared,laptop,5.0,competing,paired,s_sh_05_1.jpg,Student,,,sub-66
Desktop or Laptop,Windows 10,Chrome 135.0.0.0,1366x768,1366x768,Temporal Distance Task,cb_05,33.0,temp_dist_trial,num_items,zn7si1,1.0,response,2_ITEM,2187.6999999761465,2177.700000000012,2187.6999999761465,2187.6999999761465,2177.700000000012,2187.6999999761465,1.0,0.0,0.0,,Click Response,2_count,5.0,object-49,temp_dist_trial,33.0,s_sh_21_1,student_shared,file holder,5.0,competing,paired,s_sh_21_1.jpg,Student,,,sub-66
Desktop or Laptop,Windows 10,Chrome 135.0.0.0,1366x768,1366x768,Temporal Distance Task,cb_05,33.0,temp_dist_trial,dist_items,qkpkxw,2.0,info,,10.399999976158142,0.0,10.399999976158142,10.399999976158142,0.0,10.399999976158142,1.0,0.0,0.0,,Slider,Slider,4.0,object-56,temp_dist_trial,33.0,s_sh_21_1,student_shared,file holder,5.0,competing,paired,s_sh_21_1.jpg,Student,,,sub-66
Desktop or Laptop,Windows 10,Chrome 135.0.0.0,1366x768,1366x768,Temporal Distance Task,cb_05,33.0,temp_dist_trial,dist_items,qkpkxw,2.0,continue,,3531.199999928475,3524.200000000012,3531.199999928475,3531.199999928475,3524.200000000012,3531.199999928475,1.0,0.0,0.0,,Click To Continue,Next button,7.0,object-60,temp_dist_trial,33.0,s_sh_21_1,student_shared,file holder,5.0,competing,paired,s_sh_21_1.jpg,Student,,,sub-66
Desktop or Laptop,Windows 10,Chrome 135.0.0.0,1366x768,1366x768,Temporal Distance Task,cb_05,33.0,temp_dist_trial,dist_items,qkpkxw,2.0,response,44,2460.2999999999884,3524.200000000012,3532.099999904633,2460.2999999999884,3524.200000000012,3532.099999904633,1.0,1071.7999999046442,0.0,,Slider,Slider,4.0,object-56,temp_dist_trial,33.0,s_sh_21_1,student_shared,file holder,5.0,competing,paired,s_sh_21_1.jpg,Student,,,sub-66
Desktop or Laptop,Windows 10,Chrome 135.0.0.0,1366x768,1366x768,Temporal Distance Task,cb_05,34.0,temp_dist_trial,num_items,zn7si1,1.0,response,2_ITEM,1460.899999904621,1446.2000000000116,1460.899999904621,1460.899999904621,1446.2000000000116,1460.899999904621,1.0,0.0,0.0,,Click Response,2_count,5.0,object-49,temp_dist_trial,34.0,s_sh_03_1,student_shared,highlighter,5.0,competing,paired,s_sh_03_1.jpg,Student,,,sub-66
Desktop or Laptop,Windows 10,Chrome 135.0.0.0,1366x768,1366x768,Temporal Distance Task,cb_05,34.0,temp_dist_trial,dist_items,qkpkxw,2.0,info,,10.999999928462785,0.0,10.999999928462785,10.999999928462785,0.0,10.999999928462785,1.0,0.0,0.0,,Slider,Slider,4.0,object-56,temp_dist_trial,34.0,s_sh_03_1,student_shared,highlighter,5.0,competing,paired,s_sh_03_1.jpg,Student,,,sub-66
Desktop or Laptop,Windows 10,Chrome 135.0.0.0,1366x768,1366x768,Temporal Distance Task,cb_05,34.0,temp_dist_trial,dist_items,qkpkxw,2.0,continue,,3333.399999904621,3324.5,3333.399999904621,3333.399999904621,3324.5,3333.399999904621,1.0,0.0,0.0,,Click To Continue,Next button,7.0,object-60,temp_dist_trial,34.0,s_sh_03_1,student_shared,highlighter,5.0,competing,paired,s_sh_03_1.jpg,Student,,,sub-66
Desktop or Laptop,Windows 10,Chrome 135.0.0.0,1366x768,1366x768,Temporal Distance Task,cb_05,34.0,temp_dist_trial,dist_items,qkpkxw,2.0,response,43,1961.5999999999767,3324.5,3341.100000000035,1961.5999999999767,3324.5,3341.100000000035,1.0,1379.5000000000582,0.0,,Slider,Slider,4.0,object-56,temp_dist_trial,34.0,s_sh_03_1,student_shared,highlighter,5.0,competing,paired,s_sh_03_1.jpg,Student,,,sub-66
Desktop or Laptop,Windows 10,Chrome 135.0.0.0,1366x768,1366x768,Temporal Distance Task,cb_05,35.0,temp_dist_trial,num_items,zn7si1,1.0,response,2_ITEM,1768.6999999761465,1762.0,1768.6999999761465,1768.6999999761465,1762.0,1768.6999999761465,1.0,0.0,0.0,,Click Response,2_count,5.0,object-49,temp_dist_trial,35.0,s_s_20_1,student_stem,dna model,5.0,unique,paired,s_s_20_1.jpg,Student,,,sub-66
Desktop or Laptop,Windows 10,Chrome 135.0.0.0,1366x768,1366x768,Temporal Distance Task,cb_05,35.0,temp_dist_trial,dist_items,qkpkxw,2.0,info,,9.799999952316282,0.0,9.799999952316282,9.799999952316282,0.0,9.799999952316282,1.0,0.0,0.0,,Slider,Slider,4.0,object-56,temp_dist_trial,35.0,s_s_20_1,student_stem,dna model,5.0,unique,paired,s_s_20_1.jpg,Student,,,sub-66
Desktop or Laptop,Windows 10,Chrome 135.0.0.0,1366x768,1366x768,Temporal Distance Task,cb_05,35.0,temp_dist_trial,dist_items,qkpkxw,2.0,continue,,3381.7999999523163,3374.5,3381.7999999523163,3381.7999999523163,3374.5,3381.7999999523163,1.0,0.0,0.0,,Click To Continue,Next button,7.0,object-60,temp_dist_trial,35.0,s_s_20_1,student_stem,dna model,5.0,unique,paired,s_s_20_1.jpg,Student,,,sub-66
Desktop or Laptop,Windows 10,Chrome 135.0.0.0,1366x768,1366x768,Temporal Distance Task,cb_05,35.0,temp_dist_trial,dist_items,qkpkxw,2.0,response,44,1579.2999999999884,3374.5,3382.7999999523163,1579.2999999999884,3374.5,3382.7999999523163,1.0,1803.499999952328,0.0,,Slider,Slider,4.0,object-56,temp_dist_trial,35.0,s_s_20_1,student_stem,dna model,5.0,unique,paired,s_s_20_1.jpg,Student,,,sub-66
Desktop or Laptop,Windows 10,Chrome 135.0.0.0,1366x768,1366x768,Temporal Distance Task,cb_05,36.0,temp_dist_trial,num_items,zn7si1,1.0,response,2_ITEM,1279.899999976158,1263.2000000000114,1279.899999976158,1279.899999976158,1263.2000000000114,1279.899999976158,1.0,0.0,0.0,,Click Response,2_count,5.0,object-49,temp_dist_trial,36.0,s_a_10_1,student_art,tripod,5.0,unique,single,s_a_10_1.jpg,Student,,,sub-66
Desktop or Laptop,Windows 10,Chrome 135.0.0.0,1366x768,1366x768,Temporal Distance Task,cb_05,36.0,temp_dist_trial,dist_items,qkpkxw,2.0,info,,4.999999904655851,0.0,4.999999904655851,4.999999904655851,0.0,4.999999904655851,1.0,0.0,0.0,,Slider,Slider,4.0,object-56,temp_dist_trial,36.0,s_a_10_1,student_art,tripod,5.0,unique,single,s_a_10_1.jpg,Student,,,sub-66
Desktop or Laptop,Windows 10,Chrome 135.0.0.0,1366x768,1366x768,Temporal Distance Task,cb_05,36.0,temp_dist_trial,dist_items,qkpkxw,2.0,continue,,3430.599999928497,3424.3000000000466,3430.599999928497,3430.599999928497,3424.3000000000466,3430.599999928497,1.0,0.0,0.0,,Click To Continue,Next button,7.0,object-60,temp_dist_trial,36.0,s_a_10_1,student_art,tripod,5.0,unique,single,s_a_10_1.jpg,Student,,,sub-66
Desktop or Laptop,Windows 10,Chrome 135.0.0.0,1366x768,1366x768,Temporal Distance Task,cb_05,36.0,temp_dist_trial,dist_items,qkpkxw,2.0,response,41,2194.3000000000466,3424.3000000000466,3439.499999904656,2194.3000000000466,3424.3000000000466,3439.499999904656,1.0,1245.1999999046093,0.0,,Slider,Slider,4.0,object-56,temp_dist_trial,36.0,s_a_10_1,student_art,tripod,5.0,unique,single,s_a_10_1.jpg,Student,,,sub-66
Desktop or Laptop,Windows 10,Chrome 135.0.0.0,1366x768,1366x768,Temporal Distance Task,cb_05,37.0,temp_dist_trial,num_items,zn7si1,1.0,response,2_ITEM,2117.999999976135,2111.0999999999767,2117.999999976135,2117.999999976135,2111.0999999999767,2117.999999976135,1.0,0.0,0.0,,Click Response,2_count,5.0,object-49,temp_dist_trial,37.0,s_a_09_1,student_art,picture frame,5.0,unique,paired,s_a_09_1.jpg,Student,,,sub-66
Desktop or Laptop,Windows 10,Chrome 135.0.0.0,1366x768,1366x768,Temporal Distance Task,cb_05,37.0,temp_dist_trial,dist_items,qkpkxw,2.0,info,,10.999999952327926,0.0,10.999999952327926,10.999999952327926,0.0,10.999999952327926,1.0,0.0,0.0,,Slider,Slider,4.0,object-56,temp_dist_trial,37.0,s_a_09_1,student_art,picture frame,5.0,unique,paired,s_a_09_1.jpg,Student,,,sub-66
Desktop or Laptop,Windows 10,Chrome 135.0.0.0,1366x768,1366x768,Temporal Distance Task,cb_05,37.0,temp_dist_trial,dist_items,qkpkxw,2.0,continue,,3324.500000000058,3307.9000000000237,3324.500000000058,3324.500000000058,3307.9000000000237,3324.500000000058,1.0,0.0,0.0,,Click To Continue,Next button,7.0,object-60,temp_dist_trial,37.0,s_a_09_1,student_art,picture frame,5.0,unique,paired,s_a_09_1.jpg,Student,,,sub-66
Desktop or Laptop,Windows 10,Chrome 135.0.0.0,1366x768,1366x768,Temporal Distance Task,cb_05,37.0,temp_dist_trial,dist_items,qkpkxw,2.0,response,57,2160.9000000000233,3307.9000000000237,3324.500000000058,2160.9000000000233,3307.9000000000237,3324.500000000058,1.0,1163.600000000035,0.0,,Slider,Slider,4.0,object-56,temp_dist_trial,37.0,s_a_09_1,student_art,picture frame,5.0,unique,paired,s_a_09_1.jpg,Student,,,sub-66
Desktop or Laptop,Windows 10,Chrome 135.0.0.0,1366x768,1366x768,Temporal Distance Task,cb_05,38.0,temp_dist_trial,num_items,zn7si1,1.0,response,1_ITEM,2762.099999952305,2759.200000000012,2762.099999952305,2762.099999952305,2759.200000000012,2762.099999952305,1.0,0.0,0.0,,Click Response,1_count,3.0,object-46,temp_dist_trial,38.0,s_a_11_1,student_art,clapperboard,5.0,unique,single,s_a_11_1.jpg,Student,,,sub-66
Desktop or Laptop,Windows 10,Chrome 135.0.0.0,1366x768,1366x768,Temporal Distance Task,cb_05,39.0,temp_dist_trial,num_items,zn7si1,1.0,response,1_ITEM,2233.0999999761702,2227.5,2233.0999999761702,2233.0999999761702,2227.5,2233.0999999761702,1.0,0.0,0.0,,Click Response,1_count,3.0,object-46,temp_dist_trial,39.0,s_sh_04_1,student_shared,laptop stand,5.0,competing,paired,s_sh_04_1.jpg,Student,,,sub-66
Desktop or Laptop,Windows 10,Chrome 135.0.0.0,1366x768,1366x768,Temporal Distance Task,cb_05,40.0,temp_dist_trial,num_items,zn7si1,1.0,response,2_ITEM,1556.6999999761465,1545.7999999999884,1556.6999999761465,1556.6999999761465,1545.7999999999884,1556.6999999761465,1.0,0.0,0.0,,Click Response,2_count,5.0,object-49,temp_dist_trial,40.0,s_sh_09_1,student_shared,paper clips,5.0,competing,paired,s_sh_09_1.jpg,Student,,,sub-66
Desktop or Laptop,Windows 10,Chrome 135.0.0.0,1366x768,1366x768,Temporal Distance Task,cb_05,40.0,temp_dist_trial,dist_items,qkpkxw,2.0,info,,6.7000000000116415,0.0,6.7000000000116415,6.7000000000116415,0.0,6.7000000000116415,1.0,0.0,0.0,,Slider,Slider,4.0,object-56,temp_dist_trial,40.0,s_sh_09_1,student_shared,paper clips,5.0,competing,paired,s_sh_09_1.jpg,Student,,,sub-66
Desktop or Laptop,Windows 10,Chrome 135.0.0.0,1366x768,1366x768,Temporal Distance Task,cb_05,40.0,temp_dist_trial,dist_items,qkpkxw,2.0,continue,,1977.7999999046438,1961.6000000000354,1977.7999999046438,1977.7999999046438,1961.6000000000354,1977.7999999046438,1.0,0.0,0.0,,Click To Continue,Next button,7.0,object-60,temp_dist_trial,40.0,s_sh_09_1,student_shared,paper clips,5.0,competing,paired,s_sh_09_1.jpg,Student,,,sub-66
Desktop or Laptop,Windows 10,Chrome 135.0.0.0,1366x768,1366x768,Temporal Distance Task,cb_05,40.0,temp_dist_trial,dist_items,qkpkxw,2.0,response,63,997.6000000000348,1961.6000000000354,1978.2000000000696,997.6000000000348,1961.6000000000354,1978.2000000000696,1.0,980.6000000000348,0.0,,Slider,Slider,4.0,object-56,temp_dist_trial,40.0,s_sh_09_1,student_shared,paper clips,5.0,competing,paired,s_sh_09_1.jpg,Student,,,sub-66
Desktop or Laptop,Windows 10,Chrome 135.0.0.0,1366x768,1366x768,Temporal Distance Task,cb_05,41.0,temp_dist_trial,num_items,zn7si1,1.0,response,2_ITEM,2199.499999976135,2194.1999999999534,2199.499999976135,2199.499999976135,2194.1999999999534,2199.499999976135,1.0,0.0,0.0,,Click Response,2_count,5.0,object-49,temp_dist_trial,41.0,s_sh_22_1,student_shared,hole puncher,5.0,competing,paired,s_sh_22_1.jpg,Student,,,sub-66
Desktop or Laptop,Windows 10,Chrome 135.0.0.0,1366x768,1366x768,Temporal Distance Task,cb_05,41.0,temp_dist_trial,dist_items,qkpkxw,2.0,info,,9.299999904644213,0.0,9.299999904644213,9.299999904644213,0.0,9.299999904644213,1.0,0.0,0.0,,Slider,Slider,4.0,object-56,temp_dist_trial,41.0,s_sh_22_1,student_shared,hole puncher,5.0,competing,paired,s_sh_22_1.jpg,Student,,,sub-66
Desktop or Laptop,Windows 10,Chrome 135.0.0.0,1366x768,1366x768,Temporal Distance Task,cb_05,41.0,temp_dist_trial,dist_items,qkpkxw,2.0,continue,,5507.999999952328,5502.2999999999865,5507.999999952328,5507.999999952328,5502.2999999999865,5507.999999952328,1.0,0.0,0.0,,Click To Continue,Next button,7.0,object-60,temp_dist_trial,41.0,s_sh_22_1,student_shared,hole puncher,5.0,competing,paired,s_sh_22_1.jpg,Student,,,sub-66
Desktop or Laptop,Windows 10,Chrome 135.0.0.0,1366x768,1366x768,Temporal Distance Task,cb_05,41.0,temp_dist_trial,dist_items,qkpkxw,2.0,response,40,4338.799999999987,5502.2999999999865,5515.599999976171,4338.799999999987,5502.2999999999865,5515.599999976171,1.0,1176.7999999761814,0.0,,Slider,Slider,4.0,object-56,temp_dist_trial,41.0,s_sh_22_1,student_shared,hole puncher,5.0,competing,paired,s_sh_22_1.jpg,Student,,,sub-66
Desktop or Laptop,Windows 10,Chrome 135.0.0.0,1366x768,1366x768,Temporal Distance Task,cb_05,42.0,temp_dist_trial,num_items,zn7si1,1.0,response,2_ITEM,1550.0999999284977,1546.0,1550.0999999284977,1550.0999999284977,1546.0,1550.0999999284977,1.0,0.0,0.0,,Click Response,2_count,5.0,object-49,temp_dist_trial,42.0,s_sh_01_1,student_shared,notebook,5.0,competing,paired,s_sh_01_1.jpg,Student,,,sub-66
Desktop or Laptop,Windows 10,Chrome 135.0.0.0,1366x768,1366x768,Temporal Distance Task,cb_05,42.0,temp_dist_trial,dist_items,qkpkxw,2.0,info,,9.699999904609284,0.0,9.699999904609284,9.699999904609284,0.0,9.699999904609284,1.0,0.0,0.0,,Slider,Slider,4.0,object-56,temp_dist_trial,42.0,s_sh_01_1,student_shared,notebook,5.0,competing,paired,s_sh_01_1.jpg,Student,,,sub-66
Desktop or Laptop,Windows 10,Chrome 135.0.0.0,1366x768,1366x768,Temporal Distance Task,cb_05,42.0,temp_dist_trial,dist_items,qkpkxw,2.0,continue,,2962.899999952293,2958.5999999999767,2962.899999952293,2962.899999952293,2958.5999999999767,2962.899999952293,1.0,0.0,0.0,,Click To Continue,Next button,7.0,object-60,temp_dist_trial,42.0,s_sh_01_1,student_shared,notebook,5.0,competing,paired,s_sh_01_1.jpg,Student,,,sub-66
Desktop or Laptop,Windows 10,Chrome 135.0.0.0,1366x768,1366x768,Temporal Distance Task,cb_05,42.0,temp_dist_trial,dist_items,qkpkxw,2.0,response,36,1878.1999999999528,2958.5999999999767,2963.699999904609,1878.1999999999528,2958.5999999999767,2963.699999904609,1.0,1085.499999904656,0.0,,Slider,Slider,4.0,object-56,temp_dist_trial,42.0,s_sh_01_1,student_shared,notebook,5.0,competing,paired,s_sh_01_1.jpg,Student,,,sub-66
Desktop or Laptop,Windows 10,Chrome 135.0.0.0,1366x768,1366x768,Temporal Distance Task,cb_05,43.0,temp_dist_trial,num_items,zn7si1,1.0,response,1_ITEM,2410.3000000000466,2393.700000000012,2410.3000000000466,2410.3000000000466,2393.700000000012,2410.3000000000466,1.0,0.0,0.0,,Click Response,1_count,3.0,object-46,temp_dist_trial,43.0,s_s_11_1,student_stem,scientific scale,5.0,unique,paired,s_s_11_1.jpg,Student,,,sub-66
Desktop or Laptop,Windows 10,Chrome 135.0.0.0,1366x768,1366x768,Temporal Distance Task,cb_05,44.0,temp_dist_trial,num_items,zn7si1,1.0,response,2_ITEM,1824.9000000000235,1811.9000000000235,1824.9000000000235,1824.9000000000235,1811.9000000000235,1824.9000000000235,1.0,0.0,0.0,,Click Response,2_count,5.0,object-49,temp_dist_trial,44.0,s_sh_07_1,student_shared,ruler,5.0,competing,paired,s_sh_07_1.jpg,Student,,,sub-66
Desktop or Laptop,Windows 10,Chrome 135.0.0.0,1366x768,1366x768,Temporal Distance Task,cb_05,44.0,temp_dist_trial,dist_items,qkpkxw,2.0,info,,10.399999952293,0.0,10.399999952293,10.399999952293,0.0,10.399999952293,1.0,0.0,0.0,,Slider,Slider,4.0,object-56,temp_dist_trial,44.0,s_sh_07_1,student_shared,ruler,5.0,competing,paired,s_sh_07_1.jpg,Student,,,sub-66
Desktop or Laptop,Windows 10,Chrome 135.0.0.0,1366x768,1366x768,Temporal Distance Task,cb_05,44.0,temp_dist_trial,dist_items,qkpkxw,2.0,continue,,3699.699999904609,3690.0999999999767,3699.699999904609,3699.699999904609,3690.0999999999767,3699.699999904609,1.0,0.0,0.0,,Click To Continue,Next button,7.0,object-60,temp_dist_trial,44.0,s_sh_07_1,student_shared,ruler,5.0,competing,paired,s_sh_07_1.jpg,Student,,,sub-66
Desktop or Laptop,Windows 10,Chrome 135.0.0.0,1366x768,1366x768,Temporal Distance Task,cb_05,44.0,temp_dist_trial,dist_items,qkpkxw,2.0,response,58,2443.399999999965,3690.0999999999767,3706.5999999999767,2443.399999999965,3690.0999999999767,3706.5999999999767,1.0,1263.2000000000114,0.0,,Slider,Slider,4.0,object-56,temp_dist_trial,44.0,s_sh_07_1,student_shared,ruler,5.0,competing,paired,s_sh_07_1.jpg,Student,,,sub-66
Desktop or Laptop,Windows 10,Chrome 135.0.0.0,1366x768,1366x768,Temporal Distance Task,cb_05,45.0,temp_dist_trial,num_items,zn7si1,1.0,response,1_ITEM,2001.7999999523165,1994.7999999999884,2001.7999999523165,2001.7999999523165,1994.7999999999884,2001.7999999523165,1.0,0.0,0.0,,Click Response,1_count,3.0,object-46,temp_dist_trial,45.0,s_a_04_1,student_art,easel,5.0,unique,single,s_a_04_1.jpg,Student,,,sub-66
Desktop or Laptop,Windows 10,Chrome 135.0.0.0,1366x768,1366x768,Temporal Distance Task,cb_05,46.0,temp_dist_trial,num_items,zn7si1,1.0,response,2_ITEM,1102.0999999284977,1097.2000000000116,1102.0999999284977,1102.0999999284977,1097.2000000000116,1102.0999999284977,1.0,0.0,0.0,,Click Response,2_count,5.0,object-49,temp_dist_trial,46.0,s_s_06_1,student_stem,calculator,5.0,unique,paired,s_s_06_1.jpg,Student,,,sub-66
Desktop or Laptop,Windows 10,Chrome 135.0.0.0,1366x768,1366x768,Temporal Distance Task,cb_05,46.0,temp_dist_trial,dist_items,qkpkxw,2.0,info,,5.999999904655851,0.0,5.999999904655851,5.999999904655851,0.0,5.999999904655851,1.0,0.0,0.0,,Slider,Slider,4.0,object-56,temp_dist_trial,46.0,s_s_06_1,student_stem,calculator,5.0,unique,paired,s_s_06_1.jpg,Student,,,sub-66
Desktop or Laptop,Windows 10,Chrome 135.0.0.0,1366x768,1366x768,Temporal Distance Task,cb_05,46.0,temp_dist_trial,dist_items,qkpkxw,2.0,continue,,3739.099999928497,3723.4000000000233,3739.099999928497,3739.099999928497,3723.4000000000233,3739.099999928497,1.0,0.0,0.0,,Click To Continue,Next button,7.0,object-60,temp_dist_trial,46.0,s_s_06_1,student_stem,calculator,5.0,unique,paired,s_s_06_1.jpg,Student,,,sub-66
Desktop or Laptop,Windows 10,Chrome 135.0.0.0,1366x768,1366x768,Temporal Distance Task,cb_05,46.0,temp_dist_trial,dist_items,qkpkxw,2.0,response,58,2227.4000000000233,3723.4000000000233,3740.0,2227.4000000000233,3723.4000000000233,3740.0,1.0,1512.5999999999767,0.0,,Slider,Slider,4.0,object-56,temp_dist_trial,46.0,s_s_06_1,student_stem,calculator,5.0,unique,paired,s_s_06_1.jpg,Student,,,sub-66
Desktop or Laptop,Windows 10,Chrome 135.0.0.0,1366x768,1366x768,Temporal Distance Task,cb_05,47.0,temp_dist_trial,num_items,zn7si1,1.0,response,2_ITEM,2423.5,2410.2999999999884,2423.5,2423.5,2410.2999999999884,2423.5,1.0,0.0,0.0,,Click Response,2_count,5.0,object-49,temp_dist_trial,47.0,s_sh_12_1,student_shared,binder,5.0,competing,single,s_sh_12_1.jpg,Student,,,sub-66
Desktop or Laptop,Windows 10,Chrome 135.0.0.0,1366x768,1366x768,Temporal Distance Task,cb_05,47.0,temp_dist_trial,dist_items,qkpkxw,2.0,info,,5.2999999999883585,0.0,5.2999999999883585,5.2999999999883585,0.0,5.2999999999883585,1.0,0.0,0.0,,Slider,Slider,4.0,object-56,temp_dist_trial,47.0,s_sh_12_1,student_shared,binder,5.0,competing,single,s_sh_12_1.jpg,Student,,,sub-66
Desktop or Laptop,Windows 10,Chrome 135.0.0.0,1366x768,1366x768,Temporal Distance Task,cb_05,47.0,temp_dist_trial,dist_items,qkpkxw,2.0,continue,,2348.9999999284632,2343.599999999977,2348.9999999284632,2348.9999999284632,2343.599999999977,2348.9999999284632,1.0,0.0,0.0,,Click To Continue,Next button,7.0,object-60,temp_dist_trial,47.0,s_sh_12_1,student_shared,binder,5.0,competing,single,s_sh_12_1.jpg,Student,,,sub-66
Desktop or Laptop,Windows 10,Chrome 135.0.0.0,1366x768,1366x768,Temporal Distance Task,cb_05,47.0,temp_dist_trial,dist_items,qkpkxw,2.0,response,41,1213.5,2343.599999999977,2358.599999952305,1213.5,2343.599999999977,2358.599999952305,1.0,1145.0999999523046,0.0,,Slider,Slider,4.0,object-56,temp_dist_trial,47.0,s_sh_12_1,student_shared,binder,5.0,competing,single,s_sh_12_1.jpg,Student,,,sub-66
Desktop or Laptop,Windows 10,Chrome 135.0.0.0,1366x768,1366x768,Temporal Distance Task,cb_05,48.0,temp_dist_trial,num_items,zn7si1,1.0,response,2_ITEM,1906.7000000000119,1895.0,1906.7000000000119,1906.7000000000119,1895.0,1906.7000000000119,1.0,0.0,0.0,,Click Response,2_count,5.0,object-49,temp_dist_trial,48.0,s_sh_18_1,student_shared,wall calendar,5.0,competing,paired,s_sh_18_1.jpg,Student,,,sub-66
Desktop or Laptop,Windows 10,Chrome 135.0.0.0,1366x768,1366x768,Temporal Distance Task,cb_05,48.0,temp_dist_trial,dist_items,qkpkxw,2.0,info,,7.499999904655851,0.0,7.499999904655851,7.499999904655851,0.0,7.499999904655851,1.0,0.0,0.0,,Slider,Slider,4.0,object-56,temp_dist_trial,48.0,s_sh_18_1,student_shared,wall calendar,5.0,competing,paired,s_sh_18_1.jpg,Student,,,sub-66
Desktop or Laptop,Windows 10,Chrome 135.0.0.0,1366x768,1366x768,Temporal Distance Task,cb_05,48.0,temp_dist_trial,dist_items,qkpkxw,2.0,continue,,4468.1999999523405,4455.100000000035,4468.1999999523405,4468.1999999523405,4455.100000000035,4468.1999999523405,1.0,0.0,0.0,,Click To Continue,Next button,7.0,object-60,temp_dist_trial,48.0,s_sh_18_1,student_shared,wall calendar,5.0,competing,paired,s_sh_18_1.jpg,Student,,,sub-66
Desktop or Laptop,Windows 10,Chrome 135.0.0.0,1366x768,1366x768,Temporal Distance Task,cb_05,48.0,temp_dist_trial,dist_items,qkpkxw,2.0,response,42,2676.5,4455.100000000035,4469.099999928498,2676.5,4455.100000000035,4469.099999928498,1.0,1792.5999999284977,0.0,,Slider,Slider,4.0,object-56,temp_dist_trial,48.0,s_sh_18_1,student_shared,wall calendar,5.0,competing,paired,s_sh_18_1.jpg,Student,,,sub-66
Desktop or Laptop,Windows 10,Chrome 135.0.0.0,1366x768,1366x768,Temporal Distance Task,cb_05,2.0,temp_eventStart,Screen 1,dgtyxe,1.0,continue,,20589.099999952305,20578.799999999992,20589.099999952305,20589.099999952305,20578.799999999992,20589.099999952305,1.0,0.0,0.0,,Click To Continue,Next Button,3.0,object-43,temp_eventStart,,,Travel,,,,,,,,,sub-66
Desktop or Laptop,Windows 10,Chrome 135.0.0.0,1366x768,1366x768,Temporal Distance Task,cb_05,49.0,temp_dist_trial,num_items,zn7si1,1.0,response,2_ITEM,2060.399999976158,2044.5999999999767,2060.399999976158,2060.399999976158,2044.5999999999767,2060.399999976158,1.0,0.0,0.0,,Click Response,2_count,5.0,object-49,temp_dist_trial,1.0,t_m_20_1,travel_Miami,inflatable beachball,5.0,unique,paired,t_m_20_1.jpg,Travel,,,sub-66
Desktop or Laptop,Windows 10,Chrome 135.0.0.0,1366x768,1366x768,Temporal Distance Task,cb_05,49.0,temp_dist_trial,dist_items,qkpkxw,2.0,info,,11.399999952293,0.0,11.399999952293,11.399999952293,0.0,11.399999952293,1.0,0.0,0.0,,Slider,Slider,4.0,object-56,temp_dist_trial,1.0,t_m_20_1,travel_Miami,inflatable beachball,5.0,unique,paired,t_m_20_1.jpg,Travel,,,sub-66
Desktop or Laptop,Windows 10,Chrome 135.0.0.0,1366x768,1366x768,Temporal Distance Task,cb_05,49.0,temp_dist_trial,dist_items,qkpkxw,2.0,continue,,5372.499999976135,5369.0,5372.499999976135,5372.499999976135,5369.0,5372.499999976135,1.0,0.0,0.0,,Click To Continue,Next button,7.0,object-60,temp_dist_trial,1.0,t_m_20_1,travel_Miami,inflatable beachball,5.0,unique,paired,t_m_20_1.jpg,Travel,,,sub-66
Desktop or Laptop,Windows 10,Chrome 135.0.0.0,1366x768,1366x768,Temporal Distance Task,cb_05,49.0,temp_dist_trial,dist_items,qkpkxw,2.0,response,43,4089.0,5369.0,5373.499999976135,4089.0,5369.0,5373.499999976135,1.0,1284.4999999761349,0.0,,Slider,Slider,4.0,object-56,temp_dist_trial,1.0,t_m_20_1,travel_Miami,inflatable beachball,5.0,unique,paired,t_m_20_1.jpg,Travel,,,sub-66
Desktop or Laptop,Windows 10,Chrome 135.0.0.0,1366x768,1366x768,Temporal Distance Task,cb_05,50.0,temp_dist_trial,num_items,zn7si1,1.0,response,2_ITEM,1835.1999999046093,1828.6999999999528,1835.1999999046093,1835.1999999046093,1828.6999999999528,1835.1999999046093,1.0,0.0,0.0,,Click Response,2_count,5.0,object-49,temp_dist_trial,2.0,t_i_13_1,travel_Iceland,sleeping bag,5.0,unique,single,t_i_13_1.jpg,Travel,,,sub-66
Desktop or Laptop,Windows 10,Chrome 135.0.0.0,1366x768,1366x768,Temporal Distance Task,cb_05,50.0,temp_dist_trial,dist_items,qkpkxw,2.0,info,,13.299999928451145,0.0,13.299999928451145,13.299999928451145,0.0,13.299999928451145,1.0,0.0,0.0,,Slider,Slider,4.0,object-56,temp_dist_trial,2.0,t_i_13_1,travel_Iceland,sleeping bag,5.0,unique,single,t_i_13_1.jpg,Travel,,,sub-66
Desktop or Laptop,Windows 10,Chrome 135.0.0.0,1366x768,1366x768,Temporal Distance Task,cb_05,50.0,temp_dist_trial,dist_items,qkpkxw,2.0,continue,,4197.299999928451,4188.899999999965,4197.299999928451,4197.299999928451,4188.899999999965,4197.299999928451,1.0,0.0,0.0,,Click To Continue,Next button,7.0,object-60,temp_dist_trial,2.0,t_i_13_1,travel_Iceland,sleeping bag,5.0,unique,single,t_i_13_1.jpg,Travel,,,sub-66
Desktop or Laptop,Windows 10,Chrome 135.0.0.0,1366x768,1366x768,Temporal Distance Task,cb_05,50.0,temp_dist_trial,dist_items,qkpkxw,2.0,response,42,2776.0,4188.899999999965,4205.499999999942,2776.0,4188.899999999965,4205.499999999942,1.0,1429.4999999999418,0.0,,Slider,Slider,4.0,object-56,temp_dist_trial,2.0,t_i_13_1,travel_Iceland,sleeping bag,5.0,unique,single,t_i_13_1.jpg,Travel,,,sub-66
Desktop or Laptop,Windows 10,Chrome 135.0.0.0,1366x768,1366x768,Temporal Distance Task,cb_05,51.0,temp_dist_trial,num_items,zn7si1,1.0,response,2_ITEM,1448.5999999761698,1446.1000000000354,1448.5999999761698,1448.5999999761698,1446.1000000000354,1448.5999999761698,1.0,0.0,0.0,,Click Response,2_count,5.0,object-49,temp_dist_trial,3.0,t_s_05_1,travel_shared,neck pillow,5.0,competing,paired,t_s_05_1.jpg,Travel,,,sub-66
Desktop or Laptop,Windows 10,Chrome 135.0.0.0,1366x768,1366x768,Temporal Distance Task,cb_05,51.0,temp_dist_trial,dist_items,qkpkxw,2.0,info,,9.099999928497713,0.0,9.099999928497713,9.099999928497713,0.0,9.099999928497713,1.0,0.0,0.0,,Slider,Slider,4.0,object-56,temp_dist_trial,3.0,t_s_05_1,travel_shared,neck pillow,5.0,competing,paired,t_s_05_1.jpg,Travel,,,sub-66
Desktop or Laptop,Windows 10,Chrome 135.0.0.0,1366x768,1366x768,Temporal Distance Task,cb_05,51.0,temp_dist_trial,dist_items,qkpkxw,2.0,continue,,3627.499999904656,3623.800000000047,3627.499999904656,3627.499999904656,3623.800000000047,3627.499999904656,1.0,0.0,0.0,,Click To Continue,Next button,7.0,object-60,temp_dist_trial,3.0,t_s_05_1,travel_shared,neck pillow,5.0,competing,paired,t_s_05_1.jpg,Travel,,,sub-66
Desktop or Laptop,Windows 10,Chrome 135.0.0.0,1366x768,1366x768,Temporal Distance Task,cb_05,51.0,temp_dist_trial,dist_items,qkpkxw,2.0,response,38,2543.5,3623.800000000047,3628.299999976181,2543.5,3623.800000000047,3628.299999976181,1.0,1084.7999999761814,0.0,,Slider,Slider,4.0,object-56,temp_dist_trial,3.0,t_s_05_1,travel_shared,neck pillow,5.0,competing,paired,t_s_05_1.jpg,Travel,,,sub-66
Desktop or Laptop,Windows 10,Chrome 135.0.0.0,1366x768,1366x768,Temporal Distance Task,cb_05,52.0,temp_dist_trial,num_items,zn7si1,1.0,response,2_ITEM,1633.9999999761346,1629.1999999999537,1633.9999999761346,1633.9999999761346,1629.1999999999537,1633.9999999761346,1.0,0.0,0.0,,Click Response,2_count,5.0,object-49,temp_dist_trial,4.0,t_s_07_1,travel_shared,phone charger cable,5.0,competing,paired,t_s_07_1.jpg,Travel,,,sub-66
Desktop or Laptop,Windows 10,Chrome 135.0.0.0,1366x768,1366x768,Temporal Distance Task,cb_05,52.0,temp_dist_trial,dist_items,qkpkxw,2.0,info,,10.799999928451145,0.0,10.799999928451145,10.799999928451145,0.0,10.799999928451145,1.0,0.0,0.0,,Slider,Slider,4.0,object-56,temp_dist_trial,4.0,t_s_07_1,travel_shared,phone charger cable,5.0,competing,paired,t_s_07_1.jpg,Travel,,,sub-66
Desktop or Laptop,Windows 10,Chrome 135.0.0.0,1366x768,1366x768,Temporal Distance Task,cb_05,52.0,temp_dist_trial,dist_items,qkpkxw,2.0,continue,,3459.5999999999767,3457.399999999965,3459.5999999999767,3459.5999999999767,3457.399999999965,3459.5999999999767,1.0,0.0,0.0,,Click To Continue,Next button,7.0,object-60,temp_dist_trial,4.0,t_s_07_1,travel_shared,phone charger cable,5.0,competing,paired,t_s_07_1.jpg,Travel,,,sub-66
Desktop or Laptop,Windows 10,Chrome 135.0.0.0,1366x768,1366x768,Temporal Distance Task,cb_05,52.0,temp_dist_trial,dist_items,qkpkxw,2.0,response,59,2343.7999999999884,3457.399999999965,3468.5999999999767,2343.7999999999884,3457.399999999965,3468.5999999999767,1.0,1124.7999999999884,0.0,,Slider,Slider,4.0,object-56,temp_dist_trial,4.0,t_s_07_1,travel_shared,phone charger cable,5.0,competing,paired,t_s_07_1.jpg,Travel,,,sub-66
Desktop or Laptop,Windows 10,Chrome 135.0.0.0,1366x768,1366x768,Temporal Distance Task,cb_05,53.0,temp_dist_trial,num_items,zn7si1,1.0,response,2_ITEM,1913.499999952328,1911.6000000000354,1913.499999952328,1913.499999952328,1911.6000000000354,1913.499999952328,1.0,0.0,0.0,,Click Response,2_count,5.0,object-49,temp_dist_trial,5.0,t_i_03_1,travel_Iceland,winter jacket,5.0,unique,paired,t_i_03_1.jpg,Travel,,,sub-66
Desktop or Laptop,Windows 10,Chrome 135.0.0.0,1366x768,1366x768,Temporal Distance Task,cb_05,53.0,temp_dist_trial,dist_items,qkpkxw,2.0,info,,13.399999928486068,0.0,13.399999928486068,13.399999928486068,0.0,13.399999928486068,1.0,0.0,0.0,,Slider,Slider,4.0,object-56,temp_dist_trial,5.0,t_i_03_1,travel_Iceland,winter jacket,5.0,unique,paired,t_i_03_1.jpg,Travel,,,sub-66
Desktop or Laptop,Windows 10,Chrome 135.0.0.0,1366x768,1366x768,Temporal Distance Task,cb_05,53.0,temp_dist_trial,dist_items,qkpkxw,2.0,continue,,3368.299999904644,3357.9000000000237,3368.299999904644,3368.299999904644,3357.9000000000237,3368.299999904644,1.0,0.0,0.0,,Click To Continue,Next button,7.0,object-60,temp_dist_trial,5.0,t_i_03_1,travel_Iceland,winter jacket,5.0,unique,paired,t_i_03_1.jpg,Travel,,,sub-66
Desktop or Laptop,Windows 10,Chrome 135.0.0.0,1366x768,1366x768,Temporal Distance Task,cb_05,53.0,temp_dist_trial,dist_items,qkpkxw,2.0,response,44,2111.2999999999884,3357.9000000000237,3369.299999904644,2111.2999999999884,3357.9000000000237,3369.299999904644,1.0,1257.999999904656,0.0,,Slider,Slider,4.0,object-56,temp_dist_trial,5.0,t_i_03_1,travel_Iceland,winter jacket,5.0,unique,paired,t_i_03_1.jpg,Travel,,,sub-66
Desktop or Laptop,Windows 10,Chrome 135.0.0.0,1366x768,1366x768,Temporal Distance Task,cb_05,54.0,temp_dist_trial,num_items,zn7si1,1.0,response,1_ITEM,1946.5999999523046,1944.7000000000119,1946.5999999523046,1946.5999999523046,1944.7000000000119,1946.5999999523046,1.0,0.0,0.0,,Click Response,1_count,3.0,object-46,temp_dist_trial,6.0,t_m_10_1,travel_Miami,tanktop,5.0,unique,paired,t_m_10_1.jpg,Travel,,,sub-66
Desktop or Laptop,Windows 10,Chrome 135.0.0.0,1366x768,1366x768,Temporal Distance Task,cb_05,55.0,temp_dist_trial,num_items,zn7si1,1.0,response,1_ITEM,2056.7999999046438,2044.6000000000354,2056.7999999046438,2056.7999999046438,2044.6000000000354,2056.7999999046438,1.0,0.0,0.0,,Click Response,1_count,3.0,object-46,temp_dist_trial,7.0,t_s_01_1,travel_shared,fanny pack,5.0,competing,paired,t_s_01_1.jpg,Travel,,,sub-66
Desktop or Laptop,Windows 10,Chrome 135.0.0.0,1366x768,1366x768,Temporal Distance Task,cb_05,56.0,temp_dist_trial,num_items,zn7si1,1.0,response,2_ITEM,1234.7999999999886,1230.2000000000114,1234.7999999999886,1234.7999999999886,1230.2000000000114,1234.7999999999886,1.0,0.0,0.0,,Click Response,2_count,5.0,object-49,temp_dist_trial,8.0,t_i_02_1,travel_Iceland,scarf,5.0,unique,paired,t_i_02_1.jpg,Travel,,,sub-66
Desktop or Laptop,Windows 10,Chrome 135.0.0.0,1366x768,1366x768,Temporal Distance Task,cb_05,56.0,temp_dist_trial,dist_items,qkpkxw,2.0,info,,5.599999928497709,0.0,5.599999928497709,5.599999928497709,0.0,5.599999928497709,1.0,0.0,0.0,,Slider,Slider,4.0,object-56,temp_dist_trial,8.0,t_i_02_1,travel_Iceland,scarf,5.0,unique,paired,t_i_02_1.jpg,Travel,,,sub-66
Desktop or Laptop,Windows 10,Chrome 135.0.0.0,1366x768,1366x768,Temporal Distance Task,cb_05,56.0,temp_dist_trial,dist_items,qkpkxw,2.0,continue,,3011.9000000000237,3008.700000000012,3011.9000000000237,3011.9000000000237,3008.700000000012,3011.9000000000237,1.0,0.0,0.0,,Click To Continue,Next button,7.0,object-60,temp_dist_trial,8.0,t_i_02_1,travel_Iceland,scarf,5.0,unique,paired,t_i_02_1.jpg,Travel,,,sub-66
Desktop or Laptop,Windows 10,Chrome 135.0.0.0,1366x768,1366x768,Temporal Distance Task,cb_05,56.0,temp_dist_trial,dist_items,qkpkxw,2.0,response,58,1878.4000000000235,3008.700000000012,3012.599999928497,1878.4000000000235,3008.700000000012,3012.599999928497,1.0,1134.1999999284744,0.0,,Slider,Slider,4.0,object-56,temp_dist_trial,8.0,t_i_02_1,travel_Iceland,scarf,5.0,unique,paired,t_i_02_1.jpg,Travel,,,sub-66
Desktop or Laptop,Windows 10,Chrome 135.0.0.0,1366x768,1366x768,Temporal Distance Task,cb_05,57.0,temp_dist_trial,num_items,zn7si1,1.0,response,num_miss,2992.200000000012,2992.200000000012,2992.200000000012,2992.200000000012,2992.200000000012,2992.200000000012,1.0,0.0,0.0,num_miss_tag,Time Limit,screen,0.0,screen,temp_dist_trial,9.0,t_m_12_1,travel_Miami,foldable pail and shovel,5.0,unique,single,t_m_12_1.jpg,Travel,,,sub-66
Desktop or Laptop,Windows 10,Chrome 135.0.0.0,1366x768,1366x768,Temporal Distance Task,cb_05,58.0,temp_dist_trial,num_items,zn7si1,1.0,response,2_ITEM,1633.5999999523044,1629.0,1633.5999999523044,1633.5999999523044,1629.0,1633.5999999523044,1.0,0.0,0.0,,Click Response,2_count,5.0,object-49,temp_dist_trial,10.0,t_s_19_1,travel_shared,pajamas,5.0,competing,paired,t_s_19_1.jpg,Travel,,,sub-66
Desktop or Laptop,Windows 10,Chrome 135.0.0.0,1366x768,1366x768,Temporal Distance Task,cb_05,58.0,temp_dist_trial,dist_items,qkpkxw,2.0,info,,12.799999976181429,0.0,12.799999976181429,12.799999976181429,0.0,12.799999976181429,1.0,0.0,0.0,,Slider,Slider,4.0,object-56,temp_dist_trial,10.0,t_s_19_1,travel_shared,pajamas,5.0,competing,paired,t_s_19_1.jpg,Travel,,,sub-66
Desktop or Laptop,Windows 10,Chrome 135.0.0.0,1366x768,1366x768,Temporal Distance Task,cb_05,58.0,temp_dist_trial,dist_items,qkpkxw,2.0,continue,,4321.799999999987,4305.200000000013,4321.799999999987,4321.799999999987,4305.200000000013,4321.799999999987,1.0,0.0,0.0,,Click To Continue,Next button,7.0,object-60,temp_dist_trial,10.0,t_s_19_1,travel_shared,pajamas,5.0,competing,paired,t_s_19_1.jpg,Travel,,,sub-66
Desktop or Laptop,Windows 10,Chrome 135.0.0.0,1366x768,1366x768,Temporal Distance Task,cb_05,58.0,temp_dist_trial,dist_items,qkpkxw,2.0,response,42,1878.4000000000235,4305.200000000013,4321.799999999987,1878.4000000000235,4305.200000000013,4321.799999999987,1.0,2443.399999999965,0.0,,Slider,Slider,4.0,object-56,temp_dist_trial,10.0,t_s_19_1,travel_shared,pajamas,5.0,competing,paired,t_s_19_1.jpg,Travel,,,sub-66
Desktop or Laptop,Windows 10,Chrome 135.0.0.0,1366x768,1366x768,Temporal Distance Task,cb_05,59.0,temp_dist_trial,num_items,zn7si1,1.0,response,num_miss,2991.9000000000237,2991.9000000000237,2991.9000000000237,2991.9000000000237,2991.9000000000237,2991.9000000000237,1.0,0.0,0.0,num_miss_tag,Time Limit,screen,0.0,screen,temp_dist_trial,11.0,t_s_12_1,travel_shared,clear toiletry bag,5.0,competing,single,t_s_12_1.jpg,Travel,,,sub-66
Desktop or Laptop,Windows 10,Chrome 135.0.0.0,1366x768,1366x768,Temporal Distance Task,cb_05,60.0,temp_dist_trial,num_items,zn7si1,1.0,response,2_ITEM,2448.799999976181,2443.600000000035,2448.799999976181,2448.799999976181,2443.600000000035,2448.799999976181,1.0,0.0,0.0,,Click Response,2_count,5.0,object-49,temp_dist_trial,12.0,t_s_20_1,travel_shared,travel pill case,5.0,competing,paired,t_s_20_1.jpg,Travel,,,sub-66
Desktop or Laptop,Windows 10,Chrome 135.0.0.0,1366x768,1366x768,Temporal Distance Task,cb_05,60.0,temp_dist_trial,dist_items,qkpkxw,2.0,info,,12.999999904655853,0.0,12.999999904655853,12.999999904655853,0.0,12.999999904655853,1.0,0.0,0.0,,Slider,Slider,4.0,object-56,temp_dist_trial,12.0,t_s_20_1,travel_shared,travel pill case,5.0,competing,paired,t_s_20_1.jpg,Travel,,,sub-66
Desktop or Laptop,Windows 10,Chrome 135.0.0.0,1366x768,1366x768,Temporal Distance Task,cb_05,60.0,temp_dist_trial,dist_items,qkpkxw,2.0,continue,,2628.4000000000233,2626.100000000035,2628.4000000000233,2628.4000000000233,2626.100000000035,2628.4000000000233,1.0,0.0,0.0,,Click To Continue,Next button,7.0,object-60,temp_dist_trial,12.0,t_s_20_1,travel_shared,travel pill case,5.0,competing,paired,t_s_20_1.jpg,Travel,,,sub-66
Desktop or Laptop,Windows 10,Chrome 135.0.0.0,1366x768,1366x768,Temporal Distance Task,cb_05,60.0,temp_dist_trial,dist_items,qkpkxw,2.0,response,46,1678.7000000000116,2626.100000000035,2629.4000000000233,1678.7000000000116,2626.100000000035,2629.4000000000233,1.0,950.7000000000116,0.0,,Slider,Slider,4.0,object-56,temp_dist_trial,12.0,t_s_20_1,travel_shared,travel pill case,5.0,competing,paired,t_s_20_1.jpg,Travel,,,sub-66
Desktop or Laptop,Windows 10,Chrome 135.0.0.0,1366x768,1366x768,Temporal Distance Task,cb_05,61.0,temp_dist_trial,num_items,zn7si1,1.0,response,1_ITEM,1434.6999999761465,1429.8999999999646,1434.6999999761465,1434.6999999761465,1429.8999999999646,1434.6999999761465,1.0,0.0,0.0,,Click Response,1_count,3.0,object-46,temp_dist_trial,13.0,t_s_21_1,travel_shared,umbrella,5.0,competing,single,t_s_21_1.jpg,Travel,,,sub-66
Desktop or Laptop,Windows 10,Chrome 135.0.0.0,1366x768,1366x768,Temporal Distance Task,cb_05,62.0,temp_dist_trial,num_items,zn7si1,1.0,response,2_ITEM,1443.1999999761465,1429.7000000000116,1443.1999999761465,1443.1999999761465,1429.7000000000116,1443.1999999761465,1.0,0.0,0.0,,Click Response,2_count,5.0,object-49,temp_dist_trial,14.0,t_m_04_1,travel_Miami,UV jacket,5.0,unique,paired,t_m_04_1.jpg,Travel,,,sub-66
Desktop or Laptop,Windows 10,Chrome 135.0.0.0,1366x768,1366x768,Temporal Distance Task,cb_05,62.0,temp_dist_trial,dist_items,qkpkxw,2.0,info,,13.499999904655853,0.0,13.499999904655853,13.499999904655853,0.0,13.499999904655853,1.0,0.0,0.0,,Slider,Slider,4.0,object-56,temp_dist_trial,14.0,t_m_04_1,travel_Miami,UV jacket,5.0,unique,paired,t_m_04_1.jpg,Travel,,,sub-66
Desktop or Laptop,Windows 10,Chrome 135.0.0.0,1366x768,1366x768,Temporal Distance Task,cb_05,62.0,temp_dist_trial,dist_items,qkpkxw,2.0,continue,,3460.499999904656,3457.4000000000237,3460.499999904656,3460.499999904656,3457.4000000000237,3460.499999904656,1.0,0.0,0.0,,Click To Continue,Next button,7.0,object-60,temp_dist_trial,14.0,t_m_04_1,travel_Miami,UV jacket,5.0,unique,paired,t_m_04_1.jpg,Travel,,,sub-66
Desktop or Laptop,Windows 10,Chrome 135.0.0.0,1366x768,1366x768,Temporal Distance Task,cb_05,62.0,temp_dist_trial,dist_items,qkpkxw,2.0,response,43,1595.8000000000463,3457.4000000000237,3461.299999976181,1595.8000000000463,3457.4000000000237,3461.299999976181,1.0,1865.4999999761346,0.0,,Slider,Slider,4.0,object-56,temp_dist_trial,14.0,t_m_04_1,travel_Miami,UV jacket,5.0,unique,paired,t_m_04_1.jpg,Travel,,,sub-66
Desktop or Laptop,Windows 10,Chrome 135.0.0.0,1366x768,1366x768,Temporal Distance Task,cb_05,63.0,temp_dist_trial,num_items,zn7si1,1.0,response,2_ITEM,1842.5999999046328,1828.7000000000119,1842.5999999046328,1842.5999999046328,1828.7000000000119,1842.5999999046328,1.0,0.0,0.0,,Click Response,2_count,5.0,object-49,temp_dist_trial,15.0,t_m_14_1,travel_Miami,swim goggles,5.0,unique,paired,t_m_14_1.jpg,Travel,,,sub-66
Desktop or Laptop,Windows 10,Chrome 135.0.0.0,1366x768,1366x768,Temporal Distance Task,cb_05,63.0,temp_dist_trial,dist_items,qkpkxw,2.0,info,,5.5,0.0,5.5,5.5,0.0,5.5,1.0,0.0,0.0,,Slider,Slider,4.0,object-56,temp_dist_trial,15.0,t_m_14_1,travel_Miami,swim goggles,5.0,unique,paired,t_m_14_1.jpg,Travel,,,sub-66
Desktop or Laptop,Windows 10,Chrome 135.0.0.0,1366x768,1366x768,Temporal Distance Task,cb_05,63.0,temp_dist_trial,dist_items,qkpkxw,2.0,continue,,3867.8999999761572,3856.5,3867.8999999761572,3867.8999999761572,3856.5,3867.8999999761572,1.0,0.0,0.0,,Click To Continue,Next button,7.0,object-60,temp_dist_trial,15.0,t_m_14_1,travel_Miami,swim goggles,5.0,unique,paired,t_m_14_1.jpg,Travel,,,sub-66
Desktop or Laptop,Windows 10,Chrome 135.0.0.0,1366x768,1366x768,Temporal Distance Task,cb_05,63.0,temp_dist_trial,dist_items,qkpkxw,2.0,response,45,3008.700000000012,3856.5,3868.8999999761572,3008.700000000012,3856.5,3868.8999999761572,1.0,860.1999999761465,0.0,,Slider,Slider,4.0,object-56,temp_dist_trial,15.0,t_m_14_1,travel_Miami,swim goggles,5.0,unique,paired,t_m_14_1.jpg,Travel,,,sub-66
Desktop or Laptop,Windows 10,Chrome 135.0.0.0,1366x768,1366x768,Temporal Distance Task,cb_05,64.0,temp_dist_trial,num_items,zn7si1,1.0,response,1_ITEM,2651.899999976158,2643.0,2651.899999976158,2651.899999976158,2643.0,2651.899999976158,1.0,0.0,0.0,,Click Response,1_count,3.0,object-46,temp_dist_trial,16.0,t_i_17_1,travel_Iceland,binoculars,5.0,unique,paired,t_i_17_1.jpg,Travel,,,sub-66
Desktop or Laptop,Windows 10,Chrome 135.0.0.0,1366x768,1366x768,Temporal Distance Task,cb_05,65.0,temp_dist_trial,num_items,zn7si1,1.0,response,2_ITEM,2007.899999904621,1994.7999999999884,2007.899999904621,2007.899999904621,1994.7999999999884,2007.899999904621,1.0,0.0,0.0,,Click Response,2_count,5.0,object-49,temp_dist_trial,17.0,t_s_18_1,travel_shared,first aid kit,5.0,competing,paired,t_s_18_1.jpg,Travel,,,sub-66
Desktop or Laptop,Windows 10,Chrome 135.0.0.0,1366x768,1366x768,Temporal Distance Task,cb_05,65.0,temp_dist_trial,dist_items,qkpkxw,2.0,info,,9.799999928451145,0.0,9.799999928451145,9.799999928451145,0.0,9.799999928451145,1.0,0.0,0.0,,Slider,Slider,4.0,object-56,temp_dist_trial,17.0,t_s_18_1,travel_shared,first aid kit,5.0,competing,paired,t_s_18_1.jpg,Travel,,,sub-66
Desktop or Laptop,Windows 10,Chrome 135.0.0.0,1366x768,1366x768,Temporal Distance Task,cb_05,65.0,temp_dist_trial,dist_items,qkpkxw,2.0,continue,,2210.899999999907,2194.1999999999534,2210.899999999907,2210.899999999907,2194.1999999999534,2210.899999999907,1.0,0.0,0.0,,Click To Continue,Next button,7.0,object-60,temp_dist_trial,17.0,t_s_18_1,travel_shared,first aid kit,5.0,competing,paired,t_s_18_1.jpg,Travel,,,sub-66
Desktop or Laptop,Windows 10,Chrome 135.0.0.0,1366x768,1366x768,Temporal Distance Task,cb_05,65.0,temp_dist_trial,dist_items,qkpkxw,2.0,response,44,1230.0999999999767,2194.1999999999534,2210.899999999907,1230.0999999999767,2194.1999999999534,2210.899999999907,1.0,980.7999999999304,0.0,,Slider,Slider,4.0,object-56,temp_dist_trial,17.0,t_s_18_1,travel_shared,first aid kit,5.0,competing,paired,t_s_18_1.jpg,Travel,,,sub-66
Desktop or Laptop,Windows 10,Chrome 135.0.0.0,1366x768,1366x768,Temporal Distance Task,cb_05,66.0,temp_dist_trial,num_items,zn7si1,1.0,response,2_ITEM,1617.0999999284977,1612.4000000000233,1617.0999999284977,1617.0999999284977,1612.4000000000233,1617.0999999284977,1.0,0.0,0.0,,Click Response,2_count,5.0,object-49,temp_dist_trial,18.0,t_i_11_1,travel_Iceland,headlamp,5.0,unique,paired,t_i_11_1.jpg,Travel,,,sub-66
Desktop or Laptop,Windows 10,Chrome 135.0.0.0,1366x768,1366x768,Temporal Distance Task,cb_05,66.0,temp_dist_trial,dist_items,qkpkxw,2.0,info,,13.799999976181429,0.0,13.799999976181429,13.799999976181429,0.0,13.799999976181429,1.0,0.0,0.0,,Slider,Slider,4.0,object-56,temp_dist_trial,18.0,t_i_11_1,travel_Iceland,headlamp,5.0,unique,paired,t_i_11_1.jpg,Travel,,,sub-66
Desktop or Laptop,Windows 10,Chrome 135.0.0.0,1366x768,1366x768,Temporal Distance Task,cb_05,66.0,temp_dist_trial,dist_items,qkpkxw,2.0,continue,,4859.799999976181,4854.0,4859.799999976181,4859.799999976181,4854.0,4859.799999976181,1.0,0.0,0.0,,Click To Continue,Next button,7.0,object-60,temp_dist_trial,18.0,t_i_11_1,travel_Iceland,headlamp,5.0,unique,paired,t_i_11_1.jpg,Travel,,,sub-66
Desktop or Laptop,Windows 10,Chrome 135.0.0.0,1366x768,1366x768,Temporal Distance Task,cb_05,66.0,temp_dist_trial,dist_items,qkpkxw,2.0,response,38,3058.8000000000466,4854.0,4867.299999976181,3058.8000000000466,4854.0,4867.299999976181,1.0,1808.4999999761346,0.0,,Slider,Slider,4.0,object-56,temp_dist_trial,18.0,t_i_11_1,travel_Iceland,headlamp,5.0,unique,paired,t_i_11_1.jpg,Travel,,,sub-66
Desktop or Laptop,Windows 10,Chrome 135.0.0.0,1366x768,1366x768,Temporal Distance Task,cb_05,67.0,temp_dist_trial,num_items,zn7si1,1.0,response,2_ITEM,2749.799999976181,2742.8000000000466,2749.799999976181,2749.799999976181,2742.8000000000466,2749.799999976181,1.0,0.0,0.0,,Click Response,2_count,5.0,object-49,temp_dist_trial,19.0,t_s_04_1,travel_shared,instant camera,5.0,competing,paired,t_s_04_1.jpg,Travel,,,sub-66
Desktop or Laptop,Windows 10,Chrome 135.0.0.0,1366x768,1366x768,Temporal Distance Task,cb_05,67.0,temp_dist_trial,dist_items,qkpkxw,2.0,info,,10.999999928462785,0.0,10.999999928462785,10.999999928462785,0.0,10.999999928462785,1.0,0.0,0.0,,Slider,Slider,4.0,object-56,temp_dist_trial,19.0,t_s_04_1,travel_shared,instant camera,5.0,competing,paired,t_s_04_1.jpg,Travel,,,sub-66
Desktop or Laptop,Windows 10,Chrome 135.0.0.0,1366x768,1366x768,Temporal Distance Task,cb_05,67.0,temp_dist_trial,dist_items,qkpkxw,2.0,continue,,2101.899999904621,2094.5,2101.899999904621,2101.899999904621,2094.5,2101.899999904621,1.0,0.0,0.0,,Click To Continue,Next button,7.0,object-60,temp_dist_trial,19.0,t_s_04_1,travel_shared,instant camera,5.0,competing,paired,t_s_04_1.jpg,Travel,,,sub-66
Desktop or Laptop,Windows 10,Chrome 135.0.0.0,1366x768,1366x768,Temporal Distance Task,cb_05,67.0,temp_dist_trial,dist_items,qkpkxw,2.0,response,56,1063.899999999965,2094.5,2102.9999999284632,1063.899999999965,2094.5,2102.9999999284632,1.0,1039.0999999284977,0.0,,Slider,Slider,4.0,object-56,temp_dist_trial,19.0,t_s_04_1,travel_shared,instant camera,5.0,competing,paired,t_s_04_1.jpg,Travel,,,sub-66
Desktop or Laptop,Windows 10,Chrome 135.0.0.0,1366x768,1366x768,Temporal Distance Task,cb_05,68.0,temp_dist_trial,num_items,zn7si1,1.0,response,1_ITEM,1429.3000000000463,1412.7000000000116,1429.3000000000463,1429.3000000000463,1412.7000000000116,1429.3000000000463,1.0,0.0,0.0,,Click Response,1_count,3.0,object-46,temp_dist_trial,20.0,t_i_12_1,travel_Iceland,tent,5.0,unique,paired,t_i_12_1.jpg,Travel,,,sub-66
Desktop or Laptop,Windows 10,Chrome 135.0.0.0,1366x768,1366x768,Temporal Distance Task,cb_05,69.0,temp_dist_trial,num_items,zn7si1,1.0,response,num_miss,2992.2999999999884,2992.2999999999884,2992.2999999999884,2992.2999999999884,2992.2999999999884,2992.2999999999884,1.0,0.0,0.0,num_miss_tag,Time Limit,screen,0.0,screen,temp_dist_trial,21.0,t_i_07_1,travel_Iceland,hiking backpack,5.0,unique,paired,t_i_07_1.jpg,Travel,,,sub-66
Desktop or Laptop,Windows 10,Chrome 135.0.0.0,1366x768,1366x768,Temporal Distance Task,cb_05,70.0,temp_dist_trial,num_items,zn7si1,1.0,response,2_ITEM,1200.7999999999886,1196.7000000000114,1200.7999999999886,1200.7999999999886,1196.7000000000114,1200.7999999999886,1.0,0.0,0.0,,Click Response,2_count,5.0,object-49,temp_dist_trial,22.0,t_m_05_1,travel_Miami,sunscreen,5.0,unique,paired,t_m_05_1.jpg,Travel,,,sub-66
Desktop or Laptop,Windows 10,Chrome 135.0.0.0,1366x768,1366x768,Temporal Distance Task,cb_05,70.0,temp_dist_trial,dist_items,qkpkxw,2.0,info,,11.399999952293,0.0,11.399999952293,11.399999952293,0.0,11.399999952293,1.0,0.0,0.0,,Slider,Slider,4.0,object-56,temp_dist_trial,22.0,t_m_05_1,travel_Miami,sunscreen,5.0,unique,paired,t_m_05_1.jpg,Travel,,,sub-66
Desktop or Laptop,Windows 10,Chrome 135.0.0.0,1366x768,1366x768,Temporal Distance Task,cb_05,70.0,temp_dist_trial,dist_items,qkpkxw,2.0,continue,,3761.9999999761353,3756.6999999999534,3761.9999999761353,3761.9999999761353,3756.6999999999534,3761.9999999761353,1.0,0.0,0.0,,Click To Continue,Next button,7.0,object-60,temp_dist_trial,22.0,t_m_05_1,travel_Miami,sunscreen,5.0,unique,paired,t_m_05_1.jpg,Travel,,,sub-66
Desktop or Laptop,Windows 10,Chrome 135.0.0.0,1366x768,1366x768,Temporal Distance Task,cb_05,70.0,temp_dist_trial,dist_items,qkpkxw,2.0,response,55,2809.199999999953,3756.6999999999534,3762.799999928451,2809.199999999953,3756.6999999999534,3762.799999928451,1.0,953.5999999284976,0.0,,Slider,Slider,4.0,object-56,temp_dist_trial,22.0,t_m_05_1,travel_Miami,sunscreen,5.0,unique,paired,t_m_05_1.jpg,Travel,,,sub-66
Desktop or Laptop,Windows 10,Chrome 135.0.0.0,1366x768,1366x768,Temporal Distance Task,cb_05,71.0,temp_dist_trial,num_items,zn7si1,1.0,response,2_ITEM,1781.4000000000233,1778.5,1781.4000000000233,1781.4000000000233,1778.5,1781.4000000000233,1.0,0.0,0.0,,Click Response,2_count,5.0,object-49,temp_dist_trial,23.0,t_i_01_1,travel_Iceland,gloves,5.0,unique,paired,t_i_01_1.jpg,Travel,,,sub-66
Desktop or Laptop,Windows 10,Chrome 135.0.0.0,1366x768,1366x768,Temporal Distance Task,cb_05,71.0,temp_dist_trial,dist_items,qkpkxw,2.0,info,,8.299999928451141,0.0,8.299999928451141,8.299999928451141,0.0,8.299999928451141,1.0,0.0,0.0,,Slider,Slider,4.0,object-56,temp_dist_trial,23.0,t_i_01_1,travel_Iceland,gloves,5.0,unique,paired,t_i_01_1.jpg,Travel,,,sub-66
Desktop or Laptop,Windows 10,Chrome 135.0.0.0,1366x768,1366x768,Temporal Distance Task,cb_05,71.0,temp_dist_trial,dist_items,qkpkxw,2.0,continue,,2792.5999999999767,2776.0999999999767,2792.5999999999767,2792.5999999999767,2776.0999999999767,2792.5999999999767,1.0,0.0,0.0,,Click To Continue,Next button,7.0,object-60,temp_dist_trial,23.0,t_i_01_1,travel_Iceland,gloves,5.0,unique,paired,t_i_01_1.jpg,Travel,,,sub-66
Desktop or Laptop,Windows 10,Chrome 135.0.0.0,1366x768,1366x768,Temporal Distance Task,cb_05,71.0,temp_dist_trial,dist_items,qkpkxw,2.0,response,54,1296.6999999999534,2776.0999999999767,2792.5999999999767,1296.6999999999534,2776.0999999999767,2792.5999999999767,1.0,1495.9000000000233,0.0,,Slider,Slider,4.0,object-56,temp_dist_trial,23.0,t_i_01_1,travel_Iceland,gloves,5.0,unique,paired,t_i_01_1.jpg,Travel,,,sub-66
Desktop or Laptop,Windows 10,Chrome 135.0.0.0,1366x768,1366x768,Temporal Distance Task,cb_05,72.0,temp_dist_trial,num_items,zn7si1,1.0,response,1_ITEM,2137.5,2127.7999999999884,2137.5,2137.5,2127.7999999999884,2137.5,1.0,0.0,0.0,,Click Response,1_count,3.0,object-46,temp_dist_trial,24.0,t_m_17_1,travel_Miami,water gun,5.0,unique,single,t_m_17_1.jpg,Travel,,,sub-66
Desktop or Laptop,Windows 10,Chrome 135.0.0.0,1366x768,1366x768,Temporal Distance Task,cb_05,73.0,temp_dist_trial,num_items,zn7si1,1.0,response,2_ITEM,1327.5999999284975,1313.0,1327.5999999284975,1327.5999999284975,1313.0,1327.5999999284975,1.0,0.0,0.0,,Click Response,2_count,5.0,object-49,temp_dist_trial,25.0,t_s_03_1,travel_shared,portable charger,5.0,competing,single,t_s_03_1.jpg,Travel,,,sub-66
Desktop or Laptop,Windows 10,Chrome 135.0.0.0,1366x768,1366x768,Temporal Distance Task,cb_05,73.0,temp_dist_trial,dist_items,qkpkxw,2.0,info,,13.400000000023287,0.0,13.400000000023287,13.400000000023287,0.0,13.400000000023287,1.0,0.0,0.0,,Slider,Slider,4.0,object-56,temp_dist_trial,25.0,t_s_03_1,travel_shared,portable charger,5.0,competing,single,t_s_03_1.jpg,Travel,,,sub-66
Desktop or Laptop,Windows 10,Chrome 135.0.0.0,1366x768,1366x768,Temporal Distance Task,cb_05,73.0,temp_dist_trial,dist_items,qkpkxw,2.0,continue,,2109.9000000000233,2094.4000000000233,2109.9000000000233,2109.9000000000233,2094.4000000000233,2109.9000000000233,1.0,0.0,0.0,,Click To Continue,Next button,7.0,object-60,temp_dist_trial,25.0,t_s_03_1,travel_shared,portable charger,5.0,competing,single,t_s_03_1.jpg,Travel,,,sub-66
Desktop or Laptop,Windows 10,Chrome 135.0.0.0,1366x768,1366x768,Temporal Distance Task,cb_05,73.0,temp_dist_trial,dist_items,qkpkxw,2.0,response,56,1113.8000000000468,2094.4000000000233,2110.5999999284977,1113.8000000000468,2094.4000000000233,2110.5999999284977,1.0,996.7999999284513,0.0,,Slider,Slider,4.0,object-56,temp_dist_trial,25.0,t_s_03_1,travel_shared,portable charger,5.0,competing,single,t_s_03_1.jpg,Travel,,,sub-66
Desktop or Laptop,Windows 10,Chrome 135.0.0.0,1366x768,1366x768,Temporal Distance Task,cb_05,74.0,temp_dist_trial,num_items,zn7si1,1.0,response,num_miss,2992.0,2992.0,2992.0,2992.0,2992.0,2992.0,1.0,0.0,0.0,num_miss_tag,Time Limit,screen,0.0,screen,temp_dist_trial,26.0,t_i_06_1,travel_Iceland,knit hat,5.0,unique,paired,t_i_06_1.jpg,Travel,,,sub-66
Desktop or Laptop,Windows 10,Chrome 135.0.0.0,1366x768,1366x768,Temporal Distance Task,cb_05,75.0,temp_dist_trial,num_items,zn7si1,1.0,response,1_ITEM,478.5999999761697,465.5,478.5999999761697,478.5999999761697,465.5,478.5999999761697,1.0,0.0,0.0,,Click Response,1_count,3.0,object-46,temp_dist_trial,27.0,t_m_01_1,travel_Miami,sandals,5.0,unique,single,t_m_01_1.jpg,Travel,,,sub-66
Desktop or Laptop,Windows 10,Chrome 135.0.0.0,1366x768,1366x768,Temporal Distance Task,cb_05,76.0,temp_dist_trial,num_items,zn7si1,1.0,response,2_ITEM,2283.5999999284977,2277.4000000000233,2283.5999999284977,2283.5999999284977,2277.4000000000233,2283.5999999284977,1.0,0.0,0.0,,Click Response,2_count,5.0,object-49,temp_dist_trial,28.0,t_s_15_1,travel_shared,luggage tag,5.0,competing,paired,t_s_15_1.jpg,Travel,,,sub-66
Desktop or Laptop,Windows 10,Chrome 135.0.0.0,1366x768,1366x768,Temporal Distance Task,cb_05,76.0,temp_dist_trial,dist_items,qkpkxw,2.0,info,,10.299999999988355,0.0,10.299999999988355,10.299999999988355,0.0,10.299999999988355,1.0,0.0,0.0,,Slider,Slider,4.0,object-56,temp_dist_trial,28.0,t_s_15_1,travel_shared,luggage tag,5.0,competing,paired,t_s_15_1.jpg,Travel,,,sub-66
Desktop or Laptop,Windows 10,Chrome 135.0.0.0,1366x768,1366x768,Temporal Distance Task,cb_05,76.0,temp_dist_trial,dist_items,qkpkxw,2.0,continue,,2797.599999952305,2792.5999999999767,2797.599999952305,2797.599999952305,2792.5999999999767,2797.599999952305,1.0,0.0,0.0,,Click To Continue,Next button,7.0,object-60,temp_dist_trial,28.0,t_s_15_1,travel_shared,luggage tag,5.0,competing,paired,t_s_15_1.jpg,Travel,,,sub-66
Desktop or Laptop,Windows 10,Chrome 135.0.0.0,1366x768,1366x768,Temporal Distance Task,cb_05,76.0,temp_dist_trial,dist_items,qkpkxw,2.0,response,57,1745.5,2792.5999999999767,2798.2999999999884,1745.5,2792.5999999999767,2798.2999999999884,1.0,1052.7999999999884,0.0,,Slider,Slider,4.0,object-56,temp_dist_trial,28.0,t_s_15_1,travel_shared,luggage tag,5.0,competing,paired,t_s_15_1.jpg,Travel,,,sub-66
Desktop or Laptop,Windows 10,Chrome 135.0.0.0,1366x768,1366x768,Temporal Distance Task,cb_05,77.0,temp_dist_trial,num_items,zn7si1,1.0,response,2_ITEM,2396.700000000012,2393.600000000035,2396.700000000012,2396.700000000012,2393.600000000035,2396.700000000012,1.0,0.0,0.0,,Click Response,2_count,5.0,object-49,temp_dist_trial,29.0,t_s_02_1,travel_shared,water bottle,5.0,competing,single,t_s_02_1.jpg,Travel,,,sub-66
Desktop or Laptop,Windows 10,Chrome 135.0.0.0,1366x768,1366x768,Temporal Distance Task,cb_05,77.0,temp_dist_trial,dist_items,qkpkxw,2.0,info,,10.5,0.0,10.5,10.5,0.0,10.5,1.0,0.0,0.0,,Slider,Slider,4.0,object-56,temp_dist_trial,29.0,t_s_02_1,travel_shared,water bottle,5.0,competing,single,t_s_02_1.jpg,Travel,,,sub-66
Desktop or Laptop,Windows 10,Chrome 135.0.0.0,1366x768,1366x768,Temporal Distance Task,cb_05,77.0,temp_dist_trial,dist_items,qkpkxw,2.0,continue,,2433.399999976158,2426.7999999999884,2433.399999976158,2433.399999976158,2426.7999999999884,2433.399999976158,1.0,0.0,0.0,,Click To Continue,Next button,7.0,object-60,temp_dist_trial,29.0,t_s_02_1,travel_shared,water bottle,5.0,competing,single,t_s_02_1.jpg,Travel,,,sub-66
Desktop or Laptop,Windows 10,Chrome 135.0.0.0,1366x768,1366x768,Temporal Distance Task,cb_05,77.0,temp_dist_trial,dist_items,qkpkxw,2.0,response,55,1462.5999999999767,2426.7999999999884,2434.5,1462.5999999999767,2426.7999999999884,2434.5,1.0,971.9000000000232,0.0,,Slider,Slider,4.0,object-56,temp_dist_trial,29.0,t_s_02_1,travel_shared,water bottle,5.0,competing,single,t_s_02_1.jpg,Travel,,,sub-66
Desktop or Laptop,Windows 10,Chrome 135.0.0.0,1366x768,1366x768,Temporal Distance Task,cb_05,78.0,temp_dist_trial,num_items,zn7si1,1.0,response,num_miss,2992.100000000035,2992.100000000035,2992.100000000035,2992.100000000035,2992.100000000035,2992.100000000035,1.0,0.0,0.0,num_miss_tag,Time Limit,screen,0.0,screen,temp_dist_trial,30.0,t_m_11_1,travel_Miami,collapsible beach chair,5.0,unique,paired,t_m_11_1.jpg,Travel,,,sub-66
Desktop or Laptop,Windows 10,Chrome 135.0.0.0,1366x768,1366x768,Temporal Distance Task,cb_05,79.0,temp_dist_trial,num_items,zn7si1,1.0,response,2_ITEM,2373.999999904656,2360.4000000000233,2373.999999904656,2373.999999904656,2360.4000000000233,2373.999999904656,1.0,0.0,0.0,,Click Response,2_count,5.0,object-49,temp_dist_trial,31.0,t_s_22_1,travel_shared,belt,5.0,competing,paired,t_s_22_1.jpg,Travel,,,sub-66
Desktop or Laptop,Windows 10,Chrome 135.0.0.0,1366x768,1366x768,Temporal Distance Task,cb_05,79.0,temp_dist_trial,dist_items,qkpkxw,2.0,info,,11.899999952293,0.0,11.899999952293,11.899999952293,0.0,11.899999952293,1.0,0.0,0.0,,Slider,Slider,4.0,object-56,temp_dist_trial,31.0,t_s_22_1,travel_shared,belt,5.0,competing,paired,t_s_22_1.jpg,Travel,,,sub-66
Desktop or Laptop,Windows 10,Chrome 135.0.0.0,1366x768,1366x768,Temporal Distance Task,cb_05,79.0,temp_dist_trial,dist_items,qkpkxw,2.0,continue,,3429.0999999999767,3424.0999999999767,3429.0999999999767,3429.0999999999767,3424.0999999999767,3429.0999999999767,1.0,0.0,0.0,,Click To Continue,Next button,7.0,object-60,temp_dist_trial,31.0,t_s_22_1,travel_shared,belt,5.0,competing,paired,t_s_22_1.jpg,Travel,,,sub-66
Desktop or Laptop,Windows 10,Chrome 135.0.0.0,1366x768,1366x768,Temporal Distance Task,cb_05,79.0,temp_dist_trial,dist_items,qkpkxw,2.0,response,57,2160.899999999965,3424.0999999999767,3429.9999999761353,2160.899999999965,3424.0999999999767,3429.9999999761353,1.0,1269.0999999761698,0.0,,Slider,Slider,4.0,object-56,temp_dist_trial,31.0,t_s_22_1,travel_shared,belt,5.0,competing,paired,t_s_22_1.jpg,Travel,,,sub-66
Desktop or Laptop,Windows 10,Chrome 135.0.0.0,1366x768,1366x768,Temporal Distance Task,cb_05,80.0,temp_dist_trial,num_items,zn7si1,1.0,response,2_ITEM,1761.5999999046326,1745.2999999999884,1761.5999999046326,1761.5999999046326,1745.2999999999884,1761.5999999046326,1.0,0.0,0.0,,Click Response,2_count,5.0,object-49,temp_dist_trial,32.0,t_s_24_1,travel_shared,ear plugs,5.0,competing,paired,t_s_24_1.jpg,Travel,,,sub-66
Desktop or Laptop,Windows 10,Chrome 135.0.0.0,1366x768,1366x768,Temporal Distance Task,cb_05,80.0,temp_dist_trial,dist_items,qkpkxw,2.0,info,,8.900000000023283,0.0,8.900000000023283,8.900000000023283,0.0,8.900000000023283,1.0,0.0,0.0,,Slider,Slider,4.0,object-56,temp_dist_trial,32.0,t_s_24_1,travel_shared,ear plugs,5.0,competing,paired,t_s_24_1.jpg,Travel,,,sub-66
Desktop or Laptop,Windows 10,Chrome 135.0.0.0,1366x768,1366x768,Temporal Distance Task,cb_05,80.0,temp_dist_trial,dist_items,qkpkxw,2.0,continue,,2535.0999999284977,2526.700000000012,2535.0999999284977,2535.0999999284977,2526.700000000012,2535.0999999284977,1.0,0.0,0.0,,Click To Continue,Next button,7.0,object-60,temp_dist_trial,32.0,t_s_24_1,travel_shared,ear plugs,5.0,competing,paired,t_s_24_1.jpg,Travel,,,sub-66
Desktop or Laptop,Windows 10,Chrome 135.0.0.0,1366x768,1366x768,Temporal Distance Task,cb_05,80.0,temp_dist_trial,dist_items,qkpkxw,2.0,response,53,1130.3000000000466,2526.700000000012,2538.799999976181,1130.3000000000466,2526.700000000012,2538.799999976181,1.0,1408.4999999761346,0.0,,Slider,Slider,4.0,object-56,temp_dist_trial,32.0,t_s_24_1,travel_shared,ear plugs,5.0,competing,paired,t_s_24_1.jpg,Travel,,,sub-66
Desktop or Laptop,Windows 10,Chrome 135.0.0.0,1366x768,1366x768,Temporal Distance Task,cb_05,81.0,temp_dist_trial,num_items,zn7si1,1.0,response,2_ITEM,1375.7999999046442,1363.0,1375.7999999046442,1375.7999999046442,1363.0,1375.7999999046442,1.0,0.0,0.0,,Click Response,2_count,5.0,object-49,temp_dist_trial,33.0,t_s_09_1,travel_shared,wallet,5.0,competing,single,t_s_09_1.jpg,Travel,,,sub-66
Desktop or Laptop,Windows 10,Chrome 135.0.0.0,1366x768,1366x768,Temporal Distance Task,cb_05,81.0,temp_dist_trial,dist_items,qkpkxw,2.0,info,,6.799999999988358,0.0,6.799999999988358,6.799999999988358,0.0,6.799999999988358,1.0,0.0,0.0,,Slider,Slider,4.0,object-56,temp_dist_trial,33.0,t_s_09_1,travel_shared,wallet,5.0,competing,single,t_s_09_1.jpg,Travel,,,sub-66
Desktop or Laptop,Windows 10,Chrome 135.0.0.0,1366x768,1366x768,Temporal Distance Task,cb_05,81.0,temp_dist_trial,dist_items,qkpkxw,2.0,continue,,2932.9999999284632,2925.5999999999767,2932.9999999284632,2932.9999999284632,2925.5999999999767,2932.9999999284632,1.0,0.0,0.0,,Click To Continue,Next button,7.0,object-60,temp_dist_trial,33.0,t_s_09_1,travel_shared,wallet,5.0,competing,single,t_s_09_1.jpg,Travel,,,sub-66
Desktop or Laptop,Windows 10,Chrome 135.0.0.0,1366x768,1366x768,Temporal Distance Task,cb_05,81.0,temp_dist_trial,dist_items,qkpkxw,2.0,response,58,1712.0999999999767,2925.5999999999767,2933.7999999999884,1712.0999999999767,2925.5999999999767,2933.7999999999884,1.0,1221.7000000000114,0.0,,Slider,Slider,4.0,object-56,temp_dist_trial,33.0,t_s_09_1,travel_shared,wallet,5.0,competing,single,t_s_09_1.jpg,Travel,,,sub-66
Desktop or Laptop,Windows 10,Chrome 135.0.0.0,1366x768,1366x768,Temporal Distance Task,cb_05,82.0,temp_dist_trial,num_items,zn7si1,1.0,response,1_ITEM,2031.2000000000119,2028.0,2031.2000000000119,2031.2000000000119,2028.0,2031.2000000000119,1.0,0.0,0.0,,Click Response,1_count,3.0,object-46,temp_dist_trial,34.0,t_i_15_1,travel_Iceland,compass,5.0,unique,single,t_i_15_1.jpg,Travel,,,sub-66
Desktop or Laptop,Windows 10,Chrome 135.0.0.0,1366x768,1366x768,Temporal Distance Task,cb_05,83.0,temp_dist_trial,num_items,zn7si1,1.0,response,1_ITEM,2193.399999976158,2177.700000000012,2193.399999976158,2193.399999976158,2177.700000000012,2193.399999976158,1.0,0.0,0.0,,Click Response,1_count,3.0,object-46,temp_dist_trial,35.0,t_m_13_1,travel_Miami,floatie,5.0,unique,paired,t_m_13_1.jpg,Travel,,,sub-66
Desktop or Laptop,Windows 10,Chrome 135.0.0.0,1366x768,1366x768,Temporal Distance Task,cb_05,84.0,temp_dist_trial,num_items,zn7si1,1.0,response,1_ITEM,2838.699999928475,2825.7999999999884,2838.699999928475,2838.699999928475,2825.7999999999884,2838.699999928475,1.0,0.0,0.0,,Click Response,1_count,3.0,object-46,temp_dist_trial,36.0,t_i_05_1,travel_Iceland,hiking boots,5.0,unique,single,t_i_05_1.jpg,Travel,,,sub-66
Desktop or Laptop,Windows 10,Chrome 135.0.0.0,1366x768,1366x768,Temporal Distance Task,cb_05,85.0,temp_dist_trial,num_items,zn7si1,1.0,response,2_ITEM,2395.4999999284632,2393.599999999977,2395.4999999284632,2395.4999999284632,2393.599999999977,2395.4999999284632,1.0,0.0,0.0,,Click Response,2_count,5.0,object-49,temp_dist_trial,37.0,t_i_09_1,travel_Iceland,ear muffs,5.0,unique,single,t_i_09_1.jpg,Travel,,,sub-66
