Participant Device,Participant OS,Participant Browser,Participant Monitor Size,Participant Viewport Size,Task Name,Current Spreadsheet,Trial Number,Display,Screen,Screen ID,Screen Counter,Response Type,Response,Onset Time,Clock Time,Reaction Time,Absolute Onset Time,Absolute Clock Time,Absolute Reaction Time,Correct,Response Duration,Proportion,Tag,Component Name,Object Name,Object Number,Object ID,Spreadsheet: display,Spreadsheet: trial,Spreadsheet: stimulus_id,Spreadsheet: expected_goal,Spreadsheet: stimulus_name,Spreadsheet: c_group,Spreadsheet: condition,Spreadsheet: paired_status,Spreadsheet: stimulus_path,Spreadsheet: block_type,Manipulation: Spreadsheet,Store: enc_test_acc,sub_label
Desktop or Laptop,Windows 10,Chrome 138.0.0.0,1920x1080,1920x1080,Temporal Distance Task,,,,,,,info,BEGIN,,,,,,,,,,,,,,,,,,,,,,,,,$${counterbalance_group},,sub-100
Desktop or Laptop,Windows 10,Chrome 138.0.0.0,1920x1080,1920x1080,Temporal Distance Task,cb_09,1.0,temp_instructions,intro_screen,3tnme7,1.0,continue,,15530.700000023842,15525.7,15530.700000023842,15530.700000023842,15525.7,15530.700000023842,1.0,0.0,0.0,,Click To Continue,Continue Button,4.0,object-29,temp_instructions,,,Student,,,,,,,$${counterbalance_group},,sub-100
Desktop or Laptop,Windows 10,Chrome 138.0.0.0,1920x1080,1920x1080,Temporal Distance Task,cb_09,1.0,temp_instructions,intro_screen_2,52v7ur,2.0,continue,,14852.79999997616,14842.6,14852.79999997616,14852.79999997616,14842.6,14852.79999997616,1.0,0.0,0.0,,Click To Continue,Continue Button,4.0,object-39,temp_instructions,,,Student,,,,,,,$${counterbalance_group},,sub-100
Desktop or Laptop,Windows 10,Chrome 138.0.0.0,1920x1080,1920x1080,Temporal Distance Task,cb_09,1.0,temp_instructions,intro_screen_3,i7lvwx,3.0,continue,,7329.599999952319,7313.100000000006,7329.599999952319,7329.599999952319,7313.100000000006,7329.599999952319,1.0,0.0,0.0,,Click To Continue,Continue Button,4.0,object-67,temp_instructions,,,Student,,,,,,,$${counterbalance_group},,sub-100
Desktop or Laptop,Windows 10,Chrome 138.0.0.0,1920x1080,1920x1080,Temporal Distance Task,cb_09,1.0,temp_instructions,test_q1,5ieqx1,4.0,response,choice_3,13034.599999976155,13026.799999999996,13034.599999976155,13034.599999976155,13026.799999999996,13034.599999976155,1.0,0.0,0.0,,Click Response,choice_3,5.0,object-345,temp_instructions,,,Student,,,,,,,$${counterbalance_group},,sub-100
Desktop or Laptop,Windows 10,Chrome 138.0.0.0,1920x1080,1920x1080,Temporal Distance Task,cb_09,1.0,temp_instructions,score_corr,7ilvjr,5.0,continue,,1382.900000000009,1366.2000000000044,1382.900000000009,1382.900000000009,1366.2000000000044,1382.900000000009,1.0,0.0,0.0,,Click To Continue,Continue Button,3.0,object-23,temp_instructions,,,Student,,,,,,,$${counterbalance_group},,sub-100
Desktop or Laptop,Windows 10,Chrome 138.0.0.0,1920x1080,1920x1080,Temporal Distance Task,cb_09,1.0,temp_eventStart,Screen 1,dgtyxe,1.0,continue,,2896.800000023839,2881.7999999999956,2896.800000023839,2896.800000023839,2881.7999999999956,2896.800000023839,1.0,0.0,0.0,,Click To Continue,Next Button,3.0,object-43,temp_eventStart,,,Student,,,,,,,$${counterbalance_group},,sub-100
Desktop or Laptop,Windows 10,Chrome 138.0.0.0,1920x1080,1920x1080,Temporal Distance Task,cb_09,1.0,temp_dist_trial,num_items,zn7si1,1.0,response,2_ITEM,2981.900000000009,2965.2000000000044,2981.900000000009,2981.900000000009,2965.2000000000044,2981.900000000009,1.0,0.0,0.0,,Click Response,2_count,5.0,object-49,temp_dist_trial,1.0,s_a_05_1,student_art,clay,9.0,unique,paired,s_a_05_1.jpg,Student,$${counterbalance_group},,sub-100
Desktop or Laptop,Windows 10,Chrome 138.0.0.0,1920x1080,1920x1080,Temporal Distance Task,cb_09,1.0,temp_dist_trial,dist_items,qkpkxw,2.0,info,,16.69999999999709,0.0,16.69999999999709,16.69999999999709,0.0,16.69999999999709,1.0,0.0,0.0,,Slider,Slider,4.0,object-56,temp_dist_trial,1.0,s_a_05_1,student_art,clay,9.0,unique,paired,s_a_05_1.jpg,Student,$${counterbalance_group},,sub-100
Desktop or Laptop,Windows 10,Chrome 138.0.0.0,1920x1080,1920x1080,Temporal Distance Task,cb_09,1.0,temp_dist_trial,dist_items,qkpkxw,2.0,response,dist_miss,6996.400000000009,6996.400000000009,6996.400000000009,6996.400000000009,6996.400000000009,6996.400000000009,1.0,0.0,0.0,dist_miss_tag,Time Limit,screen,0.0,screen,temp_dist_trial,1.0,s_a_05_1,student_art,clay,9.0,unique,paired,s_a_05_1.jpg,Student,$${counterbalance_group},,sub-100
Desktop or Laptop,Windows 10,Chrome 138.0.0.0,1920x1080,1920x1080,Temporal Distance Task,cb_09,1.0,temp_dist_trial,dist_items,qkpkxw,2.0,response,67,2598.5,6996.400000000009,7003.800000000002,2598.5,6996.400000000009,7003.800000000002,1.0,4405.300000000003,0.0,,Slider,Slider,4.0,object-56,temp_dist_trial,1.0,s_a_05_1,student_art,clay,9.0,unique,paired,s_a_05_1.jpg,Student,$${counterbalance_group},,sub-100
Desktop or Laptop,Windows 10,Chrome 138.0.0.0,1920x1080,1920x1080,Temporal Distance Task,cb_09,2.0,temp_dist_trial,num_items,zn7si1,1.0,response,1_ITEM,2843.7999999761523,2832.0,2843.7999999761523,2843.7999999761523,2832.0,2843.7999999761523,1.0,0.0,0.0,,Click Response,1_count,3.0,object-46,temp_dist_trial,2.0,s_sh_23_1,student_shared,ballpoint pen,9.0,competing,single,s_sh_23_1.jpg,Student,$${counterbalance_group},,sub-100
Desktop or Laptop,Windows 10,Chrome 138.0.0.0,1920x1080,1920x1080,Temporal Distance Task,cb_09,3.0,temp_dist_trial,num_items,zn7si1,1.0,response,2_ITEM,1449.2000000000116,1432.6000000000058,1449.2000000000116,1449.2000000000116,1432.6000000000058,1449.2000000000116,1.0,0.0,0.0,,Click Response,2_count,5.0,object-49,temp_dist_trial,3.0,s_s_11_1,student_stem,scientific scale,9.0,unique,single,s_s_11_1.jpg,Student,$${counterbalance_group},,sub-100
Desktop or Laptop,Windows 10,Chrome 138.0.0.0,1920x1080,1920x1080,Temporal Distance Task,cb_09,3.0,temp_dist_trial,dist_items,qkpkxw,2.0,info,,16.69999999999709,0.0,16.69999999999709,16.69999999999709,0.0,16.69999999999709,1.0,0.0,0.0,,Slider,Slider,4.0,object-56,temp_dist_trial,3.0,s_s_11_1,student_stem,scientific scale,9.0,unique,single,s_s_11_1.jpg,Student,$${counterbalance_group},,sub-100
Desktop or Laptop,Windows 10,Chrome 138.0.0.0,1920x1080,1920x1080,Temporal Distance Task,cb_09,3.0,temp_dist_trial,dist_items,qkpkxw,2.0,continue,,3639.9999999523134,3631.699999999997,3639.9999999523134,3639.9999999523134,3631.699999999997,3639.9999999523134,1.0,0.0,0.0,,Click To Continue,Next button,7.0,object-60,temp_dist_trial,3.0,s_s_11_1,student_stem,scientific scale,9.0,unique,single,s_s_11_1.jpg,Student,$${counterbalance_group},,sub-100
Desktop or Laptop,Windows 10,Chrome 138.0.0.0,1920x1080,1920x1080,Temporal Distance Task,cb_09,3.0,temp_dist_trial,dist_items,qkpkxw,2.0,response,71,2215.699999999997,3631.699999999997,3641.300000023839,2215.699999999997,3631.699999999997,3641.300000023839,1.0,1425.6000000238419,0.0,,Slider,Slider,4.0,object-56,temp_dist_trial,3.0,s_s_11_1,student_stem,scientific scale,9.0,unique,single,s_s_11_1.jpg,Student,$${counterbalance_group},,sub-100
Desktop or Laptop,Windows 10,Chrome 138.0.0.0,1920x1080,1920x1080,Temporal Distance Task,cb_09,4.0,temp_dist_trial,num_items,zn7si1,1.0,response,2_ITEM,1511.6000000238419,1499.1999999999966,1511.6000000238419,1511.6000000238419,1499.1999999999966,1511.6000000238419,1.0,0.0,0.0,,Click Response,2_count,5.0,object-49,temp_dist_trial,4.0,s_sh_16_1,student_shared,stapler,9.0,competing,single,s_sh_16_1.jpg,Student,$${counterbalance_group},,sub-100
Desktop or Laptop,Windows 10,Chrome 138.0.0.0,1920x1080,1920x1080,Temporal Distance Task,cb_09,4.0,temp_dist_trial,dist_items,qkpkxw,2.0,info,,16.59999999999127,0.0,16.59999999999127,16.59999999999127,0.0,16.59999999999127,1.0,0.0,0.0,,Slider,Slider,4.0,object-56,temp_dist_trial,4.0,s_sh_16_1,student_shared,stapler,9.0,competing,single,s_sh_16_1.jpg,Student,$${counterbalance_group},,sub-100
Desktop or Laptop,Windows 10,Chrome 138.0.0.0,1920x1080,1920x1080,Temporal Distance Task,cb_09,4.0,temp_dist_trial,dist_items,qkpkxw,2.0,continue,,2540.300000047689,2532.200000000012,2540.300000047689,2540.300000047689,2532.200000000012,2540.300000047689,1.0,0.0,0.0,,Click To Continue,Next button,7.0,object-60,temp_dist_trial,4.0,s_sh_16_1,student_shared,stapler,9.0,competing,single,s_sh_16_1.jpg,Student,$${counterbalance_group},,sub-100
Desktop or Laptop,Windows 10,Chrome 138.0.0.0,1920x1080,1920x1080,Temporal Distance Task,cb_09,4.0,temp_dist_trial,dist_items,qkpkxw,2.0,response,76,1349.6000000000058,2532.200000000012,2540.899999952322,1349.6000000000058,2532.200000000012,2540.899999952322,1.0,1191.2999999523165,0.0,,Slider,Slider,4.0,object-56,temp_dist_trial,4.0,s_sh_16_1,student_shared,stapler,9.0,competing,single,s_sh_16_1.jpg,Student,$${counterbalance_group},,sub-100
Desktop or Laptop,Windows 10,Chrome 138.0.0.0,1920x1080,1920x1080,Temporal Distance Task,cb_09,5.0,temp_dist_trial,num_items,zn7si1,1.0,response,2_ITEM,1120.000000023836,1116.0999999999913,1120.000000023836,1120.000000023836,1116.0999999999913,1120.000000023836,1.0,0.0,0.0,,Click Response,2_count,5.0,object-49,temp_dist_trial,5.0,s_sh_01_1,student_shared,notebook,9.0,competing,paired,s_sh_01_1.jpg,Student,$${counterbalance_group},,sub-100
Desktop or Laptop,Windows 10,Chrome 138.0.0.0,1920x1080,1920x1080,Temporal Distance Task,cb_09,5.0,temp_dist_trial,dist_items,qkpkxw,2.0,info,,16.60000000000582,0.0,16.60000000000582,16.60000000000582,0.0,16.60000000000582,1.0,0.0,0.0,,Slider,Slider,4.0,object-56,temp_dist_trial,5.0,s_sh_01_1,student_shared,notebook,9.0,competing,paired,s_sh_01_1.jpg,Student,$${counterbalance_group},,sub-100
Desktop or Laptop,Windows 10,Chrome 138.0.0.0,1920x1080,1920x1080,Temporal Distance Task,cb_09,5.0,temp_dist_trial,dist_items,qkpkxw,2.0,continue,,2504.399999976158,2498.699999999997,2504.399999976158,2504.399999976158,2498.699999999997,2504.399999976158,1.0,0.0,0.0,,Click To Continue,Next button,7.0,object-60,temp_dist_trial,5.0,s_sh_01_1,student_shared,notebook,9.0,competing,paired,s_sh_01_1.jpg,Student,$${counterbalance_group},,sub-100
Desktop or Laptop,Windows 10,Chrome 138.0.0.0,1920x1080,1920x1080,Temporal Distance Task,cb_09,5.0,temp_dist_trial,dist_items,qkpkxw,2.0,response,65,1099.6000000000058,2498.699999999997,2505.100000023842,1099.6000000000058,2498.699999999997,2505.100000023842,1.0,1405.500000023836,0.0,,Slider,Slider,4.0,object-56,temp_dist_trial,5.0,s_sh_01_1,student_shared,notebook,9.0,competing,paired,s_sh_01_1.jpg,Student,$${counterbalance_group},,sub-100
Desktop or Laptop,Windows 10,Chrome 138.0.0.0,1920x1080,1920x1080,Temporal Distance Task,cb_09,6.0,temp_dist_trial,num_items,zn7si1,1.0,response,1_ITEM,1877.1999999761608,1865.900000000009,1877.1999999761608,1877.1999999761608,1865.900000000009,1877.1999999761608,1.0,0.0,0.0,,Click Response,1_count,3.0,object-46,temp_dist_trial,6.0,s_sh_19_1,student_shared,portable plastic drawer,9.0,competing,single,s_sh_19_1.jpg,Student,$${counterbalance_group},,sub-100
Desktop or Laptop,Windows 10,Chrome 138.0.0.0,1920x1080,1920x1080,Temporal Distance Task,cb_09,7.0,temp_dist_trial,num_items,zn7si1,1.0,response,2_ITEM,1032.2000000476835,1016.0,1032.2000000476835,1032.2000000476835,1016.0,1032.2000000476835,1.0,0.0,0.0,,Click Response,2_count,5.0,object-49,temp_dist_trial,7.0,s_sh_21_1,student_shared,file holder,9.0,competing,single,s_sh_21_1.jpg,Student,$${counterbalance_group},,sub-100
Desktop or Laptop,Windows 10,Chrome 138.0.0.0,1920x1080,1920x1080,Temporal Distance Task,cb_09,7.0,temp_dist_trial,dist_items,qkpkxw,2.0,info,,16.59999999999127,0.0,16.59999999999127,16.59999999999127,0.0,16.59999999999127,1.0,0.0,0.0,,Slider,Slider,4.0,object-56,temp_dist_trial,7.0,s_sh_21_1,student_shared,file holder,9.0,competing,single,s_sh_21_1.jpg,Student,$${counterbalance_group},,sub-100
Desktop or Laptop,Windows 10,Chrome 138.0.0.0,1920x1080,1920x1080,Temporal Distance Task,cb_09,7.0,temp_dist_trial,dist_items,qkpkxw,2.0,continue,,3702.700000023848,3698.200000000012,3702.700000023848,3702.700000023848,3698.200000000012,3702.700000023848,1.0,0.0,0.0,,Click To Continue,Next button,7.0,object-60,temp_dist_trial,7.0,s_sh_21_1,student_shared,file holder,9.0,competing,single,s_sh_21_1.jpg,Student,$${counterbalance_group},,sub-100
Desktop or Laptop,Windows 10,Chrome 138.0.0.0,1920x1080,1920x1080,Temporal Distance Task,cb_09,7.0,temp_dist_trial,dist_items,qkpkxw,2.0,response,72,2782.0,3698.200000000012,3708.200000023848,2782.0,3698.200000000012,3708.200000023848,1.0,926.2000000238477,0.0,,Slider,Slider,4.0,object-56,temp_dist_trial,7.0,s_sh_21_1,student_shared,file holder,9.0,competing,single,s_sh_21_1.jpg,Student,$${counterbalance_group},,sub-100
Desktop or Laptop,Windows 10,Chrome 138.0.0.0,1920x1080,1920x1080,Temporal Distance Task,cb_09,8.0,temp_dist_trial,num_items,zn7si1,1.0,response,2_ITEM,989.6999999523103,982.7999999999884,989.6999999523103,989.6999999523103,982.7999999999884,989.6999999523103,1.0,0.0,0.0,,Click Response,2_count,5.0,object-49,temp_dist_trial,8.0,s_a_18_1,student_art,tutu,9.0,unique,paired,s_a_18_1.jpg,Student,$${counterbalance_group},,sub-100
Desktop or Laptop,Windows 10,Chrome 138.0.0.0,1920x1080,1920x1080,Temporal Distance Task,cb_09,8.0,temp_dist_trial,dist_items,qkpkxw,2.0,info,,16.59999999999127,0.0,16.59999999999127,16.59999999999127,0.0,16.59999999999127,1.0,0.0,0.0,,Slider,Slider,4.0,object-56,temp_dist_trial,8.0,s_a_18_1,student_art,tutu,9.0,unique,paired,s_a_18_1.jpg,Student,$${counterbalance_group},,sub-100
Desktop or Laptop,Windows 10,Chrome 138.0.0.0,1920x1080,1920x1080,Temporal Distance Task,cb_09,8.0,temp_dist_trial,dist_items,qkpkxw,2.0,continue,,2470.599999952319,2465.4000000000087,2470.599999952319,2470.599999952319,2465.4000000000087,2470.599999952319,1.0,0.0,0.0,,Click To Continue,Next button,7.0,object-60,temp_dist_trial,8.0,s_a_18_1,student_art,tutu,9.0,unique,paired,s_a_18_1.jpg,Student,$${counterbalance_group},,sub-100
Desktop or Laptop,Windows 10,Chrome 138.0.0.0,1920x1080,1920x1080,Temporal Distance Task,cb_09,8.0,temp_dist_trial,dist_items,qkpkxw,2.0,response,73,1382.8000000000034,2465.4000000000087,2471.9000000238448,1382.8000000000034,2465.4000000000087,2471.9000000238448,1.0,1089.100000023842,0.0,,Slider,Slider,4.0,object-56,temp_dist_trial,8.0,s_a_18_1,student_art,tutu,9.0,unique,paired,s_a_18_1.jpg,Student,$${counterbalance_group},,sub-100
Desktop or Laptop,Windows 10,Chrome 138.0.0.0,1920x1080,1920x1080,Temporal Distance Task,cb_09,9.0,temp_dist_trial,num_items,zn7si1,1.0,response,2_ITEM,939.6999999523103,933.0,939.6999999523103,939.6999999523103,933.0,939.6999999523103,1.0,0.0,0.0,,Click Response,2_count,5.0,object-49,temp_dist_trial,9.0,s_s_07_1,student_stem,periodic table,9.0,unique,paired,s_s_07_1.jpg,Student,$${counterbalance_group},,sub-100
Desktop or Laptop,Windows 10,Chrome 138.0.0.0,1920x1080,1920x1080,Temporal Distance Task,cb_09,9.0,temp_dist_trial,dist_items,qkpkxw,2.0,info,,16.59999999999127,0.0,16.59999999999127,16.59999999999127,0.0,16.59999999999127,1.0,0.0,0.0,,Slider,Slider,4.0,object-56,temp_dist_trial,9.0,s_s_07_1,student_stem,periodic table,9.0,unique,paired,s_s_07_1.jpg,Student,$${counterbalance_group},,sub-100
Desktop or Laptop,Windows 10,Chrome 138.0.0.0,1920x1080,1920x1080,Temporal Distance Task,cb_09,9.0,temp_dist_trial,dist_items,qkpkxw,2.0,continue,,2339.700000023848,2332.200000000012,2339.700000023848,2339.700000023848,2332.200000000012,2339.700000023848,1.0,0.0,0.0,,Click To Continue,Next button,7.0,object-60,temp_dist_trial,9.0,s_s_07_1,student_stem,periodic table,9.0,unique,paired,s_s_07_1.jpg,Student,$${counterbalance_group},,sub-100
Desktop or Laptop,Windows 10,Chrome 138.0.0.0,1920x1080,1920x1080,Temporal Distance Task,cb_09,9.0,temp_dist_trial,dist_items,qkpkxw,2.0,response,75,966.2000000000116,2332.200000000012,2340.1000000000063,966.2000000000116,2332.200000000012,2340.1000000000063,1.0,1373.8999999999942,0.0,,Slider,Slider,4.0,object-56,temp_dist_trial,9.0,s_s_07_1,student_stem,periodic table,9.0,unique,paired,s_s_07_1.jpg,Student,$${counterbalance_group},,sub-100
Desktop or Laptop,Windows 10,Chrome 138.0.0.0,1920x1080,1920x1080,Temporal Distance Task,cb_09,10.0,temp_dist_trial,num_items,zn7si1,1.0,response,1_ITEM,2369.799999976153,2365.3999999999937,2369.799999976153,2369.799999976153,2365.3999999999937,2369.799999976153,1.0,0.0,0.0,,Click Response,1_count,3.0,object-46,temp_dist_trial,10.0,s_sh_02_1,student_shared,eraser,9.0,competing,single,s_sh_02_1.jpg,Student,$${counterbalance_group},,sub-100
Desktop or Laptop,Windows 10,Chrome 138.0.0.0,1920x1080,1920x1080,Temporal Distance Task,cb_09,11.0,temp_dist_trial,num_items,zn7si1,1.0,response,2_ITEM,1123.899999976158,1116.1000000000058,1123.899999976158,1123.899999976158,1116.1000000000058,1123.899999976158,1.0,0.0,0.0,,Click Response,2_count,5.0,object-49,temp_dist_trial,11.0,s_sh_06_1,student_shared,clipboard,9.0,competing,paired,s_sh_06_1.jpg,Student,$${counterbalance_group},,sub-100
Desktop or Laptop,Windows 10,Chrome 138.0.0.0,1920x1080,1920x1080,Temporal Distance Task,cb_09,11.0,temp_dist_trial,dist_items,qkpkxw,2.0,info,,16.5,0.0,16.5,16.5,0.0,16.5,1.0,0.0,0.0,,Slider,Slider,4.0,object-56,temp_dist_trial,11.0,s_sh_06_1,student_shared,clipboard,9.0,competing,paired,s_sh_06_1.jpg,Student,$${counterbalance_group},,sub-100
Desktop or Laptop,Windows 10,Chrome 138.0.0.0,1920x1080,1920x1080,Temporal Distance Task,cb_09,11.0,temp_dist_trial,dist_items,qkpkxw,2.0,continue,,2596.1000000000063,2582.1000000000063,2596.1000000000063,2596.1000000000063,2582.1000000000063,2596.1000000000063,1.0,0.0,0.0,,Click To Continue,Next button,7.0,object-60,temp_dist_trial,11.0,s_sh_06_1,student_shared,clipboard,9.0,competing,paired,s_sh_06_1.jpg,Student,$${counterbalance_group},,sub-100
Desktop or Laptop,Windows 10,Chrome 138.0.0.0,1920x1080,1920x1080,Temporal Distance Task,cb_09,11.0,temp_dist_trial,dist_items,qkpkxw,2.0,response,70,1316.0,2582.1000000000063,2596.700000023848,1316.0,2582.1000000000063,2596.700000023848,1.0,1280.7000000238475,0.0,,Slider,Slider,4.0,object-56,temp_dist_trial,11.0,s_sh_06_1,student_shared,clipboard,9.0,competing,paired,s_sh_06_1.jpg,Student,$${counterbalance_group},,sub-100
Desktop or Laptop,Windows 10,Chrome 138.0.0.0,1920x1080,1920x1080,Temporal Distance Task,cb_09,12.0,temp_dist_trial,num_items,zn7si1,1.0,response,2_ITEM,1188.600000023842,1182.6999999999969,1188.600000023842,1188.600000023842,1182.6999999999969,1188.600000023842,1.0,0.0,0.0,,Click Response,2_count,5.0,object-49,temp_dist_trial,12.0,s_sh_17_1,student_shared,wireless mouse,9.0,competing,paired,s_sh_17_1.jpg,Student,$${counterbalance_group},,sub-100
Desktop or Laptop,Windows 10,Chrome 138.0.0.0,1920x1080,1920x1080,Temporal Distance Task,cb_09,12.0,temp_dist_trial,dist_items,qkpkxw,2.0,info,,16.69999999999709,0.0,16.69999999999709,16.69999999999709,0.0,16.69999999999709,1.0,0.0,0.0,,Slider,Slider,4.0,object-56,temp_dist_trial,12.0,s_sh_17_1,student_shared,wireless mouse,9.0,competing,paired,s_sh_17_1.jpg,Student,$${counterbalance_group},,sub-100
Desktop or Laptop,Windows 10,Chrome 138.0.0.0,1920x1080,1920x1080,Temporal Distance Task,cb_09,12.0,temp_dist_trial,dist_items,qkpkxw,2.0,continue,,2645.4000000238448,2632.0,2645.4000000238448,2645.4000000238448,2632.0,2645.4000000238448,1.0,0.0,0.0,,Click To Continue,Next button,7.0,object-60,temp_dist_trial,12.0,s_sh_17_1,student_shared,wireless mouse,9.0,competing,paired,s_sh_17_1.jpg,Student,$${counterbalance_group},,sub-100
Desktop or Laptop,Windows 10,Chrome 138.0.0.0,1920x1080,1920x1080,Temporal Distance Task,cb_09,12.0,temp_dist_trial,dist_items,qkpkxw,2.0,response,76,1199.4000000000087,2632.0,2646.300000000003,1199.4000000000087,2632.0,2646.300000000003,1.0,1446.8999999999942,0.0,,Slider,Slider,4.0,object-56,temp_dist_trial,12.0,s_sh_17_1,student_shared,wireless mouse,9.0,competing,paired,s_sh_17_1.jpg,Student,$${counterbalance_group},,sub-100
Desktop or Laptop,Windows 10,Chrome 138.0.0.0,1920x1080,1920x1080,Temporal Distance Task,cb_09,13.0,temp_dist_trial,num_items,zn7si1,1.0,response,1_ITEM,1366.2000000000114,1349.4000000000087,1366.2000000000114,1366.2000000000114,1349.4000000000087,1366.2000000000114,1.0,0.0,0.0,,Click Response,1_count,3.0,object-46,temp_dist_trial,13.0,s_s_20_1,student_stem,dna model,9.0,unique,single,s_s_20_1.jpg,Student,$${counterbalance_group},,sub-100
Desktop or Laptop,Windows 10,Chrome 138.0.0.0,1920x1080,1920x1080,Temporal Distance Task,cb_09,14.0,temp_dist_trial,num_items,zn7si1,1.0,response,2_ITEM,1558.8000000476895,1549.2000000000116,1558.8000000476895,1558.8000000476895,1549.2000000000116,1558.8000000476895,1.0,0.0,0.0,,Click Response,2_count,5.0,object-49,temp_dist_trial,14.0,s_s_16_1,student_stem,toolbox,9.0,unique,single,s_s_16_1.jpg,Student,$${counterbalance_group},,sub-100
Desktop or Laptop,Windows 10,Chrome 138.0.0.0,1920x1080,1920x1080,Temporal Distance Task,cb_09,14.0,temp_dist_trial,dist_items,qkpkxw,2.0,info,,16.69999999999709,0.0,16.69999999999709,16.69999999999709,0.0,16.69999999999709,1.0,0.0,0.0,,Slider,Slider,4.0,object-56,temp_dist_trial,14.0,s_s_16_1,student_stem,toolbox,9.0,unique,single,s_s_16_1.jpg,Student,$${counterbalance_group},,sub-100
Desktop or Laptop,Windows 10,Chrome 138.0.0.0,1920x1080,1920x1080,Temporal Distance Task,cb_09,14.0,temp_dist_trial,dist_items,qkpkxw,2.0,continue,,2348.9000000000233,2332.200000000012,2348.9000000000233,2348.9000000000233,2332.200000000012,2348.9000000000233,1.0,0.0,0.0,,Click To Continue,Next button,7.0,object-60,temp_dist_trial,14.0,s_s_16_1,student_stem,toolbox,9.0,unique,single,s_s_16_1.jpg,Student,$${counterbalance_group},,sub-100
Desktop or Laptop,Windows 10,Chrome 138.0.0.0,1920x1080,1920x1080,Temporal Distance Task,cb_09,14.0,temp_dist_trial,dist_items,qkpkxw,2.0,response,75,949.5,2332.200000000012,2348.9000000000233,949.5,2332.200000000012,2348.9000000000233,1.0,1399.4000000000233,0.0,,Slider,Slider,4.0,object-56,temp_dist_trial,14.0,s_s_16_1,student_stem,toolbox,9.0,unique,single,s_s_16_1.jpg,Student,$${counterbalance_group},,sub-100
Desktop or Laptop,Windows 10,Chrome 138.0.0.0,1920x1080,1920x1080,Temporal Distance Task,cb_09,15.0,temp_dist_trial,num_items,zn7si1,1.0,response,1_ITEM,1258.6999999523105,1249.2999999999886,1258.6999999523105,1258.6999999523105,1249.2999999999886,1258.6999999523105,1.0,0.0,0.0,,Click Response,1_count,3.0,object-46,temp_dist_trial,15.0,s_a_07_1,student_art,yarn,9.0,unique,single,s_a_07_1.jpg,Student,$${counterbalance_group},,sub-100
Desktop or Laptop,Windows 10,Chrome 138.0.0.0,1920x1080,1920x1080,Temporal Distance Task,cb_09,16.0,temp_dist_trial,num_items,zn7si1,1.0,response,2_ITEM,1182.6999999999825,1166.0999999999913,1182.6999999999825,1182.6999999999825,1166.0999999999913,1182.6999999999825,1.0,0.0,0.0,,Click Response,2_count,5.0,object-49,temp_dist_trial,16.0,s_sh_13_1,student_shared,index cards,9.0,competing,paired,s_sh_13_1.jpg,Student,$${counterbalance_group},,sub-100
Desktop or Laptop,Windows 10,Chrome 138.0.0.0,1920x1080,1920x1080,Temporal Distance Task,cb_09,16.0,temp_dist_trial,dist_items,qkpkxw,2.0,info,,16.69999999999709,0.0,16.69999999999709,16.69999999999709,0.0,16.69999999999709,1.0,0.0,0.0,,Slider,Slider,4.0,object-56,temp_dist_trial,16.0,s_sh_13_1,student_shared,index cards,9.0,competing,paired,s_sh_13_1.jpg,Student,$${counterbalance_group},,sub-100
Desktop or Laptop,Windows 10,Chrome 138.0.0.0,1920x1080,1920x1080,Temporal Distance Task,cb_09,16.0,temp_dist_trial,dist_items,qkpkxw,2.0,continue,,2125.4999999523134,2115.5999999999913,2125.4999999523134,2125.4999999523134,2115.5999999999913,2125.4999999523134,1.0,0.0,0.0,,Click To Continue,Next button,7.0,object-60,temp_dist_trial,16.0,s_sh_13_1,student_shared,index cards,9.0,competing,paired,s_sh_13_1.jpg,Student,$${counterbalance_group},,sub-100
Desktop or Laptop,Windows 10,Chrome 138.0.0.0,1920x1080,1920x1080,Temporal Distance Task,cb_09,16.0,temp_dist_trial,dist_items,qkpkxw,2.0,response,71,1066.1999999999969,2115.5999999999913,2125.9999999523134,1066.1999999999969,2115.5999999999913,2125.9999999523134,1.0,1059.7999999523165,0.0,,Slider,Slider,4.0,object-56,temp_dist_trial,16.0,s_sh_13_1,student_shared,index cards,9.0,competing,paired,s_sh_13_1.jpg,Student,$${counterbalance_group},,sub-100
Desktop or Laptop,Windows 10,Chrome 138.0.0.0,1920x1080,1920x1080,Temporal Distance Task,cb_09,17.0,temp_dist_trial,num_items,zn7si1,1.0,response,2_ITEM,1115.1000000000058,1099.4000000000087,1115.1000000000058,1115.1000000000058,1099.4000000000087,1115.1000000000058,1.0,0.0,0.0,,Click Response,2_count,5.0,object-49,temp_dist_trial,17.0,s_a_17_1,student_art,microphone,9.0,unique,paired,s_a_17_1.jpg,Student,$${counterbalance_group},,sub-100
Desktop or Laptop,Windows 10,Chrome 138.0.0.0,1920x1080,1920x1080,Temporal Distance Task,cb_09,17.0,temp_dist_trial,dist_items,qkpkxw,2.0,info,,16.80000000000291,0.0,16.80000000000291,16.80000000000291,0.0,16.80000000000291,1.0,0.0,0.0,,Slider,Slider,4.0,object-56,temp_dist_trial,17.0,s_a_17_1,student_art,microphone,9.0,unique,paired,s_a_17_1.jpg,Student,$${counterbalance_group},,sub-100
Desktop or Laptop,Windows 10,Chrome 138.0.0.0,1920x1080,1920x1080,Temporal Distance Task,cb_09,17.0,temp_dist_trial,dist_items,qkpkxw,2.0,continue,,2229.199999976161,2215.6000000000063,2229.199999976161,2229.199999976161,2215.6000000000063,2229.199999976161,1.0,0.0,0.0,,Click To Continue,Next button,7.0,object-60,temp_dist_trial,17.0,s_a_17_1,student_art,microphone,9.0,unique,paired,s_a_17_1.jpg,Student,$${counterbalance_group},,sub-100
Desktop or Laptop,Windows 10,Chrome 138.0.0.0,1920x1080,1920x1080,Temporal Distance Task,cb_09,17.0,temp_dist_trial,dist_items,qkpkxw,2.0,response,73,999.5,2215.6000000000063,2232.300000000003,999.5,2215.6000000000063,2232.300000000003,1.0,1232.8000000000031,0.0,,Slider,Slider,4.0,object-56,temp_dist_trial,17.0,s_a_17_1,student_art,microphone,9.0,unique,paired,s_a_17_1.jpg,Student,$${counterbalance_group},,sub-100
Desktop or Laptop,Windows 10,Chrome 138.0.0.0,1920x1080,1920x1080,Temporal Distance Task,cb_09,18.0,temp_dist_trial,num_items,zn7si1,1.0,response,2_ITEM,1420.3000000238392,1415.8000000000034,1420.3000000238392,1420.3000000238392,1415.8000000000034,1420.3000000238392,1.0,0.0,0.0,,Click Response,2_count,5.0,object-49,temp_dist_trial,18.0,s_s_02_1,student_stem,flask,9.0,unique,paired,s_s_02_1.jpg,Student,$${counterbalance_group},,sub-100
Desktop or Laptop,Windows 10,Chrome 138.0.0.0,1920x1080,1920x1080,Temporal Distance Task,cb_09,18.0,temp_dist_trial,dist_items,qkpkxw,2.0,info,,16.69999999999709,0.0,16.69999999999709,16.69999999999709,0.0,16.69999999999709,1.0,0.0,0.0,,Slider,Slider,4.0,object-56,temp_dist_trial,18.0,s_s_02_1,student_stem,flask,9.0,unique,paired,s_s_02_1.jpg,Student,$${counterbalance_group},,sub-100
Desktop or Laptop,Windows 10,Chrome 138.0.0.0,1920x1080,1920x1080,Temporal Distance Task,cb_09,18.0,temp_dist_trial,dist_items,qkpkxw,2.0,continue,,2531.5,2515.3999999999937,2531.5,2531.5,2515.3999999999937,2531.5,1.0,0.0,0.0,,Click To Continue,Next button,7.0,object-60,temp_dist_trial,18.0,s_s_02_1,student_stem,flask,9.0,unique,paired,s_s_02_1.jpg,Student,$${counterbalance_group},,sub-100
Desktop or Laptop,Windows 10,Chrome 138.0.0.0,1920x1080,1920x1080,Temporal Distance Task,cb_09,18.0,temp_dist_trial,dist_items,qkpkxw,2.0,response,65,1316.0,2515.3999999999937,2531.999999999985,1316.0,2515.3999999999937,2531.999999999985,1.0,1215.9999999999854,0.0,,Slider,Slider,4.0,object-56,temp_dist_trial,18.0,s_s_02_1,student_stem,flask,9.0,unique,paired,s_s_02_1.jpg,Student,$${counterbalance_group},,sub-100
Desktop or Laptop,Windows 10,Chrome 138.0.0.0,1920x1080,1920x1080,Temporal Distance Task,cb_09,19.0,temp_dist_trial,num_items,zn7si1,1.0,response,1_ITEM,1847.200000023848,1832.5,1847.200000023848,1847.200000023848,1832.5,1847.200000023848,1.0,0.0,0.0,,Click Response,1_count,3.0,object-46,temp_dist_trial,19.0,s_a_19_1,student_art,ballet shoes,9.0,unique,paired,s_a_19_1.jpg,Student,$${counterbalance_group},,sub-100
Desktop or Laptop,Windows 10,Chrome 138.0.0.0,1920x1080,1920x1080,Temporal Distance Task,cb_09,20.0,temp_dist_trial,num_items,zn7si1,1.0,response,1_ITEM,1380.9000000238445,1366.0000000000146,1380.9000000238445,1380.9000000238445,1366.0000000000146,1380.9000000238445,1.0,0.0,0.0,,Click Response,1_count,3.0,object-46,temp_dist_trial,20.0,s_sh_12_1,student_shared,binder,9.0,competing,paired,s_sh_12_1.jpg,Student,$${counterbalance_group},,sub-100
Desktop or Laptop,Windows 10,Chrome 138.0.0.0,1920x1080,1920x1080,Temporal Distance Task,cb_09,21.0,temp_dist_trial,num_items,zn7si1,1.0,response,1_ITEM,1189.1000000476781,1182.7999999999886,1189.1000000476781,1189.1000000476781,1182.7999999999886,1189.1000000476781,1.0,0.0,0.0,,Click Response,1_count,3.0,object-46,temp_dist_trial,21.0,s_a_12_1,student_art,saxophone,9.0,unique,paired,s_a_12_1.jpg,Student,$${counterbalance_group},,sub-100
Desktop or Laptop,Windows 10,Chrome 138.0.0.0,1920x1080,1920x1080,Temporal Distance Task,cb_09,22.0,temp_dist_trial,num_items,zn7si1,1.0,response,1_ITEM,1780.6999999761465,1765.7999999999884,1780.6999999761465,1780.6999999761465,1765.7999999999884,1780.6999999761465,1.0,0.0,0.0,,Click Response,1_count,3.0,object-46,temp_dist_trial,22.0,s_sh_22_1,student_shared,hole puncher,9.0,competing,paired,s_sh_22_1.jpg,Student,$${counterbalance_group},,sub-100
Desktop or Laptop,Windows 10,Chrome 138.0.0.0,1920x1080,1920x1080,Temporal Distance Task,cb_09,23.0,temp_dist_trial,num_items,zn7si1,1.0,response,2_ITEM,884.8000000476895,882.8999999999942,884.8000000476895,884.8000000476895,882.8999999999942,884.8000000476895,1.0,0.0,0.0,,Click Response,2_count,5.0,object-49,temp_dist_trial,23.0,s_s_06_1,student_stem,calculator,9.0,unique,single,s_s_06_1.jpg,Student,$${counterbalance_group},,sub-100
Desktop or Laptop,Windows 10,Chrome 138.0.0.0,1920x1080,1920x1080,Temporal Distance Task,cb_09,23.0,temp_dist_trial,dist_items,qkpkxw,2.0,info,,16.700000000011638,0.0,16.700000000011638,16.700000000011638,0.0,16.700000000011638,1.0,0.0,0.0,,Slider,Slider,4.0,object-56,temp_dist_trial,23.0,s_s_06_1,student_stem,calculator,9.0,unique,single,s_s_06_1.jpg,Student,$${counterbalance_group},,sub-100
Desktop or Laptop,Windows 10,Chrome 138.0.0.0,1920x1080,1920x1080,Temporal Distance Task,cb_09,23.0,temp_dist_trial,dist_items,qkpkxw,2.0,continue,,2448.6999999761465,2432.099999999977,2448.6999999761465,2448.6999999761465,2432.099999999977,2448.6999999761465,1.0,0.0,0.0,,Click To Continue,Next button,7.0,object-60,temp_dist_trial,23.0,s_s_06_1,student_stem,calculator,9.0,unique,single,s_s_06_1.jpg,Student,$${counterbalance_group},,sub-100
Desktop or Laptop,Windows 10,Chrome 138.0.0.0,1920x1080,1920x1080,Temporal Distance Task,cb_09,23.0,temp_dist_trial,dist_items,qkpkxw,2.0,response,27,1382.5999999999767,2432.099999999977,2448.699999999953,1382.5999999999767,2432.099999999977,2448.699999999953,1.0,1066.0999999999767,0.0,,Slider,Slider,4.0,object-56,temp_dist_trial,23.0,s_s_06_1,student_stem,calculator,9.0,unique,single,s_s_06_1.jpg,Student,$${counterbalance_group},,sub-100
Desktop or Laptop,Windows 10,Chrome 138.0.0.0,1920x1080,1920x1080,Temporal Distance Task,cb_09,24.0,temp_dist_trial,num_items,zn7si1,1.0,response,2_ITEM,1191.9000000476954,1182.7000000000114,1191.9000000476954,1191.9000000476954,1182.7000000000114,1191.9000000476954,1.0,0.0,0.0,,Click Response,2_count,5.0,object-49,temp_dist_trial,24.0,s_s_19_1,student_stem,circuit board,9.0,unique,paired,s_s_19_1.jpg,Student,$${counterbalance_group},,sub-100
Desktop or Laptop,Windows 10,Chrome 138.0.0.0,1920x1080,1920x1080,Temporal Distance Task,cb_09,24.0,temp_dist_trial,dist_items,qkpkxw,2.0,info,,16.60000000000582,0.0,16.60000000000582,16.60000000000582,0.0,16.60000000000582,1.0,0.0,0.0,,Slider,Slider,4.0,object-56,temp_dist_trial,24.0,s_s_19_1,student_stem,circuit board,9.0,unique,paired,s_s_19_1.jpg,Student,$${counterbalance_group},,sub-100
Desktop or Laptop,Windows 10,Chrome 138.0.0.0,1920x1080,1920x1080,Temporal Distance Task,cb_09,24.0,temp_dist_trial,dist_items,qkpkxw,2.0,continue,,2663.6000000000063,2648.700000000012,2663.6000000000063,2663.6000000000063,2648.700000000012,2663.6000000000063,1.0,0.0,0.0,,Click To Continue,Next button,7.0,object-60,temp_dist_trial,24.0,s_s_19_1,student_stem,circuit board,9.0,unique,paired,s_s_19_1.jpg,Student,$${counterbalance_group},,sub-100
Desktop or Laptop,Windows 10,Chrome 138.0.0.0,1920x1080,1920x1080,Temporal Distance Task,cb_09,24.0,temp_dist_trial,dist_items,qkpkxw,2.0,response,20,1149.5,2648.700000000012,2664.1000000000063,1149.5,2648.700000000012,2664.1000000000063,1.0,1514.6000000000058,0.0,,Slider,Slider,4.0,object-56,temp_dist_trial,24.0,s_s_19_1,student_stem,circuit board,9.0,unique,paired,s_s_19_1.jpg,Student,$${counterbalance_group},,sub-100
Desktop or Laptop,Windows 10,Chrome 138.0.0.0,1920x1080,1920x1080,Temporal Distance Task,cb_09,25.0,temp_dist_trial,num_items,zn7si1,1.0,response,1_ITEM,1470.3999999999942,1466.0,1470.3999999999942,1470.3999999999942,1466.0,1470.3999999999942,1.0,0.0,0.0,,Click Response,1_count,3.0,object-46,temp_dist_trial,25.0,s_a_06_1,student_art,pastels,9.0,unique,single,s_a_06_1.jpg,Student,$${counterbalance_group},,sub-100
Desktop or Laptop,Windows 10,Chrome 138.0.0.0,1920x1080,1920x1080,Temporal Distance Task,cb_09,26.0,temp_dist_trial,num_items,zn7si1,1.0,response,2_ITEM,1258.7000000476835,1249.3999999999942,1258.7000000476835,1258.7000000476835,1249.3999999999942,1258.7000000476835,1.0,0.0,0.0,,Click Response,2_count,5.0,object-49,temp_dist_trial,26.0,s_a_01_1,student_art,paintbrush,9.0,unique,single,s_a_01_1.jpg,Student,$${counterbalance_group},,sub-100
Desktop or Laptop,Windows 10,Chrome 138.0.0.0,1920x1080,1920x1080,Temporal Distance Task,cb_09,26.0,temp_dist_trial,dist_items,qkpkxw,2.0,info,,16.60000000000582,0.0,16.60000000000582,16.60000000000582,0.0,16.60000000000582,1.0,0.0,0.0,,Slider,Slider,4.0,object-56,temp_dist_trial,26.0,s_a_01_1,student_art,paintbrush,9.0,unique,single,s_a_01_1.jpg,Student,$${counterbalance_group},,sub-100
Desktop or Laptop,Windows 10,Chrome 138.0.0.0,1920x1080,1920x1080,Temporal Distance Task,cb_09,26.0,temp_dist_trial,dist_items,qkpkxw,2.0,continue,,2031.7999999999884,2015.6999999999825,2031.7999999999884,2031.7999999999884,2015.6999999999825,2031.7999999999884,1.0,0.0,0.0,,Click To Continue,Next button,7.0,object-60,temp_dist_trial,26.0,s_a_01_1,student_art,paintbrush,9.0,unique,single,s_a_01_1.jpg,Student,$${counterbalance_group},,sub-100
Desktop or Laptop,Windows 10,Chrome 138.0.0.0,1920x1080,1920x1080,Temporal Distance Task,cb_09,26.0,temp_dist_trial,dist_items,qkpkxw,2.0,response,27,982.8999999999942,2015.6999999999825,2032.0999999523046,982.8999999999942,2015.6999999999825,2032.0999999523046,1.0,1049.1999999523102,0.0,,Slider,Slider,4.0,object-56,temp_dist_trial,26.0,s_a_01_1,student_art,paintbrush,9.0,unique,single,s_a_01_1.jpg,Student,$${counterbalance_group},,sub-100
Desktop or Laptop,Windows 10,Chrome 138.0.0.0,1920x1080,1920x1080,Temporal Distance Task,cb_09,27.0,temp_dist_trial,num_items,zn7si1,1.0,response,2_ITEM,991.6000000000058,982.8000000000177,991.6000000000058,991.6000000000058,982.8000000000177,991.6000000000058,1.0,0.0,0.0,,Click Response,2_count,5.0,object-49,temp_dist_trial,27.0,s_s_09_1,student_stem,multimeter,9.0,unique,paired,s_s_09_1.jpg,Student,$${counterbalance_group},,sub-100
Desktop or Laptop,Windows 10,Chrome 138.0.0.0,1920x1080,1920x1080,Temporal Distance Task,cb_09,27.0,temp_dist_trial,dist_items,qkpkxw,2.0,info,,16.700000000011638,0.0,16.700000000011638,16.700000000011638,0.0,16.700000000011638,1.0,0.0,0.0,,Slider,Slider,4.0,object-56,temp_dist_trial,27.0,s_s_09_1,student_stem,multimeter,9.0,unique,paired,s_s_09_1.jpg,Student,$${counterbalance_group},,sub-100
Desktop or Laptop,Windows 10,Chrome 138.0.0.0,1920x1080,1920x1080,Temporal Distance Task,cb_09,27.0,temp_dist_trial,dist_items,qkpkxw,2.0,continue,,3919.500000023836,3914.699999999983,3919.500000023836,3919.500000023836,3914.699999999983,3919.500000023836,1.0,0.0,0.0,,Click To Continue,Next button,7.0,object-60,temp_dist_trial,27.0,s_s_09_1,student_stem,multimeter,9.0,unique,paired,s_s_09_1.jpg,Student,$${counterbalance_group},,sub-100
Desktop or Laptop,Windows 10,Chrome 138.0.0.0,1920x1080,1920x1080,Temporal Distance Task,cb_09,27.0,temp_dist_trial,dist_items,qkpkxw,2.0,response,31,2282.1999999999825,3914.699999999983,3920.1000000476783,2282.1999999999825,3914.699999999983,3920.1000000476783,1.0,1637.9000000476956,0.0,,Slider,Slider,4.0,object-56,temp_dist_trial,27.0,s_s_09_1,student_stem,multimeter,9.0,unique,paired,s_s_09_1.jpg,Student,$${counterbalance_group},,sub-100
Desktop or Laptop,Windows 10,Chrome 138.0.0.0,1920x1080,1920x1080,Temporal Distance Task,cb_09,28.0,temp_dist_trial,num_items,zn7si1,1.0,response,2_ITEM,1444.2000000000116,1432.7000000000116,1444.2000000000116,1444.2000000000116,1432.7000000000116,1444.2000000000116,1.0,0.0,0.0,,Click Response,2_count,5.0,object-49,temp_dist_trial,28.0,s_sh_03_1,student_shared,highlighter,9.0,competing,single,s_sh_03_1.jpg,Student,$${counterbalance_group},,sub-100
Desktop or Laptop,Windows 10,Chrome 138.0.0.0,1920x1080,1920x1080,Temporal Distance Task,cb_09,28.0,temp_dist_trial,dist_items,qkpkxw,2.0,info,,16.599999999976713,0.0,16.599999999976713,16.599999999976713,0.0,16.599999999976713,1.0,0.0,0.0,,Slider,Slider,4.0,object-56,temp_dist_trial,28.0,s_sh_03_1,student_shared,highlighter,9.0,competing,single,s_sh_03_1.jpg,Student,$${counterbalance_group},,sub-100
Desktop or Laptop,Windows 10,Chrome 138.0.0.0,1920x1080,1920x1080,Temporal Distance Task,cb_09,28.0,temp_dist_trial,dist_items,qkpkxw,2.0,continue,,3298.4000000000237,3281.800000000017,3298.4000000000237,3298.4000000000237,3281.800000000017,3298.4000000000237,1.0,0.0,0.0,,Click To Continue,Next button,7.0,object-60,temp_dist_trial,28.0,s_sh_03_1,student_shared,highlighter,9.0,competing,single,s_sh_03_1.jpg,Student,$${counterbalance_group},,sub-100
Desktop or Laptop,Windows 10,Chrome 138.0.0.0,1920x1080,1920x1080,Temporal Distance Task,cb_09,28.0,temp_dist_trial,dist_items,qkpkxw,2.0,response,34,2015.8000000000175,3281.800000000017,3298.4000000000237,2015.8000000000175,3281.800000000017,3298.4000000000237,1.0,1282.6000000000058,0.0,,Slider,Slider,4.0,object-56,temp_dist_trial,28.0,s_sh_03_1,student_shared,highlighter,9.0,competing,single,s_sh_03_1.jpg,Student,$${counterbalance_group},,sub-100
Desktop or Laptop,Windows 10,Chrome 138.0.0.0,1920x1080,1920x1080,Temporal Distance Task,cb_09,29.0,temp_dist_trial,num_items,zn7si1,1.0,response,1_ITEM,1935.8999999999944,1932.3999999999944,1935.8999999999944,1935.8999999999944,1932.3999999999944,1935.8999999999944,1.0,0.0,0.0,,Click Response,1_count,3.0,object-46,temp_dist_trial,29.0,s_sh_24_1,student_shared,desk organizer,9.0,competing,paired,s_sh_24_1.jpg,Student,$${counterbalance_group},,sub-100
Desktop or Laptop,Windows 10,Chrome 138.0.0.0,1920x1080,1920x1080,Temporal Distance Task,cb_09,30.0,temp_dist_trial,num_items,zn7si1,1.0,response,2_ITEM,1545.7000000238475,1532.5,1545.7000000238475,1545.7000000238475,1532.5,1545.7000000238475,1.0,0.0,0.0,,Click Response,2_count,5.0,object-49,temp_dist_trial,30.0,s_a_15_1,student_art,drum kit,9.0,unique,single,s_a_15_1.jpg,Student,$${counterbalance_group},,sub-100
Desktop or Laptop,Windows 10,Chrome 138.0.0.0,1920x1080,1920x1080,Temporal Distance Task,cb_09,30.0,temp_dist_trial,dist_items,qkpkxw,2.0,info,,16.699999999982538,0.0,16.699999999982538,16.699999999982538,0.0,16.699999999982538,1.0,0.0,0.0,,Slider,Slider,4.0,object-56,temp_dist_trial,30.0,s_a_15_1,student_art,drum kit,9.0,unique,single,s_a_15_1.jpg,Student,$${counterbalance_group},,sub-100
Desktop or Laptop,Windows 10,Chrome 138.0.0.0,1920x1080,1920x1080,Temporal Distance Task,cb_09,30.0,temp_dist_trial,dist_items,qkpkxw,2.0,continue,,2267.800000023853,2265.5,2267.800000023853,2267.800000023853,2265.5,2267.800000023853,1.0,0.0,0.0,,Click To Continue,Next button,7.0,object-60,temp_dist_trial,30.0,s_a_15_1,student_art,drum kit,9.0,unique,single,s_a_15_1.jpg,Student,$${counterbalance_group},,sub-100
Desktop or Laptop,Windows 10,Chrome 138.0.0.0,1920x1080,1920x1080,Temporal Distance Task,cb_09,30.0,temp_dist_trial,dist_items,qkpkxw,2.0,response,32,1032.8000000000177,2265.5,2268.300000023853,1032.8000000000177,2265.5,2268.300000023853,1.0,1235.500000023836,0.0,,Slider,Slider,4.0,object-56,temp_dist_trial,30.0,s_a_15_1,student_art,drum kit,9.0,unique,single,s_a_15_1.jpg,Student,$${counterbalance_group},,sub-100
Desktop or Laptop,Windows 10,Chrome 138.0.0.0,1920x1080,1920x1080,Temporal Distance Task,cb_09,31.0,temp_dist_trial,num_items,zn7si1,1.0,response,2_ITEM,1331.9000000476954,1316.1000000000058,1331.9000000476954,1331.9000000476954,1316.1000000000058,1331.9000000476954,1.0,0.0,0.0,,Click Response,2_count,5.0,object-49,temp_dist_trial,31.0,s_s_10_1,student_stem,3d molecule,9.0,unique,paired,s_s_10_1.jpg,Student,$${counterbalance_group},,sub-100
Desktop or Laptop,Windows 10,Chrome 138.0.0.0,1920x1080,1920x1080,Temporal Distance Task,cb_09,31.0,temp_dist_trial,dist_items,qkpkxw,2.0,info,,16.699999999982538,0.0,16.699999999982538,16.699999999982538,0.0,16.699999999982538,1.0,0.0,0.0,,Slider,Slider,4.0,object-56,temp_dist_trial,31.0,s_s_10_1,student_stem,3d molecule,9.0,unique,paired,s_s_10_1.jpg,Student,$${counterbalance_group},,sub-100
Desktop or Laptop,Windows 10,Chrome 138.0.0.0,1920x1080,1920x1080,Temporal Distance Task,cb_09,31.0,temp_dist_trial,dist_items,qkpkxw,2.0,continue,,1884.7000000000119,1882.3000000000175,1884.7000000000119,1884.7000000000119,1882.3000000000175,1884.7000000000119,1.0,0.0,0.0,,Click To Continue,Next button,7.0,object-60,temp_dist_trial,31.0,s_s_10_1,student_stem,3d molecule,9.0,unique,paired,s_s_10_1.jpg,Student,$${counterbalance_group},,sub-100
Desktop or Laptop,Windows 10,Chrome 138.0.0.0,1920x1080,1920x1080,Temporal Distance Task,cb_09,31.0,temp_dist_trial,dist_items,qkpkxw,2.0,response,57,916.3000000000177,1882.3000000000175,1885.599999976169,916.3000000000177,1882.3000000000175,1885.599999976169,1.0,969.2999999761523,0.0,,Slider,Slider,4.0,object-56,temp_dist_trial,31.0,s_s_10_1,student_stem,3d molecule,9.0,unique,paired,s_s_10_1.jpg,Student,$${counterbalance_group},,sub-100
Desktop or Laptop,Windows 10,Chrome 138.0.0.0,1920x1080,1920x1080,Temporal Distance Task,cb_09,32.0,temp_dist_trial,num_items,zn7si1,1.0,response,2_ITEM,1131.500000023836,1116.1999999999823,1131.500000023836,1131.500000023836,1116.1999999999823,1131.500000023836,1.0,0.0,0.0,,Click Response,2_count,5.0,object-49,temp_dist_trial,32.0,s_sh_14_1,student_shared,printer,9.0,competing,paired,s_sh_14_1.jpg,Student,$${counterbalance_group},,sub-100
Desktop or Laptop,Windows 10,Chrome 138.0.0.0,1920x1080,1920x1080,Temporal Distance Task,cb_09,32.0,temp_dist_trial,dist_items,qkpkxw,2.0,info,,16.60000000000582,0.0,16.60000000000582,16.60000000000582,0.0,16.60000000000582,1.0,0.0,0.0,,Slider,Slider,4.0,object-56,temp_dist_trial,32.0,s_sh_14_1,student_shared,printer,9.0,competing,paired,s_sh_14_1.jpg,Student,$${counterbalance_group},,sub-100
Desktop or Laptop,Windows 10,Chrome 138.0.0.0,1920x1080,1920x1080,Temporal Distance Task,cb_09,32.0,temp_dist_trial,dist_items,qkpkxw,2.0,continue,,2070.000000023836,2065.6999999999825,2070.000000023836,2070.000000023836,2065.6999999999825,2070.000000023836,1.0,0.0,0.0,,Click To Continue,Next button,7.0,object-60,temp_dist_trial,32.0,s_sh_14_1,student_shared,printer,9.0,competing,paired,s_sh_14_1.jpg,Student,$${counterbalance_group},,sub-100
Desktop or Laptop,Windows 10,Chrome 138.0.0.0,1920x1080,1920x1080,Temporal Distance Task,cb_09,32.0,temp_dist_trial,dist_items,qkpkxw,2.0,response,34,1166.1999999999825,2065.6999999999825,2070.500000023836,1166.1999999999825,2065.6999999999825,2070.500000023836,1.0,904.3000000238536,0.0,,Slider,Slider,4.0,object-56,temp_dist_trial,32.0,s_sh_14_1,student_shared,printer,9.0,competing,paired,s_sh_14_1.jpg,Student,$${counterbalance_group},,sub-100
Desktop or Laptop,Windows 10,Chrome 138.0.0.0,1920x1080,1920x1080,Temporal Distance Task,cb_09,33.0,temp_dist_trial,num_items,zn7si1,1.0,response,1_ITEM,1555.499999952328,1549.2000000000116,1555.499999952328,1555.499999952328,1549.2000000000116,1555.499999952328,1.0,0.0,0.0,,Click Response,1_count,3.0,object-46,temp_dist_trial,33.0,s_s_15_1,student_stem,jumper cables,9.0,unique,paired,s_s_15_1.jpg,Student,$${counterbalance_group},,sub-100
Desktop or Laptop,Windows 10,Chrome 138.0.0.0,1920x1080,1920x1080,Temporal Distance Task,cb_09,34.0,temp_dist_trial,num_items,zn7si1,1.0,response,2_ITEM,1077.3000000476898,1066.2000000000116,1077.3000000476898,1077.3000000476898,1066.2000000000116,1077.3000000476898,1.0,0.0,0.0,,Click Response,2_count,5.0,object-49,temp_dist_trial,34.0,s_sh_10_1,student_shared,scissors,9.0,competing,paired,s_sh_10_1.jpg,Student,$${counterbalance_group},,sub-100
Desktop or Laptop,Windows 10,Chrome 138.0.0.0,1920x1080,1920x1080,Temporal Distance Task,cb_09,34.0,temp_dist_trial,dist_items,qkpkxw,2.0,info,,16.60000000000582,0.0,16.60000000000582,16.60000000000582,0.0,16.60000000000582,1.0,0.0,0.0,,Slider,Slider,4.0,object-56,temp_dist_trial,34.0,s_sh_10_1,student_shared,scissors,9.0,competing,paired,s_sh_10_1.jpg,Student,$${counterbalance_group},,sub-100
Desktop or Laptop,Windows 10,Chrome 138.0.0.0,1920x1080,1920x1080,Temporal Distance Task,cb_09,34.0,temp_dist_trial,dist_items,qkpkxw,2.0,continue,,2082.1000000000063,2065.6000000000063,2082.1000000000063,2082.1000000000063,2065.6000000000063,2082.1000000000063,1.0,0.0,0.0,,Click To Continue,Next button,7.0,object-60,temp_dist_trial,34.0,s_sh_10_1,student_shared,scissors,9.0,competing,paired,s_sh_10_1.jpg,Student,$${counterbalance_group},,sub-100
Desktop or Laptop,Windows 10,Chrome 138.0.0.0,1920x1080,1920x1080,Temporal Distance Task,cb_09,34.0,temp_dist_trial,dist_items,qkpkxw,2.0,response,32,1032.7000000000116,2065.6000000000063,2082.200000000012,1032.7000000000116,2065.6000000000063,2082.200000000012,1.0,1049.5,0.0,,Slider,Slider,4.0,object-56,temp_dist_trial,34.0,s_sh_10_1,student_shared,scissors,9.0,competing,paired,s_sh_10_1.jpg,Student,$${counterbalance_group},,sub-100
Desktop or Laptop,Windows 10,Chrome 138.0.0.0,1920x1080,1920x1080,Temporal Distance Task,cb_09,35.0,temp_dist_trial,num_items,zn7si1,1.0,response,2_ITEM,2567.700000047684,2565.3999999999937,2567.700000047684,2567.700000047684,2565.3999999999937,2567.700000047684,1.0,0.0,0.0,,Click Response,2_count,5.0,object-49,temp_dist_trial,35.0,s_sh_09_1,student_shared,paper clips,9.0,competing,paired,s_sh_09_1.jpg,Student,$${counterbalance_group},,sub-100
Desktop or Laptop,Windows 10,Chrome 138.0.0.0,1920x1080,1920x1080,Temporal Distance Task,cb_09,35.0,temp_dist_trial,dist_items,qkpkxw,2.0,info,,16.699999999982538,0.0,16.699999999982538,16.699999999982538,0.0,16.699999999982538,1.0,0.0,0.0,,Slider,Slider,4.0,object-56,temp_dist_trial,35.0,s_sh_09_1,student_shared,paper clips,9.0,competing,paired,s_sh_09_1.jpg,Student,$${counterbalance_group},,sub-100
Desktop or Laptop,Windows 10,Chrome 138.0.0.0,1920x1080,1920x1080,Temporal Distance Task,cb_09,35.0,temp_dist_trial,dist_items,qkpkxw,2.0,continue,,6696.400000000023,6679.900000000023,6696.400000000023,6696.400000000023,6679.900000000023,6696.400000000023,1.0,0.0,0.0,,Click To Continue,Next button,7.0,object-60,temp_dist_trial,35.0,s_sh_09_1,student_shared,paper clips,9.0,competing,paired,s_sh_09_1.jpg,Student,$${counterbalance_group},,sub-100
Desktop or Laptop,Windows 10,Chrome 138.0.0.0,1920x1080,1920x1080,Temporal Distance Task,cb_09,35.0,temp_dist_trial,dist_items,qkpkxw,2.0,response,68,2465.4000000000233,6679.900000000023,6696.400000000023,2465.4000000000233,6679.900000000023,6696.400000000023,1.0,4231.0,0.0,,Slider,Slider,4.0,object-56,temp_dist_trial,35.0,s_sh_09_1,student_shared,paper clips,9.0,competing,paired,s_sh_09_1.jpg,Student,$${counterbalance_group},,sub-100
Desktop or Laptop,Windows 10,Chrome 138.0.0.0,1920x1080,1920x1080,Temporal Distance Task,cb_09,36.0,temp_dist_trial,num_items,zn7si1,1.0,response,num_miss,2998.5999999999767,2998.5999999999767,2998.5999999999767,2998.5999999999767,2998.5999999999767,2998.5999999999767,1.0,0.0,0.0,num_miss_tag,Time Limit,screen,0.0,screen,temp_dist_trial,36.0,s_a_14_1,student_art,guitar pick,9.0,unique,paired,s_a_14_1.jpg,Student,$${counterbalance_group},,sub-100
Desktop or Laptop,Windows 10,Chrome 138.0.0.0,1920x1080,1920x1080,Temporal Distance Task,cb_09,37.0,temp_dist_trial,num_items,zn7si1,1.0,response,2_ITEM,1038.0,1032.7000000000116,1038.0,1038.0,1032.7000000000116,1038.0,1.0,0.0,0.0,,Click Response,2_count,5.0,object-49,temp_dist_trial,37.0,s_a_02_1,student_art,canvas,9.0,unique,paired,s_a_02_1.jpg,Student,$${counterbalance_group},,sub-100
Desktop or Laptop,Windows 10,Chrome 138.0.0.0,1920x1080,1920x1080,Temporal Distance Task,cb_09,37.0,temp_dist_trial,dist_items,qkpkxw,2.0,info,,16.700000000011638,0.0,16.700000000011638,16.700000000011638,0.0,16.700000000011638,1.0,0.0,0.0,,Slider,Slider,4.0,object-56,temp_dist_trial,37.0,s_a_02_1,student_art,canvas,9.0,unique,paired,s_a_02_1.jpg,Student,$${counterbalance_group},,sub-100
Desktop or Laptop,Windows 10,Chrome 138.0.0.0,1920x1080,1920x1080,Temporal Distance Task,cb_09,37.0,temp_dist_trial,dist_items,qkpkxw,2.0,continue,,2076.000000023836,2065.6000000000063,2076.000000023836,2076.000000023836,2065.6000000000063,2076.000000023836,1.0,0.0,0.0,,Click To Continue,Next button,7.0,object-60,temp_dist_trial,37.0,s_a_02_1,student_art,canvas,9.0,unique,paired,s_a_02_1.jpg,Student,$${counterbalance_group},,sub-100
Desktop or Laptop,Windows 10,Chrome 138.0.0.0,1920x1080,1920x1080,Temporal Distance Task,cb_09,37.0,temp_dist_trial,dist_items,qkpkxw,2.0,response,63,949.6000000000058,2065.6000000000063,2076.3999999999937,949.6000000000058,2065.6000000000063,2076.3999999999937,1.0,1126.7999999999886,0.0,,Slider,Slider,4.0,object-56,temp_dist_trial,37.0,s_a_02_1,student_art,canvas,9.0,unique,paired,s_a_02_1.jpg,Student,$${counterbalance_group},,sub-100
Desktop or Laptop,Windows 10,Chrome 138.0.0.0,1920x1080,1920x1080,Temporal Distance Task,cb_09,38.0,temp_dist_trial,num_items,zn7si1,1.0,response,2_ITEM,937.6999999761464,933.0,937.6999999761464,937.6999999761464,933.0,937.6999999761464,1.0,0.0,0.0,,Click Response,2_count,5.0,object-49,temp_dist_trial,38.0,s_s_01_1,student_stem,microscope,9.0,unique,paired,s_s_01_1.jpg,Student,$${counterbalance_group},,sub-100
Desktop or Laptop,Windows 10,Chrome 138.0.0.0,1920x1080,1920x1080,Temporal Distance Task,cb_09,38.0,temp_dist_trial,dist_items,qkpkxw,2.0,info,,16.700000000011638,0.0,16.700000000011638,16.700000000011638,0.0,16.700000000011638,1.0,0.0,0.0,,Slider,Slider,4.0,object-56,temp_dist_trial,38.0,s_s_01_1,student_stem,microscope,9.0,unique,paired,s_s_01_1.jpg,Student,$${counterbalance_group},,sub-100
Desktop or Laptop,Windows 10,Chrome 138.0.0.0,1920x1080,1920x1080,Temporal Distance Task,cb_09,38.0,temp_dist_trial,dist_items,qkpkxw,2.0,continue,,2291.2999999523167,2282.1000000000063,2291.2999999523167,2291.2999999523167,2282.1000000000063,2291.2999999523167,1.0,0.0,0.0,,Click To Continue,Next button,7.0,object-60,temp_dist_trial,38.0,s_s_01_1,student_stem,microscope,9.0,unique,paired,s_s_01_1.jpg,Student,$${counterbalance_group},,sub-100
Desktop or Laptop,Windows 10,Chrome 138.0.0.0,1920x1080,1920x1080,Temporal Distance Task,cb_09,38.0,temp_dist_trial,dist_items,qkpkxw,2.0,response,70,1032.7999999999884,2282.1000000000063,2291.899999976158,1032.7999999999884,2282.1000000000063,2291.899999976158,1.0,1259.0999999761698,0.0,,Slider,Slider,4.0,object-56,temp_dist_trial,38.0,s_s_01_1,student_stem,microscope,9.0,unique,paired,s_s_01_1.jpg,Student,$${counterbalance_group},,sub-100
Desktop or Laptop,Windows 10,Chrome 138.0.0.0,1920x1080,1920x1080,Temporal Distance Task,cb_09,39.0,temp_dist_trial,num_items,zn7si1,1.0,response,2_ITEM,889.7999999761522,883.0,889.7999999761522,889.7999999761522,883.0,889.7999999761522,1.0,0.0,0.0,,Click Response,2_count,5.0,object-49,temp_dist_trial,39.0,s_sh_20_1,student_shared,tape,9.0,competing,paired,s_sh_20_1.jpg,Student,$${counterbalance_group},,sub-100
Desktop or Laptop,Windows 10,Chrome 138.0.0.0,1920x1080,1920x1080,Temporal Distance Task,cb_09,39.0,temp_dist_trial,dist_items,qkpkxw,2.0,info,,16.699999999982538,0.0,16.699999999982538,16.699999999982538,0.0,16.699999999982538,1.0,0.0,0.0,,Slider,Slider,4.0,object-56,temp_dist_trial,39.0,s_sh_20_1,student_shared,tape,9.0,competing,paired,s_sh_20_1.jpg,Student,$${counterbalance_group},,sub-100
Desktop or Laptop,Windows 10,Chrome 138.0.0.0,1920x1080,1920x1080,Temporal Distance Task,cb_09,39.0,temp_dist_trial,dist_items,qkpkxw,2.0,continue,,2180.499999976164,2165.6000000000063,2180.499999976164,2180.499999976164,2165.6000000000063,2180.499999976164,1.0,0.0,0.0,,Click To Continue,Next button,7.0,object-60,temp_dist_trial,39.0,s_sh_20_1,student_shared,tape,9.0,competing,paired,s_sh_20_1.jpg,Student,$${counterbalance_group},,sub-100
Desktop or Laptop,Windows 10,Chrome 138.0.0.0,1920x1080,1920x1080,Temporal Distance Task,cb_09,39.0,temp_dist_trial,dist_items,qkpkxw,2.0,response,67,1082.8000000000177,2165.6000000000063,2181.1000000000063,1082.8000000000177,2165.6000000000063,2181.1000000000063,1.0,1098.2999999999884,0.0,,Slider,Slider,4.0,object-56,temp_dist_trial,39.0,s_sh_20_1,student_shared,tape,9.0,competing,paired,s_sh_20_1.jpg,Student,$${counterbalance_group},,sub-100
Desktop or Laptop,Windows 10,Chrome 138.0.0.0,1920x1080,1920x1080,Temporal Distance Task,cb_09,40.0,temp_dist_trial,num_items,zn7si1,1.0,response,2_ITEM,1127.600000023842,1116.2000000000116,1127.600000023842,1127.600000023842,1116.2000000000116,1127.600000023842,1.0,0.0,0.0,,Click Response,2_count,5.0,object-49,temp_dist_trial,40.0,s_sh_18_1,student_shared,wall calendar,9.0,competing,paired,s_sh_18_1.jpg,Student,$${counterbalance_group},,sub-100
Desktop or Laptop,Windows 10,Chrome 138.0.0.0,1920x1080,1920x1080,Temporal Distance Task,cb_09,40.0,temp_dist_trial,dist_items,qkpkxw,2.0,info,,16.60000000000582,0.0,16.60000000000582,16.60000000000582,0.0,16.60000000000582,1.0,0.0,0.0,,Slider,Slider,4.0,object-56,temp_dist_trial,40.0,s_sh_18_1,student_shared,wall calendar,9.0,competing,paired,s_sh_18_1.jpg,Student,$${counterbalance_group},,sub-100
Desktop or Laptop,Windows 10,Chrome 138.0.0.0,1920x1080,1920x1080,Temporal Distance Task,cb_09,40.0,temp_dist_trial,dist_items,qkpkxw,2.0,continue,,2322.899999952322,2315.6000000000063,2322.899999952322,2322.899999952322,2315.6000000000063,2322.899999952322,1.0,0.0,0.0,,Click To Continue,Next button,7.0,object-60,temp_dist_trial,40.0,s_sh_18_1,student_shared,wall calendar,9.0,competing,paired,s_sh_18_1.jpg,Student,$${counterbalance_group},,sub-100
Desktop or Laptop,Windows 10,Chrome 138.0.0.0,1920x1080,1920x1080,Temporal Distance Task,cb_09,40.0,temp_dist_trial,dist_items,qkpkxw,2.0,response,28,1032.8999999999942,2315.6000000000063,2323.700000023848,1032.8999999999942,2315.6000000000063,2323.700000023848,1.0,1290.8000000238535,0.0,,Slider,Slider,4.0,object-56,temp_dist_trial,40.0,s_sh_18_1,student_shared,wall calendar,9.0,competing,paired,s_sh_18_1.jpg,Student,$${counterbalance_group},,sub-100
Desktop or Laptop,Windows 10,Chrome 138.0.0.0,1920x1080,1920x1080,Temporal Distance Task,cb_09,41.0,temp_dist_trial,num_items,zn7si1,1.0,response,2_ITEM,1135.600000023842,1132.7999999999886,1135.600000023842,1135.600000023842,1132.7999999999886,1135.600000023842,1.0,0.0,0.0,,Click Response,2_count,5.0,object-49,temp_dist_trial,41.0,s_sh_11_1,student_shared,pencil case,9.0,competing,paired,s_sh_11_1.jpg,Student,$${counterbalance_group},,sub-100
Desktop or Laptop,Windows 10,Chrome 138.0.0.0,1920x1080,1920x1080,Temporal Distance Task,cb_09,41.0,temp_dist_trial,dist_items,qkpkxw,2.0,info,,16.799999999988362,0.0,16.799999999988362,16.799999999988362,0.0,16.799999999988362,1.0,0.0,0.0,,Slider,Slider,4.0,object-56,temp_dist_trial,41.0,s_sh_11_1,student_shared,pencil case,9.0,competing,paired,s_sh_11_1.jpg,Student,$${counterbalance_group},,sub-100
Desktop or Laptop,Windows 10,Chrome 138.0.0.0,1920x1080,1920x1080,Temporal Distance Task,cb_09,41.0,temp_dist_trial,dist_items,qkpkxw,2.0,continue,,3609.5999999761693,3598.0,3609.5999999761693,3609.5999999761693,3598.0,3609.5999999761693,1.0,0.0,0.0,,Click To Continue,Next button,7.0,object-60,temp_dist_trial,41.0,s_sh_11_1,student_shared,pencil case,9.0,competing,paired,s_sh_11_1.jpg,Student,$${counterbalance_group},,sub-100
Desktop or Laptop,Windows 10,Chrome 138.0.0.0,1920x1080,1920x1080,Temporal Distance Task,cb_09,41.0,temp_dist_trial,dist_items,qkpkxw,2.0,response,40,1782.3000000000175,3598.0,3610.700000000012,1782.3000000000175,3598.0,3610.700000000012,1.0,1828.3999999999944,0.0,,Slider,Slider,4.0,object-56,temp_dist_trial,41.0,s_sh_11_1,student_shared,pencil case,9.0,competing,paired,s_sh_11_1.jpg,Student,$${counterbalance_group},,sub-100
Desktop or Laptop,Windows 10,Chrome 138.0.0.0,1920x1080,1920x1080,Temporal Distance Task,cb_09,42.0,temp_dist_trial,num_items,zn7si1,1.0,response,1_ITEM,1689.2000000000116,1682.6000000000058,1689.2000000000116,1689.2000000000116,1682.6000000000058,1689.2000000000116,1.0,0.0,0.0,,Click Response,1_count,3.0,object-46,temp_dist_trial,42.0,s_sh_04_1,student_shared,laptop stand,9.0,competing,paired,s_sh_04_1.jpg,Student,$${counterbalance_group},,sub-100
Desktop or Laptop,Windows 10,Chrome 138.0.0.0,1920x1080,1920x1080,Temporal Distance Task,cb_09,43.0,temp_dist_trial,num_items,zn7si1,1.0,response,1_ITEM,1718.2999999999884,1715.7999999999884,1718.2999999999884,1718.2999999999884,1715.7999999999884,1718.2999999999884,1.0,0.0,0.0,,Click Response,1_count,3.0,object-46,temp_dist_trial,43.0,s_s_08_1,student_stem,soldering iron,9.0,unique,paired,s_s_08_1.jpg,Student,$${counterbalance_group},,sub-100
Desktop or Laptop,Windows 10,Chrome 138.0.0.0,1920x1080,1920x1080,Temporal Distance Task,cb_09,44.0,temp_dist_trial,num_items,zn7si1,1.0,response,2_ITEM,1335.9000000476954,1332.7000000000114,1335.9000000476954,1335.9000000476954,1332.7000000000114,1335.9000000476954,1.0,0.0,0.0,,Click Response,2_count,5.0,object-49,temp_dist_trial,44.0,s_sh_15_1,student_shared,usb drive,9.0,competing,paired,s_sh_15_1.jpg,Student,$${counterbalance_group},,sub-100
Desktop or Laptop,Windows 10,Chrome 138.0.0.0,1920x1080,1920x1080,Temporal Distance Task,cb_09,44.0,temp_dist_trial,dist_items,qkpkxw,2.0,info,,16.599999999976713,0.0,16.599999999976713,16.599999999976713,0.0,16.599999999976713,1.0,0.0,0.0,,Slider,Slider,4.0,object-56,temp_dist_trial,44.0,s_sh_15_1,student_shared,usb drive,9.0,competing,paired,s_sh_15_1.jpg,Student,$${counterbalance_group},,sub-100
Desktop or Laptop,Windows 10,Chrome 138.0.0.0,1920x1080,1920x1080,Temporal Distance Task,cb_09,44.0,temp_dist_trial,dist_items,qkpkxw,2.0,continue,,3354.200000000012,3348.300000000017,3354.200000000012,3354.200000000012,3348.300000000017,3354.200000000012,1.0,0.0,0.0,,Click To Continue,Next button,7.0,object-60,temp_dist_trial,44.0,s_sh_15_1,student_shared,usb drive,9.0,competing,paired,s_sh_15_1.jpg,Student,$${counterbalance_group},,sub-100
Desktop or Laptop,Windows 10,Chrome 138.0.0.0,1920x1080,1920x1080,Temporal Distance Task,cb_09,44.0,temp_dist_trial,dist_items,qkpkxw,2.0,response,31,1182.8000000000175,3348.300000000017,3355.0999999761707,1182.8000000000175,3348.300000000017,3355.0999999761707,1.0,2172.299999976153,0.0,,Slider,Slider,4.0,object-56,temp_dist_trial,44.0,s_sh_15_1,student_shared,usb drive,9.0,competing,paired,s_sh_15_1.jpg,Student,$${counterbalance_group},,sub-100
Desktop or Laptop,Windows 10,Chrome 138.0.0.0,1920x1080,1920x1080,Temporal Distance Task,cb_09,45.0,temp_dist_trial,num_items,zn7si1,1.0,response,2_ITEM,1027.6000000476781,1016.2999999999884,1027.6000000476781,1027.6000000476781,1016.2999999999884,1027.6000000476781,1.0,0.0,0.0,,Click Response,2_count,5.0,object-49,temp_dist_trial,45.0,s_a_16_1,student_art,piano,9.0,unique,paired,s_a_16_1.jpg,Student,$${counterbalance_group},,sub-100
Desktop or Laptop,Windows 10,Chrome 138.0.0.0,1920x1080,1920x1080,Temporal Distance Task,cb_09,45.0,temp_dist_trial,dist_items,qkpkxw,2.0,info,,16.699999999982538,0.0,16.699999999982538,16.699999999982538,0.0,16.699999999982538,1.0,0.0,0.0,,Slider,Slider,4.0,object-56,temp_dist_trial,45.0,s_a_16_1,student_art,piano,9.0,unique,paired,s_a_16_1.jpg,Student,$${counterbalance_group},,sub-100
Desktop or Laptop,Windows 10,Chrome 138.0.0.0,1920x1080,1920x1080,Temporal Distance Task,cb_09,45.0,temp_dist_trial,dist_items,qkpkxw,2.0,continue,,2803.999999976164,2798.3999999999933,2803.999999976164,2803.999999976164,2798.3999999999933,2803.999999976164,1.0,0.0,0.0,,Click To Continue,Next button,7.0,object-60,temp_dist_trial,45.0,s_a_16_1,student_art,piano,9.0,unique,paired,s_a_16_1.jpg,Student,$${counterbalance_group},,sub-100
Desktop or Laptop,Windows 10,Chrome 138.0.0.0,1920x1080,1920x1080,Temporal Distance Task,cb_09,45.0,temp_dist_trial,dist_items,qkpkxw,2.0,response,66,1632.3000000000175,2798.3999999999933,2804.999999976164,1632.3000000000175,2798.3999999999933,2804.999999976164,1.0,1172.6999999761465,0.0,,Slider,Slider,4.0,object-56,temp_dist_trial,45.0,s_a_16_1,student_art,piano,9.0,unique,paired,s_a_16_1.jpg,Student,$${counterbalance_group},,sub-100
Desktop or Laptop,Windows 10,Chrome 138.0.0.0,1920x1080,1920x1080,Temporal Distance Task,cb_09,46.0,temp_dist_trial,num_items,zn7si1,1.0,response,1_ITEM,1259.5999999761698,1249.4000000000233,1259.5999999761698,1259.5999999761698,1249.4000000000233,1259.5999999761698,1.0,0.0,0.0,,Click Response,1_count,3.0,object-46,temp_dist_trial,46.0,s_sh_08_1,student_shared,post-its,9.0,competing,paired,s_sh_08_1.jpg,Student,$${counterbalance_group},,sub-100
Desktop or Laptop,Windows 10,Chrome 138.0.0.0,1920x1080,1920x1080,Temporal Distance Task,cb_09,47.0,temp_dist_trial,num_items,zn7si1,1.0,response,2_ITEM,1232.0,1216.0,1232.0,1232.0,1216.0,1232.0,1.0,0.0,0.0,,Click Response,2_count,5.0,object-49,temp_dist_trial,47.0,s_sh_07_1,student_shared,ruler,9.0,competing,single,s_sh_07_1.jpg,Student,$${counterbalance_group},,sub-100
Desktop or Laptop,Windows 10,Chrome 138.0.0.0,1920x1080,1920x1080,Temporal Distance Task,cb_09,47.0,temp_dist_trial,dist_items,qkpkxw,2.0,info,,16.60000000000582,0.0,16.60000000000582,16.60000000000582,0.0,16.60000000000582,1.0,0.0,0.0,,Slider,Slider,4.0,object-56,temp_dist_trial,47.0,s_sh_07_1,student_shared,ruler,9.0,competing,single,s_sh_07_1.jpg,Student,$${counterbalance_group},,sub-100
Desktop or Laptop,Windows 10,Chrome 138.0.0.0,1920x1080,1920x1080,Temporal Distance Task,cb_09,47.0,temp_dist_trial,dist_items,qkpkxw,2.0,continue,,2431.899999952322,2415.5,2431.899999952322,2431.899999952322,2415.5,2431.899999952322,1.0,0.0,0.0,,Click To Continue,Next button,7.0,object-60,temp_dist_trial,47.0,s_sh_07_1,student_shared,ruler,9.0,competing,single,s_sh_07_1.jpg,Student,$${counterbalance_group},,sub-100
Desktop or Laptop,Windows 10,Chrome 138.0.0.0,1920x1080,1920x1080,Temporal Distance Task,cb_09,47.0,temp_dist_trial,dist_items,qkpkxw,2.0,response,61,1232.8000000000175,2415.5,2432.1999999999825,1232.8000000000175,2415.5,2432.1999999999825,1.0,1199.399999999965,0.0,,Slider,Slider,4.0,object-56,temp_dist_trial,47.0,s_sh_07_1,student_shared,ruler,9.0,competing,single,s_sh_07_1.jpg,Student,$${counterbalance_group},,sub-100
Desktop or Laptop,Windows 10,Chrome 138.0.0.0,1920x1080,1920x1080,Temporal Distance Task,cb_09,48.0,temp_dist_trial,num_items,zn7si1,1.0,response,2_ITEM,1047.1000000000058,1032.8000000000177,1047.1000000000058,1047.1000000000058,1032.8000000000177,1047.1000000000058,1.0,0.0,0.0,,Click Response,2_count,5.0,object-49,temp_dist_trial,48.0,s_sh_05_1,student_shared,laptop,9.0,competing,single,s_sh_05_1.jpg,Student,$${counterbalance_group},,sub-100
Desktop or Laptop,Windows 10,Chrome 138.0.0.0,1920x1080,1920x1080,Temporal Distance Task,cb_09,48.0,temp_dist_trial,dist_items,qkpkxw,2.0,info,,16.60000000000582,0.0,16.60000000000582,16.60000000000582,0.0,16.60000000000582,1.0,0.0,0.0,,Slider,Slider,4.0,object-56,temp_dist_trial,48.0,s_sh_05_1,student_shared,laptop,9.0,competing,single,s_sh_05_1.jpg,Student,$${counterbalance_group},,sub-100
Desktop or Laptop,Windows 10,Chrome 138.0.0.0,1920x1080,1920x1080,Temporal Distance Task,cb_09,48.0,temp_dist_trial,dist_items,qkpkxw,2.0,continue,,2820.2000000476837,2815.3999999999933,2820.2000000476837,2820.2000000476837,2815.3999999999933,2820.2000000476837,1.0,0.0,0.0,,Click To Continue,Next button,7.0,object-60,temp_dist_trial,48.0,s_sh_05_1,student_shared,laptop,9.0,competing,single,s_sh_05_1.jpg,Student,$${counterbalance_group},,sub-100
Desktop or Laptop,Windows 10,Chrome 138.0.0.0,1920x1080,1920x1080,Temporal Distance Task,cb_09,48.0,temp_dist_trial,dist_items,qkpkxw,2.0,response,29,1566.0,2815.3999999999933,2820.8999999761572,1566.0,2815.3999999999933,2820.8999999761572,1.0,1254.899999976158,0.0,,Slider,Slider,4.0,object-56,temp_dist_trial,48.0,s_sh_05_1,student_shared,laptop,9.0,competing,single,s_sh_05_1.jpg,Student,$${counterbalance_group},,sub-100
Desktop or Laptop,Windows 10,Chrome 138.0.0.0,1920x1080,1920x1080,Temporal Distance Task,cb_09,2.0,temp_eventStart,Screen 1,dgtyxe,1.0,continue,,2157.300000047689,2148.8999999999937,2157.300000047689,2157.300000047689,2148.8999999999937,2157.300000047689,1.0,0.0,0.0,,Click To Continue,Next Button,3.0,object-43,temp_eventStart,,,Travel,,,,,,,$${counterbalance_group},,sub-100
Desktop or Laptop,Windows 10,Chrome 138.0.0.0,1920x1080,1920x1080,Temporal Distance Task,cb_09,49.0,temp_dist_trial,num_items,zn7si1,1.0,response,1_ITEM,2856.5999999761707,2848.6000000000067,2856.5999999761707,2856.5999999761707,2848.6000000000067,2856.5999999761707,1.0,0.0,0.0,,Click Response,1_count,3.0,object-46,temp_dist_trial,1.0,t_i_01_1,travel_Iceland,gloves,9.0,unique,single,t_i_01_1.jpg,Travel,$${counterbalance_group},,sub-100
Desktop or Laptop,Windows 10,Chrome 138.0.0.0,1920x1080,1920x1080,Temporal Distance Task,cb_09,50.0,temp_dist_trial,num_items,zn7si1,1.0,response,2_ITEM,1565.6999999999825,1549.1999999999825,1565.6999999999825,1565.6999999999825,1549.1999999999825,1565.6999999999825,1.0,0.0,0.0,,Click Response,2_count,5.0,object-49,temp_dist_trial,2.0,t_s_08_1,travel_shared,hand lotion,9.0,competing,single,t_s_08_1.jpg,Travel,$${counterbalance_group},,sub-100
Desktop or Laptop,Windows 10,Chrome 138.0.0.0,1920x1080,1920x1080,Temporal Distance Task,cb_09,50.0,temp_dist_trial,dist_items,qkpkxw,2.0,info,,16.60000000000582,0.0,16.60000000000582,16.60000000000582,0.0,16.60000000000582,1.0,0.0,0.0,,Slider,Slider,4.0,object-56,temp_dist_trial,2.0,t_s_08_1,travel_shared,hand lotion,9.0,competing,single,t_s_08_1.jpg,Travel,$${counterbalance_group},,sub-100
Desktop or Laptop,Windows 10,Chrome 138.0.0.0,1920x1080,1920x1080,Temporal Distance Task,cb_09,50.0,temp_dist_trial,dist_items,qkpkxw,2.0,continue,,3528.4000000238293,3515.0,3528.4000000238293,3528.4000000238293,3515.0,3528.4000000238293,1.0,0.0,0.0,,Click To Continue,Next button,7.0,object-60,temp_dist_trial,2.0,t_s_08_1,travel_shared,hand lotion,9.0,competing,single,t_s_08_1.jpg,Travel,$${counterbalance_group},,sub-100
Desktop or Laptop,Windows 10,Chrome 138.0.0.0,1920x1080,1920x1080,Temporal Distance Task,cb_09,50.0,temp_dist_trial,dist_items,qkpkxw,2.0,response,86,1915.7999999999884,3515.0,3529.4000000238293,1915.7999999999884,3515.0,3529.4000000238293,1.0,1613.6000000238419,0.0,,Slider,Slider,4.0,object-56,temp_dist_trial,2.0,t_s_08_1,travel_shared,hand lotion,9.0,competing,single,t_s_08_1.jpg,Travel,$${counterbalance_group},,sub-100
Desktop or Laptop,Windows 10,Chrome 138.0.0.0,1920x1080,1920x1080,Temporal Distance Task,cb_09,51.0,temp_dist_trial,num_items,zn7si1,1.0,response,2_ITEM,1082.999999999971,1066.1999999999823,1082.999999999971,1082.999999999971,1066.1999999999823,1082.999999999971,1.0,0.0,0.0,,Click Response,2_count,5.0,object-49,temp_dist_trial,3.0,t_s_24_1,travel_shared,ear plugs,9.0,competing,paired,t_s_24_1.jpg,Travel,$${counterbalance_group},,sub-100
Desktop or Laptop,Windows 10,Chrome 138.0.0.0,1920x1080,1920x1080,Temporal Distance Task,cb_09,51.0,temp_dist_trial,dist_items,qkpkxw,2.0,info,,16.700000000011638,0.0,16.700000000011638,16.700000000011638,0.0,16.700000000011638,1.0,0.0,0.0,,Slider,Slider,4.0,object-56,temp_dist_trial,3.0,t_s_24_1,travel_shared,ear plugs,9.0,competing,paired,t_s_24_1.jpg,Travel,$${counterbalance_group},,sub-100
Desktop or Laptop,Windows 10,Chrome 138.0.0.0,1920x1080,1920x1080,Temporal Distance Task,cb_09,51.0,temp_dist_trial,dist_items,qkpkxw,2.0,continue,,2662.3999999999937,2648.6000000000063,2662.3999999999937,2662.3999999999937,2648.6000000000063,2662.3999999999937,1.0,0.0,0.0,,Click To Continue,Next button,7.0,object-60,temp_dist_trial,3.0,t_s_24_1,travel_shared,ear plugs,9.0,competing,paired,t_s_24_1.jpg,Travel,$${counterbalance_group},,sub-100
Desktop or Laptop,Windows 10,Chrome 138.0.0.0,1920x1080,1920x1080,Temporal Distance Task,cb_09,51.0,temp_dist_trial,dist_items,qkpkxw,2.0,response,78,1449.2999999999884,2648.6000000000063,2665.200000000012,1449.2999999999884,2648.6000000000063,2665.200000000012,1.0,1215.9000000000233,0.0,,Slider,Slider,4.0,object-56,temp_dist_trial,3.0,t_s_24_1,travel_shared,ear plugs,9.0,competing,paired,t_s_24_1.jpg,Travel,$${counterbalance_group},,sub-100
Desktop or Laptop,Windows 10,Chrome 138.0.0.0,1920x1080,1920x1080,Temporal Distance Task,cb_09,52.0,temp_dist_trial,num_items,zn7si1,1.0,response,2_ITEM,1653.6999999761465,1649.1999999999825,1653.6999999761465,1653.6999999761465,1649.1999999999825,1653.6999999761465,1.0,0.0,0.0,,Click Response,2_count,5.0,object-49,temp_dist_trial,4.0,t_m_13_1,travel_Miami,floatie,9.0,unique,single,t_m_13_1.jpg,Travel,$${counterbalance_group},,sub-100
Desktop or Laptop,Windows 10,Chrome 138.0.0.0,1920x1080,1920x1080,Temporal Distance Task,cb_09,52.0,temp_dist_trial,dist_items,qkpkxw,2.0,info,,16.599999999976713,0.0,16.599999999976713,16.599999999976713,0.0,16.599999999976713,1.0,0.0,0.0,,Slider,Slider,4.0,object-56,temp_dist_trial,4.0,t_m_13_1,travel_Miami,floatie,9.0,unique,single,t_m_13_1.jpg,Travel,$${counterbalance_group},,sub-100
Desktop or Laptop,Windows 10,Chrome 138.0.0.0,1920x1080,1920x1080,Temporal Distance Task,cb_09,52.0,temp_dist_trial,dist_items,qkpkxw,2.0,continue,,2434.999999952328,2432.200000000012,2434.999999952328,2434.999999952328,2432.200000000012,2434.999999952328,1.0,0.0,0.0,,Click To Continue,Next button,7.0,object-60,temp_dist_trial,4.0,t_m_13_1,travel_Miami,floatie,9.0,unique,single,t_m_13_1.jpg,Travel,$${counterbalance_group},,sub-100
Desktop or Laptop,Windows 10,Chrome 138.0.0.0,1920x1080,1920x1080,Temporal Distance Task,cb_09,52.0,temp_dist_trial,dist_items,qkpkxw,2.0,response,80,1249.4000000000233,2432.200000000012,2435.499999952328,1249.4000000000233,2432.200000000012,2435.499999952328,1.0,1186.0999999523046,0.0,,Slider,Slider,4.0,object-56,temp_dist_trial,4.0,t_m_13_1,travel_Miami,floatie,9.0,unique,single,t_m_13_1.jpg,Travel,$${counterbalance_group},,sub-100
Desktop or Laptop,Windows 10,Chrome 138.0.0.0,1920x1080,1920x1080,Temporal Distance Task,cb_09,53.0,temp_dist_trial,num_items,zn7si1,1.0,response,1_ITEM,1042.0,1032.7999999999884,1042.0,1042.0,1032.7999999999884,1042.0,1.0,0.0,0.0,,Click Response,1_count,3.0,object-46,temp_dist_trial,5.0,t_i_20_1,travel_Iceland,lantern,9.0,unique,paired,t_i_20_1.jpg,Travel,$${counterbalance_group},,sub-100
Desktop or Laptop,Windows 10,Chrome 138.0.0.0,1920x1080,1920x1080,Temporal Distance Task,cb_09,54.0,temp_dist_trial,num_items,zn7si1,1.0,response,1_ITEM,1055.500000047672,1049.3999999999942,1055.500000047672,1055.500000047672,1049.3999999999942,1055.500000047672,1.0,0.0,0.0,,Click Response,1_count,3.0,object-46,temp_dist_trial,6.0,t_s_12_1,travel_shared,clear toiletry bag,9.0,competing,paired,t_s_12_1.jpg,Travel,$${counterbalance_group},,sub-100
Desktop or Laptop,Windows 10,Chrome 138.0.0.0,1920x1080,1920x1080,Temporal Distance Task,cb_09,55.0,temp_dist_trial,num_items,zn7si1,1.0,response,1_ITEM,1588.0,1582.6000000000058,1588.0,1588.0,1582.6000000000058,1588.0,1.0,0.0,0.0,,Click Response,1_count,3.0,object-46,temp_dist_trial,7.0,t_m_11_1,travel_Miami,collapsible beach chair,9.0,unique,single,t_m_11_1.jpg,Travel,$${counterbalance_group},,sub-100
Desktop or Laptop,Windows 10,Chrome 138.0.0.0,1920x1080,1920x1080,Temporal Distance Task,cb_09,56.0,temp_dist_trial,num_items,zn7si1,1.0,response,1_ITEM,1427.999999976164,1416.0,1427.999999976164,1427.999999976164,1416.0,1427.999999976164,1.0,0.0,0.0,,Click Response,1_count,3.0,object-46,temp_dist_trial,8.0,t_m_18_1,travel_Miami,waterproof tote,9.0,unique,paired,t_m_18_1.jpg,Travel,$${counterbalance_group},,sub-100
Desktop or Laptop,Windows 10,Chrome 138.0.0.0,1920x1080,1920x1080,Temporal Distance Task,cb_09,57.0,temp_dist_trial,num_items,zn7si1,1.0,response,2_ITEM,1425.9000000476956,1415.9000000000233,1425.9000000476956,1425.9000000476956,1415.9000000000233,1425.9000000476956,1.0,0.0,0.0,,Click Response,2_count,5.0,object-49,temp_dist_trial,9.0,t_s_15_1,travel_shared,luggage tag,9.0,competing,paired,t_s_15_1.jpg,Travel,$${counterbalance_group},,sub-100
Desktop or Laptop,Windows 10,Chrome 138.0.0.0,1920x1080,1920x1080,Temporal Distance Task,cb_09,57.0,temp_dist_trial,dist_items,qkpkxw,2.0,info,,16.700000000011638,0.0,16.700000000011638,16.700000000011638,0.0,16.700000000011638,1.0,0.0,0.0,,Slider,Slider,4.0,object-56,temp_dist_trial,9.0,t_s_15_1,travel_shared,luggage tag,9.0,competing,paired,t_s_15_1.jpg,Travel,$${counterbalance_group},,sub-100
Desktop or Laptop,Windows 10,Chrome 138.0.0.0,1920x1080,1920x1080,Temporal Distance Task,cb_09,57.0,temp_dist_trial,dist_items,qkpkxw,2.0,continue,,2831.899999999965,2815.199999999982,2831.899999999965,2831.899999999965,2815.199999999982,2831.899999999965,1.0,0.0,0.0,,Click To Continue,Next button,7.0,object-60,temp_dist_trial,9.0,t_s_15_1,travel_shared,luggage tag,9.0,competing,paired,t_s_15_1.jpg,Travel,$${counterbalance_group},,sub-100
Desktop or Laptop,Windows 10,Chrome 138.0.0.0,1920x1080,1920x1080,Temporal Distance Task,cb_09,57.0,temp_dist_trial,dist_items,qkpkxw,2.0,response,77,1166.0,2815.199999999982,2831.899999999965,1166.0,2815.199999999982,2831.899999999965,1.0,1665.8999999999646,0.0,,Slider,Slider,4.0,object-56,temp_dist_trial,9.0,t_s_15_1,travel_shared,luggage tag,9.0,competing,paired,t_s_15_1.jpg,Travel,$${counterbalance_group},,sub-100
Desktop or Laptop,Windows 10,Chrome 138.0.0.0,1920x1080,1920x1080,Temporal Distance Task,cb_09,58.0,temp_dist_trial,num_items,zn7si1,1.0,response,2_ITEM,2008.8000000476893,1999.0,2008.8000000476893,2008.8000000476893,1999.0,2008.8000000476893,1.0,0.0,0.0,,Click Response,2_count,5.0,object-49,temp_dist_trial,10.0,t_i_04_1,travel_Iceland,portable camping stove,9.0,unique,paired,t_i_04_1.jpg,Travel,$${counterbalance_group},,sub-100
Desktop or Laptop,Windows 10,Chrome 138.0.0.0,1920x1080,1920x1080,Temporal Distance Task,cb_09,58.0,temp_dist_trial,dist_items,qkpkxw,2.0,info,,16.599999999976713,0.0,16.599999999976713,16.599999999976713,0.0,16.599999999976713,1.0,0.0,0.0,,Slider,Slider,4.0,object-56,temp_dist_trial,10.0,t_i_04_1,travel_Iceland,portable camping stove,9.0,unique,paired,t_i_04_1.jpg,Travel,$${counterbalance_group},,sub-100
Desktop or Laptop,Windows 10,Chrome 138.0.0.0,1920x1080,1920x1080,Temporal Distance Task,cb_09,58.0,temp_dist_trial,dist_items,qkpkxw,2.0,continue,,3152.999999952328,3148.5,3152.999999952328,3152.999999952328,3148.5,3152.999999952328,1.0,0.0,0.0,,Click To Continue,Next button,7.0,object-60,temp_dist_trial,10.0,t_i_04_1,travel_Iceland,portable camping stove,9.0,unique,paired,t_i_04_1.jpg,Travel,$${counterbalance_group},,sub-100
Desktop or Laptop,Windows 10,Chrome 138.0.0.0,1920x1080,1920x1080,Temporal Distance Task,cb_09,58.0,temp_dist_trial,dist_items,qkpkxw,2.0,response,77,1382.7000000000116,3148.5,3156.499999952328,1382.7000000000116,3148.5,3156.499999952328,1.0,1773.7999999523165,0.0,,Slider,Slider,4.0,object-56,temp_dist_trial,10.0,t_i_04_1,travel_Iceland,portable camping stove,9.0,unique,paired,t_i_04_1.jpg,Travel,$${counterbalance_group},,sub-100
Desktop or Laptop,Windows 10,Chrome 138.0.0.0,1920x1080,1920x1080,Temporal Distance Task,cb_09,59.0,temp_dist_trial,num_items,zn7si1,1.0,response,2_ITEM,1091.499999952328,1082.7000000000116,1091.499999952328,1091.499999952328,1082.7000000000116,1091.499999952328,1.0,0.0,0.0,,Click Response,2_count,5.0,object-49,temp_dist_trial,11.0,t_m_05_1,travel_Miami,sunscreen,9.0,unique,single,t_m_05_1.jpg,Travel,$${counterbalance_group},,sub-100
Desktop or Laptop,Windows 10,Chrome 138.0.0.0,1920x1080,1920x1080,Temporal Distance Task,cb_09,59.0,temp_dist_trial,dist_items,qkpkxw,2.0,info,,16.600000000034925,0.0,16.600000000034925,16.600000000034925,0.0,16.600000000034925,1.0,0.0,0.0,,Slider,Slider,4.0,object-56,temp_dist_trial,11.0,t_m_05_1,travel_Miami,sunscreen,9.0,unique,single,t_m_05_1.jpg,Travel,$${counterbalance_group},,sub-100
Desktop or Laptop,Windows 10,Chrome 138.0.0.0,1920x1080,1920x1080,Temporal Distance Task,cb_09,59.0,temp_dist_trial,dist_items,qkpkxw,2.0,continue,,3071.2000000238186,3065.199999999953,3071.2000000238186,3071.2000000238186,3065.199999999953,3071.2000000238186,1.0,0.0,0.0,,Click To Continue,Next button,7.0,object-60,temp_dist_trial,11.0,t_m_05_1,travel_Miami,sunscreen,9.0,unique,single,t_m_05_1.jpg,Travel,$${counterbalance_group},,sub-100
Desktop or Laptop,Windows 10,Chrome 138.0.0.0,1920x1080,1920x1080,Temporal Distance Task,cb_09,59.0,temp_dist_trial,dist_items,qkpkxw,2.0,response,31,1765.7999999999884,3065.199999999953,3071.8000000476604,1765.7999999999884,3065.199999999953,3071.8000000476604,1.0,1306.000000047672,0.0,,Slider,Slider,4.0,object-56,temp_dist_trial,11.0,t_m_05_1,travel_Miami,sunscreen,9.0,unique,single,t_m_05_1.jpg,Travel,$${counterbalance_group},,sub-100
Desktop or Laptop,Windows 10,Chrome 138.0.0.0,1920x1080,1920x1080,Temporal Distance Task,cb_09,60.0,temp_dist_trial,num_items,zn7si1,1.0,response,2_ITEM,932.9000000000232,916.2000000000116,932.9000000000232,932.9000000000232,916.2000000000116,932.9000000000232,1.0,0.0,0.0,,Click Response,2_count,5.0,object-49,temp_dist_trial,12.0,t_s_17_1,travel_shared,toothbrush,9.0,competing,single,t_s_17_1.jpg,Travel,$${counterbalance_group},,sub-100
Desktop or Laptop,Windows 10,Chrome 138.0.0.0,1920x1080,1920x1080,Temporal Distance Task,cb_09,60.0,temp_dist_trial,dist_items,qkpkxw,2.0,info,,16.5,0.0,16.5,16.5,0.0,16.5,1.0,0.0,0.0,,Slider,Slider,4.0,object-56,temp_dist_trial,12.0,t_s_17_1,travel_shared,toothbrush,9.0,competing,single,t_s_17_1.jpg,Travel,$${counterbalance_group},,sub-100
Desktop or Laptop,Windows 10,Chrome 138.0.0.0,1920x1080,1920x1080,Temporal Distance Task,cb_09,60.0,temp_dist_trial,dist_items,qkpkxw,2.0,continue,,2280.600000047707,2265.700000000012,2280.600000047707,2280.600000047707,2265.700000000012,2280.600000047707,1.0,0.0,0.0,,Click To Continue,Next button,7.0,object-60,temp_dist_trial,12.0,t_s_17_1,travel_shared,toothbrush,9.0,competing,single,t_s_17_1.jpg,Travel,$${counterbalance_group},,sub-100
Desktop or Laptop,Windows 10,Chrome 138.0.0.0,1920x1080,1920x1080,Temporal Distance Task,cb_09,60.0,temp_dist_trial,dist_items,qkpkxw,2.0,response,72,1332.8000000000466,2265.700000000012,2281.500000023865,1332.8000000000466,2265.700000000012,2281.500000023865,1.0,948.7000000238188,0.0,,Slider,Slider,4.0,object-56,temp_dist_trial,12.0,t_s_17_1,travel_shared,toothbrush,9.0,competing,single,t_s_17_1.jpg,Travel,$${counterbalance_group},,sub-100
Desktop or Laptop,Windows 10,Chrome 138.0.0.0,1920x1080,1920x1080,Temporal Distance Task,cb_09,61.0,temp_dist_trial,num_items,zn7si1,1.0,response,2_ITEM,1173.8000000238535,1166.0,1173.8000000238535,1173.8000000238535,1166.0,1173.8000000238535,1.0,0.0,0.0,,Click Response,2_count,5.0,object-49,temp_dist_trial,13.0,t_s_18_1,travel_shared,first aid kit,9.0,competing,single,t_s_18_1.jpg,Travel,$${counterbalance_group},,sub-100
Desktop or Laptop,Windows 10,Chrome 138.0.0.0,1920x1080,1920x1080,Temporal Distance Task,cb_09,61.0,temp_dist_trial,dist_items,qkpkxw,2.0,info,,16.600000000034925,0.0,16.600000000034925,16.600000000034925,0.0,16.600000000034925,1.0,0.0,0.0,,Slider,Slider,4.0,object-56,temp_dist_trial,13.0,t_s_18_1,travel_shared,first aid kit,9.0,competing,single,t_s_18_1.jpg,Travel,$${counterbalance_group},,sub-100
Desktop or Laptop,Windows 10,Chrome 138.0.0.0,1920x1080,1920x1080,Temporal Distance Task,cb_09,61.0,temp_dist_trial,dist_items,qkpkxw,2.0,continue,,3454.4000000238293,3448.2999999999884,3454.4000000238293,3454.4000000238293,3448.2999999999884,3454.4000000238293,1.0,0.0,0.0,,Click To Continue,Next button,7.0,object-60,temp_dist_trial,13.0,t_s_18_1,travel_shared,first aid kit,9.0,competing,single,t_s_18_1.jpg,Travel,$${counterbalance_group},,sub-100
Desktop or Laptop,Windows 10,Chrome 138.0.0.0,1920x1080,1920x1080,Temporal Distance Task,cb_09,61.0,temp_dist_trial,dist_items,qkpkxw,2.0,response,70,2015.7000000000119,3448.2999999999884,3460.000000047672,2015.7000000000119,3448.2999999999884,3460.000000047672,1.0,1444.3000000476604,0.0,,Slider,Slider,4.0,object-56,temp_dist_trial,13.0,t_s_18_1,travel_shared,first aid kit,9.0,competing,single,t_s_18_1.jpg,Travel,$${counterbalance_group},,sub-100
Desktop or Laptop,Windows 10,Chrome 138.0.0.0,1920x1080,1920x1080,Temporal Distance Task,cb_09,62.0,temp_dist_trial,num_items,zn7si1,1.0,response,2_ITEM,941.5,932.9000000000232,941.5,941.5,932.9000000000232,941.5,1.0,0.0,0.0,,Click Response,2_count,5.0,object-49,temp_dist_trial,14.0,t_s_10_1,travel_shared,luggage lock,9.0,competing,paired,t_s_10_1.jpg,Travel,$${counterbalance_group},,sub-100
Desktop or Laptop,Windows 10,Chrome 138.0.0.0,1920x1080,1920x1080,Temporal Distance Task,cb_09,62.0,temp_dist_trial,dist_items,qkpkxw,2.0,info,,16.600000000034925,0.0,16.600000000034925,16.600000000034925,0.0,16.600000000034925,1.0,0.0,0.0,,Slider,Slider,4.0,object-56,temp_dist_trial,14.0,t_s_10_1,travel_shared,luggage lock,9.0,competing,paired,t_s_10_1.jpg,Travel,$${counterbalance_group},,sub-100
Desktop or Laptop,Windows 10,Chrome 138.0.0.0,1920x1080,1920x1080,Temporal Distance Task,cb_09,62.0,temp_dist_trial,dist_items,qkpkxw,2.0,continue,,3871.799999999989,3864.799999999989,3871.799999999989,3871.799999999989,3864.799999999989,3871.799999999989,1.0,0.0,0.0,,Click To Continue,Next button,7.0,object-60,temp_dist_trial,14.0,t_s_10_1,travel_shared,luggage lock,9.0,competing,paired,t_s_10_1.jpg,Travel,$${counterbalance_group},,sub-100
Desktop or Laptop,Windows 10,Chrome 138.0.0.0,1920x1080,1920x1080,Temporal Distance Task,cb_09,62.0,temp_dist_trial,dist_items,qkpkxw,2.0,response,38,2448.7999999999884,3864.799999999989,3872.299999999989,2448.7999999999884,3864.799999999989,3872.299999999989,1.0,1423.5,0.0,,Slider,Slider,4.0,object-56,temp_dist_trial,14.0,t_s_10_1,travel_shared,luggage lock,9.0,competing,paired,t_s_10_1.jpg,Travel,$${counterbalance_group},,sub-100
Desktop or Laptop,Windows 10,Chrome 138.0.0.0,1920x1080,1920x1080,Temporal Distance Task,cb_09,63.0,temp_dist_trial,num_items,zn7si1,1.0,response,2_ITEM,1190.2999999523165,1182.7999999999886,1190.2999999523165,1190.2999999523165,1182.7999999999886,1190.2999999523165,1.0,0.0,0.0,,Click Response,2_count,5.0,object-49,temp_dist_trial,15.0,t_i_08_1,travel_Iceland,thick socks,9.0,unique,paired,t_i_08_1.jpg,Travel,$${counterbalance_group},,sub-100
Desktop or Laptop,Windows 10,Chrome 138.0.0.0,1920x1080,1920x1080,Temporal Distance Task,cb_09,63.0,temp_dist_trial,dist_items,qkpkxw,2.0,info,,16.600000000034925,0.0,16.600000000034925,16.600000000034925,0.0,16.600000000034925,1.0,0.0,0.0,,Slider,Slider,4.0,object-56,temp_dist_trial,15.0,t_i_08_1,travel_Iceland,thick socks,9.0,unique,paired,t_i_08_1.jpg,Travel,$${counterbalance_group},,sub-100
Desktop or Laptop,Windows 10,Chrome 138.0.0.0,1920x1080,1920x1080,Temporal Distance Task,cb_09,63.0,temp_dist_trial,dist_items,qkpkxw,2.0,continue,,1927.6999999761465,1915.7999999999884,1927.6999999761465,1927.6999999761465,1915.7999999999884,1927.6999999761465,1.0,0.0,0.0,,Click To Continue,Next button,7.0,object-60,temp_dist_trial,15.0,t_i_08_1,travel_Iceland,thick socks,9.0,unique,paired,t_i_08_1.jpg,Travel,$${counterbalance_group},,sub-100
Desktop or Laptop,Windows 10,Chrome 138.0.0.0,1920x1080,1920x1080,Temporal Distance Task,cb_09,63.0,temp_dist_trial,dist_items,qkpkxw,2.0,response,32,949.5,1915.7999999999884,1928.500000047672,949.5,1915.7999999999884,1928.500000047672,1.0,979.000000047672,0.0,,Slider,Slider,4.0,object-56,temp_dist_trial,15.0,t_i_08_1,travel_Iceland,thick socks,9.0,unique,paired,t_i_08_1.jpg,Travel,$${counterbalance_group},,sub-100
Desktop or Laptop,Windows 10,Chrome 138.0.0.0,1920x1080,1920x1080,Temporal Distance Task,cb_09,64.0,temp_dist_trial,num_items,zn7si1,1.0,response,2_ITEM,1139.399999976158,1132.7999999999886,1139.399999976158,1139.399999976158,1132.7999999999886,1139.399999976158,1.0,0.0,0.0,,Click Response,2_count,5.0,object-49,temp_dist_trial,16.0,t_s_04_1,travel_shared,instant camera,9.0,competing,paired,t_s_04_1.jpg,Travel,$${counterbalance_group},,sub-100
Desktop or Laptop,Windows 10,Chrome 138.0.0.0,1920x1080,1920x1080,Temporal Distance Task,cb_09,64.0,temp_dist_trial,dist_items,qkpkxw,2.0,info,,16.699999999953434,0.0,16.699999999953434,16.699999999953434,0.0,16.699999999953434,1.0,0.0,0.0,,Slider,Slider,4.0,object-56,temp_dist_trial,16.0,t_s_04_1,travel_shared,instant camera,9.0,competing,paired,t_s_04_1.jpg,Travel,$${counterbalance_group},,sub-100
Desktop or Laptop,Windows 10,Chrome 138.0.0.0,1920x1080,1920x1080,Temporal Distance Task,cb_09,64.0,temp_dist_trial,dist_items,qkpkxw,2.0,response,dist_miss,6996.400000000023,6996.400000000023,6996.400000000023,6996.400000000023,6996.400000000023,6996.400000000023,1.0,0.0,0.0,dist_miss_tag,Time Limit,screen,0.0,screen,temp_dist_trial,16.0,t_s_04_1,travel_shared,instant camera,9.0,competing,paired,t_s_04_1.jpg,Travel,$${counterbalance_group},,sub-100
Desktop or Laptop,Windows 10,Chrome 138.0.0.0,1920x1080,1920x1080,Temporal Distance Task,cb_09,64.0,temp_dist_trial,dist_items,qkpkxw,2.0,response,72,2348.9000000000233,6996.400000000023,7009.2999999761805,2348.9000000000233,6996.400000000023,7009.2999999761805,1.0,4660.399999976158,0.0,,Slider,Slider,4.0,object-56,temp_dist_trial,16.0,t_s_04_1,travel_shared,instant camera,9.0,competing,paired,t_s_04_1.jpg,Travel,$${counterbalance_group},,sub-100
Desktop or Laptop,Windows 10,Chrome 138.0.0.0,1920x1080,1920x1080,Temporal Distance Task,cb_09,65.0,temp_dist_trial,num_items,zn7si1,1.0,response,2_ITEM,2401.100000023842,2398.7999999999884,2401.100000023842,2401.100000023842,2398.7999999999884,2401.100000023842,1.0,0.0,0.0,,Click Response,2_count,5.0,object-49,temp_dist_trial,17.0,t_m_15_1,travel_Miami,shorts,9.0,unique,paired,t_m_15_1.jpg,Travel,$${counterbalance_group},,sub-100
Desktop or Laptop,Windows 10,Chrome 138.0.0.0,1920x1080,1920x1080,Temporal Distance Task,cb_09,65.0,temp_dist_trial,dist_items,qkpkxw,2.0,info,,16.600000000034925,0.0,16.600000000034925,16.600000000034925,0.0,16.600000000034925,1.0,0.0,0.0,,Slider,Slider,4.0,object-56,temp_dist_trial,17.0,t_m_15_1,travel_Miami,shorts,9.0,unique,paired,t_m_15_1.jpg,Travel,$${counterbalance_group},,sub-100
Desktop or Laptop,Windows 10,Chrome 138.0.0.0,1920x1080,1920x1080,Temporal Distance Task,cb_09,65.0,temp_dist_trial,dist_items,qkpkxw,2.0,continue,,2746.7999999999884,2732.0,2746.7999999999884,2746.7999999999884,2732.0,2746.7999999999884,1.0,0.0,0.0,,Click To Continue,Next button,7.0,object-60,temp_dist_trial,17.0,t_m_15_1,travel_Miami,shorts,9.0,unique,paired,t_m_15_1.jpg,Travel,$${counterbalance_group},,sub-100
Desktop or Laptop,Windows 10,Chrome 138.0.0.0,1920x1080,1920x1080,Temporal Distance Task,cb_09,65.0,temp_dist_trial,dist_items,qkpkxw,2.0,response,27,1116.0,2732.0,2747.9000000238298,1116.0,2732.0,2747.9000000238298,1.0,1631.9000000238302,0.0,,Slider,Slider,4.0,object-56,temp_dist_trial,17.0,t_m_15_1,travel_Miami,shorts,9.0,unique,paired,t_m_15_1.jpg,Travel,$${counterbalance_group},,sub-100
Desktop or Laptop,Windows 10,Chrome 138.0.0.0,1920x1080,1920x1080,Temporal Distance Task,cb_09,66.0,temp_dist_trial,num_items,zn7si1,1.0,response,2_ITEM,923.0999999523046,916.2000000000116,923.0999999523046,923.0999999523046,916.2000000000116,923.0999999523046,1.0,0.0,0.0,,Click Response,2_count,5.0,object-49,temp_dist_trial,18.0,t_m_09_1,travel_Miami,beach towel,9.0,unique,single,t_m_09_1.jpg,Travel,$${counterbalance_group},,sub-100
Desktop or Laptop,Windows 10,Chrome 138.0.0.0,1920x1080,1920x1080,Temporal Distance Task,cb_09,66.0,temp_dist_trial,dist_items,qkpkxw,2.0,info,,16.700000000011638,0.0,16.700000000011638,16.700000000011638,0.0,16.700000000011638,1.0,0.0,0.0,,Slider,Slider,4.0,object-56,temp_dist_trial,18.0,t_m_09_1,travel_Miami,beach towel,9.0,unique,single,t_m_09_1.jpg,Travel,$${counterbalance_group},,sub-100
Desktop or Laptop,Windows 10,Chrome 138.0.0.0,1920x1080,1920x1080,Temporal Distance Task,cb_09,66.0,temp_dist_trial,dist_items,qkpkxw,2.0,continue,,2780.500000047672,2765.200000000012,2780.500000047672,2780.500000047672,2765.200000000012,2780.500000047672,1.0,0.0,0.0,,Click To Continue,Next button,7.0,object-60,temp_dist_trial,18.0,t_m_09_1,travel_Miami,beach towel,9.0,unique,single,t_m_09_1.jpg,Travel,$${counterbalance_group},,sub-100
Desktop or Laptop,Windows 10,Chrome 138.0.0.0,1920x1080,1920x1080,Temporal Distance Task,cb_09,66.0,temp_dist_trial,dist_items,qkpkxw,2.0,response,36,966.2999999999884,2765.200000000012,2781.000000047672,966.2999999999884,2765.200000000012,2781.000000047672,1.0,1814.700000047684,0.0,,Slider,Slider,4.0,object-56,temp_dist_trial,18.0,t_m_09_1,travel_Miami,beach towel,9.0,unique,single,t_m_09_1.jpg,Travel,$${counterbalance_group},,sub-100
Desktop or Laptop,Windows 10,Chrome 138.0.0.0,1920x1080,1920x1080,Temporal Distance Task,cb_09,67.0,temp_dist_trial,num_items,zn7si1,1.0,response,2_ITEM,1496.399999952293,1482.6999999999537,1496.399999952293,1496.399999952293,1482.6999999999537,1496.399999952293,1.0,0.0,0.0,,Click Response,2_count,5.0,object-49,temp_dist_trial,19.0,t_i_18_1,travel_Iceland,ski mask,9.0,unique,paired,t_i_18_1.jpg,Travel,$${counterbalance_group},,sub-100
Desktop or Laptop,Windows 10,Chrome 138.0.0.0,1920x1080,1920x1080,Temporal Distance Task,cb_09,67.0,temp_dist_trial,dist_items,qkpkxw,2.0,info,,16.700000000011638,0.0,16.700000000011638,16.700000000011638,0.0,16.700000000011638,1.0,0.0,0.0,,Slider,Slider,4.0,object-56,temp_dist_trial,19.0,t_i_18_1,travel_Iceland,ski mask,9.0,unique,paired,t_i_18_1.jpg,Travel,$${counterbalance_group},,sub-100
Desktop or Laptop,Windows 10,Chrome 138.0.0.0,1920x1080,1920x1080,Temporal Distance Task,cb_09,67.0,temp_dist_trial,dist_items,qkpkxw,2.0,continue,,2331.9000000000233,2315.4000000000233,2331.9000000000233,2331.9000000000233,2315.4000000000233,2331.9000000000233,1.0,0.0,0.0,,Click To Continue,Next button,7.0,object-60,temp_dist_trial,19.0,t_i_18_1,travel_Iceland,ski mask,9.0,unique,paired,t_i_18_1.jpg,Travel,$${counterbalance_group},,sub-100
Desktop or Laptop,Windows 10,Chrome 138.0.0.0,1920x1080,1920x1080,Temporal Distance Task,cb_09,67.0,temp_dist_trial,dist_items,qkpkxw,2.0,response,36,1199.4000000000233,2315.4000000000233,2331.9000000000233,1199.4000000000233,2315.4000000000233,2331.9000000000233,1.0,1132.5,0.0,,Slider,Slider,4.0,object-56,temp_dist_trial,19.0,t_i_18_1,travel_Iceland,ski mask,9.0,unique,paired,t_i_18_1.jpg,Travel,$${counterbalance_group},,sub-100
Desktop or Laptop,Windows 10,Chrome 138.0.0.0,1920x1080,1920x1080,Temporal Distance Task,cb_09,68.0,temp_dist_trial,num_items,zn7si1,1.0,response,2_ITEM,1080.5999999999767,1066.1999999999532,1080.5999999999767,1080.5999999999767,1066.1999999999532,1080.5999999999767,1.0,0.0,0.0,,Click Response,2_count,5.0,object-49,temp_dist_trial,20.0,t_s_06_1,travel_shared,luggage,9.0,competing,paired,t_s_06_1.jpg,Travel,$${counterbalance_group},,sub-100
Desktop or Laptop,Windows 10,Chrome 138.0.0.0,1920x1080,1920x1080,Temporal Distance Task,cb_09,68.0,temp_dist_trial,dist_items,qkpkxw,2.0,info,,16.700000000011638,0.0,16.700000000011638,16.700000000011638,0.0,16.700000000011638,1.0,0.0,0.0,,Slider,Slider,4.0,object-56,temp_dist_trial,20.0,t_s_06_1,travel_shared,luggage,9.0,competing,paired,t_s_06_1.jpg,Travel,$${counterbalance_group},,sub-100
Desktop or Laptop,Windows 10,Chrome 138.0.0.0,1920x1080,1920x1080,Temporal Distance Task,cb_09,68.0,temp_dist_trial,dist_items,qkpkxw,2.0,continue,,2723.200000047684,2715.2999999999884,2723.200000047684,2723.200000047684,2715.2999999999884,2723.200000047684,1.0,0.0,0.0,,Click To Continue,Next button,7.0,object-60,temp_dist_trial,20.0,t_s_06_1,travel_shared,luggage,9.0,competing,paired,t_s_06_1.jpg,Travel,$${counterbalance_group},,sub-100
Desktop or Laptop,Windows 10,Chrome 138.0.0.0,1920x1080,1920x1080,Temporal Distance Task,cb_09,68.0,temp_dist_trial,dist_items,qkpkxw,2.0,response,38,1615.7999999999884,2715.2999999999884,2723.700000047684,1615.7999999999884,2715.2999999999884,2723.700000047684,1.0,1107.9000000476954,0.0,,Slider,Slider,4.0,object-56,temp_dist_trial,20.0,t_s_06_1,travel_shared,luggage,9.0,competing,paired,t_s_06_1.jpg,Travel,$${counterbalance_group},,sub-100
Desktop or Laptop,Windows 10,Chrome 138.0.0.0,1920x1080,1920x1080,Temporal Distance Task,cb_09,69.0,temp_dist_trial,num_items,zn7si1,1.0,response,2_ITEM,1023.2000000000116,1016.1000000000348,1023.2000000000116,1023.2000000000116,1016.1000000000348,1023.2000000000116,1.0,0.0,0.0,,Click Response,2_count,5.0,object-49,temp_dist_trial,21.0,t_s_19_1,travel_shared,pajamas,9.0,competing,paired,t_s_19_1.jpg,Travel,$${counterbalance_group},,sub-100
Desktop or Laptop,Windows 10,Chrome 138.0.0.0,1920x1080,1920x1080,Temporal Distance Task,cb_09,69.0,temp_dist_trial,dist_items,qkpkxw,2.0,info,,16.800000000046566,0.0,16.800000000046566,16.800000000046566,0.0,16.800000000046566,1.0,0.0,0.0,,Slider,Slider,4.0,object-56,temp_dist_trial,21.0,t_s_19_1,travel_shared,pajamas,9.0,competing,paired,t_s_19_1.jpg,Travel,$${counterbalance_group},,sub-100
Desktop or Laptop,Windows 10,Chrome 138.0.0.0,1920x1080,1920x1080,Temporal Distance Task,cb_09,69.0,temp_dist_trial,dist_items,qkpkxw,2.0,continue,,2373.399999952293,2365.2999999999884,2373.399999952293,2373.399999952293,2365.2999999999884,2373.399999952293,1.0,0.0,0.0,,Click To Continue,Next button,7.0,object-60,temp_dist_trial,21.0,t_s_19_1,travel_shared,pajamas,9.0,competing,paired,t_s_19_1.jpg,Travel,$${counterbalance_group},,sub-100
Desktop or Laptop,Windows 10,Chrome 138.0.0.0,1920x1080,1920x1080,Temporal Distance Task,cb_09,69.0,temp_dist_trial,dist_items,qkpkxw,2.0,response,67,1349.1999999999534,2365.2999999999884,2379.099999999977,1349.1999999999534,2365.2999999999884,2379.099999999977,1.0,1029.9000000000233,0.0,,Slider,Slider,4.0,object-56,temp_dist_trial,21.0,t_s_19_1,travel_shared,pajamas,9.0,competing,paired,t_s_19_1.jpg,Travel,$${counterbalance_group},,sub-100
Desktop or Laptop,Windows 10,Chrome 138.0.0.0,1920x1080,1920x1080,Temporal Distance Task,cb_09,70.0,temp_dist_trial,num_items,zn7si1,1.0,response,1_ITEM,2273.9000000238298,2265.599999999977,2273.9000000238298,2273.9000000238298,2265.599999999977,2273.9000000238298,1.0,0.0,0.0,,Click Response,1_count,3.0,object-46,temp_dist_trial,22.0,t_s_01_1,travel_shared,fanny pack,9.0,competing,paired,t_s_01_1.jpg,Travel,$${counterbalance_group},,sub-100
Desktop or Laptop,Windows 10,Chrome 138.0.0.0,1920x1080,1920x1080,Temporal Distance Task,cb_09,71.0,temp_dist_trial,num_items,zn7si1,1.0,response,1_ITEM,1213.1999999523396,1199.4000000000233,1213.1999999523396,1213.1999999523396,1199.4000000000233,1213.1999999523396,1.0,0.0,0.0,,Click Response,1_count,3.0,object-46,temp_dist_trial,23.0,t_s_23_1,travel_shared,ball cap,9.0,competing,paired,t_s_23_1.jpg,Travel,$${counterbalance_group},,sub-100
Desktop or Laptop,Windows 10,Chrome 138.0.0.0,1920x1080,1920x1080,Temporal Distance Task,cb_09,72.0,temp_dist_trial,num_items,zn7si1,1.0,response,1_ITEM,819.7000000476837,816.2000000000116,819.7000000476837,819.7000000476837,816.2000000000116,819.7000000476837,1.0,0.0,0.0,,Click Response,1_count,3.0,object-46,temp_dist_trial,24.0,t_s_16_1,travel_shared,chapstick,9.0,competing,paired,t_s_16_1.jpg,Travel,$${counterbalance_group},,sub-100
Desktop or Laptop,Windows 10,Chrome 138.0.0.0,1920x1080,1920x1080,Temporal Distance Task,cb_09,73.0,temp_dist_trial,num_items,zn7si1,1.0,response,2_ITEM,2435.100000023842,2432.200000000012,2435.100000023842,2435.100000023842,2432.200000000012,2435.100000023842,1.0,0.0,0.0,,Click Response,2_count,5.0,object-49,temp_dist_trial,25.0,t_m_16_1,travel_Miami,flippers,9.0,unique,paired,t_m_16_1.jpg,Travel,$${counterbalance_group},,sub-100
Desktop or Laptop,Windows 10,Chrome 138.0.0.0,1920x1080,1920x1080,Temporal Distance Task,cb_09,73.0,temp_dist_trial,dist_items,qkpkxw,2.0,info,,16.5,0.0,16.5,16.5,0.0,16.5,1.0,0.0,0.0,,Slider,Slider,4.0,object-56,temp_dist_trial,25.0,t_m_16_1,travel_Miami,flippers,9.0,unique,paired,t_m_16_1.jpg,Travel,$${counterbalance_group},,sub-100
Desktop or Laptop,Windows 10,Chrome 138.0.0.0,1920x1080,1920x1080,Temporal Distance Task,cb_09,73.0,temp_dist_trial,dist_items,qkpkxw,2.0,continue,,2511.600000023842,2498.7999999999884,2511.600000023842,2511.600000023842,2498.7999999999884,2511.600000023842,1.0,0.0,0.0,,Click To Continue,Next button,7.0,object-60,temp_dist_trial,25.0,t_m_16_1,travel_Miami,flippers,9.0,unique,paired,t_m_16_1.jpg,Travel,$${counterbalance_group},,sub-100
Desktop or Laptop,Windows 10,Chrome 138.0.0.0,1920x1080,1920x1080,Temporal Distance Task,cb_09,73.0,temp_dist_trial,dist_items,qkpkxw,2.0,response,84,1282.7999999999886,2498.7999999999884,2515.0,1282.7999999999886,2498.7999999999884,2515.0,1.0,1232.2000000000114,0.0,,Slider,Slider,4.0,object-56,temp_dist_trial,25.0,t_m_16_1,travel_Miami,flippers,9.0,unique,paired,t_m_16_1.jpg,Travel,$${counterbalance_group},,sub-100
Desktop or Laptop,Windows 10,Chrome 138.0.0.0,1920x1080,1920x1080,Temporal Distance Task,cb_09,74.0,temp_dist_trial,num_items,zn7si1,1.0,response,2_ITEM,2015.099999976169,1999.1000000000354,2015.099999976169,2015.099999976169,1999.1000000000354,2015.099999976169,1.0,0.0,0.0,,Click Response,2_count,5.0,object-49,temp_dist_trial,26.0,t_i_14_1,travel_Iceland,snow pants,9.0,unique,paired,t_i_14_1.jpg,Travel,$${counterbalance_group},,sub-100
Desktop or Laptop,Windows 10,Chrome 138.0.0.0,1920x1080,1920x1080,Temporal Distance Task,cb_09,74.0,temp_dist_trial,dist_items,qkpkxw,2.0,info,,16.599999999976713,0.0,16.599999999976713,16.599999999976713,0.0,16.599999999976713,1.0,0.0,0.0,,Slider,Slider,4.0,object-56,temp_dist_trial,26.0,t_i_14_1,travel_Iceland,snow pants,9.0,unique,paired,t_i_14_1.jpg,Travel,$${counterbalance_group},,sub-100
Desktop or Laptop,Windows 10,Chrome 138.0.0.0,1920x1080,1920x1080,Temporal Distance Task,cb_09,74.0,temp_dist_trial,dist_items,qkpkxw,2.0,continue,,4644.400000000023,4631.100000000035,4644.400000000023,4644.400000000023,4631.100000000035,4644.400000000023,1.0,0.0,0.0,,Click To Continue,Next button,7.0,object-60,temp_dist_trial,26.0,t_i_14_1,travel_Iceland,snow pants,9.0,unique,paired,t_i_14_1.jpg,Travel,$${counterbalance_group},,sub-100
Desktop or Laptop,Windows 10,Chrome 138.0.0.0,1920x1080,1920x1080,Temporal Distance Task,cb_09,74.0,temp_dist_trial,dist_items,qkpkxw,2.0,response,32,1016.2000000000116,4631.100000000035,4645.100000047707,1016.2000000000116,4631.100000000035,4645.100000047707,1.0,3628.900000047696,0.0,,Slider,Slider,4.0,object-56,temp_dist_trial,26.0,t_i_14_1,travel_Iceland,snow pants,9.0,unique,paired,t_i_14_1.jpg,Travel,$${counterbalance_group},,sub-100
Desktop or Laptop,Windows 10,Chrome 138.0.0.0,1920x1080,1920x1080,Temporal Distance Task,cb_09,75.0,temp_dist_trial,num_items,zn7si1,1.0,response,2_ITEM,2491.7999999999884,2481.899999999965,2491.7999999999884,2491.7999999999884,2481.899999999965,2491.7999999999884,1.0,0.0,0.0,,Click Response,2_count,5.0,object-49,temp_dist_trial,27.0,t_s_20_1,travel_shared,travel pill case,9.0,competing,single,t_s_20_1.jpg,Travel,$${counterbalance_group},,sub-100
