Participant Device,Participant OS,Participant Browser,Participant Monitor Size,Participant Viewport Size,Task Name,Current Spreadsheet,Trial Number,Display,Screen,Screen ID,Screen Counter,Response Type,Response,Onset Time,Clock Time,Reaction Time,Absolute Onset Time,Absolute Clock Time,Absolute Reaction Time,Correct,Response Duration,Proportion,Tag,Component Name,Object Name,Object Number,Object ID,Spreadsheet: display,Spreadsheet: trial,Spreadsheet: stimulus_id,Spreadsheet: expected_goal,Spreadsheet: stimulus_name,Spreadsheet: c_group,Spreadsheet: condition,Spreadsheet: paired_status,Spreadsheet: stimulus_path,Spreadsheet: block_type,Manipulation: Spreadsheet,Store: enc_test_acc,sub_label
Desktop or Laptop,Windows 10,Chrome 135.0.0.0,2560x1440,1920x1080,Temporal Distance Task,$${counterbalance_group},,,,,,info,BEGIN,,,,,,,0.0,,,,,,,,,,,,,,,,,,,,sub-37
Desktop or Laptop,Windows 10,Chrome 135.0.0.0,2560x1440,1920x1080,Temporal Distance Task,cb_04,1.0,temp_instructions,intro_screen,3tnme7,1.0,continue,,3643.5999999992546,3633.5,3643.5999999992546,3643.5999999992546,3633.5,3643.5999999992546,1.0,0.0,0.0,,Click To Continue,Continue Button,4.0,object-29,temp_instructions,,,Travel,,,,,,,,,sub-37
Desktop or Laptop,Windows 10,Chrome 135.0.0.0,2560x1440,1920x1080,Temporal Distance Task,cb_04,1.0,temp_instructions,intro_screen_2,52v7ur,2.0,continue,,7812.199999997019,7799.9,7812.199999997019,7812.199999997019,7799.9,7812.199999997019,1.0,0.0,0.0,,Click To Continue,Continue Button,4.0,object-39,temp_instructions,,,Travel,,,,,,,,,sub-37
Desktop or Laptop,Windows 10,Chrome 135.0.0.0,2560x1440,1920x1080,Temporal Distance Task,cb_04,1.0,temp_instructions,intro_screen_3,i7lvwx,3.0,continue,,5398.099999997765,5383.299999999998,5398.099999997765,5398.099999997765,5383.299999999998,5398.099999997765,1.0,0.0,0.0,,Click To Continue,Continue Button,4.0,object-67,temp_instructions,,,Travel,,,,,,,,,sub-37
Desktop or Laptop,Windows 10,Chrome 135.0.0.0,2560x1440,1920x1080,Temporal Distance Task,cb_04,1.0,temp_instructions,test_q1,5ieqx1,4.0,response,choice_3,4654.399999999256,4650.100000000002,4654.399999999256,4654.399999999256,4650.100000000002,4654.399999999256,1.0,0.0,0.0,,Click Response,choice_3,5.0,object-345,temp_instructions,,,Travel,,,,,,,,,sub-37
Desktop or Laptop,Windows 10,Chrome 135.0.0.0,2560x1440,1920x1080,Temporal Distance Task,cb_04,1.0,temp_instructions,score_corr,7ilvjr,5.0,continue,,815.2999999992535,800.0,815.2999999992535,815.2999999992535,800.0,815.2999999992535,1.0,0.0,0.0,,Click To Continue,Continue Button,3.0,object-23,temp_instructions,,,Travel,,,,,,,,,sub-37
Desktop or Laptop,Windows 10,Chrome 135.0.0.0,2560x1440,1920x1080,Temporal Distance Task,cb_04,1.0,temp_eventStart,Screen 1,dgtyxe,1.0,continue,,1497.4999999985087,1483.2999999999995,1497.4999999985087,1497.4999999985087,1483.2999999999995,1497.4999999985087,1.0,0.0,0.0,,Click To Continue,Next Button,3.0,object-43,temp_eventStart,,,Travel,,,,,,,,,sub-37
Desktop or Laptop,Windows 10,Chrome 135.0.0.0,2560x1440,1920x1080,Temporal Distance Task,cb_04,1.0,temp_dist_trial,num_items,zn7si1,1.0,response,2_ITEM,1576.1999999985092,1566.7999999999995,1576.1999999985092,1576.1999999985092,1566.7999999999995,1576.1999999985092,1.0,0.0,0.0,,Click Response,2_count,5.0,object-49,temp_dist_trial,1.0,t_s_13_1,travel_shared,contact lens case,4.0,competing,single,t_s_13_1.jpg,Travel,,,sub-37
Desktop or Laptop,Windows 10,Chrome 135.0.0.0,2560x1440,1920x1080,Temporal Distance Task,cb_04,1.0,temp_dist_trial,dist_items,qkpkxw,2.0,info,,5.099999998510612,0.0,5.099999998510612,5.099999998510612,0.0,5.099999998510612,1.0,0.0,0.0,,Slider,Slider,4.0,object-56,temp_dist_trial,1.0,t_s_13_1,travel_shared,contact lens case,4.0,competing,single,t_s_13_1.jpg,Travel,,,sub-37
Desktop or Laptop,Windows 10,Chrome 135.0.0.0,2560x1440,1920x1080,Temporal Distance Task,cb_04,1.0,temp_dist_trial,dist_items,qkpkxw,2.0,continue,,3804.499999997021,3800.1000000000013,3804.499999997021,3804.499999997021,3800.1000000000013,3804.499999997021,1.0,0.0,0.0,,Click To Continue,Next button,7.0,object-60,temp_dist_trial,1.0,t_s_13_1,travel_shared,contact lens case,4.0,competing,single,t_s_13_1.jpg,Travel,,,sub-37
Desktop or Laptop,Windows 10,Chrome 135.0.0.0,2560x1440,1920x1080,Temporal Distance Task,cb_04,1.0,temp_dist_trial,dist_items,qkpkxw,2.0,response,35,1250.1000000000022,3800.1000000000013,3804.7999999977656,1250.1000000000022,3800.1000000000013,3804.7999999977656,1.0,2554.6999999977634,0.0,,Slider,Slider,4.0,object-56,temp_dist_trial,1.0,t_s_13_1,travel_shared,contact lens case,4.0,competing,single,t_s_13_1.jpg,Travel,,,sub-37
Desktop or Laptop,Windows 10,Chrome 135.0.0.0,2560x1440,1920x1080,Temporal Distance Task,cb_04,2.0,temp_dist_trial,num_items,zn7si1,1.0,response,1_ITEM,1854.4999999985087,1850.0999999999985,1854.4999999985087,1854.4999999985087,1850.0999999999985,1854.4999999985087,1.0,0.0,0.0,,Click Response,1_count,3.0,object-46,temp_dist_trial,2.0,t_i_05_1,travel_Iceland,hiking boots,4.0,unique,paired,t_i_05_1.jpg,Travel,,,sub-37
Desktop or Laptop,Windows 10,Chrome 135.0.0.0,2560x1440,1920x1080,Temporal Distance Task,cb_04,3.0,temp_dist_trial,num_items,zn7si1,1.0,response,2_ITEM,1425.7999999977621,1416.6999999999966,1425.7999999977621,1425.7999999977621,1416.6999999999966,1425.7999999977621,1.0,0.0,0.0,,Click Response,2_count,5.0,object-49,temp_dist_trial,3.0,t_s_07_1,travel_shared,phone charger cable,4.0,competing,paired,t_s_07_1.jpg,Travel,,,sub-37
Desktop or Laptop,Windows 10,Chrome 135.0.0.0,2560x1440,1920x1080,Temporal Distance Task,cb_04,3.0,temp_dist_trial,dist_items,qkpkxw,2.0,info,,3.699999999254942,0.0,3.699999999254942,3.699999999254942,0.0,3.699999999254942,1.0,0.0,0.0,,Slider,Slider,4.0,object-56,temp_dist_trial,3.0,t_s_07_1,travel_shared,phone charger cable,4.0,competing,paired,t_s_07_1.jpg,Travel,,,sub-37
Desktop or Laptop,Windows 10,Chrome 135.0.0.0,2560x1440,1920x1080,Temporal Distance Task,cb_04,3.0,temp_dist_trial,dist_items,qkpkxw,2.0,continue,,3045.099999997765,3033.5,3045.099999997765,3045.099999997765,3033.5,3045.099999997765,1.0,0.0,0.0,,Click To Continue,Next button,7.0,object-60,temp_dist_trial,3.0,t_s_07_1,travel_shared,phone charger cable,4.0,competing,paired,t_s_07_1.jpg,Travel,,,sub-37
Desktop or Laptop,Windows 10,Chrome 135.0.0.0,2560x1440,1920x1080,Temporal Distance Task,cb_04,3.0,temp_dist_trial,dist_items,qkpkxw,2.0,response,42,1033.4000000000017,3033.5,3045.2999999970198,1033.4000000000017,3033.5,3045.2999999970198,1.0,2011.8999999970185,0.0,,Slider,Slider,4.0,object-56,temp_dist_trial,3.0,t_s_07_1,travel_shared,phone charger cable,4.0,competing,paired,t_s_07_1.jpg,Travel,,,sub-37
Desktop or Laptop,Windows 10,Chrome 135.0.0.0,2560x1440,1920x1080,Temporal Distance Task,cb_04,4.0,temp_dist_trial,num_items,zn7si1,1.0,response,2_ITEM,1713.1999999992554,1700.0,1713.1999999992554,1713.1999999992554,1700.0,1713.1999999992554,1.0,0.0,0.0,,Click Response,2_count,5.0,object-49,temp_dist_trial,4.0,t_m_12_1,travel_Miami,foldable pail and shovel,4.0,unique,paired,t_m_12_1.jpg,Travel,,,sub-37
Desktop or Laptop,Windows 10,Chrome 135.0.0.0,2560x1440,1920x1080,Temporal Distance Task,cb_04,4.0,temp_dist_trial,dist_items,qkpkxw,2.0,info,,3.799999997019768,0.0,3.799999997019768,3.799999997019768,0.0,3.799999997019768,1.0,0.0,0.0,,Slider,Slider,4.0,object-56,temp_dist_trial,4.0,t_m_12_1,travel_Miami,foldable pail and shovel,4.0,unique,paired,t_m_12_1.jpg,Travel,,,sub-37
Desktop or Laptop,Windows 10,Chrome 135.0.0.0,2560x1440,1920x1080,Temporal Distance Task,cb_04,4.0,temp_dist_trial,dist_items,qkpkxw,2.0,continue,,3058.0,3050.0,3058.0,3058.0,3050.0,3058.0,1.0,0.0,0.0,,Click To Continue,Next button,7.0,object-60,temp_dist_trial,4.0,t_m_12_1,travel_Miami,foldable pail and shovel,4.0,unique,paired,t_m_12_1.jpg,Travel,,,sub-37
Desktop or Laptop,Windows 10,Chrome 135.0.0.0,2560x1440,1920x1080,Temporal Distance Task,cb_04,4.0,temp_dist_trial,dist_items,qkpkxw,2.0,response,77,1766.5999999999985,3050.0,3058.2999999970198,1766.5999999999985,3050.0,3058.2999999970198,1.0,1291.6999999970212,0.0,,Slider,Slider,4.0,object-56,temp_dist_trial,4.0,t_m_12_1,travel_Miami,foldable pail and shovel,4.0,unique,paired,t_m_12_1.jpg,Travel,,,sub-37
Desktop or Laptop,Windows 10,Chrome 135.0.0.0,2560x1440,1920x1080,Temporal Distance Task,cb_04,5.0,temp_dist_trial,num_items,zn7si1,1.0,response,2_ITEM,1546.0,1533.1999999999966,1546.0,1546.0,1533.1999999999966,1546.0,1.0,0.0,0.0,,Click Response,2_count,5.0,object-49,temp_dist_trial,5.0,t_s_04_1,travel_shared,instant camera,4.0,competing,single,t_s_04_1.jpg,Travel,,,sub-37
Desktop or Laptop,Windows 10,Chrome 135.0.0.0,2560x1440,1920x1080,Temporal Distance Task,cb_04,5.0,temp_dist_trial,dist_items,qkpkxw,2.0,info,,3.8999999992520316,0.0,3.8999999992520316,3.8999999992520316,0.0,3.8999999992520316,1.0,0.0,0.0,,Slider,Slider,4.0,object-56,temp_dist_trial,5.0,t_s_04_1,travel_shared,instant camera,4.0,competing,single,t_s_04_1.jpg,Travel,,,sub-37
Desktop or Laptop,Windows 10,Chrome 135.0.0.0,2560x1440,1920x1080,Temporal Distance Task,cb_04,5.0,temp_dist_trial,dist_items,qkpkxw,2.0,continue,,2613.2999999977624,2600.0,2613.2999999977624,2613.2999999977624,2600.0,2613.2999999977624,1.0,0.0,0.0,,Click To Continue,Next button,7.0,object-60,temp_dist_trial,5.0,t_s_04_1,travel_shared,instant camera,4.0,competing,single,t_s_04_1.jpg,Travel,,,sub-37
Desktop or Laptop,Windows 10,Chrome 135.0.0.0,2560x1440,1920x1080,Temporal Distance Task,cb_04,5.0,temp_dist_trial,dist_items,qkpkxw,2.0,response,74,816.6999999999971,2600.0,2613.599999998507,816.6999999999971,2600.0,2613.599999998507,1.0,1796.89999999851,0.0,,Slider,Slider,4.0,object-56,temp_dist_trial,5.0,t_s_04_1,travel_shared,instant camera,4.0,competing,single,t_s_04_1.jpg,Travel,,,sub-37
Desktop or Laptop,Windows 10,Chrome 135.0.0.0,2560x1440,1920x1080,Temporal Distance Task,cb_04,6.0,temp_dist_trial,num_items,zn7si1,1.0,response,2_ITEM,1605.2999999977621,1600.0,1605.2999999977621,1605.2999999977621,1600.0,1605.2999999977621,1.0,0.0,0.0,,Click Response,2_count,5.0,object-49,temp_dist_trial,6.0,t_s_12_1,travel_shared,clear toiletry bag,4.0,competing,paired,t_s_12_1.jpg,Travel,,,sub-37
Desktop or Laptop,Windows 10,Chrome 135.0.0.0,2560x1440,1920x1080,Temporal Distance Task,cb_04,6.0,temp_dist_trial,dist_items,qkpkxw,2.0,info,,3.5999999985069735,0.0,3.5999999985069735,3.5999999985069735,0.0,3.5999999985069735,1.0,0.0,0.0,,Slider,Slider,4.0,object-56,temp_dist_trial,6.0,t_s_12_1,travel_shared,clear toiletry bag,4.0,competing,paired,t_s_12_1.jpg,Travel,,,sub-37
Desktop or Laptop,Windows 10,Chrome 135.0.0.0,2560x1440,1920x1080,Temporal Distance Task,cb_04,6.0,temp_dist_trial,dist_items,qkpkxw,2.0,continue,,2597.599999998507,2583.3999999999937,2597.599999998507,2597.599999998507,2583.3999999999937,2597.599999998507,1.0,0.0,0.0,,Click To Continue,Next button,7.0,object-60,temp_dist_trial,6.0,t_s_12_1,travel_shared,clear toiletry bag,4.0,competing,paired,t_s_12_1.jpg,Travel,,,sub-37
Desktop or Laptop,Windows 10,Chrome 135.0.0.0,2560x1440,1920x1080,Temporal Distance Task,cb_04,6.0,temp_dist_trial,dist_items,qkpkxw,2.0,response,69,833.2999999999955,2583.3999999999937,2597.999999997017,833.2999999999955,2583.3999999999937,2597.999999997017,1.0,1764.6999999970212,0.0,,Slider,Slider,4.0,object-56,temp_dist_trial,6.0,t_s_12_1,travel_shared,clear toiletry bag,4.0,competing,paired,t_s_12_1.jpg,Travel,,,sub-37
Desktop or Laptop,Windows 10,Chrome 135.0.0.0,2560x1440,1920x1080,Temporal Distance Task,cb_04,7.0,temp_dist_trial,num_items,zn7si1,1.0,response,2_ITEM,999.1999999985127,983.3000000000028,999.1999999985127,999.1999999985127,983.3000000000028,999.1999999985127,1.0,0.0,0.0,,Click Response,2_count,5.0,object-49,temp_dist_trial,7.0,t_s_16_1,travel_shared,chapstick,4.0,competing,paired,t_s_16_1.jpg,Travel,,,sub-37
Desktop or Laptop,Windows 10,Chrome 135.0.0.0,2560x1440,1920x1080,Temporal Distance Task,cb_04,7.0,temp_dist_trial,dist_items,qkpkxw,2.0,info,,3.5999999977648263,0.0,3.5999999977648263,3.5999999977648263,0.0,3.5999999977648263,1.0,0.0,0.0,,Slider,Slider,4.0,object-56,temp_dist_trial,7.0,t_s_16_1,travel_shared,chapstick,4.0,competing,paired,t_s_16_1.jpg,Travel,,,sub-37
Desktop or Laptop,Windows 10,Chrome 135.0.0.0,2560x1440,1920x1080,Temporal Distance Task,cb_04,7.0,temp_dist_trial,dist_items,qkpkxw,2.0,continue,,2920.699999999255,2916.599999999999,2920.699999999255,2920.699999999255,2916.599999999999,2920.699999999255,1.0,0.0,0.0,,Click To Continue,Next button,7.0,object-60,temp_dist_trial,7.0,t_s_16_1,travel_shared,chapstick,4.0,competing,paired,t_s_16_1.jpg,Travel,,,sub-37
Desktop or Laptop,Windows 10,Chrome 135.0.0.0,2560x1440,1920x1080,Temporal Distance Task,cb_04,7.0,temp_dist_trial,dist_items,qkpkxw,2.0,response,88,1000.0,2916.599999999999,2924.199999999255,1000.0,2916.599999999999,2924.199999999255,1.0,1924.1999999992554,0.0,,Slider,Slider,4.0,object-56,temp_dist_trial,7.0,t_s_16_1,travel_shared,chapstick,4.0,competing,paired,t_s_16_1.jpg,Travel,,,sub-37
Desktop or Laptop,Windows 10,Chrome 135.0.0.0,2560x1440,1920x1080,Temporal Distance Task,cb_04,8.0,temp_dist_trial,num_items,zn7si1,1.0,response,2_ITEM,1845.1999999970208,1833.4000000000005,1845.1999999970208,1845.1999999970208,1833.4000000000005,1845.1999999970208,1.0,0.0,0.0,,Click Response,2_count,5.0,object-49,temp_dist_trial,8.0,t_s_21_1,travel_shared,umbrella,4.0,competing,paired,t_s_21_1.jpg,Travel,,,sub-37
Desktop or Laptop,Windows 10,Chrome 135.0.0.0,2560x1440,1920x1080,Temporal Distance Task,cb_04,8.0,temp_dist_trial,dist_items,qkpkxw,2.0,info,,3.5,0.0,3.5,3.5,0.0,3.5,1.0,0.0,0.0,,Slider,Slider,4.0,object-56,temp_dist_trial,8.0,t_s_21_1,travel_shared,umbrella,4.0,competing,paired,t_s_21_1.jpg,Travel,,,sub-37
Desktop or Laptop,Windows 10,Chrome 135.0.0.0,2560x1440,1920x1080,Temporal Distance Task,cb_04,8.0,temp_dist_trial,dist_items,qkpkxw,2.0,continue,,2074.099999997765,2066.5999999999985,2074.099999997765,2074.099999997765,2066.5999999999985,2074.099999997765,1.0,0.0,0.0,,Click To Continue,Next button,7.0,object-60,temp_dist_trial,8.0,t_s_21_1,travel_shared,umbrella,4.0,competing,paired,t_s_21_1.jpg,Travel,,,sub-37
Desktop or Laptop,Windows 10,Chrome 135.0.0.0,2560x1440,1920x1080,Temporal Distance Task,cb_04,8.0,temp_dist_trial,dist_items,qkpkxw,2.0,response,60,1016.6999999999972,2066.5999999999985,2074.3999999985103,1016.6999999999972,2066.5999999999985,2074.3999999985103,1.0,1057.6999999985128,0.0,,Slider,Slider,4.0,object-56,temp_dist_trial,8.0,t_s_21_1,travel_shared,umbrella,4.0,competing,paired,t_s_21_1.jpg,Travel,,,sub-37
Desktop or Laptop,Windows 10,Chrome 135.0.0.0,2560x1440,1920x1080,Temporal Distance Task,cb_04,9.0,temp_dist_trial,num_items,zn7si1,1.0,response,2_ITEM,1038.9000000000017,1033.4000000000017,1038.9000000000017,1038.9000000000017,1033.4000000000017,1038.9000000000017,1.0,0.0,0.0,,Click Response,2_count,5.0,object-49,temp_dist_trial,9.0,t_s_03_1,travel_shared,portable charger,4.0,competing,paired,t_s_03_1.jpg,Travel,,,sub-37
Desktop or Laptop,Windows 10,Chrome 135.0.0.0,2560x1440,1920x1080,Temporal Distance Task,cb_04,9.0,temp_dist_trial,dist_items,qkpkxw,2.0,info,,4.199999999254942,0.0,4.199999999254942,4.199999999254942,0.0,4.199999999254942,1.0,0.0,0.0,,Slider,Slider,4.0,object-56,temp_dist_trial,9.0,t_s_03_1,travel_shared,portable charger,4.0,competing,paired,t_s_03_1.jpg,Travel,,,sub-37
Desktop or Laptop,Windows 10,Chrome 135.0.0.0,2560x1440,1920x1080,Temporal Distance Task,cb_04,9.0,temp_dist_trial,dist_items,qkpkxw,2.0,continue,,2642.7999999970198,2633.3999999999937,2642.7999999970198,2642.7999999970198,2633.3999999999937,2642.7999999970198,1.0,0.0,0.0,,Click To Continue,Next button,7.0,object-60,temp_dist_trial,9.0,t_s_03_1,travel_shared,portable charger,4.0,competing,paired,t_s_03_1.jpg,Travel,,,sub-37
Desktop or Laptop,Windows 10,Chrome 135.0.0.0,2560x1440,1920x1080,Temporal Distance Task,cb_04,9.0,temp_dist_trial,dist_items,qkpkxw,2.0,response,50,1283.3000000000031,2633.3999999999937,2643.199999999255,1283.3000000000031,2633.3999999999937,2643.199999999255,1.0,1359.899999999252,0.0,,Slider,Slider,4.0,object-56,temp_dist_trial,9.0,t_s_03_1,travel_shared,portable charger,4.0,competing,paired,t_s_03_1.jpg,Travel,,,sub-37
Desktop or Laptop,Windows 10,Chrome 135.0.0.0,2560x1440,1920x1080,Temporal Distance Task,cb_04,10.0,temp_dist_trial,num_items,zn7si1,1.0,response,1_ITEM,1313.6000000000058,1299.9000000000087,1313.6000000000058,1313.6000000000058,1299.9000000000087,1313.6000000000058,1.0,0.0,0.0,,Click Response,1_count,3.0,object-46,temp_dist_trial,10.0,t_i_19_1,travel_Iceland,rope,4.0,unique,single,t_i_19_1.jpg,Travel,,,sub-37
Desktop or Laptop,Windows 10,Chrome 135.0.0.0,2560x1440,1920x1080,Temporal Distance Task,cb_04,11.0,temp_dist_trial,num_items,zn7si1,1.0,response,2_ITEM,1232.599999998507,1216.6999999999969,1232.599999998507,1232.599999998507,1216.6999999999969,1232.599999998507,1.0,0.0,0.0,,Click Response,2_count,5.0,object-49,temp_dist_trial,11.0,t_s_15_1,travel_shared,luggage tag,4.0,competing,single,t_s_15_1.jpg,Travel,,,sub-37
Desktop or Laptop,Windows 10,Chrome 135.0.0.0,2560x1440,1920x1080,Temporal Distance Task,cb_04,11.0,temp_dist_trial,dist_items,qkpkxw,2.0,info,,3.5,0.0,3.5,3.5,0.0,3.5,1.0,0.0,0.0,,Slider,Slider,4.0,object-56,temp_dist_trial,11.0,t_s_15_1,travel_shared,luggage tag,4.0,competing,single,t_s_15_1.jpg,Travel,,,sub-37
Desktop or Laptop,Windows 10,Chrome 135.0.0.0,2560x1440,1920x1080,Temporal Distance Task,cb_04,11.0,temp_dist_trial,dist_items,qkpkxw,2.0,continue,,1865.79999999702,1850.0,1865.79999999702,1865.79999999702,1850.0,1865.79999999702,1.0,0.0,0.0,,Click To Continue,Next button,7.0,object-60,temp_dist_trial,11.0,t_s_15_1,travel_shared,luggage tag,4.0,competing,single,t_s_15_1.jpg,Travel,,,sub-37
Desktop or Laptop,Windows 10,Chrome 135.0.0.0,2560x1440,1920x1080,Temporal Distance Task,cb_04,11.0,temp_dist_trial,dist_items,qkpkxw,2.0,response,64,866.6999999999971,1850.0,1866.0,866.6999999999971,1850.0,1866.0,1.0,999.3000000000028,0.0,,Slider,Slider,4.0,object-56,temp_dist_trial,11.0,t_s_15_1,travel_shared,luggage tag,4.0,competing,single,t_s_15_1.jpg,Travel,,,sub-37
Desktop or Laptop,Windows 10,Chrome 135.0.0.0,2560x1440,1920x1080,Temporal Distance Task,cb_04,12.0,temp_dist_trial,num_items,zn7si1,1.0,response,1_ITEM,1695.8999999985099,1683.3999999999942,1695.8999999985099,1695.8999999985099,1683.3999999999942,1695.8999999985099,1.0,0.0,0.0,,Click Response,1_count,3.0,object-46,temp_dist_trial,12.0,t_i_07_1,travel_Iceland,hiking backpack,4.0,unique,paired,t_i_07_1.jpg,Travel,,,sub-37
Desktop or Laptop,Windows 10,Chrome 135.0.0.0,2560x1440,1920x1080,Temporal Distance Task,cb_04,13.0,temp_dist_trial,num_items,zn7si1,1.0,response,2_ITEM,900.0,883.3000000000029,900.0,900.0,883.3000000000029,900.0,1.0,0.0,0.0,,Click Response,2_count,5.0,object-49,temp_dist_trial,13.0,t_s_11_1,travel_shared,eye mask,4.0,competing,paired,t_s_11_1.jpg,Travel,,,sub-37
Desktop or Laptop,Windows 10,Chrome 135.0.0.0,2560x1440,1920x1080,Temporal Distance Task,cb_04,13.0,temp_dist_trial,dist_items,qkpkxw,2.0,info,,3.8000000000029104,0.0,3.8000000000029104,3.8000000000029104,0.0,3.8000000000029104,1.0,0.0,0.0,,Slider,Slider,4.0,object-56,temp_dist_trial,13.0,t_s_11_1,travel_shared,eye mask,4.0,competing,paired,t_s_11_1.jpg,Travel,,,sub-37
Desktop or Laptop,Windows 10,Chrome 135.0.0.0,2560x1440,1920x1080,Temporal Distance Task,cb_04,13.0,temp_dist_trial,dist_items,qkpkxw,2.0,continue,,2039.399999997768,2033.400000000009,2039.399999997768,2039.399999997768,2033.400000000009,2039.399999997768,1.0,0.0,0.0,,Click To Continue,Next button,7.0,object-60,temp_dist_trial,13.0,t_s_11_1,travel_shared,eye mask,4.0,competing,paired,t_s_11_1.jpg,Travel,,,sub-37
Desktop or Laptop,Windows 10,Chrome 135.0.0.0,2560x1440,1920x1080,Temporal Distance Task,cb_04,13.0,temp_dist_trial,dist_items,qkpkxw,2.0,response,64,800.0,2033.400000000009,2039.8000000000034,800.0,2033.400000000009,2039.8000000000034,1.0,1239.8000000000031,0.0,,Slider,Slider,4.0,object-56,temp_dist_trial,13.0,t_s_11_1,travel_shared,eye mask,4.0,competing,paired,t_s_11_1.jpg,Travel,,,sub-37
Desktop or Laptop,Windows 10,Chrome 135.0.0.0,2560x1440,1920x1080,Temporal Distance Task,cb_04,14.0,temp_dist_trial,num_items,zn7si1,1.0,response,1_ITEM,1358.199999997014,1350.0,1358.199999997014,1358.199999997014,1350.0,1358.199999997014,1.0,0.0,0.0,,Click Response,1_count,3.0,object-46,temp_dist_trial,14.0,t_m_19_1,travel_Miami,surfboard,4.0,unique,single,t_m_19_1.jpg,Travel,,,sub-37
Desktop or Laptop,Windows 10,Chrome 135.0.0.0,2560x1440,1920x1080,Temporal Distance Task,cb_04,15.0,temp_dist_trial,num_items,zn7si1,1.0,response,1_ITEM,835.0999999977647,833.3999999999942,835.0999999977647,835.0999999977647,833.3999999999942,835.0999999977647,1.0,0.0,0.0,,Click Response,1_count,3.0,object-46,temp_dist_trial,15.0,t_m_16_1,travel_Miami,flippers,4.0,unique,single,t_m_16_1.jpg,Travel,,,sub-37
Desktop or Laptop,Windows 10,Chrome 135.0.0.0,2560x1440,1920x1080,Temporal Distance Task,cb_04,16.0,temp_dist_trial,num_items,zn7si1,1.0,response,1_ITEM,948.1999999999972,933.3999999999942,948.1999999999972,948.1999999999972,933.3999999999942,948.1999999999972,1.0,0.0,0.0,,Click Response,1_count,3.0,object-46,temp_dist_trial,16.0,t_m_01_1,travel_Miami,sandals,4.0,unique,paired,t_m_01_1.jpg,Travel,,,sub-37
Desktop or Laptop,Windows 10,Chrome 135.0.0.0,2560x1440,1920x1080,Temporal Distance Task,cb_04,17.0,temp_dist_trial,num_items,zn7si1,1.0,response,2_ITEM,865.1999999985127,850.0,865.1999999985127,865.1999999985127,850.0,865.1999999985127,1.0,0.0,0.0,,Click Response,2_count,5.0,object-49,temp_dist_trial,17.0,t_s_22_1,travel_shared,belt,4.0,competing,paired,t_s_22_1.jpg,Travel,,,sub-37
Desktop or Laptop,Windows 10,Chrome 135.0.0.0,2560x1440,1920x1080,Temporal Distance Task,cb_04,17.0,temp_dist_trial,dist_items,qkpkxw,2.0,info,,3.899999997767736,0.0,3.899999997767736,3.899999997767736,0.0,3.899999997767736,1.0,0.0,0.0,,Slider,Slider,4.0,object-56,temp_dist_trial,17.0,t_s_22_1,travel_shared,belt,4.0,competing,paired,t_s_22_1.jpg,Travel,,,sub-37
Desktop or Laptop,Windows 10,Chrome 135.0.0.0,2560x1440,1920x1080,Temporal Distance Task,cb_04,17.0,temp_dist_trial,dist_items,qkpkxw,2.0,continue,,1926.1999999985128,1916.6999999999966,1926.1999999985128,1926.1999999985128,1916.6999999999966,1926.1999999985128,1.0,0.0,0.0,,Click To Continue,Next button,7.0,object-60,temp_dist_trial,17.0,t_s_22_1,travel_shared,belt,4.0,competing,paired,t_s_22_1.jpg,Travel,,,sub-37
Desktop or Laptop,Windows 10,Chrome 135.0.0.0,2560x1440,1920x1080,Temporal Distance Task,cb_04,17.0,temp_dist_trial,dist_items,qkpkxw,2.0,response,72,633.4000000000087,1916.6999999999966,1926.4999999992572,633.4000000000087,1916.6999999999966,1926.4999999992572,1.0,1293.0999999992493,0.0,,Slider,Slider,4.0,object-56,temp_dist_trial,17.0,t_s_22_1,travel_shared,belt,4.0,competing,paired,t_s_22_1.jpg,Travel,,,sub-37
Desktop or Laptop,Windows 10,Chrome 135.0.0.0,2560x1440,1920x1080,Temporal Distance Task,cb_04,18.0,temp_dist_trial,num_items,zn7si1,1.0,response,1_ITEM,1284.1999999977706,1283.3000000000031,1284.1999999977706,1284.1999999977706,1283.3000000000031,1284.1999999977706,1.0,0.0,0.0,,Click Response,1_count,3.0,object-46,temp_dist_trial,18.0,t_s_24_1,travel_shared,ear plugs,4.0,competing,single,t_s_24_1.jpg,Travel,,,sub-37
Desktop or Laptop,Windows 10,Chrome 135.0.0.0,2560x1440,1920x1080,Temporal Distance Task,cb_04,19.0,temp_dist_trial,num_items,zn7si1,1.0,response,1_ITEM,1310.8000000000031,1300.1000000000058,1310.8000000000031,1310.8000000000031,1300.1000000000058,1310.8000000000031,1.0,0.0,0.0,,Click Response,1_count,3.0,object-46,temp_dist_trial,19.0,t_i_08_1,travel_Iceland,thick socks,4.0,unique,single,t_i_08_1.jpg,Travel,,,sub-37
Desktop or Laptop,Windows 10,Chrome 135.0.0.0,2560x1440,1920x1080,Temporal Distance Task,cb_04,20.0,temp_dist_trial,num_items,zn7si1,1.0,response,1_ITEM,1354.9999999992579,1350.0,1354.9999999992579,1354.9999999992579,1350.0,1354.9999999992579,1.0,0.0,0.0,,Click Response,1_count,3.0,object-46,temp_dist_trial,20.0,t_i_03_1,travel_Iceland,winter jacket,4.0,unique,paired,t_i_03_1.jpg,Travel,,,sub-37
Desktop or Laptop,Windows 10,Chrome 135.0.0.0,2560x1440,1920x1080,Temporal Distance Task,cb_04,21.0,temp_dist_trial,num_items,zn7si1,1.0,response,2_ITEM,784.9999999970169,783.3000000000029,784.9999999970169,784.9999999970169,783.3000000000029,784.9999999970169,1.0,0.0,0.0,,Click Response,2_count,5.0,object-49,temp_dist_trial,21.0,t_s_09_1,travel_shared,wallet,4.0,competing,paired,t_s_09_1.jpg,Travel,,,sub-37
Desktop or Laptop,Windows 10,Chrome 135.0.0.0,2560x1440,1920x1080,Temporal Distance Task,cb_04,21.0,temp_dist_trial,dist_items,qkpkxw,2.0,info,,4.199999997013947,0.0,4.199999997013947,4.199999997013947,0.0,4.199999997013947,1.0,0.0,0.0,,Slider,Slider,4.0,object-56,temp_dist_trial,21.0,t_s_09_1,travel_shared,wallet,4.0,competing,paired,t_s_09_1.jpg,Travel,,,sub-37
Desktop or Laptop,Windows 10,Chrome 135.0.0.0,2560x1440,1920x1080,Temporal Distance Task,cb_04,21.0,temp_dist_trial,dist_items,qkpkxw,2.0,continue,,2353.199999997014,2349.8999999999937,2353.199999997014,2353.199999997014,2349.8999999999937,2353.199999997014,1.0,0.0,0.0,,Click To Continue,Next button,7.0,object-60,temp_dist_trial,21.0,t_s_09_1,travel_shared,wallet,4.0,competing,paired,t_s_09_1.jpg,Travel,,,sub-37
Desktop or Laptop,Windows 10,Chrome 135.0.0.0,2560x1440,1920x1080,Temporal Distance Task,cb_04,21.0,temp_dist_trial,dist_items,qkpkxw,2.0,response,34,966.6999999999972,2349.8999999999937,2356.699999997014,966.6999999999972,2349.8999999999937,2356.699999997014,1.0,1389.9999999970166,0.0,,Slider,Slider,4.0,object-56,temp_dist_trial,21.0,t_s_09_1,travel_shared,wallet,4.0,competing,paired,t_s_09_1.jpg,Travel,,,sub-37
Desktop or Laptop,Windows 10,Chrome 135.0.0.0,2560x1440,1920x1080,Temporal Distance Task,cb_04,22.0,temp_dist_trial,num_items,zn7si1,1.0,response,2_ITEM,1142.5,1133.3999999999942,1142.5,1142.5,1133.3999999999942,1142.5,1.0,0.0,0.0,,Click Response,2_count,5.0,object-49,temp_dist_trial,22.0,t_s_20_1,travel_shared,travel pill case,4.0,competing,paired,t_s_20_1.jpg,Travel,,,sub-37
Desktop or Laptop,Windows 10,Chrome 135.0.0.0,2560x1440,1920x1080,Temporal Distance Task,cb_04,22.0,temp_dist_trial,dist_items,qkpkxw,2.0,info,,3.299999997019768,0.0,3.299999997019768,3.299999997019768,0.0,3.299999997019768,1.0,0.0,0.0,,Slider,Slider,4.0,object-56,temp_dist_trial,22.0,t_s_20_1,travel_shared,travel pill case,4.0,competing,paired,t_s_20_1.jpg,Travel,,,sub-37
Desktop or Laptop,Windows 10,Chrome 135.0.0.0,2560x1440,1920x1080,Temporal Distance Task,cb_04,22.0,temp_dist_trial,dist_items,qkpkxw,2.0,continue,,2436.3999999985103,2433.300000000003,2436.3999999985103,2436.3999999985103,2433.300000000003,2436.3999999985103,1.0,0.0,0.0,,Click To Continue,Next button,7.0,object-60,temp_dist_trial,22.0,t_s_20_1,travel_shared,travel pill case,4.0,competing,paired,t_s_20_1.jpg,Travel,,,sub-37
Desktop or Laptop,Windows 10,Chrome 135.0.0.0,2560x1440,1920x1080,Temporal Distance Task,cb_04,22.0,temp_dist_trial,dist_items,qkpkxw,2.0,response,68,866.6000000000058,2433.300000000003,2436.599999997765,866.6000000000058,2433.300000000003,2436.599999997765,1.0,1569.999999997759,0.0,,Slider,Slider,4.0,object-56,temp_dist_trial,22.0,t_s_20_1,travel_shared,travel pill case,4.0,competing,paired,t_s_20_1.jpg,Travel,,,sub-37
Desktop or Laptop,Windows 10,Chrome 135.0.0.0,2560x1440,1920x1080,Temporal Distance Task,cb_04,23.0,temp_dist_trial,num_items,zn7si1,1.0,response,2_ITEM,954.9999999970167,950.0,954.9999999970167,954.9999999970167,950.0,954.9999999970167,1.0,0.0,0.0,,Click Response,2_count,5.0,object-49,temp_dist_trial,23.0,t_s_08_1,travel_shared,hand lotion,4.0,competing,paired,t_s_08_1.jpg,Travel,,,sub-37
Desktop or Laptop,Windows 10,Chrome 135.0.0.0,2560x1440,1920x1080,Temporal Distance Task,cb_04,23.0,temp_dist_trial,dist_items,qkpkxw,2.0,info,,3.6999999999970896,0.0,3.6999999999970896,3.6999999999970896,0.0,3.6999999999970896,1.0,0.0,0.0,,Slider,Slider,4.0,object-56,temp_dist_trial,23.0,t_s_08_1,travel_shared,hand lotion,4.0,competing,paired,t_s_08_1.jpg,Travel,,,sub-37
Desktop or Laptop,Windows 10,Chrome 135.0.0.0,2560x1440,1920x1080,Temporal Distance Task,cb_04,23.0,temp_dist_trial,dist_items,qkpkxw,2.0,continue,,1832.399999999252,1816.6999999999966,1832.399999999252,1832.399999999252,1816.6999999999966,1832.399999999252,1.0,0.0,0.0,,Click To Continue,Next button,7.0,object-60,temp_dist_trial,23.0,t_s_08_1,travel_shared,hand lotion,4.0,competing,paired,t_s_08_1.jpg,Travel,,,sub-37
Desktop or Laptop,Windows 10,Chrome 135.0.0.0,2560x1440,1920x1080,Temporal Distance Task,cb_04,23.0,temp_dist_trial,dist_items,qkpkxw,2.0,response,48,816.6999999999971,1816.6999999999966,1832.7999999977621,816.6999999999971,1816.6999999999966,1832.7999999977621,1.0,1016.0999999977647,0.0,,Slider,Slider,4.0,object-56,temp_dist_trial,23.0,t_s_08_1,travel_shared,hand lotion,4.0,competing,paired,t_s_08_1.jpg,Travel,,,sub-37
Desktop or Laptop,Windows 10,Chrome 135.0.0.0,2560x1440,1920x1080,Temporal Distance Task,cb_04,24.0,temp_dist_trial,num_items,zn7si1,1.0,response,1_ITEM,1545.7999999970193,1533.3000000000034,1545.7999999970193,1545.7999999970193,1533.3000000000034,1545.7999999970193,1.0,0.0,0.0,,Click Response,1_count,3.0,object-46,temp_dist_trial,24.0,t_m_18_1,travel_Miami,waterproof tote,4.0,unique,single,t_m_18_1.jpg,Travel,,,sub-37
Desktop or Laptop,Windows 10,Chrome 135.0.0.0,2560x1440,1920x1080,Temporal Distance Task,cb_04,25.0,temp_dist_trial,num_items,zn7si1,1.0,response,2_ITEM,918.599999998507,916.5999999999913,918.599999998507,918.599999998507,916.5999999999913,918.599999998507,1.0,0.0,0.0,,Click Response,2_count,5.0,object-49,temp_dist_trial,25.0,t_s_05_1,travel_shared,neck pillow,4.0,competing,paired,t_s_05_1.jpg,Travel,,,sub-37
Desktop or Laptop,Windows 10,Chrome 135.0.0.0,2560x1440,1920x1080,Temporal Distance Task,cb_04,25.0,temp_dist_trial,dist_items,qkpkxw,2.0,info,,3.4999999985157046,0.0,3.4999999985157046,3.4999999985157046,0.0,3.4999999985157046,1.0,0.0,0.0,,Slider,Slider,4.0,object-56,temp_dist_trial,25.0,t_s_05_1,travel_shared,neck pillow,4.0,competing,paired,t_s_05_1.jpg,Travel,,,sub-37
Desktop or Laptop,Windows 10,Chrome 135.0.0.0,2560x1440,1920x1080,Temporal Distance Task,cb_04,25.0,temp_dist_trial,dist_items,qkpkxw,2.0,continue,,2718.6999999977697,2716.700000000012,2718.6999999977697,2718.6999999977697,2716.700000000012,2718.6999999977697,1.0,0.0,0.0,,Click To Continue,Next button,7.0,object-60,temp_dist_trial,25.0,t_s_05_1,travel_shared,neck pillow,4.0,competing,paired,t_s_05_1.jpg,Travel,,,sub-37
Desktop or Laptop,Windows 10,Chrome 135.0.0.0,2560x1440,1920x1080,Temporal Distance Task,cb_04,25.0,temp_dist_trial,dist_items,qkpkxw,2.0,response,63,566.7000000000116,2716.700000000012,2722.8999999970256,566.7000000000116,2716.700000000012,2722.8999999970256,1.0,2156.199999997014,0.0,,Slider,Slider,4.0,object-56,temp_dist_trial,25.0,t_s_05_1,travel_shared,neck pillow,4.0,competing,paired,t_s_05_1.jpg,Travel,,,sub-37
Desktop or Laptop,Windows 10,Chrome 135.0.0.0,2560x1440,1920x1080,Temporal Distance Task,cb_04,26.0,temp_dist_trial,num_items,zn7si1,1.0,response,1_ITEM,1343.8999999999942,1333.3999999999942,1343.8999999999942,1343.8999999999942,1333.3999999999942,1343.8999999999942,1.0,0.0,0.0,,Click Response,1_count,3.0,object-46,temp_dist_trial,26.0,t_s_23_1,travel_shared,ball cap,4.0,competing,single,t_s_23_1.jpg,Travel,,,sub-37
Desktop or Laptop,Windows 10,Chrome 135.0.0.0,2560x1440,1920x1080,Temporal Distance Task,cb_04,27.0,temp_dist_trial,num_items,zn7si1,1.0,response,1_ITEM,941.7999999970198,933.3999999999942,941.7999999970198,941.7999999970198,933.3999999999942,941.7999999970198,1.0,0.0,0.0,,Click Response,1_count,3.0,object-46,temp_dist_trial,27.0,t_i_20_1,travel_Iceland,lantern,4.0,unique,single,t_i_20_1.jpg,Travel,,,sub-37
Desktop or Laptop,Windows 10,Chrome 135.0.0.0,2560x1440,1920x1080,Temporal Distance Task,cb_04,28.0,temp_dist_trial,num_items,zn7si1,1.0,response,1_ITEM,1397.9999999970166,1383.3000000000034,1397.9999999970166,1397.9999999970166,1383.3000000000034,1397.9999999970166,1.0,0.0,0.0,,Click Response,1_count,3.0,object-46,temp_dist_trial,28.0,t_i_02_1,travel_Iceland,scarf,4.0,unique,paired,t_i_02_1.jpg,Travel,,,sub-37
Desktop or Laptop,Windows 10,Chrome 135.0.0.0,2560x1440,1920x1080,Temporal Distance Task,cb_04,29.0,temp_dist_trial,num_items,zn7si1,1.0,response,2_ITEM,1004.5999999970227,1000.0,1004.5999999970227,1004.5999999970227,1000.0,1004.5999999970227,1.0,0.0,0.0,,Click Response,2_count,5.0,object-49,temp_dist_trial,29.0,t_s_10_1,travel_shared,luggage lock,4.0,competing,single,t_s_10_1.jpg,Travel,,,sub-37
Desktop or Laptop,Windows 10,Chrome 135.0.0.0,2560x1440,1920x1080,Temporal Distance Task,cb_04,29.0,temp_dist_trial,dist_items,qkpkxw,2.0,info,,3.1999999970139466,0.0,3.1999999970139466,3.1999999970139466,0.0,3.1999999970139466,1.0,0.0,0.0,,Slider,Slider,4.0,object-56,temp_dist_trial,29.0,t_s_10_1,travel_shared,luggage lock,4.0,competing,single,t_s_10_1.jpg,Travel,,,sub-37
Desktop or Laptop,Windows 10,Chrome 135.0.0.0,2560x1440,1920x1080,Temporal Distance Task,cb_04,29.0,temp_dist_trial,dist_items,qkpkxw,2.0,continue,,3589.299999998504,3583.3999999999933,3589.299999998504,3589.299999998504,3583.3999999999933,3589.299999998504,1.0,0.0,0.0,,Click To Continue,Next button,7.0,object-60,temp_dist_trial,29.0,t_s_10_1,travel_shared,luggage lock,4.0,competing,single,t_s_10_1.jpg,Travel,,,sub-37
Desktop or Laptop,Windows 10,Chrome 135.0.0.0,2560x1440,1920x1080,Temporal Distance Task,cb_04,29.0,temp_dist_trial,dist_items,qkpkxw,2.0,response,40,950.0,3583.3999999999933,3589.799999998504,950.0,3583.3999999999933,3589.799999998504,1.0,2639.799999998504,0.0,,Slider,Slider,4.0,object-56,temp_dist_trial,29.0,t_s_10_1,travel_shared,luggage lock,4.0,competing,single,t_s_10_1.jpg,Travel,,,sub-37
Desktop or Laptop,Windows 10,Chrome 135.0.0.0,2560x1440,1920x1080,Temporal Distance Task,cb_04,30.0,temp_dist_trial,num_items,zn7si1,1.0,response,1_ITEM,1285.8999999985099,1283.3000000000031,1285.8999999985099,1285.8999999985099,1283.3000000000031,1285.8999999985099,1.0,0.0,0.0,,Click Response,1_count,3.0,object-46,temp_dist_trial,30.0,t_m_10_1,travel_Miami,tanktop,4.0,unique,paired,t_m_10_1.jpg,Travel,,,sub-37
Desktop or Laptop,Windows 10,Chrome 135.0.0.0,2560x1440,1920x1080,Temporal Distance Task,cb_04,31.0,temp_dist_trial,num_items,zn7si1,1.0,response,2_ITEM,1306.8999999970254,1299.9000000000087,1306.8999999970254,1306.8999999970254,1299.9000000000087,1306.8999999970254,1.0,0.0,0.0,,Click Response,2_count,5.0,object-49,temp_dist_trial,31.0,t_i_13_1,travel_Iceland,sleeping bag,4.0,unique,paired,t_i_13_1.jpg,Travel,,,sub-37
Desktop or Laptop,Windows 10,Chrome 135.0.0.0,2560x1440,1920x1080,Temporal Distance Task,cb_04,31.0,temp_dist_trial,dist_items,qkpkxw,2.0,info,,3.4999999970168574,0.0,3.4999999970168574,3.4999999970168574,0.0,3.4999999970168574,1.0,0.0,0.0,,Slider,Slider,4.0,object-56,temp_dist_trial,31.0,t_i_13_1,travel_Iceland,sleeping bag,4.0,unique,paired,t_i_13_1.jpg,Travel,,,sub-37
Desktop or Laptop,Windows 10,Chrome 135.0.0.0,2560x1440,1920x1080,Temporal Distance Task,cb_04,31.0,temp_dist_trial,dist_items,qkpkxw,2.0,continue,,1935.2999999977621,1933.3999999999944,1935.2999999977621,1935.2999999977621,1933.3999999999944,1935.2999999977621,1.0,0.0,0.0,,Click To Continue,Next button,7.0,object-60,temp_dist_trial,31.0,t_i_13_1,travel_Iceland,sleeping bag,4.0,unique,paired,t_i_13_1.jpg,Travel,,,sub-37
Desktop or Laptop,Windows 10,Chrome 135.0.0.0,2560x1440,1920x1080,Temporal Distance Task,cb_04,31.0,temp_dist_trial,dist_items,qkpkxw,2.0,response,22,650.0999999999913,1933.3999999999944,1935.599999998507,650.0999999999913,1933.3999999999944,1935.599999998507,1.0,1285.4999999985155,0.0,,Slider,Slider,4.0,object-56,temp_dist_trial,31.0,t_i_13_1,travel_Iceland,sleeping bag,4.0,unique,paired,t_i_13_1.jpg,Travel,,,sub-37
Desktop or Laptop,Windows 10,Chrome 135.0.0.0,2560x1440,1920x1080,Temporal Distance Task,cb_04,32.0,temp_dist_trial,num_items,zn7si1,1.0,response,1_ITEM,929.999999999258,916.6999999999972,929.999999999258,929.999999999258,916.6999999999972,929.999999999258,1.0,0.0,0.0,,Click Response,1_count,3.0,object-46,temp_dist_trial,32.0,t_i_10_1,travel_Iceland,trekking poles,4.0,unique,single,t_i_10_1.jpg,Travel,,,sub-37
Desktop or Laptop,Windows 10,Chrome 135.0.0.0,2560x1440,1920x1080,Temporal Distance Task,cb_04,33.0,temp_dist_trial,num_items,zn7si1,1.0,response,1_ITEM,2105.6999999977697,2099.9000000000087,2105.6999999977697,2105.6999999977697,2099.9000000000087,2105.6999999977697,1.0,0.0,0.0,,Click Response,1_count,3.0,object-46,temp_dist_trial,33.0,t_i_17_1,travel_Iceland,binoculars,4.0,unique,paired,t_i_17_1.jpg,Travel,,,sub-37
Desktop or Laptop,Windows 10,Chrome 135.0.0.0,2560x1440,1920x1080,Temporal Distance Task,cb_04,34.0,temp_dist_trial,num_items,zn7si1,1.0,response,2_ITEM,1592.7999999992608,1583.3000000000034,1592.7999999992608,1592.7999999992608,1583.3000000000034,1592.7999999992608,1.0,0.0,0.0,,Click Response,2_count,5.0,object-49,temp_dist_trial,34.0,t_s_18_1,travel_shared,first aid kit,4.0,competing,paired,t_s_18_1.jpg,Travel,,,sub-37
Desktop or Laptop,Windows 10,Chrome 135.0.0.0,2560x1440,1920x1080,Temporal Distance Task,cb_04,34.0,temp_dist_trial,dist_items,qkpkxw,2.0,info,,3.1999999985127943,0.0,3.1999999985127943,3.1999999985127943,0.0,3.1999999985127943,1.0,0.0,0.0,,Slider,Slider,4.0,object-56,temp_dist_trial,34.0,t_s_18_1,travel_shared,first aid kit,4.0,competing,paired,t_s_18_1.jpg,Travel,,,sub-37
Desktop or Laptop,Windows 10,Chrome 135.0.0.0,2560x1440,1920x1080,Temporal Distance Task,cb_04,34.0,temp_dist_trial,dist_items,qkpkxw,2.0,continue,,2224.9999999992583,2216.6000000000063,2224.9999999992583,2224.9999999992583,2216.6000000000063,2224.9999999992583,1.0,0.0,0.0,,Click To Continue,Next button,7.0,object-60,temp_dist_trial,34.0,t_s_18_1,travel_shared,first aid kit,4.0,competing,paired,t_s_18_1.jpg,Travel,,,sub-37
Desktop or Laptop,Windows 10,Chrome 135.0.0.0,2560x1440,1920x1080,Temporal Distance Task,cb_04,34.0,temp_dist_trial,dist_items,qkpkxw,2.0,response,60,750.0,2216.6000000000063,2228.3999999977677,750.0,2216.6000000000063,2228.3999999977677,1.0,1478.3999999977677,0.0,,Slider,Slider,4.0,object-56,temp_dist_trial,34.0,t_s_18_1,travel_shared,first aid kit,4.0,competing,paired,t_s_18_1.jpg,Travel,,,sub-37
Desktop or Laptop,Windows 10,Chrome 135.0.0.0,2560x1440,1920x1080,Temporal Distance Task,cb_04,35.0,temp_dist_trial,num_items,zn7si1,1.0,response,2_ITEM,1094.4999999970169,1083.5,1094.4999999970169,1094.4999999970169,1083.5,1094.4999999970169,1.0,0.0,0.0,,Click Response,2_count,5.0,object-49,temp_dist_trial,35.0,t_s_06_1,travel_shared,luggage,4.0,competing,paired,t_s_06_1.jpg,Travel,,,sub-37
Desktop or Laptop,Windows 10,Chrome 135.0.0.0,2560x1440,1920x1080,Temporal Distance Task,cb_04,35.0,temp_dist_trial,dist_items,qkpkxw,2.0,info,,3.4999999992578523,0.0,3.4999999992578523,3.4999999992578523,0.0,3.4999999992578523,1.0,0.0,0.0,,Slider,Slider,4.0,object-56,temp_dist_trial,35.0,t_s_06_1,travel_shared,luggage,4.0,competing,paired,t_s_06_1.jpg,Travel,,,sub-37
Desktop or Laptop,Windows 10,Chrome 135.0.0.0,2560x1440,1920x1080,Temporal Distance Task,cb_04,35.0,temp_dist_trial,dist_items,qkpkxw,2.0,continue,,2259.3999999977677,2250.0,2259.3999999977677,2259.3999999977677,2250.0,2259.3999999977677,1.0,0.0,0.0,,Click To Continue,Next button,7.0,object-60,temp_dist_trial,35.0,t_s_06_1,travel_shared,luggage,4.0,competing,paired,t_s_06_1.jpg,Travel,,,sub-37
Desktop or Laptop,Windows 10,Chrome 135.0.0.0,2560x1440,1920x1080,Temporal Distance Task,cb_04,35.0,temp_dist_trial,dist_items,qkpkxw,2.0,response,44,1000.0,2250.0,2259.800000000003,1000.0,2250.0,2259.800000000003,1.0,1259.8000000000031,0.0,,Slider,Slider,4.0,object-56,temp_dist_trial,35.0,t_s_06_1,travel_shared,luggage,4.0,competing,paired,t_s_06_1.jpg,Travel,,,sub-37
Desktop or Laptop,Windows 10,Chrome 135.0.0.0,2560x1440,1920x1080,Temporal Distance Task,cb_04,36.0,temp_dist_trial,num_items,zn7si1,1.0,response,1_ITEM,1789.8000000000034,1783.400000000009,1789.8000000000034,1789.8000000000034,1783.400000000009,1789.8000000000034,1.0,0.0,0.0,,Click Response,1_count,3.0,object-46,temp_dist_trial,36.0,t_m_02_1,travel_Miami,t-shirt,4.0,unique,paired,t_m_02_1.jpg,Travel,,,sub-37
Desktop or Laptop,Windows 10,Chrome 135.0.0.0,2560x1440,1920x1080,Temporal Distance Task,cb_04,37.0,temp_dist_trial,num_items,zn7si1,1.0,response,2_ITEM,966.5,950.0,966.5,966.5,950.0,966.5,1.0,0.0,0.0,,Click Response,2_count,5.0,object-49,temp_dist_trial,37.0,t_m_04_1,travel_Miami,UV jacket,4.0,unique,paired,t_m_04_1.jpg,Travel,,,sub-37
Desktop or Laptop,Windows 10,Chrome 135.0.0.0,2560x1440,1920x1080,Temporal Distance Task,cb_04,37.0,temp_dist_trial,dist_items,qkpkxw,2.0,info,,3.0999999977648263,0.0,3.0999999977648263,3.0999999977648263,0.0,3.0999999977648263,1.0,0.0,0.0,,Slider,Slider,4.0,object-56,temp_dist_trial,37.0,t_m_04_1,travel_Miami,UV jacket,4.0,unique,paired,t_m_04_1.jpg,Travel,,,sub-37
Desktop or Laptop,Windows 10,Chrome 135.0.0.0,2560x1440,1920x1080,Temporal Distance Task,cb_04,37.0,temp_dist_trial,dist_items,qkpkxw,2.0,continue,,1922.0,1916.7999999999884,1922.0,1922.0,1916.7999999999884,1922.0,1.0,0.0,0.0,,Click To Continue,Next button,7.0,object-60,temp_dist_trial,37.0,t_m_04_1,travel_Miami,UV jacket,4.0,unique,paired,t_m_04_1.jpg,Travel,,,sub-37
Desktop or Laptop,Windows 10,Chrome 135.0.0.0,2560x1440,1920x1080,Temporal Distance Task,cb_04,37.0,temp_dist_trial,dist_items,qkpkxw,2.0,response,20,700.1000000000058,1916.7999999999884,1922.3999999985092,700.1000000000058,1916.7999999999884,1922.3999999985092,1.0,1222.299999998504,0.0,,Slider,Slider,4.0,object-56,temp_dist_trial,37.0,t_m_04_1,travel_Miami,UV jacket,4.0,unique,paired,t_m_04_1.jpg,Travel,,,sub-37
Desktop or Laptop,Windows 10,Chrome 135.0.0.0,2560x1440,1920x1080,Temporal Distance Task,cb_04,38.0,temp_dist_trial,num_items,zn7si1,1.0,response,1_ITEM,902.0999999985215,899.9000000000232,902.0999999985215,902.0999999985215,899.9000000000232,902.0999999985215,1.0,0.0,0.0,,Click Response,1_count,3.0,object-46,temp_dist_trial,38.0,t_s_19_1,travel_shared,pajamas,4.0,competing,single,t_s_19_1.jpg,Travel,,,sub-37
Desktop or Laptop,Windows 10,Chrome 135.0.0.0,2560x1440,1920x1080,Temporal Distance Task,cb_04,39.0,temp_dist_trial,num_items,zn7si1,1.0,response,2_ITEM,798.599999997008,783.3999999999942,798.599999997008,798.599999997008,783.3999999999942,798.599999997008,1.0,0.0,0.0,,Click Response,2_count,5.0,object-49,temp_dist_trial,39.0,t_s_02_1,travel_shared,water bottle,4.0,competing,paired,t_s_02_1.jpg,Travel,,,sub-37
Desktop or Laptop,Windows 10,Chrome 135.0.0.0,2560x1440,1920x1080,Temporal Distance Task,cb_04,39.0,temp_dist_trial,dist_items,qkpkxw,2.0,info,,3.1999999970139466,0.0,3.1999999970139466,3.1999999970139466,0.0,3.1999999970139466,1.0,0.0,0.0,,Slider,Slider,4.0,object-56,temp_dist_trial,39.0,t_s_02_1,travel_shared,water bottle,4.0,competing,paired,t_s_02_1.jpg,Travel,,,sub-37
Desktop or Laptop,Windows 10,Chrome 135.0.0.0,2560x1440,1920x1080,Temporal Distance Task,cb_04,39.0,temp_dist_trial,dist_items,qkpkxw,2.0,continue,,1636.999999997759,1633.3999999999942,1636.999999997759,1636.999999997759,1633.3999999999942,1636.999999997759,1.0,0.0,0.0,,Click To Continue,Next button,7.0,object-60,temp_dist_trial,39.0,t_s_02_1,travel_shared,water bottle,4.0,competing,paired,t_s_02_1.jpg,Travel,,,sub-37
Desktop or Laptop,Windows 10,Chrome 135.0.0.0,2560x1440,1920x1080,Temporal Distance Task,cb_04,39.0,temp_dist_trial,dist_items,qkpkxw,2.0,response,36,716.6000000000058,1633.3999999999942,1637.199999997014,716.6000000000058,1633.3999999999942,1637.199999997014,1.0,920.599999997008,0.0,,Slider,Slider,4.0,object-56,temp_dist_trial,39.0,t_s_02_1,travel_shared,water bottle,4.0,competing,paired,t_s_02_1.jpg,Travel,,,sub-37
Desktop or Laptop,Windows 10,Chrome 135.0.0.0,2560x1440,1920x1080,Temporal Distance Task,cb_04,40.0,temp_dist_trial,num_items,zn7si1,1.0,response,2_ITEM,1027.7999999970198,1016.6000000000058,1027.7999999970198,1027.7999999970198,1016.6000000000058,1027.7999999970198,1.0,0.0,0.0,,Click Response,2_count,5.0,object-49,temp_dist_trial,40.0,t_m_17_1,travel_Miami,water gun,4.0,unique,paired,t_m_17_1.jpg,Travel,,,sub-37
Desktop or Laptop,Windows 10,Chrome 135.0.0.0,2560x1440,1920x1080,Temporal Distance Task,cb_04,40.0,temp_dist_trial,dist_items,qkpkxw,2.0,info,,3.2999999985040627,0.0,3.2999999985040627,3.2999999985040627,0.0,3.2999999985040627,1.0,0.0,0.0,,Slider,Slider,4.0,object-56,temp_dist_trial,40.0,t_m_17_1,travel_Miami,water gun,4.0,unique,paired,t_m_17_1.jpg,Travel,,,sub-37
Desktop or Laptop,Windows 10,Chrome 135.0.0.0,2560x1440,1920x1080,Temporal Distance Task,cb_04,40.0,temp_dist_trial,dist_items,qkpkxw,2.0,continue,,1813.5999999992487,1799.8999999999942,1813.5999999992487,1813.5999999992487,1799.8999999999942,1813.5999999992487,1.0,0.0,0.0,,Click To Continue,Next button,7.0,object-60,temp_dist_trial,40.0,t_m_17_1,travel_Miami,water gun,4.0,unique,paired,t_m_17_1.jpg,Travel,,,sub-37
Desktop or Laptop,Windows 10,Chrome 135.0.0.0,2560x1440,1920x1080,Temporal Distance Task,cb_04,40.0,temp_dist_trial,dist_items,qkpkxw,2.0,response,55,850.1000000000058,1799.8999999999942,1813.8999999999944,850.1000000000058,1799.8999999999942,1813.8999999999944,1.0,963.7999999999884,0.0,,Slider,Slider,4.0,object-56,temp_dist_trial,40.0,t_m_17_1,travel_Miami,water gun,4.0,unique,paired,t_m_17_1.jpg,Travel,,,sub-37
Desktop or Laptop,Windows 10,Chrome 135.0.0.0,2560x1440,1920x1080,Temporal Distance Task,cb_04,41.0,temp_dist_trial,num_items,zn7si1,1.0,response,1_ITEM,1101.0999999977648,1100.1000000000058,1101.0999999977648,1101.0999999977648,1100.1000000000058,1101.0999999977648,1.0,0.0,0.0,,Click Response,1_count,3.0,object-46,temp_dist_trial,41.0,t_s_01_1,travel_shared,fanny pack,4.0,competing,single,t_s_01_1.jpg,Travel,,,sub-37
Desktop or Laptop,Windows 10,Chrome 135.0.0.0,2560x1440,1920x1080,Temporal Distance Task,cb_04,42.0,temp_dist_trial,num_items,zn7si1,1.0,response,1_ITEM,1567.999999997759,1566.7999999999884,1567.999999997759,1567.999999997759,1566.7999999999884,1567.999999997759,1.0,0.0,0.0,,Click Response,1_count,3.0,object-46,temp_dist_trial,42.0,t_m_14_1,travel_Miami,swim goggles,4.0,unique,paired,t_m_14_1.jpg,Travel,,,sub-37
Desktop or Laptop,Windows 10,Chrome 135.0.0.0,2560x1440,1920x1080,Temporal Distance Task,cb_04,43.0,temp_dist_trial,num_items,zn7si1,1.0,response,2_ITEM,962.5999999985215,949.9000000000232,962.5999999985215,962.5999999985215,949.9000000000232,962.5999999985215,1.0,0.0,0.0,,Click Response,2_count,5.0,object-49,temp_dist_trial,43.0,t_s_17_1,travel_shared,toothbrush,4.0,competing,paired,t_s_17_1.jpg,Travel,,,sub-37
Desktop or Laptop,Windows 10,Chrome 135.0.0.0,2560x1440,1920x1080,Temporal Distance Task,cb_04,43.0,temp_dist_trial,dist_items,qkpkxw,2.0,info,,3.6999999984982415,0.0,3.6999999984982415,3.6999999984982415,0.0,3.6999999984982415,1.0,0.0,0.0,,Slider,Slider,4.0,object-56,temp_dist_trial,43.0,t_s_17_1,travel_shared,toothbrush,4.0,competing,paired,t_s_17_1.jpg,Travel,,,sub-37
Desktop or Laptop,Windows 10,Chrome 135.0.0.0,2560x1440,1920x1080,Temporal Distance Task,cb_04,43.0,temp_dist_trial,dist_items,qkpkxw,2.0,continue,,2902.399999997753,2900.0999999999767,2902.399999997753,2902.399999997753,2900.0999999999767,2902.399999997753,1.0,0.0,0.0,,Click To Continue,Next button,7.0,object-60,temp_dist_trial,43.0,t_s_17_1,travel_shared,toothbrush,4.0,competing,paired,t_s_17_1.jpg,Travel,,,sub-37
Desktop or Laptop,Windows 10,Chrome 135.0.0.0,2560x1440,1920x1080,Temporal Distance Task,cb_04,43.0,temp_dist_trial,dist_items,qkpkxw,2.0,response,57,600.0999999999767,2900.0999999999767,2906.4999999992438,600.0999999999767,2900.0999999999767,2906.4999999992438,1.0,2306.3999999992666,0.0,,Slider,Slider,4.0,object-56,temp_dist_trial,43.0,t_s_17_1,travel_shared,toothbrush,4.0,competing,paired,t_s_17_1.jpg,Travel,,,sub-37
Desktop or Laptop,Windows 10,Chrome 135.0.0.0,2560x1440,1920x1080,Temporal Distance Task,cb_04,44.0,temp_dist_trial,num_items,zn7si1,1.0,response,2_ITEM,2664.2999999977765,2650.0,2664.2999999977765,2664.2999999977765,2650.0,2664.2999999977765,1.0,0.0,0.0,,Click Response,2_count,5.0,object-49,temp_dist_trial,44.0,t_m_20_1,travel_Miami,inflatable beachball,4.0,unique,paired,t_m_20_1.jpg,Travel,,,sub-37
Desktop or Laptop,Windows 10,Chrome 135.0.0.0,2560x1440,1920x1080,Temporal Distance Task,cb_04,44.0,temp_dist_trial,dist_items,qkpkxw,2.0,info,,3.3999999992665835,0.0,3.3999999992665835,3.3999999992665835,0.0,3.3999999992665835,1.0,0.0,0.0,,Slider,Slider,4.0,object-56,temp_dist_trial,44.0,t_m_20_1,travel_Miami,inflatable beachball,4.0,unique,paired,t_m_20_1.jpg,Travel,,,sub-37
Desktop or Laptop,Windows 10,Chrome 135.0.0.0,2560x1440,1920x1080,Temporal Distance Task,cb_04,44.0,temp_dist_trial,dist_items,qkpkxw,2.0,continue,,2044.2000000000119,2033.3000000000175,2044.2000000000119,2044.2000000000119,2033.3000000000175,2044.2000000000119,1.0,0.0,0.0,,Click To Continue,Next button,7.0,object-60,temp_dist_trial,44.0,t_m_20_1,travel_Miami,inflatable beachball,4.0,unique,paired,t_m_20_1.jpg,Travel,,,sub-37
Desktop or Laptop,Windows 10,Chrome 135.0.0.0,2560x1440,1920x1080,Temporal Distance Task,cb_04,44.0,temp_dist_trial,dist_items,qkpkxw,2.0,response,68,766.7000000000116,2033.3000000000175,2044.3999999992664,766.7000000000116,2033.3000000000175,2044.3999999992664,1.0,1277.6999999992552,0.0,,Slider,Slider,4.0,object-56,temp_dist_trial,44.0,t_m_20_1,travel_Miami,inflatable beachball,4.0,unique,paired,t_m_20_1.jpg,Travel,,,sub-37
Desktop or Laptop,Windows 10,Chrome 135.0.0.0,2560x1440,1920x1080,Temporal Distance Task,cb_04,45.0,temp_dist_trial,num_items,zn7si1,1.0,response,2_ITEM,931.3999999999942,916.6999999999823,931.3999999999942,931.3999999999942,916.6999999999823,931.3999999999942,1.0,0.0,0.0,,Click Response,2_count,5.0,object-49,temp_dist_trial,45.0,t_s_14_1,travel_shared,hand sanitizer,4.0,competing,paired,t_s_14_1.jpg,Travel,,,sub-37
Desktop or Laptop,Windows 10,Chrome 135.0.0.0,2560x1440,1920x1080,Temporal Distance Task,cb_04,45.0,temp_dist_trial,dist_items,qkpkxw,2.0,info,,3.1999999984982423,0.0,3.1999999984982423,3.1999999984982423,0.0,3.1999999984982423,1.0,0.0,0.0,,Slider,Slider,4.0,object-56,temp_dist_trial,45.0,t_s_14_1,travel_shared,hand sanitizer,4.0,competing,paired,t_s_14_1.jpg,Travel,,,sub-37
Desktop or Laptop,Windows 10,Chrome 135.0.0.0,2560x1440,1920x1080,Temporal Distance Task,cb_04,45.0,temp_dist_trial,dist_items,qkpkxw,2.0,continue,,2249.899999997753,2233.3999999999937,2249.899999997753,2249.899999997753,2233.3999999999937,2249.899999997753,1.0,0.0,0.0,,Click To Continue,Next button,7.0,object-60,temp_dist_trial,45.0,t_s_14_1,travel_shared,hand sanitizer,4.0,competing,paired,t_s_14_1.jpg,Travel,,,sub-37
Desktop or Laptop,Windows 10,Chrome 135.0.0.0,2560x1440,1920x1080,Temporal Distance Task,cb_04,45.0,temp_dist_trial,dist_items,qkpkxw,2.0,response,32,600.0,2233.3999999999937,2250.0,600.0,2233.3999999999937,2250.0,1.0,1650.0,0.0,,Slider,Slider,4.0,object-56,temp_dist_trial,45.0,t_s_14_1,travel_shared,hand sanitizer,4.0,competing,paired,t_s_14_1.jpg,Travel,,,sub-37
Desktop or Laptop,Windows 10,Chrome 135.0.0.0,2560x1440,1920x1080,Temporal Distance Task,cb_04,46.0,temp_dist_trial,num_items,zn7si1,1.0,response,1_ITEM,896.7999999985042,883.2999999999884,896.7999999985042,896.7999999985042,883.2999999999884,896.7999999985042,1.0,0.0,0.0,,Click Response,1_count,3.0,object-46,temp_dist_trial,46.0,t_m_15_1,travel_Miami,shorts,4.0,unique,single,t_m_15_1.jpg,Travel,,,sub-37
Desktop or Laptop,Windows 10,Chrome 135.0.0.0,2560x1440,1920x1080,Temporal Distance Task,cb_04,47.0,temp_dist_trial,num_items,zn7si1,1.0,response,2_ITEM,1051.0,1049.8999999999942,1051.0,1051.0,1049.8999999999942,1051.0,1.0,0.0,0.0,,Click Response,2_count,5.0,object-49,temp_dist_trial,47.0,t_i_09_1,travel_Iceland,ear muffs,4.0,unique,paired,t_i_09_1.jpg,Travel,,,sub-37
Desktop or Laptop,Windows 10,Chrome 135.0.0.0,2560x1440,1920x1080,Temporal Distance Task,cb_04,47.0,temp_dist_trial,dist_items,qkpkxw,2.0,info,,3.0999999977648263,0.0,3.0999999977648263,3.0999999977648263,0.0,3.0999999977648263,1.0,0.0,0.0,,Slider,Slider,4.0,object-56,temp_dist_trial,47.0,t_i_09_1,travel_Iceland,ear muffs,4.0,unique,paired,t_i_09_1.jpg,Travel,,,sub-37
Desktop or Laptop,Windows 10,Chrome 135.0.0.0,2560x1440,1920x1080,Temporal Distance Task,cb_04,47.0,temp_dist_trial,dist_items,qkpkxw,2.0,continue,,1571.0999999977648,1566.7000000000116,1571.0999999977648,1571.0999999977648,1566.7000000000116,1571.0999999977648,1.0,0.0,0.0,,Click To Continue,Next button,7.0,object-60,temp_dist_trial,47.0,t_i_09_1,travel_Iceland,ear muffs,4.0,unique,paired,t_i_09_1.jpg,Travel,,,sub-37
Desktop or Laptop,Windows 10,Chrome 135.0.0.0,2560x1440,1920x1080,Temporal Distance Task,cb_04,47.0,temp_dist_trial,dist_items,qkpkxw,2.0,response,33,666.7000000000116,1566.7000000000116,1571.3999999985099,666.7000000000116,1566.7000000000116,1571.3999999985099,1.0,904.6999999984982,0.0,,Slider,Slider,4.0,object-56,temp_dist_trial,47.0,t_i_09_1,travel_Iceland,ear muffs,4.0,unique,paired,t_i_09_1.jpg,Travel,,,sub-37
Desktop or Laptop,Windows 10,Chrome 135.0.0.0,2560x1440,1920x1080,Temporal Distance Task,cb_04,48.0,temp_dist_trial,num_items,zn7si1,1.0,response,1_ITEM,886.4999999992433,883.2999999999884,886.4999999992433,886.4999999992433,883.2999999999884,886.4999999992433,1.0,0.0,0.0,,Click Response,1_count,3.0,object-46,temp_dist_trial,48.0,t_i_15_1,travel_Iceland,compass,4.0,unique,paired,t_i_15_1.jpg,Travel,,,sub-37
Desktop or Laptop,Windows 10,Chrome 135.0.0.0,2560x1440,1920x1080,Temporal Distance Task,cb_04,2.0,temp_eventStart,Screen 1,dgtyxe,1.0,continue,,909.5,900.0,909.5,909.5,900.0,909.5,1.0,0.0,0.0,,Click To Continue,Next Button,3.0,object-43,temp_eventStart,,,Student,,,,,,,,,sub-37
Desktop or Laptop,Windows 10,Chrome 135.0.0.0,2560x1440,1920x1080,Temporal Distance Task,cb_04,49.0,temp_dist_trial,num_items,zn7si1,1.0,response,1_ITEM,2101.5,2099.8999999999937,2101.5,2101.5,2099.8999999999937,2101.5,1.0,0.0,0.0,,Click Response,1_count,3.0,object-46,temp_dist_trial,1.0,s_a_08_1,student_art,sewing machine,4.0,unique,paired,s_a_08_1.jpg,Student,,,sub-37
Desktop or Laptop,Windows 10,Chrome 135.0.0.0,2560x1440,1920x1080,Temporal Distance Task,cb_04,50.0,temp_dist_trial,num_items,zn7si1,1.0,response,2_ITEM,961.7999999970198,950.0,961.7999999970198,961.7999999970198,950.0,961.7999999970198,1.0,0.0,0.0,,Click Response,2_count,5.0,object-49,temp_dist_trial,2.0,s_sh_10_1,student_shared,scissors,4.0,competing,paired,s_sh_10_1.jpg,Student,,,sub-37
Desktop or Laptop,Windows 10,Chrome 135.0.0.0,2560x1440,1920x1080,Temporal Distance Task,cb_04,50.0,temp_dist_trial,dist_items,qkpkxw,2.0,info,,3.399999998509884,0.0,3.399999998509884,3.399999998509884,0.0,3.399999998509884,1.0,0.0,0.0,,Slider,Slider,4.0,object-56,temp_dist_trial,2.0,s_sh_10_1,student_shared,scissors,4.0,competing,paired,s_sh_10_1.jpg,Student,,,sub-37
Desktop or Laptop,Windows 10,Chrome 135.0.0.0,2560x1440,1920x1080,Temporal Distance Task,cb_04,50.0,temp_dist_trial,dist_items,qkpkxw,2.0,continue,,1932.0999999977648,1916.7000000000119,1932.0999999977648,1932.0999999977648,1916.7000000000119,1932.0999999977648,1.0,0.0,0.0,,Click To Continue,Next button,7.0,object-60,temp_dist_trial,2.0,s_sh_10_1,student_shared,scissors,4.0,competing,paired,s_sh_10_1.jpg,Student,,,sub-37
Desktop or Laptop,Windows 10,Chrome 135.0.0.0,2560x1440,1920x1080,Temporal Distance Task,cb_04,50.0,temp_dist_trial,dist_items,qkpkxw,2.0,response,37,650.0,1916.7000000000119,1932.5,650.0,1916.7000000000119,1932.5,1.0,1282.5,0.0,,Slider,Slider,4.0,object-56,temp_dist_trial,2.0,s_sh_10_1,student_shared,scissors,4.0,competing,paired,s_sh_10_1.jpg,Student,,,sub-37
Desktop or Laptop,Windows 10,Chrome 135.0.0.0,2560x1440,1920x1080,Temporal Distance Task,cb_04,51.0,temp_dist_trial,num_items,zn7si1,1.0,response,1_ITEM,1327.5999999970081,1316.5999999999767,1327.5999999970081,1327.5999999970081,1316.5999999999767,1327.5999999970081,1.0,0.0,0.0,,Click Response,1_count,3.0,object-46,temp_dist_trial,3.0,s_a_16_1,student_art,piano,4.0,unique,single,s_a_16_1.jpg,Student,,,sub-37
Desktop or Laptop,Windows 10,Chrome 135.0.0.0,2560x1440,1920x1080,Temporal Distance Task,cb_04,52.0,temp_dist_trial,num_items,zn7si1,1.0,response,2_ITEM,2119.200000000012,2116.700000000012,2119.200000000012,2119.200000000012,2116.700000000012,2119.200000000012,1.0,0.0,0.0,,Click Response,2_count,5.0,object-49,temp_dist_trial,4.0,s_a_02_1,student_art,canvas,4.0,unique,single,s_a_02_1.jpg,Student,,,sub-37
Desktop or Laptop,Windows 10,Chrome 135.0.0.0,2560x1440,1920x1080,Temporal Distance Task,cb_04,52.0,temp_dist_trial,dist_items,qkpkxw,2.0,info,,3.399999998509884,0.0,3.399999998509884,3.399999998509884,0.0,3.399999998509884,1.0,0.0,0.0,,Slider,Slider,4.0,object-56,temp_dist_trial,4.0,s_a_02_1,student_art,canvas,4.0,unique,single,s_a_02_1.jpg,Student,,,sub-37
Desktop or Laptop,Windows 10,Chrome 135.0.0.0,2560x1440,1920x1080,Temporal Distance Task,cb_04,52.0,temp_dist_trial,dist_items,qkpkxw,2.0,continue,,2039.0,2033.3999999999944,2039.0,2039.0,2033.3999999999944,2039.0,1.0,0.0,0.0,,Click To Continue,Next button,7.0,object-60,temp_dist_trial,4.0,s_a_02_1,student_art,canvas,4.0,unique,single,s_a_02_1.jpg,Student,,,sub-37
Desktop or Laptop,Windows 10,Chrome 135.0.0.0,2560x1440,1920x1080,Temporal Distance Task,cb_04,52.0,temp_dist_trial,dist_items,qkpkxw,2.0,response,62,900.1000000000058,2033.3999999999944,2039.1999999992554,900.1000000000058,2033.3999999999944,2039.1999999992554,1.0,1139.0999999992493,0.0,,Slider,Slider,4.0,object-56,temp_dist_trial,4.0,s_a_02_1,student_art,canvas,4.0,unique,single,s_a_02_1.jpg,Student,,,sub-37
Desktop or Laptop,Windows 10,Chrome 135.0.0.0,2560x1440,1920x1080,Temporal Distance Task,cb_04,53.0,temp_dist_trial,num_items,zn7si1,1.0,response,2_ITEM,1559.6999999977704,1550.0,1559.6999999977704,1559.6999999977704,1550.0,1559.6999999977704,1.0,0.0,0.0,,Click Response,2_count,5.0,object-49,temp_dist_trial,5.0,s_s_01_1,student_stem,microscope,4.0,unique,single,s_s_01_1.jpg,Student,,,sub-37
Desktop or Laptop,Windows 10,Chrome 135.0.0.0,2560x1440,1920x1080,Temporal Distance Task,cb_04,53.0,temp_dist_trial,dist_items,qkpkxw,2.0,info,,3.3999999970255885,0.0,3.3999999970255885,3.3999999970255885,0.0,3.3999999970255885,1.0,0.0,0.0,,Slider,Slider,4.0,object-56,temp_dist_trial,5.0,s_s_01_1,student_stem,microscope,4.0,unique,single,s_s_01_1.jpg,Student,,,sub-37
Desktop or Laptop,Windows 10,Chrome 135.0.0.0,2560x1440,1920x1080,Temporal Distance Task,cb_04,53.0,temp_dist_trial,dist_items,qkpkxw,2.0,continue,,1580.8999999970254,1566.6000000000058,1580.8999999970254,1580.8999999970254,1566.6000000000058,1580.8999999970254,1.0,0.0,0.0,,Click To Continue,Next button,7.0,object-60,temp_dist_trial,5.0,s_s_01_1,student_stem,microscope,4.0,unique,single,s_s_01_1.jpg,Student,,,sub-37
Desktop or Laptop,Windows 10,Chrome 135.0.0.0,2560x1440,1920x1080,Temporal Distance Task,cb_04,53.0,temp_dist_trial,dist_items,qkpkxw,2.0,response,65,750.0,1566.6000000000058,1581.1999999977704,750.0,1566.6000000000058,1581.1999999977704,1.0,831.1999999977706,0.0,,Slider,Slider,4.0,object-56,temp_dist_trial,5.0,s_s_01_1,student_stem,microscope,4.0,unique,single,s_s_01_1.jpg,Student,,,sub-37
Desktop or Laptop,Windows 10,Chrome 135.0.0.0,2560x1440,1920x1080,Temporal Distance Task,cb_04,54.0,temp_dist_trial,num_items,zn7si1,1.0,response,2_ITEM,1683.3000000000175,1666.7000000000116,1683.3000000000175,1683.3000000000175,1666.7000000000116,1683.3000000000175,1.0,0.0,0.0,,Click Response,2_count,5.0,object-49,temp_dist_trial,6.0,s_sh_19_1,student_shared,portable plastic drawer,4.0,competing,paired,s_sh_19_1.jpg,Student,,,sub-37
Desktop or Laptop,Windows 10,Chrome 135.0.0.0,2560x1440,1920x1080,Temporal Distance Task,cb_04,54.0,temp_dist_trial,dist_items,qkpkxw,2.0,info,,3.0999999992491207,0.0,3.0999999992491207,3.0999999992491207,0.0,3.0999999992491207,1.0,0.0,0.0,,Slider,Slider,4.0,object-56,temp_dist_trial,6.0,s_sh_19_1,student_shared,portable plastic drawer,4.0,competing,paired,s_sh_19_1.jpg,Student,,,sub-37
Desktop or Laptop,Windows 10,Chrome 135.0.0.0,2560x1440,1920x1080,Temporal Distance Task,cb_04,54.0,temp_dist_trial,dist_items,qkpkxw,2.0,continue,,2757.499999997759,2750.1000000000067,2757.499999997759,2757.499999997759,2750.1000000000067,2757.499999997759,1.0,0.0,0.0,,Click To Continue,Next button,7.0,object-60,temp_dist_trial,6.0,s_sh_19_1,student_shared,portable plastic drawer,4.0,competing,paired,s_sh_19_1.jpg,Student,,,sub-37
Desktop or Laptop,Windows 10,Chrome 135.0.0.0,2560x1440,1920x1080,Temporal Distance Task,cb_04,54.0,temp_dist_trial,dist_items,qkpkxw,2.0,response,61,1116.7999999999884,2750.1000000000067,2760.8999999999933,1116.7999999999884,2750.1000000000067,2760.8999999999933,1.0,1644.1000000000058,0.0,,Slider,Slider,4.0,object-56,temp_dist_trial,6.0,s_sh_19_1,student_shared,portable plastic drawer,4.0,competing,paired,s_sh_19_1.jpg,Student,,,sub-37
Desktop or Laptop,Windows 10,Chrome 135.0.0.0,2560x1440,1920x1080,Temporal Distance Task,cb_04,55.0,temp_dist_trial,num_items,zn7si1,1.0,response,2_ITEM,827.4999999992433,816.7999999999884,827.4999999992433,827.4999999992433,816.7999999999884,827.4999999992433,1.0,0.0,0.0,,Click Response,2_count,5.0,object-49,temp_dist_trial,7.0,s_sh_15_1,student_shared,usb drive,4.0,competing,paired,s_sh_15_1.jpg,Student,,,sub-37
Desktop or Laptop,Windows 10,Chrome 135.0.0.0,2560x1440,1920x1080,Temporal Distance Task,cb_04,55.0,temp_dist_trial,dist_items,qkpkxw,2.0,info,,3.799999999260762,0.0,3.799999999260762,3.799999999260762,0.0,3.799999999260762,1.0,0.0,0.0,,Slider,Slider,4.0,object-56,temp_dist_trial,7.0,s_sh_15_1,student_shared,usb drive,4.0,competing,paired,s_sh_15_1.jpg,Student,,,sub-37
Desktop or Laptop,Windows 10,Chrome 135.0.0.0,2560x1440,1920x1080,Temporal Distance Task,cb_04,55.0,temp_dist_trial,dist_items,qkpkxw,2.0,continue,,1503.1999999977704,1500.1000000000058,1503.1999999977704,1503.1999999977704,1500.1000000000058,1503.1999999977704,1.0,0.0,0.0,,Click To Continue,Next button,7.0,object-60,temp_dist_trial,7.0,s_sh_15_1,student_shared,usb drive,4.0,competing,paired,s_sh_15_1.jpg,Student,,,sub-37
Desktop or Laptop,Windows 10,Chrome 135.0.0.0,2560x1440,1920x1080,Temporal Distance Task,cb_04,55.0,temp_dist_trial,dist_items,qkpkxw,2.0,response,27,533.3000000000175,1500.1000000000058,1503.3999999970254,533.3000000000175,1500.1000000000058,1503.3999999970254,1.0,970.099999997008,0.0,,Slider,Slider,4.0,object-56,temp_dist_trial,7.0,s_sh_15_1,student_shared,usb drive,4.0,competing,paired,s_sh_15_1.jpg,Student,,,sub-37
Desktop or Laptop,Windows 10,Chrome 135.0.0.0,2560x1440,1920x1080,Temporal Distance Task,cb_04,56.0,temp_dist_trial,num_items,zn7si1,1.0,response,num_miss,2999.8999999999933,2999.8999999999933,2999.8999999999933,2999.8999999999933,2999.8999999999933,2999.8999999999933,1.0,0.0,0.0,num_miss_tag,Time Limit,screen,0.0,screen,temp_dist_trial,8.0,s_sh_06_1,student_shared,clipboard,4.0,competing,paired,s_sh_06_1.jpg,Student,,,sub-37
Desktop or Laptop,Windows 10,Chrome 135.0.0.0,2560x1440,1920x1080,Temporal Distance Task,cb_04,57.0,temp_dist_trial,num_items,zn7si1,1.0,response,1_ITEM,2008.2999999977765,2000.0,2008.2999999977765,2008.2999999977765,2000.0,2008.2999999977765,1.0,0.0,0.0,,Click Response,1_count,3.0,object-46,temp_dist_trial,9.0,s_sh_03_1,student_shared,highlighter,4.0,competing,paired,s_sh_03_1.jpg,Student,,,sub-37
Desktop or Laptop,Windows 10,Chrome 135.0.0.0,2560x1440,1920x1080,Temporal Distance Task,cb_04,58.0,temp_dist_trial,num_items,zn7si1,1.0,response,2_ITEM,1046.3999999977532,1033.3999999999942,1046.3999999977532,1046.3999999977532,1033.3999999999942,1046.3999999977532,1.0,0.0,0.0,,Click Response,2_count,5.0,object-49,temp_dist_trial,10.0,s_sh_02_1,student_shared,eraser,4.0,competing,paired,s_sh_02_1.jpg,Student,,,sub-37
Desktop or Laptop,Windows 10,Chrome 135.0.0.0,2560x1440,1920x1080,Temporal Distance Task,cb_04,58.0,temp_dist_trial,dist_items,qkpkxw,2.0,info,,3.2999999999883585,0.0,3.2999999999883585,3.2999999999883585,0.0,3.2999999999883585,1.0,0.0,0.0,,Slider,Slider,4.0,object-56,temp_dist_trial,10.0,s_sh_02_1,student_shared,eraser,4.0,competing,paired,s_sh_02_1.jpg,Student,,,sub-37
Desktop or Laptop,Windows 10,Chrome 135.0.0.0,2560x1440,1920x1080,Temporal Distance Task,cb_04,58.0,temp_dist_trial,dist_items,qkpkxw,2.0,continue,,1669.2999999999884,1666.5999999999767,1669.2999999999884,1669.2999999999884,1666.5999999999767,1669.2999999999884,1.0,0.0,0.0,,Click To Continue,Next button,7.0,object-60,temp_dist_trial,10.0,s_sh_02_1,student_shared,eraser,4.0,competing,paired,s_sh_02_1.jpg,Student,,,sub-37
Desktop or Laptop,Windows 10,Chrome 135.0.0.0,2560x1440,1920x1080,Temporal Distance Task,cb_04,58.0,temp_dist_trial,dist_items,qkpkxw,2.0,response,64,866.5999999999768,1666.5999999999767,1672.5999999970081,866.5999999999768,1666.5999999999767,1672.5999999970081,1.0,805.9999999970314,0.0,,Slider,Slider,4.0,object-56,temp_dist_trial,10.0,s_sh_02_1,student_shared,eraser,4.0,competing,paired,s_sh_02_1.jpg,Student,,,sub-37
Desktop or Laptop,Windows 10,Chrome 135.0.0.0,2560x1440,1920x1080,Temporal Distance Task,cb_04,59.0,temp_dist_trial,num_items,zn7si1,1.0,response,1_ITEM,939.5999999985215,933.3000000000177,939.5999999985215,939.5999999985215,933.3000000000177,939.5999999985215,1.0,0.0,0.0,,Click Response,1_count,3.0,object-46,temp_dist_trial,11.0,s_sh_07_1,student_shared,ruler,4.0,competing,paired,s_sh_07_1.jpg,Student,,,sub-37
Desktop or Laptop,Windows 10,Chrome 135.0.0.0,2560x1440,1920x1080,Temporal Distance Task,cb_04,60.0,temp_dist_trial,num_items,zn7si1,1.0,response,1_ITEM,920.6999999970141,916.6999999999823,920.6999999970141,920.6999999970141,916.6999999999823,920.6999999970141,1.0,0.0,0.0,,Click Response,1_count,3.0,object-46,temp_dist_trial,12.0,s_sh_22_1,student_shared,hole puncher,4.0,competing,single,s_sh_22_1.jpg,Student,,,sub-37
Desktop or Laptop,Windows 10,Chrome 135.0.0.0,2560x1440,1920x1080,Temporal Distance Task,cb_04,61.0,temp_dist_trial,num_items,zn7si1,1.0,response,1_ITEM,782.9999999970314,766.7000000000116,782.9999999970314,782.9999999970314,766.7000000000116,782.9999999970314,1.0,0.0,0.0,,Click Response,1_count,3.0,object-46,temp_dist_trial,13.0,s_s_03_1,student_stem,petri dish,4.0,unique,paired,s_s_03_1.jpg,Student,,,sub-37
Desktop or Laptop,Windows 10,Chrome 135.0.0.0,2560x1440,1920x1080,Temporal Distance Task,cb_04,62.0,temp_dist_trial,num_items,zn7si1,1.0,response,1_ITEM,797.8999999970256,783.3999999999942,797.8999999970256,797.8999999970256,783.3999999999942,797.8999999970256,1.0,0.0,0.0,,Click Response,1_count,3.0,object-46,temp_dist_trial,14.0,s_s_12_1,student_stem,robotic arm,4.0,unique,paired,s_s_12_1.jpg,Student,,,sub-37
Desktop or Laptop,Windows 10,Chrome 135.0.0.0,2560x1440,1920x1080,Temporal Distance Task,cb_04,63.0,temp_dist_trial,num_items,zn7si1,1.0,response,1_ITEM,1380.5999999985215,1366.6000000000058,1380.5999999985215,1380.5999999985215,1366.6000000000058,1380.5999999985215,1.0,0.0,0.0,,Click Response,1_count,3.0,object-46,temp_dist_trial,15.0,s_s_09_1,student_stem,multimeter,4.0,unique,single,s_s_09_1.jpg,Student,,,sub-37
Desktop or Laptop,Windows 10,Chrome 135.0.0.0,2560x1440,1920x1080,Temporal Distance Task,cb_04,64.0,temp_dist_trial,num_items,zn7si1,1.0,response,2_ITEM,887.0999999977647,883.2999999999884,887.0999999977647,887.0999999977647,883.2999999999884,887.0999999977647,1.0,0.0,0.0,,Click Response,2_count,5.0,object-49,temp_dist_trial,16.0,s_a_10_1,student_art,tripod,4.0,unique,paired,s_a_10_1.jpg,Student,,,sub-37
Desktop or Laptop,Windows 10,Chrome 135.0.0.0,2560x1440,1920x1080,Temporal Distance Task,cb_04,64.0,temp_dist_trial,dist_items,qkpkxw,2.0,info,,3.9999999970314084,0.0,3.9999999970314084,3.9999999970314084,0.0,3.9999999970314084,1.0,0.0,0.0,,Slider,Slider,4.0,object-56,temp_dist_trial,16.0,s_a_10_1,student_art,tripod,4.0,unique,paired,s_a_10_1.jpg,Student,,,sub-37
Desktop or Laptop,Windows 10,Chrome 135.0.0.0,2560x1440,1920x1080,Temporal Distance Task,cb_04,64.0,temp_dist_trial,dist_items,qkpkxw,2.0,continue,,3706.3999999992666,3700.0,3706.3999999992666,3706.3999999992666,3700.0,3706.3999999992666,1.0,0.0,0.0,,Click To Continue,Next button,7.0,object-60,temp_dist_trial,16.0,s_a_10_1,student_art,tripod,4.0,unique,paired,s_a_10_1.jpg,Student,,,sub-37
Desktop or Laptop,Windows 10,Chrome 135.0.0.0,2560x1440,1920x1080,Temporal Distance Task,cb_04,64.0,temp_dist_trial,dist_items,qkpkxw,2.0,response,30,1200.0,3700.0,3709.700000000012,1200.0,3700.0,3709.700000000012,1.0,2509.700000000012,0.0,,Slider,Slider,4.0,object-56,temp_dist_trial,16.0,s_a_10_1,student_art,tripod,4.0,unique,paired,s_a_10_1.jpg,Student,,,sub-37
Desktop or Laptop,Windows 10,Chrome 135.0.0.0,2560x1440,1920x1080,Temporal Distance Task,cb_04,65.0,temp_dist_trial,num_items,zn7si1,1.0,response,2_ITEM,1074.2999999977762,1066.7000000000116,1074.2999999977762,1074.2999999977762,1066.7000000000116,1074.2999999977762,1.0,0.0,0.0,,Click Response,2_count,5.0,object-49,temp_dist_trial,17.0,s_s_14_1,student_stem,funnel,4.0,unique,paired,s_s_14_1.jpg,Student,,,sub-37
Desktop or Laptop,Windows 10,Chrome 135.0.0.0,2560x1440,1920x1080,Temporal Distance Task,cb_04,65.0,temp_dist_trial,dist_items,qkpkxw,2.0,info,,3.1000000000058208,0.0,3.1000000000058208,3.1000000000058208,0.0,3.1000000000058208,1.0,0.0,0.0,,Slider,Slider,4.0,object-56,temp_dist_trial,17.0,s_s_14_1,student_stem,funnel,4.0,unique,paired,s_s_14_1.jpg,Student,,,sub-37
Desktop or Laptop,Windows 10,Chrome 135.0.0.0,2560x1440,1920x1080,Temporal Distance Task,cb_04,65.0,temp_dist_trial,dist_items,qkpkxw,2.0,continue,,1812.1000000000056,1800.1000000000058,1812.1000000000056,1812.1000000000056,1800.1000000000058,1812.1000000000056,1.0,0.0,0.0,,Click To Continue,Next button,7.0,object-60,temp_dist_trial,17.0,s_s_14_1,student_stem,funnel,4.0,unique,paired,s_s_14_1.jpg,Student,,,sub-37
Desktop or Laptop,Windows 10,Chrome 135.0.0.0,2560x1440,1920x1080,Temporal Distance Task,cb_04,65.0,temp_dist_trial,dist_items,qkpkxw,2.0,response,22,650.1000000000057,1800.1000000000058,1812.2999999992608,650.1000000000057,1800.1000000000058,1812.2999999992608,1.0,1162.1999999992552,0.0,,Slider,Slider,4.0,object-56,temp_dist_trial,17.0,s_s_14_1,student_stem,funnel,4.0,unique,paired,s_s_14_1.jpg,Student,,,sub-37
Desktop or Laptop,Windows 10,Chrome 135.0.0.0,2560x1440,1920x1080,Temporal Distance Task,cb_04,66.0,temp_dist_trial,num_items,zn7si1,1.0,response,1_ITEM,1066.0999999977648,1050.0,1066.0999999977648,1066.0999999977648,1050.0,1066.0999999977648,1.0,0.0,0.0,,Click Response,1_count,3.0,object-46,temp_dist_trial,18.0,s_s_07_1,student_stem,periodic table,4.0,unique,single,s_s_07_1.jpg,Student,,,sub-37
Desktop or Laptop,Windows 10,Chrome 135.0.0.0,2560x1440,1920x1080,Temporal Distance Task,cb_04,67.0,temp_dist_trial,num_items,zn7si1,1.0,response,2_ITEM,994.3999999999942,983.1999999999823,994.3999999999942,994.3999999999942,983.1999999999823,994.3999999999942,1.0,0.0,0.0,,Click Response,2_count,5.0,object-49,temp_dist_trial,19.0,s_a_13_1,student_art,violin,4.0,unique,paired,s_a_13_1.jpg,Student,,,sub-37
Desktop or Laptop,Windows 10,Chrome 135.0.0.0,2560x1440,1920x1080,Temporal Distance Task,cb_04,67.0,temp_dist_trial,dist_items,qkpkxw,2.0,info,,3.2000000000116415,0.0,3.2000000000116415,3.2000000000116415,0.0,3.2000000000116415,1.0,0.0,0.0,,Slider,Slider,4.0,object-56,temp_dist_trial,19.0,s_a_13_1,student_art,violin,4.0,unique,paired,s_a_13_1.jpg,Student,,,sub-37
Desktop or Laptop,Windows 10,Chrome 135.0.0.0,2560x1440,1920x1080,Temporal Distance Task,cb_04,67.0,temp_dist_trial,dist_items,qkpkxw,2.0,continue,,2024.2999999977765,2016.7000000000119,2024.2999999977765,2024.2999999977765,2016.7000000000119,2024.2999999977765,1.0,0.0,0.0,,Click To Continue,Next button,7.0,object-60,temp_dist_trial,19.0,s_a_13_1,student_art,violin,4.0,unique,paired,s_a_13_1.jpg,Student,,,sub-37
Desktop or Laptop,Windows 10,Chrome 135.0.0.0,2560x1440,1920x1080,Temporal Distance Task,cb_04,67.0,temp_dist_trial,dist_items,qkpkxw,2.0,response,31,600.0,2016.7000000000119,2024.7000000000119,600.0,2016.7000000000119,2024.7000000000119,1.0,1424.7000000000116,0.0,,Slider,Slider,4.0,object-56,temp_dist_trial,19.0,s_a_13_1,student_art,violin,4.0,unique,paired,s_a_13_1.jpg,Student,,,sub-37
Desktop or Laptop,Windows 10,Chrome 135.0.0.0,2560x1440,1920x1080,Temporal Distance Task,cb_04,68.0,temp_dist_trial,num_items,zn7si1,1.0,response,2_ITEM,889.8999999985097,883.2000000000116,889.8999999985097,889.8999999985097,883.2000000000116,889.8999999985097,1.0,0.0,0.0,,Click Response,2_count,5.0,object-49,temp_dist_trial,20.0,s_sh_24_1,student_shared,desk organizer,4.0,competing,paired,s_sh_24_1.jpg,Student,,,sub-37
Desktop or Laptop,Windows 10,Chrome 135.0.0.0,2560x1440,1920x1080,Temporal Distance Task,cb_04,68.0,temp_dist_trial,dist_items,qkpkxw,2.0,info,,3.0999999985215254,0.0,3.0999999985215254,3.0999999985215254,0.0,3.0999999985215254,1.0,0.0,0.0,,Slider,Slider,4.0,object-56,temp_dist_trial,20.0,s_sh_24_1,student_shared,desk organizer,4.0,competing,paired,s_sh_24_1.jpg,Student,,,sub-37
Desktop or Laptop,Windows 10,Chrome 135.0.0.0,2560x1440,1920x1080,Temporal Distance Task,cb_04,68.0,temp_dist_trial,dist_items,qkpkxw,2.0,continue,,1675.8999999992664,1666.7000000000116,1675.8999999992664,1675.8999999992664,1666.7000000000116,1675.8999999992664,1.0,0.0,0.0,,Click To Continue,Next button,7.0,object-60,temp_dist_trial,20.0,s_sh_24_1,student_shared,desk organizer,4.0,competing,paired,s_sh_24_1.jpg,Student,,,sub-37
Desktop or Laptop,Windows 10,Chrome 135.0.0.0,2560x1440,1920x1080,Temporal Distance Task,cb_04,68.0,temp_dist_trial,dist_items,qkpkxw,2.0,response,14,666.7000000000116,1666.7000000000116,1679.7999999977765,666.7000000000116,1666.7000000000116,1679.7999999977765,1.0,1013.0999999977647,0.0,,Slider,Slider,4.0,object-56,temp_dist_trial,20.0,s_sh_24_1,student_shared,desk organizer,4.0,competing,paired,s_sh_24_1.jpg,Student,,,sub-37
Desktop or Laptop,Windows 10,Chrome 135.0.0.0,2560x1440,1920x1080,Temporal Distance Task,cb_04,69.0,temp_dist_trial,num_items,zn7si1,1.0,response,1_ITEM,1093.0999999977648,1083.2999999999884,1093.0999999977648,1093.0999999977648,1083.2999999999884,1093.0999999977648,1.0,0.0,0.0,,Click Response,1_count,3.0,object-46,temp_dist_trial,21.0,s_sh_08_1,student_shared,post-its,4.0,competing,single,s_sh_08_1.jpg,Student,,,sub-37
Desktop or Laptop,Windows 10,Chrome 135.0.0.0,2560x1440,1920x1080,Temporal Distance Task,cb_04,70.0,temp_dist_trial,num_items,zn7si1,1.0,response,2_ITEM,1531.6999999977704,1516.6000000000058,1531.6999999977704,1531.6999999977704,1516.6000000000058,1531.6999999977704,1.0,0.0,0.0,,Click Response,2_count,5.0,object-49,temp_dist_trial,22.0,s_a_11_1,student_art,clapperboard,4.0,unique,paired,s_a_11_1.jpg,Student,,,sub-37
Desktop or Laptop,Windows 10,Chrome 135.0.0.0,2560x1440,1920x1080,Temporal Distance Task,cb_04,70.0,temp_dist_trial,dist_items,qkpkxw,2.0,info,,3.699999999254942,0.0,3.699999999254942,3.699999999254942,0.0,3.699999999254942,1.0,0.0,0.0,,Slider,Slider,4.0,object-56,temp_dist_trial,22.0,s_a_11_1,student_art,clapperboard,4.0,unique,paired,s_a_11_1.jpg,Student,,,sub-37
Desktop or Laptop,Windows 10,Chrome 135.0.0.0,2560x1440,1920x1080,Temporal Distance Task,cb_04,70.0,temp_dist_trial,dist_items,qkpkxw,2.0,continue,,2032.5999999977648,2016.7000000000119,2032.5999999977648,2032.5999999977648,2016.7000000000119,2032.5999999977648,1.0,0.0,0.0,,Click To Continue,Next button,7.0,object-60,temp_dist_trial,22.0,s_a_11_1,student_art,clapperboard,4.0,unique,paired,s_a_11_1.jpg,Student,,,sub-37
Desktop or Laptop,Windows 10,Chrome 135.0.0.0,2560x1440,1920x1080,Temporal Distance Task,cb_04,70.0,temp_dist_trial,dist_items,qkpkxw,2.0,response,13,633.2999999999884,2016.7000000000119,2032.79999999702,633.2999999999884,2016.7000000000119,2032.79999999702,1.0,1399.4999999970316,0.0,,Slider,Slider,4.0,object-56,temp_dist_trial,22.0,s_a_11_1,student_art,clapperboard,4.0,unique,paired,s_a_11_1.jpg,Student,,,sub-37
Desktop or Laptop,Windows 10,Chrome 135.0.0.0,2560x1440,1920x1080,Temporal Distance Task,cb_04,71.0,temp_dist_trial,num_items,zn7si1,1.0,response,1_ITEM,1816.9999999992435,1816.5,1816.9999999992435,1816.9999999992435,1816.5,1816.9999999992435,1.0,0.0,0.0,,Click Response,1_count,3.0,object-46,temp_dist_trial,23.0,s_a_20_1,student_art,pin cushion,4.0,unique,paired,s_a_20_1.jpg,Student,,,sub-37
Desktop or Laptop,Windows 10,Chrome 135.0.0.0,2560x1440,1920x1080,Temporal Distance Task,cb_04,72.0,temp_dist_trial,num_items,zn7si1,1.0,response,1_ITEM,1500.7000000000116,1500.0,1500.7000000000116,1500.7000000000116,1500.0,1500.7000000000116,1.0,0.0,0.0,,Click Response,1_count,3.0,object-46,temp_dist_trial,24.0,s_sh_04_1,student_shared,laptop stand,4.0,competing,single,s_sh_04_1.jpg,Student,,,sub-37
Desktop or Laptop,Windows 10,Chrome 135.0.0.0,2560x1440,1920x1080,Temporal Distance Task,cb_04,73.0,temp_dist_trial,num_items,zn7si1,1.0,response,2_ITEM,920.9999999985156,916.6000000000058,920.9999999985156,920.9999999985156,916.6000000000058,920.9999999985156,1.0,0.0,0.0,,Click Response,2_count,5.0,object-49,temp_dist_trial,25.0,s_a_03_1,student_art,palette,4.0,unique,paired,s_a_03_1.jpg,Student,,,sub-37
Desktop or Laptop,Windows 10,Chrome 135.0.0.0,2560x1440,1920x1080,Temporal Distance Task,cb_04,73.0,temp_dist_trial,dist_items,qkpkxw,2.0,info,,3.6999999970139466,0.0,3.6999999970139466,3.6999999970139466,0.0,3.6999999970139466,1.0,0.0,0.0,,Slider,Slider,4.0,object-56,temp_dist_trial,25.0,s_a_03_1,student_art,palette,4.0,unique,paired,s_a_03_1.jpg,Student,,,sub-37
Desktop or Laptop,Windows 10,Chrome 135.0.0.0,2560x1440,1920x1080,Temporal Distance Task,cb_04,73.0,temp_dist_trial,dist_items,qkpkxw,2.0,continue,,1588.3999999999942,1583.1999999999825,1588.3999999999942,1588.3999999999942,1583.1999999999825,1588.3999999999942,1.0,0.0,0.0,,Click To Continue,Next button,7.0,object-60,temp_dist_trial,25.0,s_a_03_1,student_art,palette,4.0,unique,paired,s_a_03_1.jpg,Student,,,sub-37
Desktop or Laptop,Windows 10,Chrome 135.0.0.0,2560x1440,1920x1080,Temporal Distance Task,cb_04,73.0,temp_dist_trial,dist_items,qkpkxw,2.0,response,12,566.6000000000057,1583.1999999999825,1588.5999999992493,566.6000000000057,1583.1999999999825,1588.5999999992493,1.0,1021.9999999992433,0.0,,Slider,Slider,4.0,object-56,temp_dist_trial,25.0,s_a_03_1,student_art,palette,4.0,unique,paired,s_a_03_1.jpg,Student,,,sub-37
Desktop or Laptop,Windows 10,Chrome 135.0.0.0,2560x1440,1920x1080,Temporal Distance Task,cb_04,74.0,temp_dist_trial,num_items,zn7si1,1.0,response,1_ITEM,1629.7000000000116,1616.8000000000175,1629.7000000000116,1629.7000000000116,1616.8000000000175,1629.7000000000116,1.0,0.0,0.0,,Click Response,1_count,3.0,object-46,temp_dist_trial,26.0,s_s_02_1,student_stem,flask,4.0,unique,single,s_s_02_1.jpg,Student,,,sub-37
Desktop or Laptop,Windows 10,Chrome 135.0.0.0,2560x1440,1920x1080,Temporal Distance Task,cb_04,75.0,temp_dist_trial,num_items,zn7si1,1.0,response,1_ITEM,982.1999999970141,966.6000000000058,982.1999999970141,982.1999999970141,966.6000000000058,982.1999999970141,1.0,0.0,0.0,,Click Response,1_count,3.0,object-46,temp_dist_trial,27.0,s_a_17_1,student_art,microphone,4.0,unique,single,s_a_17_1.jpg,Student,,,sub-37
Desktop or Laptop,Windows 10,Chrome 135.0.0.0,2560x1440,1920x1080,Temporal Distance Task,cb_04,76.0,temp_dist_trial,num_items,zn7si1,1.0,response,1_ITEM,1757.7999999999884,1750.0,1757.7999999999884,1757.7999999999884,1750.0,1757.7999999999884,1.0,0.0,0.0,,Click Response,1_count,3.0,object-46,temp_dist_trial,28.0,s_sh_21_1,student_shared,file holder,4.0,competing,paired,s_sh_21_1.jpg,Student,,,sub-37
Desktop or Laptop,Windows 10,Chrome 135.0.0.0,2560x1440,1920x1080,Temporal Distance Task,cb_04,77.0,temp_dist_trial,num_items,zn7si1,1.0,response,2_ITEM,794.599999997008,783.3999999999942,794.599999997008,794.599999997008,783.3999999999942,794.599999997008,1.0,0.0,0.0,,Click Response,2_count,5.0,object-49,temp_dist_trial,29.0,s_sh_05_1,student_shared,laptop,4.0,competing,paired,s_sh_05_1.jpg,Student,,,sub-37
Desktop or Laptop,Windows 10,Chrome 135.0.0.0,2560x1440,1920x1080,Temporal Distance Task,cb_04,77.0,temp_dist_trial,dist_items,qkpkxw,2.0,info,,3.2999999985040627,0.0,3.2999999985040627,3.2999999985040627,0.0,3.2999999985040627,1.0,0.0,0.0,,Slider,Slider,4.0,object-56,temp_dist_trial,29.0,s_sh_05_1,student_shared,laptop,4.0,competing,paired,s_sh_05_1.jpg,Student,,,sub-37
Desktop or Laptop,Windows 10,Chrome 135.0.0.0,2560x1440,1920x1080,Temporal Distance Task,cb_04,77.0,temp_dist_trial,dist_items,qkpkxw,2.0,continue,,1939.8999999999944,1933.2999999999884,1939.8999999999944,1939.8999999999944,1933.2999999999884,1939.8999999999944,1.0,0.0,0.0,,Click To Continue,Next button,7.0,object-60,temp_dist_trial,29.0,s_sh_05_1,student_shared,laptop,4.0,competing,paired,s_sh_05_1.jpg,Student,,,sub-37
Desktop or Laptop,Windows 10,Chrome 135.0.0.0,2560x1440,1920x1080,Temporal Distance Task,cb_04,77.0,temp_dist_trial,dist_items,qkpkxw,2.0,response,20,1249.8999999999942,1933.2999999999884,1940.199999997014,1249.8999999999942,1933.2999999999884,1940.199999997014,1.0,690.2999999970198,0.0,,Slider,Slider,4.0,object-56,temp_dist_trial,29.0,s_sh_05_1,student_shared,laptop,4.0,competing,paired,s_sh_05_1.jpg,Student,,,sub-37
Desktop or Laptop,Windows 10,Chrome 135.0.0.0,2560x1440,1920x1080,Temporal Distance Task,cb_04,78.0,temp_dist_trial,num_items,zn7si1,1.0,response,1_ITEM,1983.4000000000235,1966.7000000000119,1983.4000000000235,1983.4000000000235,1966.7000000000119,1983.4000000000235,1.0,0.0,0.0,,Click Response,1_count,3.0,object-46,temp_dist_trial,30.0,s_sh_01_1,student_shared,notebook,4.0,competing,single,s_sh_01_1.jpg,Student,,,sub-37
Desktop or Laptop,Windows 10,Chrome 135.0.0.0,2560x1440,1920x1080,Temporal Distance Task,cb_04,79.0,temp_dist_trial,num_items,zn7si1,1.0,response,1_ITEM,1242.3999999985099,1233.3999999999942,1242.3999999985099,1242.3999999985099,1233.3999999999942,1242.3999999985099,1.0,0.0,0.0,,Click Response,1_count,3.0,object-46,temp_dist_trial,31.0,s_s_17_1,student_stem,ring stand,4.0,unique,paired,s_s_17_1.jpg,Student,,,sub-37
Desktop or Laptop,Windows 10,Chrome 135.0.0.0,2560x1440,1920x1080,Temporal Distance Task,cb_04,80.0,temp_dist_trial,num_items,zn7si1,1.0,response,1_ITEM,1647.3999999992664,1633.4000000000233,1647.3999999992664,1647.3999999992664,1633.4000000000233,1647.3999999992664,1.0,0.0,0.0,,Click Response,1_count,3.0,object-46,temp_dist_trial,32.0,s_s_04_1,student_stem,bunsen burner,4.0,unique,paired,s_s_04_1.jpg,Student,,,sub-37
Desktop or Laptop,Windows 10,Chrome 135.0.0.0,2560x1440,1920x1080,Temporal Distance Task,cb_04,81.0,temp_dist_trial,num_items,zn7si1,1.0,response,1_ITEM,1802.7999999977765,1800.0,1802.7999999977765,1802.7999999977765,1800.0,1802.7999999977765,1.0,0.0,0.0,,Click Response,1_count,3.0,object-46,temp_dist_trial,33.0,s_sh_13_1,student_shared,index cards,4.0,competing,paired,s_sh_13_1.jpg,Student,,,sub-37
Desktop or Laptop,Windows 10,Chrome 135.0.0.0,2560x1440,1920x1080,Temporal Distance Task,cb_04,82.0,temp_dist_trial,num_items,zn7si1,1.0,response,2_ITEM,2086.2999999977765,2083.3000000000175,2086.2999999977765,2086.2999999977765,2083.3000000000175,2086.2999999977765,1.0,0.0,0.0,,Click Response,2_count,5.0,object-49,temp_dist_trial,34.0,s_a_04_1,student_art,easel,4.0,unique,paired,s_a_04_1.jpg,Student,,,sub-37
Desktop or Laptop,Windows 10,Chrome 135.0.0.0,2560x1440,1920x1080,Temporal Distance Task,cb_04,82.0,temp_dist_trial,dist_items,qkpkxw,2.0,info,,3.0999999970081262,0.0,3.0999999970081262,3.0999999970081262,0.0,3.0999999970081262,1.0,0.0,0.0,,Slider,Slider,4.0,object-56,temp_dist_trial,34.0,s_a_04_1,student_art,easel,4.0,unique,paired,s_a_04_1.jpg,Student,,,sub-37
Desktop or Laptop,Windows 10,Chrome 135.0.0.0,2560x1440,1920x1080,Temporal Distance Task,cb_04,82.0,temp_dist_trial,dist_items,qkpkxw,2.0,continue,,2361.2999999999884,2349.8999999999937,2361.2999999999884,2361.2999999999884,2349.8999999999937,2361.2999999999884,1.0,0.0,0.0,,Click To Continue,Next button,7.0,object-60,temp_dist_trial,34.0,s_a_04_1,student_art,easel,4.0,unique,paired,s_a_04_1.jpg,Student,,,sub-37
Desktop or Laptop,Windows 10,Chrome 135.0.0.0,2560x1440,1920x1080,Temporal Distance Task,cb_04,82.0,temp_dist_trial,dist_items,qkpkxw,2.0,response,31,1566.5999999999767,2349.8999999999937,2363.599999997008,1566.5999999999767,2349.8999999999937,2363.599999997008,1.0,796.9999999970314,0.0,,Slider,Slider,4.0,object-56,temp_dist_trial,34.0,s_a_04_1,student_art,easel,4.0,unique,paired,s_a_04_1.jpg,Student,,,sub-37
Desktop or Laptop,Windows 10,Chrome 135.0.0.0,2560x1440,1920x1080,Temporal Distance Task,cb_04,83.0,temp_dist_trial,num_items,zn7si1,1.0,response,1_ITEM,871.4999999977589,866.6999999999823,871.4999999977589,871.4999999977589,866.6999999999823,871.4999999977589,1.0,0.0,0.0,,Click Response,1_count,3.0,object-46,temp_dist_trial,35.0,s_s_18_1,student_stem,brain model,4.0,unique,paired,s_s_18_1.jpg,Student,,,sub-37
Desktop or Laptop,Windows 10,Chrome 135.0.0.0,2560x1440,1920x1080,Temporal Distance Task,cb_04,84.0,temp_dist_trial,num_items,zn7si1,1.0,response,1_ITEM,1403.1000000000058,1399.8999999999942,1403.1000000000058,1403.1000000000058,1399.8999999999942,1403.1000000000058,1.0,0.0,0.0,,Click Response,1_count,3.0,object-46,temp_dist_trial,36.0,s_sh_09_1,student_shared,paper clips,4.0,competing,single,s_sh_09_1.jpg,Student,,,sub-37
Desktop or Laptop,Windows 10,Chrome 135.0.0.0,2560x1440,1920x1080,Temporal Distance Task,cb_04,85.0,temp_dist_trial,num_items,zn7si1,1.0,response,2_ITEM,1172.9999999985155,1166.6000000000058,1172.9999999985155,1172.9999999985155,1166.6000000000058,1172.9999999985155,1.0,0.0,0.0,,Click Response,2_count,5.0,object-49,temp_dist_trial,37.0,s_s_05_1,student_stem,lab goggles,4.0,unique,paired,s_s_05_1.jpg,Student,,,sub-37
Desktop or Laptop,Windows 10,Chrome 135.0.0.0,2560x1440,1920x1080,Temporal Distance Task,cb_04,85.0,temp_dist_trial,dist_items,qkpkxw,2.0,info,,2.9999999985157046,0.0,2.9999999985157046,2.9999999985157046,0.0,2.9999999985157046,1.0,0.0,0.0,,Slider,Slider,4.0,object-56,temp_dist_trial,37.0,s_s_05_1,student_stem,lab goggles,4.0,unique,paired,s_s_05_1.jpg,Student,,,sub-37
Desktop or Laptop,Windows 10,Chrome 135.0.0.0,2560x1440,1920x1080,Temporal Distance Task,cb_04,85.0,temp_dist_trial,dist_items,qkpkxw,2.0,continue,,1278.8999999970254,1266.7000000000114,1278.8999999970254,1278.8999999970254,1266.7000000000114,1278.8999999970254,1.0,0.0,0.0,,Click To Continue,Next button,7.0,object-60,temp_dist_trial,37.0,s_s_05_1,student_stem,lab goggles,4.0,unique,paired,s_s_05_1.jpg,Student,,,sub-37
Desktop or Laptop,Windows 10,Chrome 135.0.0.0,2560x1440,1920x1080,Temporal Distance Task,cb_04,85.0,temp_dist_trial,dist_items,qkpkxw,2.0,response,16,483.30000000001746,1266.7000000000114,1279.2999999992608,483.30000000001746,1266.7000000000114,1279.2999999992608,1.0,795.9999999992433,0.0,,Slider,Slider,4.0,object-56,temp_dist_trial,37.0,s_s_05_1,student_stem,lab goggles,4.0,unique,paired,s_s_05_1.jpg,Student,,,sub-37
Desktop or Laptop,Windows 10,Chrome 135.0.0.0,2560x1440,1920x1080,Temporal Distance Task,cb_04,86.0,temp_dist_trial,num_items,zn7si1,1.0,response,1_ITEM,958.3999999999942,950.0,958.3999999999942,958.3999999999942,950.0,958.3999999999942,1.0,0.0,0.0,,Click Response,1_count,3.0,object-46,temp_dist_trial,38.0,s_a_09_1,student_art,picture frame,4.0,unique,paired,s_a_09_1.jpg,Student,,,sub-37
Desktop or Laptop,Windows 10,Chrome 135.0.0.0,2560x1440,1920x1080,Temporal Distance Task,cb_04,87.0,temp_dist_trial,num_items,zn7si1,1.0,response,2_ITEM,952.4999999977588,950.0,952.4999999977588,952.4999999977588,950.0,952.4999999977588,1.0,0.0,0.0,,Click Response,2_count,5.0,object-49,temp_dist_trial,39.0,s_sh_23_1,student_shared,ballpoint pen,4.0,competing,paired,s_sh_23_1.jpg,Student,,,sub-37
Desktop or Laptop,Windows 10,Chrome 135.0.0.0,2560x1440,1920x1080,Temporal Distance Task,cb_04,87.0,temp_dist_trial,dist_items,qkpkxw,2.0,info,,3.9999999977590046,0.0,3.9999999977590046,3.9999999977590046,0.0,3.9999999977590046,1.0,0.0,0.0,,Slider,Slider,4.0,object-56,temp_dist_trial,39.0,s_sh_23_1,student_shared,ballpoint pen,4.0,competing,paired,s_sh_23_1.jpg,Student,,,sub-37
Desktop or Laptop,Windows 10,Chrome 135.0.0.0,2560x1440,1920x1080,Temporal Distance Task,cb_04,87.0,temp_dist_trial,dist_items,qkpkxw,2.0,continue,,2493.099999999249,2483.3999999999937,2493.099999999249,2493.099999999249,2483.3999999999937,2493.099999999249,1.0,0.0,0.0,,Click To Continue,Next button,7.0,object-60,temp_dist_trial,39.0,s_sh_23_1,student_shared,ballpoint pen,4.0,competing,paired,s_sh_23_1.jpg,Student,,,sub-37
Desktop or Laptop,Windows 10,Chrome 135.0.0.0,2560x1440,1920x1080,Temporal Distance Task,cb_04,87.0,temp_dist_trial,dist_items,qkpkxw,2.0,response,23,1650.1000000000058,2483.3999999999937,2496.799999998504,1650.1000000000058,2483.3999999999937,2496.799999998504,1.0,846.6999999984982,0.0,,Slider,Slider,4.0,object-56,temp_dist_trial,39.0,s_sh_23_1,student_shared,ballpoint pen,4.0,competing,paired,s_sh_23_1.jpg,Student,,,sub-37
Desktop or Laptop,Windows 10,Chrome 135.0.0.0,2560x1440,1920x1080,Temporal Distance Task,cb_04,88.0,temp_dist_trial,num_items,zn7si1,1.0,response,1_ITEM,883.4000000000232,866.7000000000116,883.4000000000232,883.4000000000232,866.7000000000116,883.4000000000232,1.0,0.0,0.0,,Click Response,1_count,3.0,object-46,temp_dist_trial,40.0,s_sh_17_1,student_shared,wireless mouse,4.0,competing,single,s_sh_17_1.jpg,Student,,,sub-37
Desktop or Laptop,Windows 10,Chrome 135.0.0.0,2560x1440,1920x1080,Temporal Distance Task,cb_04,89.0,temp_dist_trial,num_items,zn7si1,1.0,response,2_ITEM,893.1999999970142,883.3999999999942,893.1999999970142,893.1999999970142,883.3999999999942,893.1999999970142,1.0,0.0,0.0,,Click Response,2_count,5.0,object-49,temp_dist_trial,41.0,s_sh_11_1,student_shared,pencil case,4.0,competing,paired,s_sh_11_1.jpg,Student,,,sub-37
Desktop or Laptop,Windows 10,Chrome 135.0.0.0,2560x1440,1920x1080,Temporal Distance Task,cb_04,89.0,temp_dist_trial,dist_items,qkpkxw,2.0,info,,3.5,0.0,3.5,3.5,0.0,3.5,1.0,0.0,0.0,,Slider,Slider,4.0,object-56,temp_dist_trial,41.0,s_sh_11_1,student_shared,pencil case,4.0,competing,paired,s_sh_11_1.jpg,Student,,,sub-37
Desktop or Laptop,Windows 10,Chrome 135.0.0.0,2560x1440,1920x1080,Temporal Distance Task,cb_04,89.0,temp_dist_trial,dist_items,qkpkxw,2.0,continue,,1992.0999999977648,1983.2999999999884,1992.0999999977648,1992.0999999977648,1983.2999999999884,1992.0999999977648,1.0,0.0,0.0,,Click To Continue,Next button,7.0,object-60,temp_dist_trial,41.0,s_sh_11_1,student_shared,pencil case,4.0,competing,paired,s_sh_11_1.jpg,Student,,,sub-37
Desktop or Laptop,Windows 10,Chrome 135.0.0.0,2560x1440,1920x1080,Temporal Distance Task,cb_04,89.0,temp_dist_trial,dist_items,qkpkxw,2.0,response,21,750.0,1983.2999999999884,1992.3999999985092,750.0,1983.2999999999884,1992.3999999985092,1.0,1242.3999999985099,0.0,,Slider,Slider,4.0,object-56,temp_dist_trial,41.0,s_sh_11_1,student_shared,pencil case,4.0,competing,paired,s_sh_11_1.jpg,Student,,,sub-37
Desktop or Laptop,Windows 10,Chrome 135.0.0.0,2560x1440,1920x1080,Temporal Distance Task,cb_04,90.0,temp_dist_trial,num_items,zn7si1,1.0,response,2_ITEM,1868.7000000000119,1866.6000000000354,1868.7000000000119,1868.7000000000119,1866.6000000000354,1868.7000000000119,1.0,0.0,0.0,,Click Response,2_count,5.0,object-49,temp_dist_trial,42.0,s_sh_14_1,student_shared,printer,4.0,competing,paired,s_sh_14_1.jpg,Student,,,sub-37
Desktop or Laptop,Windows 10,Chrome 135.0.0.0,2560x1440,1920x1080,Temporal Distance Task,cb_04,90.0,temp_dist_trial,dist_items,qkpkxw,2.0,info,,2.9999999984866013,0.0,2.9999999984866013,2.9999999984866013,0.0,2.9999999984866013,1.0,0.0,0.0,,Slider,Slider,4.0,object-56,temp_dist_trial,42.0,s_sh_14_1,student_shared,printer,4.0,competing,paired,s_sh_14_1.jpg,Student,,,sub-37
Desktop or Laptop,Windows 10,Chrome 135.0.0.0,2560x1440,1920x1080,Temporal Distance Task,cb_04,90.0,temp_dist_trial,dist_items,qkpkxw,2.0,continue,,1383.3999999999066,1366.6999999999534,1383.3999999999066,1383.3999999999066,1366.6999999999534,1383.3999999999066,1.0,0.0,0.0,,Click To Continue,Next button,7.0,object-60,temp_dist_trial,42.0,s_sh_14_1,student_shared,printer,4.0,competing,paired,s_sh_14_1.jpg,Student,,,sub-37
Desktop or Laptop,Windows 10,Chrome 135.0.0.0,2560x1440,1920x1080,Temporal Distance Task,cb_04,90.0,temp_dist_trial,dist_items,qkpkxw,2.0,response,75,550.0999999999766,1366.6999999999534,1383.3999999999066,550.0999999999766,1366.6999999999534,1383.3999999999066,1.0,833.2999999999303,0.0,,Slider,Slider,4.0,object-56,temp_dist_trial,42.0,s_sh_14_1,student_shared,printer,4.0,competing,paired,s_sh_14_1.jpg,Student,,,sub-37
Desktop or Laptop,Windows 10,Chrome 135.0.0.0,2560x1440,1920x1080,Temporal Distance Task,cb_04,91.0,temp_dist_trial,num_items,zn7si1,1.0,response,2_ITEM,2334.0999999992778,2333.4000000000233,2334.0999999992778,2334.0999999992778,2333.4000000000233,2334.0999999992778,1.0,0.0,0.0,,Click Response,2_count,5.0,object-49,temp_dist_trial,43.0,s_sh_12_1,student_shared,binder,4.0,competing,paired,s_sh_12_1.jpg,Student,,,sub-37
Desktop or Laptop,Windows 10,Chrome 135.0.0.0,2560x1440,1920x1080,Temporal Distance Task,cb_04,91.0,temp_dist_trial,dist_items,qkpkxw,2.0,info,,3.5999999999767165,0.0,3.5999999999767165,3.5999999999767165,0.0,3.5999999999767165,1.0,0.0,0.0,,Slider,Slider,4.0,object-56,temp_dist_trial,43.0,s_sh_12_1,student_shared,binder,4.0,competing,paired,s_sh_12_1.jpg,Student,,,sub-37
Desktop or Laptop,Windows 10,Chrome 135.0.0.0,2560x1440,1920x1080,Temporal Distance Task,cb_04,91.0,temp_dist_trial,dist_items,qkpkxw,2.0,continue,,1953.2999999992319,1950.0999999999767,1953.2999999992319,1953.2999999992319,1950.0999999999767,1953.2999999992319,1.0,0.0,0.0,,Click To Continue,Next button,7.0,object-60,temp_dist_trial,43.0,s_sh_12_1,student_shared,binder,4.0,competing,paired,s_sh_12_1.jpg,Student,,,sub-37
Desktop or Laptop,Windows 10,Chrome 135.0.0.0,2560x1440,1920x1080,Temporal Distance Task,cb_04,91.0,temp_dist_trial,dist_items,qkpkxw,2.0,response,45,1266.7999999999886,1950.0999999999767,1953.4999999984866,1266.7999999999886,1950.0999999999767,1953.4999999984866,1.0,686.6999999984982,0.0,,Slider,Slider,4.0,object-56,temp_dist_trial,43.0,s_sh_12_1,student_shared,binder,4.0,competing,paired,s_sh_12_1.jpg,Student,,,sub-37
Desktop or Laptop,Windows 10,Chrome 135.0.0.0,2560x1440,1920x1080,Temporal Distance Task,cb_04,92.0,temp_dist_trial,num_items,zn7si1,1.0,response,1_ITEM,1033.1999999999532,1016.5999999999768,1033.1999999999532,1033.1999999999532,1016.5999999999768,1033.1999999999532,1.0,0.0,0.0,,Click Response,1_count,3.0,object-46,temp_dist_trial,44.0,s_sh_16_1,student_shared,stapler,4.0,competing,paired,s_sh_16_1.jpg,Student,,,sub-37
Desktop or Laptop,Windows 10,Chrome 135.0.0.0,2560x1440,1920x1080,Temporal Distance Task,cb_04,93.0,temp_dist_trial,num_items,zn7si1,1.0,response,1_ITEM,797.7999999985333,783.4000000000232,797.7999999985333,797.7999999985333,783.4000000000232,797.7999999985333,1.0,0.0,0.0,,Click Response,1_count,3.0,object-46,temp_dist_trial,45.0,s_a_19_1,student_art,ballet shoes,4.0,unique,single,s_a_19_1.jpg,Student,,,sub-37
Desktop or Laptop,Windows 10,Chrome 135.0.0.0,2560x1440,1920x1080,Temporal Distance Task,cb_04,94.0,temp_dist_trial,num_items,zn7si1,1.0,response,1_ITEM,1036.1999999992552,1033.4000000000233,1036.1999999992552,1036.1999999992552,1033.4000000000233,1036.1999999992552,1.0,0.0,0.0,,Click Response,1_count,3.0,object-46,temp_dist_trial,46.0,s_s_13_1,student_stem,telescope,4.0,unique,paired,s_s_13_1.jpg,Student,,,sub-37
Desktop or Laptop,Windows 10,Chrome 135.0.0.0,2560x1440,1920x1080,Temporal Distance Task,cb_04,95.0,temp_dist_trial,num_items,zn7si1,1.0,response,1_ITEM,886.1999999977415,883.2999999999884,886.1999999977415,886.1999999977415,883.2999999999884,886.1999999977415,1.0,0.0,0.0,,Click Response,1_count,3.0,object-46,temp_dist_trial,47.0,s_sh_20_1,student_shared,tape,4.0,competing,single,s_sh_20_1.jpg,Student,,,sub-37
Desktop or Laptop,Windows 10,Chrome 135.0.0.0,2560x1440,1920x1080,Temporal Distance Task,cb_04,96.0,temp_dist_trial,num_items,zn7si1,1.0,response,1_ITEM,1088.0999999970081,1083.399999999965,1088.0999999970081,1088.0999999970081,1083.399999999965,1088.0999999970081,1.0,0.0,0.0,,Click Response,1_count,3.0,object-46,temp_dist_trial,48.0,s_sh_18_1,student_shared,wall calendar,4.0,competing,single,s_sh_18_1.jpg,Student,,,sub-37
Desktop or Laptop,Windows 10,Chrome 135.0.0.0,2560x1440,1920x1080,Temporal Distance Task,$${counterbalance_group},,,,,,info,END,,,271633.0,,,,0.0,,,,,,,,,,,,,,,,,,,,sub-37
