Participant Device,Participant OS,Participant Browser,Participant Monitor Size,Participant Viewport Size,Task Name,Current Spreadsheet,Trial Number,Display,Screen,Screen ID,Screen Counter,Response Type,Response,Onset Time,Clock Time,Reaction Time,Absolute Onset Time,Absolute Clock Time,Absolute Reaction Time,Correct,Response Duration,Proportion,Tag,Component Name,Object Name,Object Number,Object ID,Spreadsheet: display,Spreadsheet: trial,Spreadsheet: stimulus_id,Spreadsheet: expected_goal,Spreadsheet: stimulus_name,Spreadsheet: c_group,Spreadsheet: condition,Spreadsheet: paired_status,Spreadsheet: stimulus_path,Spreadsheet: block_type,Manipulation: Spreadsheet,Store: enc_test_acc,sub_label
Desktop or Laptop,Linux x86_64,Firefox 141.0,1440x810,1440x810,Temporal Distance Task,$${counterbalance_group},,,,,,info,BEGIN,,,,,,,0.0,,,,,,,,,,,,,,,,,,,,sub-15
Desktop or Laptop,Linux x86_64,Firefox 141.0,1440x810,1440x810,Temporal Distance Task,cb_07,1.0,temp_instructions,intro_screen,3tnme7,1.0,continue,,7918.2,7910.28,7918.2,7918.2,7910.28,7918.2,1.0,0.0,0.0,,Click To Continue,Continue Button,4.0,object-29,temp_instructions,,,Student,,,,,,,,,sub-15
Desktop or Laptop,Linux x86_64,Firefox 141.0,1440x810,1440x810,Temporal Distance Task,cb_07,1.0,temp_instructions,intro_screen_2,52v7ur,2.0,continue,,13097.92,13089.58,13097.92,13097.92,13089.58,13097.92,1.0,0.0,0.0,,Click To Continue,Continue Button,4.0,object-39,temp_instructions,,,Student,,,,,,,,,sub-15
Desktop or Laptop,Linux x86_64,Firefox 141.0,1440x810,1440x810,Temporal Distance Task,cb_07,1.0,temp_instructions,intro_screen_3,i7lvwx,3.0,continue,,14448.34,14437.460000000005,14448.34,14448.34,14437.460000000005,14448.34,1.0,0.0,0.0,,Click To Continue,Continue Button,4.0,object-67,temp_instructions,,,Student,,,,,,,,,sub-15
Desktop or Laptop,Linux x86_64,Firefox 141.0,1440x810,1440x810,Temporal Distance Task,cb_07,1.0,temp_instructions,test_q1,5ieqx1,4.0,response,choice_3,9147.879999999996,9143.32,9147.879999999996,9147.879999999996,9143.32,9147.879999999996,1.0,0.0,0.0,,Click Response,choice_3,5.0,object-345,temp_instructions,,,Student,,,,,,,,,sub-15
Desktop or Laptop,Linux x86_64,Firefox 141.0,1440x810,1440x810,Temporal Distance Task,cb_07,1.0,temp_instructions,score_corr,7ilvjr,5.0,continue,,1262.5599999999977,1248.5,1262.5599999999977,1262.5599999999977,1248.5,1262.5599999999977,1.0,0.0,0.0,,Click To Continue,Continue Button,3.0,object-23,temp_instructions,,,Student,,,,,,,,,sub-15
Desktop or Laptop,Linux x86_64,Firefox 141.0,1440x810,1440x810,Temporal Distance Task,cb_07,1.0,temp_eventStart,Screen 1,dgtyxe,1.0,continue,,1821.0599999999977,1815.6399999999994,1821.0599999999977,1821.0599999999977,1815.6399999999994,1821.0599999999977,1.0,0.0,0.0,,Click To Continue,Next Button,3.0,object-43,temp_eventStart,,,Student,,,,,,,,,sub-15
Desktop or Laptop,Linux x86_64,Firefox 141.0,1440x810,1440x810,Temporal Distance Task,cb_07,1.0,temp_dist_trial,num_items,zn7si1,1.0,response,2_ITEM,1126.4199999999985,1115.0400000000009,1126.4199999999985,1126.4199999999985,1115.0400000000009,1126.4199999999985,1.0,0.0,0.0,,Click Response,2_count,5.0,object-49,temp_dist_trial,1.0,s_sh_13_1,student_shared,index cards,7.0,competing,paired,s_sh_13_1.jpg,Student,,,sub-15
Desktop or Laptop,Linux x86_64,Firefox 141.0,1440x810,1440x810,Temporal Distance Task,cb_07,1.0,temp_dist_trial,dist_items,qkpkxw,2.0,info,,5.860000000000582,0.0,5.860000000000582,5.860000000000582,0.0,5.860000000000582,1.0,0.0,0.0,,Slider,Slider,4.0,object-56,temp_dist_trial,1.0,s_sh_13_1,student_shared,index cards,7.0,competing,paired,s_sh_13_1.jpg,Student,,,sub-15
Desktop or Laptop,Linux x86_64,Firefox 141.0,1440x810,1440x810,Temporal Distance Task,cb_07,1.0,temp_dist_trial,dist_items,qkpkxw,2.0,continue,,3547.0,3547.0,3547.0,3547.0,3547.0,3547.0,1.0,0.0,0.0,,Click To Continue,Next button,7.0,object-60,temp_dist_trial,1.0,s_sh_13_1,student_shared,index cards,7.0,competing,paired,s_sh_13_1.jpg,Student,,,sub-15
Desktop or Laptop,Linux x86_64,Firefox 141.0,1440x810,1440x810,Temporal Distance Task,cb_07,1.0,temp_dist_trial,dist_items,qkpkxw,2.0,response,30,1165.3799999999976,3547.0,3548.860000000001,1165.3799999999976,3547.0,3548.860000000001,1.0,2383.480000000003,0.0,,Slider,Slider,4.0,object-56,temp_dist_trial,1.0,s_sh_13_1,student_shared,index cards,7.0,competing,paired,s_sh_13_1.jpg,Student,,,sub-15
Desktop or Laptop,Linux x86_64,Firefox 141.0,1440x810,1440x810,Temporal Distance Task,cb_07,2.0,temp_dist_trial,num_items,zn7si1,1.0,response,1_ITEM,1650.8600000000006,1648.3400000000033,1650.8600000000006,1650.8600000000006,1648.3400000000033,1650.8600000000006,1.0,0.0,0.0,,Click Response,1_count,3.0,object-46,temp_dist_trial,2.0,s_a_09_1,student_art,picture frame,7.0,unique,single,s_a_09_1.jpg,Student,,,sub-15
Desktop or Laptop,Linux x86_64,Firefox 141.0,1440x810,1440x810,Temporal Distance Task,cb_07,3.0,temp_dist_trial,num_items,zn7si1,1.0,response,2_ITEM,1498.1800000000005,1482.3000000000034,1498.1800000000005,1498.1800000000005,1482.3000000000034,1498.1800000000005,1.0,0.0,0.0,,Click Response,2_count,5.0,object-49,temp_dist_trial,3.0,s_sh_02_1,student_shared,eraser,7.0,competing,paired,s_sh_02_1.jpg,Student,,,sub-15
Desktop or Laptop,Linux x86_64,Firefox 141.0,1440x810,1440x810,Temporal Distance Task,cb_07,3.0,temp_dist_trial,dist_items,qkpkxw,2.0,info,,5.260000000002037,0.0,5.260000000002037,5.260000000002037,0.0,5.260000000002037,1.0,0.0,0.0,,Slider,Slider,4.0,object-56,temp_dist_trial,3.0,s_sh_02_1,student_shared,eraser,7.0,competing,paired,s_sh_02_1.jpg,Student,,,sub-15
Desktop or Laptop,Linux x86_64,Firefox 141.0,1440x810,1440x810,Temporal Distance Task,cb_07,3.0,temp_dist_trial,dist_items,qkpkxw,2.0,continue,,3804.260000000002,3797.64,3804.260000000002,3804.260000000002,3797.64,3804.260000000002,1.0,0.0,0.0,,Click To Continue,Next button,7.0,object-60,temp_dist_trial,3.0,s_sh_02_1,student_shared,eraser,7.0,competing,paired,s_sh_02_1.jpg,Student,,,sub-15
Desktop or Laptop,Linux x86_64,Firefox 141.0,1440x810,1440x810,Temporal Distance Task,cb_07,3.0,temp_dist_trial,dist_items,qkpkxw,2.0,response,32,1266.2200000000012,3797.64,3807.260000000002,1266.2200000000012,3797.64,3807.260000000002,1.0,2541.040000000001,0.0,,Slider,Slider,4.0,object-56,temp_dist_trial,3.0,s_sh_02_1,student_shared,eraser,7.0,competing,paired,s_sh_02_1.jpg,Student,,,sub-15
Desktop or Laptop,Linux x86_64,Firefox 141.0,1440x810,1440x810,Temporal Distance Task,cb_07,4.0,temp_dist_trial,num_items,zn7si1,1.0,response,2_ITEM,2047.2200000000007,2031.1200000000024,2047.2200000000007,2047.2200000000007,2031.1200000000024,2047.2200000000007,1.0,0.0,0.0,,Click Response,2_count,5.0,object-49,temp_dist_trial,4.0,s_sh_07_1,student_shared,ruler,7.0,competing,paired,s_sh_07_1.jpg,Student,,,sub-15
Desktop or Laptop,Linux x86_64,Firefox 141.0,1440x810,1440x810,Temporal Distance Task,cb_07,4.0,temp_dist_trial,dist_items,qkpkxw,2.0,info,,6.1600000000034925,0.0,6.1600000000034925,6.1600000000034925,0.0,6.1600000000034925,1.0,0.0,0.0,,Slider,Slider,4.0,object-56,temp_dist_trial,4.0,s_sh_07_1,student_shared,ruler,7.0,competing,paired,s_sh_07_1.jpg,Student,,,sub-15
Desktop or Laptop,Linux x86_64,Firefox 141.0,1440x810,1440x810,Temporal Distance Task,cb_07,4.0,temp_dist_trial,dist_items,qkpkxw,2.0,continue,,2492.1600000000035,2480.4600000000064,2492.1600000000035,2492.1600000000035,2480.4600000000064,2492.1600000000035,1.0,0.0,0.0,,Click To Continue,Next button,7.0,object-60,temp_dist_trial,4.0,s_sh_07_1,student_shared,ruler,7.0,competing,paired,s_sh_07_1.jpg,Student,,,sub-15
Desktop or Laptop,Linux x86_64,Firefox 141.0,1440x810,1440x810,Temporal Distance Task,cb_07,4.0,temp_dist_trial,dist_items,qkpkxw,2.0,response,59,981.820000000007,2480.4600000000064,2492.1600000000035,981.820000000007,2480.4600000000064,2492.1600000000035,1.0,1510.3399999999967,0.0,,Slider,Slider,4.0,object-56,temp_dist_trial,4.0,s_sh_07_1,student_shared,ruler,7.0,competing,paired,s_sh_07_1.jpg,Student,,,sub-15
Desktop or Laptop,Linux x86_64,Firefox 141.0,1440x810,1440x810,Temporal Distance Task,cb_07,5.0,temp_dist_trial,num_items,zn7si1,1.0,response,2_ITEM,1519.6999999999966,1515.5399999999936,1519.6999999999966,1519.6999999999966,1515.5399999999936,1519.6999999999966,1.0,0.0,0.0,,Click Response,2_count,5.0,object-49,temp_dist_trial,5.0,s_s_16_1,student_stem,toolbox,7.0,unique,paired,s_s_16_1.jpg,Student,,,sub-15
Desktop or Laptop,Linux x86_64,Firefox 141.0,1440x810,1440x810,Temporal Distance Task,cb_07,5.0,temp_dist_trial,dist_items,qkpkxw,2.0,info,,7.660000000003492,0.0,7.660000000003492,7.660000000003492,0.0,7.660000000003492,1.0,0.0,0.0,,Slider,Slider,4.0,object-56,temp_dist_trial,5.0,s_s_16_1,student_stem,toolbox,7.0,unique,paired,s_s_16_1.jpg,Student,,,sub-15
Desktop or Laptop,Linux x86_64,Firefox 141.0,1440x810,1440x810,Temporal Distance Task,cb_07,5.0,temp_dist_trial,dist_items,qkpkxw,2.0,continue,,2341.6600000000035,2330.9000000000087,2341.6600000000035,2341.6600000000035,2330.9000000000087,2341.6600000000035,1.0,0.0,0.0,,Click To Continue,Next button,7.0,object-60,temp_dist_trial,5.0,s_s_16_1,student_stem,toolbox,7.0,unique,paired,s_s_16_1.jpg,Student,,,sub-15
Desktop or Laptop,Linux x86_64,Firefox 141.0,1440x810,1440x810,Temporal Distance Task,cb_07,5.0,temp_dist_trial,dist_items,qkpkxw,2.0,response,26,599.540000000008,2330.9000000000087,2342.6600000000035,599.540000000008,2330.9000000000087,2342.6600000000035,1.0,1743.1199999999951,0.0,,Slider,Slider,4.0,object-56,temp_dist_trial,5.0,s_s_16_1,student_stem,toolbox,7.0,unique,paired,s_s_16_1.jpg,Student,,,sub-15
Desktop or Laptop,Linux x86_64,Firefox 141.0,1440x810,1440x810,Temporal Distance Task,cb_07,6.0,temp_dist_trial,num_items,zn7si1,1.0,response,2_ITEM,1424.7599999999948,1416.0599999999977,1424.7599999999948,1424.7599999999948,1416.0599999999977,1424.7599999999948,1.0,0.0,0.0,,Click Response,2_count,5.0,object-49,temp_dist_trial,6.0,s_a_18_1,student_art,tutu,7.0,unique,paired,s_a_18_1.jpg,Student,,,sub-15
Desktop or Laptop,Linux x86_64,Firefox 141.0,1440x810,1440x810,Temporal Distance Task,cb_07,6.0,temp_dist_trial,dist_items,qkpkxw,2.0,info,,5.279999999998836,0.0,5.279999999998836,5.279999999998836,0.0,5.279999999998836,1.0,0.0,0.0,,Slider,Slider,4.0,object-56,temp_dist_trial,6.0,s_a_18_1,student_art,tutu,7.0,unique,paired,s_a_18_1.jpg,Student,,,sub-15
Desktop or Laptop,Linux x86_64,Firefox 141.0,1440x810,1440x810,Temporal Distance Task,cb_07,6.0,temp_dist_trial,dist_items,qkpkxw,2.0,continue,,2500.2799999999993,2498.259999999995,2500.2799999999993,2500.2799999999993,2498.259999999995,2500.2799999999993,1.0,0.0,0.0,,Click To Continue,Next button,7.0,object-60,temp_dist_trial,6.0,s_a_18_1,student_art,tutu,7.0,unique,paired,s_a_18_1.jpg,Student,,,sub-15
Desktop or Laptop,Linux x86_64,Firefox 141.0,1440x810,1440x810,Temporal Distance Task,cb_07,6.0,temp_dist_trial,dist_items,qkpkxw,2.0,response,17,799.4400000000023,2498.259999999995,2500.2799999999993,799.4400000000023,2498.259999999995,2500.2799999999993,1.0,1700.8399999999967,0.0,,Slider,Slider,4.0,object-56,temp_dist_trial,6.0,s_a_18_1,student_art,tutu,7.0,unique,paired,s_a_18_1.jpg,Student,,,sub-15
Desktop or Laptop,Linux x86_64,Firefox 141.0,1440x810,1440x810,Temporal Distance Task,cb_07,7.0,temp_dist_trial,num_items,zn7si1,1.0,response,1_ITEM,1397.020000000004,1381.5,1397.020000000004,1397.020000000004,1381.5,1397.020000000004,1.0,0.0,0.0,,Click Response,1_count,3.0,object-46,temp_dist_trial,7.0,s_a_05_1,student_art,clay,7.0,unique,paired,s_a_05_1.jpg,Student,,,sub-15
Desktop or Laptop,Linux x86_64,Firefox 141.0,1440x810,1440x810,Temporal Distance Task,cb_07,8.0,temp_dist_trial,num_items,zn7si1,1.0,response,1_ITEM,1400.0800000000015,1398.6600000000033,1400.0800000000015,1400.0800000000015,1398.6600000000033,1400.0800000000015,1.0,0.0,0.0,,Click Response,1_count,3.0,object-46,temp_dist_trial,8.0,s_sh_04_1,student_shared,laptop stand,7.0,competing,single,s_sh_04_1.jpg,Student,,,sub-15
Desktop or Laptop,Linux x86_64,Firefox 141.0,1440x810,1440x810,Temporal Distance Task,cb_07,9.0,temp_dist_trial,num_items,zn7si1,1.0,response,2_ITEM,1226.7400000000052,1215.7000000000114,1226.7400000000052,1226.7400000000052,1215.7000000000114,1226.7400000000052,1.0,0.0,0.0,,Click Response,2_count,5.0,object-49,temp_dist_trial,9.0,s_a_14_1,student_art,guitar pick,7.0,unique,paired,s_a_14_1.jpg,Student,,,sub-15
Desktop or Laptop,Linux x86_64,Firefox 141.0,1440x810,1440x810,Temporal Distance Task,cb_07,9.0,temp_dist_trial,dist_items,qkpkxw,2.0,info,,5.6600000000034925,0.0,5.6600000000034925,5.6600000000034925,0.0,5.6600000000034925,1.0,0.0,0.0,,Slider,Slider,4.0,object-56,temp_dist_trial,9.0,s_a_14_1,student_art,guitar pick,7.0,unique,paired,s_a_14_1.jpg,Student,,,sub-15
Desktop or Laptop,Linux x86_64,Firefox 141.0,1440x810,1440x810,Temporal Distance Task,cb_07,9.0,temp_dist_trial,dist_items,qkpkxw,2.0,continue,,3253.6600000000035,3247.960000000007,3253.6600000000035,3253.6600000000035,3247.960000000007,3253.6600000000035,1.0,0.0,0.0,,Click To Continue,Next button,7.0,object-60,temp_dist_trial,9.0,s_a_14_1,student_art,guitar pick,7.0,unique,paired,s_a_14_1.jpg,Student,,,sub-15
Desktop or Laptop,Linux x86_64,Firefox 141.0,1440x810,1440x810,Temporal Distance Task,cb_07,9.0,temp_dist_trial,dist_items,qkpkxw,2.0,response,14,1083.2200000000012,3247.960000000007,3254.6600000000035,1083.2200000000012,3247.960000000007,3254.6600000000035,1.0,2171.4400000000023,0.0,,Slider,Slider,4.0,object-56,temp_dist_trial,9.0,s_a_14_1,student_art,guitar pick,7.0,unique,paired,s_a_14_1.jpg,Student,,,sub-15
Desktop or Laptop,Linux x86_64,Firefox 141.0,1440x810,1440x810,Temporal Distance Task,cb_07,10.0,temp_dist_trial,num_items,zn7si1,1.0,response,2_ITEM,1439.6999999999966,1431.6600000000033,1439.6999999999966,1439.6999999999966,1431.6600000000033,1439.6999999999966,1.0,0.0,0.0,,Click Response,2_count,5.0,object-49,temp_dist_trial,10.0,s_a_01_1,student_art,paintbrush,7.0,unique,paired,s_a_01_1.jpg,Student,,,sub-15
Desktop or Laptop,Linux x86_64,Firefox 141.0,1440x810,1440x810,Temporal Distance Task,cb_07,10.0,temp_dist_trial,dist_items,qkpkxw,2.0,info,,6.4799999999959255,0.0,6.4799999999959255,6.4799999999959255,0.0,6.4799999999959255,1.0,0.0,0.0,,Slider,Slider,4.0,object-56,temp_dist_trial,10.0,s_a_01_1,student_art,paintbrush,7.0,unique,paired,s_a_01_1.jpg,Student,,,sub-15
Desktop or Laptop,Linux x86_64,Firefox 141.0,1440x810,1440x810,Temporal Distance Task,cb_07,10.0,temp_dist_trial,dist_items,qkpkxw,2.0,continue,,2410.479999999996,2398.4199999999983,2410.479999999996,2410.479999999996,2398.4199999999983,2410.479999999996,1.0,0.0,0.0,,Click To Continue,Next button,7.0,object-60,temp_dist_trial,10.0,s_a_01_1,student_art,paintbrush,7.0,unique,paired,s_a_01_1.jpg,Student,,,sub-15
Desktop or Laptop,Linux x86_64,Firefox 141.0,1440x810,1440x810,Temporal Distance Task,cb_07,10.0,temp_dist_trial,dist_items,qkpkxw,2.0,response,29,899.7599999999948,2398.4199999999983,2410.479999999996,899.7599999999948,2398.4199999999983,2410.479999999996,1.0,1510.7200000000012,0.0,,Slider,Slider,4.0,object-56,temp_dist_trial,10.0,s_a_01_1,student_art,paintbrush,7.0,unique,paired,s_a_01_1.jpg,Student,,,sub-15
Desktop or Laptop,Linux x86_64,Firefox 141.0,1440x810,1440x810,Temporal Distance Task,cb_07,11.0,temp_dist_trial,num_items,zn7si1,1.0,response,2_ITEM,2286.0599999999977,2281.479999999996,2286.0599999999977,2286.0599999999977,2281.479999999996,2286.0599999999977,1.0,0.0,0.0,,Click Response,2_count,5.0,object-49,temp_dist_trial,11.0,s_sh_16_1,student_shared,stapler,7.0,competing,paired,s_sh_16_1.jpg,Student,,,sub-15
Desktop or Laptop,Linux x86_64,Firefox 141.0,1440x810,1440x810,Temporal Distance Task,cb_07,11.0,temp_dist_trial,dist_items,qkpkxw,2.0,info,,5.899999999994179,0.0,5.899999999994179,5.899999999994179,0.0,5.899999999994179,1.0,0.0,0.0,,Slider,Slider,4.0,object-56,temp_dist_trial,11.0,s_sh_16_1,student_shared,stapler,7.0,competing,paired,s_sh_16_1.jpg,Student,,,sub-15
Desktop or Laptop,Linux x86_64,Firefox 141.0,1440x810,1440x810,Temporal Distance Task,cb_07,11.0,temp_dist_trial,dist_items,qkpkxw,2.0,continue,,3433.8999999999933,3430.2999999999884,3433.8999999999933,3433.8999999999933,3430.2999999999884,3433.8999999999933,1.0,0.0,0.0,,Click To Continue,Next button,7.0,object-60,temp_dist_trial,11.0,s_sh_16_1,student_shared,stapler,7.0,competing,paired,s_sh_16_1.jpg,Student,,,sub-15
Desktop or Laptop,Linux x86_64,Firefox 141.0,1440x810,1440x810,Temporal Distance Task,cb_07,11.0,temp_dist_trial,dist_items,qkpkxw,2.0,response,61,1731.599999999991,3430.2999999999884,3433.8999999999933,1731.599999999991,3430.2999999999884,3433.8999999999933,1.0,1702.3000000000034,0.0,,Slider,Slider,4.0,object-56,temp_dist_trial,11.0,s_sh_16_1,student_shared,stapler,7.0,competing,paired,s_sh_16_1.jpg,Student,,,sub-15
Desktop or Laptop,Linux x86_64,Firefox 141.0,1440x810,1440x810,Temporal Distance Task,cb_07,12.0,temp_dist_trial,num_items,zn7si1,1.0,response,1_ITEM,1594.6000000000058,1582.4400000000023,1594.6000000000058,1594.6000000000058,1582.4400000000023,1594.6000000000058,1.0,0.0,0.0,,Click Response,1_count,3.0,object-46,temp_dist_trial,12.0,s_a_07_1,student_art,yarn,7.0,unique,paired,s_a_07_1.jpg,Student,,,sub-15
Desktop or Laptop,Linux x86_64,Firefox 141.0,1440x810,1440x810,Temporal Distance Task,cb_07,13.0,temp_dist_trial,num_items,zn7si1,1.0,response,2_ITEM,2551.7200000000007,2547.979999999996,2551.7200000000007,2551.7200000000007,2547.979999999996,2551.7200000000007,1.0,0.0,0.0,,Click Response,2_count,5.0,object-49,temp_dist_trial,13.0,s_sh_21_1,student_shared,file holder,7.0,competing,paired,s_sh_21_1.jpg,Student,,,sub-15
Desktop or Laptop,Linux x86_64,Firefox 141.0,1440x810,1440x810,Temporal Distance Task,cb_07,13.0,temp_dist_trial,dist_items,qkpkxw,2.0,info,,6.460000000006403,0.0,6.460000000006403,6.460000000006403,0.0,6.460000000006403,1.0,0.0,0.0,,Slider,Slider,4.0,object-56,temp_dist_trial,13.0,s_sh_21_1,student_shared,file holder,7.0,competing,paired,s_sh_21_1.jpg,Student,,,sub-15
Desktop or Laptop,Linux x86_64,Firefox 141.0,1440x810,1440x810,Temporal Distance Task,cb_07,13.0,temp_dist_trial,dist_items,qkpkxw,2.0,continue,,3568.460000000007,3563.700000000012,3568.460000000007,3568.460000000007,3563.700000000012,3568.460000000007,1.0,0.0,0.0,,Click To Continue,Next button,7.0,object-60,temp_dist_trial,13.0,s_sh_21_1,student_shared,file holder,7.0,competing,paired,s_sh_21_1.jpg,Student,,,sub-15
Desktop or Laptop,Linux x86_64,Firefox 141.0,1440x810,1440x810,Temporal Distance Task,cb_07,13.0,temp_dist_trial,dist_items,qkpkxw,2.0,response,40,1231.7600000000093,3563.700000000012,3569.460000000007,1231.7600000000093,3563.700000000012,3569.460000000007,1.0,2337.699999999997,0.0,,Slider,Slider,4.0,object-56,temp_dist_trial,13.0,s_sh_21_1,student_shared,file holder,7.0,competing,paired,s_sh_21_1.jpg,Student,,,sub-15
Desktop or Laptop,Linux x86_64,Firefox 141.0,1440x810,1440x810,Temporal Distance Task,cb_07,14.0,temp_dist_trial,num_items,zn7si1,1.0,response,2_ITEM,1547.7599999999948,1532.2399999999911,1547.7599999999948,1547.7599999999948,1532.2399999999911,1547.7599999999948,1.0,0.0,0.0,,Click Response,2_count,5.0,object-49,temp_dist_trial,14.0,s_sh_11_1,student_shared,pencil case,7.0,competing,paired,s_sh_11_1.jpg,Student,,,sub-15
Desktop or Laptop,Linux x86_64,Firefox 141.0,1440x810,1440x810,Temporal Distance Task,cb_07,14.0,temp_dist_trial,dist_items,qkpkxw,2.0,info,,4.9799999999959255,0.0,4.9799999999959255,4.9799999999959255,0.0,4.9799999999959255,1.0,0.0,0.0,,Slider,Slider,4.0,object-56,temp_dist_trial,14.0,s_sh_11_1,student_shared,pencil case,7.0,competing,paired,s_sh_11_1.jpg,Student,,,sub-15
Desktop or Laptop,Linux x86_64,Firefox 141.0,1440x810,1440x810,Temporal Distance Task,cb_07,14.0,temp_dist_trial,dist_items,qkpkxw,2.0,continue,,3161.979999999996,3147.019999999989,3161.979999999996,3161.979999999996,3147.019999999989,3161.979999999996,1.0,0.0,0.0,,Click To Continue,Next button,7.0,object-60,temp_dist_trial,14.0,s_sh_11_1,student_shared,pencil case,7.0,competing,paired,s_sh_11_1.jpg,Student,,,sub-15
Desktop or Laptop,Linux x86_64,Firefox 141.0,1440x810,1440x810,Temporal Distance Task,cb_07,14.0,temp_dist_trial,dist_items,qkpkxw,2.0,response,40,799.3199999999922,3147.019999999989,3161.979999999996,799.3199999999922,3147.019999999989,3161.979999999996,1.0,2362.6600000000035,0.0,,Slider,Slider,4.0,object-56,temp_dist_trial,14.0,s_sh_11_1,student_shared,pencil case,7.0,competing,paired,s_sh_11_1.jpg,Student,,,sub-15
Desktop or Laptop,Linux x86_64,Firefox 141.0,1440x810,1440x810,Temporal Distance Task,cb_07,15.0,temp_dist_trial,num_items,zn7si1,1.0,response,2_ITEM,1148.4200000000128,1132.320000000007,1148.4200000000128,1148.4200000000128,1132.320000000007,1148.4200000000128,1.0,0.0,0.0,,Click Response,2_count,5.0,object-49,temp_dist_trial,15.0,s_sh_05_1,student_shared,laptop,7.0,competing,paired,s_sh_05_1.jpg,Student,,,sub-15
Desktop or Laptop,Linux x86_64,Firefox 141.0,1440x810,1440x810,Temporal Distance Task,cb_07,15.0,temp_dist_trial,dist_items,qkpkxw,2.0,info,,5.1999999999970905,0.0,5.1999999999970905,5.1999999999970905,0.0,5.1999999999970905,1.0,0.0,0.0,,Slider,Slider,4.0,object-56,temp_dist_trial,15.0,s_sh_05_1,student_shared,laptop,7.0,competing,paired,s_sh_05_1.jpg,Student,,,sub-15
Desktop or Laptop,Linux x86_64,Firefox 141.0,1440x810,1440x810,Temporal Distance Task,cb_07,15.0,temp_dist_trial,dist_items,qkpkxw,2.0,continue,,2585.199999999997,2580.8199999999924,2585.199999999997,2585.199999999997,2580.8199999999924,2585.199999999997,1.0,0.0,0.0,,Click To Continue,Next button,7.0,object-60,temp_dist_trial,15.0,s_sh_05_1,student_shared,laptop,7.0,competing,paired,s_sh_05_1.jpg,Student,,,sub-15
Desktop or Laptop,Linux x86_64,Firefox 141.0,1440x810,1440x810,Temporal Distance Task,cb_07,15.0,temp_dist_trial,dist_items,qkpkxw,2.0,response,62,798.8199999999922,2580.8199999999924,2586.199999999997,798.8199999999922,2580.8199999999924,2586.199999999997,1.0,1787.3800000000049,0.0,,Slider,Slider,4.0,object-56,temp_dist_trial,15.0,s_sh_05_1,student_shared,laptop,7.0,competing,paired,s_sh_05_1.jpg,Student,,,sub-15
Desktop or Laptop,Linux x86_64,Firefox 141.0,1440x810,1440x810,Temporal Distance Task,cb_07,16.0,temp_dist_trial,num_items,zn7si1,1.0,response,2_ITEM,1243.3800000000047,1232.2400000000052,1243.3800000000047,1243.3800000000047,1232.2400000000052,1243.3800000000047,1.0,0.0,0.0,,Click Response,2_count,5.0,object-49,temp_dist_trial,16.0,s_sh_06_1,student_shared,clipboard,7.0,competing,paired,s_sh_06_1.jpg,Student,,,sub-15
Desktop or Laptop,Linux x86_64,Firefox 141.0,1440x810,1440x810,Temporal Distance Task,cb_07,16.0,temp_dist_trial,dist_items,qkpkxw,2.0,info,,4.6999999999970905,0.0,4.6999999999970905,4.6999999999970905,0.0,4.6999999999970905,1.0,0.0,0.0,,Slider,Slider,4.0,object-56,temp_dist_trial,16.0,s_sh_06_1,student_shared,clipboard,7.0,competing,paired,s_sh_06_1.jpg,Student,,,sub-15
Desktop or Laptop,Linux x86_64,Firefox 141.0,1440x810,1440x810,Temporal Distance Task,cb_07,16.0,temp_dist_trial,dist_items,qkpkxw,2.0,continue,,2828.699999999997,2815.0,2828.699999999997,2828.699999999997,2815.0,2828.699999999997,1.0,0.0,0.0,,Click To Continue,Next button,7.0,object-60,temp_dist_trial,16.0,s_sh_06_1,student_shared,clipboard,7.0,competing,paired,s_sh_06_1.jpg,Student,,,sub-15
Desktop or Laptop,Linux x86_64,Firefox 141.0,1440x810,1440x810,Temporal Distance Task,cb_07,16.0,temp_dist_trial,dist_items,qkpkxw,2.0,response,70,732.8399999999965,2815.0,2828.699999999997,732.8399999999965,2815.0,2828.699999999997,1.0,2095.8600000000006,0.0,,Slider,Slider,4.0,object-56,temp_dist_trial,16.0,s_sh_06_1,student_shared,clipboard,7.0,competing,paired,s_sh_06_1.jpg,Student,,,sub-15
Desktop or Laptop,Linux x86_64,Firefox 141.0,1440x810,1440x810,Temporal Distance Task,cb_07,17.0,temp_dist_trial,num_items,zn7si1,1.0,response,num_miss,2997.759999999995,2997.759999999995,2997.759999999995,2997.759999999995,2997.759999999995,2997.759999999995,1.0,0.0,0.0,num_miss_tag,Time Limit,screen,0.0,screen,temp_dist_trial,17.0,s_s_10_1,student_stem,3d molecule,7.0,unique,paired,s_s_10_1.jpg,Student,,,sub-15
Desktop or Laptop,Linux x86_64,Firefox 141.0,1440x810,1440x810,Temporal Distance Task,cb_07,18.0,temp_dist_trial,num_items,zn7si1,1.0,response,2_ITEM,2272.5599999999977,2265.239999999991,2272.5599999999977,2272.5599999999977,2265.239999999991,2272.5599999999977,1.0,0.0,0.0,,Click Response,2_count,5.0,object-49,temp_dist_trial,18.0,s_a_12_1,student_art,saxophone,7.0,unique,paired,s_a_12_1.jpg,Student,,,sub-15
Desktop or Laptop,Linux x86_64,Firefox 141.0,1440x810,1440x810,Temporal Distance Task,cb_07,18.0,temp_dist_trial,dist_items,qkpkxw,2.0,info,,4.740000000005238,0.0,4.740000000005238,4.740000000005238,0.0,4.740000000005238,1.0,0.0,0.0,,Slider,Slider,4.0,object-56,temp_dist_trial,18.0,s_a_12_1,student_art,saxophone,7.0,unique,paired,s_a_12_1.jpg,Student,,,sub-15
Desktop or Laptop,Linux x86_64,Firefox 141.0,1440x810,1440x810,Temporal Distance Task,cb_07,18.0,temp_dist_trial,dist_items,qkpkxw,2.0,continue,,3770.740000000005,3763.840000000011,3770.740000000005,3770.740000000005,3763.840000000011,3770.740000000005,1.0,0.0,0.0,,Click To Continue,Next button,7.0,object-60,temp_dist_trial,18.0,s_a_12_1,student_art,saxophone,7.0,unique,paired,s_a_12_1.jpg,Student,,,sub-15
Desktop or Laptop,Linux x86_64,Firefox 141.0,1440x810,1440x810,Temporal Distance Task,cb_07,18.0,temp_dist_trial,dist_items,qkpkxw,2.0,response,22,1216.1000000000058,3763.840000000011,3772.740000000005,1216.1000000000058,3763.840000000011,3772.740000000005,1.0,2556.6399999999994,0.0,,Slider,Slider,4.0,object-56,temp_dist_trial,18.0,s_a_12_1,student_art,saxophone,7.0,unique,paired,s_a_12_1.jpg,Student,,,sub-15
Desktop or Laptop,Linux x86_64,Firefox 141.0,1440x810,1440x810,Temporal Distance Task,cb_07,19.0,temp_dist_trial,num_items,zn7si1,1.0,response,2_ITEM,1344.8999999999942,1332.479999999996,1344.8999999999942,1344.8999999999942,1332.479999999996,1344.8999999999942,1.0,0.0,0.0,,Click Response,2_count,5.0,object-49,temp_dist_trial,19.0,s_s_15_1,student_stem,jumper cables,7.0,unique,paired,s_s_15_1.jpg,Student,,,sub-15
Desktop or Laptop,Linux x86_64,Firefox 141.0,1440x810,1440x810,Temporal Distance Task,cb_07,19.0,temp_dist_trial,dist_items,qkpkxw,2.0,info,,17.10000000000582,0.0,17.10000000000582,17.10000000000582,0.0,17.10000000000582,1.0,0.0,0.0,,Slider,Slider,4.0,object-56,temp_dist_trial,19.0,s_s_15_1,student_stem,jumper cables,7.0,unique,paired,s_s_15_1.jpg,Student,,,sub-15
Desktop or Laptop,Linux x86_64,Firefox 141.0,1440x810,1440x810,Temporal Distance Task,cb_07,19.0,temp_dist_trial,dist_items,qkpkxw,2.0,continue,,3585.759999999995,3580.459999999992,3585.759999999995,3585.759999999995,3580.459999999992,3585.759999999995,1.0,0.0,0.0,,Click To Continue,Next button,7.0,object-60,temp_dist_trial,19.0,s_s_15_1,student_stem,jumper cables,7.0,unique,paired,s_s_15_1.jpg,Student,,,sub-15
Desktop or Laptop,Linux x86_64,Firefox 141.0,1440x810,1440x810,Temporal Distance Task,cb_07,19.0,temp_dist_trial,dist_items,qkpkxw,2.0,response,28,698.8199999999922,3580.459999999992,3586.759999999995,698.8199999999922,3580.459999999992,3586.759999999995,1.0,2887.9400000000023,0.0,,Slider,Slider,4.0,object-56,temp_dist_trial,19.0,s_s_15_1,student_stem,jumper cables,7.0,unique,paired,s_s_15_1.jpg,Student,,,sub-15
Desktop or Laptop,Linux x86_64,Firefox 141.0,1440x810,1440x810,Temporal Distance Task,cb_07,20.0,temp_dist_trial,num_items,zn7si1,1.0,response,2_ITEM,1780.8600000000006,1764.7400000000052,1780.8600000000006,1780.8600000000006,1764.7400000000052,1780.8600000000006,1.0,0.0,0.0,,Click Response,2_count,5.0,object-49,temp_dist_trial,20.0,s_s_11_1,student_stem,scientific scale,7.0,unique,paired,s_s_11_1.jpg,Student,,,sub-15
Desktop or Laptop,Linux x86_64,Firefox 141.0,1440x810,1440x810,Temporal Distance Task,cb_07,20.0,temp_dist_trial,dist_items,qkpkxw,2.0,info,,7.0599999999976735,0.0,7.0599999999976735,7.0599999999976735,0.0,7.0599999999976735,1.0,0.0,0.0,,Slider,Slider,4.0,object-56,temp_dist_trial,20.0,s_s_11_1,student_stem,scientific scale,7.0,unique,paired,s_s_11_1.jpg,Student,,,sub-15
Desktop or Laptop,Linux x86_64,Firefox 141.0,1440x810,1440x810,Temporal Distance Task,cb_07,20.0,temp_dist_trial,dist_items,qkpkxw,2.0,continue,,2264.0599999999977,2248.8399999999965,2264.0599999999977,2264.0599999999977,2248.8399999999965,2264.0599999999977,1.0,0.0,0.0,,Click To Continue,Next button,7.0,object-60,temp_dist_trial,20.0,s_s_11_1,student_stem,scientific scale,7.0,unique,paired,s_s_11_1.jpg,Student,,,sub-15
Desktop or Laptop,Linux x86_64,Firefox 141.0,1440x810,1440x810,Temporal Distance Task,cb_07,20.0,temp_dist_trial,dist_items,qkpkxw,2.0,response,29,616.959999999992,2248.8399999999965,2265.9400000000023,616.959999999992,2248.8399999999965,2265.9400000000023,1.0,1648.9800000000105,0.0,,Slider,Slider,4.0,object-56,temp_dist_trial,20.0,s_s_11_1,student_stem,scientific scale,7.0,unique,paired,s_s_11_1.jpg,Student,,,sub-15
Desktop or Laptop,Linux x86_64,Firefox 141.0,1440x810,1440x810,Temporal Distance Task,cb_07,21.0,temp_dist_trial,num_items,zn7si1,1.0,response,1_ITEM,1830.2200000000007,1814.540000000008,1830.2200000000007,1830.2200000000007,1814.540000000008,1830.2200000000007,1.0,0.0,0.0,,Click Response,1_count,3.0,object-46,temp_dist_trial,21.0,s_s_17_1,student_stem,ring stand,7.0,unique,single,s_s_17_1.jpg,Student,,,sub-15
Desktop or Laptop,Linux x86_64,Firefox 141.0,1440x810,1440x810,Temporal Distance Task,cb_07,22.0,temp_dist_trial,num_items,zn7si1,1.0,response,1_ITEM,1149.0599999999977,1133.1000000000058,1149.0599999999977,1149.0599999999977,1133.1000000000058,1149.0599999999977,1.0,0.0,0.0,,Click Response,1_count,3.0,object-46,temp_dist_trial,22.0,s_sh_17_1,student_shared,wireless mouse,7.0,competing,single,s_sh_17_1.jpg,Student,,,sub-15
Desktop or Laptop,Linux x86_64,Firefox 141.0,1440x810,1440x810,Temporal Distance Task,cb_07,23.0,temp_dist_trial,num_items,zn7si1,1.0,response,1_ITEM,1272.0599999999977,1265.0,1272.0599999999977,1272.0599999999977,1265.0,1272.0599999999977,1.0,0.0,0.0,,Click Response,1_count,3.0,object-46,temp_dist_trial,23.0,s_sh_20_1,student_shared,tape,7.0,competing,single,s_sh_20_1.jpg,Student,,,sub-15
Desktop or Laptop,Linux x86_64,Firefox 141.0,1440x810,1440x810,Temporal Distance Task,cb_07,24.0,temp_dist_trial,num_items,zn7si1,1.0,response,1_ITEM,1934.3999999999944,1932.3800000000049,1934.3999999999944,1934.3999999999944,1932.3800000000049,1934.3999999999944,1.0,0.0,0.0,,Click Response,1_count,3.0,object-46,temp_dist_trial,24.0,s_sh_12_1,student_shared,binder,7.0,competing,paired,s_sh_12_1.jpg,Student,,,sub-15
Desktop or Laptop,Linux x86_64,Firefox 141.0,1440x810,1440x810,Temporal Distance Task,cb_07,25.0,temp_dist_trial,num_items,zn7si1,1.0,response,1_ITEM,2037.3399999999967,2031.2600000000089,2037.3399999999967,2037.3399999999967,2031.2600000000089,2037.3399999999967,1.0,0.0,0.0,,Click Response,1_count,3.0,object-46,temp_dist_trial,25.0,s_s_03_1,student_stem,petri dish,7.0,unique,single,s_s_03_1.jpg,Student,,,sub-15
Desktop or Laptop,Linux x86_64,Firefox 141.0,1440x810,1440x810,Temporal Distance Task,cb_07,26.0,temp_dist_trial,num_items,zn7si1,1.0,response,1_ITEM,807.5199999999895,799.0599999999977,807.5199999999895,807.5199999999895,799.0599999999977,807.5199999999895,1.0,0.0,0.0,,Click Response,1_count,3.0,object-46,temp_dist_trial,26.0,s_sh_01_1,student_shared,notebook,7.0,competing,single,s_sh_01_1.jpg,Student,,,sub-15
Desktop or Laptop,Linux x86_64,Firefox 141.0,1440x810,1440x810,Temporal Distance Task,cb_07,27.0,temp_dist_trial,num_items,zn7si1,1.0,response,1_ITEM,1304.0199999999895,1299.4199999999835,1304.0199999999895,1304.0199999999895,1299.4199999999835,1304.0199999999895,1.0,0.0,0.0,,Click Response,1_count,3.0,object-46,temp_dist_trial,27.0,s_sh_18_1,student_shared,wall calendar,7.0,competing,single,s_sh_18_1.jpg,Student,,,sub-15
Desktop or Laptop,Linux x86_64,Firefox 141.0,1440x810,1440x810,Temporal Distance Task,cb_07,28.0,temp_dist_trial,num_items,zn7si1,1.0,response,2_ITEM,1553.0799999999872,1548.9399999999732,1553.0799999999872,1553.0799999999872,1548.9399999999732,1553.0799999999872,1.0,0.0,0.0,,Click Response,2_count,5.0,object-49,temp_dist_trial,28.0,s_sh_10_1,student_shared,scissors,7.0,competing,paired,s_sh_10_1.jpg,Student,,,sub-15
Desktop or Laptop,Linux x86_64,Firefox 141.0,1440x810,1440x810,Temporal Distance Task,cb_07,28.0,temp_dist_trial,dist_items,qkpkxw,2.0,info,,5.6600000000034925,0.0,5.6600000000034925,5.6600000000034925,0.0,5.6600000000034925,1.0,0.0,0.0,,Slider,Slider,4.0,object-56,temp_dist_trial,28.0,s_sh_10_1,student_shared,scissors,7.0,competing,paired,s_sh_10_1.jpg,Student,,,sub-15
Desktop or Laptop,Linux x86_64,Firefox 141.0,1440x810,1440x810,Temporal Distance Task,cb_07,28.0,temp_dist_trial,dist_items,qkpkxw,2.0,continue,,2641.6600000000035,2631.640000000014,2641.6600000000035,2641.6600000000035,2631.640000000014,2641.6600000000035,1.0,0.0,0.0,,Click To Continue,Next button,7.0,object-60,temp_dist_trial,28.0,s_sh_10_1,student_shared,scissors,7.0,competing,paired,s_sh_10_1.jpg,Student,,,sub-15
Desktop or Laptop,Linux x86_64,Firefox 141.0,1440x810,1440x810,Temporal Distance Task,cb_07,28.0,temp_dist_trial,dist_items,qkpkxw,2.0,response,60,899.3800000000048,2631.640000000014,2641.6600000000035,899.3800000000048,2631.640000000014,2641.6600000000035,1.0,1742.2799999999988,0.0,,Slider,Slider,4.0,object-56,temp_dist_trial,28.0,s_sh_10_1,student_shared,scissors,7.0,competing,paired,s_sh_10_1.jpg,Student,,,sub-15
Desktop or Laptop,Linux x86_64,Firefox 141.0,1440x810,1440x810,Temporal Distance Task,cb_07,29.0,temp_dist_trial,num_items,zn7si1,1.0,response,2_ITEM,1028.0199999999895,1015.7599999999803,1028.0199999999895,1028.0199999999895,1015.7599999999803,1028.0199999999895,1.0,0.0,0.0,,Click Response,2_count,5.0,object-49,temp_dist_trial,29.0,s_sh_23_1,student_shared,ballpoint pen,7.0,competing,paired,s_sh_23_1.jpg,Student,,,sub-15
Desktop or Laptop,Linux x86_64,Firefox 141.0,1440x810,1440x810,Temporal Distance Task,cb_07,29.0,temp_dist_trial,dist_items,qkpkxw,2.0,info,,5.6600000000034925,0.0,5.6600000000034925,5.6600000000034925,0.0,5.6600000000034925,1.0,0.0,0.0,,Slider,Slider,4.0,object-56,temp_dist_trial,29.0,s_sh_23_1,student_shared,ballpoint pen,7.0,competing,paired,s_sh_23_1.jpg,Student,,,sub-15
Desktop or Laptop,Linux x86_64,Firefox 141.0,1440x810,1440x810,Temporal Distance Task,cb_07,29.0,temp_dist_trial,dist_items,qkpkxw,2.0,continue,,2433.6600000000035,2431.3800000000047,2433.6600000000035,2433.6600000000035,2431.3800000000047,2433.6600000000035,1.0,0.0,0.0,,Click To Continue,Next button,7.0,object-60,temp_dist_trial,29.0,s_sh_23_1,student_shared,ballpoint pen,7.0,competing,paired,s_sh_23_1.jpg,Student,,,sub-15
Desktop or Laptop,Linux x86_64,Firefox 141.0,1440x810,1440x810,Temporal Distance Task,cb_07,29.0,temp_dist_trial,dist_items,qkpkxw,2.0,response,36,932.2799999999988,2431.3800000000047,2433.6600000000035,932.2799999999988,2431.3800000000047,2433.6600000000035,1.0,1501.3800000000049,0.0,,Slider,Slider,4.0,object-56,temp_dist_trial,29.0,s_sh_23_1,student_shared,ballpoint pen,7.0,competing,paired,s_sh_23_1.jpg,Student,,,sub-15
Desktop or Laptop,Linux x86_64,Firefox 141.0,1440x810,1440x810,Temporal Distance Task,cb_07,30.0,temp_dist_trial,num_items,zn7si1,1.0,response,2_ITEM,1695.2799999999988,1681.4200000000128,1695.2799999999988,1695.2799999999988,1681.4200000000128,1695.2799999999988,1.0,0.0,0.0,,Click Response,2_count,5.0,object-49,temp_dist_trial,30.0,s_a_06_1,student_art,pastels,7.0,unique,paired,s_a_06_1.jpg,Student,,,sub-15
Desktop or Laptop,Linux x86_64,Firefox 141.0,1440x810,1440x810,Temporal Distance Task,cb_07,30.0,temp_dist_trial,dist_items,qkpkxw,2.0,info,,5.019999999989524,0.0,5.019999999989524,5.019999999989524,0.0,5.019999999989524,1.0,0.0,0.0,,Slider,Slider,4.0,object-56,temp_dist_trial,30.0,s_a_06_1,student_art,pastels,7.0,unique,paired,s_a_06_1.jpg,Student,,,sub-15
Desktop or Laptop,Linux x86_64,Firefox 141.0,1440x810,1440x810,Temporal Distance Task,cb_07,30.0,temp_dist_trial,dist_items,qkpkxw,2.0,continue,,3108.019999999989,3097.419999999984,3108.019999999989,3108.019999999989,3097.419999999984,3108.019999999989,1.0,0.0,0.0,,Click To Continue,Next button,7.0,object-60,temp_dist_trial,30.0,s_a_06_1,student_art,pastels,7.0,unique,paired,s_a_06_1.jpg,Student,,,sub-15
Desktop or Laptop,Linux x86_64,Firefox 141.0,1440x810,1440x810,Temporal Distance Task,cb_07,30.0,temp_dist_trial,dist_items,qkpkxw,2.0,response,27,500.1799999999929,3097.419999999984,3109.019999999989,500.1799999999929,3097.419999999984,3109.019999999989,1.0,2608.8399999999965,0.0,,Slider,Slider,4.0,object-56,temp_dist_trial,30.0,s_a_06_1,student_art,pastels,7.0,unique,paired,s_a_06_1.jpg,Student,,,sub-15
Desktop or Laptop,Linux x86_64,Firefox 141.0,1440x810,1440x810,Temporal Distance Task,cb_07,31.0,temp_dist_trial,num_items,zn7si1,1.0,response,2_ITEM,1043.6000000000058,1032.4800000000105,1043.6000000000058,1043.6000000000058,1032.4800000000105,1043.6000000000058,1.0,0.0,0.0,,Click Response,2_count,5.0,object-49,temp_dist_trial,31.0,s_sh_14_1,student_shared,printer,7.0,competing,paired,s_sh_14_1.jpg,Student,,,sub-15
Desktop or Laptop,Linux x86_64,Firefox 141.0,1440x810,1440x810,Temporal Distance Task,cb_07,31.0,temp_dist_trial,dist_items,qkpkxw,2.0,info,,4.6000000000058225,0.0,4.6000000000058225,4.6000000000058225,0.0,4.6000000000058225,1.0,0.0,0.0,,Slider,Slider,4.0,object-56,temp_dist_trial,31.0,s_sh_14_1,student_shared,printer,7.0,competing,paired,s_sh_14_1.jpg,Student,,,sub-15
Desktop or Laptop,Linux x86_64,Firefox 141.0,1440x810,1440x810,Temporal Distance Task,cb_07,31.0,temp_dist_trial,dist_items,qkpkxw,2.0,continue,,2252.6000000000063,2247.8999999999937,2252.6000000000063,2252.6000000000063,2247.8999999999937,2252.6000000000063,1.0,0.0,0.0,,Click To Continue,Next button,7.0,object-60,temp_dist_trial,31.0,s_sh_14_1,student_shared,printer,7.0,competing,paired,s_sh_14_1.jpg,Student,,,sub-15
Desktop or Laptop,Linux x86_64,Firefox 141.0,1440x810,1440x810,Temporal Distance Task,cb_07,31.0,temp_dist_trial,dist_items,qkpkxw,2.0,response,64,682.3800000000048,2247.8999999999937,2252.6000000000063,682.3800000000048,2247.8999999999937,2252.6000000000063,1.0,1570.2200000000012,0.0,,Slider,Slider,4.0,object-56,temp_dist_trial,31.0,s_sh_14_1,student_shared,printer,7.0,competing,paired,s_sh_14_1.jpg,Student,,,sub-15
Desktop or Laptop,Linux x86_64,Firefox 141.0,1440x810,1440x810,Temporal Distance Task,cb_07,32.0,temp_dist_trial,num_items,zn7si1,1.0,response,2_ITEM,1027.7000000000116,1015.4400000000024,1027.7000000000116,1027.7000000000116,1015.4400000000024,1027.7000000000116,1.0,0.0,0.0,,Click Response,2_count,5.0,object-49,temp_dist_trial,32.0,s_sh_03_1,student_shared,highlighter,7.0,competing,paired,s_sh_03_1.jpg,Student,,,sub-15
Desktop or Laptop,Linux x86_64,Firefox 141.0,1440x810,1440x810,Temporal Distance Task,cb_07,32.0,temp_dist_trial,dist_items,qkpkxw,2.0,info,,6.720000000001162,0.0,6.720000000001162,6.720000000001162,0.0,6.720000000001162,1.0,0.0,0.0,,Slider,Slider,4.0,object-56,temp_dist_trial,32.0,s_sh_03_1,student_shared,highlighter,7.0,competing,paired,s_sh_03_1.jpg,Student,,,sub-15
Desktop or Laptop,Linux x86_64,Firefox 141.0,1440x810,1440x810,Temporal Distance Task,cb_07,32.0,temp_dist_trial,dist_items,qkpkxw,2.0,continue,,2116.7200000000007,2115.4400000000023,2116.7200000000007,2116.7200000000007,2115.4400000000023,2116.7200000000007,1.0,0.0,0.0,,Click To Continue,Next button,7.0,object-60,temp_dist_trial,32.0,s_sh_03_1,student_shared,highlighter,7.0,competing,paired,s_sh_03_1.jpg,Student,,,sub-15
Desktop or Laptop,Linux x86_64,Firefox 141.0,1440x810,1440x810,Temporal Distance Task,cb_07,32.0,temp_dist_trial,dist_items,qkpkxw,2.0,response,73,783.5400000000079,2115.4400000000023,2116.7200000000007,783.5400000000079,2115.4400000000023,2116.7200000000007,1.0,1333.179999999993,0.0,,Slider,Slider,4.0,object-56,temp_dist_trial,32.0,s_sh_03_1,student_shared,highlighter,7.0,competing,paired,s_sh_03_1.jpg,Student,,,sub-15
Desktop or Laptop,Linux x86_64,Firefox 141.0,1440x810,1440x810,Temporal Distance Task,cb_07,33.0,temp_dist_trial,num_items,zn7si1,1.0,response,1_ITEM,1053.2799999999988,1049.2999999999884,1053.2799999999988,1053.2799999999988,1049.2999999999884,1053.2799999999988,1.0,0.0,0.0,,Click Response,1_count,3.0,object-46,temp_dist_trial,33.0,s_a_08_1,student_art,sewing machine,7.0,unique,single,s_a_08_1.jpg,Student,,,sub-15
Desktop or Laptop,Linux x86_64,Firefox 141.0,1440x810,1440x810,Temporal Distance Task,cb_07,34.0,temp_dist_trial,num_items,zn7si1,1.0,response,2_ITEM,1174.5199999999895,1166.0799999999872,1174.5199999999895,1174.5199999999895,1166.0799999999872,1174.5199999999895,1.0,0.0,0.0,,Click Response,2_count,5.0,object-49,temp_dist_trial,34.0,s_sh_24_1,student_shared,desk organizer,7.0,competing,paired,s_sh_24_1.jpg,Student,,,sub-15
Desktop or Laptop,Linux x86_64,Firefox 141.0,1440x810,1440x810,Temporal Distance Task,cb_07,34.0,temp_dist_trial,dist_items,qkpkxw,2.0,info,,5.1000000000058225,0.0,5.1000000000058225,5.1000000000058225,0.0,5.1000000000058225,1.0,0.0,0.0,,Slider,Slider,4.0,object-56,temp_dist_trial,34.0,s_sh_24_1,student_shared,desk organizer,7.0,competing,paired,s_sh_24_1.jpg,Student,,,sub-15
Desktop or Laptop,Linux x86_64,Firefox 141.0,1440x810,1440x810,Temporal Distance Task,cb_07,34.0,temp_dist_trial,dist_items,qkpkxw,2.0,continue,,1888.1000000000056,1881.6000000000056,1888.1000000000056,1888.1000000000056,1881.6000000000056,1888.1000000000056,1.0,0.0,0.0,,Click To Continue,Next button,7.0,object-60,temp_dist_trial,34.0,s_sh_24_1,student_shared,desk organizer,7.0,competing,paired,s_sh_24_1.jpg,Student,,,sub-15
Desktop or Laptop,Linux x86_64,Firefox 141.0,1440x810,1440x810,Temporal Distance Task,cb_07,34.0,temp_dist_trial,dist_items,qkpkxw,2.0,response,37,616.7000000000116,1881.6000000000056,1889.1000000000056,616.7000000000116,1881.6000000000056,1889.1000000000056,1.0,1272.3999999999942,0.0,,Slider,Slider,4.0,object-56,temp_dist_trial,34.0,s_sh_24_1,student_shared,desk organizer,7.0,competing,paired,s_sh_24_1.jpg,Student,,,sub-15
Desktop or Laptop,Linux x86_64,Firefox 141.0,1440x810,1440x810,Temporal Distance Task,cb_07,35.0,temp_dist_trial,num_items,zn7si1,1.0,response,2_ITEM,1302.5,1299.5199999999895,1302.5,1302.5,1299.5199999999895,1302.5,1.0,0.0,0.0,,Click Response,2_count,5.0,object-49,temp_dist_trial,35.0,s_s_08_1,student_stem,soldering iron,7.0,unique,paired,s_s_08_1.jpg,Student,,,sub-15
Desktop or Laptop,Linux x86_64,Firefox 141.0,1440x810,1440x810,Temporal Distance Task,cb_07,35.0,temp_dist_trial,dist_items,qkpkxw,2.0,info,,5.3800000000046575,0.0,5.3800000000046575,5.3800000000046575,0.0,5.3800000000046575,1.0,0.0,0.0,,Slider,Slider,4.0,object-56,temp_dist_trial,35.0,s_s_08_1,student_stem,soldering iron,7.0,unique,paired,s_s_08_1.jpg,Student,,,sub-15
Desktop or Laptop,Linux x86_64,Firefox 141.0,1440x810,1440x810,Temporal Distance Task,cb_07,35.0,temp_dist_trial,dist_items,qkpkxw,2.0,continue,,2402.3800000000047,2397.8399999999965,2402.3800000000047,2402.3800000000047,2397.8399999999965,2402.3800000000047,1.0,0.0,0.0,,Click To Continue,Next button,7.0,object-60,temp_dist_trial,35.0,s_s_08_1,student_stem,soldering iron,7.0,unique,paired,s_s_08_1.jpg,Student,,,sub-15
Desktop or Laptop,Linux x86_64,Firefox 141.0,1440x810,1440x810,Temporal Distance Task,cb_07,35.0,temp_dist_trial,dist_items,qkpkxw,2.0,response,21,749.5800000000162,2397.8399999999965,2403.3800000000047,749.5800000000162,2397.8399999999965,2403.3800000000047,1.0,1653.7999999999884,0.0,,Slider,Slider,4.0,object-56,temp_dist_trial,35.0,s_s_08_1,student_stem,soldering iron,7.0,unique,paired,s_s_08_1.jpg,Student,,,sub-15
Desktop or Laptop,Linux x86_64,Firefox 141.0,1440x810,1440x810,Temporal Distance Task,cb_07,36.0,temp_dist_trial,num_items,zn7si1,1.0,response,1_ITEM,1865.540000000008,1849.1000000000056,1865.540000000008,1865.540000000008,1849.1000000000056,1865.540000000008,1.0,0.0,0.0,,Click Response,1_count,3.0,object-46,temp_dist_trial,36.0,s_a_03_1,student_art,palette,7.0,unique,single,s_a_03_1.jpg,Student,,,sub-15
Desktop or Laptop,Linux x86_64,Firefox 141.0,1440x810,1440x810,Temporal Distance Task,cb_07,37.0,temp_dist_trial,num_items,zn7si1,1.0,response,num_miss,2997.1599999999744,2997.1599999999744,2997.1599999999744,2997.1599999999744,2997.1599999999744,2997.1599999999744,1.0,0.0,0.0,num_miss_tag,Time Limit,screen,0.0,screen,temp_dist_trial,37.0,s_s_20_1,student_stem,dna model,7.0,unique,paired,s_s_20_1.jpg,Student,,,sub-15
Desktop or Laptop,Linux x86_64,Firefox 141.0,1440x810,1440x810,Temporal Distance Task,cb_07,38.0,temp_dist_trial,num_items,zn7si1,1.0,response,1_ITEM,2589.140000000014,2581.24000000002,2589.140000000014,2589.140000000014,2581.24000000002,2589.140000000014,1.0,0.0,0.0,,Click Response,1_count,3.0,object-46,temp_dist_trial,38.0,s_sh_22_1,student_shared,hole puncher,7.0,competing,single,s_sh_22_1.jpg,Student,,,sub-15
Desktop or Laptop,Linux x86_64,Firefox 141.0,1440x810,1440x810,Temporal Distance Task,cb_07,39.0,temp_dist_trial,num_items,zn7si1,1.0,response,2_ITEM,1103.3399999999963,1099.0599999999977,1103.3399999999963,1103.3399999999963,1099.0599999999977,1103.3399999999963,1.0,0.0,0.0,,Click Response,2_count,5.0,object-49,temp_dist_trial,39.0,s_sh_19_1,student_shared,portable plastic drawer,7.0,competing,paired,s_sh_19_1.jpg,Student,,,sub-15
Desktop or Laptop,Linux x86_64,Firefox 141.0,1440x810,1440x810,Temporal Distance Task,cb_07,39.0,temp_dist_trial,dist_items,qkpkxw,2.0,info,,6.85999999998603,0.0,6.85999999998603,6.85999999998603,0.0,6.85999999998603,1.0,0.0,0.0,,Slider,Slider,4.0,object-56,temp_dist_trial,39.0,s_sh_19_1,student_shared,portable plastic drawer,7.0,competing,paired,s_sh_19_1.jpg,Student,,,sub-15
Desktop or Laptop,Linux x86_64,Firefox 141.0,1440x810,1440x810,Temporal Distance Task,cb_07,39.0,temp_dist_trial,dist_items,qkpkxw,2.0,continue,,2238.859999999986,2232.25999999998,2238.859999999986,2238.859999999986,2232.25999999998,2238.859999999986,1.0,0.0,0.0,,Click To Continue,Next button,7.0,object-60,temp_dist_trial,39.0,s_sh_19_1,student_shared,portable plastic drawer,7.0,competing,paired,s_sh_19_1.jpg,Student,,,sub-15
Desktop or Laptop,Linux x86_64,Firefox 141.0,1440x810,1440x810,Temporal Distance Task,cb_07,39.0,temp_dist_trial,dist_items,qkpkxw,2.0,response,28,716.2399999999907,2232.25999999998,2238.859999999986,716.2399999999907,2232.25999999998,2238.859999999986,1.0,1522.6199999999951,0.0,,Slider,Slider,4.0,object-56,temp_dist_trial,39.0,s_sh_19_1,student_shared,portable plastic drawer,7.0,competing,paired,s_sh_19_1.jpg,Student,,,sub-15
Desktop or Laptop,Linux x86_64,Firefox 141.0,1440x810,1440x810,Temporal Distance Task,cb_07,40.0,temp_dist_trial,num_items,zn7si1,1.0,response,1_ITEM,1990.6000000000056,1981.040000000008,1990.6000000000056,1990.6000000000056,1981.040000000008,1990.6000000000056,1.0,0.0,0.0,,Click Response,1_count,3.0,object-46,temp_dist_trial,40.0,s_sh_08_1,student_shared,post-its,7.0,competing,single,s_sh_08_1.jpg,Student,,,sub-15
Desktop or Laptop,Linux x86_64,Firefox 141.0,1440x810,1440x810,Temporal Distance Task,cb_07,41.0,temp_dist_trial,num_items,zn7si1,1.0,response,1_ITEM,1612.140000000014,1598.3800000000049,1612.140000000014,1612.140000000014,1598.3800000000049,1612.140000000014,1.0,0.0,0.0,,Click Response,1_count,3.0,object-46,temp_dist_trial,41.0,s_a_15_1,student_art,drum kit,7.0,unique,paired,s_a_15_1.jpg,Student,,,sub-15
Desktop or Laptop,Linux x86_64,Firefox 141.0,1440x810,1440x810,Temporal Distance Task,cb_07,42.0,temp_dist_trial,num_items,zn7si1,1.0,response,2_ITEM,930.2399999999907,916.2200000000012,930.2399999999907,930.2399999999907,916.2200000000012,930.2399999999907,1.0,0.0,0.0,,Click Response,2_count,5.0,object-49,temp_dist_trial,42.0,s_s_06_1,student_stem,calculator,7.0,unique,paired,s_s_06_1.jpg,Student,,,sub-15
Desktop or Laptop,Linux x86_64,Firefox 141.0,1440x810,1440x810,Temporal Distance Task,cb_07,42.0,temp_dist_trial,dist_items,qkpkxw,2.0,info,,6.440000000002327,0.0,6.440000000002327,6.440000000002327,0.0,6.440000000002327,1.0,0.0,0.0,,Slider,Slider,4.0,object-56,temp_dist_trial,42.0,s_s_06_1,student_stem,calculator,7.0,unique,paired,s_s_06_1.jpg,Student,,,sub-15
Desktop or Laptop,Linux x86_64,Firefox 141.0,1440x810,1440x810,Temporal Distance Task,cb_07,42.0,temp_dist_trial,dist_items,qkpkxw,2.0,continue,,2057.4400000000023,2048.0,2057.4400000000023,2057.4400000000023,2048.0,2057.4400000000023,1.0,0.0,0.0,,Click To Continue,Next button,7.0,object-60,temp_dist_trial,42.0,s_s_06_1,student_stem,calculator,7.0,unique,paired,s_s_06_1.jpg,Student,,,sub-15
Desktop or Laptop,Linux x86_64,Firefox 141.0,1440x810,1440x810,Temporal Distance Task,cb_07,42.0,temp_dist_trial,dist_items,qkpkxw,2.0,response,64,716.4400000000023,2048.0,2060.4400000000023,716.4400000000023,2048.0,2060.4400000000023,1.0,1344.0,0.0,,Slider,Slider,4.0,object-56,temp_dist_trial,42.0,s_s_06_1,student_stem,calculator,7.0,unique,paired,s_s_06_1.jpg,Student,,,sub-15
Desktop or Laptop,Linux x86_64,Firefox 141.0,1440x810,1440x810,Temporal Distance Task,cb_07,43.0,temp_dist_trial,num_items,zn7si1,1.0,response,1_ITEM,909.4400000000024,899.3999999999942,909.4400000000024,909.4400000000024,899.3999999999942,909.4400000000024,1.0,0.0,0.0,,Click Response,1_count,3.0,object-46,temp_dist_trial,43.0,s_s_13_1,student_stem,telescope,7.0,unique,single,s_s_13_1.jpg,Student,,,sub-15
Desktop or Laptop,Linux x86_64,Firefox 141.0,1440x810,1440x810,Temporal Distance Task,cb_07,44.0,temp_dist_trial,num_items,zn7si1,1.0,response,2_ITEM,1631.2799999999988,1615.3399999999967,1631.2799999999988,1631.2799999999988,1615.3399999999967,1631.2799999999988,1.0,0.0,0.0,,Click Response,2_count,5.0,object-49,temp_dist_trial,44.0,s_a_13_1,student_art,violin,7.0,unique,single,s_a_13_1.jpg,Student,,,sub-15
Desktop or Laptop,Linux x86_64,Firefox 141.0,1440x810,1440x810,Temporal Distance Task,cb_07,44.0,temp_dist_trial,dist_items,qkpkxw,2.0,info,,4.519999999989524,0.0,4.519999999989524,4.519999999989524,0.0,4.519999999989524,1.0,0.0,0.0,,Slider,Slider,4.0,object-56,temp_dist_trial,44.0,s_a_13_1,student_art,violin,7.0,unique,single,s_a_13_1.jpg,Student,,,sub-15
Desktop or Laptop,Linux x86_64,Firefox 141.0,1440x810,1440x810,Temporal Distance Task,cb_07,44.0,temp_dist_trial,dist_items,qkpkxw,2.0,continue,,3429.5,3413.3399999999965,3429.5,3429.5,3413.3399999999965,3429.5,1.0,0.0,0.0,,Click To Continue,Next button,7.0,object-60,temp_dist_trial,44.0,s_a_13_1,student_art,violin,7.0,unique,single,s_a_13_1.jpg,Student,,,sub-15
Desktop or Laptop,Linux x86_64,Firefox 141.0,1440x810,1440x810,Temporal Distance Task,cb_07,44.0,temp_dist_trial,dist_items,qkpkxw,2.0,response,61,1648.7200000000012,3413.3399999999965,3429.5,1648.7200000000012,3413.3399999999965,3429.5,1.0,1780.7799999999988,0.0,,Slider,Slider,4.0,object-56,temp_dist_trial,44.0,s_a_13_1,student_art,violin,7.0,unique,single,s_a_13_1.jpg,Student,,,sub-15
Desktop or Laptop,Linux x86_64,Firefox 141.0,1440x810,1440x810,Temporal Distance Task,cb_07,45.0,temp_dist_trial,num_items,zn7si1,1.0,response,2_ITEM,1006.179999999993,999.2200000000012,1006.179999999993,1006.179999999993,999.2200000000012,1006.179999999993,1.0,0.0,0.0,,Click Response,2_count,5.0,object-49,temp_dist_trial,45.0,s_sh_15_1,student_shared,usb drive,7.0,competing,paired,s_sh_15_1.jpg,Student,,,sub-15
Desktop or Laptop,Linux x86_64,Firefox 141.0,1440x810,1440x810,Temporal Distance Task,cb_07,45.0,temp_dist_trial,dist_items,qkpkxw,2.0,info,,8.380000000004658,0.0,8.380000000004658,8.380000000004658,0.0,8.380000000004658,1.0,0.0,0.0,,Slider,Slider,4.0,object-56,temp_dist_trial,45.0,s_sh_15_1,student_shared,usb drive,7.0,competing,paired,s_sh_15_1.jpg,Student,,,sub-15
Desktop or Laptop,Linux x86_64,Firefox 141.0,1440x810,1440x810,Temporal Distance Task,cb_07,45.0,temp_dist_trial,dist_items,qkpkxw,2.0,continue,,2009.3800000000049,1998.3000000000175,2009.3800000000049,2009.3800000000049,1998.3000000000175,2009.3800000000049,1.0,0.0,0.0,,Click To Continue,Next button,7.0,object-60,temp_dist_trial,45.0,s_sh_15_1,student_shared,usb drive,7.0,competing,paired,s_sh_15_1.jpg,Student,,,sub-15
Desktop or Laptop,Linux x86_64,Firefox 141.0,1440x810,1440x810,Temporal Distance Task,cb_07,45.0,temp_dist_trial,dist_items,qkpkxw,2.0,response,70,633.5800000000163,1998.3000000000175,2011.3800000000049,633.5800000000163,1998.3000000000175,2011.3800000000049,1.0,1377.7999999999884,0.0,,Slider,Slider,4.0,object-56,temp_dist_trial,45.0,s_sh_15_1,student_shared,usb drive,7.0,competing,paired,s_sh_15_1.jpg,Student,,,sub-15
Desktop or Laptop,Linux x86_64,Firefox 141.0,1440x810,1440x810,Temporal Distance Task,cb_07,46.0,temp_dist_trial,num_items,zn7si1,1.0,response,1_ITEM,1110.0799999999872,1099.359999999986,1110.0799999999872,1110.0799999999872,1099.359999999986,1110.0799999999872,1.0,0.0,0.0,,Click Response,1_count,3.0,object-46,temp_dist_trial,46.0,s_s_14_1,student_stem,funnel,7.0,unique,single,s_s_14_1.jpg,Student,,,sub-15
Desktop or Laptop,Linux x86_64,Firefox 141.0,1440x810,1440x810,Temporal Distance Task,cb_07,47.0,temp_dist_trial,num_items,zn7si1,1.0,response,2_ITEM,1191.1199999999953,1182.8800000000047,1191.1199999999953,1191.1199999999953,1182.8800000000047,1191.1199999999953,1.0,0.0,0.0,,Click Response,2_count,5.0,object-49,temp_dist_trial,47.0,s_s_19_1,student_stem,circuit board,7.0,unique,paired,s_s_19_1.jpg,Student,,,sub-15
Desktop or Laptop,Linux x86_64,Firefox 141.0,1440x810,1440x810,Temporal Distance Task,cb_07,47.0,temp_dist_trial,dist_items,qkpkxw,2.0,info,,4.820000000006985,0.0,4.820000000006985,4.820000000006985,0.0,4.820000000006985,1.0,0.0,0.0,,Slider,Slider,4.0,object-56,temp_dist_trial,47.0,s_s_19_1,student_stem,circuit board,7.0,unique,paired,s_s_19_1.jpg,Student,,,sub-15
Desktop or Laptop,Linux x86_64,Firefox 141.0,1440x810,1440x810,Temporal Distance Task,cb_07,47.0,temp_dist_trial,dist_items,qkpkxw,2.0,continue,,2646.820000000007,2630.960000000021,2646.820000000007,2646.820000000007,2630.960000000021,2646.820000000007,1.0,0.0,0.0,,Click To Continue,Next button,7.0,object-60,temp_dist_trial,47.0,s_s_19_1,student_stem,circuit board,7.0,unique,paired,s_s_19_1.jpg,Student,,,sub-15
Desktop or Laptop,Linux x86_64,Firefox 141.0,1440x810,1440x810,Temporal Distance Task,cb_07,47.0,temp_dist_trial,dist_items,qkpkxw,2.0,response,21,1015.7600000000093,2630.960000000021,2646.820000000007,1015.7600000000093,2630.960000000021,2646.820000000007,1.0,1631.0599999999977,0.0,,Slider,Slider,4.0,object-56,temp_dist_trial,47.0,s_s_19_1,student_stem,circuit board,7.0,unique,paired,s_s_19_1.jpg,Student,,,sub-15
Desktop or Laptop,Linux x86_64,Firefox 141.0,1440x810,1440x810,Temporal Distance Task,cb_07,48.0,temp_dist_trial,num_items,zn7si1,1.0,response,1_ITEM,1271.859999999986,1265.6999999999825,1271.859999999986,1271.859999999986,1265.6999999999825,1271.859999999986,1.0,0.0,0.0,,Click Response,1_count,3.0,object-46,temp_dist_trial,48.0,s_sh_09_1,student_shared,paper clips,7.0,competing,single,s_sh_09_1.jpg,Student,,,sub-15
Desktop or Laptop,Linux x86_64,Firefox 141.0,1440x810,1440x810,Temporal Distance Task,cb_07,2.0,temp_eventStart,Screen 1,dgtyxe,1.0,continue,,4441.459999999992,4430.0199999999895,4441.459999999992,4441.459999999992,4430.0199999999895,4441.459999999992,1.0,0.0,0.0,,Click To Continue,Next Button,3.0,object-43,temp_eventStart,,,Travel,,,,,,,,,sub-15
Desktop or Laptop,Linux x86_64,Firefox 141.0,1440x810,1440x810,Temporal Distance Task,cb_07,49.0,temp_dist_trial,num_items,zn7si1,1.0,response,2_ITEM,1828.4400000000023,1814.8999999999944,1828.4400000000023,1828.4400000000023,1814.8999999999944,1828.4400000000023,1.0,0.0,0.0,,Click Response,2_count,5.0,object-49,temp_dist_trial,1.0,t_i_04_1,travel_Iceland,portable camping stove,7.0,unique,paired,t_i_04_1.jpg,Travel,,,sub-15
Desktop or Laptop,Linux x86_64,Firefox 141.0,1440x810,1440x810,Temporal Distance Task,cb_07,49.0,temp_dist_trial,dist_items,qkpkxw,2.0,info,,5.14000000001397,0.0,5.14000000001397,5.14000000001397,0.0,5.14000000001397,1.0,0.0,0.0,,Slider,Slider,4.0,object-56,temp_dist_trial,1.0,t_i_04_1,travel_Iceland,portable camping stove,7.0,unique,paired,t_i_04_1.jpg,Travel,,,sub-15
Desktop or Laptop,Linux x86_64,Firefox 141.0,1440x810,1440x810,Temporal Distance Task,cb_07,49.0,temp_dist_trial,dist_items,qkpkxw,2.0,continue,,3215.140000000014,3213.540000000008,3215.140000000014,3215.140000000014,3213.540000000008,3215.140000000014,1.0,0.0,0.0,,Click To Continue,Next button,7.0,object-60,temp_dist_trial,1.0,t_i_04_1,travel_Iceland,portable camping stove,7.0,unique,paired,t_i_04_1.jpg,Travel,,,sub-15
Desktop or Laptop,Linux x86_64,Firefox 141.0,1440x810,1440x810,Temporal Distance Task,cb_07,49.0,temp_dist_trial,dist_items,qkpkxw,2.0,response,37,1448.960000000021,3213.540000000008,3215.140000000014,1448.960000000021,3213.540000000008,3215.140000000014,1.0,1766.179999999993,0.0,,Slider,Slider,4.0,object-56,temp_dist_trial,1.0,t_i_04_1,travel_Iceland,portable camping stove,7.0,unique,paired,t_i_04_1.jpg,Travel,,,sub-15
Desktop or Laptop,Linux x86_64,Firefox 141.0,1440x810,1440x810,Temporal Distance Task,cb_07,50.0,temp_dist_trial,num_items,zn7si1,1.0,response,1_ITEM,905.6000000000058,899.2200000000012,905.6000000000058,905.6000000000058,899.2200000000012,905.6000000000058,1.0,0.0,0.0,,Click Response,1_count,3.0,object-46,temp_dist_trial,2.0,t_i_17_1,travel_Iceland,binoculars,7.0,unique,single,t_i_17_1.jpg,Travel,,,sub-15
Desktop or Laptop,Linux x86_64,Firefox 141.0,1440x810,1440x810,Temporal Distance Task,cb_07,51.0,temp_dist_trial,num_items,zn7si1,1.0,response,1_ITEM,828.7799999999988,816.0199999999895,828.7799999999988,828.7799999999988,816.0199999999895,828.7799999999988,1.0,0.0,0.0,,Click Response,1_count,3.0,object-46,temp_dist_trial,3.0,t_m_04_1,travel_Miami,UV jacket,7.0,unique,single,t_m_04_1.jpg,Travel,,,sub-15
Desktop or Laptop,Linux x86_64,Firefox 141.0,1440x810,1440x810,Temporal Distance Task,cb_07,52.0,temp_dist_trial,num_items,zn7si1,1.0,response,2_ITEM,2243.459999999992,2231.5,2243.459999999992,2243.459999999992,2231.5,2243.459999999992,1.0,0.0,0.0,,Click Response,2_count,5.0,object-49,temp_dist_trial,4.0,t_m_20_1,travel_Miami,inflatable beachball,7.0,unique,single,t_m_20_1.jpg,Travel,,,sub-15
Desktop or Laptop,Linux x86_64,Firefox 141.0,1440x810,1440x810,Temporal Distance Task,cb_07,52.0,temp_dist_trial,dist_items,qkpkxw,2.0,info,,8.420000000012807,0.0,8.420000000012807,8.420000000012807,0.0,8.420000000012807,1.0,0.0,0.0,,Slider,Slider,4.0,object-56,temp_dist_trial,4.0,t_m_20_1,travel_Miami,inflatable beachball,7.0,unique,single,t_m_20_1.jpg,Travel,,,sub-15
Desktop or Laptop,Linux x86_64,Firefox 141.0,1440x810,1440x810,Temporal Distance Task,cb_07,52.0,temp_dist_trial,dist_items,qkpkxw,2.0,continue,,2309.4200000000133,2297.820000000007,2309.4200000000133,2309.4200000000133,2297.820000000007,2309.4200000000133,1.0,0.0,0.0,,Click To Continue,Next button,7.0,object-60,temp_dist_trial,4.0,t_m_20_1,travel_Miami,inflatable beachball,7.0,unique,single,t_m_20_1.jpg,Travel,,,sub-15
Desktop or Laptop,Linux x86_64,Firefox 141.0,1440x810,1440x810,Temporal Distance Task,cb_07,52.0,temp_dist_trial,dist_items,qkpkxw,2.0,response,37,749.9000000000232,2297.820000000007,2311.4200000000133,749.9000000000232,2297.820000000007,2311.4200000000133,1.0,1561.5199999999895,0.0,,Slider,Slider,4.0,object-56,temp_dist_trial,4.0,t_m_20_1,travel_Miami,inflatable beachball,7.0,unique,single,t_m_20_1.jpg,Travel,,,sub-15
Desktop or Laptop,Linux x86_64,Firefox 141.0,1440x810,1440x810,Temporal Distance Task,cb_07,53.0,temp_dist_trial,num_items,zn7si1,1.0,response,1_ITEM,1407.6000000000058,1399.2799999999988,1407.6000000000058,1407.6000000000058,1399.2799999999988,1407.6000000000058,1.0,0.0,0.0,,Click Response,1_count,3.0,object-46,temp_dist_trial,5.0,t_s_24_1,travel_shared,ear plugs,7.0,competing,single,t_s_24_1.jpg,Travel,,,sub-15
Desktop or Laptop,Linux x86_64,Firefox 141.0,1440x810,1440x810,Temporal Distance Task,cb_07,54.0,temp_dist_trial,num_items,zn7si1,1.0,response,2_ITEM,1111.7999999999884,1099.5599999999977,1111.7999999999884,1111.7999999999884,1099.5599999999977,1111.7999999999884,1.0,0.0,0.0,,Click Response,2_count,5.0,object-49,temp_dist_trial,6.0,t_s_16_1,travel_shared,chapstick,7.0,competing,paired,t_s_16_1.jpg,Travel,,,sub-15
Desktop or Laptop,Linux x86_64,Firefox 141.0,1440x810,1440x810,Temporal Distance Task,cb_07,54.0,temp_dist_trial,dist_items,qkpkxw,2.0,info,,4.320000000006985,0.0,4.320000000006985,4.320000000006985,0.0,4.320000000006985,1.0,0.0,0.0,,Slider,Slider,4.0,object-56,temp_dist_trial,6.0,t_s_16_1,travel_shared,chapstick,7.0,competing,paired,t_s_16_1.jpg,Travel,,,sub-15
Desktop or Laptop,Linux x86_64,Firefox 141.0,1440x810,1440x810,Temporal Distance Task,cb_07,54.0,temp_dist_trial,dist_items,qkpkxw,2.0,continue,,2041.320000000007,2031.7600000000089,2041.320000000007,2041.320000000007,2031.7600000000089,2041.320000000007,1.0,0.0,0.0,,Click To Continue,Next button,7.0,object-60,temp_dist_trial,6.0,t_s_16_1,travel_shared,chapstick,7.0,competing,paired,t_s_16_1.jpg,Travel,,,sub-15
Desktop or Laptop,Linux x86_64,Firefox 141.0,1440x810,1440x810,Temporal Distance Task,cb_07,54.0,temp_dist_trial,dist_items,qkpkxw,2.0,response,69,649.3600000000151,2031.7600000000089,2041.320000000007,649.3600000000151,2031.7600000000089,2041.320000000007,1.0,1391.959999999992,0.0,,Slider,Slider,4.0,object-56,temp_dist_trial,6.0,t_s_16_1,travel_shared,chapstick,7.0,competing,paired,t_s_16_1.jpg,Travel,,,sub-15
Desktop or Laptop,Linux x86_64,Firefox 141.0,1440x810,1440x810,Temporal Distance Task,cb_07,55.0,temp_dist_trial,num_items,zn7si1,1.0,response,1_ITEM,1925.5599999999977,1914.6600000000033,1925.5599999999977,1925.5599999999977,1914.6600000000033,1925.5599999999977,1.0,0.0,0.0,,Click Response,1_count,3.0,object-46,temp_dist_trial,7.0,t_s_23_1,travel_shared,ball cap,7.0,competing,single,t_s_23_1.jpg,Travel,,,sub-15
Desktop or Laptop,Linux x86_64,Firefox 141.0,1440x810,1440x810,Temporal Distance Task,cb_07,56.0,temp_dist_trial,num_items,zn7si1,1.0,response,2_ITEM,1308.2999999999886,1299.0599999999977,1308.2999999999886,1308.2999999999886,1299.0599999999977,1308.2999999999886,1.0,0.0,0.0,,Click Response,2_count,5.0,object-49,temp_dist_trial,8.0,t_i_11_1,travel_Iceland,headlamp,7.0,unique,paired,t_i_11_1.jpg,Travel,,,sub-15
Desktop or Laptop,Linux x86_64,Firefox 141.0,1440x810,1440x810,Temporal Distance Task,cb_07,56.0,temp_dist_trial,dist_items,qkpkxw,2.0,info,,4.7999999999883585,0.0,4.7999999999883585,4.7999999999883585,0.0,4.7999999999883585,1.0,0.0,0.0,,Slider,Slider,4.0,object-56,temp_dist_trial,8.0,t_i_11_1,travel_Iceland,headlamp,7.0,unique,paired,t_i_11_1.jpg,Travel,,,sub-15
Desktop or Laptop,Linux x86_64,Firefox 141.0,1440x810,1440x810,Temporal Distance Task,cb_07,56.0,temp_dist_trial,dist_items,qkpkxw,2.0,continue,,2340.7999999999884,2331.739999999991,2340.7999999999884,2340.7999999999884,2331.739999999991,2340.7999999999884,1.0,0.0,0.0,,Click To Continue,Next button,7.0,object-60,temp_dist_trial,8.0,t_i_11_1,travel_Iceland,headlamp,7.0,unique,paired,t_i_11_1.jpg,Travel,,,sub-15
Desktop or Laptop,Linux x86_64,Firefox 141.0,1440x810,1440x810,Temporal Distance Task,cb_07,56.0,temp_dist_trial,dist_items,qkpkxw,2.0,response,39,915.9799999999814,2331.739999999991,2342.7999999999884,915.9799999999814,2331.739999999991,2342.7999999999884,1.0,1426.820000000007,0.0,,Slider,Slider,4.0,object-56,temp_dist_trial,8.0,t_i_11_1,travel_Iceland,headlamp,7.0,unique,paired,t_i_11_1.jpg,Travel,,,sub-15
Desktop or Laptop,Linux x86_64,Firefox 141.0,1440x810,1440x810,Temporal Distance Task,cb_07,57.0,temp_dist_trial,num_items,zn7si1,1.0,response,1_ITEM,1014.0599999999976,999.7000000000116,1014.0599999999976,1014.0599999999976,999.7000000000116,1014.0599999999976,1.0,0.0,0.0,,Click Response,1_count,3.0,object-46,temp_dist_trial,9.0,t_i_03_1,travel_Iceland,winter jacket,7.0,unique,single,t_i_03_1.jpg,Travel,,,sub-15
Desktop or Laptop,Linux x86_64,Firefox 141.0,1440x810,1440x810,Temporal Distance Task,cb_07,58.0,temp_dist_trial,num_items,zn7si1,1.0,response,2_ITEM,1033.5799999999872,1032.459999999992,1033.5799999999872,1033.5799999999872,1032.459999999992,1033.5799999999872,1.0,0.0,0.0,,Click Response,2_count,5.0,object-49,temp_dist_trial,10.0,t_i_12_1,travel_Iceland,tent,7.0,unique,paired,t_i_12_1.jpg,Travel,,,sub-15
Desktop or Laptop,Linux x86_64,Firefox 141.0,1440x810,1440x810,Temporal Distance Task,cb_07,58.0,temp_dist_trial,dist_items,qkpkxw,2.0,info,,4.559999999997672,0.0,4.559999999997672,4.559999999997672,0.0,4.559999999997672,1.0,0.0,0.0,,Slider,Slider,4.0,object-56,temp_dist_trial,10.0,t_i_12_1,travel_Iceland,tent,7.0,unique,paired,t_i_12_1.jpg,Travel,,,sub-15
Desktop or Laptop,Linux x86_64,Firefox 141.0,1440x810,1440x810,Temporal Distance Task,cb_07,58.0,temp_dist_trial,dist_items,qkpkxw,2.0,continue,,2408.5599999999977,2398.239999999991,2408.5599999999977,2408.5599999999977,2398.239999999991,2408.5599999999977,1.0,0.0,0.0,,Click To Continue,Next button,7.0,object-60,temp_dist_trial,10.0,t_i_12_1,travel_Iceland,tent,7.0,unique,paired,t_i_12_1.jpg,Travel,,,sub-15
Desktop or Laptop,Linux x86_64,Firefox 141.0,1440x810,1440x810,Temporal Distance Task,cb_07,58.0,temp_dist_trial,dist_items,qkpkxw,2.0,response,65,898.9800000000105,2398.239999999991,2409.5599999999977,898.9800000000105,2398.239999999991,2409.5599999999977,1.0,1510.5799999999872,0.0,,Slider,Slider,4.0,object-56,temp_dist_trial,10.0,t_i_12_1,travel_Iceland,tent,7.0,unique,paired,t_i_12_1.jpg,Travel,,,sub-15
Desktop or Laptop,Linux x86_64,Firefox 141.0,1440x810,1440x810,Temporal Distance Task,cb_07,59.0,temp_dist_trial,num_items,zn7si1,1.0,response,1_ITEM,1585.320000000007,1581.8800000000049,1585.320000000007,1585.320000000007,1581.8800000000049,1585.320000000007,1.0,0.0,0.0,,Click Response,1_count,3.0,object-46,temp_dist_trial,11.0,t_s_15_1,travel_shared,luggage tag,7.0,competing,single,t_s_15_1.jpg,Travel,,,sub-15
Desktop or Laptop,Linux x86_64,Firefox 141.0,1440x810,1440x810,Temporal Distance Task,cb_07,60.0,temp_dist_trial,num_items,zn7si1,1.0,response,2_ITEM,1413.8999999999942,1398.6000000000058,1413.8999999999942,1413.8999999999942,1398.6000000000058,1413.8999999999942,1.0,0.0,0.0,,Click Response,2_count,5.0,object-49,temp_dist_trial,12.0,t_m_05_1,travel_Miami,sunscreen,7.0,unique,paired,t_m_05_1.jpg,Travel,,,sub-15
Desktop or Laptop,Linux x86_64,Firefox 141.0,1440x810,1440x810,Temporal Distance Task,cb_07,60.0,temp_dist_trial,dist_items,qkpkxw,2.0,info,,6.0,0.0,6.0,6.0,0.0,6.0,1.0,0.0,0.0,,Slider,Slider,4.0,object-56,temp_dist_trial,12.0,t_m_05_1,travel_Miami,sunscreen,7.0,unique,paired,t_m_05_1.jpg,Travel,,,sub-15
Desktop or Laptop,Linux x86_64,Firefox 141.0,1440x810,1440x810,Temporal Distance Task,cb_07,60.0,temp_dist_trial,dist_items,qkpkxw,2.0,continue,,2191.0,2181.7200000000007,2191.0,2191.0,2181.7200000000007,2191.0,1.0,0.0,0.0,,Click To Continue,Next button,7.0,object-60,temp_dist_trial,12.0,t_m_05_1,travel_Miami,sunscreen,7.0,unique,paired,t_m_05_1.jpg,Travel,,,sub-15
Desktop or Laptop,Linux x86_64,Firefox 141.0,1440x810,1440x810,Temporal Distance Task,cb_07,60.0,temp_dist_trial,dist_items,qkpkxw,2.0,response,59,598.9200000000127,2181.7200000000007,2193.0,598.9200000000127,2181.7200000000007,2193.0,1.0,1594.0799999999872,0.0,,Slider,Slider,4.0,object-56,temp_dist_trial,12.0,t_m_05_1,travel_Miami,sunscreen,7.0,unique,paired,t_m_05_1.jpg,Travel,,,sub-15
Desktop or Laptop,Linux x86_64,Firefox 141.0,1440x810,1440x810,Temporal Distance Task,cb_07,61.0,temp_dist_trial,num_items,zn7si1,1.0,response,1_ITEM,1323.2799999999988,1314.820000000007,1323.2799999999988,1323.2799999999988,1314.820000000007,1323.2799999999988,1.0,0.0,0.0,,Click Response,1_count,3.0,object-46,temp_dist_trial,13.0,t_s_01_1,travel_shared,fanny pack,7.0,competing,single,t_s_01_1.jpg,Travel,,,sub-15
Desktop or Laptop,Linux x86_64,Firefox 141.0,1440x810,1440x810,Temporal Distance Task,cb_07,62.0,temp_dist_trial,num_items,zn7si1,1.0,response,2_ITEM,1086.8999999999942,1082.320000000007,1086.8999999999942,1086.8999999999942,1082.320000000007,1086.8999999999942,1.0,0.0,0.0,,Click Response,2_count,5.0,object-49,temp_dist_trial,14.0,t_m_09_1,travel_Miami,beach towel,7.0,unique,paired,t_m_09_1.jpg,Travel,,,sub-15
Desktop or Laptop,Linux x86_64,Firefox 141.0,1440x810,1440x810,Temporal Distance Task,cb_07,62.0,temp_dist_trial,dist_items,qkpkxw,2.0,info,,5.0,0.0,5.0,5.0,0.0,5.0,1.0,0.0,0.0,,Slider,Slider,4.0,object-56,temp_dist_trial,14.0,t_m_09_1,travel_Miami,beach towel,7.0,unique,paired,t_m_09_1.jpg,Travel,,,sub-15
Desktop or Laptop,Linux x86_64,Firefox 141.0,1440x810,1440x810,Temporal Distance Task,cb_07,62.0,temp_dist_trial,dist_items,qkpkxw,2.0,continue,,1977.0,1965.1600000000033,1977.0,1977.0,1965.1600000000033,1977.0,1.0,0.0,0.0,,Click To Continue,Next button,7.0,object-60,temp_dist_trial,14.0,t_m_09_1,travel_Miami,beach towel,7.0,unique,paired,t_m_09_1.jpg,Travel,,,sub-15
Desktop or Laptop,Linux x86_64,Firefox 141.0,1440x810,1440x810,Temporal Distance Task,cb_07,62.0,temp_dist_trial,dist_items,qkpkxw,2.0,response,40,582.679999999993,1965.1600000000033,1977.0,582.679999999993,1965.1600000000033,1977.0,1.0,1394.320000000007,0.0,,Slider,Slider,4.0,object-56,temp_dist_trial,14.0,t_m_09_1,travel_Miami,beach towel,7.0,unique,paired,t_m_09_1.jpg,Travel,,,sub-15
Desktop or Laptop,Linux x86_64,Firefox 141.0,1440x810,1440x810,Temporal Distance Task,cb_07,63.0,temp_dist_trial,num_items,zn7si1,1.0,response,1_ITEM,1098.0599999999686,1082.0199999999895,1098.0599999999686,1098.0599999999686,1082.0199999999895,1098.0599999999686,1.0,0.0,0.0,,Click Response,1_count,3.0,object-46,temp_dist_trial,15.0,t_m_07_1,travel_Miami,sunglasses,7.0,unique,paired,t_m_07_1.jpg,Travel,,,sub-15
Desktop or Laptop,Linux x86_64,Firefox 141.0,1440x810,1440x810,Temporal Distance Task,cb_07,64.0,temp_dist_trial,num_items,zn7si1,1.0,response,2_ITEM,1853.3800000000049,1848.4800000000105,1853.3800000000049,1853.3800000000049,1848.4800000000105,1853.3800000000049,1.0,0.0,0.0,,Click Response,2_count,5.0,object-49,temp_dist_trial,16.0,t_s_09_1,travel_shared,wallet,7.0,competing,paired,t_s_09_1.jpg,Travel,,,sub-15
Desktop or Laptop,Linux x86_64,Firefox 141.0,1440x810,1440x810,Temporal Distance Task,cb_07,64.0,temp_dist_trial,dist_items,qkpkxw,2.0,info,,6.299999999988358,0.0,6.299999999988358,6.299999999988358,0.0,6.299999999988358,1.0,0.0,0.0,,Slider,Slider,4.0,object-56,temp_dist_trial,16.0,t_s_09_1,travel_shared,wallet,7.0,competing,paired,t_s_09_1.jpg,Travel,,,sub-15
Desktop or Laptop,Linux x86_64,Firefox 141.0,1440x810,1440x810,Temporal Distance Task,cb_07,64.0,temp_dist_trial,dist_items,qkpkxw,2.0,continue,,3628.299999999989,3613.359999999986,3628.299999999989,3628.299999999989,3613.359999999986,3628.299999999989,1.0,0.0,0.0,,Click To Continue,Next button,7.0,object-60,temp_dist_trial,16.0,t_s_09_1,travel_shared,wallet,7.0,competing,paired,t_s_09_1.jpg,Travel,,,sub-15
Desktop or Laptop,Linux x86_64,Firefox 141.0,1440x810,1440x810,Temporal Distance Task,cb_07,64.0,temp_dist_trial,dist_items,qkpkxw,2.0,response,37,915.5799999999872,3613.359999999986,3629.499999999971,915.5799999999872,3613.359999999986,3629.499999999971,1.0,2713.919999999984,0.0,,Slider,Slider,4.0,object-56,temp_dist_trial,16.0,t_s_09_1,travel_shared,wallet,7.0,competing,paired,t_s_09_1.jpg,Travel,,,sub-15
Desktop or Laptop,Linux x86_64,Firefox 141.0,1440x810,1440x810,Temporal Distance Task,cb_07,65.0,temp_dist_trial,num_items,zn7si1,1.0,response,1_ITEM,1807.9400000000023,1799.0200000000186,1807.9400000000023,1807.9400000000023,1799.0200000000186,1807.9400000000023,1.0,0.0,0.0,,Click Response,1_count,3.0,object-46,temp_dist_trial,17.0,t_m_14_1,travel_Miami,swim goggles,7.0,unique,single,t_m_14_1.jpg,Travel,,,sub-15
Desktop or Laptop,Linux x86_64,Firefox 141.0,1440x810,1440x810,Temporal Distance Task,cb_07,66.0,temp_dist_trial,num_items,zn7si1,1.0,response,2_ITEM,1062.539999999979,1049.4199999999837,1062.539999999979,1062.539999999979,1049.4199999999837,1062.539999999979,1.0,0.0,0.0,,Click Response,2_count,5.0,object-49,temp_dist_trial,18.0,t_s_03_1,travel_shared,portable charger,7.0,competing,paired,t_s_03_1.jpg,Travel,,,sub-15
Desktop or Laptop,Linux x86_64,Firefox 141.0,1440x810,1440x810,Temporal Distance Task,cb_07,66.0,temp_dist_trial,dist_items,qkpkxw,2.0,info,,4.460000000020956,0.0,4.460000000020956,4.460000000020956,0.0,4.460000000020956,1.0,0.0,0.0,,Slider,Slider,4.0,object-56,temp_dist_trial,18.0,t_s_03_1,travel_shared,portable charger,7.0,competing,paired,t_s_03_1.jpg,Travel,,,sub-15
Desktop or Laptop,Linux x86_64,Firefox 141.0,1440x810,1440x810,Temporal Distance Task,cb_07,66.0,temp_dist_trial,dist_items,qkpkxw,2.0,continue,,3488.460000000021,3480.660000000033,3488.460000000021,3488.460000000021,3480.660000000033,3488.460000000021,1.0,0.0,0.0,,Click To Continue,Next button,7.0,object-60,temp_dist_trial,18.0,t_s_03_1,travel_shared,portable charger,7.0,competing,paired,t_s_03_1.jpg,Travel,,,sub-15
Desktop or Laptop,Linux x86_64,Firefox 141.0,1440x810,1440x810,Temporal Distance Task,cb_07,66.0,temp_dist_trial,dist_items,qkpkxw,2.0,response,61,2314.640000000014,3480.660000000033,3488.460000000021,2314.640000000014,3480.660000000033,3488.460000000021,1.0,1173.820000000007,0.0,,Slider,Slider,4.0,object-56,temp_dist_trial,18.0,t_s_03_1,travel_shared,portable charger,7.0,competing,paired,t_s_03_1.jpg,Travel,,,sub-15
Desktop or Laptop,Linux x86_64,Firefox 141.0,1440x810,1440x810,Temporal Distance Task,cb_07,67.0,temp_dist_trial,num_items,zn7si1,1.0,response,1_ITEM,2428.7999999999884,2414.140000000014,2428.7999999999884,2428.7999999999884,2414.140000000014,2428.7999999999884,1.0,0.0,0.0,,Click Response,1_count,3.0,object-46,temp_dist_trial,19.0,t_s_20_1,travel_shared,travel pill case,7.0,competing,paired,t_s_20_1.jpg,Travel,,,sub-15
Desktop or Laptop,Linux x86_64,Firefox 141.0,1440x810,1440x810,Temporal Distance Task,cb_07,68.0,temp_dist_trial,num_items,zn7si1,1.0,response,2_ITEM,969.2600000000093,965.6400000000141,969.2600000000093,969.2600000000093,965.6400000000141,969.2600000000093,1.0,0.0,0.0,,Click Response,2_count,5.0,object-49,temp_dist_trial,20.0,t_s_21_1,travel_shared,umbrella,7.0,competing,paired,t_s_21_1.jpg,Travel,,,sub-15
Desktop or Laptop,Linux x86_64,Firefox 141.0,1440x810,1440x810,Temporal Distance Task,cb_07,68.0,temp_dist_trial,dist_items,qkpkxw,2.0,info,,4.7199999999720585,0.0,4.7199999999720585,4.7199999999720585,0.0,4.7199999999720585,1.0,0.0,0.0,,Slider,Slider,4.0,object-56,temp_dist_trial,20.0,t_s_21_1,travel_shared,umbrella,7.0,competing,paired,t_s_21_1.jpg,Travel,,,sub-15
Desktop or Laptop,Linux x86_64,Firefox 141.0,1440x810,1440x810,Temporal Distance Task,cb_07,68.0,temp_dist_trial,dist_items,qkpkxw,2.0,continue,,2295.719999999972,2281.5,2295.719999999972,2295.719999999972,2281.5,2295.719999999972,1.0,0.0,0.0,,Click To Continue,Next button,7.0,object-60,temp_dist_trial,20.0,t_s_21_1,travel_shared,umbrella,7.0,competing,paired,t_s_21_1.jpg,Travel,,,sub-15
Desktop or Laptop,Linux x86_64,Firefox 141.0,1440x810,1440x810,Temporal Distance Task,cb_07,68.0,temp_dist_trial,dist_items,qkpkxw,2.0,response,31,849.1199999999952,2281.5,2295.719999999972,849.1199999999952,2281.5,2295.719999999972,1.0,1446.5999999999767,0.0,,Slider,Slider,4.0,object-56,temp_dist_trial,20.0,t_s_21_1,travel_shared,umbrella,7.0,competing,paired,t_s_21_1.jpg,Travel,,,sub-15
Desktop or Laptop,Linux x86_64,Firefox 141.0,1440x810,1440x810,Temporal Distance Task,cb_07,69.0,temp_dist_trial,num_items,zn7si1,1.0,response,2_ITEM,1211.2199999999718,1199.0199999999604,1211.2199999999718,1211.2199999999718,1199.0199999999604,1211.2199999999718,1.0,0.0,0.0,,Click Response,2_count,5.0,object-49,temp_dist_trial,21.0,t_i_16_1,travel_Iceland,skis,7.0,unique,paired,t_i_16_1.jpg,Travel,,,sub-15
Desktop or Laptop,Linux x86_64,Firefox 141.0,1440x810,1440x810,Temporal Distance Task,cb_07,69.0,temp_dist_trial,dist_items,qkpkxw,2.0,info,,6.599999999976717,0.0,6.599999999976717,6.599999999976717,0.0,6.599999999976717,1.0,0.0,0.0,,Slider,Slider,4.0,object-56,temp_dist_trial,21.0,t_i_16_1,travel_Iceland,skis,7.0,unique,paired,t_i_16_1.jpg,Travel,,,sub-15
Desktop or Laptop,Linux x86_64,Firefox 141.0,1440x810,1440x810,Temporal Distance Task,cb_07,69.0,temp_dist_trial,dist_items,qkpkxw,2.0,continue,,4168.599999999977,4162.959999999963,4168.599999999977,4168.599999999977,4162.959999999963,4168.599999999977,1.0,0.0,0.0,,Click To Continue,Next button,7.0,object-60,temp_dist_trial,21.0,t_i_16_1,travel_Iceland,skis,7.0,unique,paired,t_i_16_1.jpg,Travel,,,sub-15
Desktop or Laptop,Linux x86_64,Firefox 141.0,1440x810,1440x810,Temporal Distance Task,cb_07,69.0,temp_dist_trial,dist_items,qkpkxw,2.0,response,36,1115.4199999999837,4162.959999999963,4169.599999999977,1115.4199999999837,4162.959999999963,4169.599999999977,1.0,3054.1799999999935,0.0,,Slider,Slider,4.0,object-56,temp_dist_trial,21.0,t_i_16_1,travel_Iceland,skis,7.0,unique,paired,t_i_16_1.jpg,Travel,,,sub-15
Desktop or Laptop,Linux x86_64,Firefox 141.0,1440x810,1440x810,Temporal Distance Task,cb_07,70.0,temp_dist_trial,num_items,zn7si1,1.0,response,2_ITEM,957.6400000000141,949.679999999993,957.6400000000141,957.6400000000141,949.679999999993,957.6400000000141,1.0,0.0,0.0,,Click Response,2_count,5.0,object-49,temp_dist_trial,22.0,t_s_06_1,travel_shared,luggage,7.0,competing,paired,t_s_06_1.jpg,Travel,,,sub-15
Desktop or Laptop,Linux x86_64,Firefox 141.0,1440x810,1440x810,Temporal Distance Task,cb_07,70.0,temp_dist_trial,dist_items,qkpkxw,2.0,info,,4.820000000006985,0.0,4.820000000006985,4.820000000006985,0.0,4.820000000006985,1.0,0.0,0.0,,Slider,Slider,4.0,object-56,temp_dist_trial,22.0,t_s_06_1,travel_shared,luggage,7.0,competing,paired,t_s_06_1.jpg,Travel,,,sub-15
Desktop or Laptop,Linux x86_64,Firefox 141.0,1440x810,1440x810,Temporal Distance Task,cb_07,70.0,temp_dist_trial,dist_items,qkpkxw,2.0,continue,,1787.820000000007,1781.8800000000049,1787.820000000007,1787.820000000007,1781.8800000000049,1787.820000000007,1.0,0.0,0.0,,Click To Continue,Next button,7.0,object-60,temp_dist_trial,22.0,t_s_06_1,travel_shared,luggage,7.0,competing,paired,t_s_06_1.jpg,Travel,,,sub-15
Desktop or Laptop,Linux x86_64,Firefox 141.0,1440x810,1440x810,Temporal Distance Task,cb_07,70.0,temp_dist_trial,dist_items,qkpkxw,2.0,response,34,616.1199999999952,1781.8800000000049,1789.820000000007,616.1199999999952,1781.8800000000049,1789.820000000007,1.0,1173.7000000000114,0.0,,Slider,Slider,4.0,object-56,temp_dist_trial,22.0,t_s_06_1,travel_shared,luggage,7.0,competing,paired,t_s_06_1.jpg,Travel,,,sub-15
Desktop or Laptop,Linux x86_64,Firefox 141.0,1440x810,1440x810,Temporal Distance Task,cb_07,71.0,temp_dist_trial,num_items,zn7si1,1.0,response,2_ITEM,1737.9400000000023,1732.140000000014,1737.9400000000023,1737.9400000000023,1732.140000000014,1737.9400000000023,1.0,0.0,0.0,,Click Response,2_count,5.0,object-49,temp_dist_trial,23.0,t_s_05_1,travel_shared,neck pillow,7.0,competing,paired,t_s_05_1.jpg,Travel,,,sub-15
Desktop or Laptop,Linux x86_64,Firefox 141.0,1440x810,1440x810,Temporal Distance Task,cb_07,71.0,temp_dist_trial,dist_items,qkpkxw,2.0,info,,5.239999999990687,0.0,5.239999999990687,5.239999999990687,0.0,5.239999999990687,1.0,0.0,0.0,,Slider,Slider,4.0,object-56,temp_dist_trial,23.0,t_s_05_1,travel_shared,neck pillow,7.0,competing,paired,t_s_05_1.jpg,Travel,,,sub-15
Desktop or Laptop,Linux x86_64,Firefox 141.0,1440x810,1440x810,Temporal Distance Task,cb_07,71.0,temp_dist_trial,dist_items,qkpkxw,2.0,continue,,1754.2399999999911,1748.4599999999627,1754.2399999999911,1754.2399999999911,1748.4599999999627,1754.2399999999911,1.0,0.0,0.0,,Click To Continue,Next button,7.0,object-60,temp_dist_trial,23.0,t_s_05_1,travel_shared,neck pillow,7.0,competing,paired,t_s_05_1.jpg,Travel,,,sub-15
Desktop or Laptop,Linux x86_64,Firefox 141.0,1440x810,1440x810,Temporal Distance Task,cb_07,71.0,temp_dist_trial,dist_items,qkpkxw,2.0,response,31,683.0999999999767,1748.4599999999627,1754.2399999999911,683.0999999999767,1748.4599999999627,1754.2399999999911,1.0,1071.140000000014,0.0,,Slider,Slider,4.0,object-56,temp_dist_trial,23.0,t_s_05_1,travel_shared,neck pillow,7.0,competing,paired,t_s_05_1.jpg,Travel,,,sub-15
Desktop or Laptop,Linux x86_64,Firefox 141.0,1440x810,1440x810,Temporal Distance Task,cb_07,72.0,temp_dist_trial,num_items,zn7si1,1.0,response,2_ITEM,2357.780000000028,2348.320000000007,2357.780000000028,2357.780000000028,2348.320000000007,2357.780000000028,1.0,0.0,0.0,,Click Response,2_count,5.0,object-49,temp_dist_trial,24.0,t_s_12_1,travel_shared,clear toiletry bag,7.0,competing,paired,t_s_12_1.jpg,Travel,,,sub-15
Desktop or Laptop,Linux x86_64,Firefox 141.0,1440x810,1440x810,Temporal Distance Task,cb_07,72.0,temp_dist_trial,dist_items,qkpkxw,2.0,info,,4.960000000020956,0.0,4.960000000020956,4.960000000020956,0.0,4.960000000020956,1.0,0.0,0.0,,Slider,Slider,4.0,object-56,temp_dist_trial,24.0,t_s_12_1,travel_shared,clear toiletry bag,7.0,competing,paired,t_s_12_1.jpg,Travel,,,sub-15
Desktop or Laptop,Linux x86_64,Firefox 141.0,1440x810,1440x810,Temporal Distance Task,cb_07,72.0,temp_dist_trial,dist_items,qkpkxw,2.0,continue,,1630.960000000021,1615.3800000000049,1630.960000000021,1630.960000000021,1615.3800000000049,1630.960000000021,1.0,0.0,0.0,,Click To Continue,Next button,7.0,object-60,temp_dist_trial,24.0,t_s_12_1,travel_shared,clear toiletry bag,7.0,competing,paired,t_s_12_1.jpg,Travel,,,sub-15
Desktop or Laptop,Linux x86_64,Firefox 141.0,1440x810,1440x810,Temporal Distance Task,cb_07,72.0,temp_dist_trial,dist_items,qkpkxw,2.0,response,29,616.1199999999952,1615.3800000000049,1630.960000000021,616.1199999999952,1615.3800000000049,1630.960000000021,1.0,1014.8400000000256,0.0,,Slider,Slider,4.0,object-56,temp_dist_trial,24.0,t_s_12_1,travel_shared,clear toiletry bag,7.0,competing,paired,t_s_12_1.jpg,Travel,,,sub-15
Desktop or Laptop,Linux x86_64,Firefox 141.0,1440x810,1440x810,Temporal Distance Task,cb_07,73.0,temp_dist_trial,num_items,zn7si1,1.0,response,1_ITEM,1346.5800000000165,1332.8800000000047,1346.5800000000165,1346.5800000000165,1332.8800000000047,1346.5800000000165,1.0,0.0,0.0,,Click Response,1_count,3.0,object-46,temp_dist_trial,25.0,t_s_10_1,travel_shared,luggage lock,7.0,competing,single,t_s_10_1.jpg,Travel,,,sub-15
Desktop or Laptop,Linux x86_64,Firefox 141.0,1440x810,1440x810,Temporal Distance Task,cb_07,74.0,temp_dist_trial,num_items,zn7si1,1.0,response,2_ITEM,2716.3800000000047,2714.679999999993,2716.3800000000047,2716.3800000000047,2714.679999999993,2716.3800000000047,1.0,0.0,0.0,,Click Response,2_count,5.0,object-49,temp_dist_trial,26.0,t_s_22_1,travel_shared,belt,7.0,competing,paired,t_s_22_1.jpg,Travel,,,sub-15
Desktop or Laptop,Linux x86_64,Firefox 141.0,1440x810,1440x810,Temporal Distance Task,cb_07,74.0,temp_dist_trial,dist_items,qkpkxw,2.0,info,,5.2199999999720585,0.0,5.2199999999720585,5.2199999999720585,0.0,5.2199999999720585,1.0,0.0,0.0,,Slider,Slider,4.0,object-56,temp_dist_trial,26.0,t_s_22_1,travel_shared,belt,7.0,competing,paired,t_s_22_1.jpg,Travel,,,sub-15
Desktop or Laptop,Linux x86_64,Firefox 141.0,1440x810,1440x810,Temporal Distance Task,cb_07,74.0,temp_dist_trial,dist_items,qkpkxw,2.0,continue,,2392.219999999972,2381.779999999969,2392.219999999972,2392.219999999972,2381.779999999969,2392.219999999972,1.0,0.0,0.0,,Click To Continue,Next button,7.0,object-60,temp_dist_trial,26.0,t_s_22_1,travel_shared,belt,7.0,competing,paired,t_s_22_1.jpg,Travel,,,sub-15
Desktop or Laptop,Linux x86_64,Firefox 141.0,1440x810,1440x810,Temporal Distance Task,cb_07,74.0,temp_dist_trial,dist_items,qkpkxw,2.0,response,32,1016.1999999999533,2381.779999999969,2393.219999999972,1016.1999999999533,2381.779999999969,2393.219999999972,1.0,1377.0200000000186,0.0,,Slider,Slider,4.0,object-56,temp_dist_trial,26.0,t_s_22_1,travel_shared,belt,7.0,competing,paired,t_s_22_1.jpg,Travel,,,sub-15
Desktop or Laptop,Linux x86_64,Firefox 141.0,1440x810,1440x810,Temporal Distance Task,cb_07,75.0,temp_dist_trial,num_items,zn7si1,1.0,response,2_ITEM,1507.4400000000023,1498.2000000000116,1507.4400000000023,1507.4400000000023,1498.2000000000116,1507.4400000000023,1.0,0.0,0.0,,Click Response,2_count,5.0,object-49,temp_dist_trial,27.0,t_s_07_1,travel_shared,phone charger cable,7.0,competing,paired,t_s_07_1.jpg,Travel,,,sub-15
Desktop or Laptop,Linux x86_64,Firefox 141.0,1440x810,1440x810,Temporal Distance Task,cb_07,75.0,temp_dist_trial,dist_items,qkpkxw,2.0,info,,5.919999999983702,0.0,5.919999999983702,5.919999999983702,0.0,5.919999999983702,1.0,0.0,0.0,,Slider,Slider,4.0,object-56,temp_dist_trial,27.0,t_s_07_1,travel_shared,phone charger cable,7.0,competing,paired,t_s_07_1.jpg,Travel,,,sub-15
Desktop or Laptop,Linux x86_64,Firefox 141.0,1440x810,1440x810,Temporal Distance Task,cb_07,75.0,temp_dist_trial,dist_items,qkpkxw,2.0,continue,,2638.919999999984,2631.279999999969,2638.919999999984,2638.919999999984,2631.279999999969,2638.919999999984,1.0,0.0,0.0,,Click To Continue,Next button,7.0,object-60,temp_dist_trial,27.0,t_s_07_1,travel_shared,phone charger cable,7.0,competing,paired,t_s_07_1.jpg,Travel,,,sub-15
Desktop or Laptop,Linux x86_64,Firefox 141.0,1440x810,1440x810,Temporal Distance Task,cb_07,75.0,temp_dist_trial,dist_items,qkpkxw,2.0,response,61,915.820000000007,2631.279999999969,2638.919999999984,915.820000000007,2631.279999999969,2638.919999999984,1.0,1723.0999999999767,0.0,,Slider,Slider,4.0,object-56,temp_dist_trial,27.0,t_s_07_1,travel_shared,phone charger cable,7.0,competing,paired,t_s_07_1.jpg,Travel,,,sub-15
Desktop or Laptop,Linux x86_64,Firefox 141.0,1440x810,1440x810,Temporal Distance Task,cb_07,76.0,temp_dist_trial,num_items,zn7si1,1.0,response,1_ITEM,987.6400000000141,982.7399999999907,987.6400000000141,987.6400000000141,982.7399999999907,987.6400000000141,1.0,0.0,0.0,,Click Response,1_count,3.0,object-46,temp_dist_trial,28.0,t_m_03_1,travel_Miami,wetsuit,7.0,unique,paired,t_m_03_1.jpg,Travel,,,sub-15
Desktop or Laptop,Linux x86_64,Firefox 141.0,1440x810,1440x810,Temporal Distance Task,cb_07,77.0,temp_dist_trial,num_items,zn7si1,1.0,response,2_ITEM,1221.359999999986,1214.9799999999816,1221.359999999986,1221.359999999986,1214.9799999999816,1221.359999999986,1.0,0.0,0.0,,Click Response,2_count,5.0,object-49,temp_dist_trial,29.0,t_s_02_1,travel_shared,water bottle,7.0,competing,paired,t_s_02_1.jpg,Travel,,,sub-15
Desktop or Laptop,Linux x86_64,Firefox 141.0,1440x810,1440x810,Temporal Distance Task,cb_07,77.0,temp_dist_trial,dist_items,qkpkxw,2.0,info,,7.179999999993013,0.0,7.179999999993013,7.179999999993013,0.0,7.179999999993013,1.0,0.0,0.0,,Slider,Slider,4.0,object-56,temp_dist_trial,29.0,t_s_02_1,travel_shared,water bottle,7.0,competing,paired,t_s_02_1.jpg,Travel,,,sub-15
Desktop or Laptop,Linux x86_64,Firefox 141.0,1440x810,1440x810,Temporal Distance Task,cb_07,77.0,temp_dist_trial,dist_items,qkpkxw,2.0,continue,,1952.179999999993,1948.1199999999953,1952.179999999993,1952.179999999993,1948.1199999999953,1952.179999999993,1.0,0.0,0.0,,Click To Continue,Next button,7.0,object-60,temp_dist_trial,29.0,t_s_02_1,travel_shared,water bottle,7.0,competing,paired,t_s_02_1.jpg,Travel,,,sub-15
Desktop or Laptop,Linux x86_64,Firefox 141.0,1440x810,1440x810,Temporal Distance Task,cb_07,77.0,temp_dist_trial,dist_items,qkpkxw,2.0,response,81,699.3800000000048,1948.1199999999953,1953.179999999993,699.3800000000048,1948.1199999999953,1953.179999999993,1.0,1253.7999999999886,0.0,,Slider,Slider,4.0,object-56,temp_dist_trial,29.0,t_s_02_1,travel_shared,water bottle,7.0,competing,paired,t_s_02_1.jpg,Travel,,,sub-15
Desktop or Laptop,Linux x86_64,Firefox 141.0,1440x810,1440x810,Temporal Distance Task,cb_07,78.0,temp_dist_trial,num_items,zn7si1,1.0,response,2_ITEM,1107.0599999999977,1099.179999999993,1107.0599999999977,1107.0599999999977,1099.179999999993,1107.0599999999977,1.0,0.0,0.0,,Click Response,2_count,5.0,object-49,temp_dist_trial,30.0,t_s_14_1,travel_shared,hand sanitizer,7.0,competing,paired,t_s_14_1.jpg,Travel,,,sub-15
Desktop or Laptop,Linux x86_64,Firefox 141.0,1440x810,1440x810,Temporal Distance Task,cb_07,78.0,temp_dist_trial,dist_items,qkpkxw,2.0,info,,7.35999999998603,0.0,7.35999999998603,7.35999999998603,0.0,7.35999999998603,1.0,0.0,0.0,,Slider,Slider,4.0,object-56,temp_dist_trial,30.0,t_s_14_1,travel_shared,hand sanitizer,7.0,competing,paired,t_s_14_1.jpg,Travel,,,sub-15
Desktop or Laptop,Linux x86_64,Firefox 141.0,1440x810,1440x810,Temporal Distance Task,cb_07,78.0,temp_dist_trial,dist_items,qkpkxw,2.0,continue,,1779.359999999986,1765.2000000000116,1779.359999999986,1779.359999999986,1765.2000000000116,1779.359999999986,1.0,0.0,0.0,,Click To Continue,Next button,7.0,object-60,temp_dist_trial,30.0,t_s_14_1,travel_shared,hand sanitizer,7.0,competing,paired,t_s_14_1.jpg,Travel,,,sub-15
Desktop or Laptop,Linux x86_64,Firefox 141.0,1440x810,1440x810,Temporal Distance Task,cb_07,78.0,temp_dist_trial,dist_items,qkpkxw,2.0,response,68,815.9199999999838,1765.2000000000116,1779.359999999986,815.9199999999838,1765.2000000000116,1779.359999999986,1.0,963.4400000000024,0.0,,Slider,Slider,4.0,object-56,temp_dist_trial,30.0,t_s_14_1,travel_shared,hand sanitizer,7.0,competing,paired,t_s_14_1.jpg,Travel,,,sub-15
Desktop or Laptop,Linux x86_64,Firefox 141.0,1440x810,1440x810,Temporal Distance Task,cb_07,79.0,temp_dist_trial,num_items,zn7si1,1.0,response,1_ITEM,1149.1599999999746,1148.5999999999767,1149.1599999999746,1149.1599999999746,1148.5999999999767,1149.1599999999746,1.0,0.0,0.0,,Click Response,1_count,3.0,object-46,temp_dist_trial,31.0,t_m_10_1,travel_Miami,tanktop,7.0,unique,single,t_m_10_1.jpg,Travel,,,sub-15
Desktop or Laptop,Linux x86_64,Firefox 141.0,1440x810,1440x810,Temporal Distance Task,cb_07,80.0,temp_dist_trial,num_items,zn7si1,1.0,response,2_ITEM,1442.0800000000165,1432.9200000000421,1442.0800000000165,1442.0800000000165,1432.9200000000421,1442.0800000000165,1.0,0.0,0.0,,Click Response,2_count,5.0,object-49,temp_dist_trial,32.0,t_m_11_1,travel_Miami,collapsible beach chair,7.0,unique,paired,t_m_11_1.jpg,Travel,,,sub-15
Desktop or Laptop,Linux x86_64,Firefox 141.0,1440x810,1440x810,Temporal Distance Task,cb_07,80.0,temp_dist_trial,dist_items,qkpkxw,2.0,info,,4.85999999998603,0.0,4.85999999998603,4.85999999998603,0.0,4.85999999998603,1.0,0.0,0.0,,Slider,Slider,4.0,object-56,temp_dist_trial,32.0,t_m_11_1,travel_Miami,collapsible beach chair,7.0,unique,paired,t_m_11_1.jpg,Travel,,,sub-15
Desktop or Laptop,Linux x86_64,Firefox 141.0,1440x810,1440x810,Temporal Distance Task,cb_07,80.0,temp_dist_trial,dist_items,qkpkxw,2.0,continue,,1683.859999999986,1682.4400000000023,1683.859999999986,1683.859999999986,1682.4400000000023,1683.859999999986,1.0,0.0,0.0,,Click To Continue,Next button,7.0,object-60,temp_dist_trial,32.0,t_m_11_1,travel_Miami,collapsible beach chair,7.0,unique,paired,t_m_11_1.jpg,Travel,,,sub-15
Desktop or Laptop,Linux x86_64,Firefox 141.0,1440x810,1440x810,Temporal Distance Task,cb_07,80.0,temp_dist_trial,dist_items,qkpkxw,2.0,response,28,516.5,1682.4400000000023,1684.859999999986,516.5,1682.4400000000023,1684.859999999986,1.0,1168.359999999986,0.0,,Slider,Slider,4.0,object-56,temp_dist_trial,32.0,t_m_11_1,travel_Miami,collapsible beach chair,7.0,unique,paired,t_m_11_1.jpg,Travel,,,sub-15
Desktop or Laptop,Linux x86_64,Firefox 141.0,1440x810,1440x810,Temporal Distance Task,cb_07,81.0,temp_dist_trial,num_items,zn7si1,1.0,response,2_ITEM,1112.4199999999837,1098.7199999999718,1112.4199999999837,1112.4199999999837,1098.7199999999718,1112.4199999999837,1.0,0.0,0.0,,Click Response,2_count,5.0,object-49,temp_dist_trial,33.0,t_s_08_1,travel_shared,hand lotion,7.0,competing,paired,t_s_08_1.jpg,Travel,,,sub-15
Desktop or Laptop,Linux x86_64,Firefox 141.0,1440x810,1440x810,Temporal Distance Task,cb_07,81.0,temp_dist_trial,dist_items,qkpkxw,2.0,info,,4.28000000002794,0.0,4.28000000002794,4.28000000002794,0.0,4.28000000002794,1.0,0.0,0.0,,Slider,Slider,4.0,object-56,temp_dist_trial,33.0,t_s_08_1,travel_shared,hand lotion,7.0,competing,paired,t_s_08_1.jpg,Travel,,,sub-15
Desktop or Laptop,Linux x86_64,Firefox 141.0,1440x810,1440x810,Temporal Distance Task,cb_07,81.0,temp_dist_trial,dist_items,qkpkxw,2.0,continue,,2821.280000000028,2814.200000000012,2821.280000000028,2821.280000000028,2814.200000000012,2821.280000000028,1.0,0.0,0.0,,Click To Continue,Next button,7.0,object-60,temp_dist_trial,33.0,t_s_08_1,travel_shared,hand lotion,7.0,competing,paired,t_s_08_1.jpg,Travel,,,sub-15
Desktop or Laptop,Linux x86_64,Firefox 141.0,1440x810,1440x810,Temporal Distance Task,cb_07,81.0,temp_dist_trial,dist_items,qkpkxw,2.0,response,41,866.6000000000349,2814.200000000012,2822.280000000028,866.6000000000349,2814.200000000012,2822.280000000028,1.0,1955.679999999993,0.0,,Slider,Slider,4.0,object-56,temp_dist_trial,33.0,t_s_08_1,travel_shared,hand lotion,7.0,competing,paired,t_s_08_1.jpg,Travel,,,sub-15
Desktop or Laptop,Linux x86_64,Firefox 141.0,1440x810,1440x810,Temporal Distance Task,cb_07,82.0,temp_dist_trial,num_items,zn7si1,1.0,response,1_ITEM,1243.0800000000165,1232.600000000035,1243.0800000000165,1243.0800000000165,1232.600000000035,1243.0800000000165,1.0,0.0,0.0,,Click Response,1_count,3.0,object-46,temp_dist_trial,34.0,t_i_07_1,travel_Iceland,hiking backpack,7.0,unique,single,t_i_07_1.jpg,Travel,,,sub-15
Desktop or Laptop,Linux x86_64,Firefox 141.0,1440x810,1440x810,Temporal Distance Task,cb_07,83.0,temp_dist_trial,num_items,zn7si1,1.0,response,2_ITEM,978.820000000007,966.5800000000163,978.820000000007,978.820000000007,966.5800000000163,978.820000000007,1.0,0.0,0.0,,Click Response,2_count,5.0,object-49,temp_dist_trial,35.0,t_s_18_1,travel_shared,first aid kit,7.0,competing,paired,t_s_18_1.jpg,Travel,,,sub-15
Desktop or Laptop,Linux x86_64,Firefox 141.0,1440x810,1440x810,Temporal Distance Task,cb_07,83.0,temp_dist_trial,dist_items,qkpkxw,2.0,info,,7.739999999990688,0.0,7.739999999990688,7.739999999990688,0.0,7.739999999990688,1.0,0.0,0.0,,Slider,Slider,4.0,object-56,temp_dist_trial,35.0,t_s_18_1,travel_shared,first aid kit,7.0,competing,paired,t_s_18_1.jpg,Travel,,,sub-15
Desktop or Laptop,Linux x86_64,Firefox 141.0,1440x810,1440x810,Temporal Distance Task,cb_07,83.0,temp_dist_trial,dist_items,qkpkxw,2.0,continue,,1814.7399999999911,1798.640000000014,1814.7399999999911,1814.7399999999911,1798.640000000014,1814.7399999999911,1.0,0.0,0.0,,Click To Continue,Next button,7.0,object-60,temp_dist_trial,35.0,t_s_18_1,travel_shared,first aid kit,7.0,competing,paired,t_s_18_1.jpg,Travel,,,sub-15
Desktop or Laptop,Linux x86_64,Firefox 141.0,1440x810,1440x810,Temporal Distance Task,cb_07,83.0,temp_dist_trial,dist_items,qkpkxw,2.0,response,29,632.3999999999653,1798.640000000014,1814.7399999999911,632.3999999999653,1798.640000000014,1814.7399999999911,1.0,1182.3400000000254,0.0,,Slider,Slider,4.0,object-56,temp_dist_trial,35.0,t_s_18_1,travel_shared,first aid kit,7.0,competing,paired,t_s_18_1.jpg,Travel,,,sub-15
Desktop or Laptop,Linux x86_64,Firefox 141.0,1440x810,1440x810,Temporal Distance Task,cb_07,84.0,temp_dist_trial,num_items,zn7si1,1.0,response,1_ITEM,1227.0999999999767,1215.6999999999534,1227.0999999999767,1227.0999999999767,1215.6999999999534,1227.0999999999767,1.0,0.0,0.0,,Click Response,1_count,3.0,object-46,temp_dist_trial,36.0,t_i_14_1,travel_Iceland,snow pants,7.0,unique,paired,t_i_14_1.jpg,Travel,,,sub-15
Desktop or Laptop,Linux x86_64,Firefox 141.0,1440x810,1440x810,Temporal Distance Task,cb_07,85.0,temp_dist_trial,num_items,zn7si1,1.0,response,1_ITEM,1171.859999999986,1166.0,1171.859999999986,1171.859999999986,1166.0,1171.859999999986,1.0,0.0,0.0,,Click Response,1_count,3.0,object-46,temp_dist_trial,37.0,t_i_01_1,travel_Iceland,gloves,7.0,unique,paired,t_i_01_1.jpg,Travel,,,sub-15
Desktop or Laptop,Linux x86_64,Firefox 141.0,1440x810,1440x810,Temporal Distance Task,cb_07,86.0,temp_dist_trial,num_items,zn7si1,1.0,response,2_ITEM,1678.4000000000233,1665.6000000000354,1678.4000000000233,1678.4000000000233,1665.6000000000354,1678.4000000000233,1.0,0.0,0.0,,Click Response,2_count,5.0,object-49,temp_dist_trial,38.0,t_i_18_1,travel_Iceland,ski mask,7.0,unique,paired,t_i_18_1.jpg,Travel,,,sub-15
Desktop or Laptop,Linux x86_64,Firefox 141.0,1440x810,1440x810,Temporal Distance Task,cb_07,86.0,temp_dist_trial,dist_items,qkpkxw,2.0,info,,6.2199999999720585,0.0,6.2199999999720585,6.2199999999720585,0.0,6.2199999999720585,1.0,0.0,0.0,,Slider,Slider,4.0,object-56,temp_dist_trial,38.0,t_i_18_1,travel_Iceland,ski mask,7.0,unique,paired,t_i_18_1.jpg,Travel,,,sub-15
Desktop or Laptop,Linux x86_64,Firefox 141.0,1440x810,1440x810,Temporal Distance Task,cb_07,86.0,temp_dist_trial,dist_items,qkpkxw,2.0,continue,,2226.219999999972,2214.419999999984,2226.219999999972,2226.219999999972,2214.419999999984,2226.219999999972,1.0,0.0,0.0,,Click To Continue,Next button,7.0,object-60,temp_dist_trial,38.0,t_i_18_1,travel_Iceland,ski mask,7.0,unique,paired,t_i_18_1.jpg,Travel,,,sub-15
Desktop or Laptop,Linux x86_64,Firefox 141.0,1440x810,1440x810,Temporal Distance Task,cb_07,86.0,temp_dist_trial,dist_items,qkpkxw,2.0,response,19,882.179999999993,2214.419999999984,2228.219999999972,882.179999999993,2214.419999999984,2228.219999999972,1.0,1346.039999999979,0.0,,Slider,Slider,4.0,object-56,temp_dist_trial,38.0,t_i_18_1,travel_Iceland,ski mask,7.0,unique,paired,t_i_18_1.jpg,Travel,,,sub-15
Desktop or Laptop,Linux x86_64,Firefox 141.0,1440x810,1440x810,Temporal Distance Task,cb_07,87.0,temp_dist_trial,num_items,zn7si1,1.0,response,2_ITEM,2237.7999999999884,2231.5599999999977,2237.7999999999884,2237.7999999999884,2231.5599999999977,2237.7999999999884,1.0,0.0,0.0,,Click Response,2_count,5.0,object-49,temp_dist_trial,39.0,t_m_06_1,travel_Miami,handheld fan,7.0,unique,paired,t_m_06_1.jpg,Travel,,,sub-15
Desktop or Laptop,Linux x86_64,Firefox 141.0,1440x810,1440x810,Temporal Distance Task,cb_07,87.0,temp_dist_trial,dist_items,qkpkxw,2.0,info,,4.7999999999883585,0.0,4.7999999999883585,4.7999999999883585,0.0,4.7999999999883585,1.0,0.0,0.0,,Slider,Slider,4.0,object-56,temp_dist_trial,39.0,t_m_06_1,travel_Miami,handheld fan,7.0,unique,paired,t_m_06_1.jpg,Travel,,,sub-15
Desktop or Laptop,Linux x86_64,Firefox 141.0,1440x810,1440x810,Temporal Distance Task,cb_07,87.0,temp_dist_trial,dist_items,qkpkxw,2.0,continue,,2817.7999999999884,2814.3399999999683,2817.7999999999884,2817.7999999999884,2814.3399999999683,2817.7999999999884,1.0,0.0,0.0,,Click To Continue,Next button,7.0,object-60,temp_dist_trial,39.0,t_m_06_1,travel_Miami,handheld fan,7.0,unique,paired,t_m_06_1.jpg,Travel,,,sub-15
Desktop or Laptop,Linux x86_64,Firefox 141.0,1440x810,1440x810,Temporal Distance Task,cb_07,87.0,temp_dist_trial,dist_items,qkpkxw,2.0,response,43,848.820000000007,2814.3399999999683,2818.7999999999884,848.820000000007,2814.3399999999683,2818.7999999999884,1.0,1969.9799999999814,0.0,,Slider,Slider,4.0,object-56,temp_dist_trial,39.0,t_m_06_1,travel_Miami,handheld fan,7.0,unique,paired,t_m_06_1.jpg,Travel,,,sub-15
Desktop or Laptop,Linux x86_64,Firefox 141.0,1440x810,1440x810,Temporal Distance Task,cb_07,88.0,temp_dist_trial,num_items,zn7si1,1.0,response,2_ITEM,1427.460000000021,1415.5800000000165,1427.460000000021,1427.460000000021,1415.5800000000165,1427.460000000021,1.0,0.0,0.0,,Click Response,2_count,5.0,object-49,temp_dist_trial,40.0,t_i_06_1,travel_Iceland,knit hat,7.0,unique,paired,t_i_06_1.jpg,Travel,,,sub-15
Desktop or Laptop,Linux x86_64,Firefox 141.0,1440x810,1440x810,Temporal Distance Task,cb_07,88.0,temp_dist_trial,dist_items,qkpkxw,2.0,info,,5.5,0.0,5.5,5.5,0.0,5.5,1.0,0.0,0.0,,Slider,Slider,4.0,object-56,temp_dist_trial,40.0,t_i_06_1,travel_Iceland,knit hat,7.0,unique,paired,t_i_06_1.jpg,Travel,,,sub-15
Desktop or Laptop,Linux x86_64,Firefox 141.0,1440x810,1440x810,Temporal Distance Task,cb_07,88.0,temp_dist_trial,dist_items,qkpkxw,2.0,continue,,1896.5,1882.0800000000165,1896.5,1896.5,1882.0800000000165,1896.5,1.0,0.0,0.0,,Click To Continue,Next button,7.0,object-60,temp_dist_trial,40.0,t_i_06_1,travel_Iceland,knit hat,7.0,unique,paired,t_i_06_1.jpg,Travel,,,sub-15
