Participant Device,Participant OS,Participant Browser,Participant Monitor Size,Participant Viewport Size,Task Name,Current Spreadsheet,Trial Number,Display,Screen,Screen ID,Screen Counter,Response Type,Response,Onset Time,Clock Time,Reaction Time,Absolute Onset Time,Absolute Clock Time,Absolute Reaction Time,Correct,Response Duration,Proportion,Tag,Component Name,Object Name,Object Number,Object ID,Spreadsheet: display,Spreadsheet: trial,Spreadsheet: stimulus_id,Spreadsheet: expected_goal,Spreadsheet: stimulus_name,Spreadsheet: c_group,Spreadsheet: condition,Spreadsheet: paired_status,Spreadsheet: stimulus_path,Spreadsheet: block_type,Manipulation: Spreadsheet,Store: enc_test_acc,sub_label
Desktop or Laptop,Windows 10,Chrome 138.0.0.0,1280x720,1707x735,Temporal Distance Task,$${counterbalance_group},,,,,,info,BEGIN,,,,,,,0.0,,,,,,,,,,,,,,,,,,,,sub-12
Desktop or Laptop,Windows 10,Chrome 138.0.0.0,1280x720,1707x735,Temporal Distance Task,cb_08,1.0,temp_instructions,intro_screen,3tnme7,1.0,continue,,15241.399999976155,15238.1,15241.399999976155,15241.399999976155,15238.1,15241.399999976155,1.0,0.0,0.0,,Click To Continue,Continue Button,4.0,object-29,temp_instructions,,,Travel,,,,,,,,,sub-12
Desktop or Laptop,Windows 10,Chrome 138.0.0.0,1280x720,1707x735,Temporal Distance Task,cb_08,1.0,temp_instructions,intro_screen_2,52v7ur,2.0,continue,,11955.20000001192,11952.9,11955.20000001192,11955.20000001192,11952.9,11955.20000001192,1.0,0.0,0.0,,Click To Continue,Continue Button,4.0,object-39,temp_instructions,,,Travel,,,,,,,,,sub-12
Desktop or Laptop,Windows 10,Chrome 138.0.0.0,1280x720,1707x735,Temporal Distance Task,cb_08,1.0,temp_instructions,intro_screen_3,i7lvwx,3.0,continue,,5001.600000023842,5000.5999999999985,5001.600000023842,5001.600000023842,5000.5999999999985,5001.600000023842,1.0,0.0,0.0,,Click To Continue,Continue Button,4.0,object-67,temp_instructions,,,Travel,,,,,,,,,sub-12
Desktop or Laptop,Windows 10,Chrome 138.0.0.0,1280x720,1707x735,Temporal Distance Task,cb_08,1.0,temp_instructions,test_q1,5ieqx1,4.0,response,choice_3,4568.7999999761605,4563.200000000004,4568.7999999761605,4568.7999999761605,4563.200000000004,4568.7999999761605,1.0,0.0,0.0,,Click Response,choice_3,5.0,object-345,temp_instructions,,,Travel,,,,,,,,,sub-12
Desktop or Laptop,Windows 10,Chrome 138.0.0.0,1280x720,1707x735,Temporal Distance Task,cb_08,1.0,temp_instructions,score_corr,7ilvjr,5.0,continue,,918.500000011918,916.6999999999972,918.500000011918,918.500000011918,916.6999999999972,918.500000011918,1.0,0.0,0.0,,Click To Continue,Continue Button,3.0,object-23,temp_instructions,,,Travel,,,,,,,,,sub-12
Desktop or Laptop,Windows 10,Chrome 138.0.0.0,1280x720,1707x735,Temporal Distance Task,cb_08,1.0,temp_eventStart,Screen 1,dgtyxe,1.0,continue,,896.3999999761581,896.0,896.3999999761581,896.3999999761581,896.0,896.3999999761581,1.0,0.0,0.0,,Click To Continue,Next Button,3.0,object-43,temp_eventStart,,,Travel,,,,,,,,,sub-12
Desktop or Laptop,Windows 10,Chrome 138.0.0.0,1280x720,1707x735,Temporal Distance Task,cb_08,1.0,temp_dist_trial,num_items,zn7si1,1.0,response,1_ITEM,2128.600000023842,2125.199999999997,2128.600000023842,2128.600000023842,2125.199999999997,2128.600000023842,1.0,0.0,0.0,,Click Response,1_count,3.0,object-46,temp_dist_trial,1.0,t_s_23_1,travel_shared,ball cap,8.0,competing,paired,t_s_23_1.jpg,Travel,,,sub-12
Desktop or Laptop,Windows 10,Chrome 138.0.0.0,1280x720,1707x735,Temporal Distance Task,cb_08,2.0,temp_dist_trial,num_items,zn7si1,1.0,response,1_ITEM,1857.3000000238392,1854.3999999999944,1857.3000000238392,1857.3000000238392,1854.3999999999944,1857.3000000238392,1.0,0.0,0.0,,Click Response,1_count,3.0,object-46,temp_dist_trial,2.0,t_s_20_1,travel_shared,travel pill case,8.0,competing,paired,t_s_20_1.jpg,Travel,,,sub-12
Desktop or Laptop,Windows 10,Chrome 138.0.0.0,1280x720,1707x735,Temporal Distance Task,cb_08,3.0,temp_dist_trial,num_items,zn7si1,1.0,response,2_ITEM,1192.9000000238448,1187.7000000000044,1192.9000000238448,1192.9000000238448,1187.7000000000044,1192.9000000238448,1.0,0.0,0.0,,Click Response,2_count,5.0,object-49,temp_dist_trial,3.0,t_s_17_1,travel_shared,toothbrush,8.0,competing,paired,t_s_17_1.jpg,Travel,,,sub-12
Desktop or Laptop,Windows 10,Chrome 138.0.0.0,1280x720,1707x735,Temporal Distance Task,cb_08,3.0,temp_dist_trial,dist_items,qkpkxw,2.0,info,,4.699999988079071,0.0,4.699999988079071,4.699999988079071,0.0,4.699999988079071,1.0,0.0,0.0,,Slider,Slider,4.0,object-56,temp_dist_trial,3.0,t_s_17_1,travel_shared,toothbrush,8.0,competing,paired,t_s_17_1.jpg,Travel,,,sub-12
Desktop or Laptop,Windows 10,Chrome 138.0.0.0,1280x720,1707x735,Temporal Distance Task,cb_08,3.0,temp_dist_trial,dist_items,qkpkxw,2.0,continue,,2379.399999976158,2375.199999999997,2379.399999976158,2379.399999976158,2375.199999999997,2379.399999976158,1.0,0.0,0.0,,Click To Continue,Next button,7.0,object-60,temp_dist_trial,3.0,t_s_17_1,travel_shared,toothbrush,8.0,competing,paired,t_s_17_1.jpg,Travel,,,sub-12
Desktop or Laptop,Windows 10,Chrome 138.0.0.0,1280x720,1707x735,Temporal Distance Task,cb_08,3.0,temp_dist_trial,dist_items,qkpkxw,2.0,response,43,1604.3000000000034,2375.199999999997,2380.0,1604.3000000000034,2375.199999999997,2380.0,1.0,775.6999999999971,0.0,,Slider,Slider,4.0,object-56,temp_dist_trial,3.0,t_s_17_1,travel_shared,toothbrush,8.0,competing,paired,t_s_17_1.jpg,Travel,,,sub-12
Desktop or Laptop,Windows 10,Chrome 138.0.0.0,1280x720,1707x735,Temporal Distance Task,cb_08,4.0,temp_dist_trial,num_items,zn7si1,1.0,response,1_ITEM,1868.999999988082,1868.3000000000034,1868.999999988082,1868.999999988082,1868.3000000000034,1868.999999988082,1.0,0.0,0.0,,Click Response,1_count,3.0,object-46,temp_dist_trial,4.0,t_m_08_1,travel_Miami,flipflops,8.0,unique,paired,t_m_08_1.jpg,Travel,,,sub-12
Desktop or Laptop,Windows 10,Chrome 138.0.0.0,1280x720,1707x735,Temporal Distance Task,cb_08,5.0,temp_dist_trial,num_items,zn7si1,1.0,response,2_ITEM,773.7000000119223,770.9000000000017,773.7000000119223,773.7000000119223,770.9000000000017,773.7000000119223,1.0,0.0,0.0,,Click Response,2_count,5.0,object-49,temp_dist_trial,5.0,t_s_03_1,travel_shared,portable charger,8.0,competing,single,t_s_03_1.jpg,Travel,,,sub-12
Desktop or Laptop,Windows 10,Chrome 138.0.0.0,1280x720,1707x735,Temporal Distance Task,cb_08,5.0,temp_dist_trial,dist_items,qkpkxw,2.0,info,,4.600000023841859,0.0,4.600000023841859,4.600000023841859,0.0,4.600000023841859,1.0,0.0,0.0,,Slider,Slider,4.0,object-56,temp_dist_trial,5.0,t_s_03_1,travel_shared,portable charger,8.0,competing,single,t_s_03_1.jpg,Travel,,,sub-12
Desktop or Laptop,Windows 10,Chrome 138.0.0.0,1280x720,1707x735,Temporal Distance Task,cb_08,5.0,temp_dist_trial,dist_items,qkpkxw,2.0,continue,,2240.600000023842,2236.400000000001,2240.600000023842,2240.600000023842,2236.400000000001,2240.600000023842,1.0,0.0,0.0,,Click To Continue,Next button,7.0,object-60,temp_dist_trial,5.0,t_s_03_1,travel_shared,portable charger,8.0,competing,single,t_s_03_1.jpg,Travel,,,sub-12
Desktop or Laptop,Windows 10,Chrome 138.0.0.0,1280x720,1707x735,Temporal Distance Task,cb_08,5.0,temp_dist_trial,dist_items,qkpkxw,2.0,response,25,1472.4000000000015,2236.400000000001,2241.0,1472.4000000000015,2236.400000000001,2241.0,1.0,768.5999999999983,0.0,,Slider,Slider,4.0,object-56,temp_dist_trial,5.0,t_s_03_1,travel_shared,portable charger,8.0,competing,single,t_s_03_1.jpg,Travel,,,sub-12
Desktop or Laptop,Windows 10,Chrome 138.0.0.0,1280x720,1707x735,Temporal Distance Task,cb_08,6.0,temp_dist_trial,num_items,zn7si1,1.0,response,2_ITEM,1066.9000000119195,1062.6999999999969,1066.9000000119195,1066.9000000119195,1062.6999999999969,1066.9000000119195,1.0,0.0,0.0,,Click Response,2_count,5.0,object-49,temp_dist_trial,6.0,t_s_24_1,travel_shared,ear plugs,8.0,competing,paired,t_s_24_1.jpg,Travel,,,sub-12
Desktop or Laptop,Windows 10,Chrome 138.0.0.0,1280x720,1707x735,Temporal Distance Task,cb_08,6.0,temp_dist_trial,dist_items,qkpkxw,2.0,info,,4.900000000001455,0.0,4.900000000001455,4.900000000001455,0.0,4.900000000001455,1.0,0.0,0.0,,Slider,Slider,4.0,object-56,temp_dist_trial,6.0,t_s_24_1,travel_shared,ear plugs,8.0,competing,paired,t_s_24_1.jpg,Travel,,,sub-12
Desktop or Laptop,Windows 10,Chrome 138.0.0.0,1280x720,1707x735,Temporal Distance Task,cb_08,6.0,temp_dist_trial,dist_items,qkpkxw,2.0,continue,,1452.0999999880805,1451.5,1452.0999999880805,1452.0999999880805,1451.5,1452.0999999880805,1.0,0.0,0.0,,Click To Continue,Next button,7.0,object-60,temp_dist_trial,6.0,t_s_24_1,travel_shared,ear plugs,8.0,competing,paired,t_s_24_1.jpg,Travel,,,sub-12
Desktop or Laptop,Windows 10,Chrome 138.0.0.0,1280x720,1707x735,Temporal Distance Task,cb_08,6.0,temp_dist_trial,dist_items,qkpkxw,2.0,response,61,673.5999999999984,1451.5,1452.5000000238433,673.5999999999984,1451.5,1452.5000000238433,1.0,778.9000000238448,0.0,,Slider,Slider,4.0,object-56,temp_dist_trial,6.0,t_s_24_1,travel_shared,ear plugs,8.0,competing,paired,t_s_24_1.jpg,Travel,,,sub-12
Desktop or Laptop,Windows 10,Chrome 138.0.0.0,1280x720,1707x735,Temporal Distance Task,cb_08,7.0,temp_dist_trial,num_items,zn7si1,1.0,response,2_ITEM,904.0999999880804,902.9000000000017,904.0999999880804,904.0999999880804,902.9000000000017,904.0999999880804,1.0,0.0,0.0,,Click Response,2_count,5.0,object-49,temp_dist_trial,7.0,t_i_12_1,travel_Iceland,tent,8.0,unique,paired,t_i_12_1.jpg,Travel,,,sub-12
Desktop or Laptop,Windows 10,Chrome 138.0.0.0,1280x720,1707x735,Temporal Distance Task,cb_08,7.0,temp_dist_trial,dist_items,qkpkxw,2.0,info,,4.400000000001455,0.0,4.400000000001455,4.400000000001455,0.0,4.400000000001455,1.0,0.0,0.0,,Slider,Slider,4.0,object-56,temp_dist_trial,7.0,t_i_12_1,travel_Iceland,tent,8.0,unique,paired,t_i_12_1.jpg,Travel,,,sub-12
Desktop or Laptop,Windows 10,Chrome 138.0.0.0,1280x720,1707x735,Temporal Distance Task,cb_08,7.0,temp_dist_trial,dist_items,qkpkxw,2.0,continue,,1359.2000000119224,1354.3000000000031,1359.2000000119224,1359.2000000119224,1354.3000000000031,1359.2000000119224,1.0,0.0,0.0,,Click To Continue,Next button,7.0,object-60,temp_dist_trial,7.0,t_i_12_1,travel_Iceland,tent,8.0,unique,paired,t_i_12_1.jpg,Travel,,,sub-12
Desktop or Laptop,Windows 10,Chrome 138.0.0.0,1280x720,1707x735,Temporal Distance Task,cb_08,7.0,temp_dist_trial,dist_items,qkpkxw,2.0,response,31,680.7000000000044,1354.3000000000031,1359.7000000119224,680.7000000000044,1354.3000000000031,1359.7000000119224,1.0,679.000000011918,0.0,,Slider,Slider,4.0,object-56,temp_dist_trial,7.0,t_i_12_1,travel_Iceland,tent,8.0,unique,paired,t_i_12_1.jpg,Travel,,,sub-12
Desktop or Laptop,Windows 10,Chrome 138.0.0.0,1280x720,1707x735,Temporal Distance Task,cb_08,8.0,temp_dist_trial,num_items,zn7si1,1.0,response,2_ITEM,1029.4000000119195,1027.9000000000017,1029.4000000119195,1029.4000000119195,1027.9000000000017,1029.4000000119195,1.0,0.0,0.0,,Click Response,2_count,5.0,object-49,temp_dist_trial,8.0,t_s_10_1,travel_shared,luggage lock,8.0,competing,paired,t_s_10_1.jpg,Travel,,,sub-12
Desktop or Laptop,Windows 10,Chrome 138.0.0.0,1280x720,1707x735,Temporal Distance Task,cb_08,8.0,temp_dist_trial,dist_items,qkpkxw,2.0,info,,4.900000011919474,0.0,4.900000011919474,4.900000011919474,0.0,4.900000011919474,1.0,0.0,0.0,,Slider,Slider,4.0,object-56,temp_dist_trial,8.0,t_s_10_1,travel_shared,luggage lock,8.0,competing,paired,t_s_10_1.jpg,Travel,,,sub-12
Desktop or Laptop,Windows 10,Chrome 138.0.0.0,1280x720,1707x735,Temporal Distance Task,cb_08,8.0,temp_dist_trial,dist_items,qkpkxw,2.0,continue,,1294.7999999880776,1291.7999999999956,1294.7999999880776,1294.7999999880776,1291.7999999999956,1294.7999999880776,1.0,0.0,0.0,,Click To Continue,Next button,7.0,object-60,temp_dist_trial,8.0,t_s_10_1,travel_shared,luggage lock,8.0,competing,paired,t_s_10_1.jpg,Travel,,,sub-12
Desktop or Laptop,Windows 10,Chrome 138.0.0.0,1280x720,1707x735,Temporal Distance Task,cb_08,8.0,temp_dist_trial,dist_items,qkpkxw,2.0,response,28,652.7999999999956,1291.7999999999956,1294.9999999761567,652.7999999999956,1291.7999999999956,1294.9999999761567,1.0,642.1999999761609,0.0,,Slider,Slider,4.0,object-56,temp_dist_trial,8.0,t_s_10_1,travel_shared,luggage lock,8.0,competing,paired,t_s_10_1.jpg,Travel,,,sub-12
Desktop or Laptop,Windows 10,Chrome 138.0.0.0,1280x720,1707x735,Temporal Distance Task,cb_08,9.0,temp_dist_trial,num_items,zn7si1,1.0,response,1_ITEM,971.1000000119237,965.4000000000087,971.1000000119237,971.1000000119237,965.4000000000087,971.1000000119237,1.0,0.0,0.0,,Click Response,1_count,3.0,object-46,temp_dist_trial,9.0,t_m_20_1,travel_Miami,inflatable beachball,8.0,unique,single,t_m_20_1.jpg,Travel,,,sub-12
Desktop or Laptop,Windows 10,Chrome 138.0.0.0,1280x720,1707x735,Temporal Distance Task,cb_08,10.0,temp_dist_trial,num_items,zn7si1,1.0,response,2_ITEM,1107.7000000119149,1104.3999999999942,1107.7000000119149,1107.7000000119149,1104.3999999999942,1107.7000000119149,1.0,0.0,0.0,,Click Response,2_count,5.0,object-49,temp_dist_trial,10.0,t_i_03_1,travel_Iceland,winter jacket,8.0,unique,single,t_i_03_1.jpg,Travel,,,sub-12
Desktop or Laptop,Windows 10,Chrome 138.0.0.0,1280x720,1707x735,Temporal Distance Task,cb_08,10.0,temp_dist_trial,dist_items,qkpkxw,2.0,info,,4.6000000000058225,0.0,4.6000000000058225,4.6000000000058225,0.0,4.6000000000058225,1.0,0.0,0.0,,Slider,Slider,4.0,object-56,temp_dist_trial,10.0,t_i_03_1,travel_Iceland,winter jacket,8.0,unique,single,t_i_03_1.jpg,Travel,,,sub-12
Desktop or Laptop,Windows 10,Chrome 138.0.0.0,1280x720,1707x735,Temporal Distance Task,cb_08,10.0,temp_dist_trial,dist_items,qkpkxw,2.0,continue,,1281.2000000238475,1278.0,1281.2000000238475,1281.2000000238475,1278.0,1281.2000000238475,1.0,0.0,0.0,,Click To Continue,Next button,7.0,object-60,temp_dist_trial,10.0,t_i_03_1,travel_Iceland,winter jacket,8.0,unique,single,t_i_03_1.jpg,Travel,,,sub-12
Desktop or Laptop,Windows 10,Chrome 138.0.0.0,1280x720,1707x735,Temporal Distance Task,cb_08,10.0,temp_dist_trial,dist_items,qkpkxw,2.0,response,44,639.0,1278.0,1281.6000000000058,639.0,1278.0,1281.6000000000058,1.0,642.6000000000057,0.0,,Slider,Slider,4.0,object-56,temp_dist_trial,10.0,t_i_03_1,travel_Iceland,winter jacket,8.0,unique,single,t_i_03_1.jpg,Travel,,,sub-12
Desktop or Laptop,Windows 10,Chrome 138.0.0.0,1280x720,1707x735,Temporal Distance Task,cb_08,11.0,temp_dist_trial,num_items,zn7si1,1.0,response,2_ITEM,875.1000000000205,868.2000000000116,875.1000000000205,875.1000000000205,868.2000000000116,875.1000000000205,1.0,0.0,0.0,,Click Response,2_count,5.0,object-49,temp_dist_trial,11.0,t_s_22_1,travel_shared,belt,8.0,competing,paired,t_s_22_1.jpg,Travel,,,sub-12
Desktop or Laptop,Windows 10,Chrome 138.0.0.0,1280x720,1707x735,Temporal Distance Task,cb_08,11.0,temp_dist_trial,dist_items,qkpkxw,2.0,info,,4.200000011915108,0.0,4.200000011915108,4.200000011915108,0.0,4.200000011915108,1.0,0.0,0.0,,Slider,Slider,4.0,object-56,temp_dist_trial,11.0,t_s_22_1,travel_shared,belt,8.0,competing,paired,t_s_22_1.jpg,Travel,,,sub-12
Desktop or Laptop,Windows 10,Chrome 138.0.0.0,1280x720,1707x735,Temporal Distance Task,cb_08,11.0,temp_dist_trial,dist_items,qkpkxw,2.0,continue,,1317.500000023836,1312.6999999999969,1317.500000023836,1317.500000023836,1312.6999999999969,1317.500000023836,1.0,0.0,0.0,,Click To Continue,Next button,7.0,object-60,temp_dist_trial,11.0,t_s_22_1,travel_shared,belt,8.0,competing,paired,t_s_22_1.jpg,Travel,,,sub-12
Desktop or Laptop,Windows 10,Chrome 138.0.0.0,1280x720,1707x735,Temporal Distance Task,cb_08,11.0,temp_dist_trial,dist_items,qkpkxw,2.0,response,31,618.0999999999913,1312.6999999999969,1318.000000023836,618.0999999999913,1312.6999999999969,1318.000000023836,1.0,699.9000000238448,0.0,,Slider,Slider,4.0,object-56,temp_dist_trial,11.0,t_s_22_1,travel_shared,belt,8.0,competing,paired,t_s_22_1.jpg,Travel,,,sub-12
Desktop or Laptop,Windows 10,Chrome 138.0.0.0,1280x720,1707x735,Temporal Distance Task,cb_08,12.0,temp_dist_trial,num_items,zn7si1,1.0,response,2_ITEM,1428.3000000238392,1423.8000000000034,1428.3000000238392,1428.3000000238392,1423.8000000000034,1428.3000000238392,1.0,0.0,0.0,,Click Response,2_count,5.0,object-49,temp_dist_trial,12.0,t_s_05_1,travel_shared,neck pillow,8.0,competing,paired,t_s_05_1.jpg,Travel,,,sub-12
Desktop or Laptop,Windows 10,Chrome 138.0.0.0,1280x720,1707x735,Temporal Distance Task,cb_08,12.0,temp_dist_trial,dist_items,qkpkxw,2.0,info,,4.59999998807325,0.0,4.59999998807325,4.59999998807325,0.0,4.59999998807325,1.0,0.0,0.0,,Slider,Slider,4.0,object-56,temp_dist_trial,12.0,t_s_05_1,travel_shared,neck pillow,8.0,competing,paired,t_s_05_1.jpg,Travel,,,sub-12
Desktop or Laptop,Windows 10,Chrome 138.0.0.0,1280x720,1707x735,Temporal Distance Task,cb_08,12.0,temp_dist_trial,dist_items,qkpkxw,2.0,continue,,1114.7999999761523,1111.1999999999969,1114.7999999761523,1114.7999999761523,1111.1999999999969,1114.7999999761523,1.0,0.0,0.0,,Click To Continue,Next button,7.0,object-60,temp_dist_trial,12.0,t_s_05_1,travel_shared,neck pillow,8.0,competing,paired,t_s_05_1.jpg,Travel,,,sub-12
Desktop or Laptop,Windows 10,Chrome 138.0.0.0,1280x720,1707x735,Temporal Distance Task,cb_08,12.0,temp_dist_trial,dist_items,qkpkxw,2.0,response,70,486.1999999999971,1111.1999999999969,1118.1000000000058,486.1999999999971,1111.1999999999969,1118.1000000000058,1.0,631.9000000000087,0.0,,Slider,Slider,4.0,object-56,temp_dist_trial,12.0,t_s_05_1,travel_shared,neck pillow,8.0,competing,paired,t_s_05_1.jpg,Travel,,,sub-12
Desktop or Laptop,Windows 10,Chrome 138.0.0.0,1280x720,1707x735,Temporal Distance Task,cb_08,13.0,temp_dist_trial,num_items,zn7si1,1.0,response,2_ITEM,988.3999999880763,986.3000000000028,988.3999999880763,988.3999999880763,986.3000000000028,988.3999999880763,1.0,0.0,0.0,,Click Response,2_count,5.0,object-49,temp_dist_trial,13.0,t_s_19_1,travel_shared,pajamas,8.0,competing,paired,t_s_19_1.jpg,Travel,,,sub-12
Desktop or Laptop,Windows 10,Chrome 138.0.0.0,1280x720,1707x735,Temporal Distance Task,cb_08,13.0,temp_dist_trial,dist_items,qkpkxw,2.0,info,,4.3000000000029095,0.0,4.3000000000029095,4.3000000000029095,0.0,4.3000000000029095,1.0,0.0,0.0,,Slider,Slider,4.0,object-56,temp_dist_trial,13.0,t_s_19_1,travel_shared,pajamas,8.0,competing,paired,t_s_19_1.jpg,Travel,,,sub-12
Desktop or Laptop,Windows 10,Chrome 138.0.0.0,1280x720,1707x735,Temporal Distance Task,cb_08,13.0,temp_dist_trial,dist_items,qkpkxw,2.0,continue,,1359.3000000000031,1354.3000000000031,1359.3000000000031,1359.3000000000031,1354.3000000000031,1359.3000000000031,1.0,0.0,0.0,,Click To Continue,Next button,7.0,object-60,temp_dist_trial,13.0,t_s_19_1,travel_shared,pajamas,8.0,competing,paired,t_s_19_1.jpg,Travel,,,sub-12
Desktop or Laptop,Windows 10,Chrome 138.0.0.0,1280x720,1707x735,Temporal Distance Task,cb_08,13.0,temp_dist_trial,dist_items,qkpkxw,2.0,response,69,659.8000000000029,1354.3000000000031,1359.6000000119236,659.8000000000029,1354.3000000000031,1359.6000000119236,1.0,699.8000000119209,0.0,,Slider,Slider,4.0,object-56,temp_dist_trial,13.0,t_s_19_1,travel_shared,pajamas,8.0,competing,paired,t_s_19_1.jpg,Travel,,,sub-12
Desktop or Laptop,Windows 10,Chrome 138.0.0.0,1280x720,1707x735,Temporal Distance Task,cb_08,14.0,temp_dist_trial,num_items,zn7si1,1.0,response,1_ITEM,940.8000000119208,937.6000000000058,940.8000000119208,940.8000000119208,937.6000000000058,940.8000000119208,1.0,0.0,0.0,,Click Response,1_count,3.0,object-46,temp_dist_trial,14.0,t_m_09_1,travel_Miami,beach towel,8.0,unique,paired,t_m_09_1.jpg,Travel,,,sub-12
Desktop or Laptop,Windows 10,Chrome 138.0.0.0,1280x720,1707x735,Temporal Distance Task,cb_08,15.0,temp_dist_trial,num_items,zn7si1,1.0,response,2_ITEM,1065.2999999761523,1062.6999999999969,1065.2999999761523,1065.2999999761523,1062.6999999999969,1065.2999999761523,1.0,0.0,0.0,,Click Response,2_count,5.0,object-49,temp_dist_trial,15.0,t_s_21_1,travel_shared,umbrella,8.0,competing,single,t_s_21_1.jpg,Travel,,,sub-12
Desktop or Laptop,Windows 10,Chrome 138.0.0.0,1280x720,1707x735,Temporal Distance Task,cb_08,15.0,temp_dist_trial,dist_items,qkpkxw,2.0,info,,4.099999976155233,0.0,4.099999976155233,4.099999976155233,0.0,4.099999976155233,1.0,0.0,0.0,,Slider,Slider,4.0,object-56,temp_dist_trial,15.0,t_s_21_1,travel_shared,umbrella,8.0,competing,single,t_s_21_1.jpg,Travel,,,sub-12
Desktop or Laptop,Windows 10,Chrome 138.0.0.0,1280x720,1707x735,Temporal Distance Task,cb_08,15.0,temp_dist_trial,dist_items,qkpkxw,2.0,continue,,985.000000011918,979.3000000000028,985.000000011918,985.000000011918,979.3000000000028,985.000000011918,1.0,0.0,0.0,,Click To Continue,Next button,7.0,object-60,temp_dist_trial,15.0,t_s_21_1,travel_shared,umbrella,8.0,competing,single,t_s_21_1.jpg,Travel,,,sub-12
Desktop or Laptop,Windows 10,Chrome 138.0.0.0,1280x720,1707x735,Temporal Distance Task,cb_08,15.0,temp_dist_trial,dist_items,qkpkxw,2.0,response,32,458.3999999999942,979.3000000000028,985.3999999880763,458.3999999999942,979.3000000000028,985.3999999880763,1.0,526.999999988082,0.0,,Slider,Slider,4.0,object-56,temp_dist_trial,15.0,t_s_21_1,travel_shared,umbrella,8.0,competing,single,t_s_21_1.jpg,Travel,,,sub-12
Desktop or Laptop,Windows 10,Chrome 138.0.0.0,1280x720,1707x735,Temporal Distance Task,cb_08,16.0,temp_dist_trial,num_items,zn7si1,1.0,response,1_ITEM,949.3999999999942,944.5999999999913,949.3999999999942,949.3999999999942,944.5999999999913,949.3999999999942,1.0,0.0,0.0,,Click Response,1_count,3.0,object-46,temp_dist_trial,16.0,t_m_14_1,travel_Miami,swim goggles,8.0,unique,single,t_m_14_1.jpg,Travel,,,sub-12
Desktop or Laptop,Windows 10,Chrome 138.0.0.0,1280x720,1707x735,Temporal Distance Task,cb_08,17.0,temp_dist_trial,num_items,zn7si1,1.0,response,1_ITEM,1306.499999988082,1305.6999999999969,1306.499999988082,1306.499999988082,1305.6999999999969,1306.499999988082,1.0,0.0,0.0,,Click Response,1_count,3.0,object-46,temp_dist_trial,17.0,t_m_05_1,travel_Miami,sunscreen,8.0,unique,paired,t_m_05_1.jpg,Travel,,,sub-12
Desktop or Laptop,Windows 10,Chrome 138.0.0.0,1280x720,1707x735,Temporal Distance Task,cb_08,18.0,temp_dist_trial,num_items,zn7si1,1.0,response,1_ITEM,1287.800000011921,1284.8999999999942,1287.800000011921,1287.800000011921,1284.8999999999942,1287.800000011921,1.0,0.0,0.0,,Click Response,1_count,3.0,object-46,temp_dist_trial,18.0,t_i_07_1,travel_Iceland,hiking backpack,8.0,unique,single,t_i_07_1.jpg,Travel,,,sub-12
Desktop or Laptop,Windows 10,Chrome 138.0.0.0,1280x720,1707x735,Temporal Distance Task,cb_08,19.0,temp_dist_trial,num_items,zn7si1,1.0,response,1_ITEM,1001.499999976164,1000.1000000000058,1001.499999976164,1001.499999976164,1000.1000000000058,1001.499999976164,1.0,0.0,0.0,,Click Response,1_count,3.0,object-46,temp_dist_trial,19.0,t_m_13_1,travel_Miami,floatie,8.0,unique,paired,t_m_13_1.jpg,Travel,,,sub-12
Desktop or Laptop,Windows 10,Chrome 138.0.0.0,1280x720,1707x735,Temporal Distance Task,cb_08,20.0,temp_dist_trial,num_items,zn7si1,1.0,response,1_ITEM,1773.8999999999942,1771.0,1773.8999999999942,1773.8999999999942,1771.0,1773.8999999999942,1.0,0.0,0.0,,Click Response,1_count,3.0,object-46,temp_dist_trial,20.0,t_s_14_1,travel_shared,hand sanitizer,8.0,competing,single,t_s_14_1.jpg,Travel,,,sub-12
Desktop or Laptop,Windows 10,Chrome 138.0.0.0,1280x720,1707x735,Temporal Distance Task,cb_08,21.0,temp_dist_trial,num_items,zn7si1,1.0,response,1_ITEM,1088.199999976161,1083.4000000000087,1088.199999976161,1088.199999976161,1083.4000000000087,1088.199999976161,1.0,0.0,0.0,,Click Response,1_count,3.0,object-46,temp_dist_trial,21.0,t_s_12_1,travel_shared,clear toiletry bag,8.0,competing,single,t_s_12_1.jpg,Travel,,,sub-12
Desktop or Laptop,Windows 10,Chrome 138.0.0.0,1280x720,1707x735,Temporal Distance Task,cb_08,22.0,temp_dist_trial,num_items,zn7si1,1.0,response,2_ITEM,1090.9000000238448,1090.4000000000087,1090.9000000238448,1090.9000000238448,1090.4000000000087,1090.9000000238448,1.0,0.0,0.0,,Click Response,2_count,5.0,object-49,temp_dist_trial,22.0,t_s_01_1,travel_shared,fanny pack,8.0,competing,paired,t_s_01_1.jpg,Travel,,,sub-12
Desktop or Laptop,Windows 10,Chrome 138.0.0.0,1280x720,1707x735,Temporal Distance Task,cb_08,22.0,temp_dist_trial,dist_items,qkpkxw,2.0,info,,3.8999999999941792,0.0,3.8999999999941792,3.8999999999941792,0.0,3.8999999999941792,1.0,0.0,0.0,,Slider,Slider,4.0,object-56,temp_dist_trial,22.0,t_s_01_1,travel_shared,fanny pack,8.0,competing,paired,t_s_01_1.jpg,Travel,,,sub-12
Desktop or Laptop,Windows 10,Chrome 138.0.0.0,1280x720,1707x735,Temporal Distance Task,cb_08,22.0,temp_dist_trial,dist_items,qkpkxw,2.0,continue,,1086.5999999880733,1083.5,1086.5999999880733,1086.5999999880733,1083.5,1086.5999999880733,1.0,0.0,0.0,,Click To Continue,Next button,7.0,object-60,temp_dist_trial,22.0,t_s_01_1,travel_shared,fanny pack,8.0,competing,paired,t_s_01_1.jpg,Travel,,,sub-12
Desktop or Laptop,Windows 10,Chrome 138.0.0.0,1280x720,1707x735,Temporal Distance Task,cb_08,22.0,temp_dist_trial,dist_items,qkpkxw,2.0,response,33,562.5999999999913,1083.5,1087.0999999880733,562.5999999999913,1083.5,1087.0999999880733,1.0,524.499999988082,0.0,,Slider,Slider,4.0,object-56,temp_dist_trial,22.0,t_s_01_1,travel_shared,fanny pack,8.0,competing,paired,t_s_01_1.jpg,Travel,,,sub-12
Desktop or Laptop,Windows 10,Chrome 138.0.0.0,1280x720,1707x735,Temporal Distance Task,cb_08,23.0,temp_dist_trial,num_items,zn7si1,1.0,response,1_ITEM,914.8999999999942,909.7999999999884,914.8999999999942,914.8999999999942,909.7999999999884,914.8999999999942,1.0,0.0,0.0,,Click Response,1_count,3.0,object-46,temp_dist_trial,23.0,t_s_02_1,travel_shared,water bottle,8.0,competing,single,t_s_02_1.jpg,Travel,,,sub-12
Desktop or Laptop,Windows 10,Chrome 138.0.0.0,1280x720,1707x735,Temporal Distance Task,cb_08,24.0,temp_dist_trial,num_items,zn7si1,1.0,response,1_ITEM,1355.4000000119267,1354.4000000000087,1355.4000000119267,1355.4000000119267,1354.4000000000087,1355.4000000119267,1.0,0.0,0.0,,Click Response,1_count,3.0,object-46,temp_dist_trial,24.0,t_m_06_1,travel_Miami,handheld fan,8.0,unique,paired,t_m_06_1.jpg,Travel,,,sub-12
Desktop or Laptop,Windows 10,Chrome 138.0.0.0,1280x720,1707x735,Temporal Distance Task,cb_08,25.0,temp_dist_trial,num_items,zn7si1,1.0,response,1_ITEM,1463.7000000238475,1458.5,1463.7000000238475,1463.7000000238475,1458.5,1463.7000000238475,1.0,0.0,0.0,,Click Response,1_count,3.0,object-46,temp_dist_trial,25.0,t_i_16_1,travel_Iceland,skis,8.0,unique,paired,t_i_16_1.jpg,Travel,,,sub-12
Desktop or Laptop,Windows 10,Chrome 138.0.0.0,1280x720,1707x735,Temporal Distance Task,cb_08,26.0,temp_dist_trial,num_items,zn7si1,1.0,response,2_ITEM,1018.4000000119267,1014.0,1018.4000000119267,1018.4000000119267,1014.0,1018.4000000119267,1.0,0.0,0.0,,Click Response,2_count,5.0,object-49,temp_dist_trial,26.0,t_i_01_1,travel_Iceland,gloves,8.0,unique,paired,t_i_01_1.jpg,Travel,,,sub-12
Desktop or Laptop,Windows 10,Chrome 138.0.0.0,1280x720,1707x735,Temporal Distance Task,cb_08,26.0,temp_dist_trial,dist_items,qkpkxw,2.0,info,,4.399999976158141,0.0,4.399999976158141,4.399999976158141,0.0,4.399999976158141,1.0,0.0,0.0,,Slider,Slider,4.0,object-56,temp_dist_trial,26.0,t_i_01_1,travel_Iceland,gloves,8.0,unique,paired,t_i_01_1.jpg,Travel,,,sub-12
Desktop or Laptop,Windows 10,Chrome 138.0.0.0,1280x720,1707x735,Temporal Distance Task,cb_08,26.0,temp_dist_trial,dist_items,qkpkxw,2.0,continue,,2098.5,2097.5,2098.5,2098.5,2097.5,2098.5,1.0,0.0,0.0,,Click To Continue,Next button,7.0,object-60,temp_dist_trial,26.0,t_i_01_1,travel_Iceland,gloves,8.0,unique,paired,t_i_01_1.jpg,Travel,,,sub-12
Desktop or Laptop,Windows 10,Chrome 138.0.0.0,1280x720,1707x735,Temporal Distance Task,cb_08,26.0,temp_dist_trial,dist_items,qkpkxw,2.0,response,40,1389.0,2097.5,2098.800000011921,1389.0,2097.5,2098.800000011921,1.0,709.8000000119209,0.0,,Slider,Slider,4.0,object-56,temp_dist_trial,26.0,t_i_01_1,travel_Iceland,gloves,8.0,unique,paired,t_i_01_1.jpg,Travel,,,sub-12
Desktop or Laptop,Windows 10,Chrome 138.0.0.0,1280x720,1707x735,Temporal Distance Task,cb_08,27.0,temp_dist_trial,num_items,zn7si1,1.0,response,1_ITEM,888.8000000119209,882.0,888.8000000119209,888.8000000119209,882.0,888.8000000119209,1.0,0.0,0.0,,Click Response,1_count,3.0,object-46,temp_dist_trial,27.0,t_m_10_1,travel_Miami,tanktop,8.0,unique,single,t_m_10_1.jpg,Travel,,,sub-12
Desktop or Laptop,Windows 10,Chrome 138.0.0.0,1280x720,1707x735,Temporal Distance Task,cb_08,28.0,temp_dist_trial,num_items,zn7si1,1.0,response,2_ITEM,932.6999999880792,930.6999999999972,932.6999999880792,932.6999999880792,930.6999999999972,932.6999999880792,1.0,0.0,0.0,,Click Response,2_count,5.0,object-49,temp_dist_trial,28.0,t_s_15_1,travel_shared,luggage tag,8.0,competing,paired,t_s_15_1.jpg,Travel,,,sub-12
Desktop or Laptop,Windows 10,Chrome 138.0.0.0,1280x720,1707x735,Temporal Distance Task,cb_08,28.0,temp_dist_trial,dist_items,qkpkxw,2.0,info,,3.8000000000029104,0.0,3.8000000000029104,3.8000000000029104,0.0,3.8000000000029104,1.0,0.0,0.0,,Slider,Slider,4.0,object-56,temp_dist_trial,28.0,t_s_15_1,travel_shared,luggage tag,8.0,competing,paired,t_s_15_1.jpg,Travel,,,sub-12
Desktop or Laptop,Windows 10,Chrome 138.0.0.0,1280x720,1707x735,Temporal Distance Task,cb_08,28.0,temp_dist_trial,dist_items,qkpkxw,2.0,continue,,1360.199999976161,1354.4000000000087,1360.199999976161,1360.199999976161,1354.4000000000087,1360.199999976161,1.0,0.0,0.0,,Click To Continue,Next button,7.0,object-60,temp_dist_trial,28.0,t_s_15_1,travel_shared,luggage tag,8.0,competing,paired,t_s_15_1.jpg,Travel,,,sub-12
Desktop or Laptop,Windows 10,Chrome 138.0.0.0,1280x720,1707x735,Temporal Distance Task,cb_08,28.0,temp_dist_trial,dist_items,qkpkxw,2.0,response,42,618.1999999999971,1354.4000000000087,1360.8000000000031,618.1999999999971,1354.4000000000087,1360.8000000000031,1.0,742.6000000000058,0.0,,Slider,Slider,4.0,object-56,temp_dist_trial,28.0,t_s_15_1,travel_shared,luggage tag,8.0,competing,paired,t_s_15_1.jpg,Travel,,,sub-12
Desktop or Laptop,Windows 10,Chrome 138.0.0.0,1280x720,1707x735,Temporal Distance Task,cb_08,29.0,temp_dist_trial,num_items,zn7si1,1.0,response,2_ITEM,1397.599999988073,1396.0,1397.599999988073,1397.599999988073,1396.0,1397.599999988073,1.0,0.0,0.0,,Click Response,2_count,5.0,object-49,temp_dist_trial,29.0,t_s_13_1,travel_shared,contact lens case,8.0,competing,paired,t_s_13_1.jpg,Travel,,,sub-12
Desktop or Laptop,Windows 10,Chrome 138.0.0.0,1280x720,1707x735,Temporal Distance Task,cb_08,29.0,temp_dist_trial,dist_items,qkpkxw,2.0,info,,3.900000023844768,0.0,3.900000023844768,3.900000023844768,0.0,3.900000023844768,1.0,0.0,0.0,,Slider,Slider,4.0,object-56,temp_dist_trial,29.0,t_s_13_1,travel_shared,contact lens case,8.0,competing,paired,t_s_13_1.jpg,Travel,,,sub-12
Desktop or Laptop,Windows 10,Chrome 138.0.0.0,1280x720,1707x735,Temporal Distance Task,cb_08,29.0,temp_dist_trial,dist_items,qkpkxw,2.0,continue,,2679.9000000238448,2673.9000000000087,2679.9000000238448,2679.9000000238448,2673.9000000000087,2679.9000000238448,1.0,0.0,0.0,,Click To Continue,Next button,7.0,object-60,temp_dist_trial,29.0,t_s_13_1,travel_shared,contact lens case,8.0,competing,paired,t_s_13_1.jpg,Travel,,,sub-12
Desktop or Laptop,Windows 10,Chrome 138.0.0.0,1280x720,1707x735,Temporal Distance Task,cb_08,29.0,temp_dist_trial,dist_items,qkpkxw,2.0,response,59,1965.400000000009,2673.9000000000087,2680.9000000000087,1965.400000000009,2673.9000000000087,2680.9000000000087,1.0,715.5,0.0,,Slider,Slider,4.0,object-56,temp_dist_trial,29.0,t_s_13_1,travel_shared,contact lens case,8.0,competing,paired,t_s_13_1.jpg,Travel,,,sub-12
Desktop or Laptop,Windows 10,Chrome 138.0.0.0,1280x720,1707x735,Temporal Distance Task,cb_08,30.0,temp_dist_trial,num_items,zn7si1,1.0,response,1_ITEM,1725.7000000119147,1722.5,1725.7000000119147,1725.7000000119147,1722.5,1725.7000000119147,1.0,0.0,0.0,,Click Response,1_count,3.0,object-46,temp_dist_trial,30.0,t_m_03_1,travel_Miami,wetsuit,8.0,unique,paired,t_m_03_1.jpg,Travel,,,sub-12
Desktop or Laptop,Windows 10,Chrome 138.0.0.0,1280x720,1707x735,Temporal Distance Task,cb_08,31.0,temp_dist_trial,num_items,zn7si1,1.0,response,1_ITEM,1217.699999988079,1215.5,1217.699999988079,1217.699999988079,1215.5,1217.699999988079,1.0,0.0,0.0,,Click Response,1_count,3.0,object-46,temp_dist_trial,31.0,t_i_02_1,travel_Iceland,scarf,8.0,unique,single,t_i_02_1.jpg,Travel,,,sub-12
Desktop or Laptop,Windows 10,Chrome 138.0.0.0,1280x720,1707x735,Temporal Distance Task,cb_08,32.0,temp_dist_trial,num_items,zn7si1,1.0,response,1_ITEM,1399.5,1396.0,1399.5,1399.5,1396.0,1399.5,1.0,0.0,0.0,,Click Response,1_count,3.0,object-46,temp_dist_trial,32.0,t_s_16_1,travel_shared,chapstick,8.0,competing,single,t_s_16_1.jpg,Travel,,,sub-12
Desktop or Laptop,Windows 10,Chrome 138.0.0.0,1280x720,1707x735,Temporal Distance Task,cb_08,33.0,temp_dist_trial,num_items,zn7si1,1.0,response,1_ITEM,913.5999999880733,909.8999999999942,913.5999999880733,913.5999999880733,909.8999999999942,913.5999999880733,1.0,0.0,0.0,,Click Response,1_count,3.0,object-46,temp_dist_trial,33.0,t_i_17_1,travel_Iceland,binoculars,8.0,unique,single,t_i_17_1.jpg,Travel,,,sub-12
Desktop or Laptop,Windows 10,Chrome 138.0.0.0,1280x720,1707x735,Temporal Distance Task,cb_08,34.0,temp_dist_trial,num_items,zn7si1,1.0,response,2_ITEM,937.6999999999972,930.6999999999972,937.6999999999972,937.6999999999972,930.6999999999972,937.6999999999972,1.0,0.0,0.0,,Click Response,2_count,5.0,object-49,temp_dist_trial,34.0,t_s_04_1,travel_shared,instant camera,8.0,competing,paired,t_s_04_1.jpg,Travel,,,sub-12
Desktop or Laptop,Windows 10,Chrome 138.0.0.0,1280x720,1707x735,Temporal Distance Task,cb_08,34.0,temp_dist_trial,dist_items,qkpkxw,2.0,info,,4.1000000119238384,0.0,4.1000000119238384,4.1000000119238384,0.0,4.1000000119238384,1.0,0.0,0.0,,Slider,Slider,4.0,object-56,temp_dist_trial,34.0,t_s_04_1,travel_shared,instant camera,8.0,competing,paired,t_s_04_1.jpg,Travel,,,sub-12
Desktop or Laptop,Windows 10,Chrome 138.0.0.0,1280x720,1707x735,Temporal Distance Task,cb_08,34.0,temp_dist_trial,dist_items,qkpkxw,2.0,continue,,1582.3000000000034,1576.6000000000058,1582.3000000000034,1582.3000000000034,1576.6000000000058,1582.3000000000034,1.0,0.0,0.0,,Click To Continue,Next button,7.0,object-60,temp_dist_trial,34.0,t_s_04_1,travel_shared,instant camera,8.0,competing,paired,t_s_04_1.jpg,Travel,,,sub-12
Desktop or Laptop,Windows 10,Chrome 138.0.0.0,1280x720,1707x735,Temporal Distance Task,cb_08,34.0,temp_dist_trial,dist_items,qkpkxw,2.0,response,29,1013.9000000000087,1576.6000000000058,1582.6999999761608,1013.9000000000087,1576.6000000000058,1582.6999999761608,1.0,568.7999999761523,0.0,,Slider,Slider,4.0,object-56,temp_dist_trial,34.0,t_s_04_1,travel_shared,instant camera,8.0,competing,paired,t_s_04_1.jpg,Travel,,,sub-12
Desktop or Laptop,Windows 10,Chrome 138.0.0.0,1280x720,1707x735,Temporal Distance Task,cb_08,35.0,temp_dist_trial,num_items,zn7si1,1.0,response,2_ITEM,708.2999999999884,701.3999999999942,708.2999999999884,708.2999999999884,701.3999999999942,708.2999999999884,1.0,0.0,0.0,,Click Response,2_count,5.0,object-49,temp_dist_trial,35.0,t_s_08_1,travel_shared,hand lotion,8.0,competing,paired,t_s_08_1.jpg,Travel,,,sub-12
Desktop or Laptop,Windows 10,Chrome 138.0.0.0,1280x720,1707x735,Temporal Distance Task,cb_08,35.0,temp_dist_trial,dist_items,qkpkxw,2.0,info,,3.8999999880761607,0.0,3.8999999880761607,3.8999999880761607,0.0,3.8999999880761607,1.0,0.0,0.0,,Slider,Slider,4.0,object-56,temp_dist_trial,35.0,t_s_08_1,travel_shared,hand lotion,8.0,competing,paired,t_s_08_1.jpg,Travel,,,sub-12
Desktop or Laptop,Windows 10,Chrome 138.0.0.0,1280x720,1707x735,Temporal Distance Task,cb_08,35.0,temp_dist_trial,dist_items,qkpkxw,2.0,continue,,1412.8999999880762,1409.8000000000034,1412.8999999880762,1412.8999999880762,1409.8000000000034,1412.8999999880762,1.0,0.0,0.0,,Click To Continue,Next button,7.0,object-60,temp_dist_trial,35.0,t_s_08_1,travel_shared,hand lotion,8.0,competing,paired,t_s_08_1.jpg,Travel,,,sub-12
Desktop or Laptop,Windows 10,Chrome 138.0.0.0,1280x720,1707x735,Temporal Distance Task,cb_08,35.0,temp_dist_trial,dist_items,qkpkxw,2.0,response,67,520.8999999999942,1409.8000000000034,1416.0999999761555,520.8999999999942,1409.8000000000034,1416.0999999761555,1.0,895.199999976161,0.0,,Slider,Slider,4.0,object-56,temp_dist_trial,35.0,t_s_08_1,travel_shared,hand lotion,8.0,competing,paired,t_s_08_1.jpg,Travel,,,sub-12
Desktop or Laptop,Windows 10,Chrome 138.0.0.0,1280x720,1707x735,Temporal Distance Task,cb_08,36.0,temp_dist_trial,num_items,zn7si1,1.0,response,2_ITEM,1435.000000023836,1430.7999999999884,1435.000000023836,1435.000000023836,1430.7999999999884,1435.000000023836,1.0,0.0,0.0,,Click Response,2_count,5.0,object-49,temp_dist_trial,36.0,t_i_04_1,travel_Iceland,portable camping stove,8.0,unique,paired,t_i_04_1.jpg,Travel,,,sub-12
Desktop or Laptop,Windows 10,Chrome 138.0.0.0,1280x720,1707x735,Temporal Distance Task,cb_08,36.0,temp_dist_trial,dist_items,qkpkxw,2.0,info,,3.9999999761639633,0.0,3.9999999761639633,3.9999999761639633,0.0,3.9999999761639633,1.0,0.0,0.0,,Slider,Slider,4.0,object-56,temp_dist_trial,36.0,t_i_04_1,travel_Iceland,portable camping stove,8.0,unique,paired,t_i_04_1.jpg,Travel,,,sub-12
Desktop or Laptop,Windows 10,Chrome 138.0.0.0,1280x720,1707x735,Temporal Distance Task,cb_08,36.0,temp_dist_trial,dist_items,qkpkxw,2.0,continue,,1058.4000000119267,1055.7000000000116,1058.4000000119267,1058.4000000119267,1055.7000000000116,1058.4000000119267,1.0,0.0,0.0,,Click To Continue,Next button,7.0,object-60,temp_dist_trial,36.0,t_i_04_1,travel_Iceland,portable camping stove,8.0,unique,paired,t_i_04_1.jpg,Travel,,,sub-12
Desktop or Laptop,Windows 10,Chrome 138.0.0.0,1280x720,1707x735,Temporal Distance Task,cb_08,36.0,temp_dist_trial,dist_items,qkpkxw,2.0,response,26,430.7000000000117,1055.7000000000116,1058.7000000238477,430.7000000000117,1055.7000000000116,1058.7000000238477,1.0,628.000000023836,0.0,,Slider,Slider,4.0,object-56,temp_dist_trial,36.0,t_i_04_1,travel_Iceland,portable camping stove,8.0,unique,paired,t_i_04_1.jpg,Travel,,,sub-12
Desktop or Laptop,Windows 10,Chrome 138.0.0.0,1280x720,1707x735,Temporal Distance Task,cb_08,37.0,temp_dist_trial,num_items,zn7si1,1.0,response,1_ITEM,930.500000023836,923.7999999999884,930.500000023836,930.500000023836,923.7999999999884,930.500000023836,1.0,0.0,0.0,,Click Response,1_count,3.0,object-46,temp_dist_trial,37.0,t_m_04_1,travel_Miami,UV jacket,8.0,unique,single,t_m_04_1.jpg,Travel,,,sub-12
Desktop or Laptop,Windows 10,Chrome 138.0.0.0,1280x720,1707x735,Temporal Distance Task,cb_08,38.0,temp_dist_trial,num_items,zn7si1,1.0,response,1_ITEM,1236.7999999880851,1236.3000000000031,1236.7999999880851,1236.7999999880851,1236.3000000000031,1236.7999999880851,1.0,0.0,0.0,,Click Response,1_count,3.0,object-46,temp_dist_trial,38.0,t_i_14_1,travel_Iceland,snow pants,8.0,unique,paired,t_i_14_1.jpg,Travel,,,sub-12
Desktop or Laptop,Windows 10,Chrome 138.0.0.0,1280x720,1707x735,Temporal Distance Task,cb_08,39.0,temp_dist_trial,num_items,zn7si1,1.0,response,2_ITEM,1190.499999988082,1187.6999999999969,1190.499999988082,1190.499999988082,1187.6999999999969,1190.499999988082,1.0,0.0,0.0,,Click Response,2_count,5.0,object-49,temp_dist_trial,39.0,t_i_06_1,travel_Iceland,knit hat,8.0,unique,paired,t_i_06_1.jpg,Travel,,,sub-12
Desktop or Laptop,Windows 10,Chrome 138.0.0.0,1280x720,1707x735,Temporal Distance Task,cb_08,39.0,temp_dist_trial,dist_items,qkpkxw,2.0,info,,3.799999988084892,0.0,3.799999988084892,3.799999988084892,0.0,3.799999988084892,1.0,0.0,0.0,,Slider,Slider,4.0,object-56,temp_dist_trial,39.0,t_i_06_1,travel_Iceland,knit hat,8.0,unique,paired,t_i_06_1.jpg,Travel,,,sub-12
Desktop or Laptop,Windows 10,Chrome 138.0.0.0,1280x720,1707x735,Temporal Distance Task,cb_08,39.0,temp_dist_trial,dist_items,qkpkxw,2.0,continue,,1688.900000011927,1687.7000000000116,1688.900000011927,1688.900000011927,1687.7000000000116,1688.900000011927,1.0,0.0,0.0,,Click To Continue,Next button,7.0,object-60,temp_dist_trial,39.0,t_i_06_1,travel_Iceland,knit hat,8.0,unique,paired,t_i_06_1.jpg,Travel,,,sub-12
Desktop or Laptop,Windows 10,Chrome 138.0.0.0,1280x720,1707x735,Temporal Distance Task,cb_08,39.0,temp_dist_trial,dist_items,qkpkxw,2.0,response,36,895.9000000000087,1687.7000000000116,1689.400000011927,895.9000000000087,1687.7000000000116,1689.400000011927,1.0,793.500000011918,0.0,,Slider,Slider,4.0,object-56,temp_dist_trial,39.0,t_i_06_1,travel_Iceland,knit hat,8.0,unique,paired,t_i_06_1.jpg,Travel,,,sub-12
Desktop or Laptop,Windows 10,Chrome 138.0.0.0,1280x720,1707x735,Temporal Distance Task,cb_08,40.0,temp_dist_trial,num_items,zn7si1,1.0,response,2_ITEM,929.000000023836,923.7999999999884,929.000000023836,929.000000023836,923.7999999999884,929.000000023836,1.0,0.0,0.0,,Click Response,2_count,5.0,object-49,temp_dist_trial,40.0,t_s_07_1,travel_shared,phone charger cable,8.0,competing,paired,t_s_07_1.jpg,Travel,,,sub-12
Desktop or Laptop,Windows 10,Chrome 138.0.0.0,1280x720,1707x735,Temporal Distance Task,cb_08,40.0,temp_dist_trial,dist_items,qkpkxw,2.0,info,,3.9999999761639633,0.0,3.9999999761639633,3.9999999761639633,0.0,3.9999999761639633,1.0,0.0,0.0,,Slider,Slider,4.0,object-56,temp_dist_trial,40.0,t_s_07_1,travel_shared,phone charger cable,8.0,competing,paired,t_s_07_1.jpg,Travel,,,sub-12
Desktop or Laptop,Windows 10,Chrome 138.0.0.0,1280x720,1707x735,Temporal Distance Task,cb_08,40.0,temp_dist_trial,dist_items,qkpkxw,2.0,continue,,995.2999999880847,993.1000000000058,995.2999999880847,995.2999999880847,993.1000000000058,995.2999999880847,1.0,0.0,0.0,,Click To Continue,Next button,7.0,object-60,temp_dist_trial,40.0,t_s_07_1,travel_shared,phone charger cable,8.0,competing,paired,t_s_07_1.jpg,Travel,,,sub-12
Desktop or Laptop,Windows 10,Chrome 138.0.0.0,1280x720,1707x735,Temporal Distance Task,cb_08,40.0,temp_dist_trial,dist_items,qkpkxw,2.0,response,61,416.7000000000117,993.1000000000058,999.2999999880847,416.7000000000117,993.1000000000058,999.2999999880847,1.0,582.5999999880733,0.0,,Slider,Slider,4.0,object-56,temp_dist_trial,40.0,t_s_07_1,travel_shared,phone charger cable,8.0,competing,paired,t_s_07_1.jpg,Travel,,,sub-12
Desktop or Laptop,Windows 10,Chrome 138.0.0.0,1280x720,1707x735,Temporal Distance Task,cb_08,41.0,temp_dist_trial,num_items,zn7si1,1.0,response,1_ITEM,1050.300000011921,1048.8999999999942,1050.300000011921,1050.300000011921,1048.8999999999942,1050.300000011921,1.0,0.0,0.0,,Click Response,1_count,3.0,object-46,temp_dist_trial,41.0,t_m_07_1,travel_Miami,sunglasses,8.0,unique,paired,t_m_07_1.jpg,Travel,,,sub-12
Desktop or Laptop,Windows 10,Chrome 138.0.0.0,1280x720,1707x735,Temporal Distance Task,cb_08,42.0,temp_dist_trial,num_items,zn7si1,1.0,response,2_ITEM,1343.2999999880851,1340.3999999999942,1343.2999999880851,1343.2999999880851,1340.3999999999942,1343.2999999880851,1.0,0.0,0.0,,Click Response,2_count,5.0,object-49,temp_dist_trial,42.0,t_i_11_1,travel_Iceland,headlamp,8.0,unique,paired,t_i_11_1.jpg,Travel,,,sub-12
Desktop or Laptop,Windows 10,Chrome 138.0.0.0,1280x720,1707x735,Temporal Distance Task,cb_08,42.0,temp_dist_trial,dist_items,qkpkxw,2.0,info,,3.8000000238534986,0.0,3.8000000238534986,3.8000000238534986,0.0,3.8000000238534986,1.0,0.0,0.0,,Slider,Slider,4.0,object-56,temp_dist_trial,42.0,t_i_11_1,travel_Iceland,headlamp,8.0,unique,paired,t_i_11_1.jpg,Travel,,,sub-12
Desktop or Laptop,Windows 10,Chrome 138.0.0.0,1280x720,1707x735,Temporal Distance Task,cb_08,42.0,temp_dist_trial,dist_items,qkpkxw,2.0,continue,,1121.2000000000116,1118.2000000000116,1121.2000000000116,1121.2000000000116,1118.2000000000116,1121.2000000000116,1.0,0.0,0.0,,Click To Continue,Next button,7.0,object-60,temp_dist_trial,42.0,t_i_11_1,travel_Iceland,headlamp,8.0,unique,paired,t_i_11_1.jpg,Travel,,,sub-12
Desktop or Laptop,Windows 10,Chrome 138.0.0.0,1280x720,1707x735,Temporal Distance Task,cb_08,42.0,temp_dist_trial,dist_items,qkpkxw,2.0,response,32,409.80000000001746,1118.2000000000116,1121.5999999761698,409.80000000001746,1118.2000000000116,1121.5999999761698,1.0,711.7999999761522,0.0,,Slider,Slider,4.0,object-56,temp_dist_trial,42.0,t_i_11_1,travel_Iceland,headlamp,8.0,unique,paired,t_i_11_1.jpg,Travel,,,sub-12
Desktop or Laptop,Windows 10,Chrome 138.0.0.0,1280x720,1707x735,Temporal Distance Task,cb_08,43.0,temp_dist_trial,num_items,zn7si1,1.0,response,1_ITEM,1602.6999999880786,1597.3999999999942,1602.6999999880786,1602.6999999880786,1597.3999999999942,1602.6999999880786,1.0,0.0,0.0,,Click Response,1_count,3.0,object-46,temp_dist_trial,43.0,t_i_18_1,travel_Iceland,ski mask,8.0,unique,paired,t_i_18_1.jpg,Travel,,,sub-12
Desktop or Laptop,Windows 10,Chrome 138.0.0.0,1280x720,1707x735,Temporal Distance Task,cb_08,44.0,temp_dist_trial,num_items,zn7si1,1.0,response,2_ITEM,1036.300000011921,1035.0,1036.300000011921,1036.300000011921,1035.0,1036.300000011921,1.0,0.0,0.0,,Click Response,2_count,5.0,object-49,temp_dist_trial,44.0,t_s_18_1,travel_shared,first aid kit,8.0,competing,paired,t_s_18_1.jpg,Travel,,,sub-12
Desktop or Laptop,Windows 10,Chrome 138.0.0.0,1280x720,1707x735,Temporal Distance Task,cb_08,44.0,temp_dist_trial,dist_items,qkpkxw,2.0,info,,4.2000000000116415,0.0,4.2000000000116415,4.2000000000116415,0.0,4.2000000000116415,1.0,0.0,0.0,,Slider,Slider,4.0,object-56,temp_dist_trial,44.0,t_s_18_1,travel_shared,first aid kit,8.0,competing,paired,t_s_18_1.jpg,Travel,,,sub-12
Desktop or Laptop,Windows 10,Chrome 138.0.0.0,1280x720,1707x735,Temporal Distance Task,cb_08,44.0,temp_dist_trial,dist_items,qkpkxw,2.0,continue,,2206.5000000119326,2201.700000000012,2206.5000000119326,2206.5000000119326,2201.700000000012,2206.5000000119326,1.0,0.0,0.0,,Click To Continue,Next button,7.0,object-60,temp_dist_trial,44.0,t_s_18_1,travel_shared,first aid kit,8.0,competing,paired,t_s_18_1.jpg,Travel,,,sub-12
Desktop or Laptop,Windows 10,Chrome 138.0.0.0,1280x720,1707x735,Temporal Distance Task,cb_08,44.0,temp_dist_trial,dist_items,qkpkxw,2.0,response,35,1722.6000000000058,2201.700000000012,2206.8999999880907,1722.6000000000058,2201.700000000012,2206.8999999880907,1.0,484.2999999880849,0.0,,Slider,Slider,4.0,object-56,temp_dist_trial,44.0,t_s_18_1,travel_shared,first aid kit,8.0,competing,paired,t_s_18_1.jpg,Travel,,,sub-12
Desktop or Laptop,Windows 10,Chrome 138.0.0.0,1280x720,1707x735,Temporal Distance Task,cb_08,45.0,temp_dist_trial,num_items,zn7si1,1.0,response,2_ITEM,1652.6999999880786,1646.1000000000058,1652.6999999880786,1652.6999999880786,1646.1000000000058,1652.6999999880786,1.0,0.0,0.0,,Click Response,2_count,5.0,object-49,temp_dist_trial,45.0,t_s_11_1,travel_shared,eye mask,8.0,competing,paired,t_s_11_1.jpg,Travel,,,sub-12
Desktop or Laptop,Windows 10,Chrome 138.0.0.0,1280x720,1707x735,Temporal Distance Task,cb_08,45.0,temp_dist_trial,dist_items,qkpkxw,2.0,info,,3.9000000238302164,0.0,3.9000000238302164,3.9000000238302164,0.0,3.9000000238302164,1.0,0.0,0.0,,Slider,Slider,4.0,object-56,temp_dist_trial,45.0,t_s_11_1,travel_shared,eye mask,8.0,competing,paired,t_s_11_1.jpg,Travel,,,sub-12
Desktop or Laptop,Windows 10,Chrome 138.0.0.0,1280x720,1707x735,Temporal Distance Task,cb_08,45.0,temp_dist_trial,dist_items,qkpkxw,2.0,continue,,1140.6000000119093,1139.0,1140.6000000119093,1140.6000000119093,1139.0,1140.6000000119093,1.0,0.0,0.0,,Click To Continue,Next button,7.0,object-60,temp_dist_trial,45.0,t_s_11_1,travel_shared,eye mask,8.0,competing,paired,t_s_11_1.jpg,Travel,,,sub-12
Desktop or Laptop,Windows 10,Chrome 138.0.0.0,1280x720,1707x735,Temporal Distance Task,cb_08,45.0,temp_dist_trial,dist_items,qkpkxw,2.0,response,28,632.0,1139.0,1140.9000000238302,632.0,1139.0,1140.9000000238302,1.0,508.90000002383016,0.0,,Slider,Slider,4.0,object-56,temp_dist_trial,45.0,t_s_11_1,travel_shared,eye mask,8.0,competing,paired,t_s_11_1.jpg,Travel,,,sub-12
Desktop or Laptop,Windows 10,Chrome 138.0.0.0,1280x720,1707x735,Temporal Distance Task,cb_08,46.0,temp_dist_trial,num_items,zn7si1,1.0,response,1_ITEM,1017.6000000119092,1014.0,1017.6000000119092,1017.6000000119092,1014.0,1017.6000000119092,1.0,0.0,0.0,,Click Response,1_count,3.0,object-46,temp_dist_trial,46.0,t_m_11_1,travel_Miami,collapsible beach chair,8.0,unique,paired,t_m_11_1.jpg,Travel,,,sub-12
Desktop or Laptop,Windows 10,Chrome 138.0.0.0,1280x720,1707x735,Temporal Distance Task,cb_08,47.0,temp_dist_trial,num_items,zn7si1,1.0,response,1_ITEM,1065.2999999999884,1062.5999999999767,1065.2999999999884,1065.2999999999884,1062.5999999999767,1065.2999999999884,1.0,0.0,0.0,,Click Response,1_count,3.0,object-46,temp_dist_trial,47.0,t_s_09_1,travel_shared,wallet,8.0,competing,single,t_s_09_1.jpg,Travel,,,sub-12
Desktop or Laptop,Windows 10,Chrome 138.0.0.0,1280x720,1707x735,Temporal Distance Task,cb_08,48.0,temp_dist_trial,num_items,zn7si1,1.0,response,1_ITEM,1097.0000000119326,1090.5,1097.0000000119326,1097.0000000119326,1090.5,1097.0000000119326,1.0,0.0,0.0,,Click Response,1_count,3.0,object-46,temp_dist_trial,48.0,t_s_06_1,travel_shared,luggage,8.0,competing,single,t_s_06_1.jpg,Travel,,,sub-12
Desktop or Laptop,Windows 10,Chrome 138.0.0.0,1280x720,1707x735,Temporal Distance Task,cb_08,2.0,temp_eventStart,Screen 1,dgtyxe,1.0,continue,,37045.60000000001,37039.5,37045.60000000001,37045.60000000001,37039.5,37045.60000000001,1.0,0.0,0.0,,Click To Continue,Next Button,3.0,object-43,temp_eventStart,,,Student,,,,,,,,,sub-12
Desktop or Laptop,Windows 10,Chrome 138.0.0.0,1280x720,1707x735,Temporal Distance Task,cb_08,49.0,temp_dist_trial,num_items,zn7si1,1.0,response,1_ITEM,1309.7000000238475,1305.7000000000114,1309.7000000238475,1309.7000000238475,1305.7000000000114,1309.7000000238475,1.0,0.0,0.0,,Click Response,1_count,3.0,object-46,temp_dist_trial,1.0,s_sh_11_1,student_shared,pencil case,8.0,competing,single,s_sh_11_1.jpg,Student,,,sub-12
Desktop or Laptop,Windows 10,Chrome 138.0.0.0,1280x720,1707x735,Temporal Distance Task,cb_08,50.0,temp_dist_trial,num_items,zn7si1,1.0,response,2_ITEM,945.0999999880733,944.6000000000058,945.0999999880733,945.0999999880733,944.6000000000058,945.0999999880733,1.0,0.0,0.0,,Click Response,2_count,5.0,object-49,temp_dist_trial,2.0,s_a_14_1,student_art,guitar pick,8.0,unique,paired,s_a_14_1.jpg,Student,,,sub-12
Desktop or Laptop,Windows 10,Chrome 138.0.0.0,1280x720,1707x735,Temporal Distance Task,cb_08,50.0,temp_dist_trial,dist_items,qkpkxw,2.0,info,,3.9000000238302164,0.0,3.9000000238302164,3.9000000238302164,0.0,3.9000000238302164,1.0,0.0,0.0,,Slider,Slider,4.0,object-56,temp_dist_trial,2.0,s_a_14_1,student_art,guitar pick,8.0,unique,paired,s_a_14_1.jpg,Student,,,sub-12
Desktop or Laptop,Windows 10,Chrome 138.0.0.0,1280x720,1707x735,Temporal Distance Task,cb_08,50.0,temp_dist_trial,dist_items,qkpkxw,2.0,continue,,967.6999999761464,965.3999999999942,967.6999999761464,967.6999999761464,965.3999999999942,967.6999999761464,1.0,0.0,0.0,,Click To Continue,Next button,7.0,object-60,temp_dist_trial,2.0,s_a_14_1,student_art,guitar pick,8.0,unique,paired,s_a_14_1.jpg,Student,,,sub-12
Desktop or Laptop,Windows 10,Chrome 138.0.0.0,1280x720,1707x735,Temporal Distance Task,cb_08,50.0,temp_dist_trial,dist_items,qkpkxw,2.0,response,34,514.0,965.3999999999942,968.1000000119092,514.0,965.3999999999942,968.1000000119092,1.0,454.10000001190923,0.0,,Slider,Slider,4.0,object-56,temp_dist_trial,2.0,s_a_14_1,student_art,guitar pick,8.0,unique,paired,s_a_14_1.jpg,Student,,,sub-12
Desktop or Laptop,Windows 10,Chrome 138.0.0.0,1280x720,1707x735,Temporal Distance Task,cb_08,51.0,temp_dist_trial,num_items,zn7si1,1.0,response,2_ITEM,545.000000023836,542.0,545.000000023836,545.000000023836,542.0,545.000000023836,1.0,0.0,0.0,,Click Response,2_count,5.0,object-49,temp_dist_trial,3.0,s_sh_06_1,student_shared,clipboard,8.0,competing,single,s_sh_06_1.jpg,Student,,,sub-12
Desktop or Laptop,Windows 10,Chrome 138.0.0.0,1280x720,1707x735,Temporal Distance Task,cb_08,51.0,temp_dist_trial,dist_items,qkpkxw,2.0,info,,3.799999988084892,0.0,3.799999988084892,3.799999988084892,0.0,3.799999988084892,1.0,0.0,0.0,,Slider,Slider,4.0,object-56,temp_dist_trial,3.0,s_sh_06_1,student_shared,clipboard,8.0,competing,single,s_sh_06_1.jpg,Student,,,sub-12
Desktop or Laptop,Windows 10,Chrome 138.0.0.0,1280x720,1707x735,Temporal Distance Task,cb_08,51.0,temp_dist_trial,dist_items,qkpkxw,2.0,continue,,1801.2999999880853,1798.8999999999942,1801.2999999880853,1801.2999999880853,1798.8999999999942,1801.2999999880853,1.0,0.0,0.0,,Click To Continue,Next button,7.0,object-60,temp_dist_trial,3.0,s_sh_06_1,student_shared,clipboard,8.0,competing,single,s_sh_06_1.jpg,Student,,,sub-12
Desktop or Laptop,Windows 10,Chrome 138.0.0.0,1280x720,1707x735,Temporal Distance Task,cb_08,51.0,temp_dist_trial,dist_items,qkpkxw,2.0,response,33,1139.0,1798.8999999999942,1801.700000023848,1139.0,1798.8999999999942,1801.700000023848,1.0,662.7000000238477,0.0,,Slider,Slider,4.0,object-56,temp_dist_trial,3.0,s_sh_06_1,student_shared,clipboard,8.0,competing,single,s_sh_06_1.jpg,Student,,,sub-12
Desktop or Laptop,Windows 10,Chrome 138.0.0.0,1280x720,1707x735,Temporal Distance Task,cb_08,52.0,temp_dist_trial,num_items,zn7si1,1.0,response,1_ITEM,602.8999999880907,597.2000000000116,602.8999999880907,602.8999999880907,597.2000000000116,602.8999999880907,1.0,0.0,0.0,,Click Response,1_count,3.0,object-46,temp_dist_trial,4.0,s_sh_16_1,student_shared,stapler,8.0,competing,paired,s_sh_16_1.jpg,Student,,,sub-12
Desktop or Laptop,Windows 10,Chrome 138.0.0.0,1280x720,1707x735,Temporal Distance Task,cb_08,53.0,temp_dist_trial,num_items,zn7si1,1.0,response,2_ITEM,1059.0999999880733,1055.6000000000058,1059.0999999880733,1059.0999999880733,1055.6000000000058,1059.0999999880733,1.0,0.0,0.0,,Click Response,2_count,5.0,object-49,temp_dist_trial,5.0,s_a_12_1,student_art,saxophone,8.0,unique,paired,s_a_12_1.jpg,Student,,,sub-12
Desktop or Laptop,Windows 10,Chrome 138.0.0.0,1280x720,1707x735,Temporal Distance Task,cb_08,53.0,temp_dist_trial,dist_items,qkpkxw,2.0,info,,3.8000000238534986,0.0,3.8000000238534986,3.8000000238534986,0.0,3.8000000238534986,1.0,0.0,0.0,,Slider,Slider,4.0,object-56,temp_dist_trial,5.0,s_a_12_1,student_art,saxophone,8.0,unique,paired,s_a_12_1.jpg,Student,,,sub-12
Desktop or Laptop,Windows 10,Chrome 138.0.0.0,1280x720,1707x735,Temporal Distance Task,cb_08,53.0,temp_dist_trial,dist_items,qkpkxw,2.0,continue,,1393.5999999761698,1389.2000000000116,1393.5999999761698,1393.5999999761698,1389.2000000000116,1393.5999999761698,1.0,0.0,0.0,,Click To Continue,Next button,7.0,object-60,temp_dist_trial,5.0,s_a_12_1,student_art,saxophone,8.0,unique,paired,s_a_12_1.jpg,Student,,,sub-12
Desktop or Laptop,Windows 10,Chrome 138.0.0.0,1280x720,1707x735,Temporal Distance Task,cb_08,53.0,temp_dist_trial,dist_items,qkpkxw,2.0,response,26,847.4000000000232,1389.2000000000116,1394.0999999761698,847.4000000000232,1389.2000000000116,1394.0999999761698,1.0,546.6999999761465,0.0,,Slider,Slider,4.0,object-56,temp_dist_trial,5.0,s_a_12_1,student_art,saxophone,8.0,unique,paired,s_a_12_1.jpg,Student,,,sub-12
Desktop or Laptop,Windows 10,Chrome 138.0.0.0,1280x720,1707x735,Temporal Distance Task,cb_08,54.0,temp_dist_trial,num_items,zn7si1,1.0,response,1_ITEM,1197.5,1194.5,1197.5,1197.5,1194.5,1197.5,1.0,0.0,0.0,,Click Response,1_count,3.0,object-46,temp_dist_trial,6.0,s_a_03_1,student_art,palette,8.0,unique,single,s_a_03_1.jpg,Student,,,sub-12
Desktop or Laptop,Windows 10,Chrome 138.0.0.0,1280x720,1707x735,Temporal Distance Task,cb_08,55.0,temp_dist_trial,num_items,zn7si1,1.0,response,2_ITEM,1208.2000000238475,1201.6000000000058,1208.2000000238475,1208.2000000238475,1201.6000000000058,1208.2000000238475,1.0,0.0,0.0,,Click Response,2_count,5.0,object-49,temp_dist_trial,7.0,s_s_08_1,student_stem,soldering iron,8.0,unique,paired,s_s_08_1.jpg,Student,,,sub-12
Desktop or Laptop,Windows 10,Chrome 138.0.0.0,1280x720,1707x735,Temporal Distance Task,cb_08,55.0,temp_dist_trial,dist_items,qkpkxw,2.0,info,,4.199999988079071,0.0,4.199999988079071,4.199999988079071,0.0,4.199999988079071,1.0,0.0,0.0,,Slider,Slider,4.0,object-56,temp_dist_trial,7.0,s_s_08_1,student_stem,soldering iron,8.0,unique,paired,s_s_08_1.jpg,Student,,,sub-12
Desktop or Laptop,Windows 10,Chrome 138.0.0.0,1280x720,1707x735,Temporal Distance Task,cb_08,55.0,temp_dist_trial,dist_items,qkpkxw,2.0,continue,,1036.300000011921,1035.0,1036.300000011921,1036.300000011921,1035.0,1036.300000011921,1.0,0.0,0.0,,Click To Continue,Next button,7.0,object-60,temp_dist_trial,7.0,s_s_08_1,student_stem,soldering iron,8.0,unique,paired,s_s_08_1.jpg,Student,,,sub-12
Desktop or Laptop,Windows 10,Chrome 138.0.0.0,1280x720,1707x735,Temporal Distance Task,cb_08,55.0,temp_dist_trial,dist_items,qkpkxw,2.0,response,17,604.3999999999943,1035.0,1036.600000023842,604.3999999999943,1035.0,1036.600000023842,1.0,432.2000000238477,0.0,,Slider,Slider,4.0,object-56,temp_dist_trial,7.0,s_s_08_1,student_stem,soldering iron,8.0,unique,paired,s_s_08_1.jpg,Student,,,sub-12
Desktop or Laptop,Windows 10,Chrome 138.0.0.0,1280x720,1707x735,Temporal Distance Task,cb_08,56.0,temp_dist_trial,num_items,zn7si1,1.0,response,1_ITEM,1073.199999988079,1069.5,1073.199999988079,1073.199999988079,1069.5,1073.199999988079,1.0,0.0,0.0,,Click Response,1_count,3.0,object-46,temp_dist_trial,8.0,s_s_03_1,student_stem,petri dish,8.0,unique,single,s_s_03_1.jpg,Student,,,sub-12
Desktop or Laptop,Windows 10,Chrome 138.0.0.0,1280x720,1707x735,Temporal Distance Task,cb_08,57.0,temp_dist_trial,num_items,zn7si1,1.0,response,1_ITEM,801.6000000238419,798.7999999999884,801.6000000238419,801.6000000238419,798.7999999999884,801.6000000238419,1.0,0.0,0.0,,Click Response,1_count,3.0,object-46,temp_dist_trial,9.0,s_sh_14_1,student_shared,printer,8.0,competing,single,s_sh_14_1.jpg,Student,,,sub-12
Desktop or Laptop,Windows 10,Chrome 138.0.0.0,1280x720,1707x735,Temporal Distance Task,cb_08,58.0,temp_dist_trial,num_items,zn7si1,1.0,response,1_ITEM,689.8000000238535,687.6000000000058,689.8000000238535,689.8000000238535,687.6000000000058,689.8000000238535,1.0,0.0,0.0,,Click Response,1_count,3.0,object-46,temp_dist_trial,10.0,s_sh_02_1,student_shared,eraser,8.0,competing,paired,s_sh_02_1.jpg,Student,,,sub-12
Desktop or Laptop,Windows 10,Chrome 138.0.0.0,1280x720,1707x735,Temporal Distance Task,cb_08,59.0,temp_dist_trial,num_items,zn7si1,1.0,response,2_ITEM,887.6000000238419,881.8999999999942,887.6000000238419,887.6000000238419,881.8999999999942,887.6000000238419,1.0,0.0,0.0,,Click Response,2_count,5.0,object-49,temp_dist_trial,11.0,s_s_19_1,student_stem,circuit board,8.0,unique,paired,s_s_19_1.jpg,Student,,,sub-12
Desktop or Laptop,Windows 10,Chrome 138.0.0.0,1280x720,1707x735,Temporal Distance Task,cb_08,59.0,temp_dist_trial,dist_items,qkpkxw,2.0,info,,3.800000011920929,0.0,3.800000011920929,3.800000011920929,0.0,3.800000011920929,1.0,0.0,0.0,,Slider,Slider,4.0,object-56,temp_dist_trial,11.0,s_s_19_1,student_stem,circuit board,8.0,unique,paired,s_s_19_1.jpg,Student,,,sub-12
Desktop or Laptop,Windows 10,Chrome 138.0.0.0,1280x720,1707x735,Temporal Distance Task,cb_08,59.0,temp_dist_trial,dist_items,qkpkxw,2.0,continue,,1116.5,1111.2999999999884,1116.5,1116.5,1111.2999999999884,1116.5,1.0,0.0,0.0,,Click To Continue,Next button,7.0,object-60,temp_dist_trial,11.0,s_s_19_1,student_stem,circuit board,8.0,unique,paired,s_s_19_1.jpg,Student,,,sub-12
Desktop or Laptop,Windows 10,Chrome 138.0.0.0,1280x720,1707x735,Temporal Distance Task,cb_08,59.0,temp_dist_trial,dist_items,qkpkxw,2.0,response,28,701.5,1111.2999999999884,1117.0,701.5,1111.2999999999884,1117.0,1.0,415.5,0.0,,Slider,Slider,4.0,object-56,temp_dist_trial,11.0,s_s_19_1,student_stem,circuit board,8.0,unique,paired,s_s_19_1.jpg,Student,,,sub-12
Desktop or Laptop,Windows 10,Chrome 138.0.0.0,1280x720,1707x735,Temporal Distance Task,cb_08,60.0,temp_dist_trial,num_items,zn7si1,1.0,response,1_ITEM,1148.2000000000114,1145.9000000000233,1148.2000000000114,1148.2000000000114,1145.9000000000233,1148.2000000000114,1.0,0.0,0.0,,Click Response,1_count,3.0,object-46,temp_dist_trial,12.0,s_s_11_1,student_stem,scientific scale,8.0,unique,paired,s_s_11_1.jpg,Student,,,sub-12
Desktop or Laptop,Windows 10,Chrome 138.0.0.0,1280x720,1707x735,Temporal Distance Task,cb_08,61.0,temp_dist_trial,num_items,zn7si1,1.0,response,1_ITEM,809.0999999761698,805.6000000000058,809.0999999761698,809.0999999761698,805.6000000000058,809.0999999761698,1.0,0.0,0.0,,Click Response,1_count,3.0,object-46,temp_dist_trial,13.0,s_s_14_1,student_stem,funnel,8.0,unique,single,s_s_14_1.jpg,Student,,,sub-12
Desktop or Laptop,Windows 10,Chrome 138.0.0.0,1280x720,1707x735,Temporal Distance Task,cb_08,62.0,temp_dist_trial,num_items,zn7si1,1.0,response,2_ITEM,880.2999999880849,875.2000000000116,880.2999999880849,880.2999999880849,875.2000000000116,880.2999999880849,1.0,0.0,0.0,,Click Response,2_count,5.0,object-49,temp_dist_trial,14.0,s_sh_04_1,student_shared,laptop stand,8.0,competing,paired,s_sh_04_1.jpg,Student,,,sub-12
Desktop or Laptop,Windows 10,Chrome 138.0.0.0,1280x720,1707x735,Temporal Distance Task,cb_08,62.0,temp_dist_trial,dist_items,qkpkxw,2.0,info,,4.09999998807325,0.0,4.09999998807325,4.09999998807325,0.0,4.09999998807325,1.0,0.0,0.0,,Slider,Slider,4.0,object-56,temp_dist_trial,14.0,s_sh_04_1,student_shared,laptop stand,8.0,competing,paired,s_sh_04_1.jpg,Student,,,sub-12
Desktop or Laptop,Windows 10,Chrome 138.0.0.0,1280x720,1707x735,Temporal Distance Task,cb_08,62.0,temp_dist_trial,dist_items,qkpkxw,2.0,continue,,2019.000000023836,2014.1999999999825,2019.000000023836,2019.000000023836,2014.1999999999825,2019.000000023836,1.0,0.0,0.0,,Click To Continue,Next button,7.0,object-60,temp_dist_trial,14.0,s_sh_04_1,student_shared,laptop stand,8.0,competing,paired,s_sh_04_1.jpg,Student,,,sub-12
Desktop or Laptop,Windows 10,Chrome 138.0.0.0,1280x720,1707x735,Temporal Distance Task,cb_08,62.0,temp_dist_trial,dist_items,qkpkxw,2.0,response,31,1368.2999999999886,2014.1999999999825,2019.2999999761525,1368.2999999999886,2014.1999999999825,2019.2999999761525,1.0,650.999999976164,0.0,,Slider,Slider,4.0,object-56,temp_dist_trial,14.0,s_sh_04_1,student_shared,laptop stand,8.0,competing,paired,s_sh_04_1.jpg,Student,,,sub-12
Desktop or Laptop,Windows 10,Chrome 138.0.0.0,1280x720,1707x735,Temporal Distance Task,cb_08,63.0,temp_dist_trial,num_items,zn7si1,1.0,response,2_ITEM,892.8999999880908,888.9000000000232,892.8999999880908,892.8999999880908,888.9000000000232,892.8999999880908,1.0,0.0,0.0,,Click Response,2_count,5.0,object-49,temp_dist_trial,15.0,s_a_05_1,student_art,clay,8.0,unique,paired,s_a_05_1.jpg,Student,,,sub-12
Desktop or Laptop,Windows 10,Chrome 138.0.0.0,1280x720,1707x735,Temporal Distance Task,cb_08,63.0,temp_dist_trial,dist_items,qkpkxw,2.0,info,,3.8000000238534986,0.0,3.8000000238534986,3.8000000238534986,0.0,3.8000000238534986,1.0,0.0,0.0,,Slider,Slider,4.0,object-56,temp_dist_trial,15.0,s_a_05_1,student_art,clay,8.0,unique,paired,s_a_05_1.jpg,Student,,,sub-12
Desktop or Laptop,Windows 10,Chrome 138.0.0.0,1280x720,1707x735,Temporal Distance Task,cb_08,63.0,temp_dist_trial,dist_items,qkpkxw,2.0,continue,,1250.0000000119326,1243.2000000000114,1250.0000000119326,1250.0000000119326,1243.2000000000114,1250.0000000119326,1.0,0.0,0.0,,Click To Continue,Next button,7.0,object-60,temp_dist_trial,15.0,s_a_05_1,student_art,clay,8.0,unique,paired,s_a_05_1.jpg,Student,,,sub-12
Desktop or Laptop,Windows 10,Chrome 138.0.0.0,1280x720,1707x735,Temporal Distance Task,cb_08,63.0,temp_dist_trial,dist_items,qkpkxw,2.0,response,68,451.5,1243.2000000000114,1250.1000000000058,451.5,1243.2000000000114,1250.1000000000058,1.0,798.6000000000058,0.0,,Slider,Slider,4.0,object-56,temp_dist_trial,15.0,s_a_05_1,student_art,clay,8.0,unique,paired,s_a_05_1.jpg,Student,,,sub-12
Desktop or Laptop,Windows 10,Chrome 138.0.0.0,1280x720,1707x735,Temporal Distance Task,cb_08,64.0,temp_dist_trial,num_items,zn7si1,1.0,response,1_ITEM,799.5,798.7999999999884,799.5,799.5,798.7999999999884,799.5,1.0,0.0,0.0,,Click Response,1_count,3.0,object-46,temp_dist_trial,16.0,s_sh_05_1,student_shared,laptop,8.0,competing,paired,s_sh_05_1.jpg,Student,,,sub-12
Desktop or Laptop,Windows 10,Chrome 138.0.0.0,1280x720,1707x735,Temporal Distance Task,cb_08,65.0,temp_dist_trial,num_items,zn7si1,1.0,response,1_ITEM,1622.5999999761698,1618.2000000000116,1622.5999999761698,1622.5999999761698,1618.2000000000116,1622.5999999761698,1.0,0.0,0.0,,Click Response,1_count,3.0,object-46,temp_dist_trial,17.0,s_a_06_1,student_art,pastels,8.0,unique,paired,s_a_06_1.jpg,Student,,,sub-12
Desktop or Laptop,Windows 10,Chrome 138.0.0.0,1280x720,1707x735,Temporal Distance Task,cb_08,66.0,temp_dist_trial,num_items,zn7si1,1.0,response,1_ITEM,681.6999999880792,680.7000000000116,681.6999999880792,681.6999999880792,680.7000000000116,681.6999999880792,1.0,0.0,0.0,,Click Response,1_count,3.0,object-46,temp_dist_trial,18.0,s_sh_07_1,student_shared,ruler,8.0,competing,paired,s_sh_07_1.jpg,Student,,,sub-12
Desktop or Laptop,Windows 10,Chrome 138.0.0.0,1280x720,1707x735,Temporal Distance Task,cb_08,67.0,temp_dist_trial,num_items,zn7si1,1.0,response,2_ITEM,512.0000000119326,507.0,512.0000000119326,512.0000000119326,507.0,512.0000000119326,1.0,0.0,0.0,,Click Response,2_count,5.0,object-49,temp_dist_trial,19.0,s_sh_21_1,student_shared,file holder,8.0,competing,paired,s_sh_21_1.jpg,Student,,,sub-12
Desktop or Laptop,Windows 10,Chrome 138.0.0.0,1280x720,1707x735,Temporal Distance Task,cb_08,67.0,temp_dist_trial,dist_items,qkpkxw,2.0,info,,3.899999988090713,0.0,3.899999988090713,3.899999988090713,0.0,3.899999988090713,1.0,0.0,0.0,,Slider,Slider,4.0,object-56,temp_dist_trial,19.0,s_sh_21_1,student_shared,file holder,8.0,competing,paired,s_sh_21_1.jpg,Student,,,sub-12
Desktop or Laptop,Windows 10,Chrome 138.0.0.0,1280x720,1707x735,Temporal Distance Task,cb_08,67.0,temp_dist_trial,dist_items,qkpkxw,2.0,continue,,1250.0999999761698,1243.2000000000114,1250.0999999761698,1250.0999999761698,1243.2000000000114,1250.0999999761698,1.0,0.0,0.0,,Click To Continue,Next button,7.0,object-60,temp_dist_trial,19.0,s_sh_21_1,student_shared,file holder,8.0,competing,paired,s_sh_21_1.jpg,Student,,,sub-12
Desktop or Laptop,Windows 10,Chrome 138.0.0.0,1280x720,1707x735,Temporal Distance Task,cb_08,67.0,temp_dist_trial,dist_items,qkpkxw,2.0,response,38,555.6000000000058,1243.2000000000114,1250.1000000000058,555.6000000000058,1243.2000000000114,1250.1000000000058,1.0,694.5,0.0,,Slider,Slider,4.0,object-56,temp_dist_trial,19.0,s_sh_21_1,student_shared,file holder,8.0,competing,paired,s_sh_21_1.jpg,Student,,,sub-12
Desktop or Laptop,Windows 10,Chrome 138.0.0.0,1280x720,1707x735,Temporal Distance Task,cb_08,68.0,temp_dist_trial,num_items,zn7si1,1.0,response,1_ITEM,2870.699999988079,2868.3999999999933,2870.699999988079,2870.699999988079,2868.3999999999933,2870.699999988079,1.0,0.0,0.0,,Click Response,1_count,3.0,object-46,temp_dist_trial,20.0,s_sh_01_1,student_shared,notebook,8.0,competing,paired,s_sh_01_1.jpg,Student,,,sub-12
Desktop or Laptop,Windows 10,Chrome 138.0.0.0,1280x720,1707x735,Temporal Distance Task,cb_08,69.0,temp_dist_trial,num_items,zn7si1,1.0,response,1_ITEM,2120.9000000119267,2118.3000000000175,2120.9000000119267,2120.9000000119267,2118.3000000000175,2120.9000000119267,1.0,0.0,0.0,,Click Response,1_count,3.0,object-46,temp_dist_trial,21.0,s_s_13_1,student_stem,telescope,8.0,unique,single,s_s_13_1.jpg,Student,,,sub-12
Desktop or Laptop,Windows 10,Chrome 138.0.0.0,1280x720,1707x735,Temporal Distance Task,cb_08,70.0,temp_dist_trial,num_items,zn7si1,1.0,response,1_ITEM,744.7000000000116,743.2000000000116,744.7000000000116,744.7000000000116,743.2000000000116,744.7000000000116,1.0,0.0,0.0,,Click Response,1_count,3.0,object-46,temp_dist_trial,22.0,s_sh_19_1,student_shared,portable plastic drawer,8.0,competing,paired,s_sh_19_1.jpg,Student,,,sub-12
Desktop or Laptop,Windows 10,Chrome 138.0.0.0,1280x720,1707x735,Temporal Distance Task,cb_08,71.0,temp_dist_trial,num_items,zn7si1,1.0,response,1_ITEM,982.999999976164,979.3999999999942,982.999999976164,982.999999976164,979.3999999999942,982.999999976164,1.0,0.0,0.0,,Click Response,1_count,3.0,object-46,temp_dist_trial,23.0,s_sh_10_1,student_shared,scissors,8.0,competing,single,s_sh_10_1.jpg,Student,,,sub-12
Desktop or Laptop,Windows 10,Chrome 138.0.0.0,1280x720,1707x735,Temporal Distance Task,cb_08,72.0,temp_dist_trial,num_items,zn7si1,1.0,response,1_ITEM,1322.2999999880851,1319.5,1322.2999999880851,1322.2999999880851,1319.5,1322.2999999880851,1.0,0.0,0.0,,Click Response,1_count,3.0,object-46,temp_dist_trial,24.0,s_a_09_1,student_art,picture frame,8.0,unique,single,s_a_09_1.jpg,Student,,,sub-12
Desktop or Laptop,Windows 10,Chrome 138.0.0.0,1280x720,1707x735,Temporal Distance Task,cb_08,73.0,temp_dist_trial,num_items,zn7si1,1.0,response,1_ITEM,1568.1999999880786,1562.6000000000058,1568.1999999880786,1568.1999999880786,1562.6000000000058,1568.1999999880786,1.0,0.0,0.0,,Click Response,1_count,3.0,object-46,temp_dist_trial,25.0,s_a_13_1,student_art,violin,8.0,unique,single,s_a_13_1.jpg,Student,,,sub-12
Desktop or Laptop,Windows 10,Chrome 138.0.0.0,1280x720,1707x735,Temporal Distance Task,cb_08,74.0,temp_dist_trial,num_items,zn7si1,1.0,response,1_ITEM,1299.2000000000114,1298.7000000000114,1299.2000000000114,1299.2000000000114,1298.7000000000114,1299.2000000000114,1.0,0.0,0.0,,Click Response,1_count,3.0,object-46,temp_dist_trial,26.0,s_sh_13_1,student_shared,index cards,8.0,competing,single,s_sh_13_1.jpg,Student,,,sub-12
Desktop or Laptop,Windows 10,Chrome 138.0.0.0,1280x720,1707x735,Temporal Distance Task,cb_08,75.0,temp_dist_trial,num_items,zn7si1,1.0,response,1_ITEM,2606.399999976158,2604.5,2606.399999976158,2606.399999976158,2604.5,2606.399999976158,1.0,0.0,0.0,,Click Response,1_count,3.0,object-46,temp_dist_trial,27.0,s_sh_15_1,student_shared,usb drive,8.0,competing,single,s_sh_15_1.jpg,Student,,,sub-12
Desktop or Laptop,Windows 10,Chrome 138.0.0.0,1280x720,1707x735,Temporal Distance Task,cb_08,76.0,temp_dist_trial,num_items,zn7si1,1.0,response,1_ITEM,639.8999999761581,639.0,639.8999999761581,639.8999999761581,639.0,639.8999999761581,1.0,0.0,0.0,,Click Response,1_count,3.0,object-46,temp_dist_trial,28.0,s_sh_12_1,student_shared,binder,8.0,competing,single,s_sh_12_1.jpg,Student,,,sub-12
Desktop or Laptop,Windows 10,Chrome 138.0.0.0,1280x720,1707x735,Temporal Distance Task,cb_08,77.0,temp_dist_trial,num_items,zn7si1,1.0,response,2_ITEM,830.6999999880791,826.7000000000116,830.6999999880791,830.6999999880791,826.7000000000116,830.6999999880791,1.0,0.0,0.0,,Click Response,2_count,5.0,object-49,temp_dist_trial,29.0,s_a_15_1,student_art,drum kit,8.0,unique,paired,s_a_15_1.jpg,Student,,,sub-12
Desktop or Laptop,Windows 10,Chrome 138.0.0.0,1280x720,1707x735,Temporal Distance Task,cb_08,77.0,temp_dist_trial,dist_items,qkpkxw,2.0,info,,4.09999998807325,0.0,4.09999998807325,4.09999998807325,0.0,4.09999998807325,1.0,0.0,0.0,,Slider,Slider,4.0,object-56,temp_dist_trial,29.0,s_a_15_1,student_art,drum kit,8.0,unique,paired,s_a_15_1.jpg,Student,,,sub-12
Desktop or Laptop,Windows 10,Chrome 138.0.0.0,1280x720,1707x735,Temporal Distance Task,cb_08,77.0,temp_dist_trial,dist_items,qkpkxw,2.0,continue,,1604.2999999761525,1597.3999999999942,1604.2999999761525,1604.2999999761525,1597.3999999999942,1604.2999999761525,1.0,0.0,0.0,,Click To Continue,Next button,7.0,object-60,temp_dist_trial,29.0,s_a_15_1,student_art,drum kit,8.0,unique,paired,s_a_15_1.jpg,Student,,,sub-12
Desktop or Laptop,Windows 10,Chrome 138.0.0.0,1280x720,1707x735,Temporal Distance Task,cb_08,77.0,temp_dist_trial,dist_items,qkpkxw,2.0,response,32,819.5,1597.3999999999942,1604.2999999999884,819.5,1597.3999999999942,1604.2999999999884,1.0,784.7999999999884,0.0,,Slider,Slider,4.0,object-56,temp_dist_trial,29.0,s_a_15_1,student_art,drum kit,8.0,unique,paired,s_a_15_1.jpg,Student,,,sub-12
Desktop or Laptop,Windows 10,Chrome 138.0.0.0,1280x720,1707x735,Temporal Distance Task,cb_08,78.0,temp_dist_trial,num_items,zn7si1,1.0,response,2_ITEM,924.6999999880792,923.7000000000116,924.6999999880792,924.6999999880792,923.7000000000116,924.6999999880792,1.0,0.0,0.0,,Click Response,2_count,5.0,object-49,temp_dist_trial,30.0,s_s_15_1,student_stem,jumper cables,8.0,unique,paired,s_s_15_1.jpg,Student,,,sub-12
Desktop or Laptop,Windows 10,Chrome 138.0.0.0,1280x720,1707x735,Temporal Distance Task,cb_08,78.0,temp_dist_trial,dist_items,qkpkxw,2.0,info,,3.6999999761465014,0.0,3.6999999761465014,3.6999999761465014,0.0,3.6999999761465014,1.0,0.0,0.0,,Slider,Slider,4.0,object-56,temp_dist_trial,30.0,s_s_15_1,student_stem,jumper cables,8.0,unique,paired,s_s_15_1.jpg,Student,,,sub-12
Desktop or Laptop,Windows 10,Chrome 138.0.0.0,1280x720,1707x735,Temporal Distance Task,cb_08,78.0,temp_dist_trial,dist_items,qkpkxw,2.0,continue,,903.6999999761464,903.0,903.6999999761464,903.6999999761464,903.0,903.6999999761464,1.0,0.0,0.0,,Click To Continue,Next button,7.0,object-60,temp_dist_trial,30.0,s_s_15_1,student_stem,jumper cables,8.0,unique,paired,s_s_15_1.jpg,Student,,,sub-12
Desktop or Laptop,Windows 10,Chrome 138.0.0.0,1280x720,1707x735,Temporal Distance Task,cb_08,78.0,temp_dist_trial,dist_items,qkpkxw,2.0,response,28,444.5999999999767,903.0,903.9999999880673,444.5999999999767,903.0,903.9999999880673,1.0,459.3999999880906,0.0,,Slider,Slider,4.0,object-56,temp_dist_trial,30.0,s_s_15_1,student_stem,jumper cables,8.0,unique,paired,s_s_15_1.jpg,Student,,,sub-12
Desktop or Laptop,Windows 10,Chrome 138.0.0.0,1280x720,1707x735,Temporal Distance Task,cb_08,79.0,temp_dist_trial,num_items,zn7si1,1.0,response,2_ITEM,1104.1000000119093,1097.3999999999942,1104.1000000119093,1104.1000000119093,1097.3999999999942,1104.1000000119093,1.0,0.0,0.0,,Click Response,2_count,5.0,object-49,temp_dist_trial,31.0,s_sh_17_1,student_shared,wireless mouse,8.0,competing,paired,s_sh_17_1.jpg,Student,,,sub-12
Desktop or Laptop,Windows 10,Chrome 138.0.0.0,1280x720,1707x735,Temporal Distance Task,cb_08,79.0,temp_dist_trial,dist_items,qkpkxw,2.0,info,,3.800000011920929,0.0,3.800000011920929,3.800000011920929,0.0,3.800000011920929,1.0,0.0,0.0,,Slider,Slider,4.0,object-56,temp_dist_trial,31.0,s_sh_17_1,student_shared,wireless mouse,8.0,competing,paired,s_sh_17_1.jpg,Student,,,sub-12
Desktop or Laptop,Windows 10,Chrome 138.0.0.0,1280x720,1707x735,Temporal Distance Task,cb_08,79.0,temp_dist_trial,dist_items,qkpkxw,2.0,continue,,2109.600000023842,2104.6000000000063,2109.600000023842,2109.600000023842,2104.6000000000063,2109.600000023842,1.0,0.0,0.0,,Click To Continue,Next button,7.0,object-60,temp_dist_trial,31.0,s_sh_17_1,student_shared,wireless mouse,8.0,competing,paired,s_sh_17_1.jpg,Student,,,sub-12
Desktop or Laptop,Windows 10,Chrome 138.0.0.0,1280x720,1707x735,Temporal Distance Task,cb_08,79.0,temp_dist_trial,dist_items,qkpkxw,2.0,response,31,1479.5,2104.6000000000063,2110.100000023842,1479.5,2104.6000000000063,2110.100000023842,1.0,630.6000000238419,0.0,,Slider,Slider,4.0,object-56,temp_dist_trial,31.0,s_sh_17_1,student_shared,wireless mouse,8.0,competing,paired,s_sh_17_1.jpg,Student,,,sub-12
Desktop or Laptop,Windows 10,Chrome 138.0.0.0,1280x720,1707x735,Temporal Distance Task,cb_08,80.0,temp_dist_trial,num_items,zn7si1,1.0,response,1_ITEM,700.2000000119151,694.5,700.2000000119151,700.2000000119151,694.5,700.2000000119151,1.0,0.0,0.0,,Click Response,1_count,3.0,object-46,temp_dist_trial,32.0,s_s_10_1,student_stem,3d molecule,8.0,unique,paired,s_s_10_1.jpg,Student,,,sub-12
Desktop or Laptop,Windows 10,Chrome 138.0.0.0,1280x720,1707x735,Temporal Distance Task,cb_08,81.0,temp_dist_trial,num_items,zn7si1,1.0,response,2_ITEM,891.7000000119151,889.0,891.7000000119151,891.7000000119151,889.0,891.7000000119151,1.0,0.0,0.0,,Click Response,2_count,5.0,object-49,temp_dist_trial,33.0,s_sh_08_1,student_shared,post-its,8.0,competing,paired,s_sh_08_1.jpg,Student,,,sub-12
Desktop or Laptop,Windows 10,Chrome 138.0.0.0,1280x720,1707x735,Temporal Distance Task,cb_08,81.0,temp_dist_trial,dist_items,qkpkxw,2.0,info,,4.09999998807325,0.0,4.09999998807325,4.09999998807325,0.0,4.09999998807325,1.0,0.0,0.0,,Slider,Slider,4.0,object-56,temp_dist_trial,33.0,s_sh_08_1,student_shared,post-its,8.0,competing,paired,s_sh_08_1.jpg,Student,,,sub-12
Desktop or Laptop,Windows 10,Chrome 138.0.0.0,1280x720,1707x735,Temporal Distance Task,cb_08,81.0,temp_dist_trial,dist_items,qkpkxw,2.0,continue,,961.5999999880733,958.5,961.5999999880733,961.5999999880733,958.5,961.5999999880733,1.0,0.0,0.0,,Click To Continue,Next button,7.0,object-60,temp_dist_trial,33.0,s_sh_08_1,student_shared,post-its,8.0,competing,paired,s_sh_08_1.jpg,Student,,,sub-12
Desktop or Laptop,Windows 10,Chrome 138.0.0.0,1280x720,1707x735,Temporal Distance Task,cb_08,81.0,temp_dist_trial,dist_items,qkpkxw,2.0,response,27,270.8999999999942,958.5,962.0999999880733,270.8999999999942,958.5,962.0999999880733,1.0,691.1999999880791,0.0,,Slider,Slider,4.0,object-56,temp_dist_trial,33.0,s_sh_08_1,student_shared,post-its,8.0,competing,paired,s_sh_08_1.jpg,Student,,,sub-12
Desktop or Laptop,Windows 10,Chrome 138.0.0.0,1280x720,1707x735,Temporal Distance Task,cb_08,82.0,temp_dist_trial,num_items,zn7si1,1.0,response,1_ITEM,946.2000000119153,944.6000000000058,946.2000000119153,946.2000000119153,944.6000000000058,946.2000000119153,1.0,0.0,0.0,,Click Response,1_count,3.0,object-46,temp_dist_trial,34.0,s_s_17_1,student_stem,ring stand,8.0,unique,single,s_s_17_1.jpg,Student,,,sub-12
Desktop or Laptop,Windows 10,Chrome 138.0.0.0,1280x720,1707x735,Temporal Distance Task,cb_08,83.0,temp_dist_trial,num_items,zn7si1,1.0,response,2_ITEM,2599.799999976153,2597.6000000000063,2599.799999976153,2599.799999976153,2597.6000000000063,2599.799999976153,1.0,0.0,0.0,,Click Response,2_count,5.0,object-49,temp_dist_trial,35.0,s_s_06_1,student_stem,calculator,8.0,unique,paired,s_s_06_1.jpg,Student,,,sub-12
Desktop or Laptop,Windows 10,Chrome 138.0.0.0,1280x720,1707x735,Temporal Distance Task,cb_08,83.0,temp_dist_trial,dist_items,qkpkxw,2.0,info,,3.5999999761697836,0.0,3.5999999761697836,3.5999999761697836,0.0,3.5999999761697836,1.0,0.0,0.0,,Slider,Slider,4.0,object-56,temp_dist_trial,35.0,s_s_06_1,student_stem,calculator,8.0,unique,paired,s_s_06_1.jpg,Student,,,sub-12
Desktop or Laptop,Windows 10,Chrome 138.0.0.0,1280x720,1707x735,Temporal Distance Task,cb_08,83.0,temp_dist_trial,dist_items,qkpkxw,2.0,continue,,2023.800000023853,2021.0,2023.800000023853,2023.800000023853,2021.0,2023.800000023853,1.0,0.0,0.0,,Click To Continue,Next button,7.0,object-60,temp_dist_trial,35.0,s_s_06_1,student_stem,calculator,8.0,unique,paired,s_s_06_1.jpg,Student,,,sub-12
Desktop or Laptop,Windows 10,Chrome 138.0.0.0,1280x720,1707x735,Temporal Distance Task,cb_08,83.0,temp_dist_trial,dist_items,qkpkxw,2.0,response,31,1604.3000000000175,2021.0,2024.099999976169,1604.3000000000175,2021.0,2024.099999976169,1.0,419.7999999761523,0.0,,Slider,Slider,4.0,object-56,temp_dist_trial,35.0,s_s_06_1,student_stem,calculator,8.0,unique,paired,s_s_06_1.jpg,Student,,,sub-12
Desktop or Laptop,Windows 10,Chrome 138.0.0.0,1280x720,1707x735,Temporal Distance Task,cb_08,84.0,temp_dist_trial,num_items,zn7si1,1.0,response,2_ITEM,946.8999999880908,944.7000000000116,946.8999999880908,946.8999999880908,944.7000000000116,946.8999999880908,1.0,0.0,0.0,,Click Response,2_count,5.0,object-49,temp_dist_trial,36.0,s_s_20_1,student_stem,dna model,8.0,unique,paired,s_s_20_1.jpg,Student,,,sub-12
Desktop or Laptop,Windows 10,Chrome 138.0.0.0,1280x720,1707x735,Temporal Distance Task,cb_08,84.0,temp_dist_trial,dist_items,qkpkxw,2.0,info,,3.699999988079071,0.0,3.699999988079071,3.699999988079071,0.0,3.699999988079071,1.0,0.0,0.0,,Slider,Slider,4.0,object-56,temp_dist_trial,36.0,s_s_20_1,student_stem,dna model,8.0,unique,paired,s_s_20_1.jpg,Student,,,sub-12
Desktop or Laptop,Windows 10,Chrome 138.0.0.0,1280x720,1707x735,Temporal Distance Task,cb_08,84.0,temp_dist_trial,dist_items,qkpkxw,2.0,continue,,1552.5,1548.7999999999884,1552.5,1552.5,1548.7999999999884,1552.5,1.0,0.0,0.0,,Click To Continue,Next button,7.0,object-60,temp_dist_trial,36.0,s_s_20_1,student_stem,dna model,8.0,unique,paired,s_s_20_1.jpg,Student,,,sub-12
Desktop or Laptop,Windows 10,Chrome 138.0.0.0,1280x720,1707x735,Temporal Distance Task,cb_08,84.0,temp_dist_trial,dist_items,qkpkxw,2.0,response,30,673.7000000000116,1548.7999999999884,1552.8000000119214,673.7000000000116,1548.7999999999884,1552.8000000119214,1.0,879.1000000119092,0.0,,Slider,Slider,4.0,object-56,temp_dist_trial,36.0,s_s_20_1,student_stem,dna model,8.0,unique,paired,s_s_20_1.jpg,Student,,,sub-12
Desktop or Laptop,Windows 10,Chrome 138.0.0.0,1280x720,1707x735,Temporal Distance Task,cb_08,85.0,temp_dist_trial,num_items,zn7si1,1.0,response,num_miss,3000.5,3000.5,3000.5,3000.5,3000.5,3000.5,1.0,0.0,0.0,num_miss_tag,Time Limit,screen,0.0,screen,temp_dist_trial,37.0,s_sh_09_1,student_shared,paper clips,8.0,competing,paired,s_sh_09_1.jpg,Student,,,sub-12
Desktop or Laptop,Windows 10,Chrome 138.0.0.0,1280x720,1707x735,Temporal Distance Task,cb_08,86.0,temp_dist_trial,num_items,zn7si1,1.0,response,2_ITEM,856.6000000119092,854.3999999999942,856.6000000119092,856.6000000119092,854.3999999999942,856.6000000119092,1.0,0.0,0.0,,Click Response,2_count,5.0,object-49,temp_dist_trial,38.0,s_a_01_1,student_art,paintbrush,8.0,unique,paired,s_a_01_1.jpg,Student,,,sub-12
Desktop or Laptop,Windows 10,Chrome 138.0.0.0,1280x720,1707x735,Temporal Distance Task,cb_08,86.0,temp_dist_trial,dist_items,qkpkxw,2.0,info,,4.200000011915108,0.0,4.200000011915108,4.200000011915108,0.0,4.200000011915108,1.0,0.0,0.0,,Slider,Slider,4.0,object-56,temp_dist_trial,38.0,s_a_01_1,student_art,paintbrush,8.0,unique,paired,s_a_01_1.jpg,Student,,,sub-12
Desktop or Laptop,Windows 10,Chrome 138.0.0.0,1280x720,1707x735,Temporal Distance Task,cb_08,86.0,temp_dist_trial,dist_items,qkpkxw,2.0,continue,,1447.8999999999942,1444.6000000000058,1447.8999999999942,1447.8999999999942,1444.6000000000058,1447.8999999999942,1.0,0.0,0.0,,Click To Continue,Next button,7.0,object-60,temp_dist_trial,38.0,s_a_01_1,student_art,paintbrush,8.0,unique,paired,s_a_01_1.jpg,Student,,,sub-12
Desktop or Laptop,Windows 10,Chrome 138.0.0.0,1280x720,1707x735,Temporal Distance Task,cb_08,86.0,temp_dist_trial,dist_items,qkpkxw,2.0,response,36,812.6000000000058,1444.6000000000058,1451.2000000119147,812.6000000000058,1444.6000000000058,1451.2000000119147,1.0,638.6000000119093,0.0,,Slider,Slider,4.0,object-56,temp_dist_trial,38.0,s_a_01_1,student_art,paintbrush,8.0,unique,paired,s_a_01_1.jpg,Student,,,sub-12
Desktop or Laptop,Windows 10,Chrome 138.0.0.0,1280x720,1707x735,Temporal Distance Task,cb_08,87.0,temp_dist_trial,num_items,zn7si1,1.0,response,1_ITEM,2539.2999999999884,2535.099999999977,2539.2999999999884,2539.2999999999884,2535.099999999977,2539.2999999999884,1.0,0.0,0.0,,Click Response,1_count,3.0,object-46,temp_dist_trial,39.0,s_s_16_1,student_stem,toolbox,8.0,unique,paired,s_s_16_1.jpg,Student,,,sub-12
Desktop or Laptop,Windows 10,Chrome 138.0.0.0,1280x720,1707x735,Temporal Distance Task,cb_08,88.0,temp_dist_trial,num_items,zn7si1,1.0,response,2_ITEM,882.5000000119327,882.1000000000058,882.5000000119327,882.5000000119327,882.1000000000058,882.5000000119327,1.0,0.0,0.0,,Click Response,2_count,5.0,object-49,temp_dist_trial,40.0,s_a_18_1,student_art,tutu,8.0,unique,paired,s_a_18_1.jpg,Student,,,sub-12
Desktop or Laptop,Windows 10,Chrome 138.0.0.0,1280x720,1707x735,Temporal Distance Task,cb_08,88.0,temp_dist_trial,dist_items,qkpkxw,2.0,info,,4.100000000005822,0.0,4.100000000005822,4.100000000005822,0.0,4.100000000005822,1.0,0.0,0.0,,Slider,Slider,4.0,object-56,temp_dist_trial,40.0,s_a_18_1,student_art,tutu,8.0,unique,paired,s_a_18_1.jpg,Student,,,sub-12
Desktop or Laptop,Windows 10,Chrome 138.0.0.0,1280x720,1707x735,Temporal Distance Task,cb_08,88.0,temp_dist_trial,dist_items,qkpkxw,2.0,continue,,2445.700000023848,2444.6999999999825,2445.700000023848,2445.700000023848,2444.6999999999825,2445.700000023848,1.0,0.0,0.0,,Click To Continue,Next button,7.0,object-60,temp_dist_trial,40.0,s_a_18_1,student_art,tutu,8.0,unique,paired,s_a_18_1.jpg,Student,,,sub-12
Desktop or Laptop,Windows 10,Chrome 138.0.0.0,1280x720,1707x735,Temporal Distance Task,cb_08,88.0,temp_dist_trial,dist_items,qkpkxw,2.0,response,29,1743.3000000000175,2444.6999999999825,2446.1000000000063,1743.3000000000175,2444.6999999999825,2446.1000000000063,1.0,702.7999999999884,0.0,,Slider,Slider,4.0,object-56,temp_dist_trial,40.0,s_a_18_1,student_art,tutu,8.0,unique,paired,s_a_18_1.jpg,Student,,,sub-12
Desktop or Laptop,Windows 10,Chrome 138.0.0.0,1280x720,1707x735,Temporal Distance Task,cb_08,89.0,temp_dist_trial,num_items,zn7si1,1.0,response,2_ITEM,1506.0999999881024,1500.2000000000116,1506.0999999881024,1506.0999999881024,1500.2000000000116,1506.0999999881024,1.0,0.0,0.0,,Click Response,2_count,5.0,object-49,temp_dist_trial,41.0,s_sh_18_1,student_shared,wall calendar,8.0,competing,paired,s_sh_18_1.jpg,Student,,,sub-12
Desktop or Laptop,Windows 10,Chrome 138.0.0.0,1280x720,1707x735,Temporal Distance Task,cb_08,89.0,temp_dist_trial,dist_items,qkpkxw,2.0,info,,3.9000000118976463,0.0,3.9000000118976463,3.9000000118976463,0.0,3.9000000118976463,1.0,0.0,0.0,,Slider,Slider,4.0,object-56,temp_dist_trial,41.0,s_sh_18_1,student_shared,wall calendar,8.0,competing,paired,s_sh_18_1.jpg,Student,,,sub-12
Desktop or Laptop,Windows 10,Chrome 138.0.0.0,1280x720,1707x735,Temporal Distance Task,cb_08,89.0,temp_dist_trial,dist_items,qkpkxw,2.0,continue,,2226.999999976135,2222.5,2226.999999976135,2226.999999976135,2222.5,2226.999999976135,1.0,0.0,0.0,,Click To Continue,Next button,7.0,object-60,temp_dist_trial,41.0,s_sh_18_1,student_shared,wall calendar,8.0,competing,paired,s_sh_18_1.jpg,Student,,,sub-12
Desktop or Laptop,Windows 10,Chrome 138.0.0.0,1280x720,1707x735,Temporal Distance Task,cb_08,89.0,temp_dist_trial,dist_items,qkpkxw,2.0,response,21,1277.899999999965,2222.5,2229.499999976135,1277.899999999965,2222.5,2229.499999976135,1.0,951.5999999761698,0.0,,Slider,Slider,4.0,object-56,temp_dist_trial,41.0,s_sh_18_1,student_shared,wall calendar,8.0,competing,paired,s_sh_18_1.jpg,Student,,,sub-12
Desktop or Laptop,Windows 10,Chrome 138.0.0.0,1280x720,1707x735,Temporal Distance Task,cb_08,90.0,temp_dist_trial,num_items,zn7si1,1.0,response,1_ITEM,900.9000000118975,895.8999999999651,900.9000000118975,900.9000000118975,895.8999999999651,900.9000000118975,1.0,0.0,0.0,,Click Response,1_count,3.0,object-46,temp_dist_trial,42.0,s_a_08_1,student_art,sewing machine,8.0,unique,single,s_a_08_1.jpg,Student,,,sub-12
Desktop or Laptop,Windows 10,Chrome 138.0.0.0,1280x720,1707x735,Temporal Distance Task,cb_08,91.0,temp_dist_trial,num_items,zn7si1,1.0,response,2_ITEM,1033.7999999761814,1027.7000000000116,1033.7999999761814,1033.7999999761814,1027.7000000000116,1033.7999999761814,1.0,0.0,0.0,,Click Response,2_count,5.0,object-49,temp_dist_trial,43.0,s_sh_23_1,student_shared,ballpoint pen,8.0,competing,paired,s_sh_23_1.jpg,Student,,,sub-12
Desktop or Laptop,Windows 10,Chrome 138.0.0.0,1280x720,1707x735,Temporal Distance Task,cb_08,91.0,temp_dist_trial,dist_items,qkpkxw,2.0,info,,4.0000000119325705,0.0,4.0000000119325705,4.0000000119325705,0.0,4.0000000119325705,1.0,0.0,0.0,,Slider,Slider,4.0,object-56,temp_dist_trial,43.0,s_sh_23_1,student_shared,ballpoint pen,8.0,competing,paired,s_sh_23_1.jpg,Student,,,sub-12
Desktop or Laptop,Windows 10,Chrome 138.0.0.0,1280x720,1707x735,Temporal Distance Task,cb_08,91.0,temp_dist_trial,dist_items,qkpkxw,2.0,continue,,1268.5999999761698,1264.100000000035,1268.5999999761698,1268.5999999761698,1264.100000000035,1268.5999999761698,1.0,0.0,0.0,,Click To Continue,Next button,7.0,object-60,temp_dist_trial,43.0,s_sh_23_1,student_shared,ballpoint pen,8.0,competing,paired,s_sh_23_1.jpg,Student,,,sub-12
Desktop or Laptop,Windows 10,Chrome 138.0.0.0,1280x720,1707x735,Temporal Distance Task,cb_08,91.0,temp_dist_trial,dist_items,qkpkxw,2.0,response,19,826.4000000000232,1264.100000000035,1268.8999999880907,826.4000000000232,1264.100000000035,1268.8999999880907,1.0,442.4999999880674,0.0,,Slider,Slider,4.0,object-56,temp_dist_trial,43.0,s_sh_23_1,student_shared,ballpoint pen,8.0,competing,paired,s_sh_23_1.jpg,Student,,,sub-12
Desktop or Laptop,Windows 10,Chrome 138.0.0.0,1280x720,1707x735,Temporal Distance Task,cb_08,92.0,temp_dist_trial,num_items,zn7si1,1.0,response,2_ITEM,1180.5999999999185,1173.6999999999534,1180.5999999999185,1180.5999999999185,1173.6999999999534,1180.5999999999185,1.0,0.0,0.0,,Click Response,2_count,5.0,object-49,temp_dist_trial,44.0,s_sh_03_1,student_shared,highlighter,8.0,competing,paired,s_sh_03_1.jpg,Student,,,sub-12
Desktop or Laptop,Windows 10,Chrome 138.0.0.0,1280x720,1707x735,Temporal Distance Task,cb_08,92.0,temp_dist_trial,dist_items,qkpkxw,2.0,info,,4.099999988102354,0.0,4.099999988102354,4.099999988102354,0.0,4.099999988102354,1.0,0.0,0.0,,Slider,Slider,4.0,object-56,temp_dist_trial,44.0,s_sh_03_1,student_shared,highlighter,8.0,competing,paired,s_sh_03_1.jpg,Student,,,sub-12
Desktop or Laptop,Windows 10,Chrome 138.0.0.0,1280x720,1707x735,Temporal Distance Task,cb_08,92.0,temp_dist_trial,dist_items,qkpkxw,2.0,continue,,1157.0999999881026,1153.0,1157.0999999881026,1157.0999999881026,1153.0,1157.0999999881026,1.0,0.0,0.0,,Click To Continue,Next button,7.0,object-60,temp_dist_trial,44.0,s_sh_03_1,student_shared,highlighter,8.0,competing,paired,s_sh_03_1.jpg,Student,,,sub-12
Desktop or Laptop,Windows 10,Chrome 138.0.0.0,1280x720,1707x735,Temporal Distance Task,cb_08,92.0,temp_dist_trial,dist_items,qkpkxw,2.0,response,41,507.10000000003487,1153.0,1157.5000000238651,507.10000000003487,1153.0,1157.5000000238651,1.0,650.4000000238302,0.0,,Slider,Slider,4.0,object-56,temp_dist_trial,44.0,s_sh_03_1,student_shared,highlighter,8.0,competing,paired,s_sh_03_1.jpg,Student,,,sub-12
Desktop or Laptop,Windows 10,Chrome 138.0.0.0,1280x720,1707x735,Temporal Distance Task,cb_08,93.0,temp_dist_trial,num_items,zn7si1,1.0,response,2_ITEM,795.7000000119443,791.8000000000467,795.7000000119443,795.7000000119443,791.8000000000467,795.7000000119443,1.0,0.0,0.0,,Click Response,2_count,5.0,object-49,temp_dist_trial,45.0,s_a_07_1,student_art,yarn,8.0,unique,paired,s_a_07_1.jpg,Student,,,sub-12
Desktop or Laptop,Windows 10,Chrome 138.0.0.0,1280x720,1707x735,Temporal Distance Task,cb_08,93.0,temp_dist_trial,dist_items,qkpkxw,2.0,info,,3.7000000238185753,0.0,3.7000000238185753,3.7000000238185753,0.0,3.7000000238185753,1.0,0.0,0.0,,Slider,Slider,4.0,object-56,temp_dist_trial,45.0,s_a_07_1,student_art,yarn,8.0,unique,paired,s_a_07_1.jpg,Student,,,sub-12
Desktop or Laptop,Windows 10,Chrome 138.0.0.0,1280x720,1707x735,Temporal Distance Task,cb_08,93.0,temp_dist_trial,dist_items,qkpkxw,2.0,continue,,2138.7000000238186,2132.1999999999534,2138.7000000238186,2138.7000000238186,2132.1999999999534,2138.7000000238186,1.0,0.0,0.0,,Click To Continue,Next button,7.0,object-60,temp_dist_trial,45.0,s_a_07_1,student_art,yarn,8.0,unique,paired,s_a_07_1.jpg,Student,,,sub-12
Desktop or Laptop,Windows 10,Chrome 138.0.0.0,1280x720,1707x735,Temporal Distance Task,cb_08,93.0,temp_dist_trial,dist_items,qkpkxw,2.0,response,60,1284.7999999999886,2132.1999999999534,2139.1999999999534,1284.7999999999886,2132.1999999999534,2139.1999999999534,1.0,854.3999999999651,0.0,,Slider,Slider,4.0,object-56,temp_dist_trial,45.0,s_a_07_1,student_art,yarn,8.0,unique,paired,s_a_07_1.jpg,Student,,,sub-12
Desktop or Laptop,Windows 10,Chrome 138.0.0.0,1280x720,1707x735,Temporal Distance Task,cb_08,94.0,temp_dist_trial,num_items,zn7si1,1.0,response,1_ITEM,813.9000000000232,812.6000000000349,813.9000000000232,813.9000000000232,812.6000000000349,813.9000000000232,1.0,0.0,0.0,,Click Response,1_count,3.0,object-46,temp_dist_trial,46.0,s_sh_22_1,student_shared,hole puncher,8.0,competing,paired,s_sh_22_1.jpg,Student,,,sub-12
Desktop or Laptop,Windows 10,Chrome 138.0.0.0,1280x720,1707x735,Temporal Distance Task,cb_08,95.0,temp_dist_trial,num_items,zn7si1,1.0,response,1_ITEM,287.1999999761465,284.79999999998836,287.1999999761465,287.1999999761465,284.79999999998836,287.1999999761465,1.0,0.0,0.0,,Click Response,1_count,3.0,object-46,temp_dist_trial,47.0,s_sh_24_1,student_shared,desk organizer,8.0,competing,single,s_sh_24_1.jpg,Student,,,sub-12
Desktop or Laptop,Windows 10,Chrome 138.0.0.0,1280x720,1707x735,Temporal Distance Task,cb_08,96.0,temp_dist_trial,num_items,zn7si1,1.0,response,2_ITEM,256.39999997615814,250.0,256.39999997615814,256.39999997615814,250.0,256.39999997615814,1.0,0.0,0.0,,Click Response,2_count,5.0,object-49,temp_dist_trial,48.0,s_sh_20_1,student_shared,tape,8.0,competing,paired,s_sh_20_1.jpg,Student,,,sub-12
Desktop or Laptop,Windows 10,Chrome 138.0.0.0,1280x720,1707x735,Temporal Distance Task,cb_08,96.0,temp_dist_trial,dist_items,qkpkxw,2.0,info,,3.700000011944212,0.0,3.700000011944212,3.700000011944212,0.0,3.700000011944212,1.0,0.0,0.0,,Slider,Slider,4.0,object-56,temp_dist_trial,48.0,s_sh_20_1,student_shared,tape,8.0,competing,paired,s_sh_20_1.jpg,Student,,,sub-12
Desktop or Laptop,Windows 10,Chrome 138.0.0.0,1280x720,1707x735,Temporal Distance Task,cb_08,96.0,temp_dist_trial,dist_items,qkpkxw,2.0,continue,,2860.799999976181,2854.5,2860.799999976181,2860.799999976181,2854.5,2860.799999976181,1.0,0.0,0.0,,Click To Continue,Next button,7.0,object-60,temp_dist_trial,48.0,s_sh_20_1,student_shared,tape,8.0,competing,paired,s_sh_20_1.jpg,Student,,,sub-12
Desktop or Laptop,Windows 10,Chrome 138.0.0.0,1280x720,1707x735,Temporal Distance Task,cb_08,96.0,temp_dist_trial,dist_items,qkpkxw,2.0,response,31,2333.600000000035,2854.5,2861.2000000119438,2333.600000000035,2854.5,2861.2000000119438,1.0,527.6000000119093,0.0,,Slider,Slider,4.0,object-56,temp_dist_trial,48.0,s_sh_20_1,student_shared,tape,8.0,competing,paired,s_sh_20_1.jpg,Student,,,sub-12
Desktop or Laptop,Windows 10,Chrome 138.0.0.0,1280x720,1707x735,Temporal Distance Task,$${counterbalance_group},,,,,,info,END,,,278476.0,,,,0.0,,,,,,,,,,,,,,,,,,,,sub-12
