Participant Device,Participant OS,Participant Browser,Participant Monitor Size,Participant Viewport Size,Task Name,Current Spreadsheet,Trial Number,Display,Screen,Screen ID,Screen Counter,Response Type,Response,Onset Time,Clock Time,Reaction Time,Absolute Onset Time,Absolute Clock Time,Absolute Reaction Time,Correct,Response Duration,Proportion,Tag,Component Name,Object Name,Object Number,Object ID,Spreadsheet: display,Spreadsheet: trial,Spreadsheet: stimulus_id,Spreadsheet: expected_goal,Spreadsheet: stimulus_name,Spreadsheet: c_group,Spreadsheet: condition,Spreadsheet: paired_status,Spreadsheet: stimulus_path,Spreadsheet: block_type,Manipulation: Spreadsheet,Store: enc_test_acc,sub_label
Desktop or Laptop,Windows 10,Chrome 138.0.0.0,1600x900,1600x773,Temporal Distance Task,,,,,,,info,BEGIN,,,,,,,,,,,,,,,,,,,,,,,,,$${counterbalance_group},,sub-94
Desktop or Laptop,Windows 10,Chrome 138.0.0.0,1600x900,1600x773,Temporal Distance Task,cb_03,1.0,temp_instructions,intro_screen,3tnme7,1.0,continue,,12857.500000011922,12848.4,12857.500000011922,12857.500000011922,12848.4,12857.500000011922,1.0,0.0,0.0,,Click To Continue,Continue Button,4.0,object-29,temp_instructions,,,Student,,,,,,,$${counterbalance_group},,sub-94
Desktop or Laptop,Windows 10,Chrome 138.0.0.0,1600x900,1600x773,Temporal Distance Task,cb_03,1.0,temp_instructions,intro_screen_2,52v7ur,2.0,continue,,14675.900000023841,14666.999999999995,14675.900000023841,14675.900000023841,14666.999999999995,14675.900000023841,1.0,0.0,0.0,,Click To Continue,Continue Button,4.0,object-39,temp_instructions,,,Student,,,,,,,$${counterbalance_group},,sub-94
Desktop or Laptop,Windows 10,Chrome 138.0.0.0,1600x900,1600x773,Temporal Distance Task,cb_03,1.0,temp_instructions,intro_screen_3,i7lvwx,3.0,continue,,10758.200000035766,10745.800000000003,10758.200000035766,10758.200000035766,10745.800000000003,10758.200000035766,1.0,0.0,0.0,,Click To Continue,Continue Button,4.0,object-67,temp_instructions,,,Student,,,,,,,$${counterbalance_group},,sub-94
Desktop or Laptop,Windows 10,Chrome 138.0.0.0,1600x900,1600x773,Temporal Distance Task,cb_03,1.0,temp_instructions,test_q1,5ieqx1,4.0,response,choice_3,10261.0,10245.300000000003,10261.0,10261.0,10245.300000000003,10261.0,1.0,0.0,0.0,,Click Response,choice_3,5.0,object-345,temp_instructions,,,Student,,,,,,,$${counterbalance_group},,sub-94
Desktop or Laptop,Windows 10,Chrome 138.0.0.0,1600x900,1600x773,Temporal Distance Task,cb_03,1.0,temp_instructions,score_corr,7ilvjr,5.0,continue,,1449.000000011918,1435.0,1449.000000011918,1449.000000011918,1435.0,1449.000000011918,1.0,0.0,0.0,,Click To Continue,Continue Button,3.0,object-23,temp_instructions,,,Student,,,,,,,$${counterbalance_group},,sub-94
Desktop or Laptop,Windows 10,Chrome 138.0.0.0,1600x900,1600x773,Temporal Distance Task,cb_03,1.0,temp_eventStart,Screen 1,dgtyxe,1.0,continue,,3662.10000003576,3654.2999999999956,3662.10000003576,3662.10000003576,3654.2999999999956,3662.10000003576,1.0,0.0,0.0,,Click To Continue,Next Button,3.0,object-43,temp_eventStart,,,Student,,,,,,,$${counterbalance_group},,sub-94
Desktop or Laptop,Windows 10,Chrome 138.0.0.0,1600x900,1600x773,Temporal Distance Task,cb_03,1.0,temp_dist_trial,num_items,zn7si1,1.0,response,2_ITEM,1231.9000000000015,1218.0,1231.9000000000015,1231.9000000000015,1218.0,1231.9000000000015,1.0,0.0,0.0,,Click Response,2_count,5.0,object-49,temp_dist_trial,1.0,s_sh_21_1,student_shared,file holder,3.0,competing,single,s_sh_21_1.jpg,Student,$${counterbalance_group},,sub-94
Desktop or Laptop,Windows 10,Chrome 138.0.0.0,1600x900,1600x773,Temporal Distance Task,cb_03,1.0,temp_dist_trial,dist_items,qkpkxw,2.0,info,,16.69999999999709,0.0,16.69999999999709,16.69999999999709,0.0,16.69999999999709,1.0,0.0,0.0,,Slider,Slider,4.0,object-56,temp_dist_trial,1.0,s_sh_21_1,student_shared,file holder,3.0,competing,single,s_sh_21_1.jpg,Student,$${counterbalance_group},,sub-94
Desktop or Laptop,Windows 10,Chrome 138.0.0.0,1600x900,1600x773,Temporal Distance Task,cb_03,1.0,temp_dist_trial,dist_items,qkpkxw,2.0,continue,,2564.0,2552.900000000001,2564.0,2564.0,2552.900000000001,2564.0,1.0,0.0,0.0,,Click To Continue,Next button,7.0,object-60,temp_dist_trial,1.0,s_sh_21_1,student_shared,file holder,3.0,competing,single,s_sh_21_1.jpg,Student,$${counterbalance_group},,sub-94
Desktop or Laptop,Windows 10,Chrome 138.0.0.0,1600x900,1600x773,Temporal Distance Task,cb_03,1.0,temp_dist_trial,dist_items,qkpkxw,2.0,response,71,1284.6999999999969,2552.900000000001,2566.0,1284.6999999999969,2552.900000000001,2566.0,1.0,1281.3000000000031,0.0,,Slider,Slider,4.0,object-56,temp_dist_trial,1.0,s_sh_21_1,student_shared,file holder,3.0,competing,single,s_sh_21_1.jpg,Student,$${counterbalance_group},,sub-94
Desktop or Laptop,Windows 10,Chrome 138.0.0.0,1600x900,1600x773,Temporal Distance Task,cb_03,2.0,temp_dist_trial,num_items,zn7si1,1.0,response,2_ITEM,1241.2999999880776,1234.6999999999969,1241.2999999880776,1241.2999999880776,1234.6999999999969,1241.2999999880776,1.0,0.0,0.0,,Click Response,2_count,5.0,object-49,temp_dist_trial,2.0,s_a_11_1,student_art,clapperboard,3.0,unique,paired,s_a_11_1.jpg,Student,$${counterbalance_group},,sub-94
Desktop or Laptop,Windows 10,Chrome 138.0.0.0,1600x900,1600x773,Temporal Distance Task,cb_03,2.0,temp_dist_trial,dist_items,qkpkxw,2.0,info,,16.599999999998545,0.0,16.599999999998545,16.599999999998545,0.0,16.599999999998545,1.0,0.0,0.0,,Slider,Slider,4.0,object-56,temp_dist_trial,2.0,s_a_11_1,student_art,clapperboard,3.0,unique,paired,s_a_11_1.jpg,Student,$${counterbalance_group},,sub-94
Desktop or Laptop,Windows 10,Chrome 138.0.0.0,1600x900,1600x773,Temporal Distance Task,cb_03,2.0,temp_dist_trial,dist_items,qkpkxw,2.0,continue,,1816.4000000119195,1802.299999999996,1816.4000000119195,1816.4000000119195,1802.299999999996,1816.4000000119195,1.0,0.0,0.0,,Click To Continue,Next button,7.0,object-60,temp_dist_trial,2.0,s_a_11_1,student_art,clapperboard,3.0,unique,paired,s_a_11_1.jpg,Student,$${counterbalance_group},,sub-94
Desktop or Laptop,Windows 10,Chrome 138.0.0.0,1600x900,1600x773,Temporal Distance Task,cb_03,2.0,temp_dist_trial,dist_items,qkpkxw,2.0,response,82,667.5,1802.299999999996,1817.0999999999985,667.5,1802.299999999996,1817.0999999999985,1.0,1149.5999999999985,0.0,,Slider,Slider,4.0,object-56,temp_dist_trial,2.0,s_a_11_1,student_art,clapperboard,3.0,unique,paired,s_a_11_1.jpg,Student,$${counterbalance_group},,sub-94
Desktop or Laptop,Windows 10,Chrome 138.0.0.0,1600x900,1600x773,Temporal Distance Task,cb_03,3.0,temp_dist_trial,num_items,zn7si1,1.0,response,2_ITEM,1325.9000000238448,1318.0,1325.9000000238448,1325.9000000238448,1318.0,1325.9000000238448,1.0,0.0,0.0,,Click Response,2_count,5.0,object-49,temp_dist_trial,3.0,s_a_08_1,student_art,sewing machine,3.0,unique,paired,s_a_08_1.jpg,Student,$${counterbalance_group},,sub-94
Desktop or Laptop,Windows 10,Chrome 138.0.0.0,1600x900,1600x773,Temporal Distance Task,cb_03,3.0,temp_dist_trial,dist_items,qkpkxw,2.0,info,,12.800000011920927,0.0,12.800000011920927,12.800000011920927,0.0,12.800000011920927,1.0,0.0,0.0,,Slider,Slider,4.0,object-56,temp_dist_trial,3.0,s_a_08_1,student_art,sewing machine,3.0,unique,paired,s_a_08_1.jpg,Student,$${counterbalance_group},,sub-94
Desktop or Laptop,Windows 10,Chrome 138.0.0.0,1600x900,1600x773,Temporal Distance Task,cb_03,3.0,temp_dist_trial,dist_items,qkpkxw,2.0,continue,,1935.6999999999825,1918.8999999999944,1935.6999999999825,1935.6999999999825,1918.8999999999944,1935.6999999999825,1.0,0.0,0.0,,Click To Continue,Next button,7.0,object-60,temp_dist_trial,3.0,s_a_08_1,student_art,sewing machine,3.0,unique,paired,s_a_08_1.jpg,Student,$${counterbalance_group},,sub-94
Desktop or Laptop,Windows 10,Chrome 138.0.0.0,1600x900,1600x773,Temporal Distance Task,cb_03,3.0,temp_dist_trial,dist_items,qkpkxw,2.0,response,35,934.5,1918.8999999999944,1935.6999999999825,934.5,1918.8999999999944,1935.6999999999825,1.0,1001.1999999999823,0.0,,Slider,Slider,4.0,object-56,temp_dist_trial,3.0,s_a_08_1,student_art,sewing machine,3.0,unique,paired,s_a_08_1.jpg,Student,$${counterbalance_group},,sub-94
Desktop or Laptop,Windows 10,Chrome 138.0.0.0,1600x900,1600x773,Temporal Distance Task,cb_03,4.0,temp_dist_trial,num_items,zn7si1,1.0,response,1_ITEM,1607.7999999880853,1601.900000000009,1607.7999999880853,1607.7999999880853,1601.900000000009,1607.7999999880853,1.0,0.0,0.0,,Click Response,1_count,3.0,object-46,temp_dist_trial,4.0,s_sh_23_1,student_shared,ballpoint pen,3.0,competing,single,s_sh_23_1.jpg,Student,$${counterbalance_group},,sub-94
Desktop or Laptop,Windows 10,Chrome 138.0.0.0,1600x900,1600x773,Temporal Distance Task,cb_03,5.0,temp_dist_trial,num_items,zn7si1,1.0,response,1_ITEM,1455.599999988073,1451.6999999999966,1455.599999988073,1455.599999988073,1451.6999999999966,1455.599999988073,1.0,0.0,0.0,,Click Response,1_count,3.0,object-46,temp_dist_trial,5.0,s_sh_16_1,student_shared,stapler,3.0,competing,single,s_sh_16_1.jpg,Student,$${counterbalance_group},,sub-94
Desktop or Laptop,Windows 10,Chrome 138.0.0.0,1600x900,1600x773,Temporal Distance Task,cb_03,6.0,temp_dist_trial,num_items,zn7si1,1.0,response,2_ITEM,1801.500000023836,1785.3999999999942,1801.500000023836,1801.500000023836,1785.3999999999942,1801.500000023836,1.0,0.0,0.0,,Click Response,2_count,5.0,object-49,temp_dist_trial,6.0,s_a_10_1,student_art,tripod,3.0,unique,paired,s_a_10_1.jpg,Student,$${counterbalance_group},,sub-94
Desktop or Laptop,Windows 10,Chrome 138.0.0.0,1600x900,1600x773,Temporal Distance Task,cb_03,6.0,temp_dist_trial,dist_items,qkpkxw,2.0,info,,10.600000035759876,0.0,10.600000035759876,10.600000035759876,0.0,10.600000035759876,1.0,0.0,0.0,,Slider,Slider,4.0,object-56,temp_dist_trial,6.0,s_a_10_1,student_art,tripod,3.0,unique,paired,s_a_10_1.jpg,Student,$${counterbalance_group},,sub-94
Desktop or Laptop,Windows 10,Chrome 138.0.0.0,1600x900,1600x773,Temporal Distance Task,cb_03,6.0,temp_dist_trial,dist_items,qkpkxw,2.0,continue,,1916.000000011918,1902.1999999999966,1916.000000011918,1916.000000011918,1902.1999999999966,1916.000000011918,1.0,0.0,0.0,,Click To Continue,Next button,7.0,object-60,temp_dist_trial,6.0,s_a_10_1,student_art,tripod,3.0,unique,paired,s_a_10_1.jpg,Student,$${counterbalance_group},,sub-94
Desktop or Laptop,Windows 10,Chrome 138.0.0.0,1600x900,1600x773,Temporal Distance Task,cb_03,6.0,temp_dist_trial,dist_items,qkpkxw,2.0,response,66,1101.3000000000031,1902.1999999999966,1916.6000000357599,1101.3000000000031,1902.1999999999966,1916.6000000357599,1.0,815.300000035757,0.0,,Slider,Slider,4.0,object-56,temp_dist_trial,6.0,s_a_10_1,student_art,tripod,3.0,unique,paired,s_a_10_1.jpg,Student,$${counterbalance_group},,sub-94
Desktop or Laptop,Windows 10,Chrome 138.0.0.0,1600x900,1600x773,Temporal Distance Task,cb_03,7.0,temp_dist_trial,num_items,zn7si1,1.0,response,2_ITEM,1519.6999999880786,1518.3999999999942,1519.6999999880786,1519.6999999880786,1518.3999999999942,1519.6999999880786,1.0,0.0,0.0,,Click Response,2_count,5.0,object-49,temp_dist_trial,7.0,s_sh_20_1,student_shared,tape,3.0,competing,paired,s_sh_20_1.jpg,Student,$${counterbalance_group},,sub-94
Desktop or Laptop,Windows 10,Chrome 138.0.0.0,1600x900,1600x773,Temporal Distance Task,cb_03,7.0,temp_dist_trial,dist_items,qkpkxw,2.0,info,,12.60000001192384,0.0,12.60000001192384,12.60000001192384,0.0,12.60000001192384,1.0,0.0,0.0,,Slider,Slider,4.0,object-56,temp_dist_trial,7.0,s_sh_20_1,student_shared,tape,3.0,competing,paired,s_sh_20_1.jpg,Student,$${counterbalance_group},,sub-94
Desktop or Laptop,Windows 10,Chrome 138.0.0.0,1600x900,1600x773,Temporal Distance Task,cb_03,7.0,temp_dist_trial,dist_items,qkpkxw,2.0,continue,,1360.7000000357655,1351.6000000000058,1360.7000000357655,1360.7000000357655,1351.6000000000058,1360.7000000357655,1.0,0.0,0.0,,Click To Continue,Next button,7.0,object-60,temp_dist_trial,7.0,s_sh_20_1,student_shared,tape,3.0,competing,paired,s_sh_20_1.jpg,Student,$${counterbalance_group},,sub-94
Desktop or Laptop,Windows 10,Chrome 138.0.0.0,1600x900,1600x773,Temporal Distance Task,cb_03,7.0,temp_dist_trial,dist_items,qkpkxw,2.0,response,35,650.8000000000029,1351.6000000000058,1362.1000000119236,650.8000000000029,1351.6000000000058,1362.1000000119236,1.0,711.3000000119209,0.0,,Slider,Slider,4.0,object-56,temp_dist_trial,7.0,s_sh_20_1,student_shared,tape,3.0,competing,paired,s_sh_20_1.jpg,Student,$${counterbalance_group},,sub-94
Desktop or Laptop,Windows 10,Chrome 138.0.0.0,1600x900,1600x773,Temporal Distance Task,cb_03,8.0,temp_dist_trial,num_items,zn7si1,1.0,response,2_ITEM,991.1000000357599,984.5,991.1000000357599,991.1000000357599,984.5,991.1000000357599,1.0,0.0,0.0,,Click Response,2_count,5.0,object-49,temp_dist_trial,8.0,s_sh_04_1,student_shared,laptop stand,3.0,competing,paired,s_sh_04_1.jpg,Student,$${counterbalance_group},,sub-94
Desktop or Laptop,Windows 10,Chrome 138.0.0.0,1600x900,1600x773,Temporal Distance Task,cb_03,8.0,temp_dist_trial,dist_items,qkpkxw,2.0,info,,9.800000035756968,0.0,9.800000035756968,9.800000035756968,0.0,9.800000035756968,1.0,0.0,0.0,,Slider,Slider,4.0,object-56,temp_dist_trial,8.0,s_sh_04_1,student_shared,laptop stand,3.0,competing,paired,s_sh_04_1.jpg,Student,$${counterbalance_group},,sub-94
Desktop or Laptop,Windows 10,Chrome 138.0.0.0,1600x900,1600x773,Temporal Distance Task,cb_03,8.0,temp_dist_trial,dist_items,qkpkxw,2.0,continue,,1159.7000000119149,1151.2999999999886,1159.7000000119149,1159.7000000119149,1151.2999999999886,1159.7000000119149,1.0,0.0,0.0,,Click To Continue,Next button,7.0,object-60,temp_dist_trial,8.0,s_sh_04_1,student_shared,laptop stand,3.0,competing,paired,s_sh_04_1.jpg,Student,$${counterbalance_group},,sub-94
Desktop or Laptop,Windows 10,Chrome 138.0.0.0,1600x900,1600x773,Temporal Distance Task,cb_03,8.0,temp_dist_trial,dist_items,qkpkxw,2.0,response,71,534.0,1151.2999999999886,1160.7000000119149,534.0,1151.2999999999886,1160.7000000119149,1.0,626.7000000119151,0.0,,Slider,Slider,4.0,object-56,temp_dist_trial,8.0,s_sh_04_1,student_shared,laptop stand,3.0,competing,paired,s_sh_04_1.jpg,Student,$${counterbalance_group},,sub-94
Desktop or Laptop,Windows 10,Chrome 138.0.0.0,1600x900,1600x773,Temporal Distance Task,cb_03,9.0,temp_dist_trial,num_items,zn7si1,1.0,response,1_ITEM,2413.6000000000063,2402.700000000012,2413.6000000000063,2413.6000000000063,2402.700000000012,2413.6000000000063,1.0,0.0,0.0,,Click Response,1_count,3.0,object-46,temp_dist_trial,9.0,s_a_17_1,student_art,microphone,3.0,unique,single,s_a_17_1.jpg,Student,$${counterbalance_group},,sub-94
Desktop or Laptop,Windows 10,Chrome 138.0.0.0,1600x900,1600x773,Temporal Distance Task,cb_03,10.0,temp_dist_trial,num_items,zn7si1,1.0,response,2_ITEM,1532.8999999999942,1518.2999999999884,1532.8999999999942,1532.8999999999942,1518.2999999999884,1532.8999999999942,1.0,0.0,0.0,,Click Response,2_count,5.0,object-49,temp_dist_trial,10.0,s_s_03_1,student_stem,petri dish,3.0,unique,paired,s_s_03_1.jpg,Student,$${counterbalance_group},,sub-94
Desktop or Laptop,Windows 10,Chrome 138.0.0.0,1600x900,1600x773,Temporal Distance Task,cb_03,10.0,temp_dist_trial,dist_items,qkpkxw,2.0,info,,11.300000035756964,0.0,11.300000035756964,11.300000035756964,0.0,11.300000035756964,1.0,0.0,0.0,,Slider,Slider,4.0,object-56,temp_dist_trial,10.0,s_s_03_1,student_stem,petri dish,3.0,unique,paired,s_s_03_1.jpg,Student,$${counterbalance_group},,sub-94
Desktop or Laptop,Windows 10,Chrome 138.0.0.0,1600x900,1600x773,Temporal Distance Task,cb_03,10.0,temp_dist_trial,dist_items,qkpkxw,2.0,continue,,2351.8999999999937,2336.199999999997,2351.8999999999937,2351.8999999999937,2336.199999999997,2351.8999999999937,1.0,0.0,0.0,,Click To Continue,Next button,7.0,object-60,temp_dist_trial,10.0,s_s_03_1,student_stem,petri dish,3.0,unique,paired,s_s_03_1.jpg,Student,$${counterbalance_group},,sub-94
Desktop or Laptop,Windows 10,Chrome 138.0.0.0,1600x900,1600x773,Temporal Distance Task,cb_03,10.0,temp_dist_trial,dist_items,qkpkxw,2.0,response,66,1685.6999999999966,2336.199999999997,2352.300000035757,1685.6999999999966,2336.199999999997,2352.300000035757,1.0,666.6000000357599,0.0,,Slider,Slider,4.0,object-56,temp_dist_trial,10.0,s_s_03_1,student_stem,petri dish,3.0,unique,paired,s_s_03_1.jpg,Student,$${counterbalance_group},,sub-94
Desktop or Laptop,Windows 10,Chrome 138.0.0.0,1600x900,1600x773,Temporal Distance Task,cb_03,11.0,temp_dist_trial,num_items,zn7si1,1.0,response,1_ITEM,2902.300000023839,2886.699999999997,2902.300000023839,2902.300000023839,2886.699999999997,2902.300000023839,1.0,0.0,0.0,,Click Response,1_count,3.0,object-46,temp_dist_trial,11.0,s_s_02_1,student_stem,flask,3.0,unique,single,s_s_02_1.jpg,Student,$${counterbalance_group},,sub-94
Desktop or Laptop,Windows 10,Chrome 138.0.0.0,1600x900,1600x773,Temporal Distance Task,cb_03,12.0,temp_dist_trial,num_items,zn7si1,1.0,response,1_ITEM,1512.6999999999966,1502.1999999999966,1512.6999999999966,1512.6999999999966,1502.1999999999966,1512.6999999999966,1.0,0.0,0.0,,Click Response,1_count,3.0,object-46,temp_dist_trial,12.0,s_s_05_1,student_stem,lab goggles,3.0,unique,paired,s_s_05_1.jpg,Student,$${counterbalance_group},,sub-94
Desktop or Laptop,Windows 10,Chrome 138.0.0.0,1600x900,1600x773,Temporal Distance Task,cb_03,13.0,temp_dist_trial,num_items,zn7si1,1.0,response,2_ITEM,1225.6000000357599,1218.0999999999913,1225.6000000357599,1225.6000000357599,1218.0999999999913,1225.6000000357599,1.0,0.0,0.0,,Click Response,2_count,5.0,object-49,temp_dist_trial,13.0,s_sh_08_1,student_shared,post-its,3.0,competing,paired,s_sh_08_1.jpg,Student,$${counterbalance_group},,sub-94
Desktop or Laptop,Windows 10,Chrome 138.0.0.0,1600x900,1600x773,Temporal Distance Task,cb_03,13.0,temp_dist_trial,dist_items,qkpkxw,2.0,info,,16.69999999999709,0.0,16.69999999999709,16.69999999999709,0.0,16.69999999999709,1.0,0.0,0.0,,Slider,Slider,4.0,object-56,temp_dist_trial,13.0,s_sh_08_1,student_shared,post-its,3.0,competing,paired,s_sh_08_1.jpg,Student,$${counterbalance_group},,sub-94
Desktop or Laptop,Windows 10,Chrome 138.0.0.0,1600x900,1600x773,Temporal Distance Task,cb_03,13.0,temp_dist_trial,dist_items,qkpkxw,2.0,continue,,1683.1000000119238,1668.5,1683.1000000119238,1683.1000000119238,1668.5,1683.1000000119238,1.0,0.0,0.0,,Click To Continue,Next button,7.0,object-60,temp_dist_trial,13.0,s_sh_08_1,student_shared,post-its,3.0,competing,paired,s_sh_08_1.jpg,Student,$${counterbalance_group},,sub-94
Desktop or Laptop,Windows 10,Chrome 138.0.0.0,1600x900,1600x773,Temporal Distance Task,cb_03,13.0,temp_dist_trial,dist_items,qkpkxw,2.0,response,70,634.0,1668.5,1683.6000000119238,634.0,1668.5,1683.6000000119238,1.0,1049.6000000119236,0.0,,Slider,Slider,4.0,object-56,temp_dist_trial,13.0,s_sh_08_1,student_shared,post-its,3.0,competing,paired,s_sh_08_1.jpg,Student,$${counterbalance_group},,sub-94
Desktop or Laptop,Windows 10,Chrome 138.0.0.0,1600x900,1600x773,Temporal Distance Task,cb_03,14.0,temp_dist_trial,num_items,zn7si1,1.0,response,2_ITEM,1094.4000000238448,1084.6999999999969,1094.4000000238448,1094.4000000238448,1084.6999999999969,1094.4000000238448,1.0,0.0,0.0,,Click Response,2_count,5.0,object-49,temp_dist_trial,14.0,s_a_03_1,student_art,palette,3.0,unique,paired,s_a_03_1.jpg,Student,$${counterbalance_group},,sub-94
Desktop or Laptop,Windows 10,Chrome 138.0.0.0,1600x900,1600x773,Temporal Distance Task,cb_03,14.0,temp_dist_trial,dist_items,qkpkxw,2.0,info,,16.60000000000582,0.0,16.60000000000582,16.60000000000582,0.0,16.60000000000582,1.0,0.0,0.0,,Slider,Slider,4.0,object-56,temp_dist_trial,14.0,s_a_03_1,student_art,palette,3.0,unique,paired,s_a_03_1.jpg,Student,$${counterbalance_group},,sub-94
Desktop or Laptop,Windows 10,Chrome 138.0.0.0,1600x900,1600x773,Temporal Distance Task,cb_03,14.0,temp_dist_trial,dist_items,qkpkxw,2.0,continue,,1449.099999988073,1435.0,1449.099999988073,1449.099999988073,1435.0,1449.099999988073,1.0,0.0,0.0,,Click To Continue,Next button,7.0,object-60,temp_dist_trial,14.0,s_a_03_1,student_art,palette,3.0,unique,paired,s_a_03_1.jpg,Student,$${counterbalance_group},,sub-94
Desktop or Laptop,Windows 10,Chrome 138.0.0.0,1600x900,1600x773,Temporal Distance Task,cb_03,14.0,temp_dist_trial,dist_items,qkpkxw,2.0,response,18,700.8999999999942,1435.0,1449.8999999999942,700.8999999999942,1435.0,1449.8999999999942,1.0,749.0,0.0,,Slider,Slider,4.0,object-56,temp_dist_trial,14.0,s_a_03_1,student_art,palette,3.0,unique,paired,s_a_03_1.jpg,Student,$${counterbalance_group},,sub-94
Desktop or Laptop,Windows 10,Chrome 138.0.0.0,1600x900,1600x773,Temporal Distance Task,cb_03,15.0,temp_dist_trial,num_items,zn7si1,1.0,response,1_ITEM,2035.099999988073,2019.0999999999915,2035.099999988073,2035.099999988073,2019.0999999999915,2035.099999988073,1.0,0.0,0.0,,Click Response,1_count,3.0,object-46,temp_dist_trial,15.0,s_sh_11_1,student_shared,pencil case,3.0,competing,paired,s_sh_11_1.jpg,Student,$${counterbalance_group},,sub-94
Desktop or Laptop,Windows 10,Chrome 138.0.0.0,1600x900,1600x773,Temporal Distance Task,cb_03,16.0,temp_dist_trial,num_items,zn7si1,1.0,response,2_ITEM,1582.5000000357684,1568.5,1582.5000000357684,1582.5000000357684,1568.5,1582.5000000357684,1.0,0.0,0.0,,Click Response,2_count,5.0,object-49,temp_dist_trial,16.0,s_s_01_1,student_stem,microscope,3.0,unique,single,s_s_01_1.jpg,Student,$${counterbalance_group},,sub-94
Desktop or Laptop,Windows 10,Chrome 138.0.0.0,1600x900,1600x773,Temporal Distance Task,cb_03,16.0,temp_dist_trial,dist_items,qkpkxw,2.0,info,,16.69999999999709,0.0,16.69999999999709,16.69999999999709,0.0,16.69999999999709,1.0,0.0,0.0,,Slider,Slider,4.0,object-56,temp_dist_trial,16.0,s_s_01_1,student_stem,microscope,3.0,unique,single,s_s_01_1.jpg,Student,$${counterbalance_group},,sub-94
Desktop or Laptop,Windows 10,Chrome 138.0.0.0,1600x900,1600x773,Temporal Distance Task,cb_03,16.0,temp_dist_trial,dist_items,qkpkxw,2.0,continue,,1820.600000011924,1818.8000000000034,1820.600000011924,1820.600000011924,1818.8000000000034,1820.600000011924,1.0,0.0,0.0,,Click To Continue,Next button,7.0,object-60,temp_dist_trial,16.0,s_s_01_1,student_stem,microscope,3.0,unique,single,s_s_01_1.jpg,Student,$${counterbalance_group},,sub-94
Desktop or Laptop,Windows 10,Chrome 138.0.0.0,1600x900,1600x773,Temporal Distance Task,cb_03,16.0,temp_dist_trial,dist_items,qkpkxw,2.0,response,45,917.6999999999972,1818.8000000000034,1826.8000000000034,917.6999999999972,1818.8000000000034,1826.8000000000034,1.0,909.1000000000058,0.0,,Slider,Slider,4.0,object-56,temp_dist_trial,16.0,s_s_01_1,student_stem,microscope,3.0,unique,single,s_s_01_1.jpg,Student,$${counterbalance_group},,sub-94
Desktop or Laptop,Windows 10,Chrome 138.0.0.0,1600x900,1600x773,Temporal Distance Task,cb_03,17.0,temp_dist_trial,num_items,zn7si1,1.0,response,2_ITEM,1000.9999999999852,984.3999999999942,1000.9999999999852,1000.9999999999852,984.3999999999942,1000.9999999999852,1.0,0.0,0.0,,Click Response,2_count,5.0,object-49,temp_dist_trial,17.0,s_s_12_1,student_stem,robotic arm,3.0,unique,paired,s_s_12_1.jpg,Student,$${counterbalance_group},,sub-94
Desktop or Laptop,Windows 10,Chrome 138.0.0.0,1600x900,1600x773,Temporal Distance Task,cb_03,17.0,temp_dist_trial,dist_items,qkpkxw,2.0,info,,11.60000001192384,0.0,11.60000001192384,11.60000001192384,0.0,11.60000001192384,1.0,0.0,0.0,,Slider,Slider,4.0,object-56,temp_dist_trial,17.0,s_s_12_1,student_stem,robotic arm,3.0,unique,paired,s_s_12_1.jpg,Student,$${counterbalance_group},,sub-94
Desktop or Laptop,Windows 10,Chrome 138.0.0.0,1600x900,1600x773,Temporal Distance Task,cb_03,17.0,temp_dist_trial,dist_items,qkpkxw,2.0,continue,,1156.7000000357655,1151.5,1156.7000000357655,1156.7000000357655,1151.5,1156.7000000357655,1.0,0.0,0.0,,Click To Continue,Next button,7.0,object-60,temp_dist_trial,17.0,s_s_12_1,student_stem,robotic arm,3.0,unique,paired,s_s_12_1.jpg,Student,$${counterbalance_group},,sub-94
Desktop or Laptop,Windows 10,Chrome 138.0.0.0,1600x900,1600x773,Temporal Distance Task,cb_03,17.0,temp_dist_trial,dist_items,qkpkxw,2.0,response,81,517.6000000000058,1151.5,1157.2000000357655,517.6000000000058,1151.5,1157.2000000357655,1.0,639.6000000357599,0.0,,Slider,Slider,4.0,object-56,temp_dist_trial,17.0,s_s_12_1,student_stem,robotic arm,3.0,unique,paired,s_s_12_1.jpg,Student,$${counterbalance_group},,sub-94
Desktop or Laptop,Windows 10,Chrome 138.0.0.0,1600x900,1600x773,Temporal Distance Task,cb_03,18.0,temp_dist_trial,num_items,zn7si1,1.0,response,2_ITEM,978.2000000357657,967.8000000000028,978.2000000357657,978.2000000357657,967.8000000000028,978.2000000357657,1.0,0.0,0.0,,Click Response,2_count,5.0,object-49,temp_dist_trial,18.0,s_s_18_1,student_stem,brain model,3.0,unique,paired,s_s_18_1.jpg,Student,$${counterbalance_group},,sub-94
Desktop or Laptop,Windows 10,Chrome 138.0.0.0,1600x900,1600x773,Temporal Distance Task,cb_03,18.0,temp_dist_trial,dist_items,qkpkxw,2.0,info,,13.100000035759876,0.0,13.100000035759876,13.100000035759876,0.0,13.100000035759876,1.0,0.0,0.0,,Slider,Slider,4.0,object-56,temp_dist_trial,18.0,s_s_18_1,student_stem,brain model,3.0,unique,paired,s_s_18_1.jpg,Student,$${counterbalance_group},,sub-94
Desktop or Laptop,Windows 10,Chrome 138.0.0.0,1600x900,1600x773,Temporal Distance Task,cb_03,18.0,temp_dist_trial,dist_items,qkpkxw,2.0,continue,,1508.3999999880762,1501.599999999991,1508.3999999880762,1508.3999999880762,1501.599999999991,1508.3999999880762,1.0,0.0,0.0,,Click To Continue,Next button,7.0,object-60,temp_dist_trial,18.0,s_s_18_1,student_stem,brain model,3.0,unique,paired,s_s_18_1.jpg,Student,$${counterbalance_group},,sub-94
Desktop or Laptop,Windows 10,Chrome 138.0.0.0,1600x900,1600x773,Temporal Distance Task,cb_03,18.0,temp_dist_trial,dist_items,qkpkxw,2.0,response,72,717.3999999999942,1501.599999999991,1509.3999999880762,717.3999999999942,1501.599999999991,1509.3999999880762,1.0,791.999999988082,0.0,,Slider,Slider,4.0,object-56,temp_dist_trial,18.0,s_s_18_1,student_stem,brain model,3.0,unique,paired,s_s_18_1.jpg,Student,$${counterbalance_group},,sub-94
Desktop or Laptop,Windows 10,Chrome 138.0.0.0,1600x900,1600x773,Temporal Distance Task,cb_03,19.0,temp_dist_trial,num_items,zn7si1,1.0,response,2_ITEM,911.7999999880847,901.2000000000116,911.7999999880847,911.7999999880847,901.2000000000116,911.7999999880847,1.0,0.0,0.0,,Click Response,2_count,5.0,object-49,temp_dist_trial,19.0,s_sh_09_1,student_shared,paper clips,3.0,competing,paired,s_sh_09_1.jpg,Student,$${counterbalance_group},,sub-94
Desktop or Laptop,Windows 10,Chrome 138.0.0.0,1600x900,1600x773,Temporal Distance Task,cb_03,19.0,temp_dist_trial,dist_items,qkpkxw,2.0,info,,9.19999999999709,0.0,9.19999999999709,9.19999999999709,0.0,9.19999999999709,1.0,0.0,0.0,,Slider,Slider,4.0,object-56,temp_dist_trial,19.0,s_sh_09_1,student_shared,paper clips,3.0,competing,paired,s_sh_09_1.jpg,Student,$${counterbalance_group},,sub-94
Desktop or Laptop,Windows 10,Chrome 138.0.0.0,1600x900,1600x773,Temporal Distance Task,cb_03,19.0,temp_dist_trial,dist_items,qkpkxw,2.0,continue,,2048.1000000357603,2035.8000000000034,2048.1000000357603,2048.1000000357603,2035.8000000000034,2048.1000000357603,1.0,0.0,0.0,,Click To Continue,Next button,7.0,object-60,temp_dist_trial,19.0,s_sh_09_1,student_shared,paper clips,3.0,competing,paired,s_sh_09_1.jpg,Student,$${counterbalance_group},,sub-94
Desktop or Laptop,Windows 10,Chrome 138.0.0.0,1600x900,1600x773,Temporal Distance Task,cb_03,19.0,temp_dist_trial,dist_items,qkpkxw,2.0,response,44,1351.5999999999913,2035.8000000000034,2049.8999999880757,1351.5999999999913,2035.8000000000034,2049.8999999880757,1.0,698.2999999880849,0.0,,Slider,Slider,4.0,object-56,temp_dist_trial,19.0,s_sh_09_1,student_shared,paper clips,3.0,competing,paired,s_sh_09_1.jpg,Student,$${counterbalance_group},,sub-94
Desktop or Laptop,Windows 10,Chrome 138.0.0.0,1600x900,1600x773,Temporal Distance Task,cb_03,20.0,temp_dist_trial,num_items,zn7si1,1.0,response,1_ITEM,1544.3999999999942,1535.1999999999966,1544.3999999999942,1544.3999999999942,1535.1999999999966,1544.3999999999942,1.0,0.0,0.0,,Click Response,1_count,3.0,object-46,temp_dist_trial,20.0,s_s_07_1,student_stem,periodic table,3.0,unique,single,s_s_07_1.jpg,Student,$${counterbalance_group},,sub-94
Desktop or Laptop,Windows 10,Chrome 138.0.0.0,1600x900,1600x773,Temporal Distance Task,cb_03,21.0,temp_dist_trial,num_items,zn7si1,1.0,response,2_ITEM,2110.200000023848,2102.6000000000063,2110.200000023848,2110.200000023848,2102.6000000000063,2110.200000023848,1.0,0.0,0.0,,Click Response,2_count,5.0,object-49,temp_dist_trial,21.0,s_sh_15_1,student_shared,usb drive,3.0,competing,paired,s_sh_15_1.jpg,Student,$${counterbalance_group},,sub-94
Desktop or Laptop,Windows 10,Chrome 138.0.0.0,1600x900,1600x773,Temporal Distance Task,cb_03,21.0,temp_dist_trial,dist_items,qkpkxw,2.0,info,,16.80000000000291,0.0,16.80000000000291,16.80000000000291,0.0,16.80000000000291,1.0,0.0,0.0,,Slider,Slider,4.0,object-56,temp_dist_trial,21.0,s_sh_15_1,student_shared,usb drive,3.0,competing,paired,s_sh_15_1.jpg,Student,$${counterbalance_group},,sub-94
Desktop or Laptop,Windows 10,Chrome 138.0.0.0,1600x900,1600x773,Temporal Distance Task,cb_03,21.0,temp_dist_trial,dist_items,qkpkxw,2.0,continue,,1772.8000000238392,1768.8000000000034,1772.8000000238392,1772.8000000238392,1768.8000000000034,1772.8000000238392,1.0,0.0,0.0,,Click To Continue,Next button,7.0,object-60,temp_dist_trial,21.0,s_sh_15_1,student_shared,usb drive,3.0,competing,paired,s_sh_15_1.jpg,Student,$${counterbalance_group},,sub-94
Desktop or Laptop,Windows 10,Chrome 138.0.0.0,1600x900,1600x773,Temporal Distance Task,cb_03,21.0,temp_dist_trial,dist_items,qkpkxw,2.0,response,58,1117.8000000000031,1768.8000000000034,1773.1999999999966,1117.8000000000031,1768.8000000000034,1773.1999999999966,1.0,655.3999999999943,0.0,,Slider,Slider,4.0,object-56,temp_dist_trial,21.0,s_sh_15_1,student_shared,usb drive,3.0,competing,paired,s_sh_15_1.jpg,Student,$${counterbalance_group},,sub-94
Desktop or Laptop,Windows 10,Chrome 138.0.0.0,1600x900,1600x773,Temporal Distance Task,cb_03,22.0,temp_dist_trial,num_items,zn7si1,1.0,response,1_ITEM,2134.200000011915,2119.0,2134.200000011915,2134.200000011915,2119.0,2134.200000011915,1.0,0.0,0.0,,Click Response,1_count,3.0,object-46,temp_dist_trial,22.0,s_a_16_1,student_art,piano,3.0,unique,single,s_a_16_1.jpg,Student,$${counterbalance_group},,sub-94
Desktop or Laptop,Windows 10,Chrome 138.0.0.0,1600x900,1600x773,Temporal Distance Task,cb_03,23.0,temp_dist_trial,num_items,zn7si1,1.0,response,1_ITEM,1811.2999999880847,1802.1000000000056,1811.2999999880847,1811.2999999880847,1802.1000000000056,1811.2999999880847,1.0,0.0,0.0,,Click Response,1_count,3.0,object-46,temp_dist_trial,23.0,s_a_19_1,student_art,ballet shoes,3.0,unique,single,s_a_19_1.jpg,Student,$${counterbalance_group},,sub-94
Desktop or Laptop,Windows 10,Chrome 138.0.0.0,1600x900,1600x773,Temporal Distance Task,cb_03,24.0,temp_dist_trial,num_items,zn7si1,1.0,response,1_ITEM,2386.0000000000146,2369.4000000000087,2386.0000000000146,2386.0000000000146,2369.4000000000087,2386.0000000000146,1.0,0.0,0.0,,Click Response,1_count,3.0,object-46,temp_dist_trial,24.0,s_sh_06_1,student_shared,clipboard,3.0,competing,paired,s_sh_06_1.jpg,Student,$${counterbalance_group},,sub-94
Desktop or Laptop,Windows 10,Chrome 138.0.0.0,1600x900,1600x773,Temporal Distance Task,cb_03,25.0,temp_dist_trial,num_items,zn7si1,1.0,response,2_ITEM,1131.699999988079,1117.8999999999942,1131.699999988079,1131.699999988079,1117.8999999999942,1131.699999988079,1.0,0.0,0.0,,Click Response,2_count,5.0,object-49,temp_dist_trial,25.0,s_a_20_1,student_art,pin cushion,3.0,unique,paired,s_a_20_1.jpg,Student,$${counterbalance_group},,sub-94
Desktop or Laptop,Windows 10,Chrome 138.0.0.0,1600x900,1600x773,Temporal Distance Task,cb_03,25.0,temp_dist_trial,dist_items,qkpkxw,2.0,info,,10.200000035765695,0.0,10.200000035765695,10.200000035765695,0.0,10.200000035765695,1.0,0.0,0.0,,Slider,Slider,4.0,object-56,temp_dist_trial,25.0,s_a_20_1,student_art,pin cushion,3.0,unique,paired,s_a_20_1.jpg,Student,$${counterbalance_group},,sub-94
Desktop or Laptop,Windows 10,Chrome 138.0.0.0,1600x900,1600x773,Temporal Distance Task,cb_03,25.0,temp_dist_trial,dist_items,qkpkxw,2.0,continue,,3550.300000000003,3537.400000000009,3550.300000000003,3550.300000000003,3537.400000000009,3550.300000000003,1.0,0.0,0.0,,Click To Continue,Next button,7.0,object-60,temp_dist_trial,25.0,s_a_20_1,student_art,pin cushion,3.0,unique,paired,s_a_20_1.jpg,Student,$${counterbalance_group},,sub-94
Desktop or Laptop,Windows 10,Chrome 138.0.0.0,1600x900,1600x773,Temporal Distance Task,cb_03,25.0,temp_dist_trial,dist_items,qkpkxw,2.0,response,19,2152.4000000000087,3537.400000000009,3551.400000023845,2152.4000000000087,3537.400000000009,3551.400000023845,1.0,1399.000000023836,0.0,,Slider,Slider,4.0,object-56,temp_dist_trial,25.0,s_a_20_1,student_art,pin cushion,3.0,unique,paired,s_a_20_1.jpg,Student,$${counterbalance_group},,sub-94
Desktop or Laptop,Windows 10,Chrome 138.0.0.0,1600x900,1600x773,Temporal Distance Task,cb_03,26.0,temp_dist_trial,num_items,zn7si1,1.0,response,2_ITEM,2051.3999999999937,2035.6999999999825,2051.3999999999937,2051.3999999999937,2035.6999999999825,2051.3999999999937,1.0,0.0,0.0,,Click Response,2_count,5.0,object-49,temp_dist_trial,26.0,s_s_04_1,student_stem,bunsen burner,3.0,unique,paired,s_s_04_1.jpg,Student,$${counterbalance_group},,sub-94
Desktop or Laptop,Windows 10,Chrome 138.0.0.0,1600x900,1600x773,Temporal Distance Task,cb_03,26.0,temp_dist_trial,dist_items,qkpkxw,2.0,info,,10.300000035756968,0.0,10.300000035756968,10.300000035756968,0.0,10.300000035756968,1.0,0.0,0.0,,Slider,Slider,4.0,object-56,temp_dist_trial,26.0,s_s_04_1,student_stem,bunsen burner,3.0,unique,paired,s_s_04_1.jpg,Student,$${counterbalance_group},,sub-94
Desktop or Laptop,Windows 10,Chrome 138.0.0.0,1600x900,1600x773,Temporal Distance Task,cb_03,26.0,temp_dist_trial,dist_items,qkpkxw,2.0,continue,,2840.800000035757,2836.7999999999884,2840.800000035757,2840.800000035757,2836.7999999999884,2840.800000035757,1.0,0.0,0.0,,Click To Continue,Next button,7.0,object-60,temp_dist_trial,26.0,s_s_04_1,student_stem,bunsen burner,3.0,unique,paired,s_s_04_1.jpg,Student,$${counterbalance_group},,sub-94
Desktop or Laptop,Windows 10,Chrome 138.0.0.0,1600x900,1600x773,Temporal Distance Task,cb_03,26.0,temp_dist_trial,dist_items,qkpkxw,2.0,response,68,2002.2999999999884,2836.7999999999884,2842.5999999880733,2002.2999999999884,2836.7999999999884,2842.5999999880733,1.0,840.2999999880849,0.0,,Slider,Slider,4.0,object-56,temp_dist_trial,26.0,s_s_04_1,student_stem,bunsen burner,3.0,unique,paired,s_s_04_1.jpg,Student,$${counterbalance_group},,sub-94
Desktop or Laptop,Windows 10,Chrome 138.0.0.0,1600x900,1600x773,Temporal Distance Task,cb_03,27.0,temp_dist_trial,num_items,zn7si1,1.0,response,2_ITEM,1177.4000000119267,1167.8999999999942,1177.4000000119267,1177.4000000119267,1167.8999999999942,1177.4000000119267,1.0,0.0,0.0,,Click Response,2_count,5.0,object-49,temp_dist_trial,27.0,s_sh_01_1,student_shared,notebook,3.0,competing,paired,s_sh_01_1.jpg,Student,$${counterbalance_group},,sub-94
Desktop or Laptop,Windows 10,Chrome 138.0.0.0,1600x900,1600x773,Temporal Distance Task,cb_03,27.0,temp_dist_trial,dist_items,qkpkxw,2.0,info,,11.0,0.0,11.0,11.0,0.0,11.0,1.0,0.0,0.0,,Slider,Slider,4.0,object-56,temp_dist_trial,27.0,s_sh_01_1,student_shared,notebook,3.0,competing,paired,s_sh_01_1.jpg,Student,$${counterbalance_group},,sub-94
Desktop or Laptop,Windows 10,Chrome 138.0.0.0,1600x900,1600x773,Temporal Distance Task,cb_03,27.0,temp_dist_trial,dist_items,qkpkxw,2.0,continue,,1517.3000000119214,1501.8999999999942,1517.3000000119214,1517.3000000119214,1501.8999999999942,1517.3000000119214,1.0,0.0,0.0,,Click To Continue,Next button,7.0,object-60,temp_dist_trial,27.0,s_sh_01_1,student_shared,notebook,3.0,competing,paired,s_sh_01_1.jpg,Student,$${counterbalance_group},,sub-94
Desktop or Laptop,Windows 10,Chrome 138.0.0.0,1600x900,1600x773,Temporal Distance Task,cb_03,27.0,temp_dist_trial,dist_items,qkpkxw,2.0,response,20,851.1000000000058,1501.8999999999942,1518.0,851.1000000000058,1501.8999999999942,1518.0,1.0,666.8999999999943,0.0,,Slider,Slider,4.0,object-56,temp_dist_trial,27.0,s_sh_01_1,student_shared,notebook,3.0,competing,paired,s_sh_01_1.jpg,Student,$${counterbalance_group},,sub-94
Desktop or Laptop,Windows 10,Chrome 138.0.0.0,1600x900,1600x773,Temporal Distance Task,cb_03,28.0,temp_dist_trial,num_items,zn7si1,1.0,response,2_ITEM,933.2999999880847,917.7000000000116,933.2999999880847,933.2999999880847,917.7000000000116,933.2999999880847,1.0,0.0,0.0,,Click Response,2_count,5.0,object-49,temp_dist_trial,28.0,s_a_04_1,student_art,easel,3.0,unique,paired,s_a_04_1.jpg,Student,$${counterbalance_group},,sub-94
Desktop or Laptop,Windows 10,Chrome 138.0.0.0,1600x900,1600x773,Temporal Distance Task,cb_03,28.0,temp_dist_trial,dist_items,qkpkxw,2.0,info,,13.70000002384768,0.0,13.70000002384768,13.70000002384768,0.0,13.70000002384768,1.0,0.0,0.0,,Slider,Slider,4.0,object-56,temp_dist_trial,28.0,s_a_04_1,student_art,easel,3.0,unique,paired,s_a_04_1.jpg,Student,$${counterbalance_group},,sub-94
Desktop or Laptop,Windows 10,Chrome 138.0.0.0,1600x900,1600x773,Temporal Distance Task,cb_03,28.0,temp_dist_trial,dist_items,qkpkxw,2.0,continue,,1565.5000000357684,1551.2000000000116,1565.5000000357684,1565.5000000357684,1551.2000000000116,1565.5000000357684,1.0,0.0,0.0,,Click To Continue,Next button,7.0,object-60,temp_dist_trial,28.0,s_a_04_1,student_art,easel,3.0,unique,paired,s_a_04_1.jpg,Student,$${counterbalance_group},,sub-94
Desktop or Laptop,Windows 10,Chrome 138.0.0.0,1600x900,1600x773,Temporal Distance Task,cb_03,28.0,temp_dist_trial,dist_items,qkpkxw,2.0,response,34,550.2000000000116,1551.2000000000116,1566.2000000238475,550.2000000000116,1551.2000000000116,1566.2000000238475,1.0,1016.000000023836,0.0,,Slider,Slider,4.0,object-56,temp_dist_trial,28.0,s_a_04_1,student_art,easel,3.0,unique,paired,s_a_04_1.jpg,Student,$${counterbalance_group},,sub-94
Desktop or Laptop,Windows 10,Chrome 138.0.0.0,1600x900,1600x773,Temporal Distance Task,cb_03,29.0,temp_dist_trial,num_items,zn7si1,1.0,response,2_ITEM,1470.8999999999942,1468.2999999999884,1470.8999999999942,1470.8999999999942,1468.2999999999884,1470.8999999999942,1.0,0.0,0.0,,Click Response,2_count,5.0,object-49,temp_dist_trial,29.0,s_s_14_1,student_stem,funnel,3.0,unique,paired,s_s_14_1.jpg,Student,$${counterbalance_group},,sub-94
Desktop or Laptop,Windows 10,Chrome 138.0.0.0,1600x900,1600x773,Temporal Distance Task,cb_03,29.0,temp_dist_trial,dist_items,qkpkxw,2.0,info,,8.100000000005819,0.0,8.100000000005819,8.100000000005819,0.0,8.100000000005819,1.0,0.0,0.0,,Slider,Slider,4.0,object-56,temp_dist_trial,29.0,s_s_14_1,student_stem,funnel,3.0,unique,paired,s_s_14_1.jpg,Student,$${counterbalance_group},,sub-94
Desktop or Laptop,Windows 10,Chrome 138.0.0.0,1600x900,1600x773,Temporal Distance Task,cb_03,29.0,temp_dist_trial,dist_items,qkpkxw,2.0,continue,,2901.799999988085,2886.5,2901.799999988085,2901.799999988085,2886.5,2901.799999988085,1.0,0.0,0.0,,Click To Continue,Next button,7.0,object-60,temp_dist_trial,29.0,s_s_14_1,student_stem,funnel,3.0,unique,paired,s_s_14_1.jpg,Student,$${counterbalance_group},,sub-94
Desktop or Laptop,Windows 10,Chrome 138.0.0.0,1600x900,1600x773,Temporal Distance Task,cb_03,29.0,temp_dist_trial,dist_items,qkpkxw,2.0,response,22,2269.200000000012,2886.5,2902.500000035769,2269.200000000012,2886.5,2902.500000035769,1.0,633.300000035757,0.0,,Slider,Slider,4.0,object-56,temp_dist_trial,29.0,s_s_14_1,student_stem,funnel,3.0,unique,paired,s_s_14_1.jpg,Student,$${counterbalance_group},,sub-94
Desktop or Laptop,Windows 10,Chrome 138.0.0.0,1600x900,1600x773,Temporal Distance Task,cb_03,30.0,temp_dist_trial,num_items,zn7si1,1.0,response,2_ITEM,1573.2000000238475,1568.6000000000058,1573.2000000238475,1573.2000000238475,1568.6000000000058,1573.2000000238475,1.0,0.0,0.0,,Click Response,2_count,5.0,object-49,temp_dist_trial,30.0,s_sh_14_1,student_shared,printer,3.0,competing,paired,s_sh_14_1.jpg,Student,$${counterbalance_group},,sub-94
Desktop or Laptop,Windows 10,Chrome 138.0.0.0,1600x900,1600x773,Temporal Distance Task,cb_03,30.0,temp_dist_trial,dist_items,qkpkxw,2.0,info,,7.0000000119325705,0.0,7.0000000119325705,7.0000000119325705,0.0,7.0000000119325705,1.0,0.0,0.0,,Slider,Slider,4.0,object-56,temp_dist_trial,30.0,s_sh_14_1,student_shared,printer,3.0,competing,paired,s_sh_14_1.jpg,Student,$${counterbalance_group},,sub-94
Desktop or Laptop,Windows 10,Chrome 138.0.0.0,1600x900,1600x773,Temporal Distance Task,cb_03,30.0,temp_dist_trial,dist_items,qkpkxw,2.0,continue,,1342.5000000119326,1334.9000000000233,1342.5000000119326,1342.5000000119326,1334.9000000000233,1342.5000000119326,1.0,0.0,0.0,,Click To Continue,Next button,7.0,object-60,temp_dist_trial,30.0,s_sh_14_1,student_shared,printer,3.0,competing,paired,s_sh_14_1.jpg,Student,$${counterbalance_group},,sub-94
Desktop or Laptop,Windows 10,Chrome 138.0.0.0,1600x900,1600x773,Temporal Distance Task,cb_03,30.0,temp_dist_trial,dist_items,qkpkxw,2.0,response,61,617.4000000000233,1334.9000000000233,1343.3999999880907,617.4000000000233,1334.9000000000233,1343.3999999880907,1.0,725.9999999880673,0.0,,Slider,Slider,4.0,object-56,temp_dist_trial,30.0,s_sh_14_1,student_shared,printer,3.0,competing,paired,s_sh_14_1.jpg,Student,$${counterbalance_group},,sub-94
Desktop or Laptop,Windows 10,Chrome 138.0.0.0,1600x900,1600x773,Temporal Distance Task,cb_03,31.0,temp_dist_trial,num_items,zn7si1,1.0,response,1_ITEM,2090.4000000238298,2085.7999999999884,2090.4000000238298,2090.4000000238298,2085.7999999999884,2090.4000000238298,1.0,0.0,0.0,,Click Response,1_count,3.0,object-46,temp_dist_trial,31.0,s_s_17_1,student_stem,ring stand,3.0,unique,paired,s_s_17_1.jpg,Student,$${counterbalance_group},,sub-94
Desktop or Laptop,Windows 10,Chrome 138.0.0.0,1600x900,1600x773,Temporal Distance Task,cb_03,32.0,temp_dist_trial,num_items,zn7si1,1.0,response,1_ITEM,1625.0000000119323,1618.5,1625.0000000119323,1625.0000000119323,1618.5,1625.0000000119323,1.0,0.0,0.0,,Click Response,1_count,3.0,object-46,temp_dist_trial,32.0,s_s_09_1,student_stem,multimeter,3.0,unique,single,s_s_09_1.jpg,Student,$${counterbalance_group},,sub-94
Desktop or Laptop,Windows 10,Chrome 138.0.0.0,1600x900,1600x773,Temporal Distance Task,cb_03,33.0,temp_dist_trial,num_items,zn7si1,1.0,response,1_ITEM,1699.8000000357572,1685.2999999999884,1699.8000000357572,1699.8000000357572,1685.2999999999884,1699.8000000357572,1.0,0.0,0.0,,Click Response,1_count,3.0,object-46,temp_dist_trial,33.0,s_a_02_1,student_art,canvas,3.0,unique,single,s_a_02_1.jpg,Student,$${counterbalance_group},,sub-94
Desktop or Laptop,Windows 10,Chrome 138.0.0.0,1600x900,1600x773,Temporal Distance Task,cb_03,34.0,temp_dist_trial,num_items,zn7si1,1.0,response,2_ITEM,1253.5000000119326,1251.3000000000175,1253.5000000119326,1253.5000000119326,1251.3000000000175,1253.5000000119326,1.0,0.0,0.0,,Click Response,2_count,5.0,object-49,temp_dist_trial,34.0,s_a_13_1,student_art,violin,3.0,unique,paired,s_a_13_1.jpg,Student,$${counterbalance_group},,sub-94
Desktop or Laptop,Windows 10,Chrome 138.0.0.0,1600x900,1600x773,Temporal Distance Task,cb_03,34.0,temp_dist_trial,dist_items,qkpkxw,2.0,info,,9.00000001193257,0.0,9.00000001193257,9.00000001193257,0.0,9.00000001193257,1.0,0.0,0.0,,Slider,Slider,4.0,object-56,temp_dist_trial,34.0,s_a_13_1,student_art,violin,3.0,unique,paired,s_a_13_1.jpg,Student,$${counterbalance_group},,sub-94
Desktop or Laptop,Windows 10,Chrome 138.0.0.0,1600x900,1600x773,Temporal Distance Task,cb_03,34.0,temp_dist_trial,dist_items,qkpkxw,2.0,continue,,1538.3000000238535,1535.2000000000116,1538.3000000238535,1538.3000000238535,1535.2000000000116,1538.3000000238535,1.0,0.0,0.0,,Click To Continue,Next button,7.0,object-60,temp_dist_trial,34.0,s_a_13_1,student_art,violin,3.0,unique,paired,s_a_13_1.jpg,Student,$${counterbalance_group},,sub-94
Desktop or Laptop,Windows 10,Chrome 138.0.0.0,1600x900,1600x773,Temporal Distance Task,cb_03,34.0,temp_dist_trial,dist_items,qkpkxw,2.0,response,68,817.8000000000177,1535.2000000000116,1550.0000000119323,817.8000000000177,1535.2000000000116,1550.0000000119323,1.0,732.2000000119151,0.0,,Slider,Slider,4.0,object-56,temp_dist_trial,34.0,s_a_13_1,student_art,violin,3.0,unique,paired,s_a_13_1.jpg,Student,$${counterbalance_group},,sub-94
Desktop or Laptop,Windows 10,Chrome 138.0.0.0,1600x900,1600x773,Temporal Distance Task,cb_03,35.0,temp_dist_trial,num_items,zn7si1,1.0,response,1_ITEM,1250.0,1234.8999999999942,1250.0,1250.0,1234.8999999999942,1250.0,1.0,0.0,0.0,,Click Response,1_count,3.0,object-46,temp_dist_trial,35.0,s_sh_10_1,student_shared,scissors,3.0,competing,paired,s_sh_10_1.jpg,Student,$${counterbalance_group},,sub-94
Desktop or Laptop,Windows 10,Chrome 138.0.0.0,1600x900,1600x773,Temporal Distance Task,cb_03,36.0,temp_dist_trial,num_items,zn7si1,1.0,response,1_ITEM,982.8999999999942,967.8999999999942,982.8999999999942,982.8999999999942,967.8999999999942,982.8999999999942,1.0,0.0,0.0,,Click Response,1_count,3.0,object-46,temp_dist_trial,36.0,s_sh_03_1,student_shared,highlighter,3.0,competing,single,s_sh_03_1.jpg,Student,$${counterbalance_group},,sub-94
Desktop or Laptop,Windows 10,Chrome 138.0.0.0,1600x900,1600x773,Temporal Distance Task,cb_03,37.0,temp_dist_trial,num_items,zn7si1,1.0,response,2_ITEM,1010.7999999999884,1001.1999999999823,1010.7999999999884,1010.7999999999884,1001.1999999999823,1010.7999999999884,1.0,0.0,0.0,,Click Response,2_count,5.0,object-49,temp_dist_trial,37.0,s_sh_12_1,student_shared,binder,3.0,competing,paired,s_sh_12_1.jpg,Student,$${counterbalance_group},,sub-94
Desktop or Laptop,Windows 10,Chrome 138.0.0.0,1600x900,1600x773,Temporal Distance Task,cb_03,37.0,temp_dist_trial,dist_items,qkpkxw,2.0,info,,6.200000035751144,0.0,6.200000035751144,6.200000035751144,0.0,6.200000035751144,1.0,0.0,0.0,,Slider,Slider,4.0,object-56,temp_dist_trial,37.0,s_sh_12_1,student_shared,binder,3.0,competing,paired,s_sh_12_1.jpg,Student,$${counterbalance_group},,sub-94
Desktop or Laptop,Windows 10,Chrome 138.0.0.0,1600x900,1600x773,Temporal Distance Task,cb_03,37.0,temp_dist_trial,dist_items,qkpkxw,2.0,continue,,1788.9000000238302,1785.3999999999942,1788.9000000238302,1788.9000000238302,1785.3999999999942,1788.9000000238302,1.0,0.0,0.0,,Click To Continue,Next button,7.0,object-60,temp_dist_trial,37.0,s_sh_12_1,student_shared,binder,3.0,competing,paired,s_sh_12_1.jpg,Student,$${counterbalance_group},,sub-94
Desktop or Laptop,Windows 10,Chrome 138.0.0.0,1600x900,1600x773,Temporal Distance Task,cb_03,37.0,temp_dist_trial,dist_items,qkpkxw,2.0,response,28,1134.5,1785.3999999999942,1790.1000000119093,1134.5,1785.3999999999942,1790.1000000119093,1.0,655.6000000119093,0.0,,Slider,Slider,4.0,object-56,temp_dist_trial,37.0,s_sh_12_1,student_shared,binder,3.0,competing,paired,s_sh_12_1.jpg,Student,$${counterbalance_group},,sub-94
Desktop or Laptop,Windows 10,Chrome 138.0.0.0,1600x900,1600x773,Temporal Distance Task,cb_03,38.0,temp_dist_trial,num_items,zn7si1,1.0,response,2_ITEM,1544.500000023836,1535.1000000000058,1544.500000023836,1544.500000023836,1535.1000000000058,1544.500000023836,1.0,0.0,0.0,,Click Response,2_count,5.0,object-49,temp_dist_trial,38.0,s_s_13_1,student_stem,telescope,3.0,unique,paired,s_s_13_1.jpg,Student,$${counterbalance_group},,sub-94
Desktop or Laptop,Windows 10,Chrome 138.0.0.0,1600x900,1600x773,Temporal Distance Task,cb_03,38.0,temp_dist_trial,dist_items,qkpkxw,2.0,info,,16.60000000000582,0.0,16.60000000000582,16.60000000000582,0.0,16.60000000000582,1.0,0.0,0.0,,Slider,Slider,4.0,object-56,temp_dist_trial,38.0,s_s_13_1,student_stem,telescope,3.0,unique,paired,s_s_13_1.jpg,Student,$${counterbalance_group},,sub-94
Desktop or Laptop,Windows 10,Chrome 138.0.0.0,1600x900,1600x773,Temporal Distance Task,cb_03,38.0,temp_dist_trial,dist_items,qkpkxw,2.0,continue,,1479.5000000357684,1468.5,1479.5000000357684,1479.5000000357684,1468.5,1479.5000000357684,1.0,0.0,0.0,,Click To Continue,Next button,7.0,object-60,temp_dist_trial,38.0,s_s_13_1,student_stem,telescope,3.0,unique,paired,s_s_13_1.jpg,Student,$${counterbalance_group},,sub-94
Desktop or Laptop,Windows 10,Chrome 138.0.0.0,1600x900,1600x773,Temporal Distance Task,cb_03,38.0,temp_dist_trial,dist_items,qkpkxw,2.0,response,,1481.2000000238475,1468.5,1481.2000000238475,1481.2000000238475,1468.5,1481.2000000238475,1.0,0.0,0.0,,Slider,Slider,4.0,object-56,temp_dist_trial,38.0,s_s_13_1,student_stem,telescope,3.0,unique,paired,s_s_13_1.jpg,Student,$${counterbalance_group},,sub-94
Desktop or Laptop,Windows 10,Chrome 138.0.0.0,1600x900,1600x773,Temporal Distance Task,cb_03,39.0,temp_dist_trial,num_items,zn7si1,1.0,response,num_miss,3003.300000000017,3003.300000000017,3003.300000000017,3003.300000000017,3003.300000000017,3003.300000000017,1.0,0.0,0.0,num_miss_tag,Time Limit,screen,0.0,screen,temp_dist_trial,39.0,s_sh_19_1,student_shared,portable plastic drawer,3.0,competing,single,s_sh_19_1.jpg,Student,$${counterbalance_group},,sub-94
Desktop or Laptop,Windows 10,Chrome 138.0.0.0,1600x900,1600x773,Temporal Distance Task,cb_03,40.0,temp_dist_trial,num_items,zn7si1,1.0,response,1_ITEM,1627.400000011927,1618.7000000000116,1627.400000011927,1627.400000011927,1618.7000000000116,1627.400000011927,1.0,0.0,0.0,,Click Response,1_count,3.0,object-46,temp_dist_trial,40.0,s_a_09_1,student_art,picture frame,3.0,unique,paired,s_a_09_1.jpg,Student,$${counterbalance_group},,sub-94
Desktop or Laptop,Windows 10,Chrome 138.0.0.0,1600x900,1600x773,Temporal Distance Task,cb_03,41.0,temp_dist_trial,num_items,zn7si1,1.0,response,1_ITEM,1941.3999999880907,1935.4000000000235,1941.3999999880907,1941.3999999880907,1935.4000000000235,1941.3999999880907,1.0,0.0,0.0,,Click Response,1_count,3.0,object-46,temp_dist_trial,41.0,s_sh_22_1,student_shared,hole puncher,3.0,competing,paired,s_sh_22_1.jpg,Student,$${counterbalance_group},,sub-94
Desktop or Laptop,Windows 10,Chrome 138.0.0.0,1600x900,1600x773,Temporal Distance Task,cb_03,42.0,temp_dist_trial,num_items,zn7si1,1.0,response,1_ITEM,1143.6000000119093,1134.5,1143.6000000119093,1143.6000000119093,1134.5,1143.6000000119093,1.0,0.0,0.0,,Click Response,1_count,3.0,object-46,temp_dist_trial,42.0,s_sh_02_1,student_shared,eraser,3.0,competing,single,s_sh_02_1.jpg,Student,$${counterbalance_group},,sub-94
Desktop or Laptop,Windows 10,Chrome 138.0.0.0,1600x900,1600x773,Temporal Distance Task,cb_03,43.0,temp_dist_trial,num_items,zn7si1,1.0,response,1_ITEM,1001.3000000000177,984.6000000000058,1001.3000000000177,1001.3000000000177,984.6000000000058,1001.3000000000177,1.0,0.0,0.0,,Click Response,1_count,3.0,object-46,temp_dist_trial,43.0,s_sh_18_1,student_shared,wall calendar,3.0,competing,paired,s_sh_18_1.jpg,Student,$${counterbalance_group},,sub-94
Desktop or Laptop,Windows 10,Chrome 138.0.0.0,1600x900,1600x773,Temporal Distance Task,cb_03,44.0,temp_dist_trial,num_items,zn7si1,1.0,response,1_ITEM,1290.2999999880851,1284.8000000000175,1290.2999999880851,1290.2999999880851,1284.8000000000175,1290.2999999880851,1.0,0.0,0.0,,Click Response,1_count,3.0,object-46,temp_dist_trial,44.0,s_sh_13_1,student_shared,index cards,3.0,competing,paired,s_sh_13_1.jpg,Student,$${counterbalance_group},,sub-94
Desktop or Laptop,Windows 10,Chrome 138.0.0.0,1600x900,1600x773,Temporal Distance Task,cb_03,45.0,temp_dist_trial,num_items,zn7si1,1.0,response,2_ITEM,1167.899999999965,1151.2999999999886,1167.899999999965,1167.899999999965,1151.2999999999886,1167.899999999965,1.0,0.0,0.0,,Click Response,2_count,5.0,object-49,temp_dist_trial,45.0,s_sh_24_1,student_shared,desk organizer,3.0,competing,paired,s_sh_24_1.jpg,Student,$${counterbalance_group},,sub-94
Desktop or Laptop,Windows 10,Chrome 138.0.0.0,1600x900,1600x773,Temporal Distance Task,cb_03,45.0,temp_dist_trial,dist_items,qkpkxw,2.0,info,,9.200000035751145,0.0,9.200000035751145,9.200000035751145,0.0,9.200000035751145,1.0,0.0,0.0,,Slider,Slider,4.0,object-56,temp_dist_trial,45.0,s_sh_24_1,student_shared,desk organizer,3.0,competing,paired,s_sh_24_1.jpg,Student,$${counterbalance_group},,sub-94
Desktop or Laptop,Windows 10,Chrome 138.0.0.0,1600x900,1600x773,Temporal Distance Task,cb_03,45.0,temp_dist_trial,dist_items,qkpkxw,2.0,continue,,2419.399999999965,2402.6999999999825,2419.399999999965,2419.399999999965,2402.6999999999825,2419.399999999965,1.0,0.0,0.0,,Click To Continue,Next button,7.0,object-60,temp_dist_trial,45.0,s_sh_24_1,student_shared,desk organizer,3.0,competing,paired,s_sh_24_1.jpg,Student,$${counterbalance_group},,sub-94
Desktop or Laptop,Windows 10,Chrome 138.0.0.0,1600x900,1600x773,Temporal Distance Task,cb_03,45.0,temp_dist_trial,dist_items,qkpkxw,2.0,response,64,1635.1999999999825,2402.6999999999825,2419.399999999965,1635.1999999999825,2402.6999999999825,2419.399999999965,1.0,784.1999999999823,0.0,,Slider,Slider,4.0,object-56,temp_dist_trial,45.0,s_sh_24_1,student_shared,desk organizer,3.0,competing,paired,s_sh_24_1.jpg,Student,$${counterbalance_group},,sub-94
Desktop or Laptop,Windows 10,Chrome 138.0.0.0,1600x900,1600x773,Temporal Distance Task,cb_03,46.0,temp_dist_trial,num_items,zn7si1,1.0,response,1_ITEM,1279.0000000357684,1268.1000000000058,1279.0000000357684,1279.0000000357684,1268.1000000000058,1279.0000000357684,1.0,0.0,0.0,,Click Response,1_count,3.0,object-46,temp_dist_trial,46.0,s_sh_07_1,student_shared,ruler,3.0,competing,single,s_sh_07_1.jpg,Student,$${counterbalance_group},,sub-94
Desktop or Laptop,Windows 10,Chrome 138.0.0.0,1600x900,1600x773,Temporal Distance Task,cb_03,47.0,temp_dist_trial,num_items,zn7si1,1.0,response,2_ITEM,1023.5000000357686,1017.8000000000177,1023.5000000357686,1023.5000000357686,1017.8000000000177,1023.5000000357686,1.0,0.0,0.0,,Click Response,2_count,5.0,object-49,temp_dist_trial,47.0,s_sh_17_1,student_shared,wireless mouse,3.0,competing,paired,s_sh_17_1.jpg,Student,$${counterbalance_group},,sub-94
Desktop or Laptop,Windows 10,Chrome 138.0.0.0,1600x900,1600x773,Temporal Distance Task,cb_03,47.0,temp_dist_trial,dist_items,qkpkxw,2.0,info,,12.900000011926751,0.0,12.900000011926751,12.900000011926751,0.0,12.900000011926751,1.0,0.0,0.0,,Slider,Slider,4.0,object-56,temp_dist_trial,47.0,s_sh_17_1,student_shared,wireless mouse,3.0,competing,paired,s_sh_17_1.jpg,Student,$${counterbalance_group},,sub-94
Desktop or Laptop,Windows 10,Chrome 138.0.0.0,1600x900,1600x773,Temporal Distance Task,cb_03,47.0,temp_dist_trial,dist_items,qkpkxw,2.0,continue,,1941.5000000357688,1936.0,1941.5000000357688,1941.5000000357688,1936.0,1941.5000000357688,1.0,0.0,0.0,,Click To Continue,Next button,7.0,object-60,temp_dist_trial,47.0,s_sh_17_1,student_shared,wireless mouse,3.0,competing,paired,s_sh_17_1.jpg,Student,$${counterbalance_group},,sub-94
Desktop or Laptop,Windows 10,Chrome 138.0.0.0,1600x900,1600x773,Temporal Distance Task,cb_03,47.0,temp_dist_trial,dist_items,qkpkxw,2.0,response,82,1184.8000000000175,1936.0,1943.200000023848,1184.8000000000175,1936.0,1943.200000023848,1.0,758.4000000238302,0.0,,Slider,Slider,4.0,object-56,temp_dist_trial,47.0,s_sh_17_1,student_shared,wireless mouse,3.0,competing,paired,s_sh_17_1.jpg,Student,$${counterbalance_group},,sub-94
Desktop or Laptop,Windows 10,Chrome 138.0.0.0,1600x900,1600x773,Temporal Distance Task,cb_03,48.0,temp_dist_trial,num_items,zn7si1,1.0,response,2_ITEM,1404.400000011927,1401.2000000000116,1404.400000011927,1404.400000011927,1401.2000000000116,1404.400000011927,1.0,0.0,0.0,,Click Response,2_count,5.0,object-49,temp_dist_trial,48.0,s_sh_05_1,student_shared,laptop,3.0,competing,single,s_sh_05_1.jpg,Student,$${counterbalance_group},,sub-94
Desktop or Laptop,Windows 10,Chrome 138.0.0.0,1600x900,1600x773,Temporal Distance Task,cb_03,48.0,temp_dist_trial,dist_items,qkpkxw,2.0,info,,10.100000000005819,0.0,10.100000000005819,10.100000000005819,0.0,10.100000000005819,1.0,0.0,0.0,,Slider,Slider,4.0,object-56,temp_dist_trial,48.0,s_sh_05_1,student_shared,laptop,3.0,competing,single,s_sh_05_1.jpg,Student,$${counterbalance_group},,sub-94
Desktop or Laptop,Windows 10,Chrome 138.0.0.0,1600x900,1600x773,Temporal Distance Task,cb_03,48.0,temp_dist_trial,dist_items,qkpkxw,2.0,continue,,1471.400000011927,1468.5,1471.400000011927,1471.400000011927,1468.5,1471.400000011927,1.0,0.0,0.0,,Click To Continue,Next button,7.0,object-60,temp_dist_trial,48.0,s_sh_05_1,student_shared,laptop,3.0,competing,single,s_sh_05_1.jpg,Student,$${counterbalance_group},,sub-94
Desktop or Laptop,Windows 10,Chrome 138.0.0.0,1600x900,1600x773,Temporal Distance Task,cb_03,48.0,temp_dist_trial,dist_items,qkpkxw,2.0,response,69,684.1000000000057,1468.5,1471.900000011927,684.1000000000057,1468.5,1471.900000011927,1.0,787.8000000119209,0.0,,Slider,Slider,4.0,object-56,temp_dist_trial,48.0,s_sh_05_1,student_shared,laptop,3.0,competing,single,s_sh_05_1.jpg,Student,$${counterbalance_group},,sub-94
Desktop or Laptop,Windows 10,Chrome 138.0.0.0,1600x900,1600x773,Temporal Distance Task,cb_03,2.0,temp_eventStart,Screen 1,dgtyxe,1.0,continue,,2373.6000000000063,2369.3999999999937,2373.6000000000063,2373.6000000000063,2369.3999999999937,2373.6000000000063,1.0,0.0,0.0,,Click To Continue,Next Button,3.0,object-43,temp_eventStart,,,Travel,,,,,,,$${counterbalance_group},,sub-94
Desktop or Laptop,Windows 10,Chrome 138.0.0.0,1600x900,1600x773,Temporal Distance Task,cb_03,49.0,temp_dist_trial,num_items,zn7si1,1.0,response,2_ITEM,1045.0000000119326,1034.6000000000058,1045.0000000119326,1045.0000000119326,1034.6000000000058,1045.0000000119326,1.0,0.0,0.0,,Click Response,2_count,5.0,object-49,temp_dist_trial,1.0,t_s_14_1,travel_shared,hand sanitizer,3.0,competing,paired,t_s_14_1.jpg,Travel,$${counterbalance_group},,sub-94
Desktop or Laptop,Windows 10,Chrome 138.0.0.0,1600x900,1600x773,Temporal Distance Task,cb_03,49.0,temp_dist_trial,dist_items,qkpkxw,2.0,info,,16.60000000000582,0.0,16.60000000000582,16.60000000000582,0.0,16.60000000000582,1.0,0.0,0.0,,Slider,Slider,4.0,object-56,temp_dist_trial,1.0,t_s_14_1,travel_shared,hand sanitizer,3.0,competing,paired,t_s_14_1.jpg,Travel,$${counterbalance_group},,sub-94
Desktop or Laptop,Windows 10,Chrome 138.0.0.0,1600x900,1600x773,Temporal Distance Task,cb_03,49.0,temp_dist_trial,dist_items,qkpkxw,2.0,continue,,1635.1000000000058,1618.5,1635.1000000000058,1635.1000000000058,1618.5,1635.1000000000058,1.0,0.0,0.0,,Click To Continue,Next button,7.0,object-60,temp_dist_trial,1.0,t_s_14_1,travel_shared,hand sanitizer,3.0,competing,paired,t_s_14_1.jpg,Travel,$${counterbalance_group},,sub-94
Desktop or Laptop,Windows 10,Chrome 138.0.0.0,1600x900,1600x773,Temporal Distance Task,cb_03,49.0,temp_dist_trial,dist_items,qkpkxw,2.0,response,62,1067.7999999999884,1618.5,1635.1000000000058,1067.7999999999884,1618.5,1635.1000000000058,1.0,567.3000000000175,0.0,,Slider,Slider,4.0,object-56,temp_dist_trial,1.0,t_s_14_1,travel_shared,hand sanitizer,3.0,competing,paired,t_s_14_1.jpg,Travel,$${counterbalance_group},,sub-94
Desktop or Laptop,Windows 10,Chrome 138.0.0.0,1600x900,1600x773,Temporal Distance Task,cb_03,50.0,temp_dist_trial,num_items,zn7si1,1.0,response,2_ITEM,1197.0999999880733,1184.6999999999825,1197.0999999880733,1197.0999999880733,1184.6999999999825,1197.0999999880733,1.0,0.0,0.0,,Click Response,2_count,5.0,object-49,temp_dist_trial,2.0,t_s_01_1,travel_shared,fanny pack,3.0,competing,paired,t_s_01_1.jpg,Travel,$${counterbalance_group},,sub-94
Desktop or Laptop,Windows 10,Chrome 138.0.0.0,1600x900,1600x773,Temporal Distance Task,cb_03,50.0,temp_dist_trial,dist_items,qkpkxw,2.0,info,,7.200000035751144,0.0,7.200000035751144,7.200000035751144,0.0,7.200000035751144,1.0,0.0,0.0,,Slider,Slider,4.0,object-56,temp_dist_trial,2.0,t_s_01_1,travel_shared,fanny pack,3.0,competing,paired,t_s_01_1.jpg,Travel,$${counterbalance_group},,sub-94
Desktop or Laptop,Windows 10,Chrome 138.0.0.0,1600x900,1600x773,Temporal Distance Task,cb_03,50.0,temp_dist_trial,dist_items,qkpkxw,2.0,continue,,2495.100000011909,2486.1999999999825,2495.100000011909,2495.100000011909,2486.1999999999825,2495.100000011909,1.0,0.0,0.0,,Click To Continue,Next button,7.0,object-60,temp_dist_trial,2.0,t_s_01_1,travel_shared,fanny pack,3.0,competing,paired,t_s_01_1.jpg,Travel,$${counterbalance_group},,sub-94
Desktop or Laptop,Windows 10,Chrome 138.0.0.0,1600x900,1600x773,Temporal Distance Task,cb_03,50.0,temp_dist_trial,dist_items,qkpkxw,2.0,response,85,1568.3999999999942,2486.1999999999825,2495.7999999999884,1568.3999999999942,2486.1999999999825,2495.7999999999884,1.0,927.3999999999942,0.0,,Slider,Slider,4.0,object-56,temp_dist_trial,2.0,t_s_01_1,travel_shared,fanny pack,3.0,competing,paired,t_s_01_1.jpg,Travel,$${counterbalance_group},,sub-94
Desktop or Laptop,Windows 10,Chrome 138.0.0.0,1600x900,1600x773,Temporal Distance Task,cb_03,51.0,temp_dist_trial,num_items,zn7si1,1.0,response,1_ITEM,1718.6999999999825,1702.0,1718.6999999999825,1718.6999999999825,1702.0,1718.6999999999825,1.0,0.0,0.0,,Click Response,1_count,3.0,object-46,temp_dist_trial,3.0,t_m_16_1,travel_Miami,flippers,3.0,unique,single,t_m_16_1.jpg,Travel,$${counterbalance_group},,sub-94
Desktop or Laptop,Windows 10,Chrome 138.0.0.0,1600x900,1600x773,Temporal Distance Task,cb_03,52.0,temp_dist_trial,num_items,zn7si1,1.0,response,2_ITEM,979.7000000119153,967.8999999999942,979.7000000119153,979.7000000119153,967.8999999999942,979.7000000119153,1.0,0.0,0.0,,Click Response,2_count,5.0,object-49,temp_dist_trial,4.0,t_s_06_1,travel_shared,luggage,3.0,competing,paired,t_s_06_1.jpg,Travel,$${counterbalance_group},,sub-94
Desktop or Laptop,Windows 10,Chrome 138.0.0.0,1600x900,1600x773,Temporal Distance Task,cb_03,52.0,temp_dist_trial,dist_items,qkpkxw,2.0,info,,7.999999988067429,0.0,7.999999988067429,7.999999988067429,0.0,7.999999988067429,1.0,0.0,0.0,,Slider,Slider,4.0,object-56,temp_dist_trial,4.0,t_s_06_1,travel_shared,luggage,3.0,competing,paired,t_s_06_1.jpg,Travel,$${counterbalance_group},,sub-94
Desktop or Laptop,Windows 10,Chrome 138.0.0.0,1600x900,1600x773,Temporal Distance Task,cb_03,52.0,temp_dist_trial,dist_items,qkpkxw,2.0,continue,,2199.6000000119093,2186.0,2199.6000000119093,2199.6000000119093,2186.0,2199.6000000119093,1.0,0.0,0.0,,Click To Continue,Next button,7.0,object-60,temp_dist_trial,4.0,t_s_06_1,travel_shared,luggage,3.0,competing,paired,t_s_06_1.jpg,Travel,$${counterbalance_group},,sub-94
Desktop or Laptop,Windows 10,Chrome 138.0.0.0,1600x900,1600x773,Temporal Distance Task,cb_03,52.0,temp_dist_trial,dist_items,qkpkxw,2.0,response,67,1519.0999999999767,2186.0,2202.8000000000175,1519.0999999999767,2186.0,2202.8000000000175,1.0,683.7000000000407,0.0,,Slider,Slider,4.0,object-56,temp_dist_trial,4.0,t_s_06_1,travel_shared,luggage,3.0,competing,paired,t_s_06_1.jpg,Travel,$${counterbalance_group},,sub-94
Desktop or Laptop,Windows 10,Chrome 138.0.0.0,1600x900,1600x773,Temporal Distance Task,cb_03,53.0,temp_dist_trial,num_items,zn7si1,1.0,response,2_ITEM,1181.9000000238302,1167.8999999999942,1181.9000000238302,1181.9000000238302,1167.8999999999942,1181.9000000238302,1.0,0.0,0.0,,Click Response,2_count,5.0,object-49,temp_dist_trial,5.0,t_i_19_1,travel_Iceland,rope,3.0,unique,single,t_i_19_1.jpg,Travel,$${counterbalance_group},,sub-94
Desktop or Laptop,Windows 10,Chrome 138.0.0.0,1600x900,1600x773,Temporal Distance Task,cb_03,53.0,temp_dist_trial,dist_items,qkpkxw,2.0,info,,10.100000000005819,0.0,10.100000000005819,10.100000000005819,0.0,10.100000000005819,1.0,0.0,0.0,,Slider,Slider,4.0,object-56,temp_dist_trial,5.0,t_i_19_1,travel_Iceland,rope,3.0,unique,single,t_i_19_1.jpg,Travel,$${counterbalance_group},,sub-94
Desktop or Laptop,Windows 10,Chrome 138.0.0.0,1600x900,1600x773,Temporal Distance Task,cb_03,53.0,temp_dist_trial,dist_items,qkpkxw,2.0,continue,,1351.2000000238475,1335.0,1351.2000000238475,1351.2000000238475,1335.0,1351.2000000238475,1.0,0.0,0.0,,Click To Continue,Next button,7.0,object-60,temp_dist_trial,5.0,t_i_19_1,travel_Iceland,rope,3.0,unique,single,t_i_19_1.jpg,Travel,$${counterbalance_group},,sub-94
Desktop or Laptop,Windows 10,Chrome 138.0.0.0,1600x900,1600x773,Temporal Distance Task,cb_03,53.0,temp_dist_trial,dist_items,qkpkxw,2.0,response,38,700.8999999999942,1335.0,1351.6999999999825,700.8999999999942,1335.0,1351.6999999999825,1.0,650.7999999999884,0.0,,Slider,Slider,4.0,object-56,temp_dist_trial,5.0,t_i_19_1,travel_Iceland,rope,3.0,unique,single,t_i_19_1.jpg,Travel,$${counterbalance_group},,sub-94
Desktop or Laptop,Windows 10,Chrome 138.0.0.0,1600x900,1600x773,Temporal Distance Task,cb_03,54.0,temp_dist_trial,num_items,zn7si1,1.0,response,2_ITEM,1102.7999999880851,1101.2000000000116,1102.7999999880851,1102.7999999880851,1101.2000000000116,1102.7999999880851,1.0,0.0,0.0,,Click Response,2_count,5.0,object-49,temp_dist_trial,6.0,t_s_19_1,travel_shared,pajamas,3.0,competing,paired,t_s_19_1.jpg,Travel,$${counterbalance_group},,sub-94
Desktop or Laptop,Windows 10,Chrome 138.0.0.0,1600x900,1600x773,Temporal Distance Task,cb_03,54.0,temp_dist_trial,dist_items,qkpkxw,2.0,info,,16.700000000011638,0.0,16.700000000011638,16.700000000011638,0.0,16.700000000011638,1.0,0.0,0.0,,Slider,Slider,4.0,object-56,temp_dist_trial,6.0,t_s_19_1,travel_shared,pajamas,3.0,competing,paired,t_s_19_1.jpg,Travel,$${counterbalance_group},,sub-94
Desktop or Laptop,Windows 10,Chrome 138.0.0.0,1600x900,1600x773,Temporal Distance Task,cb_03,54.0,temp_dist_trial,dist_items,qkpkxw,2.0,continue,,1533.9000000357626,1518.3999999999942,1533.9000000357626,1533.9000000357626,1518.3999999999942,1533.9000000357626,1.0,0.0,0.0,,Click To Continue,Next button,7.0,object-60,temp_dist_trial,6.0,t_s_19_1,travel_shared,pajamas,3.0,competing,paired,t_s_19_1.jpg,Travel,$${counterbalance_group},,sub-94
Desktop or Laptop,Windows 10,Chrome 138.0.0.0,1600x900,1600x773,Temporal Distance Task,cb_03,54.0,temp_dist_trial,dist_items,qkpkxw,2.0,response,55,951.0,1518.3999999999942,1534.6000000238419,951.0,1518.3999999999942,1534.6000000238419,1.0,583.6000000238419,0.0,,Slider,Slider,4.0,object-56,temp_dist_trial,6.0,t_s_19_1,travel_shared,pajamas,3.0,competing,paired,t_s_19_1.jpg,Travel,$${counterbalance_group},,sub-94
Desktop or Laptop,Windows 10,Chrome 138.0.0.0,1600x900,1600x773,Temporal Distance Task,cb_03,55.0,temp_dist_trial,num_items,zn7si1,1.0,response,1_ITEM,1241.7999999880851,1234.7000000000114,1241.7999999880851,1241.7999999880851,1234.7000000000114,1241.7999999880851,1.0,0.0,0.0,,Click Response,1_count,3.0,object-46,temp_dist_trial,7.0,t_s_17_1,travel_shared,toothbrush,3.0,competing,single,t_s_17_1.jpg,Travel,$${counterbalance_group},,sub-94
Desktop or Laptop,Windows 10,Chrome 138.0.0.0,1600x900,1600x773,Temporal Distance Task,cb_03,56.0,temp_dist_trial,num_items,zn7si1,1.0,response,1_ITEM,986.2000000238477,984.3999999999942,986.2000000238477,986.2000000238477,984.3999999999942,986.2000000238477,1.0,0.0,0.0,,Click Response,1_count,3.0,object-46,temp_dist_trial,8.0,t_s_11_1,travel_shared,eye mask,3.0,competing,single,t_s_11_1.jpg,Travel,$${counterbalance_group},,sub-94
Desktop or Laptop,Windows 10,Chrome 138.0.0.0,1600x900,1600x773,Temporal Distance Task,cb_03,57.0,temp_dist_trial,num_items,zn7si1,1.0,response,2_ITEM,1172.4000000238302,1168.0999999999767,1172.4000000238302,1172.4000000238302,1168.0999999999767,1172.4000000238302,1.0,0.0,0.0,,Click Response,2_count,5.0,object-49,temp_dist_trial,9.0,t_s_23_1,travel_shared,ball cap,3.0,competing,paired,t_s_23_1.jpg,Travel,$${counterbalance_group},,sub-94
Desktop or Laptop,Windows 10,Chrome 138.0.0.0,1600x900,1600x773,Temporal Distance Task,cb_03,57.0,temp_dist_trial,dist_items,qkpkxw,2.0,info,,11.400000011926751,0.0,11.400000011926751,11.400000011926751,0.0,11.400000011926751,1.0,0.0,0.0,,Slider,Slider,4.0,object-56,temp_dist_trial,9.0,t_s_23_1,travel_shared,ball cap,3.0,competing,paired,t_s_23_1.jpg,Travel,$${counterbalance_group},,sub-94
Desktop or Laptop,Windows 10,Chrome 138.0.0.0,1600x900,1600x773,Temporal Distance Task,cb_03,57.0,temp_dist_trial,dist_items,qkpkxw,2.0,continue,,1698.400000011927,1685.3999999999942,1698.400000011927,1698.400000011927,1685.3999999999942,1698.400000011927,1.0,0.0,0.0,,Click To Continue,Next button,7.0,object-60,temp_dist_trial,9.0,t_s_23_1,travel_shared,ball cap,3.0,competing,paired,t_s_23_1.jpg,Travel,$${counterbalance_group},,sub-94
Desktop or Laptop,Windows 10,Chrome 138.0.0.0,1600x900,1600x773,Temporal Distance Task,cb_03,57.0,temp_dist_trial,dist_items,qkpkxw,2.0,response,22,884.5,1685.3999999999942,1702.0999999999767,884.5,1685.3999999999942,1702.0999999999767,1.0,817.5999999999768,0.0,,Slider,Slider,4.0,object-56,temp_dist_trial,9.0,t_s_23_1,travel_shared,ball cap,3.0,competing,paired,t_s_23_1.jpg,Travel,$${counterbalance_group},,sub-94
Desktop or Laptop,Windows 10,Chrome 138.0.0.0,1600x900,1600x773,Temporal Distance Task,cb_03,58.0,temp_dist_trial,num_items,zn7si1,1.0,response,2_ITEM,1174.3999999880907,1167.9000000000233,1174.3999999880907,1174.3999999880907,1167.9000000000233,1174.3999999880907,1.0,0.0,0.0,,Click Response,2_count,5.0,object-49,temp_dist_trial,10.0,t_s_13_1,travel_shared,contact lens case,3.0,competing,paired,t_s_13_1.jpg,Travel,$${counterbalance_group},,sub-94
Desktop or Laptop,Windows 10,Chrome 138.0.0.0,1600x900,1600x773,Temporal Distance Task,cb_03,58.0,temp_dist_trial,dist_items,qkpkxw,2.0,info,,13.300000035756964,0.0,13.300000035756964,13.300000035756964,0.0,13.300000035756964,1.0,0.0,0.0,,Slider,Slider,4.0,object-56,temp_dist_trial,10.0,t_s_13_1,travel_shared,contact lens case,3.0,competing,paired,t_s_13_1.jpg,Travel,$${counterbalance_group},,sub-94
Desktop or Laptop,Windows 10,Chrome 138.0.0.0,1600x900,1600x773,Temporal Distance Task,cb_03,58.0,temp_dist_trial,dist_items,qkpkxw,2.0,continue,,1767.8000000357572,1752.0,1767.8000000357572,1767.8000000357572,1752.0,1767.8000000357572,1.0,0.0,0.0,,Click To Continue,Next button,7.0,object-60,temp_dist_trial,10.0,t_s_13_1,travel_shared,contact lens case,3.0,competing,paired,t_s_13_1.jpg,Travel,$${counterbalance_group},,sub-94
Desktop or Laptop,Windows 10,Chrome 138.0.0.0,1600x900,1600x773,Temporal Distance Task,cb_03,58.0,temp_dist_trial,dist_items,qkpkxw,2.0,response,86,884.3999999999942,1752.0,1768.3999999999942,884.3999999999942,1752.0,1768.3999999999942,1.0,884.0,0.0,,Slider,Slider,4.0,object-56,temp_dist_trial,10.0,t_s_13_1,travel_shared,contact lens case,3.0,competing,paired,t_s_13_1.jpg,Travel,$${counterbalance_group},,sub-94
Desktop or Laptop,Windows 10,Chrome 138.0.0.0,1600x900,1600x773,Temporal Distance Task,cb_03,59.0,temp_dist_trial,num_items,zn7si1,1.0,response,2_ITEM,983.3999999999942,967.7999999999884,983.3999999999942,983.3999999999942,967.7999999999884,983.3999999999942,1.0,0.0,0.0,,Click Response,2_count,5.0,object-49,temp_dist_trial,11.0,t_m_04_1,travel_Miami,UV jacket,3.0,unique,paired,t_m_04_1.jpg,Travel,$${counterbalance_group},,sub-94
Desktop or Laptop,Windows 10,Chrome 138.0.0.0,1600x900,1600x773,Temporal Distance Task,cb_03,59.0,temp_dist_trial,dist_items,qkpkxw,2.0,info,,9.49999998806743,0.0,9.49999998806743,9.49999998806743,0.0,9.49999998806743,1.0,0.0,0.0,,Slider,Slider,4.0,object-56,temp_dist_trial,11.0,t_m_04_1,travel_Miami,UV jacket,3.0,unique,paired,t_m_04_1.jpg,Travel,$${counterbalance_group},,sub-94
Desktop or Laptop,Windows 10,Chrome 138.0.0.0,1600x900,1600x773,Temporal Distance Task,cb_03,59.0,temp_dist_trial,dist_items,qkpkxw,2.0,continue,,2162.1000000119093,2152.5,2162.1000000119093,2162.1000000119093,2152.5,2162.1000000119093,1.0,0.0,0.0,,Click To Continue,Next button,7.0,object-60,temp_dist_trial,11.0,t_m_04_1,travel_Miami,UV jacket,3.0,unique,paired,t_m_04_1.jpg,Travel,$${counterbalance_group},,sub-94
Desktop or Laptop,Windows 10,Chrome 138.0.0.0,1600x900,1600x773,Temporal Distance Task,cb_03,59.0,temp_dist_trial,dist_items,qkpkxw,2.0,response,19,1385.0999999999767,2152.5,2162.9000000238298,1385.0999999999767,2152.5,2162.9000000238298,1.0,777.8000000238535,0.0,,Slider,Slider,4.0,object-56,temp_dist_trial,11.0,t_m_04_1,travel_Miami,UV jacket,3.0,unique,paired,t_m_04_1.jpg,Travel,$${counterbalance_group},,sub-94
Desktop or Laptop,Windows 10,Chrome 138.0.0.0,1600x900,1600x773,Temporal Distance Task,cb_03,60.0,temp_dist_trial,num_items,zn7si1,1.0,response,1_ITEM,1555.1000000119093,1551.7999999999884,1555.1000000119093,1555.1000000119093,1551.7999999999884,1555.1000000119093,1.0,0.0,0.0,,Click Response,1_count,3.0,object-46,temp_dist_trial,12.0,t_s_08_1,travel_shared,hand lotion,3.0,competing,single,t_s_08_1.jpg,Travel,$${counterbalance_group},,sub-94
Desktop or Laptop,Windows 10,Chrome 138.0.0.0,1600x900,1600x773,Temporal Distance Task,cb_03,61.0,temp_dist_trial,num_items,zn7si1,1.0,response,1_ITEM,1084.1000000000058,1067.8999999999942,1084.1000000000058,1084.1000000000058,1067.8999999999942,1084.1000000000058,1.0,0.0,0.0,,Click Response,1_count,3.0,object-46,temp_dist_trial,13.0,t_m_15_1,travel_Miami,shorts,3.0,unique,single,t_m_15_1.jpg,Travel,$${counterbalance_group},,sub-94
Desktop or Laptop,Windows 10,Chrome 138.0.0.0,1600x900,1600x773,Temporal Distance Task,cb_03,62.0,temp_dist_trial,num_items,zn7si1,1.0,response,1_ITEM,1307.800000035757,1301.6000000000058,1307.800000035757,1307.800000035757,1301.6000000000058,1307.800000035757,1.0,0.0,0.0,,Click Response,1_count,3.0,object-46,temp_dist_trial,14.0,t_s_22_1,travel_shared,belt,3.0,competing,single,t_s_22_1.jpg,Travel,$${counterbalance_group},,sub-94
Desktop or Laptop,Windows 10,Chrome 138.0.0.0,1600x900,1600x773,Temporal Distance Task,cb_03,63.0,temp_dist_trial,num_items,zn7si1,1.0,response,2_ITEM,1278.7000000000114,1268.2000000000114,1278.7000000000114,1278.7000000000114,1268.2000000000114,1278.7000000000114,1.0,0.0,0.0,,Click Response,2_count,5.0,object-49,temp_dist_trial,15.0,t_m_01_1,travel_Miami,sandals,3.0,unique,paired,t_m_01_1.jpg,Travel,$${counterbalance_group},,sub-94
Desktop or Laptop,Windows 10,Chrome 138.0.0.0,1600x900,1600x773,Temporal Distance Task,cb_03,63.0,temp_dist_trial,dist_items,qkpkxw,2.0,info,,6.8000000238534986,0.0,6.8000000238534986,6.8000000238534986,0.0,6.8000000238534986,1.0,0.0,0.0,,Slider,Slider,4.0,object-56,temp_dist_trial,15.0,t_m_01_1,travel_Miami,sandals,3.0,unique,paired,t_m_01_1.jpg,Travel,$${counterbalance_group},,sub-94
Desktop or Laptop,Windows 10,Chrome 138.0.0.0,1600x900,1600x773,Temporal Distance Task,cb_03,63.0,temp_dist_trial,dist_items,qkpkxw,2.0,continue,,1196.5000000119326,1184.7000000000114,1196.5000000119326,1196.5000000119326,1184.7000000000114,1196.5000000119326,1.0,0.0,0.0,,Click To Continue,Next button,7.0,object-60,temp_dist_trial,15.0,t_m_01_1,travel_Miami,sandals,3.0,unique,paired,t_m_01_1.jpg,Travel,$${counterbalance_group},,sub-94
Desktop or Laptop,Windows 10,Chrome 138.0.0.0,1600x900,1600x773,Temporal Distance Task,cb_03,63.0,temp_dist_trial,dist_items,qkpkxw,2.0,response,45,617.4000000000233,1184.7000000000114,1197.0000000119326,617.4000000000233,1184.7000000000114,1197.0000000119326,1.0,579.6000000119093,0.0,,Slider,Slider,4.0,object-56,temp_dist_trial,15.0,t_m_01_1,travel_Miami,sandals,3.0,unique,paired,t_m_01_1.jpg,Travel,$${counterbalance_group},,sub-94
Desktop or Laptop,Windows 10,Chrome 138.0.0.0,1600x900,1600x773,Temporal Distance Task,cb_03,64.0,temp_dist_trial,num_items,zn7si1,1.0,response,2_ITEM,1547.5,1535.2000000000116,1547.5,1547.5,1535.2000000000116,1547.5,1.0,0.0,0.0,,Click Response,2_count,5.0,object-49,temp_dist_trial,16.0,t_s_15_1,travel_shared,luggage tag,3.0,competing,paired,t_s_15_1.jpg,Travel,$${counterbalance_group},,sub-94
Desktop or Laptop,Windows 10,Chrome 138.0.0.0,1600x900,1600x773,Temporal Distance Task,cb_03,64.0,temp_dist_trial,dist_items,qkpkxw,2.0,info,,16.60000000000582,0.0,16.60000000000582,16.60000000000582,0.0,16.60000000000582,1.0,0.0,0.0,,Slider,Slider,4.0,object-56,temp_dist_trial,16.0,t_s_15_1,travel_shared,luggage tag,3.0,competing,paired,t_s_15_1.jpg,Travel,$${counterbalance_group},,sub-94
Desktop or Laptop,Windows 10,Chrome 138.0.0.0,1600x900,1600x773,Temporal Distance Task,cb_03,64.0,temp_dist_trial,dist_items,qkpkxw,2.0,continue,,3695.9000000119267,3687.700000000012,3695.9000000119267,3695.9000000119267,3687.700000000012,3695.9000000119267,1.0,0.0,0.0,,Click To Continue,Next button,7.0,object-60,temp_dist_trial,16.0,t_s_15_1,travel_shared,luggage tag,3.0,competing,paired,t_s_15_1.jpg,Travel,$${counterbalance_group},,sub-94
Desktop or Laptop,Windows 10,Chrome 138.0.0.0,1600x900,1600x773,Temporal Distance Task,cb_03,64.0,temp_dist_trial,dist_items,qkpkxw,2.0,response,38,2970.1000000000067,3687.700000000012,3696.4000000119267,2970.1000000000067,3687.700000000012,3696.4000000119267,1.0,726.3000000119209,0.0,,Slider,Slider,4.0,object-56,temp_dist_trial,16.0,t_s_15_1,travel_shared,luggage tag,3.0,competing,paired,t_s_15_1.jpg,Travel,$${counterbalance_group},,sub-94
Desktop or Laptop,Windows 10,Chrome 138.0.0.0,1600x900,1600x773,Temporal Distance Task,cb_03,65.0,temp_dist_trial,num_items,zn7si1,1.0,response,1_ITEM,2383.5999999880733,2369.2999999999884,2383.5999999880733,2383.5999999880733,2369.2999999999884,2383.5999999880733,1.0,0.0,0.0,,Click Response,1_count,3.0,object-46,temp_dist_trial,17.0,t_s_20_1,travel_shared,travel pill case,3.0,competing,single,t_s_20_1.jpg,Travel,$${counterbalance_group},,sub-94
Desktop or Laptop,Windows 10,Chrome 138.0.0.0,1600x900,1600x773,Temporal Distance Task,cb_03,66.0,temp_dist_trial,num_items,zn7si1,1.0,response,1_ITEM,1268.2000000000114,1251.5,1268.2000000000114,1268.2000000000114,1251.5,1268.2000000000114,1.0,0.0,0.0,,Click Response,1_count,3.0,object-46,temp_dist_trial,18.0,t_i_15_1,travel_Iceland,compass,3.0,unique,paired,t_i_15_1.jpg,Travel,$${counterbalance_group},,sub-94
Desktop or Laptop,Windows 10,Chrome 138.0.0.0,1600x900,1600x773,Temporal Distance Task,cb_03,67.0,temp_dist_trial,num_items,zn7si1,1.0,response,2_ITEM,1861.1000000238416,1852.1000000000056,1861.1000000238416,1861.1000000238416,1852.1000000000056,1861.1000000238416,1.0,0.0,0.0,,Click Response,2_count,5.0,object-49,temp_dist_trial,19.0,t_m_10_1,travel_Miami,tanktop,3.0,unique,paired,t_m_10_1.jpg,Travel,$${counterbalance_group},,sub-94
Desktop or Laptop,Windows 10,Chrome 138.0.0.0,1600x900,1600x773,Temporal Distance Task,cb_03,67.0,temp_dist_trial,dist_items,qkpkxw,2.0,info,,16.700000000011638,0.0,16.700000000011638,16.700000000011638,0.0,16.700000000011638,1.0,0.0,0.0,,Slider,Slider,4.0,object-56,temp_dist_trial,19.0,t_m_10_1,travel_Miami,tanktop,3.0,unique,paired,t_m_10_1.jpg,Travel,$${counterbalance_group},,sub-94
Desktop or Laptop,Windows 10,Chrome 138.0.0.0,1600x900,1600x773,Temporal Distance Task,cb_03,67.0,temp_dist_trial,dist_items,qkpkxw,2.0,continue,,1776.1000000238419,1768.7000000000116,1776.1000000238419,1776.1000000238419,1768.7000000000116,1776.1000000238419,1.0,0.0,0.0,,Click To Continue,Next button,7.0,object-60,temp_dist_trial,19.0,t_m_10_1,travel_Miami,tanktop,3.0,unique,paired,t_m_10_1.jpg,Travel,$${counterbalance_group},,sub-94
Desktop or Laptop,Windows 10,Chrome 138.0.0.0,1600x900,1600x773,Temporal Distance Task,cb_03,67.0,temp_dist_trial,dist_items,qkpkxw,2.0,response,19,1168.0,1768.7000000000116,1777.5,1168.0,1768.7000000000116,1777.5,1.0,609.5,0.0,,Slider,Slider,4.0,object-56,temp_dist_trial,19.0,t_m_10_1,travel_Miami,tanktop,3.0,unique,paired,t_m_10_1.jpg,Travel,$${counterbalance_group},,sub-94
Desktop or Laptop,Windows 10,Chrome 138.0.0.0,1600x900,1600x773,Temporal Distance Task,cb_03,68.0,temp_dist_trial,num_items,zn7si1,1.0,response,1_ITEM,1865.400000023831,1852.0999999999767,1865.400000023831,1865.400000023831,1852.0999999999767,1865.400000023831,1.0,0.0,0.0,,Click Response,1_count,3.0,object-46,temp_dist_trial,20.0,t_m_17_1,travel_Miami,water gun,3.0,unique,paired,t_m_17_1.jpg,Travel,$${counterbalance_group},,sub-94
Desktop or Laptop,Windows 10,Chrome 138.0.0.0,1600x900,1600x773,Temporal Distance Task,cb_03,69.0,temp_dist_trial,num_items,zn7si1,1.0,response,2_ITEM,1512.5,1501.2999999999884,1512.5,1512.5,1501.2999999999884,1512.5,1.0,0.0,0.0,,Click Response,2_count,5.0,object-49,temp_dist_trial,21.0,t_s_16_1,travel_shared,chapstick,3.0,competing,paired,t_s_16_1.jpg,Travel,$${counterbalance_group},,sub-94
Desktop or Laptop,Windows 10,Chrome 138.0.0.0,1600x900,1600x773,Temporal Distance Task,cb_03,69.0,temp_dist_trial,dist_items,qkpkxw,2.0,info,,16.60000000000582,0.0,16.60000000000582,16.60000000000582,0.0,16.60000000000582,1.0,0.0,0.0,,Slider,Slider,4.0,object-56,temp_dist_trial,21.0,t_s_16_1,travel_shared,chapstick,3.0,competing,paired,t_s_16_1.jpg,Travel,$${counterbalance_group},,sub-94
Desktop or Laptop,Windows 10,Chrome 138.0.0.0,1600x900,1600x773,Temporal Distance Task,cb_03,69.0,temp_dist_trial,dist_items,qkpkxw,2.0,continue,,2536.300000000017,2519.6000000000063,2536.300000000017,2536.300000000017,2519.6000000000063,2536.300000000017,1.0,0.0,0.0,,Click To Continue,Next button,7.0,object-60,temp_dist_trial,21.0,t_s_16_1,travel_shared,chapstick,3.0,competing,paired,t_s_16_1.jpg,Travel,$${counterbalance_group},,sub-94
Desktop or Laptop,Windows 10,Chrome 138.0.0.0,1600x900,1600x773,Temporal Distance Task,cb_03,69.0,temp_dist_trial,dist_items,qkpkxw,2.0,response,70,1785.5,2519.6000000000063,2536.300000000017,1785.5,2519.6000000000063,2536.300000000017,1.0,750.8000000000177,0.0,,Slider,Slider,4.0,object-56,temp_dist_trial,21.0,t_s_16_1,travel_shared,chapstick,3.0,competing,paired,t_s_16_1.jpg,Travel,$${counterbalance_group},,sub-94
Desktop or Laptop,Windows 10,Chrome 138.0.0.0,1600x900,1600x773,Temporal Distance Task,cb_03,70.0,temp_dist_trial,num_items,zn7si1,1.0,response,2_ITEM,1221.4999999880674,1218.1999999999825,1221.4999999880674,1221.4999999880674,1218.1999999999825,1221.4999999880674,1.0,0.0,0.0,,Click Response,2_count,5.0,object-49,temp_dist_trial,22.0,t_i_09_1,travel_Iceland,ear muffs,3.0,unique,paired,t_i_09_1.jpg,Travel,$${counterbalance_group},,sub-94
Desktop or Laptop,Windows 10,Chrome 138.0.0.0,1600x900,1600x773,Temporal Distance Task,cb_03,70.0,temp_dist_trial,dist_items,qkpkxw,2.0,info,,16.5,0.0,16.5,16.5,0.0,16.5,1.0,0.0,0.0,,Slider,Slider,4.0,object-56,temp_dist_trial,22.0,t_i_09_1,travel_Iceland,ear muffs,3.0,unique,paired,t_i_09_1.jpg,Travel,$${counterbalance_group},,sub-94
Desktop or Laptop,Windows 10,Chrome 138.0.0.0,1600x900,1600x773,Temporal Distance Task,cb_03,70.0,temp_dist_trial,dist_items,qkpkxw,2.0,continue,,2893.000000023836,2886.699999999982,2893.000000023836,2893.000000023836,2886.699999999982,2893.000000023836,1.0,0.0,0.0,,Click To Continue,Next button,7.0,object-60,temp_dist_trial,22.0,t_i_09_1,travel_Iceland,ear muffs,3.0,unique,paired,t_i_09_1.jpg,Travel,$${counterbalance_group},,sub-94
Desktop or Laptop,Windows 10,Chrome 138.0.0.0,1600x900,1600x773,Temporal Distance Task,cb_03,70.0,temp_dist_trial,dist_items,qkpkxw,2.0,response,33,2002.3999999999944,2886.699999999982,2893.3999999999933,2002.3999999999944,2886.699999999982,2893.3999999999933,1.0,891.0,0.0,,Slider,Slider,4.0,object-56,temp_dist_trial,22.0,t_i_09_1,travel_Iceland,ear muffs,3.0,unique,paired,t_i_09_1.jpg,Travel,$${counterbalance_group},,sub-94
Desktop or Laptop,Windows 10,Chrome 138.0.0.0,1600x900,1600x773,Temporal Distance Task,cb_03,71.0,temp_dist_trial,num_items,zn7si1,1.0,response,2_ITEM,1399.0000000119323,1384.9000000000233,1399.0000000119323,1399.0000000119323,1384.9000000000233,1399.0000000119323,1.0,0.0,0.0,,Click Response,2_count,5.0,object-49,temp_dist_trial,23.0,t_s_24_1,travel_shared,ear plugs,3.0,competing,paired,t_s_24_1.jpg,Travel,$${counterbalance_group},,sub-94
Desktop or Laptop,Windows 10,Chrome 138.0.0.0,1600x900,1600x773,Temporal Distance Task,cb_03,71.0,temp_dist_trial,dist_items,qkpkxw,2.0,info,,9.600000023841858,0.0,9.600000023841858,9.600000023841858,0.0,9.600000023841858,1.0,0.0,0.0,,Slider,Slider,4.0,object-56,temp_dist_trial,23.0,t_s_24_1,travel_shared,ear plugs,3.0,competing,paired,t_s_24_1.jpg,Travel,$${counterbalance_group},,sub-94
Desktop or Laptop,Windows 10,Chrome 138.0.0.0,1600x900,1600x773,Temporal Distance Task,cb_03,71.0,temp_dist_trial,dist_items,qkpkxw,2.0,continue,,1361.5,1351.6000000000058,1361.5,1361.5,1351.6000000000058,1361.5,1.0,0.0,0.0,,Click To Continue,Next button,7.0,object-60,temp_dist_trial,23.0,t_s_24_1,travel_shared,ear plugs,3.0,competing,paired,t_s_24_1.jpg,Travel,$${counterbalance_group},,sub-94
Desktop or Laptop,Windows 10,Chrome 138.0.0.0,1600x900,1600x773,Temporal Distance Task,cb_03,71.0,temp_dist_trial,dist_items,qkpkxw,2.0,response,61,517.3999999999942,1351.6000000000058,1363.4000000357628,517.3999999999942,1351.6000000000058,1363.4000000357628,1.0,846.0000000357686,0.0,,Slider,Slider,4.0,object-56,temp_dist_trial,23.0,t_s_24_1,travel_shared,ear plugs,3.0,competing,paired,t_s_24_1.jpg,Travel,$${counterbalance_group},,sub-94
Desktop or Laptop,Windows 10,Chrome 138.0.0.0,1600x900,1600x773,Temporal Distance Task,cb_03,72.0,temp_dist_trial,num_items,zn7si1,1.0,response,2_ITEM,1186.000000023836,1184.6999999999825,1186.000000023836,1186.000000023836,1184.6999999999825,1186.000000023836,1.0,0.0,0.0,,Click Response,2_count,5.0,object-49,temp_dist_trial,24.0,t_s_03_1,travel_shared,portable charger,3.0,competing,paired,t_s_03_1.jpg,Travel,$${counterbalance_group},,sub-94
Desktop or Laptop,Windows 10,Chrome 138.0.0.0,1600x900,1600x773,Temporal Distance Task,cb_03,72.0,temp_dist_trial,dist_items,qkpkxw,2.0,info,,6.800000035756966,0.0,6.800000035756966,6.800000035756966,0.0,6.800000035756966,1.0,0.0,0.0,,Slider,Slider,4.0,object-56,temp_dist_trial,24.0,t_s_03_1,travel_shared,portable charger,3.0,competing,paired,t_s_03_1.jpg,Travel,$${counterbalance_group},,sub-94
Desktop or Laptop,Windows 10,Chrome 138.0.0.0,1600x900,1600x773,Temporal Distance Task,cb_03,72.0,temp_dist_trial,dist_items,qkpkxw,2.0,continue,,1471.2000000119147,1468.3999999999942,1471.2000000119147,1471.2000000119147,1468.3999999999942,1471.2000000119147,1.0,0.0,0.0,,Click To Continue,Next button,7.0,object-60,temp_dist_trial,24.0,t_s_03_1,travel_shared,portable charger,3.0,competing,paired,t_s_03_1.jpg,Travel,$${counterbalance_group},,sub-94
Desktop or Laptop,Windows 10,Chrome 138.0.0.0,1600x900,1600x773,Temporal Distance Task,cb_03,72.0,temp_dist_trial,dist_items,qkpkxw,2.0,response,64,500.69999999998254,1468.3999999999942,1484.999999999971,500.69999999998254,1468.3999999999942,1484.999999999971,1.0,984.2999999999884,0.0,,Slider,Slider,4.0,object-56,temp_dist_trial,24.0,t_s_03_1,travel_shared,portable charger,3.0,competing,paired,t_s_03_1.jpg,Travel,$${counterbalance_group},,sub-94
Desktop or Laptop,Windows 10,Chrome 138.0.0.0,1600x900,1600x773,Temporal Distance Task,cb_03,73.0,temp_dist_trial,num_items,zn7si1,1.0,response,1_ITEM,1767.3000000119214,1752.0999999999767,1767.3000000119214,1767.3000000119214,1752.0999999999767,1767.3000000119214,1.0,0.0,0.0,,Click Response,1_count,3.0,object-46,temp_dist_trial,25.0,t_s_07_1,travel_shared,phone charger cable,3.0,competing,single,t_s_07_1.jpg,Travel,$${counterbalance_group},,sub-94
Desktop or Laptop,Windows 10,Chrome 138.0.0.0,1600x900,1600x773,Temporal Distance Task,cb_03,74.0,temp_dist_trial,num_items,zn7si1,1.0,response,2_ITEM,1626.5000000357395,1618.5,1626.5000000357395,1626.5000000357395,1618.5,1626.5000000357395,1.0,0.0,0.0,,Click Response,2_count,5.0,object-49,temp_dist_trial,26.0,t_i_13_1,travel_Iceland,sleeping bag,3.0,unique,paired,t_i_13_1.jpg,Travel,$${counterbalance_group},,sub-94
Desktop or Laptop,Windows 10,Chrome 138.0.0.0,1600x900,1600x773,Temporal Distance Task,cb_03,74.0,temp_dist_trial,dist_items,qkpkxw,2.0,info,,10.500000023865141,0.0,10.500000023865141,10.500000023865141,0.0,10.500000023865141,1.0,0.0,0.0,,Slider,Slider,4.0,object-56,temp_dist_trial,26.0,t_i_13_1,travel_Iceland,sleeping bag,3.0,unique,paired,t_i_13_1.jpg,Travel,$${counterbalance_group},,sub-94
Desktop or Laptop,Windows 10,Chrome 138.0.0.0,1600x900,1600x773,Temporal Distance Task,cb_03,74.0,temp_dist_trial,dist_items,qkpkxw,2.0,continue,,1645.0999999881024,1635.3000000000463,1645.0999999881024,1645.0999999881024,1635.3000000000463,1645.0999999881024,1.0,0.0,0.0,,Click To Continue,Next button,7.0,object-60,temp_dist_trial,26.0,t_i_13_1,travel_Iceland,sleeping bag,3.0,unique,paired,t_i_13_1.jpg,Travel,$${counterbalance_group},,sub-94
Desktop or Laptop,Windows 10,Chrome 138.0.0.0,1600x900,1600x773,Temporal Distance Task,cb_03,74.0,temp_dist_trial,dist_items,qkpkxw,2.0,response,24,784.3000000000467,1635.3000000000463,1646.2000000119442,784.3000000000467,1635.3000000000463,1646.2000000119442,1.0,861.9000000118974,0.0,,Slider,Slider,4.0,object-56,temp_dist_trial,26.0,t_i_13_1,travel_Iceland,sleeping bag,3.0,unique,paired,t_i_13_1.jpg,Travel,$${counterbalance_group},,sub-94
Desktop or Laptop,Windows 10,Chrome 138.0.0.0,1600x900,1600x773,Temporal Distance Task,cb_03,75.0,temp_dist_trial,num_items,zn7si1,1.0,response,1_ITEM,2399.099999999977,2386.199999999953,2399.099999999977,2399.099999999977,2386.199999999953,2399.099999999977,1.0,0.0,0.0,,Click Response,1_count,3.0,object-46,temp_dist_trial,27.0,t_m_14_1,travel_Miami,swim goggles,3.0,unique,paired,t_m_14_1.jpg,Travel,$${counterbalance_group},,sub-94
Desktop or Laptop,Windows 10,Chrome 138.0.0.0,1600x900,1600x773,Temporal Distance Task,cb_03,76.0,temp_dist_trial,num_items,zn7si1,1.0,response,2_ITEM,1592.3000000238535,1585.1000000000354,1592.3000000238535,1592.3000000238535,1585.1000000000354,1592.3000000238535,1.0,0.0,0.0,,Click Response,2_count,5.0,object-49,temp_dist_trial,28.0,t_i_17_1,travel_Iceland,binoculars,3.0,unique,paired,t_i_17_1.jpg,Travel,$${counterbalance_group},,sub-94
Desktop or Laptop,Windows 10,Chrome 138.0.0.0,1600x900,1600x773,Temporal Distance Task,cb_03,76.0,temp_dist_trial,dist_items,qkpkxw,2.0,info,,6.400000023830216,0.0,6.400000023830216,6.400000023830216,0.0,6.400000023830216,1.0,0.0,0.0,,Slider,Slider,4.0,object-56,temp_dist_trial,28.0,t_i_17_1,travel_Iceland,binoculars,3.0,unique,paired,t_i_17_1.jpg,Travel,$${counterbalance_group},,sub-94
Desktop or Laptop,Windows 10,Chrome 138.0.0.0,1600x900,1600x773,Temporal Distance Task,cb_03,76.0,temp_dist_trial,dist_items,qkpkxw,2.0,continue,,1289.6000000119093,1285.0,1289.6000000119093,1289.6000000119093,1285.0,1289.6000000119093,1.0,0.0,0.0,,Click To Continue,Next button,7.0,object-60,temp_dist_trial,28.0,t_i_17_1,travel_Iceland,binoculars,3.0,unique,paired,t_i_17_1.jpg,Travel,$${counterbalance_group},,sub-94
Desktop or Laptop,Windows 10,Chrome 138.0.0.0,1600x900,1600x773,Temporal Distance Task,cb_03,76.0,temp_dist_trial,dist_items,qkpkxw,2.0,response,43,617.5,1285.0,1301.7000000000114,617.5,1285.0,1301.7000000000114,1.0,684.2000000000116,0.0,,Slider,Slider,4.0,object-56,temp_dist_trial,28.0,t_i_17_1,travel_Iceland,binoculars,3.0,unique,paired,t_i_17_1.jpg,Travel,$${counterbalance_group},,sub-94
Desktop or Laptop,Windows 10,Chrome 138.0.0.0,1600x900,1600x773,Temporal Distance Task,cb_03,77.0,temp_dist_trial,num_items,zn7si1,1.0,response,1_ITEM,1792.6000000119093,1785.2999999999884,1792.6000000119093,1792.6000000119093,1785.2999999999884,1792.6000000119093,1.0,0.0,0.0,,Click Response,1_count,3.0,object-46,temp_dist_trial,29.0,t_m_18_1,travel_Miami,waterproof tote,3.0,unique,single,t_m_18_1.jpg,Travel,$${counterbalance_group},,sub-94
Desktop or Laptop,Windows 10,Chrome 138.0.0.0,1600x900,1600x773,Temporal Distance Task,cb_03,78.0,temp_dist_trial,num_items,zn7si1,1.0,response,2_ITEM,1505.9000000118976,1501.6999999999537,1505.9000000118976,1505.9000000118976,1501.6999999999537,1505.9000000118976,1.0,0.0,0.0,,Click Response,2_count,5.0,object-49,temp_dist_trial,30.0,t_m_20_1,travel_Miami,inflatable beachball,3.0,unique,paired,t_m_20_1.jpg,Travel,$${counterbalance_group},,sub-94
Desktop or Laptop,Windows 10,Chrome 138.0.0.0,1600x900,1600x773,Temporal Distance Task,cb_03,78.0,temp_dist_trial,dist_items,qkpkxw,2.0,info,,14.700000000011642,0.0,14.700000000011642,14.700000000011642,0.0,14.700000000011642,1.0,0.0,0.0,,Slider,Slider,4.0,object-56,temp_dist_trial,30.0,t_m_20_1,travel_Miami,inflatable beachball,3.0,unique,paired,t_m_20_1.jpg,Travel,$${counterbalance_group},,sub-94
Desktop or Laptop,Windows 10,Chrome 138.0.0.0,1600x900,1600x773,Temporal Distance Task,cb_03,78.0,temp_dist_trial,dist_items,qkpkxw,2.0,continue,,1229.3000000238535,1218.100000000035,1229.3000000238535,1229.3000000238535,1218.100000000035,1229.3000000238535,1.0,0.0,0.0,,Click To Continue,Next button,7.0,object-60,temp_dist_trial,30.0,t_m_20_1,travel_Miami,inflatable beachball,3.0,unique,paired,t_m_20_1.jpg,Travel,$${counterbalance_group},,sub-94
Desktop or Laptop,Windows 10,Chrome 138.0.0.0,1600x900,1600x773,Temporal Distance Task,cb_03,78.0,temp_dist_trial,dist_items,qkpkxw,2.0,response,72,500.7000000000117,1218.100000000035,1230.0000000119326,500.7000000000117,1218.100000000035,1230.0000000119326,1.0,729.3000000119209,0.0,,Slider,Slider,4.0,object-56,temp_dist_trial,30.0,t_m_20_1,travel_Miami,inflatable beachball,3.0,unique,paired,t_m_20_1.jpg,Travel,$${counterbalance_group},,sub-94
Desktop or Laptop,Windows 10,Chrome 138.0.0.0,1600x900,1600x773,Temporal Distance Task,cb_03,79.0,temp_dist_trial,num_items,zn7si1,1.0,response,1_ITEM,1530.2999999880558,1518.5,1530.2999999880558,1530.2999999880558,1518.5,1530.2999999880558,1.0,0.0,0.0,,Click Response,1_count,3.0,object-46,temp_dist_trial,31.0,t_s_05_1,travel_shared,neck pillow,3.0,competing,single,t_s_05_1.jpg,Travel,$${counterbalance_group},,sub-94
Desktop or Laptop,Windows 10,Chrome 138.0.0.0,1600x900,1600x773,Temporal Distance Task,cb_03,80.0,temp_dist_trial,num_items,zn7si1,1.0,response,1_ITEM,1528.2000000119442,1518.5,1528.2000000119442,1528.2000000119442,1518.5,1528.2000000119442,1.0,0.0,0.0,,Click Response,1_count,3.0,object-46,temp_dist_trial,32.0,t_m_19_1,travel_Miami,surfboard,3.0,unique,single,t_m_19_1.jpg,Travel,$${counterbalance_group},,sub-94
Desktop or Laptop,Windows 10,Chrome 138.0.0.0,1600x900,1600x773,Temporal Distance Task,cb_03,81.0,temp_dist_trial,num_items,zn7si1,1.0,response,1_ITEM,1038.2000000238186,1034.5,1038.2000000238186,1038.2000000238186,1034.5,1038.2000000238186,1.0,0.0,0.0,,Click Response,1_count,3.0,object-46,temp_dist_trial,33.0,t_i_20_1,travel_Iceland,lantern,3.0,unique,single,t_i_20_1.jpg,Travel,$${counterbalance_group},,sub-94
Desktop or Laptop,Windows 10,Chrome 138.0.0.0,1600x900,1600x773,Temporal Distance Task,cb_03,82.0,temp_dist_trial,num_items,zn7si1,1.0,response,2_ITEM,1251.3000000000466,1234.600000000035,1251.3000000000466,1251.3000000000466,1234.600000000035,1251.3000000000466,1.0,0.0,0.0,,Click Response,2_count,5.0,object-49,temp_dist_trial,34.0,t_s_21_1,travel_shared,umbrella,3.0,competing,paired,t_s_21_1.jpg,Travel,$${counterbalance_group},,sub-94
Desktop or Laptop,Windows 10,Chrome 138.0.0.0,1600x900,1600x773,Temporal Distance Task,cb_03,82.0,temp_dist_trial,dist_items,qkpkxw,2.0,info,,8.799999999988357,0.0,8.799999999988357,8.799999999988357,0.0,8.799999999988357,1.0,0.0,0.0,,Slider,Slider,4.0,object-56,temp_dist_trial,34.0,t_s_21_1,travel_shared,umbrella,3.0,competing,paired,t_s_21_1.jpg,Travel,$${counterbalance_group},,sub-94
Desktop or Laptop,Windows 10,Chrome 138.0.0.0,1600x900,1600x773,Temporal Distance Task,cb_03,82.0,temp_dist_trial,dist_items,qkpkxw,2.0,continue,,2300.200000035751,2286.099999999977,2300.200000035751,2300.200000035751,2286.099999999977,2300.200000035751,1.0,0.0,0.0,,Click To Continue,Next button,7.0,object-60,temp_dist_trial,34.0,t_s_21_1,travel_shared,umbrella,3.0,competing,paired,t_s_21_1.jpg,Travel,$${counterbalance_group},,sub-94
Desktop or Laptop,Windows 10,Chrome 138.0.0.0,1600x900,1600x773,Temporal Distance Task,cb_03,82.0,temp_dist_trial,dist_items,qkpkxw,2.0,response,25,584.0999999999767,2286.099999999977,2300.600000011909,584.0999999999767,2286.099999999977,2300.600000011909,1.0,1716.5000000119323,0.0,,Slider,Slider,4.0,object-56,temp_dist_trial,34.0,t_s_21_1,travel_shared,umbrella,3.0,competing,paired,t_s_21_1.jpg,Travel,$${counterbalance_group},,sub-94
Desktop or Laptop,Windows 10,Chrome 138.0.0.0,1600x900,1600x773,Temporal Distance Task,cb_03,83.0,temp_dist_trial,num_items,zn7si1,1.0,response,2_ITEM,1681.2000000000116,1668.5,1681.2000000000116,1681.2000000000116,1668.5,1681.2000000000116,1.0,0.0,0.0,,Click Response,2_count,5.0,object-49,temp_dist_trial,35.0,t_i_03_1,travel_Iceland,winter jacket,3.0,unique,paired,t_i_03_1.jpg,Travel,$${counterbalance_group},,sub-94
Desktop or Laptop,Windows 10,Chrome 138.0.0.0,1600x900,1600x773,Temporal Distance Task,cb_03,83.0,temp_dist_trial,dist_items,qkpkxw,2.0,info,,16.700000000011638,0.0,16.700000000011638,16.700000000011638,0.0,16.700000000011638,1.0,0.0,0.0,,Slider,Slider,4.0,object-56,temp_dist_trial,35.0,t_i_03_1,travel_Iceland,winter jacket,3.0,unique,paired,t_i_03_1.jpg,Travel,$${counterbalance_group},,sub-94
Desktop or Laptop,Windows 10,Chrome 138.0.0.0,1600x900,1600x773,Temporal Distance Task,cb_03,83.0,temp_dist_trial,dist_items,qkpkxw,2.0,continue,,1595.7999999999884,1585.0999999999767,1595.7999999999884,1595.7999999999884,1585.0999999999767,1595.7999999999884,1.0,0.0,0.0,,Click To Continue,Next button,7.0,object-60,temp_dist_trial,35.0,t_i_03_1,travel_Iceland,winter jacket,3.0,unique,paired,t_i_03_1.jpg,Travel,$${counterbalance_group},,sub-94
Desktop or Laptop,Windows 10,Chrome 138.0.0.0,1600x900,1600x773,Temporal Distance Task,cb_03,83.0,temp_dist_trial,dist_items,qkpkxw,2.0,response,20,684.2000000000116,1585.0999999999767,1596.9999999880677,684.2000000000116,1585.0999999999767,1596.9999999880677,1.0,912.7999999880556,0.0,,Slider,Slider,4.0,object-56,temp_dist_trial,35.0,t_i_03_1,travel_Iceland,winter jacket,3.0,unique,paired,t_i_03_1.jpg,Travel,$${counterbalance_group},,sub-94
Desktop or Laptop,Windows 10,Chrome 138.0.0.0,1600x900,1600x773,Temporal Distance Task,cb_03,84.0,temp_dist_trial,num_items,zn7si1,1.0,response,2_ITEM,1900.1000000357744,1885.5,1900.1000000357744,1900.1000000357744,1885.5,1900.1000000357744,1.0,0.0,0.0,,Click Response,2_count,5.0,object-49,temp_dist_trial,36.0,t_m_12_1,travel_Miami,foldable pail and shovel,3.0,unique,paired,t_m_12_1.jpg,Travel,$${counterbalance_group},,sub-94
Desktop or Laptop,Windows 10,Chrome 138.0.0.0,1600x900,1600x773,Temporal Distance Task,cb_03,84.0,temp_dist_trial,dist_items,qkpkxw,2.0,info,,11.300000035786073,0.0,11.300000035786073,11.300000035786073,0.0,11.300000035786073,1.0,0.0,0.0,,Slider,Slider,4.0,object-56,temp_dist_trial,36.0,t_m_12_1,travel_Miami,foldable pail and shovel,3.0,unique,paired,t_m_12_1.jpg,Travel,$${counterbalance_group},,sub-94
Desktop or Laptop,Windows 10,Chrome 138.0.0.0,1600x900,1600x773,Temporal Distance Task,cb_03,84.0,temp_dist_trial,dist_items,qkpkxw,2.0,continue,,1609.9000000000233,1601.9000000000233,1609.9000000000233,1609.9000000000233,1601.9000000000233,1609.9000000000233,1.0,0.0,0.0,,Click To Continue,Next button,7.0,object-60,temp_dist_trial,36.0,t_m_12_1,travel_Miami,foldable pail and shovel,3.0,unique,paired,t_m_12_1.jpg,Travel,$${counterbalance_group},,sub-94
Desktop or Laptop,Windows 10,Chrome 138.0.0.0,1600x900,1600x773,Temporal Distance Task,cb_03,84.0,temp_dist_trial,dist_items,qkpkxw,2.0,response,65,767.7000000000116,1601.9000000000233,1612.5000000238654,767.7000000000116,1601.9000000000233,1612.5000000238654,1.0,844.8000000238535,0.0,,Slider,Slider,4.0,object-56,temp_dist_trial,36.0,t_m_12_1,travel_Miami,foldable pail and shovel,3.0,unique,paired,t_m_12_1.jpg,Travel,$${counterbalance_group},,sub-94
Desktop or Laptop,Windows 10,Chrome 138.0.0.0,1600x900,1600x773,Temporal Distance Task,cb_03,85.0,temp_dist_trial,num_items,zn7si1,1.0,response,1_ITEM,1065.0,1051.5999999999767,1065.0,1065.0,1051.5999999999767,1065.0,1.0,0.0,0.0,,Click Response,1_count,3.0,object-46,temp_dist_trial,37.0,t_i_10_1,travel_Iceland,trekking poles,3.0,unique,single,t_i_10_1.jpg,Travel,$${counterbalance_group},,sub-94
Desktop or Laptop,Windows 10,Chrome 138.0.0.0,1600x900,1600x773,Temporal Distance Task,cb_03,86.0,temp_dist_trial,num_items,zn7si1,1.0,response,1_ITEM,1526.7000000119442,1518.4000000000233,1526.7000000119442,1526.7000000119442,1518.4000000000233,1526.7000000119442,1.0,0.0,0.0,,Click Response,1_count,3.0,object-46,temp_dist_trial,38.0,t_s_10_1,travel_shared,luggage lock,3.0,competing,paired,t_s_10_1.jpg,Travel,$${counterbalance_group},,sub-94
