Participant Device,Participant OS,Participant Browser,Participant Monitor Size,Participant Viewport Size,Task Name,Current Spreadsheet,Trial Number,Display,Screen,Screen ID,Screen Counter,Response Type,Response,Onset Time,Clock Time,Reaction Time,Absolute Onset Time,Absolute Clock Time,Absolute Reaction Time,Correct,Response Duration,Proportion,Tag,Component Name,Object Name,Object Number,Object ID,Spreadsheet: display,Spreadsheet: trial,Spreadsheet: stimulus_id,Spreadsheet: expected_goal,Spreadsheet: stimulus_name,Spreadsheet: c_group,Spreadsheet: condition,Spreadsheet: paired_status,Spreadsheet: stimulus_path,Spreadsheet: block_type,Manipulation: Spreadsheet,Store: enc_test_acc,sub_label
Desktop or Laptop,Windows 10,Chrome 138.0.0.0,2560x1440,2560x1440,Temporal Distance Task,$${counterbalance_group},,,,,,info,BEGIN,,,,,,,0.0,,,,,,,,,,,,,,,,,,,,sub-14
Desktop or Laptop,Windows 10,Chrome 138.0.0.0,2560x1440,2560x1440,Temporal Distance Task,cb_10,1.0,temp_instructions,intro_screen,3tnme7,1.0,continue,,7475.100000023842,7472.799999999997,7475.100000023842,7475.100000023842,7472.799999999997,7475.100000023842,1.0,0.0,0.0,,Click To Continue,Continue Button,4.0,object-29,temp_instructions,,,Travel,,,,,,,,,sub-14
Desktop or Laptop,Windows 10,Chrome 138.0.0.0,2560x1440,2560x1440,Temporal Distance Task,cb_10,1.0,temp_instructions,intro_screen_2,52v7ur,2.0,continue,,67716.30000002384,67706.3,67716.30000002384,67716.30000002384,67706.3,67716.30000002384,1.0,0.0,0.0,,Click To Continue,Continue Button,4.0,object-39,temp_instructions,,,Travel,,,,,,,,,sub-14
Desktop or Laptop,Windows 10,Chrome 138.0.0.0,2560x1440,2560x1440,Temporal Distance Task,cb_10,1.0,temp_instructions,intro_screen_3,i7lvwx,3.0,continue,,12532.500000023836,12526.099999999993,12532.500000023836,12532.500000023836,12526.099999999993,12532.500000023836,1.0,0.0,0.0,,Click To Continue,Continue Button,4.0,object-67,temp_instructions,,,Travel,,,,,,,,,sub-14
Desktop or Laptop,Windows 10,Chrome 138.0.0.0,2560x1440,2560x1440,Temporal Distance Task,cb_10,1.0,temp_instructions,test_q1,5ieqx1,4.0,response,choice_3,10719.900000023845,10708.800000000003,10719.900000023845,10719.900000023845,10708.800000000003,10719.900000023845,1.0,0.0,0.0,,Click Response,choice_3,5.0,object-345,temp_instructions,,,Travel,,,,,,,,,sub-14
Desktop or Laptop,Windows 10,Chrome 138.0.0.0,2560x1440,2560x1440,Temporal Distance Task,cb_10,1.0,temp_instructions,score_corr,7ilvjr,5.0,continue,,1162.7000000476835,1150.8999999999942,1162.7000000476835,1162.7000000476835,1150.8999999999942,1162.7000000476835,1.0,0.0,0.0,,Click To Continue,Continue Button,3.0,object-23,temp_instructions,,,Travel,,,,,,,,,sub-14
Desktop or Laptop,Windows 10,Chrome 138.0.0.0,2560x1440,2560x1440,Temporal Distance Task,cb_10,1.0,temp_eventStart,Screen 1,dgtyxe,1.0,continue,,15807.500000095371,15796.300000000005,15807.500000095371,15807.500000095371,15796.300000000005,15807.500000095371,1.0,0.0,0.0,,Click To Continue,Next Button,3.0,object-43,temp_eventStart,,,Travel,,,,,,,,,sub-14
Desktop or Laptop,Windows 10,Chrome 138.0.0.0,2560x1440,2560x1440,Temporal Distance Task,cb_10,1.0,temp_dist_trial,num_items,zn7si1,1.0,response,num_miss,3002.400000000009,3002.400000000009,3002.400000000009,3002.400000000009,3002.400000000009,3002.400000000009,1.0,0.0,0.0,num_miss_tag,Time Limit,screen,0.0,screen,temp_dist_trial,1.0,t_m_13_1,travel_Miami,floatie,10.0,unique,single,t_m_13_1.jpg,Travel,,,sub-14
Desktop or Laptop,Windows 10,Chrome 138.0.0.0,2560x1440,2560x1440,Temporal Distance Task,cb_10,2.0,temp_dist_trial,num_items,zn7si1,1.0,response,2_ITEM,2096.1000000715285,2085.0,2096.1000000715285,2096.1000000715285,2085.0,2096.1000000715285,1.0,0.0,0.0,,Click Response,2_count,5.0,object-49,temp_dist_trial,2.0,t_i_16_1,travel_Iceland,skis,10.0,unique,paired,t_i_16_1.jpg,Travel,,,sub-14
Desktop or Laptop,Windows 10,Chrome 138.0.0.0,2560x1440,2560x1440,Temporal Distance Task,cb_10,2.0,temp_dist_trial,dist_items,qkpkxw,2.0,info,,2.700000047683716,0.0,2.700000047683716,2.700000047683716,0.0,2.700000047683716,1.0,0.0,0.0,,Slider,Slider,4.0,object-56,temp_dist_trial,2.0,t_i_16_1,travel_Iceland,skis,10.0,unique,paired,t_i_16_1.jpg,Travel,,,sub-14
Desktop or Laptop,Windows 10,Chrome 138.0.0.0,2560x1440,2560x1440,Temporal Distance Task,cb_10,2.0,temp_dist_trial,dist_items,qkpkxw,2.0,continue,,6174.100000023842,6171.600000000006,6174.100000023842,6174.100000023842,6171.600000000006,6174.100000023842,1.0,0.0,0.0,,Click To Continue,Next button,7.0,object-60,temp_dist_trial,2.0,t_i_16_1,travel_Iceland,skis,10.0,unique,paired,t_i_16_1.jpg,Travel,,,sub-14
Desktop or Laptop,Windows 10,Chrome 138.0.0.0,2560x1440,2560x1440,Temporal Distance Task,cb_10,2.0,temp_dist_trial,dist_items,qkpkxw,2.0,response,58,1734.6999999999966,6171.600000000006,6175.400000095367,1734.6999999999966,6171.600000000006,6175.400000095367,1.0,4440.70000009537,0.0,,Slider,Slider,4.0,object-56,temp_dist_trial,2.0,t_i_16_1,travel_Iceland,skis,10.0,unique,paired,t_i_16_1.jpg,Travel,,,sub-14
Desktop or Laptop,Windows 10,Chrome 138.0.0.0,2560x1440,2560x1440,Temporal Distance Task,cb_10,3.0,temp_dist_trial,num_items,zn7si1,1.0,response,2_ITEM,1561.2000000715198,1551.2999999999884,1561.2000000715198,1561.2000000715198,1551.2999999999884,1561.2000000715198,1.0,0.0,0.0,,Click Response,2_count,5.0,object-49,temp_dist_trial,3.0,t_i_06_1,travel_Iceland,knit hat,10.0,unique,single,t_i_06_1.jpg,Travel,,,sub-14
Desktop or Laptop,Windows 10,Chrome 138.0.0.0,2560x1440,2560x1440,Temporal Distance Task,cb_10,3.0,temp_dist_trial,dist_items,qkpkxw,2.0,info,,2.3999999999941792,0.0,2.3999999999941792,2.3999999999941792,0.0,2.3999999999941792,1.0,0.0,0.0,,Slider,Slider,4.0,object-56,temp_dist_trial,3.0,t_i_06_1,travel_Iceland,knit hat,10.0,unique,single,t_i_06_1.jpg,Travel,,,sub-14
Desktop or Laptop,Windows 10,Chrome 138.0.0.0,2560x1440,2560x1440,Temporal Distance Task,cb_10,3.0,temp_dist_trial,dist_items,qkpkxw,2.0,continue,,3445.1000000476783,3436.199999999982,3445.1000000476783,3445.1000000476783,3436.199999999982,3445.1000000476783,1.0,0.0,0.0,,Click To Continue,Next button,7.0,object-60,temp_dist_trial,3.0,t_i_06_1,travel_Iceland,knit hat,10.0,unique,single,t_i_06_1.jpg,Travel,,,sub-14
Desktop or Laptop,Windows 10,Chrome 138.0.0.0,2560x1440,2560x1440,Temporal Distance Task,cb_10,3.0,temp_dist_trial,dist_items,qkpkxw,2.0,response,44,2035.0,3436.199999999982,3445.500000023836,2035.0,3436.199999999982,3445.500000023836,1.0,1410.500000023836,0.0,,Slider,Slider,4.0,object-56,temp_dist_trial,3.0,t_i_06_1,travel_Iceland,knit hat,10.0,unique,single,t_i_06_1.jpg,Travel,,,sub-14
Desktop or Laptop,Windows 10,Chrome 138.0.0.0,2560x1440,2560x1440,Temporal Distance Task,cb_10,4.0,temp_dist_trial,num_items,zn7si1,1.0,response,1_ITEM,1405.4000000476956,1401.1000000000058,1405.4000000476956,1405.4000000476956,1401.1000000000058,1405.4000000476956,1.0,0.0,0.0,,Click Response,1_count,3.0,object-46,temp_dist_trial,4.0,t_s_04_1,travel_shared,instant camera,10.0,competing,single,t_s_04_1.jpg,Travel,,,sub-14
Desktop or Laptop,Windows 10,Chrome 138.0.0.0,2560x1440,2560x1440,Temporal Distance Task,cb_10,5.0,temp_dist_trial,num_items,zn7si1,1.0,response,1_ITEM,1547.100000071514,1534.5,1547.100000071514,1547.100000071514,1534.5,1547.100000071514,1.0,0.0,0.0,,Click Response,1_count,3.0,object-46,temp_dist_trial,5.0,t_i_12_1,travel_Iceland,tent,10.0,unique,single,t_i_12_1.jpg,Travel,,,sub-14
Desktop or Laptop,Windows 10,Chrome 138.0.0.0,2560x1440,2560x1440,Temporal Distance Task,cb_10,6.0,temp_dist_trial,num_items,zn7si1,1.0,response,1_ITEM,1519.2000000238475,1518.0,1519.2000000238475,1519.2000000238475,1518.0,1519.2000000238475,1.0,0.0,0.0,,Click Response,1_count,3.0,object-46,temp_dist_trial,6.0,t_m_11_1,travel_Miami,collapsible beach chair,10.0,unique,single,t_m_11_1.jpg,Travel,,,sub-14
Desktop or Laptop,Windows 10,Chrome 138.0.0.0,2560x1440,2560x1440,Temporal Distance Task,cb_10,7.0,temp_dist_trial,num_items,zn7si1,1.0,response,1_ITEM,1723.3000000715256,1718.0,1723.3000000715256,1723.3000000715256,1718.0,1723.3000000715256,1.0,0.0,0.0,,Click Response,1_count,3.0,object-46,temp_dist_trial,7.0,t_i_10_1,travel_Iceland,trekking poles,10.0,unique,paired,t_i_10_1.jpg,Travel,,,sub-14
Desktop or Laptop,Windows 10,Chrome 138.0.0.0,2560x1440,2560x1440,Temporal Distance Task,cb_10,8.0,temp_dist_trial,num_items,zn7si1,1.0,response,2_ITEM,1010.5000000715373,1000.8000000000177,1010.5000000715373,1010.5000000715373,1000.8000000000177,1010.5000000715373,1.0,0.0,0.0,,Click Response,2_count,5.0,object-49,temp_dist_trial,8.0,t_s_17_1,travel_shared,toothbrush,10.0,competing,paired,t_s_17_1.jpg,Travel,,,sub-14
Desktop or Laptop,Windows 10,Chrome 138.0.0.0,2560x1440,2560x1440,Temporal Distance Task,cb_10,8.0,temp_dist_trial,dist_items,qkpkxw,2.0,info,,2.500000071537216,0.0,2.500000071537216,2.500000071537216,0.0,2.500000071537216,1.0,0.0,0.0,,Slider,Slider,4.0,object-56,temp_dist_trial,8.0,t_s_17_1,travel_shared,toothbrush,10.0,competing,paired,t_s_17_1.jpg,Travel,,,sub-14
Desktop or Laptop,Windows 10,Chrome 138.0.0.0,2560x1440,2560x1440,Temporal Distance Task,cb_10,8.0,temp_dist_trial,dist_items,qkpkxw,2.0,continue,,2696.600000095379,2685.6000000000063,2696.600000095379,2696.600000095379,2685.6000000000063,2696.600000095379,1.0,0.0,0.0,,Click To Continue,Next button,7.0,object-60,temp_dist_trial,8.0,t_s_17_1,travel_shared,toothbrush,10.0,competing,paired,t_s_17_1.jpg,Travel,,,sub-14
Desktop or Laptop,Windows 10,Chrome 138.0.0.0,2560x1440,2560x1440,Temporal Distance Task,cb_10,8.0,temp_dist_trial,dist_items,qkpkxw,2.0,response,88,1284.4000000000233,2685.6000000000063,2696.900000047696,1284.4000000000233,2685.6000000000063,2696.900000047696,1.0,1412.500000047672,0.0,,Slider,Slider,4.0,object-56,temp_dist_trial,8.0,t_s_17_1,travel_shared,toothbrush,10.0,competing,paired,t_s_17_1.jpg,Travel,,,sub-14
Desktop or Laptop,Windows 10,Chrome 138.0.0.0,2560x1440,2560x1440,Temporal Distance Task,cb_10,9.0,temp_dist_trial,num_items,zn7si1,1.0,response,2_ITEM,1215.3000000476895,1200.8999999999942,1215.3000000476895,1215.3000000476895,1200.8999999999942,1215.3000000476895,1.0,0.0,0.0,,Click Response,2_count,5.0,object-49,temp_dist_trial,9.0,t_m_15_1,travel_Miami,shorts,10.0,unique,paired,t_m_15_1.jpg,Travel,,,sub-14
Desktop or Laptop,Windows 10,Chrome 138.0.0.0,2560x1440,2560x1440,Temporal Distance Task,cb_10,9.0,temp_dist_trial,dist_items,qkpkxw,2.0,info,,2.200000071519753,0.0,2.200000071519753,2.200000071519753,0.0,2.200000071519753,1.0,0.0,0.0,,Slider,Slider,4.0,object-56,temp_dist_trial,9.0,t_m_15_1,travel_Miami,shorts,10.0,unique,paired,t_m_15_1.jpg,Travel,,,sub-14
Desktop or Laptop,Windows 10,Chrome 138.0.0.0,2560x1440,2560x1440,Temporal Distance Task,cb_10,9.0,temp_dist_trial,dist_items,qkpkxw,2.0,continue,,2207.100000047678,2201.7999999999884,2207.100000047678,2207.100000047678,2201.7999999999884,2207.100000047678,1.0,0.0,0.0,,Click To Continue,Next button,7.0,object-60,temp_dist_trial,9.0,t_m_15_1,travel_Miami,shorts,10.0,unique,paired,t_m_15_1.jpg,Travel,,,sub-14
Desktop or Laptop,Windows 10,Chrome 138.0.0.0,2560x1440,2560x1440,Temporal Distance Task,cb_10,9.0,temp_dist_trial,dist_items,qkpkxw,2.0,response,63,1217.6000000000058,2201.7999999999884,2207.500000023836,1217.6000000000058,2201.7999999999884,2207.500000023836,1.0,989.9000000238302,0.0,,Slider,Slider,4.0,object-56,temp_dist_trial,9.0,t_m_15_1,travel_Miami,shorts,10.0,unique,paired,t_m_15_1.jpg,Travel,,,sub-14
Desktop or Laptop,Windows 10,Chrome 138.0.0.0,2560x1440,2560x1440,Temporal Distance Task,cb_10,10.0,temp_dist_trial,num_items,zn7si1,1.0,response,2_ITEM,1365.9000000715316,1351.0,1365.9000000715316,1365.9000000715316,1351.0,1365.9000000715316,1.0,0.0,0.0,,Click Response,2_count,5.0,object-49,temp_dist_trial,10.0,t_m_18_1,travel_Miami,waterproof tote,10.0,unique,paired,t_m_18_1.jpg,Travel,,,sub-14
Desktop or Laptop,Windows 10,Chrome 138.0.0.0,2560x1440,2560x1440,Temporal Distance Task,cb_10,10.0,temp_dist_trial,dist_items,qkpkxw,2.0,info,,2.3999999999941792,0.0,2.3999999999941792,2.3999999999941792,0.0,2.3999999999941792,1.0,0.0,0.0,,Slider,Slider,4.0,object-56,temp_dist_trial,10.0,t_m_18_1,travel_Miami,waterproof tote,10.0,unique,paired,t_m_18_1.jpg,Travel,,,sub-14
Desktop or Laptop,Windows 10,Chrome 138.0.0.0,2560x1440,2560x1440,Temporal Distance Task,cb_10,10.0,temp_dist_trial,dist_items,qkpkxw,2.0,continue,,1950.3999999999944,1935.0,1950.3999999999944,1950.3999999999944,1935.0,1950.3999999999944,1.0,0.0,0.0,,Click To Continue,Next button,7.0,object-60,temp_dist_trial,10.0,t_m_18_1,travel_Miami,waterproof tote,10.0,unique,paired,t_m_18_1.jpg,Travel,,,sub-14
Desktop or Laptop,Windows 10,Chrome 138.0.0.0,2560x1440,2560x1440,Temporal Distance Task,cb_10,10.0,temp_dist_trial,dist_items,qkpkxw,2.0,response,30,750.6999999999823,1935.0,1950.600000047678,750.6999999999823,1935.0,1950.600000047678,1.0,1199.9000000476954,0.0,,Slider,Slider,4.0,object-56,temp_dist_trial,10.0,t_m_18_1,travel_Miami,waterproof tote,10.0,unique,paired,t_m_18_1.jpg,Travel,,,sub-14
Desktop or Laptop,Windows 10,Chrome 138.0.0.0,2560x1440,2560x1440,Temporal Distance Task,cb_10,11.0,temp_dist_trial,num_items,zn7si1,1.0,response,1_ITEM,1065.000000023836,1050.7999999999884,1065.000000023836,1065.000000023836,1050.7999999999884,1065.000000023836,1.0,0.0,0.0,,Click Response,1_count,3.0,object-46,temp_dist_trial,11.0,t_s_24_1,travel_shared,ear plugs,10.0,competing,single,t_s_24_1.jpg,Travel,,,sub-14
Desktop or Laptop,Windows 10,Chrome 138.0.0.0,2560x1440,2560x1440,Temporal Distance Task,cb_10,12.0,temp_dist_trial,num_items,zn7si1,1.0,response,2_ITEM,1389.500000047672,1384.3999999999942,1389.500000047672,1389.500000047672,1384.3999999999942,1389.500000047672,1.0,0.0,0.0,,Click Response,2_count,5.0,object-49,temp_dist_trial,12.0,t_s_12_1,travel_shared,clear toiletry bag,10.0,competing,paired,t_s_12_1.jpg,Travel,,,sub-14
Desktop or Laptop,Windows 10,Chrome 138.0.0.0,2560x1440,2560x1440,Temporal Distance Task,cb_10,12.0,temp_dist_trial,dist_items,qkpkxw,2.0,info,,2.4000000476953574,0.0,2.4000000476953574,2.4000000476953574,0.0,2.4000000476953574,1.0,0.0,0.0,,Slider,Slider,4.0,object-56,temp_dist_trial,12.0,t_s_12_1,travel_shared,clear toiletry bag,10.0,competing,paired,t_s_12_1.jpg,Travel,,,sub-14
Desktop or Laptop,Windows 10,Chrome 138.0.0.0,2560x1440,2560x1440,Temporal Distance Task,cb_10,12.0,temp_dist_trial,dist_items,qkpkxw,2.0,continue,,2089.0000000715368,2085.0,2089.0000000715368,2089.0000000715368,2085.0,2089.0000000715368,1.0,0.0,0.0,,Click To Continue,Next button,7.0,object-60,temp_dist_trial,12.0,t_s_12_1,travel_shared,clear toiletry bag,10.0,competing,paired,t_s_12_1.jpg,Travel,,,sub-14
Desktop or Laptop,Windows 10,Chrome 138.0.0.0,2560x1440,2560x1440,Temporal Distance Task,cb_10,12.0,temp_dist_trial,dist_items,qkpkxw,2.0,response,36,633.9000000000233,2085.0,2089.200000000012,633.9000000000233,2085.0,2089.200000000012,1.0,1455.2999999999884,0.0,,Slider,Slider,4.0,object-56,temp_dist_trial,12.0,t_s_12_1,travel_shared,clear toiletry bag,10.0,competing,paired,t_s_12_1.jpg,Travel,,,sub-14
Desktop or Laptop,Windows 10,Chrome 138.0.0.0,2560x1440,2560x1440,Temporal Distance Task,cb_10,13.0,temp_dist_trial,num_items,zn7si1,1.0,response,2_ITEM,2458.900000047696,2452.0,2458.900000047696,2458.900000047696,2452.0,2458.900000047696,1.0,0.0,0.0,,Click Response,2_count,5.0,object-49,temp_dist_trial,13.0,t_i_14_1,travel_Iceland,snow pants,10.0,unique,paired,t_i_14_1.jpg,Travel,,,sub-14
Desktop or Laptop,Windows 10,Chrome 138.0.0.0,2560x1440,2560x1440,Temporal Distance Task,cb_10,13.0,temp_dist_trial,dist_items,qkpkxw,2.0,info,,2.3999999999941792,0.0,2.3999999999941792,2.3999999999941792,0.0,2.3999999999941792,1.0,0.0,0.0,,Slider,Slider,4.0,object-56,temp_dist_trial,13.0,t_i_14_1,travel_Iceland,snow pants,10.0,unique,paired,t_i_14_1.jpg,Travel,,,sub-14
Desktop or Laptop,Windows 10,Chrome 138.0.0.0,2560x1440,2560x1440,Temporal Distance Task,cb_10,13.0,temp_dist_trial,dist_items,qkpkxw,2.0,continue,,1942.3999999999944,1934.8999999999944,1942.3999999999944,1942.3999999999944,1934.8999999999944,1942.3999999999944,1.0,0.0,0.0,,Click To Continue,Next button,7.0,object-60,temp_dist_trial,13.0,t_i_14_1,travel_Iceland,snow pants,10.0,unique,paired,t_i_14_1.jpg,Travel,,,sub-14
Desktop or Laptop,Windows 10,Chrome 138.0.0.0,2560x1440,2560x1440,Temporal Distance Task,cb_10,13.0,temp_dist_trial,dist_items,qkpkxw,2.0,response,37,783.8999999999942,1934.8999999999944,1944.8999999999944,783.8999999999942,1934.8999999999944,1944.8999999999944,1.0,1161.0,0.0,,Slider,Slider,4.0,object-56,temp_dist_trial,13.0,t_i_14_1,travel_Iceland,snow pants,10.0,unique,paired,t_i_14_1.jpg,Travel,,,sub-14
Desktop or Laptop,Windows 10,Chrome 138.0.0.0,2560x1440,2560x1440,Temporal Distance Task,cb_10,14.0,temp_dist_trial,num_items,zn7si1,1.0,response,num_miss,3002.5,3002.5,3002.5,3002.5,3002.5,3002.5,1.0,0.0,0.0,num_miss_tag,Time Limit,screen,0.0,screen,temp_dist_trial,14.0,t_s_19_1,travel_shared,pajamas,10.0,competing,single,t_s_19_1.jpg,Travel,,,sub-14
Desktop or Laptop,Windows 10,Chrome 138.0.0.0,2560x1440,2560x1440,Temporal Distance Task,cb_10,15.0,temp_dist_trial,num_items,zn7si1,1.0,response,1_ITEM,353.80000007152563,350.2999999999884,353.80000007152563,353.80000007152563,350.2999999999884,353.80000007152563,1.0,0.0,0.0,,Click Response,1_count,3.0,object-46,temp_dist_trial,15.0,t_s_21_1,travel_shared,umbrella,10.0,competing,paired,t_s_21_1.jpg,Travel,,,sub-14
Desktop or Laptop,Windows 10,Chrome 138.0.0.0,2560x1440,2560x1440,Temporal Distance Task,cb_10,16.0,temp_dist_trial,num_items,zn7si1,1.0,response,2_ITEM,1731.4000000953674,1718.0,1731.4000000953674,1731.4000000953674,1718.0,1731.4000000953674,1.0,0.0,0.0,,Click Response,2_count,5.0,object-49,temp_dist_trial,16.0,t_i_04_1,travel_Iceland,portable camping stove,10.0,unique,paired,t_i_04_1.jpg,Travel,,,sub-14
Desktop or Laptop,Windows 10,Chrome 138.0.0.0,2560x1440,2560x1440,Temporal Distance Task,cb_10,16.0,temp_dist_trial,dist_items,qkpkxw,2.0,info,,2.600000095379073,0.0,2.600000095379073,2.600000095379073,0.0,2.600000095379073,1.0,0.0,0.0,,Slider,Slider,4.0,object-56,temp_dist_trial,16.0,t_i_04_1,travel_Iceland,portable camping stove,10.0,unique,paired,t_i_04_1.jpg,Travel,,,sub-14
Desktop or Laptop,Windows 10,Chrome 138.0.0.0,2560x1440,2560x1440,Temporal Distance Task,cb_10,16.0,temp_dist_trial,dist_items,qkpkxw,2.0,continue,,2117.0000000715368,2101.6000000000063,2117.0000000715368,2117.0000000715368,2101.6000000000063,2117.0000000715368,1.0,0.0,0.0,,Click To Continue,Next button,7.0,object-60,temp_dist_trial,16.0,t_i_04_1,travel_Iceland,portable camping stove,10.0,unique,paired,t_i_04_1.jpg,Travel,,,sub-14
Desktop or Laptop,Windows 10,Chrome 138.0.0.0,2560x1440,2560x1440,Temporal Distance Task,cb_10,16.0,temp_dist_trial,dist_items,qkpkxw,2.0,response,37,1000.8000000000177,2101.6000000000063,2117.200000000012,1000.8000000000177,2101.6000000000063,2117.200000000012,1.0,1116.3999999999942,0.0,,Slider,Slider,4.0,object-56,temp_dist_trial,16.0,t_i_04_1,travel_Iceland,portable camping stove,10.0,unique,paired,t_i_04_1.jpg,Travel,,,sub-14
Desktop or Laptop,Windows 10,Chrome 138.0.0.0,2560x1440,2560x1440,Temporal Distance Task,cb_10,17.0,temp_dist_trial,num_items,zn7si1,1.0,response,1_ITEM,1232.3000000476895,1217.8000000000175,1232.3000000476895,1232.3000000476895,1217.8000000000175,1232.3000000476895,1.0,0.0,0.0,,Click Response,1_count,3.0,object-46,temp_dist_trial,17.0,t_i_18_1,travel_Iceland,ski mask,10.0,unique,paired,t_i_18_1.jpg,Travel,,,sub-14
Desktop or Laptop,Windows 10,Chrome 138.0.0.0,2560x1440,2560x1440,Temporal Distance Task,cb_10,18.0,temp_dist_trial,num_items,zn7si1,1.0,response,1_ITEM,1985.7000000000119,1985.1000000000056,1985.7000000000119,1985.7000000000119,1985.1000000000056,1985.7000000000119,1.0,0.0,0.0,,Click Response,1_count,3.0,object-46,temp_dist_trial,18.0,t_i_19_1,travel_Iceland,rope,10.0,unique,paired,t_i_19_1.jpg,Travel,,,sub-14
Desktop or Laptop,Windows 10,Chrome 138.0.0.0,2560x1440,2560x1440,Temporal Distance Task,cb_10,19.0,temp_dist_trial,num_items,zn7si1,1.0,response,1_ITEM,1332.8000000715256,1317.7000000000114,1332.8000000715256,1332.8000000715256,1317.7000000000114,1332.8000000715256,1.0,0.0,0.0,,Click Response,1_count,3.0,object-46,temp_dist_trial,19.0,t_s_01_1,travel_shared,fanny pack,10.0,competing,single,t_s_01_1.jpg,Travel,,,sub-14
Desktop or Laptop,Windows 10,Chrome 138.0.0.0,2560x1440,2560x1440,Temporal Distance Task,cb_10,20.0,temp_dist_trial,num_items,zn7si1,1.0,response,2_ITEM,2668.100000095379,2652.4000000000233,2668.100000095379,2668.100000095379,2652.4000000000233,2668.100000095379,1.0,0.0,0.0,,Click Response,2_count,5.0,object-49,temp_dist_trial,20.0,t_m_19_1,travel_Miami,surfboard,10.0,unique,paired,t_m_19_1.jpg,Travel,,,sub-14
Desktop or Laptop,Windows 10,Chrome 138.0.0.0,2560x1440,2560x1440,Temporal Distance Task,cb_10,20.0,temp_dist_trial,dist_items,qkpkxw,2.0,info,,2.1000000000058208,0.0,2.1000000000058208,2.1000000000058208,0.0,2.1000000000058208,1.0,0.0,0.0,,Slider,Slider,4.0,object-56,temp_dist_trial,20.0,t_m_19_1,travel_Miami,surfboard,10.0,unique,paired,t_m_19_1.jpg,Travel,,,sub-14
Desktop or Laptop,Windows 10,Chrome 138.0.0.0,2560x1440,2560x1440,Temporal Distance Task,cb_10,20.0,temp_dist_trial,dist_items,qkpkxw,2.0,continue,,1944.200000023848,1934.8999999999944,1944.200000023848,1944.200000023848,1934.8999999999944,1944.200000023848,1.0,0.0,0.0,,Click To Continue,Next button,7.0,object-60,temp_dist_trial,20.0,t_m_19_1,travel_Miami,surfboard,10.0,unique,paired,t_m_19_1.jpg,Travel,,,sub-14
Desktop or Laptop,Windows 10,Chrome 138.0.0.0,2560x1440,2560x1440,Temporal Distance Task,cb_10,20.0,temp_dist_trial,dist_items,qkpkxw,2.0,response,56,800.6000000000058,1934.8999999999944,1944.4000000715314,800.6000000000058,1934.8999999999944,1944.4000000715314,1.0,1143.8000000715256,0.0,,Slider,Slider,4.0,object-56,temp_dist_trial,20.0,t_m_19_1,travel_Miami,surfboard,10.0,unique,paired,t_m_19_1.jpg,Travel,,,sub-14
Desktop or Laptop,Windows 10,Chrome 138.0.0.0,2560x1440,2560x1440,Temporal Distance Task,cb_10,21.0,temp_dist_trial,num_items,zn7si1,1.0,response,num_miss,3002.5,3002.5,3002.5,3002.5,3002.5,3002.5,1.0,0.0,0.0,num_miss_tag,Time Limit,screen,0.0,screen,temp_dist_trial,21.0,t_m_05_1,travel_Miami,sunscreen,10.0,unique,single,t_m_05_1.jpg,Travel,,,sub-14
Desktop or Laptop,Windows 10,Chrome 138.0.0.0,2560x1440,2560x1440,Temporal Distance Task,cb_10,22.0,temp_dist_trial,num_items,zn7si1,1.0,response,1_ITEM,13.400000023830216,0.0,13.400000023830216,13.400000023830216,0.0,13.400000023830216,1.0,0.0,0.0,,Click Response,1_count,3.0,object-46,temp_dist_trial,22.0,t_s_16_1,travel_shared,chapstick,10.0,competing,paired,t_s_16_1.jpg,Travel,,,sub-14
Desktop or Laptop,Windows 10,Chrome 138.0.0.0,2560x1440,2560x1440,Temporal Distance Task,cb_10,23.0,temp_dist_trial,num_items,zn7si1,1.0,response,2_ITEM,1252.2000000476835,1251.0,1252.2000000476835,1252.2000000476835,1251.0,1252.2000000476835,1.0,0.0,0.0,,Click Response,2_count,5.0,object-49,temp_dist_trial,23.0,t_s_05_1,travel_shared,neck pillow,10.0,competing,paired,t_s_05_1.jpg,Travel,,,sub-14
Desktop or Laptop,Windows 10,Chrome 138.0.0.0,2560x1440,2560x1440,Temporal Distance Task,cb_10,23.0,temp_dist_trial,dist_items,qkpkxw,2.0,info,,2.0000000476720743,0.0,2.0000000476720743,2.0000000476720743,0.0,2.0000000476720743,1.0,0.0,0.0,,Slider,Slider,4.0,object-56,temp_dist_trial,23.0,t_s_05_1,travel_shared,neck pillow,10.0,competing,paired,t_s_05_1.jpg,Travel,,,sub-14
Desktop or Laptop,Windows 10,Chrome 138.0.0.0,2560x1440,2560x1440,Temporal Distance Task,cb_10,23.0,temp_dist_trial,dist_items,qkpkxw,2.0,continue,,2175.4000000238298,2168.5,2175.4000000238298,2175.4000000238298,2168.5,2175.4000000238298,1.0,0.0,0.0,,Click To Continue,Next button,7.0,object-60,temp_dist_trial,23.0,t_s_05_1,travel_shared,neck pillow,10.0,competing,paired,t_s_05_1.jpg,Travel,,,sub-14
Desktop or Laptop,Windows 10,Chrome 138.0.0.0,2560x1440,2560x1440,Temporal Distance Task,cb_10,23.0,temp_dist_trial,dist_items,qkpkxw,2.0,response,39,683.7999999999884,2168.5,2175.600000071514,683.7999999999884,2168.5,2175.600000071514,1.0,1491.8000000715256,0.0,,Slider,Slider,4.0,object-56,temp_dist_trial,23.0,t_s_05_1,travel_shared,neck pillow,10.0,competing,paired,t_s_05_1.jpg,Travel,,,sub-14
Desktop or Laptop,Windows 10,Chrome 138.0.0.0,2560x1440,2560x1440,Temporal Distance Task,cb_10,24.0,temp_dist_trial,num_items,zn7si1,1.0,response,num_miss,3002.3999999999933,3002.3999999999933,3002.3999999999933,3002.3999999999933,3002.3999999999933,3002.3999999999933,1.0,0.0,0.0,num_miss_tag,Time Limit,screen,0.0,screen,temp_dist_trial,24.0,t_s_02_1,travel_shared,water bottle,10.0,competing,paired,t_s_02_1.jpg,Travel,,,sub-14
Desktop or Laptop,Windows 10,Chrome 138.0.0.0,2560x1440,2560x1440,Temporal Distance Task,cb_10,25.0,temp_dist_trial,num_items,zn7si1,1.0,response,2_ITEM,222.39999999999412,216.79999999998842,222.39999999999412,222.39999999999412,216.79999999998842,222.39999999999412,1.0,0.0,0.0,,Click Response,2_count,5.0,object-49,temp_dist_trial,25.0,t_m_08_1,travel_Miami,flipflops,10.0,unique,paired,t_m_08_1.jpg,Travel,,,sub-14
Desktop or Laptop,Windows 10,Chrome 138.0.0.0,2560x1440,2560x1440,Temporal Distance Task,cb_10,25.0,temp_dist_trial,dist_items,qkpkxw,2.0,info,,2.0000000238360367,0.0,2.0000000238360367,2.0000000238360367,0.0,2.0000000238360367,1.0,0.0,0.0,,Slider,Slider,4.0,object-56,temp_dist_trial,25.0,t_m_08_1,travel_Miami,flipflops,10.0,unique,paired,t_m_08_1.jpg,Travel,,,sub-14
Desktop or Laptop,Windows 10,Chrome 138.0.0.0,2560x1440,2560x1440,Temporal Distance Task,cb_10,25.0,temp_dist_trial,dist_items,qkpkxw,2.0,continue,,3019.7000000715198,3019.199999999982,3019.7000000715198,3019.7000000715198,3019.199999999982,3019.7000000715198,1.0,0.0,0.0,,Click To Continue,Next button,7.0,object-60,temp_dist_trial,25.0,t_m_08_1,travel_Miami,flipflops,10.0,unique,paired,t_m_08_1.jpg,Travel,,,sub-14
Desktop or Laptop,Windows 10,Chrome 138.0.0.0,2560x1440,2560x1440,Temporal Distance Task,cb_10,25.0,temp_dist_trial,dist_items,qkpkxw,2.0,response,64,1551.2999999999884,3019.199999999982,3020.000000023836,1551.2999999999884,3019.199999999982,3020.000000023836,1.0,1468.7000000238475,0.0,,Slider,Slider,4.0,object-56,temp_dist_trial,25.0,t_m_08_1,travel_Miami,flipflops,10.0,unique,paired,t_m_08_1.jpg,Travel,,,sub-14
Desktop or Laptop,Windows 10,Chrome 138.0.0.0,2560x1440,2560x1440,Temporal Distance Task,cb_10,26.0,temp_dist_trial,num_items,zn7si1,1.0,response,1_ITEM,1820.9000000476958,1818.1000000000056,1820.9000000476958,1820.9000000476958,1818.1000000000056,1820.9000000476958,1.0,0.0,0.0,,Click Response,1_count,3.0,object-46,temp_dist_trial,26.0,t_s_06_1,travel_shared,luggage,10.0,competing,paired,t_s_06_1.jpg,Travel,,,sub-14
Desktop or Laptop,Windows 10,Chrome 138.0.0.0,2560x1440,2560x1440,Temporal Distance Task,cb_10,27.0,temp_dist_trial,num_items,zn7si1,1.0,response,2_ITEM,2313.000000023836,2301.8999999999937,2313.000000023836,2313.000000023836,2301.8999999999937,2313.000000023836,1.0,0.0,0.0,,Click Response,2_count,5.0,object-49,temp_dist_trial,27.0,t_s_20_1,travel_shared,travel pill case,10.0,competing,paired,t_s_20_1.jpg,Travel,,,sub-14
Desktop or Laptop,Windows 10,Chrome 138.0.0.0,2560x1440,2560x1440,Temporal Distance Task,cb_10,27.0,temp_dist_trial,dist_items,qkpkxw,2.0,info,,2.0000000476720743,0.0,2.0000000476720743,2.0000000476720743,0.0,2.0000000476720743,1.0,0.0,0.0,,Slider,Slider,4.0,object-56,temp_dist_trial,27.0,t_s_20_1,travel_shared,travel pill case,10.0,competing,paired,t_s_20_1.jpg,Travel,,,sub-14
Desktop or Laptop,Windows 10,Chrome 138.0.0.0,2560x1440,2560x1440,Temporal Distance Task,cb_10,27.0,temp_dist_trial,dist_items,qkpkxw,2.0,continue,,1621.9000000238302,1618.0,1621.9000000238302,1621.9000000238302,1618.0,1621.9000000238302,1.0,0.0,0.0,,Click To Continue,Next button,7.0,object-60,temp_dist_trial,27.0,t_s_20_1,travel_shared,travel pill case,10.0,competing,paired,t_s_20_1.jpg,Travel,,,sub-14
Desktop or Laptop,Windows 10,Chrome 138.0.0.0,2560x1440,2560x1440,Temporal Distance Task,cb_10,27.0,temp_dist_trial,dist_items,qkpkxw,2.0,response,63,850.6999999999823,1618.0,1622.2000000953558,850.6999999999823,1618.0,1622.2000000953558,1.0,771.5000000953733,0.0,,Slider,Slider,4.0,object-56,temp_dist_trial,27.0,t_s_20_1,travel_shared,travel pill case,10.0,competing,paired,t_s_20_1.jpg,Travel,,,sub-14
Desktop or Laptop,Windows 10,Chrome 138.0.0.0,2560x1440,2560x1440,Temporal Distance Task,cb_10,28.0,temp_dist_trial,num_items,zn7si1,1.0,response,2_ITEM,2324.2999999999884,2318.599999999977,2324.2999999999884,2324.2999999999884,2318.599999999977,2324.2999999999884,1.0,0.0,0.0,,Click Response,2_count,5.0,object-49,temp_dist_trial,28.0,t_i_08_1,travel_Iceland,thick socks,10.0,unique,paired,t_i_08_1.jpg,Travel,,,sub-14
Desktop or Laptop,Windows 10,Chrome 138.0.0.0,2560x1440,2560x1440,Temporal Distance Task,cb_10,28.0,temp_dist_trial,dist_items,qkpkxw,2.0,info,,2.1000000238418584,0.0,2.1000000238418584,2.1000000238418584,0.0,2.1000000238418584,1.0,0.0,0.0,,Slider,Slider,4.0,object-56,temp_dist_trial,28.0,t_i_08_1,travel_Iceland,thick socks,10.0,unique,paired,t_i_08_1.jpg,Travel,,,sub-14
Desktop or Laptop,Windows 10,Chrome 138.0.0.0,2560x1440,2560x1440,Temporal Distance Task,cb_10,28.0,temp_dist_trial,dist_items,qkpkxw,2.0,continue,,1545.0,1534.6000000000058,1545.0,1545.0,1534.6000000000058,1545.0,1.0,0.0,0.0,,Click To Continue,Next button,7.0,object-60,temp_dist_trial,28.0,t_i_08_1,travel_Iceland,thick socks,10.0,unique,paired,t_i_08_1.jpg,Travel,,,sub-14
Desktop or Laptop,Windows 10,Chrome 138.0.0.0,2560x1440,2560x1440,Temporal Distance Task,cb_10,28.0,temp_dist_trial,dist_items,qkpkxw,2.0,response,64,650.6000000000057,1534.6000000000058,1545.2000000476835,650.6000000000057,1534.6000000000058,1545.2000000476835,1.0,894.6000000476779,0.0,,Slider,Slider,4.0,object-56,temp_dist_trial,28.0,t_i_08_1,travel_Iceland,thick socks,10.0,unique,paired,t_i_08_1.jpg,Travel,,,sub-14
Desktop or Laptop,Windows 10,Chrome 138.0.0.0,2560x1440,2560x1440,Temporal Distance Task,cb_10,29.0,temp_dist_trial,num_items,zn7si1,1.0,response,2_ITEM,1689.500000023836,1684.6999999999825,1689.500000023836,1689.500000023836,1684.6999999999825,1689.500000023836,1.0,0.0,0.0,,Click Response,2_count,5.0,object-49,temp_dist_trial,29.0,t_s_11_1,travel_shared,eye mask,10.0,competing,paired,t_s_11_1.jpg,Travel,,,sub-14
Desktop or Laptop,Windows 10,Chrome 138.0.0.0,2560x1440,2560x1440,Temporal Distance Task,cb_10,29.0,temp_dist_trial,dist_items,qkpkxw,2.0,info,,1.9000000953674319,0.0,1.9000000953674319,1.9000000953674319,0.0,1.9000000953674319,1.0,0.0,0.0,,Slider,Slider,4.0,object-56,temp_dist_trial,29.0,t_s_11_1,travel_shared,eye mask,10.0,competing,paired,t_s_11_1.jpg,Travel,,,sub-14
Desktop or Laptop,Windows 10,Chrome 138.0.0.0,2560x1440,2560x1440,Temporal Distance Task,cb_10,29.0,temp_dist_trial,dist_items,qkpkxw,2.0,continue,,1712.5,1701.3999999999942,1712.5,1712.5,1701.3999999999942,1712.5,1.0,0.0,0.0,,Click To Continue,Next button,7.0,object-60,temp_dist_trial,29.0,t_s_11_1,travel_shared,eye mask,10.0,competing,paired,t_s_11_1.jpg,Travel,,,sub-14
Desktop or Laptop,Windows 10,Chrome 138.0.0.0,2560x1440,2560x1440,Temporal Distance Task,cb_10,29.0,temp_dist_trial,dist_items,qkpkxw,2.0,response,55,784.0,1701.3999999999942,1712.7000000476835,784.0,1701.3999999999942,1712.7000000476835,1.0,928.7000000476836,0.0,,Slider,Slider,4.0,object-56,temp_dist_trial,29.0,t_s_11_1,travel_shared,eye mask,10.0,competing,paired,t_s_11_1.jpg,Travel,,,sub-14
Desktop or Laptop,Windows 10,Chrome 138.0.0.0,2560x1440,2560x1440,Temporal Distance Task,cb_10,30.0,temp_dist_trial,num_items,zn7si1,1.0,response,2_ITEM,950.5000000953733,934.1000000000058,950.5000000953733,950.5000000953733,934.1000000000058,950.5000000953733,1.0,0.0,0.0,,Click Response,2_count,5.0,object-49,temp_dist_trial,30.0,t_s_14_1,travel_shared,hand sanitizer,10.0,competing,paired,t_s_14_1.jpg,Travel,,,sub-14
Desktop or Laptop,Windows 10,Chrome 138.0.0.0,2560x1440,2560x1440,Temporal Distance Task,cb_10,30.0,temp_dist_trial,dist_items,qkpkxw,2.0,info,,2.0000000476720743,0.0,2.0000000476720743,2.0000000476720743,0.0,2.0000000476720743,1.0,0.0,0.0,,Slider,Slider,4.0,object-56,temp_dist_trial,30.0,t_s_14_1,travel_shared,hand sanitizer,10.0,competing,paired,t_s_14_1.jpg,Travel,,,sub-14
Desktop or Laptop,Windows 10,Chrome 138.0.0.0,2560x1440,2560x1440,Temporal Distance Task,cb_10,30.0,temp_dist_trial,dist_items,qkpkxw,2.0,continue,,2145.2999999999884,2135.0999999999767,2145.2999999999884,2145.2999999999884,2135.0999999999767,2145.2999999999884,1.0,0.0,0.0,,Click To Continue,Next button,7.0,object-60,temp_dist_trial,30.0,t_s_14_1,travel_shared,hand sanitizer,10.0,competing,paired,t_s_14_1.jpg,Travel,,,sub-14
Desktop or Laptop,Windows 10,Chrome 138.0.0.0,2560x1440,2560x1440,Temporal Distance Task,cb_10,30.0,temp_dist_trial,dist_items,qkpkxw,2.0,response,64,717.2999999999884,2135.0999999999767,2145.7000000953562,717.2999999999884,2135.0999999999767,2145.7000000953562,1.0,1428.4000000953674,0.0,,Slider,Slider,4.0,object-56,temp_dist_trial,30.0,t_s_14_1,travel_shared,hand sanitizer,10.0,competing,paired,t_s_14_1.jpg,Travel,,,sub-14
Desktop or Laptop,Windows 10,Chrome 138.0.0.0,2560x1440,2560x1440,Temporal Distance Task,cb_10,31.0,temp_dist_trial,num_items,zn7si1,1.0,response,2_ITEM,1599.0000000715372,1584.6000000000058,1599.0000000715372,1599.0000000715372,1584.6000000000058,1599.0000000715372,1.0,0.0,0.0,,Click Response,2_count,5.0,object-49,temp_dist_trial,31.0,t_s_22_1,travel_shared,belt,10.0,competing,paired,t_s_22_1.jpg,Travel,,,sub-14
Desktop or Laptop,Windows 10,Chrome 138.0.0.0,2560x1440,2560x1440,Temporal Distance Task,cb_10,31.0,temp_dist_trial,dist_items,qkpkxw,2.0,info,,2.0000000238360367,0.0,2.0000000238360367,2.0000000238360367,0.0,2.0000000238360367,1.0,0.0,0.0,,Slider,Slider,4.0,object-56,temp_dist_trial,31.0,t_s_22_1,travel_shared,belt,10.0,competing,paired,t_s_22_1.jpg,Travel,,,sub-14
Desktop or Laptop,Windows 10,Chrome 138.0.0.0,2560x1440,2560x1440,Temporal Distance Task,cb_10,31.0,temp_dist_trial,dist_items,qkpkxw,2.0,continue,,2289.3000000953616,2285.1000000000063,2289.3000000953616,2289.3000000953616,2285.1000000000063,2289.3000000953616,1.0,0.0,0.0,,Click To Continue,Next button,7.0,object-60,temp_dist_trial,31.0,t_s_22_1,travel_shared,belt,10.0,competing,paired,t_s_22_1.jpg,Travel,,,sub-14
Desktop or Laptop,Windows 10,Chrome 138.0.0.0,2560x1440,2560x1440,Temporal Distance Task,cb_10,31.0,temp_dist_trial,dist_items,qkpkxw,2.0,response,59,800.6999999999823,2285.1000000000063,2289.600000047678,800.6999999999823,2285.1000000000063,2289.600000047678,1.0,1488.9000000476956,0.0,,Slider,Slider,4.0,object-56,temp_dist_trial,31.0,t_s_22_1,travel_shared,belt,10.0,competing,paired,t_s_22_1.jpg,Travel,,,sub-14
Desktop or Laptop,Windows 10,Chrome 138.0.0.0,2560x1440,2560x1440,Temporal Distance Task,cb_10,32.0,temp_dist_trial,num_items,zn7si1,1.0,response,2_ITEM,2201.7999999999884,2185.1999999999825,2201.7999999999884,2201.7999999999884,2185.1999999999825,2201.7999999999884,1.0,0.0,0.0,,Click Response,2_count,5.0,object-49,temp_dist_trial,32.0,t_i_20_1,travel_Iceland,lantern,10.0,unique,paired,t_i_20_1.jpg,Travel,,,sub-14
Desktop or Laptop,Windows 10,Chrome 138.0.0.0,2560x1440,2560x1440,Temporal Distance Task,cb_10,32.0,temp_dist_trial,dist_items,qkpkxw,2.0,info,,2.0000000476720743,0.0,2.0000000476720743,2.0000000476720743,0.0,2.0000000476720743,1.0,0.0,0.0,,Slider,Slider,4.0,object-56,temp_dist_trial,32.0,t_i_20_1,travel_Iceland,lantern,10.0,unique,paired,t_i_20_1.jpg,Travel,,,sub-14
Desktop or Laptop,Windows 10,Chrome 138.0.0.0,2560x1440,2560x1440,Temporal Distance Task,cb_10,32.0,temp_dist_trial,dist_items,qkpkxw,2.0,continue,,1891.7999999999884,1884.8999999999944,1891.7999999999884,1891.7999999999884,1884.8999999999944,1891.7999999999884,1.0,0.0,0.0,,Click To Continue,Next button,7.0,object-60,temp_dist_trial,32.0,t_i_20_1,travel_Iceland,lantern,10.0,unique,paired,t_i_20_1.jpg,Travel,,,sub-14
Desktop or Laptop,Windows 10,Chrome 138.0.0.0,2560x1440,2560x1440,Temporal Distance Task,cb_10,32.0,temp_dist_trial,dist_items,qkpkxw,2.0,response,58,783.8999999999942,1884.8999999999944,1892.100000071514,783.8999999999942,1884.8999999999944,1892.100000071514,1.0,1108.2000000715198,0.0,,Slider,Slider,4.0,object-56,temp_dist_trial,32.0,t_i_20_1,travel_Iceland,lantern,10.0,unique,paired,t_i_20_1.jpg,Travel,,,sub-14
Desktop or Laptop,Windows 10,Chrome 138.0.0.0,2560x1440,2560x1440,Temporal Distance Task,cb_10,33.0,temp_dist_trial,num_items,zn7si1,1.0,response,2_ITEM,1994.2000000715198,1984.8999999999944,1994.2000000715198,1994.2000000715198,1984.8999999999944,1994.2000000715198,1.0,0.0,0.0,,Click Response,2_count,5.0,object-49,temp_dist_trial,33.0,t_s_10_1,travel_shared,luggage lock,10.0,competing,single,t_s_10_1.jpg,Travel,,,sub-14
Desktop or Laptop,Windows 10,Chrome 138.0.0.0,2560x1440,2560x1440,Temporal Distance Task,cb_10,33.0,temp_dist_trial,dist_items,qkpkxw,2.0,info,,2.4000000238302164,0.0,2.4000000238302164,2.4000000238302164,0.0,2.4000000238302164,1.0,0.0,0.0,,Slider,Slider,4.0,object-56,temp_dist_trial,33.0,t_s_10_1,travel_shared,luggage lock,10.0,competing,single,t_s_10_1.jpg,Travel,,,sub-14
Desktop or Laptop,Windows 10,Chrome 138.0.0.0,2560x1440,2560x1440,Temporal Distance Task,cb_10,33.0,temp_dist_trial,dist_items,qkpkxw,2.0,continue,,2272.2999999999884,2268.5,2272.2999999999884,2272.2999999999884,2268.5,2272.2999999999884,1.0,0.0,0.0,,Click To Continue,Next button,7.0,object-60,temp_dist_trial,33.0,t_s_10_1,travel_shared,luggage lock,10.0,competing,single,t_s_10_1.jpg,Travel,,,sub-14
Desktop or Laptop,Windows 10,Chrome 138.0.0.0,2560x1440,2560x1440,Temporal Distance Task,cb_10,33.0,temp_dist_trial,dist_items,qkpkxw,2.0,response,37,1217.6999999999825,2268.5,2272.600000071514,1217.6999999999825,2268.5,2272.600000071514,1.0,1054.9000000715314,0.0,,Slider,Slider,4.0,object-56,temp_dist_trial,33.0,t_s_10_1,travel_shared,luggage lock,10.0,competing,single,t_s_10_1.jpg,Travel,,,sub-14
Desktop or Laptop,Windows 10,Chrome 138.0.0.0,2560x1440,2560x1440,Temporal Distance Task,cb_10,34.0,temp_dist_trial,num_items,zn7si1,1.0,response,1_ITEM,1921.7000000953562,1918.2999999999884,1921.7000000953562,1921.7000000953562,1918.2999999999884,1921.7000000953562,1.0,0.0,0.0,,Click Response,1_count,3.0,object-46,temp_dist_trial,34.0,t_s_13_1,travel_shared,contact lens case,10.0,competing,single,t_s_13_1.jpg,Travel,,,sub-14
Desktop or Laptop,Windows 10,Chrome 138.0.0.0,2560x1440,2560x1440,Temporal Distance Task,cb_10,35.0,temp_dist_trial,num_items,zn7si1,1.0,response,2_ITEM,1021.4000000238302,1017.3999999999942,1021.4000000238302,1021.4000000238302,1017.3999999999942,1021.4000000238302,1.0,0.0,0.0,,Click Response,2_count,5.0,object-49,temp_dist_trial,35.0,t_s_08_1,travel_shared,hand lotion,10.0,competing,paired,t_s_08_1.jpg,Travel,,,sub-14
Desktop or Laptop,Windows 10,Chrome 138.0.0.0,2560x1440,2560x1440,Temporal Distance Task,cb_10,35.0,temp_dist_trial,dist_items,qkpkxw,2.0,info,,2.0000000953732524,0.0,2.0000000953732524,2.0000000953732524,0.0,2.0000000953732524,1.0,0.0,0.0,,Slider,Slider,4.0,object-56,temp_dist_trial,35.0,t_s_08_1,travel_shared,hand lotion,10.0,competing,paired,t_s_08_1.jpg,Travel,,,sub-14
Desktop or Laptop,Windows 10,Chrome 138.0.0.0,2560x1440,2560x1440,Temporal Distance Task,cb_10,35.0,temp_dist_trial,dist_items,qkpkxw,2.0,continue,,2001.499999999971,1984.8999999999944,2001.499999999971,2001.499999999971,1984.8999999999944,2001.499999999971,1.0,0.0,0.0,,Click To Continue,Next button,7.0,object-60,temp_dist_trial,35.0,t_s_08_1,travel_shared,hand lotion,10.0,competing,paired,t_s_08_1.jpg,Travel,,,sub-14
Desktop or Laptop,Windows 10,Chrome 138.0.0.0,2560x1440,2560x1440,Temporal Distance Task,cb_10,35.0,temp_dist_trial,dist_items,qkpkxw,2.0,response,45,750.6000000000058,1984.8999999999944,2001.499999999971,750.6000000000058,1984.8999999999944,2001.499999999971,1.0,1250.899999999965,0.0,,Slider,Slider,4.0,object-56,temp_dist_trial,35.0,t_s_08_1,travel_shared,hand lotion,10.0,competing,paired,t_s_08_1.jpg,Travel,,,sub-14
Desktop or Laptop,Windows 10,Chrome 138.0.0.0,2560x1440,2560x1440,Temporal Distance Task,cb_10,36.0,temp_dist_trial,num_items,zn7si1,1.0,response,2_ITEM,1131.2000000000114,1117.6000000000058,1131.2000000000114,1131.2000000000114,1117.6000000000058,1131.2000000000114,1.0,0.0,0.0,,Click Response,2_count,5.0,object-49,temp_dist_trial,36.0,t_s_07_1,travel_shared,phone charger cable,10.0,competing,paired,t_s_07_1.jpg,Travel,,,sub-14
Desktop or Laptop,Windows 10,Chrome 138.0.0.0,2560x1440,2560x1440,Temporal Distance Task,cb_10,36.0,temp_dist_trial,dist_items,qkpkxw,2.0,info,,2.300000095361611,0.0,2.300000095361611,2.300000095361611,0.0,2.300000095361611,1.0,0.0,0.0,,Slider,Slider,4.0,object-56,temp_dist_trial,36.0,t_s_07_1,travel_shared,phone charger cable,10.0,competing,paired,t_s_07_1.jpg,Travel,,,sub-14
Desktop or Laptop,Windows 10,Chrome 138.0.0.0,2560x1440,2560x1440,Temporal Distance Task,cb_10,36.0,temp_dist_trial,dist_items,qkpkxw,2.0,continue,,1695.600000047678,1684.6999999999825,1695.600000047678,1695.600000047678,1684.6999999999825,1695.600000047678,1.0,0.0,0.0,,Click To Continue,Next button,7.0,object-60,temp_dist_trial,36.0,t_s_07_1,travel_shared,phone charger cable,10.0,competing,paired,t_s_07_1.jpg,Travel,,,sub-14
Desktop or Laptop,Windows 10,Chrome 138.0.0.0,2560x1440,2560x1440,Temporal Distance Task,cb_10,36.0,temp_dist_trial,dist_items,qkpkxw,2.0,response,56,650.5,1684.6999999999825,1695.8999999999942,650.5,1684.6999999999825,1695.8999999999942,1.0,1045.3999999999942,0.0,,Slider,Slider,4.0,object-56,temp_dist_trial,36.0,t_s_07_1,travel_shared,phone charger cable,10.0,competing,paired,t_s_07_1.jpg,Travel,,,sub-14
Desktop or Laptop,Windows 10,Chrome 138.0.0.0,2560x1440,2560x1440,Temporal Distance Task,cb_10,37.0,temp_dist_trial,num_items,zn7si1,1.0,response,2_ITEM,1566.2000000000116,1551.3000000000175,1566.2000000000116,1566.2000000000116,1551.3000000000175,1566.2000000000116,1.0,0.0,0.0,,Click Response,2_count,5.0,object-49,temp_dist_trial,37.0,t_m_06_1,travel_Miami,handheld fan,10.0,unique,paired,t_m_06_1.jpg,Travel,,,sub-14
Desktop or Laptop,Windows 10,Chrome 138.0.0.0,2560x1440,2560x1440,Temporal Distance Task,cb_10,37.0,temp_dist_trial,dist_items,qkpkxw,2.0,info,,2.200000000011641,0.0,2.200000000011641,2.200000000011641,0.0,2.200000000011641,1.0,0.0,0.0,,Slider,Slider,4.0,object-56,temp_dist_trial,37.0,t_m_06_1,travel_Miami,handheld fan,10.0,unique,paired,t_m_06_1.jpg,Travel,,,sub-14
Desktop or Laptop,Windows 10,Chrome 138.0.0.0,2560x1440,2560x1440,Temporal Distance Task,cb_10,37.0,temp_dist_trial,dist_items,qkpkxw,2.0,continue,,2121.400000047696,2118.4000000000233,2121.400000047696,2121.400000047696,2118.4000000000233,2121.400000047696,1.0,0.0,0.0,,Click To Continue,Next button,7.0,object-60,temp_dist_trial,37.0,t_m_06_1,travel_Miami,handheld fan,10.0,unique,paired,t_m_06_1.jpg,Travel,,,sub-14
Desktop or Laptop,Windows 10,Chrome 138.0.0.0,2560x1440,2560x1440,Temporal Distance Task,cb_10,37.0,temp_dist_trial,dist_items,qkpkxw,2.0,response,59,750.7000000000116,2118.4000000000233,2121.700000000012,750.7000000000116,2118.4000000000233,2121.700000000012,1.0,1371.0,0.0,,Slider,Slider,4.0,object-56,temp_dist_trial,37.0,t_m_06_1,travel_Miami,handheld fan,10.0,unique,paired,t_m_06_1.jpg,Travel,,,sub-14
Desktop or Laptop,Windows 10,Chrome 138.0.0.0,2560x1440,2560x1440,Temporal Distance Task,cb_10,38.0,temp_dist_trial,num_items,zn7si1,1.0,response,1_ITEM,2515.9000000238298,2502.0,2515.9000000238298,2515.9000000238298,2502.0,2515.9000000238298,1.0,0.0,0.0,,Click Response,1_count,3.0,object-46,temp_dist_trial,38.0,t_s_18_1,travel_shared,first aid kit,10.0,competing,paired,t_s_18_1.jpg,Travel,,,sub-14
Desktop or Laptop,Windows 10,Chrome 138.0.0.0,2560x1440,2560x1440,Temporal Distance Task,cb_10,39.0,temp_dist_trial,num_items,zn7si1,1.0,response,1_ITEM,2623.5,2618.7999999999884,2623.5,2623.5,2618.7999999999884,2623.5,1.0,0.0,0.0,,Click Response,1_count,3.0,object-46,temp_dist_trial,39.0,t_s_09_1,travel_shared,wallet,10.0,competing,paired,t_s_09_1.jpg,Travel,,,sub-14
Desktop or Laptop,Windows 10,Chrome 138.0.0.0,2560x1440,2560x1440,Temporal Distance Task,cb_10,40.0,temp_dist_trial,num_items,zn7si1,1.0,response,1_ITEM,1690.3000000715256,1684.7000000000116,1690.3000000715256,1690.3000000715256,1684.7000000000116,1690.3000000715256,1.0,0.0,0.0,,Click Response,1_count,3.0,object-46,temp_dist_trial,40.0,t_s_03_1,travel_shared,portable charger,10.0,competing,paired,t_s_03_1.jpg,Travel,,,sub-14
Desktop or Laptop,Windows 10,Chrome 138.0.0.0,2560x1440,2560x1440,Temporal Distance Task,cb_10,41.0,temp_dist_trial,num_items,zn7si1,1.0,response,1_ITEM,1223.6000000000058,1217.8999999999942,1223.6000000000058,1223.6000000000058,1217.8999999999942,1223.6000000000058,1.0,0.0,0.0,,Click Response,1_count,3.0,object-46,temp_dist_trial,41.0,t_s_23_1,travel_shared,ball cap,10.0,competing,single,t_s_23_1.jpg,Travel,,,sub-14
Desktop or Laptop,Windows 10,Chrome 138.0.0.0,2560x1440,2560x1440,Temporal Distance Task,cb_10,42.0,temp_dist_trial,num_items,zn7si1,1.0,response,1_ITEM,973.6000000715139,967.5999999999768,973.6000000715139,973.6000000715139,967.5999999999768,973.6000000715139,1.0,0.0,0.0,,Click Response,1_count,3.0,object-46,temp_dist_trial,42.0,t_m_03_1,travel_Miami,wetsuit,10.0,unique,paired,t_m_03_1.jpg,Travel,,,sub-14
Desktop or Laptop,Windows 10,Chrome 138.0.0.0,2560x1440,2560x1440,Temporal Distance Task,cb_10,43.0,temp_dist_trial,num_items,zn7si1,1.0,response,1_ITEM,1619.7000000238475,1618.0,1619.7000000238475,1619.7000000238475,1618.0,1619.7000000238475,1.0,0.0,0.0,,Click Response,1_count,3.0,object-46,temp_dist_trial,43.0,t_s_15_1,travel_shared,luggage tag,10.0,competing,single,t_s_15_1.jpg,Travel,,,sub-14
Desktop or Laptop,Windows 10,Chrome 138.0.0.0,2560x1440,2560x1440,Temporal Distance Task,cb_10,44.0,temp_dist_trial,num_items,zn7si1,1.0,response,1_ITEM,2069.7000000715198,2068.2999999999884,2069.7000000715198,2069.7000000715198,2068.2999999999884,2069.7000000715198,1.0,0.0,0.0,,Click Response,1_count,3.0,object-46,temp_dist_trial,44.0,t_m_09_1,travel_Miami,beach towel,10.0,unique,single,t_m_09_1.jpg,Travel,,,sub-14
Desktop or Laptop,Windows 10,Chrome 138.0.0.0,2560x1440,2560x1440,Temporal Distance Task,cb_10,45.0,temp_dist_trial,num_items,zn7si1,1.0,response,1_ITEM,1146.600000071514,1134.1999999999825,1146.600000071514,1146.600000071514,1134.1999999999825,1146.600000071514,1.0,0.0,0.0,,Click Response,1_count,3.0,object-46,temp_dist_trial,45.0,t_i_11_1,travel_Iceland,headlamp,10.0,unique,single,t_i_11_1.jpg,Travel,,,sub-14
Desktop or Laptop,Windows 10,Chrome 138.0.0.0,2560x1440,2560x1440,Temporal Distance Task,cb_10,46.0,temp_dist_trial,num_items,zn7si1,1.0,response,1_ITEM,912.6000000476781,900.7999999999884,912.6000000476781,912.6000000476781,900.7999999999884,912.6000000476781,1.0,0.0,0.0,,Click Response,1_count,3.0,object-46,temp_dist_trial,46.0,t_m_16_1,travel_Miami,flippers,10.0,unique,paired,t_m_16_1.jpg,Travel,,,sub-14
Desktop or Laptop,Windows 10,Chrome 138.0.0.0,2560x1440,2560x1440,Temporal Distance Task,cb_10,47.0,temp_dist_trial,num_items,zn7si1,1.0,response,1_ITEM,838.9000000953674,834.2000000000116,838.9000000953674,838.9000000953674,834.2000000000116,838.9000000953674,1.0,0.0,0.0,,Click Response,1_count,3.0,object-46,temp_dist_trial,47.0,t_i_01_1,travel_Iceland,gloves,10.0,unique,single,t_i_01_1.jpg,Travel,,,sub-14
Desktop or Laptop,Windows 10,Chrome 138.0.0.0,2560x1440,2560x1440,Temporal Distance Task,cb_10,48.0,temp_dist_trial,num_items,zn7si1,1.0,response,2_ITEM,1054.7000000238477,1050.8000000000177,1054.7000000238477,1054.7000000238477,1050.8000000000177,1054.7000000238477,1.0,0.0,0.0,,Click Response,2_count,5.0,object-49,temp_dist_trial,48.0,t_m_07_1,travel_Miami,sunglasses,10.0,unique,paired,t_m_07_1.jpg,Travel,,,sub-14
Desktop or Laptop,Windows 10,Chrome 138.0.0.0,2560x1440,2560x1440,Temporal Distance Task,cb_10,48.0,temp_dist_trial,dist_items,qkpkxw,2.0,info,,1.9000000715313945,0.0,1.9000000715313945,1.9000000715313945,0.0,1.9000000715313945,1.0,0.0,0.0,,Slider,Slider,4.0,object-56,temp_dist_trial,48.0,t_m_07_1,travel_Miami,sunglasses,10.0,unique,paired,t_m_07_1.jpg,Travel,,,sub-14
Desktop or Laptop,Windows 10,Chrome 138.0.0.0,2560x1440,2560x1440,Temporal Distance Task,cb_10,48.0,temp_dist_trial,dist_items,qkpkxw,2.0,continue,,2296.300000047689,2285.200000000012,2296.300000047689,2296.300000047689,2285.200000000012,2296.300000047689,1.0,0.0,0.0,,Click To Continue,Next button,7.0,object-60,temp_dist_trial,48.0,t_m_07_1,travel_Miami,sunglasses,10.0,unique,paired,t_m_07_1.jpg,Travel,,,sub-14
Desktop or Laptop,Windows 10,Chrome 138.0.0.0,2560x1440,2560x1440,Temporal Distance Task,cb_10,48.0,temp_dist_trial,dist_items,qkpkxw,2.0,response,44,1267.7000000000114,2285.200000000012,2296.6000000000063,1267.7000000000114,2285.200000000012,2296.6000000000063,1.0,1028.8999999999942,0.0,,Slider,Slider,4.0,object-56,temp_dist_trial,48.0,t_m_07_1,travel_Miami,sunglasses,10.0,unique,paired,t_m_07_1.jpg,Travel,,,sub-14
Desktop or Laptop,Windows 10,Chrome 138.0.0.0,2560x1440,2560x1440,Temporal Distance Task,cb_10,2.0,temp_eventStart,Screen 1,dgtyxe,1.0,continue,,24336.79999999996,24319.99999999997,24336.79999999996,24336.79999999996,24319.99999999997,24336.79999999996,1.0,0.0,0.0,,Click To Continue,Next Button,3.0,object-43,temp_eventStart,,,Student,,,,,,,,,sub-14
Desktop or Laptop,Windows 10,Chrome 138.0.0.0,2560x1440,2560x1440,Temporal Distance Task,cb_10,49.0,temp_dist_trial,num_items,zn7si1,1.0,response,2_ITEM,1568.600000047707,1567.9000000000233,1568.600000047707,1568.600000047707,1567.9000000000233,1568.600000047707,1.0,0.0,0.0,,Click Response,2_count,5.0,object-49,temp_dist_trial,1.0,s_sh_14_1,student_shared,printer,10.0,competing,paired,s_sh_14_1.jpg,Student,,,sub-14
Desktop or Laptop,Windows 10,Chrome 138.0.0.0,2560x1440,2560x1440,Temporal Distance Task,cb_10,49.0,temp_dist_trial,dist_items,qkpkxw,2.0,info,,2.0000000476720743,0.0,2.0000000476720743,2.0000000476720743,0.0,2.0000000476720743,1.0,0.0,0.0,,Slider,Slider,4.0,object-56,temp_dist_trial,1.0,s_sh_14_1,student_shared,printer,10.0,competing,paired,s_sh_14_1.jpg,Student,,,sub-14
Desktop or Laptop,Windows 10,Chrome 138.0.0.0,2560x1440,2560x1440,Temporal Distance Task,cb_10,49.0,temp_dist_trial,dist_items,qkpkxw,2.0,continue,,1730.2999999999884,1718.0999999999767,1730.2999999999884,1730.2999999999884,1718.0999999999767,1730.2999999999884,1.0,0.0,0.0,,Click To Continue,Next button,7.0,object-60,temp_dist_trial,1.0,s_sh_14_1,student_shared,printer,10.0,competing,paired,s_sh_14_1.jpg,Student,,,sub-14
Desktop or Laptop,Windows 10,Chrome 138.0.0.0,2560x1440,2560x1440,Temporal Distance Task,cb_10,49.0,temp_dist_trial,dist_items,qkpkxw,2.0,response,61,717.2999999999884,1718.0999999999767,1730.600000071514,717.2999999999884,1718.0999999999767,1730.600000071514,1.0,1013.3000000715256,0.0,,Slider,Slider,4.0,object-56,temp_dist_trial,1.0,s_sh_14_1,student_shared,printer,10.0,competing,paired,s_sh_14_1.jpg,Student,,,sub-14
Desktop or Laptop,Windows 10,Chrome 138.0.0.0,2560x1440,2560x1440,Temporal Distance Task,cb_10,50.0,temp_dist_trial,num_items,zn7si1,1.0,response,1_ITEM,1815.100000095379,1801.4000000000233,1815.100000095379,1815.100000095379,1801.4000000000233,1815.100000095379,1.0,0.0,0.0,,Click Response,1_count,3.0,object-46,temp_dist_trial,2.0,s_sh_13_1,student_shared,index cards,10.0,competing,paired,s_sh_13_1.jpg,Student,,,sub-14
Desktop or Laptop,Windows 10,Chrome 138.0.0.0,2560x1440,2560x1440,Temporal Distance Task,cb_10,51.0,temp_dist_trial,num_items,zn7si1,1.0,response,1_ITEM,1015.7000000476836,1000.7999999999884,1015.7000000476836,1015.7000000476836,1000.7999999999884,1015.7000000476836,1.0,0.0,0.0,,Click Response,1_count,3.0,object-46,temp_dist_trial,3.0,s_sh_01_1,student_shared,notebook,10.0,competing,single,s_sh_01_1.jpg,Student,,,sub-14
Desktop or Laptop,Windows 10,Chrome 138.0.0.0,2560x1440,2560x1440,Temporal Distance Task,cb_10,52.0,temp_dist_trial,num_items,zn7si1,1.0,response,2_ITEM,880.0000000953439,867.2999999999884,880.0000000953439,880.0000000953439,867.2999999999884,880.0000000953439,1.0,0.0,0.0,,Click Response,2_count,5.0,object-49,temp_dist_trial,4.0,s_s_15_1,student_stem,jumper cables,10.0,unique,paired,s_s_15_1.jpg,Student,,,sub-14
Desktop or Laptop,Windows 10,Chrome 138.0.0.0,2560x1440,2560x1440,Temporal Distance Task,cb_10,52.0,temp_dist_trial,dist_items,qkpkxw,2.0,info,,2.0,0.0,2.0,2.0,0.0,2.0,1.0,0.0,0.0,,Slider,Slider,4.0,object-56,temp_dist_trial,4.0,s_s_15_1,student_stem,jumper cables,10.0,unique,paired,s_s_15_1.jpg,Student,,,sub-14
Desktop or Laptop,Windows 10,Chrome 138.0.0.0,2560x1440,2560x1440,Temporal Distance Task,cb_10,52.0,temp_dist_trial,dist_items,qkpkxw,2.0,continue,,2688.100000023842,2685.700000000012,2688.100000023842,2688.100000023842,2685.700000000012,2688.100000023842,1.0,0.0,0.0,,Click To Continue,Next button,7.0,object-60,temp_dist_trial,4.0,s_s_15_1,student_stem,jumper cables,10.0,unique,paired,s_s_15_1.jpg,Student,,,sub-14
Desktop or Laptop,Windows 10,Chrome 138.0.0.0,2560x1440,2560x1440,Temporal Distance Task,cb_10,52.0,temp_dist_trial,dist_items,qkpkxw,2.0,response,56,1801.5999999999767,2685.700000000012,2689.9000000953674,1801.5999999999767,2685.700000000012,2689.9000000953674,1.0,888.3000000953908,0.0,,Slider,Slider,4.0,object-56,temp_dist_trial,4.0,s_s_15_1,student_stem,jumper cables,10.0,unique,paired,s_s_15_1.jpg,Student,,,sub-14
Desktop or Laptop,Windows 10,Chrome 138.0.0.0,2560x1440,2560x1440,Temporal Distance Task,cb_10,53.0,temp_dist_trial,num_items,zn7si1,1.0,response,2_ITEM,848.7000000953557,833.8999999999651,848.7000000953557,848.7000000953557,833.8999999999651,848.7000000953557,1.0,0.0,0.0,,Click Response,2_count,5.0,object-49,temp_dist_trial,5.0,s_s_08_1,student_stem,soldering iron,10.0,unique,paired,s_s_08_1.jpg,Student,,,sub-14
Desktop or Laptop,Windows 10,Chrome 138.0.0.0,2560x1440,2560x1440,Temporal Distance Task,cb_10,53.0,temp_dist_trial,dist_items,qkpkxw,2.0,info,,2.3000000238534994,0.0,2.3000000238534994,2.3000000238534994,0.0,2.3000000238534994,1.0,0.0,0.0,,Slider,Slider,4.0,object-56,temp_dist_trial,5.0,s_s_08_1,student_stem,soldering iron,10.0,unique,paired,s_s_08_1.jpg,Student,,,sub-14
Desktop or Laptop,Windows 10,Chrome 138.0.0.0,2560x1440,2560x1440,Temporal Distance Task,cb_10,53.0,temp_dist_trial,dist_items,qkpkxw,2.0,continue,,1621.8000000238535,1618.0,1621.8000000238535,1621.8000000238535,1618.0,1621.8000000238535,1.0,0.0,0.0,,Click To Continue,Next button,7.0,object-60,temp_dist_trial,5.0,s_s_08_1,student_stem,soldering iron,10.0,unique,paired,s_s_08_1.jpg,Student,,,sub-14
Desktop or Laptop,Windows 10,Chrome 138.0.0.0,2560x1440,2560x1440,Temporal Distance Task,cb_10,53.0,temp_dist_trial,dist_items,qkpkxw,2.0,response,58,784.0,1618.0,1622.0000000715372,784.0,1618.0,1622.0000000715372,1.0,838.0000000715373,0.0,,Slider,Slider,4.0,object-56,temp_dist_trial,5.0,s_s_08_1,student_stem,soldering iron,10.0,unique,paired,s_s_08_1.jpg,Student,,,sub-14
Desktop or Laptop,Windows 10,Chrome 138.0.0.0,2560x1440,2560x1440,Temporal Distance Task,cb_10,54.0,temp_dist_trial,num_items,zn7si1,1.0,response,2_ITEM,1127.9000000476954,1117.600000000035,1127.9000000476954,1127.9000000476954,1117.600000000035,1127.9000000476954,1.0,0.0,0.0,,Click Response,2_count,5.0,object-49,temp_dist_trial,6.0,s_s_09_1,student_stem,multimeter,10.0,unique,paired,s_s_09_1.jpg,Student,,,sub-14
Desktop or Laptop,Windows 10,Chrome 138.0.0.0,2560x1440,2560x1440,Temporal Distance Task,cb_10,54.0,temp_dist_trial,dist_items,qkpkxw,2.0,info,,2.1000000238418584,0.0,2.1000000238418584,2.1000000238418584,0.0,2.1000000238418584,1.0,0.0,0.0,,Slider,Slider,4.0,object-56,temp_dist_trial,6.0,s_s_09_1,student_stem,multimeter,10.0,unique,paired,s_s_09_1.jpg,Student,,,sub-14
Desktop or Laptop,Windows 10,Chrome 138.0.0.0,2560x1440,2560x1440,Temporal Distance Task,cb_10,54.0,temp_dist_trial,dist_items,qkpkxw,2.0,continue,,2317.600000023842,2302.0,2317.600000023842,2317.600000023842,2302.0,2317.600000023842,1.0,0.0,0.0,,Click To Continue,Next button,7.0,object-60,temp_dist_trial,6.0,s_s_09_1,student_stem,multimeter,10.0,unique,paired,s_s_09_1.jpg,Student,,,sub-14
Desktop or Laptop,Windows 10,Chrome 138.0.0.0,2560x1440,2560x1440,Temporal Distance Task,cb_10,54.0,temp_dist_trial,dist_items,qkpkxw,2.0,response,38,1501.2999999999884,2302.0,2318.0,1501.2999999999884,2302.0,2318.0,1.0,816.7000000000116,0.0,,Slider,Slider,4.0,object-56,temp_dist_trial,6.0,s_s_09_1,student_stem,multimeter,10.0,unique,paired,s_s_09_1.jpg,Student,,,sub-14
Desktop or Laptop,Windows 10,Chrome 138.0.0.0,2560x1440,2560x1440,Temporal Distance Task,cb_10,55.0,temp_dist_trial,num_items,zn7si1,1.0,response,1_ITEM,955.5,950.7000000000116,955.5,955.5,950.7000000000116,955.5,1.0,0.0,0.0,,Click Response,1_count,3.0,object-46,temp_dist_trial,7.0,s_sh_04_1,student_shared,laptop stand,10.0,competing,single,s_sh_04_1.jpg,Student,,,sub-14
Desktop or Laptop,Windows 10,Chrome 138.0.0.0,2560x1440,2560x1440,Temporal Distance Task,cb_10,56.0,temp_dist_trial,num_items,zn7si1,1.0,response,1_ITEM,902.3000000476603,900.7999999999884,902.3000000476603,902.3000000476603,900.7999999999884,902.3000000476603,1.0,0.0,0.0,,Click Response,1_count,3.0,object-46,temp_dist_trial,8.0,s_sh_06_1,student_shared,clipboard,10.0,competing,paired,s_sh_06_1.jpg,Student,,,sub-14
Desktop or Laptop,Windows 10,Chrome 138.0.0.0,2560x1440,2560x1440,Temporal Distance Task,cb_10,57.0,temp_dist_trial,num_items,zn7si1,1.0,response,1_ITEM,887.3000000476602,884.0999999999768,887.3000000476602,887.3000000476602,884.0999999999768,887.3000000476602,1.0,0.0,0.0,,Click Response,1_count,3.0,object-46,temp_dist_trial,9.0,s_sh_07_1,student_shared,ruler,10.0,competing,paired,s_sh_07_1.jpg,Student,,,sub-14
Desktop or Laptop,Windows 10,Chrome 138.0.0.0,2560x1440,2560x1440,Temporal Distance Task,cb_10,58.0,temp_dist_trial,num_items,zn7si1,1.0,response,2_ITEM,725.3000000953908,717.3000000000467,725.3000000953908,725.3000000953908,717.3000000000467,725.3000000953908,1.0,0.0,0.0,,Click Response,2_count,5.0,object-49,temp_dist_trial,10.0,s_a_12_1,student_art,saxophone,10.0,unique,paired,s_a_12_1.jpg,Student,,,sub-14
Desktop or Laptop,Windows 10,Chrome 138.0.0.0,2560x1440,2560x1440,Temporal Distance Task,cb_10,58.0,temp_dist_trial,dist_items,qkpkxw,2.0,info,,2.100000047706999,0.0,2.100000047706999,2.100000047706999,0.0,2.100000047706999,1.0,0.0,0.0,,Slider,Slider,4.0,object-56,temp_dist_trial,10.0,s_a_12_1,student_art,saxophone,10.0,unique,paired,s_a_12_1.jpg,Student,,,sub-14
Desktop or Laptop,Windows 10,Chrome 138.0.0.0,2560x1440,2560x1440,Temporal Distance Task,cb_10,58.0,temp_dist_trial,dist_items,qkpkxw,2.0,continue,,1685.4000000000233,1684.7000000000116,1685.4000000000233,1685.4000000000233,1684.7000000000116,1685.4000000000233,1.0,0.0,0.0,,Click To Continue,Next button,7.0,object-60,temp_dist_trial,10.0,s_a_12_1,student_art,saxophone,10.0,unique,paired,s_a_12_1.jpg,Student,,,sub-14
Desktop or Laptop,Windows 10,Chrome 138.0.0.0,2560x1440,2560x1440,Temporal Distance Task,cb_10,58.0,temp_dist_trial,dist_items,qkpkxw,2.0,response,64,784.0,1684.7000000000116,1685.600000047707,784.0,1684.7000000000116,1685.600000047707,1.0,901.6000000477072,0.0,,Slider,Slider,4.0,object-56,temp_dist_trial,10.0,s_a_12_1,student_art,saxophone,10.0,unique,paired,s_a_12_1.jpg,Student,,,sub-14
Desktop or Laptop,Windows 10,Chrome 138.0.0.0,2560x1440,2560x1440,Temporal Distance Task,cb_10,59.0,temp_dist_trial,num_items,zn7si1,1.0,response,2_ITEM,1975.2000000000119,1968.2999999999884,1975.2000000000119,1975.2000000000119,1968.2999999999884,1975.2000000000119,1.0,0.0,0.0,,Click Response,2_count,5.0,object-49,temp_dist_trial,11.0,s_sh_05_1,student_shared,laptop,10.0,competing,paired,s_sh_05_1.jpg,Student,,,sub-14
Desktop or Laptop,Windows 10,Chrome 138.0.0.0,2560x1440,2560x1440,Temporal Distance Task,cb_10,59.0,temp_dist_trial,dist_items,qkpkxw,2.0,info,,2.100000095379073,0.0,2.100000095379073,2.100000095379073,0.0,2.100000095379073,1.0,0.0,0.0,,Slider,Slider,4.0,object-56,temp_dist_trial,11.0,s_sh_05_1,student_shared,laptop,10.0,competing,paired,s_sh_05_1.jpg,Student,,,sub-14
Desktop or Laptop,Windows 10,Chrome 138.0.0.0,2560x1440,2560x1440,Temporal Distance Task,cb_10,59.0,temp_dist_trial,dist_items,qkpkxw,2.0,continue,,1392.5000000715372,1384.5,1392.5000000715372,1392.5000000715372,1384.5,1392.5000000715372,1.0,0.0,0.0,,Click To Continue,Next button,7.0,object-60,temp_dist_trial,11.0,s_sh_05_1,student_shared,laptop,10.0,competing,paired,s_sh_05_1.jpg,Student,,,sub-14
Desktop or Laptop,Windows 10,Chrome 138.0.0.0,2560x1440,2560x1440,Temporal Distance Task,cb_10,59.0,temp_dist_trial,dist_items,qkpkxw,2.0,response,65,617.2000000000116,1384.5,1392.7000000000116,617.2000000000116,1384.5,1392.7000000000116,1.0,775.5,0.0,,Slider,Slider,4.0,object-56,temp_dist_trial,11.0,s_sh_05_1,student_shared,laptop,10.0,competing,paired,s_sh_05_1.jpg,Student,,,sub-14
Desktop or Laptop,Windows 10,Chrome 138.0.0.0,2560x1440,2560x1440,Temporal Distance Task,cb_10,60.0,temp_dist_trial,num_items,zn7si1,1.0,response,2_ITEM,1056.100000095379,1050.9000000000233,1056.100000095379,1056.100000095379,1050.9000000000233,1056.100000095379,1.0,0.0,0.0,,Click Response,2_count,5.0,object-49,temp_dist_trial,12.0,s_a_18_1,student_art,tutu,10.0,unique,paired,s_a_18_1.jpg,Student,,,sub-14
Desktop or Laptop,Windows 10,Chrome 138.0.0.0,2560x1440,2560x1440,Temporal Distance Task,cb_10,60.0,temp_dist_trial,dist_items,qkpkxw,2.0,info,,2.3000000476604328,0.0,2.3000000476604328,2.3000000476604328,0.0,2.3000000476604328,1.0,0.0,0.0,,Slider,Slider,4.0,object-56,temp_dist_trial,12.0,s_a_18_1,student_art,tutu,10.0,unique,paired,s_a_18_1.jpg,Student,,,sub-14
Desktop or Laptop,Windows 10,Chrome 138.0.0.0,2560x1440,2560x1440,Temporal Distance Task,cb_10,60.0,temp_dist_trial,dist_items,qkpkxw,2.0,continue,,3282.400000071503,3269.2999999999884,3282.400000071503,3282.400000071503,3269.2999999999884,3282.400000071503,1.0,0.0,0.0,,Click To Continue,Next button,7.0,object-60,temp_dist_trial,12.0,s_a_18_1,student_art,tutu,10.0,unique,paired,s_a_18_1.jpg,Student,,,sub-14
Desktop or Laptop,Windows 10,Chrome 138.0.0.0,2560x1440,2560x1440,Temporal Distance Task,cb_10,60.0,temp_dist_trial,dist_items,qkpkxw,2.0,response,39,1651.2999999999884,3269.2999999999884,3284.400000071503,1651.2999999999884,3269.2999999999884,3284.400000071503,1.0,1633.100000071514,0.0,,Slider,Slider,4.0,object-56,temp_dist_trial,12.0,s_a_18_1,student_art,tutu,10.0,unique,paired,s_a_18_1.jpg,Student,,,sub-14
Desktop or Laptop,Windows 10,Chrome 138.0.0.0,2560x1440,2560x1440,Temporal Distance Task,cb_10,61.0,temp_dist_trial,num_items,zn7si1,1.0,response,1_ITEM,1130.9000000238302,1117.5,1130.9000000238302,1130.9000000238302,1117.5,1130.9000000238302,1.0,0.0,0.0,,Click Response,1_count,3.0,object-46,temp_dist_trial,13.0,s_s_02_1,student_stem,flask,10.0,unique,paired,s_s_02_1.jpg,Student,,,sub-14
Desktop or Laptop,Windows 10,Chrome 138.0.0.0,2560x1440,2560x1440,Temporal Distance Task,cb_10,62.0,temp_dist_trial,num_items,zn7si1,1.0,response,1_ITEM,2071.600000023842,2068.2999999999884,2071.600000023842,2071.600000023842,2068.2999999999884,2071.600000023842,1.0,0.0,0.0,,Click Response,1_count,3.0,object-46,temp_dist_trial,14.0,s_sh_17_1,student_shared,wireless mouse,10.0,competing,single,s_sh_17_1.jpg,Student,,,sub-14
Desktop or Laptop,Windows 10,Chrome 138.0.0.0,2560x1440,2560x1440,Temporal Distance Task,cb_10,63.0,temp_dist_trial,num_items,zn7si1,1.0,response,2_ITEM,1078.3000000953907,1067.5,1078.3000000953907,1078.3000000953907,1067.5,1078.3000000953907,1.0,0.0,0.0,,Click Response,2_count,5.0,object-49,temp_dist_trial,15.0,s_sh_24_1,student_shared,desk organizer,10.0,competing,paired,s_sh_24_1.jpg,Student,,,sub-14
Desktop or Laptop,Windows 10,Chrome 138.0.0.0,2560x1440,2560x1440,Temporal Distance Task,cb_10,63.0,temp_dist_trial,dist_items,qkpkxw,2.0,info,,1.900000047695357,0.0,1.900000047695357,1.900000047695357,0.0,1.900000047695357,1.0,0.0,0.0,,Slider,Slider,4.0,object-56,temp_dist_trial,15.0,s_sh_24_1,student_shared,desk organizer,10.0,competing,paired,s_sh_24_1.jpg,Student,,,sub-14
Desktop or Laptop,Windows 10,Chrome 138.0.0.0,2560x1440,2560x1440,Temporal Distance Task,cb_10,63.0,temp_dist_trial,dist_items,qkpkxw,2.0,continue,,1900.9000000476958,1884.9000000000235,1900.9000000476958,1900.9000000476958,1884.9000000000235,1900.9000000476958,1.0,0.0,0.0,,Click To Continue,Next button,7.0,object-60,temp_dist_trial,15.0,s_sh_24_1,student_shared,desk organizer,10.0,competing,paired,s_sh_24_1.jpg,Student,,,sub-14
Desktop or Laptop,Windows 10,Chrome 138.0.0.0,2560x1440,2560x1440,Temporal Distance Task,cb_10,63.0,temp_dist_trial,dist_items,qkpkxw,2.0,response,60,650.5,1884.9000000000235,1901.2000000000119,650.5,1884.9000000000235,1901.2000000000119,1.0,1250.7000000000114,0.0,,Slider,Slider,4.0,object-56,temp_dist_trial,15.0,s_sh_24_1,student_shared,desk organizer,10.0,competing,paired,s_sh_24_1.jpg,Student,,,sub-14
Desktop or Laptop,Windows 10,Chrome 138.0.0.0,2560x1440,2560x1440,Temporal Distance Task,cb_10,64.0,temp_dist_trial,num_items,zn7si1,1.0,response,1_ITEM,1104.600000071514,1100.7999999999884,1104.600000071514,1104.600000071514,1100.7999999999884,1104.600000071514,1.0,0.0,0.0,,Click Response,1_count,3.0,object-46,temp_dist_trial,16.0,s_s_19_1,student_stem,circuit board,10.0,unique,paired,s_s_19_1.jpg,Student,,,sub-14
Desktop or Laptop,Windows 10,Chrome 138.0.0.0,2560x1440,2560x1440,Temporal Distance Task,cb_10,65.0,temp_dist_trial,num_items,zn7si1,1.0,response,2_ITEM,1025.5000000715372,1017.5,1025.5000000715372,1025.5000000715372,1017.5,1025.5000000715372,1.0,0.0,0.0,,Click Response,2_count,5.0,object-49,temp_dist_trial,17.0,s_sh_02_1,student_shared,eraser,10.0,competing,paired,s_sh_02_1.jpg,Student,,,sub-14
Desktop or Laptop,Windows 10,Chrome 138.0.0.0,2560x1440,2560x1440,Temporal Distance Task,cb_10,65.0,temp_dist_trial,dist_items,qkpkxw,2.0,info,,2.3000000476604328,0.0,2.3000000476604328,2.3000000476604328,0.0,2.3000000476604328,1.0,0.0,0.0,,Slider,Slider,4.0,object-56,temp_dist_trial,17.0,s_sh_02_1,student_shared,eraser,10.0,competing,paired,s_sh_02_1.jpg,Student,,,sub-14
Desktop or Laptop,Windows 10,Chrome 138.0.0.0,2560x1440,2560x1440,Temporal Distance Task,cb_10,65.0,temp_dist_trial,dist_items,qkpkxw,2.0,continue,,1577.2000000238183,1568.0,1577.2000000238183,1577.2000000238183,1568.0,1577.2000000238183,1.0,0.0,0.0,,Click To Continue,Next button,7.0,object-60,temp_dist_trial,17.0,s_sh_02_1,student_shared,eraser,10.0,competing,paired,s_sh_02_1.jpg,Student,,,sub-14
Desktop or Laptop,Windows 10,Chrome 138.0.0.0,2560x1440,2560x1440,Temporal Distance Task,cb_10,65.0,temp_dist_trial,dist_items,qkpkxw,2.0,response,62,734.0999999999768,1568.0,1579.7000000238183,734.0999999999768,1568.0,1579.7000000238183,1.0,845.6000000238419,0.0,,Slider,Slider,4.0,object-56,temp_dist_trial,17.0,s_sh_02_1,student_shared,eraser,10.0,competing,paired,s_sh_02_1.jpg,Student,,,sub-14
Desktop or Laptop,Windows 10,Chrome 138.0.0.0,2560x1440,2560x1440,Temporal Distance Task,cb_10,66.0,temp_dist_trial,num_items,zn7si1,1.0,response,2_ITEM,2737.099999999977,2735.599999999977,2737.099999999977,2737.099999999977,2735.599999999977,2737.099999999977,1.0,0.0,0.0,,Click Response,2_count,5.0,object-49,temp_dist_trial,18.0,s_sh_03_1,student_shared,highlighter,10.0,competing,paired,s_sh_03_1.jpg,Student,,,sub-14
Desktop or Laptop,Windows 10,Chrome 138.0.0.0,2560x1440,2560x1440,Temporal Distance Task,cb_10,66.0,temp_dist_trial,dist_items,qkpkxw,2.0,info,,2.20000009535579,0.0,2.20000009535579,2.20000009535579,0.0,2.20000009535579,1.0,0.0,0.0,,Slider,Slider,4.0,object-56,temp_dist_trial,18.0,s_sh_03_1,student_shared,highlighter,10.0,competing,paired,s_sh_03_1.jpg,Student,,,sub-14
Desktop or Laptop,Windows 10,Chrome 138.0.0.0,2560x1440,2560x1440,Temporal Distance Task,cb_10,66.0,temp_dist_trial,dist_items,qkpkxw,2.0,continue,,4477.700000095356,4470.399999999965,4477.700000095356,4477.700000095356,4470.399999999965,4477.700000095356,1.0,0.0,0.0,,Click To Continue,Next button,7.0,object-60,temp_dist_trial,18.0,s_sh_03_1,student_shared,highlighter,10.0,competing,paired,s_sh_03_1.jpg,Student,,,sub-14
Desktop or Laptop,Windows 10,Chrome 138.0.0.0,2560x1440,2560x1440,Temporal Distance Task,cb_10,66.0,temp_dist_trial,dist_items,qkpkxw,2.0,response,72,2552.099999999977,4470.399999999965,4477.90000002383,2552.099999999977,4470.399999999965,4477.90000002383,1.0,1925.800000023853,0.0,,Slider,Slider,4.0,object-56,temp_dist_trial,18.0,s_sh_03_1,student_shared,highlighter,10.0,competing,paired,s_sh_03_1.jpg,Student,,,sub-14
Desktop or Laptop,Windows 10,Chrome 138.0.0.0,2560x1440,2560x1440,Temporal Distance Task,cb_10,67.0,temp_dist_trial,num_items,zn7si1,1.0,response,1_ITEM,1133.8000000953907,1117.5,1133.8000000953907,1133.8000000953907,1117.5,1133.8000000953907,1.0,0.0,0.0,,Click Response,1_count,3.0,object-46,temp_dist_trial,19.0,s_a_07_1,student_art,yarn,10.0,unique,single,s_a_07_1.jpg,Student,,,sub-14
Desktop or Laptop,Windows 10,Chrome 138.0.0.0,2560x1440,2560x1440,Temporal Distance Task,cb_10,68.0,temp_dist_trial,num_items,zn7si1,1.0,response,2_ITEM,2679.599999999977,2668.7999999999884,2679.599999999977,2679.599999999977,2668.7999999999884,2679.599999999977,1.0,0.0,0.0,,Click Response,2_count,5.0,object-49,temp_dist_trial,20.0,s_sh_15_1,student_shared,usb drive,10.0,competing,paired,s_sh_15_1.jpg,Student,,,sub-14
Desktop or Laptop,Windows 10,Chrome 138.0.0.0,2560x1440,2560x1440,Temporal Distance Task,cb_10,68.0,temp_dist_trial,dist_items,qkpkxw,2.0,info,,1.8000000476604328,0.0,1.8000000476604328,1.8000000476604328,0.0,1.8000000476604328,1.0,0.0,0.0,,Slider,Slider,4.0,object-56,temp_dist_trial,20.0,s_sh_15_1,student_shared,usb drive,10.0,competing,paired,s_sh_15_1.jpg,Student,,,sub-14
Desktop or Laptop,Windows 10,Chrome 138.0.0.0,2560x1440,2560x1440,Temporal Distance Task,cb_10,68.0,temp_dist_trial,dist_items,qkpkxw,2.0,continue,,1435.4000000715023,1434.5999999999767,1435.4000000715023,1435.4000000715023,1434.5999999999767,1435.4000000715023,1.0,0.0,0.0,,Click To Continue,Next button,7.0,object-60,temp_dist_trial,20.0,s_sh_15_1,student_shared,usb drive,10.0,competing,paired,s_sh_15_1.jpg,Student,,,sub-14
Desktop or Laptop,Windows 10,Chrome 138.0.0.0,2560x1440,2560x1440,Temporal Distance Task,cb_10,68.0,temp_dist_trial,dist_items,qkpkxw,2.0,response,32,533.7999999999884,1434.5999999999767,1435.5999999999767,533.7999999999884,1434.5999999999767,1435.5999999999767,1.0,901.7999999999884,0.0,,Slider,Slider,4.0,object-56,temp_dist_trial,20.0,s_sh_15_1,student_shared,usb drive,10.0,competing,paired,s_sh_15_1.jpg,Student,,,sub-14
Desktop or Laptop,Windows 10,Chrome 138.0.0.0,2560x1440,2560x1440,Temporal Distance Task,cb_10,69.0,temp_dist_trial,num_items,zn7si1,1.0,response,1_ITEM,873.6000000238419,867.2999999999884,873.6000000238419,873.6000000238419,867.2999999999884,873.6000000238419,1.0,0.0,0.0,,Click Response,1_count,3.0,object-46,temp_dist_trial,21.0,s_sh_09_1,student_shared,paper clips,10.0,competing,single,s_sh_09_1.jpg,Student,,,sub-14
Desktop or Laptop,Windows 10,Chrome 138.0.0.0,2560x1440,2560x1440,Temporal Distance Task,cb_10,70.0,temp_dist_trial,num_items,zn7si1,1.0,response,2_ITEM,1190.2000000476835,1184.2999999999886,1190.2000000476835,1190.2000000476835,1184.2999999999886,1190.2000000476835,1.0,0.0,0.0,,Click Response,2_count,5.0,object-49,temp_dist_trial,22.0,s_s_01_1,student_stem,microscope,10.0,unique,paired,s_s_01_1.jpg,Student,,,sub-14
Desktop or Laptop,Windows 10,Chrome 138.0.0.0,2560x1440,2560x1440,Temporal Distance Task,cb_10,70.0,temp_dist_trial,dist_items,qkpkxw,2.0,info,,3.0999999999767165,0.0,3.0999999999767165,3.0999999999767165,0.0,3.0999999999767165,1.0,0.0,0.0,,Slider,Slider,4.0,object-56,temp_dist_trial,22.0,s_s_01_1,student_stem,microscope,10.0,unique,paired,s_s_01_1.jpg,Student,,,sub-14
Desktop or Laptop,Windows 10,Chrome 138.0.0.0,2560x1440,2560x1440,Temporal Distance Task,cb_10,70.0,temp_dist_trial,dist_items,qkpkxw,2.0,continue,,1407.5999999999767,1401.2999999999884,1407.5999999999767,1407.5999999999767,1401.2999999999884,1407.5999999999767,1.0,0.0,0.0,,Click To Continue,Next button,7.0,object-60,temp_dist_trial,22.0,s_s_01_1,student_stem,microscope,10.0,unique,paired,s_s_01_1.jpg,Student,,,sub-14
Desktop or Laptop,Windows 10,Chrome 138.0.0.0,2560x1440,2560x1440,Temporal Distance Task,cb_10,70.0,temp_dist_trial,dist_items,qkpkxw,2.0,response,63,683.8999999999653,1401.2999999999884,1407.9000000715023,683.8999999999653,1401.2999999999884,1407.9000000715023,1.0,724.0000000715373,0.0,,Slider,Slider,4.0,object-56,temp_dist_trial,22.0,s_s_01_1,student_stem,microscope,10.0,unique,paired,s_s_01_1.jpg,Student,,,sub-14
Desktop or Laptop,Windows 10,Chrome 138.0.0.0,2560x1440,2560x1440,Temporal Distance Task,cb_10,71.0,temp_dist_trial,num_items,zn7si1,1.0,response,1_ITEM,1176.4000000238302,1167.5999999999767,1176.4000000238302,1176.4000000238302,1167.5999999999767,1176.4000000238302,1.0,0.0,0.0,,Click Response,1_count,3.0,object-46,temp_dist_trial,23.0,s_s_06_1,student_stem,calculator,10.0,unique,single,s_s_06_1.jpg,Student,,,sub-14
Desktop or Laptop,Windows 10,Chrome 138.0.0.0,2560x1440,2560x1440,Temporal Distance Task,cb_10,72.0,temp_dist_trial,num_items,zn7si1,1.0,response,1_ITEM,1696.0000000715372,1684.9000000000233,1696.0000000715372,1696.0000000715372,1684.9000000000233,1696.0000000715372,1.0,0.0,0.0,,Click Response,1_count,3.0,object-46,temp_dist_trial,24.0,s_a_15_1,student_art,drum kit,10.0,unique,single,s_a_15_1.jpg,Student,,,sub-14
Desktop or Laptop,Windows 10,Chrome 138.0.0.0,2560x1440,2560x1440,Temporal Distance Task,cb_10,73.0,temp_dist_trial,num_items,zn7si1,1.0,response,1_ITEM,764.5999999999768,750.5999999999768,764.5999999999768,764.5999999999768,750.5999999999768,764.5999999999768,1.0,0.0,0.0,,Click Response,1_count,3.0,object-46,temp_dist_trial,25.0,s_a_01_1,student_art,paintbrush,10.0,unique,single,s_a_01_1.jpg,Student,,,sub-14
Desktop or Laptop,Windows 10,Chrome 138.0.0.0,2560x1440,2560x1440,Temporal Distance Task,cb_10,74.0,temp_dist_trial,num_items,zn7si1,1.0,response,2_ITEM,930.4000000238302,917.2999999999884,930.4000000238302,930.4000000238302,917.2999999999884,930.4000000238302,1.0,0.0,0.0,,Click Response,2_count,5.0,object-49,temp_dist_trial,26.0,s_a_17_1,student_art,microphone,10.0,unique,paired,s_a_17_1.jpg,Student,,,sub-14
Desktop or Laptop,Windows 10,Chrome 138.0.0.0,2560x1440,2560x1440,Temporal Distance Task,cb_10,74.0,temp_dist_trial,dist_items,qkpkxw,2.0,info,,2.4000000715022907,0.0,2.4000000715022907,2.4000000715022907,0.0,2.4000000715022907,1.0,0.0,0.0,,Slider,Slider,4.0,object-56,temp_dist_trial,26.0,s_a_17_1,student_art,microphone,10.0,unique,paired,s_a_17_1.jpg,Student,,,sub-14
Desktop or Laptop,Windows 10,Chrome 138.0.0.0,2560x1440,2560x1440,Temporal Distance Task,cb_10,74.0,temp_dist_trial,dist_items,qkpkxw,2.0,continue,,3705.400000071503,3703.0,3705.400000071503,3705.400000071503,3703.0,3705.400000071503,1.0,0.0,0.0,,Click To Continue,Next button,7.0,object-60,temp_dist_trial,26.0,s_a_17_1,student_art,microphone,10.0,unique,paired,s_a_17_1.jpg,Student,,,sub-14
Desktop or Laptop,Windows 10,Chrome 138.0.0.0,2560x1440,2560x1440,Temporal Distance Task,cb_10,74.0,temp_dist_trial,dist_items,qkpkxw,2.0,response,84,850.5999999999768,3703.0,3705.5999999999767,850.5999999999768,3703.0,3705.5999999999767,1.0,2855.0,0.0,,Slider,Slider,4.0,object-56,temp_dist_trial,26.0,s_a_17_1,student_art,microphone,10.0,unique,paired,s_a_17_1.jpg,Student,,,sub-14
Desktop or Laptop,Windows 10,Chrome 138.0.0.0,2560x1440,2560x1440,Temporal Distance Task,cb_10,75.0,temp_dist_trial,num_items,zn7si1,1.0,response,2_ITEM,1260.0999999999767,1251.0,1260.0999999999767,1260.0999999999767,1251.0,1260.0999999999767,1.0,0.0,0.0,,Click Response,2_count,5.0,object-49,temp_dist_trial,27.0,s_a_05_1,student_art,clay,10.0,unique,paired,s_a_05_1.jpg,Student,,,sub-14
Desktop or Laptop,Windows 10,Chrome 138.0.0.0,2560x1440,2560x1440,Temporal Distance Task,cb_10,75.0,temp_dist_trial,dist_items,qkpkxw,2.0,info,,2.000000023865141,0.0,2.000000023865141,2.000000023865141,0.0,2.000000023865141,1.0,0.0,0.0,,Slider,Slider,4.0,object-56,temp_dist_trial,27.0,s_a_05_1,student_art,clay,10.0,unique,paired,s_a_05_1.jpg,Student,,,sub-14
Desktop or Laptop,Windows 10,Chrome 138.0.0.0,2560x1440,2560x1440,Temporal Distance Task,cb_10,75.0,temp_dist_trial,dist_items,qkpkxw,2.0,continue,,3163.0000000238647,3152.600000000035,3163.0000000238647,3163.0000000238647,3152.600000000035,3163.0000000238647,1.0,0.0,0.0,,Click To Continue,Next button,7.0,object-60,temp_dist_trial,27.0,s_a_05_1,student_art,clay,10.0,unique,paired,s_a_05_1.jpg,Student,,,sub-14
Desktop or Laptop,Windows 10,Chrome 138.0.0.0,2560x1440,2560x1440,Temporal Distance Task,cb_10,75.0,temp_dist_trial,dist_items,qkpkxw,2.0,response,62,1884.8000000000463,3152.600000000035,3163.4000000000237,1884.8000000000463,3152.600000000035,3163.4000000000237,1.0,1278.5999999999767,0.0,,Slider,Slider,4.0,object-56,temp_dist_trial,27.0,s_a_05_1,student_art,clay,10.0,unique,paired,s_a_05_1.jpg,Student,,,sub-14
Desktop or Laptop,Windows 10,Chrome 138.0.0.0,2560x1440,2560x1440,Temporal Distance Task,cb_10,76.0,temp_dist_trial,num_items,zn7si1,1.0,response,1_ITEM,2945.700000095356,2935.700000000012,2945.700000095356,2945.700000095356,2935.700000000012,2945.700000095356,1.0,0.0,0.0,,Click Response,1_count,3.0,object-46,temp_dist_trial,28.0,s_sh_21_1,student_shared,file holder,10.0,competing,paired,s_sh_21_1.jpg,Student,,,sub-14
Desktop or Laptop,Windows 10,Chrome 138.0.0.0,2560x1440,2560x1440,Temporal Distance Task,cb_10,77.0,temp_dist_trial,num_items,zn7si1,1.0,response,2_ITEM,1083.3000000953907,1067.5,1083.3000000953907,1083.3000000953907,1067.5,1083.3000000953907,1.0,0.0,0.0,,Click Response,2_count,5.0,object-49,temp_dist_trial,29.0,s_a_02_1,student_art,canvas,10.0,unique,paired,s_a_02_1.jpg,Student,,,sub-14
Desktop or Laptop,Windows 10,Chrome 138.0.0.0,2560x1440,2560x1440,Temporal Distance Task,cb_10,77.0,temp_dist_trial,dist_items,qkpkxw,2.0,info,,2.100000095379073,0.0,2.100000095379073,2.100000095379073,0.0,2.100000095379073,1.0,0.0,0.0,,Slider,Slider,4.0,object-56,temp_dist_trial,29.0,s_a_02_1,student_art,canvas,10.0,unique,paired,s_a_02_1.jpg,Student,,,sub-14
Desktop or Laptop,Windows 10,Chrome 138.0.0.0,2560x1440,2560x1440,Temporal Distance Task,cb_10,77.0,temp_dist_trial,dist_items,qkpkxw,2.0,continue,,2603.300000023853,2602.200000000012,2603.300000023853,2603.300000023853,2602.200000000012,2603.300000023853,1.0,0.0,0.0,,Click To Continue,Next button,7.0,object-60,temp_dist_trial,29.0,s_a_02_1,student_art,canvas,10.0,unique,paired,s_a_02_1.jpg,Student,,,sub-14
Desktop or Laptop,Windows 10,Chrome 138.0.0.0,2560x1440,2560x1440,Temporal Distance Task,cb_10,77.0,temp_dist_trial,dist_items,qkpkxw,2.0,response,82,1067.600000000035,2602.200000000012,2603.400000047696,1067.600000000035,2602.200000000012,2603.400000047696,1.0,1535.8000000476604,0.0,,Slider,Slider,4.0,object-56,temp_dist_trial,29.0,s_a_02_1,student_art,canvas,10.0,unique,paired,s_a_02_1.jpg,Student,,,sub-14
Desktop or Laptop,Windows 10,Chrome 138.0.0.0,2560x1440,2560x1440,Temporal Distance Task,cb_10,78.0,temp_dist_trial,num_items,zn7si1,1.0,response,2_ITEM,2067.700000047684,2051.700000000012,2067.700000047684,2067.700000047684,2051.700000000012,2067.700000047684,1.0,0.0,0.0,,Click Response,2_count,5.0,object-49,temp_dist_trial,30.0,s_s_11_1,student_stem,scientific scale,10.0,unique,single,s_s_11_1.jpg,Student,,,sub-14
Desktop or Laptop,Windows 10,Chrome 138.0.0.0,2560x1440,2560x1440,Temporal Distance Task,cb_10,78.0,temp_dist_trial,dist_items,qkpkxw,2.0,info,,1.9000000715022909,0.0,1.9000000715022909,1.9000000715022909,0.0,1.9000000715022909,1.0,0.0,0.0,,Slider,Slider,4.0,object-56,temp_dist_trial,30.0,s_s_11_1,student_stem,scientific scale,10.0,unique,single,s_s_11_1.jpg,Student,,,sub-14
Desktop or Laptop,Windows 10,Chrome 138.0.0.0,2560x1440,2560x1440,Temporal Distance Task,cb_10,78.0,temp_dist_trial,dist_items,qkpkxw,2.0,continue,,1567.9000000715023,1551.2999999999884,1567.9000000715023,1567.9000000715023,1551.2999999999884,1567.9000000715023,1.0,0.0,0.0,,Click To Continue,Next button,7.0,object-60,temp_dist_trial,30.0,s_s_11_1,student_stem,scientific scale,10.0,unique,single,s_s_11_1.jpg,Student,,,sub-14
Desktop or Laptop,Windows 10,Chrome 138.0.0.0,2560x1440,2560x1440,Temporal Distance Task,cb_10,78.0,temp_dist_trial,dist_items,qkpkxw,2.0,response,80,617.0999999999767,1551.2999999999884,1568.0,617.0999999999767,1551.2999999999884,1568.0,1.0,950.9000000000232,0.0,,Slider,Slider,4.0,object-56,temp_dist_trial,30.0,s_s_11_1,student_stem,scientific scale,10.0,unique,single,s_s_11_1.jpg,Student,,,sub-14
Desktop or Laptop,Windows 10,Chrome 138.0.0.0,2560x1440,2560x1440,Temporal Distance Task,cb_10,79.0,temp_dist_trial,num_items,zn7si1,1.0,response,1_ITEM,1291.9000000238302,1284.2999999999886,1291.9000000238302,1291.9000000238302,1284.2999999999886,1291.9000000238302,1.0,0.0,0.0,,Click Response,1_count,3.0,object-46,temp_dist_trial,31.0,s_a_14_1,student_art,guitar pick,10.0,unique,paired,s_a_14_1.jpg,Student,,,sub-14
Desktop or Laptop,Windows 10,Chrome 138.0.0.0,2560x1440,2560x1440,Temporal Distance Task,cb_10,80.0,temp_dist_trial,num_items,zn7si1,1.0,response,1_ITEM,1092.4000000238302,1084.2000000000116,1092.4000000238302,1092.4000000238302,1084.2000000000116,1092.4000000238302,1.0,0.0,0.0,,Click Response,1_count,3.0,object-46,temp_dist_trial,32.0,s_sh_22_1,student_shared,hole puncher,10.0,competing,single,s_sh_22_1.jpg,Student,,,sub-14
Desktop or Laptop,Windows 10,Chrome 138.0.0.0,2560x1440,2560x1440,Temporal Distance Task,cb_10,81.0,temp_dist_trial,num_items,zn7si1,1.0,response,1_ITEM,1272.3000000953907,1267.8000000000466,1272.3000000953907,1272.3000000953907,1267.8000000000466,1272.3000000953907,1.0,0.0,0.0,,Click Response,1_count,3.0,object-46,temp_dist_trial,33.0,s_sh_11_1,student_shared,pencil case,10.0,competing,paired,s_sh_11_1.jpg,Student,,,sub-14
Desktop or Laptop,Windows 10,Chrome 138.0.0.0,2560x1440,2560x1440,Temporal Distance Task,cb_10,82.0,temp_dist_trial,num_items,zn7si1,1.0,response,1_ITEM,1223.3000000953907,1217.600000000035,1223.3000000953907,1223.3000000953907,1217.600000000035,1223.3000000953907,1.0,0.0,0.0,,Click Response,1_count,3.0,object-46,temp_dist_trial,34.0,s_s_20_1,student_stem,dna model,10.0,unique,single,s_s_20_1.jpg,Student,,,sub-14
Desktop or Laptop,Windows 10,Chrome 138.0.0.0,2560x1440,2560x1440,Temporal Distance Task,cb_10,83.0,temp_dist_trial,num_items,zn7si1,1.0,response,2_ITEM,1184.1999999999534,1167.5999999999767,1184.1999999999534,1184.1999999999534,1167.5999999999767,1184.1999999999534,1.0,0.0,0.0,,Click Response,2_count,5.0,object-49,temp_dist_trial,35.0,s_s_07_1,student_stem,periodic table,10.0,unique,paired,s_s_07_1.jpg,Student,,,sub-14
Desktop or Laptop,Windows 10,Chrome 138.0.0.0,2560x1440,2560x1440,Temporal Distance Task,cb_10,83.0,temp_dist_trial,dist_items,qkpkxw,2.0,info,,2.200000000011641,0.0,2.200000000011641,2.200000000011641,0.0,2.200000000011641,1.0,0.0,0.0,,Slider,Slider,4.0,object-56,temp_dist_trial,35.0,s_s_07_1,student_stem,periodic table,10.0,unique,paired,s_s_07_1.jpg,Student,,,sub-14
Desktop or Laptop,Windows 10,Chrome 138.0.0.0,2560x1440,2560x1440,Temporal Distance Task,cb_10,83.0,temp_dist_trial,dist_items,qkpkxw,2.0,continue,,2709.200000000012,2702.200000000012,2709.200000000012,2709.200000000012,2702.200000000012,2709.200000000012,1.0,0.0,0.0,,Click To Continue,Next button,7.0,object-60,temp_dist_trial,35.0,s_s_07_1,student_stem,periodic table,10.0,unique,paired,s_s_07_1.jpg,Student,,,sub-14
Desktop or Laptop,Windows 10,Chrome 138.0.0.0,2560x1440,2560x1440,Temporal Distance Task,cb_10,83.0,temp_dist_trial,dist_items,qkpkxw,2.0,response,61,1067.5,2702.200000000012,2709.400000047696,1067.5,2702.200000000012,2709.400000047696,1.0,1641.9000000476956,0.0,,Slider,Slider,4.0,object-56,temp_dist_trial,35.0,s_s_07_1,student_stem,periodic table,10.0,unique,paired,s_s_07_1.jpg,Student,,,sub-14
Desktop or Laptop,Windows 10,Chrome 138.0.0.0,2560x1440,2560x1440,Temporal Distance Task,cb_10,84.0,temp_dist_trial,num_items,zn7si1,1.0,response,2_ITEM,1878.3000000715256,1868.2000000000119,1878.3000000715256,1878.3000000715256,1868.2000000000119,1878.3000000715256,1.0,0.0,0.0,,Click Response,2_count,5.0,object-49,temp_dist_trial,36.0,s_sh_19_1,student_shared,portable plastic drawer,10.0,competing,paired,s_sh_19_1.jpg,Student,,,sub-14
Desktop or Laptop,Windows 10,Chrome 138.0.0.0,2560x1440,2560x1440,Temporal Distance Task,cb_10,84.0,temp_dist_trial,dist_items,qkpkxw,2.0,info,,2.100000095379073,0.0,2.100000095379073,2.100000095379073,0.0,2.100000095379073,1.0,0.0,0.0,,Slider,Slider,4.0,object-56,temp_dist_trial,36.0,s_sh_19_1,student_shared,portable plastic drawer,10.0,competing,paired,s_sh_19_1.jpg,Student,,,sub-14
Desktop or Laptop,Windows 10,Chrome 138.0.0.0,2560x1440,2560x1440,Temporal Distance Task,cb_10,84.0,temp_dist_trial,dist_items,qkpkxw,2.0,continue,,1497.100000095379,1484.6000000000354,1497.100000095379,1497.100000095379,1484.6000000000354,1497.100000095379,1.0,0.0,0.0,,Click To Continue,Next button,7.0,object-60,temp_dist_trial,36.0,s_sh_19_1,student_shared,portable plastic drawer,10.0,competing,paired,s_sh_19_1.jpg,Student,,,sub-14
Desktop or Laptop,Windows 10,Chrome 138.0.0.0,2560x1440,2560x1440,Temporal Distance Task,cb_10,84.0,temp_dist_trial,dist_items,qkpkxw,2.0,response,70,600.7000000000116,1484.6000000000354,1499.100000095379,600.7000000000116,1484.6000000000354,1499.100000095379,1.0,898.4000000953674,0.0,,Slider,Slider,4.0,object-56,temp_dist_trial,36.0,s_sh_19_1,student_shared,portable plastic drawer,10.0,competing,paired,s_sh_19_1.jpg,Student,,,sub-14
Desktop or Laptop,Windows 10,Chrome 138.0.0.0,2560x1440,2560x1440,Temporal Distance Task,cb_10,85.0,temp_dist_trial,num_items,zn7si1,1.0,response,2_ITEM,1669.000000095344,1668.0999999999767,1669.000000095344,1669.000000095344,1668.0999999999767,1669.000000095344,1.0,0.0,0.0,,Click Response,2_count,5.0,object-49,temp_dist_trial,37.0,s_a_19_1,student_art,ballet shoes,10.0,unique,paired,s_a_19_1.jpg,Student,,,sub-14
Desktop or Laptop,Windows 10,Chrome 138.0.0.0,2560x1440,2560x1440,Temporal Distance Task,cb_10,85.0,temp_dist_trial,dist_items,qkpkxw,2.0,info,,1.900000000023283,0.0,1.900000000023283,1.900000000023283,0.0,1.900000000023283,1.0,0.0,0.0,,Slider,Slider,4.0,object-56,temp_dist_trial,37.0,s_a_19_1,student_art,ballet shoes,10.0,unique,paired,s_a_19_1.jpg,Student,,,sub-14
Desktop or Laptop,Windows 10,Chrome 138.0.0.0,2560x1440,2560x1440,Temporal Distance Task,cb_10,85.0,temp_dist_trial,dist_items,qkpkxw,2.0,continue,,1907.8000000953907,1901.7000000000119,1907.8000000953907,1907.8000000953907,1901.7000000000119,1907.8000000953907,1.0,0.0,0.0,,Click To Continue,Next button,7.0,object-60,temp_dist_trial,37.0,s_a_19_1,student_art,ballet shoes,10.0,unique,paired,s_a_19_1.jpg,Student,,,sub-14
Desktop or Laptop,Windows 10,Chrome 138.0.0.0,2560x1440,2560x1440,Temporal Distance Task,cb_10,85.0,temp_dist_trial,dist_items,qkpkxw,2.0,response,72,784.0,1901.7000000000119,1908.0000000238647,784.0,1901.7000000000119,1908.0000000238647,1.0,1124.0000000238651,0.0,,Slider,Slider,4.0,object-56,temp_dist_trial,37.0,s_a_19_1,student_art,ballet shoes,10.0,unique,paired,s_a_19_1.jpg,Student,,,sub-14
Desktop or Laptop,Windows 10,Chrome 138.0.0.0,2560x1440,2560x1440,Temporal Distance Task,cb_10,86.0,temp_dist_trial,num_items,zn7si1,1.0,response,2_ITEM,2854.300000023853,2852.200000000012,2854.300000023853,2854.300000023853,2852.200000000012,2854.300000023853,1.0,0.0,0.0,,Click Response,2_count,5.0,object-49,temp_dist_trial,38.0,s_sh_12_1,student_shared,binder,10.0,competing,paired,s_sh_12_1.jpg,Student,,,sub-14
Desktop or Laptop,Windows 10,Chrome 138.0.0.0,2560x1440,2560x1440,Temporal Distance Task,cb_10,86.0,temp_dist_trial,dist_items,qkpkxw,2.0,info,,1.900000047695357,0.0,1.900000047695357,1.900000047695357,0.0,1.900000047695357,1.0,0.0,0.0,,Slider,Slider,4.0,object-56,temp_dist_trial,38.0,s_sh_12_1,student_shared,binder,10.0,competing,paired,s_sh_12_1.jpg,Student,,,sub-14
Desktop or Laptop,Windows 10,Chrome 138.0.0.0,2560x1440,2560x1440,Temporal Distance Task,cb_10,86.0,temp_dist_trial,dist_items,qkpkxw,2.0,continue,,3575.4000000476954,3569.600000000035,3575.4000000476954,3575.4000000476954,3569.600000000035,3575.4000000476954,1.0,0.0,0.0,,Click To Continue,Next button,7.0,object-60,temp_dist_trial,38.0,s_sh_12_1,student_shared,binder,10.0,competing,paired,s_sh_12_1.jpg,Student,,,sub-14
Desktop or Laptop,Windows 10,Chrome 138.0.0.0,2560x1440,2560x1440,Temporal Distance Task,cb_10,86.0,temp_dist_trial,dist_items,qkpkxw,2.0,response,67,2351.9000000000233,3569.600000000035,3577.200000000012,2351.9000000000233,3569.600000000035,3577.200000000012,1.0,1225.2999999999886,0.0,,Slider,Slider,4.0,object-56,temp_dist_trial,38.0,s_sh_12_1,student_shared,binder,10.0,competing,paired,s_sh_12_1.jpg,Student,,,sub-14
Desktop or Laptop,Windows 10,Chrome 138.0.0.0,2560x1440,2560x1440,Temporal Distance Task,cb_10,87.0,temp_dist_trial,num_items,zn7si1,1.0,response,1_ITEM,2245.7000000238186,2235.1999999999534,2245.7000000238186,2245.7000000238186,2235.1999999999534,2245.7000000238186,1.0,0.0,0.0,,Click Response,1_count,3.0,object-46,temp_dist_trial,39.0,s_sh_20_1,student_shared,tape,10.0,competing,single,s_sh_20_1.jpg,Student,,,sub-14
Desktop or Laptop,Windows 10,Chrome 138.0.0.0,2560x1440,2560x1440,Temporal Distance Task,cb_10,88.0,temp_dist_trial,num_items,zn7si1,1.0,response,2_ITEM,1318.2000000953558,1317.7999999999886,1318.2000000953558,1318.2000000953558,1317.7999999999886,1318.2000000953558,1.0,0.0,0.0,,Click Response,2_count,5.0,object-49,temp_dist_trial,40.0,s_s_10_1,student_stem,3d molecule,10.0,unique,paired,s_s_10_1.jpg,Student,,,sub-14
Desktop or Laptop,Windows 10,Chrome 138.0.0.0,2560x1440,2560x1440,Temporal Distance Task,cb_10,88.0,temp_dist_trial,dist_items,qkpkxw,2.0,info,,2.5000000476720743,0.0,2.5000000476720743,2.5000000476720743,0.0,2.5000000476720743,1.0,0.0,0.0,,Slider,Slider,4.0,object-56,temp_dist_trial,40.0,s_s_10_1,student_stem,3d molecule,10.0,unique,paired,s_s_10_1.jpg,Student,,,sub-14
Desktop or Laptop,Windows 10,Chrome 138.0.0.0,2560x1440,2560x1440,Temporal Distance Task,cb_10,88.0,temp_dist_trial,dist_items,qkpkxw,2.0,continue,,4061.700000095356,4053.399999999965,4061.700000095356,4061.700000095356,4053.399999999965,4061.700000095356,1.0,0.0,0.0,,Click To Continue,Next button,7.0,object-60,temp_dist_trial,40.0,s_s_10_1,student_stem,3d molecule,10.0,unique,paired,s_s_10_1.jpg,Student,,,sub-14
Desktop or Laptop,Windows 10,Chrome 138.0.0.0,2560x1440,2560x1440,Temporal Distance Task,cb_10,88.0,temp_dist_trial,dist_items,qkpkxw,2.0,response,68,1801.5,4053.399999999965,4061.9000000238293,1801.5,4053.399999999965,4061.9000000238293,1.0,2260.4000000238298,0.0,,Slider,Slider,4.0,object-56,temp_dist_trial,40.0,s_s_10_1,student_stem,3d molecule,10.0,unique,paired,s_s_10_1.jpg,Student,,,sub-14
Desktop or Laptop,Windows 10,Chrome 138.0.0.0,2560x1440,2560x1440,Temporal Distance Task,cb_10,89.0,temp_dist_trial,num_items,zn7si1,1.0,response,2_ITEM,1229.9000000000233,1217.5,1229.9000000000233,1229.9000000000233,1217.5,1229.9000000000233,1.0,0.0,0.0,,Click Response,2_count,5.0,object-49,temp_dist_trial,41.0,s_sh_16_1,student_shared,stapler,10.0,competing,paired,s_sh_16_1.jpg,Student,,,sub-14
Desktop or Laptop,Windows 10,Chrome 138.0.0.0,2560x1440,2560x1440,Temporal Distance Task,cb_10,89.0,temp_dist_trial,dist_items,qkpkxw,2.0,info,,2.2000000238185757,0.0,2.2000000238185757,2.2000000238185757,0.0,2.2000000238185757,1.0,0.0,0.0,,Slider,Slider,4.0,object-56,temp_dist_trial,41.0,s_sh_16_1,student_shared,stapler,10.0,competing,paired,s_sh_16_1.jpg,Student,,,sub-14
Desktop or Laptop,Windows 10,Chrome 138.0.0.0,2560x1440,2560x1440,Temporal Distance Task,cb_10,89.0,temp_dist_trial,dist_items,qkpkxw,2.0,continue,,4839.000000095344,4837.299999999987,4839.000000095344,4839.000000095344,4837.299999999987,4839.000000095344,1.0,0.0,0.0,,Click To Continue,Next button,7.0,object-60,temp_dist_trial,41.0,s_sh_16_1,student_shared,stapler,10.0,competing,paired,s_sh_16_1.jpg,Student,,,sub-14
Desktop or Laptop,Windows 10,Chrome 138.0.0.0,2560x1440,2560x1440,Temporal Distance Task,cb_10,89.0,temp_dist_trial,dist_items,qkpkxw,2.0,response,67,700.5999999999768,4837.299999999987,4840.900000071502,700.5999999999768,4837.299999999987,4840.900000071502,1.0,4140.300000071526,0.0,,Slider,Slider,4.0,object-56,temp_dist_trial,41.0,s_sh_16_1,student_shared,stapler,10.0,competing,paired,s_sh_16_1.jpg,Student,,,sub-14
Desktop or Laptop,Windows 10,Chrome 138.0.0.0,2560x1440,2560x1440,Temporal Distance Task,cb_10,90.0,temp_dist_trial,num_items,zn7si1,1.0,response,2_ITEM,2042.900000023831,2034.8999999999646,2042.900000023831,2042.900000023831,2034.8999999999646,2042.900000023831,1.0,0.0,0.0,,Click Response,2_count,5.0,object-49,temp_dist_trial,42.0,s_a_06_1,student_art,pastels,10.0,unique,single,s_a_06_1.jpg,Student,,,sub-14
Desktop or Laptop,Windows 10,Chrome 138.0.0.0,2560x1440,2560x1440,Temporal Distance Task,cb_10,90.0,temp_dist_trial,dist_items,qkpkxw,2.0,info,,1.9000000715022909,0.0,1.9000000715022909,1.9000000715022909,0.0,1.9000000715022909,1.0,0.0,0.0,,Slider,Slider,4.0,object-56,temp_dist_trial,42.0,s_a_06_1,student_art,pastels,10.0,unique,single,s_a_06_1.jpg,Student,,,sub-14
Desktop or Laptop,Windows 10,Chrome 138.0.0.0,2560x1440,2560x1440,Temporal Distance Task,cb_10,90.0,temp_dist_trial,dist_items,qkpkxw,2.0,continue,,1738.8000000476604,1734.6999999999537,1738.8000000476604,1738.8000000476604,1734.6999999999537,1738.8000000476604,1.0,0.0,0.0,,Click To Continue,Next button,7.0,object-60,temp_dist_trial,42.0,s_a_06_1,student_art,pastels,10.0,unique,single,s_a_06_1.jpg,Student,,,sub-14
Desktop or Laptop,Windows 10,Chrome 138.0.0.0,2560x1440,2560x1440,Temporal Distance Task,cb_10,90.0,temp_dist_trial,dist_items,qkpkxw,2.0,response,65,784.0,1734.6999999999537,1739.0999999999767,784.0,1734.6999999999537,1739.0999999999767,1.0,955.0999999999768,0.0,,Slider,Slider,4.0,object-56,temp_dist_trial,42.0,s_a_06_1,student_art,pastels,10.0,unique,single,s_a_06_1.jpg,Student,,,sub-14
Desktop or Laptop,Windows 10,Chrome 138.0.0.0,2560x1440,2560x1440,Temporal Distance Task,cb_10,91.0,temp_dist_trial,num_items,zn7si1,1.0,response,1_ITEM,992.5000000238653,984.2000000000116,992.5000000238653,992.5000000238653,984.2000000000116,992.5000000238653,1.0,0.0,0.0,,Click Response,1_count,3.0,object-46,temp_dist_trial,43.0,s_s_16_1,student_stem,toolbox,10.0,unique,single,s_s_16_1.jpg,Student,,,sub-14
Desktop or Laptop,Windows 10,Chrome 138.0.0.0,2560x1440,2560x1440,Temporal Distance Task,cb_10,92.0,temp_dist_trial,num_items,zn7si1,1.0,response,2_ITEM,810.0999999999768,800.6999999999533,810.0999999999768,810.0999999999768,800.6999999999533,810.0999999999768,1.0,0.0,0.0,,Click Response,2_count,5.0,object-49,temp_dist_trial,44.0,s_a_16_1,student_art,piano,10.0,unique,paired,s_a_16_1.jpg,Student,,,sub-14
Desktop or Laptop,Windows 10,Chrome 138.0.0.0,2560x1440,2560x1440,Temporal Distance Task,cb_10,92.0,temp_dist_trial,dist_items,qkpkxw,2.0,info,,1.8000000476604328,0.0,1.8000000476604328,1.8000000476604328,0.0,1.8000000476604328,1.0,0.0,0.0,,Slider,Slider,4.0,object-56,temp_dist_trial,44.0,s_a_16_1,student_art,piano,10.0,unique,paired,s_a_16_1.jpg,Student,,,sub-14
Desktop or Laptop,Windows 10,Chrome 138.0.0.0,2560x1440,2560x1440,Temporal Distance Task,cb_10,92.0,temp_dist_trial,dist_items,qkpkxw,2.0,continue,,2870.3000000476604,2869.0,2870.3000000476604,2870.3000000476604,2869.0,2870.3000000476604,1.0,0.0,0.0,,Click To Continue,Next button,7.0,object-60,temp_dist_trial,44.0,s_a_16_1,student_art,piano,10.0,unique,paired,s_a_16_1.jpg,Student,,,sub-14
Desktop or Laptop,Windows 10,Chrome 138.0.0.0,2560x1440,2560x1440,Temporal Distance Task,cb_10,92.0,temp_dist_trial,dist_items,qkpkxw,2.0,response,68,1984.8999999999646,2869.0,2870.500000095344,1984.8999999999646,2869.0,2870.500000095344,1.0,885.6000000953792,0.0,,Slider,Slider,4.0,object-56,temp_dist_trial,44.0,s_a_16_1,student_art,piano,10.0,unique,paired,s_a_16_1.jpg,Student,,,sub-14
Desktop or Laptop,Windows 10,Chrome 138.0.0.0,2560x1440,2560x1440,Temporal Distance Task,cb_10,93.0,temp_dist_trial,num_items,zn7si1,1.0,response,2_ITEM,2411.3000000476604,2401.899999999965,2411.3000000476604,2411.3000000476604,2401.899999999965,2411.3000000476604,1.0,0.0,0.0,,Click Response,2_count,5.0,object-49,temp_dist_trial,45.0,s_sh_10_1,student_shared,scissors,10.0,competing,paired,s_sh_10_1.jpg,Student,,,sub-14
Desktop or Laptop,Windows 10,Chrome 138.0.0.0,2560x1440,2560x1440,Temporal Distance Task,cb_10,93.0,temp_dist_trial,dist_items,qkpkxw,2.0,info,,2.200000071548857,0.0,2.200000071548857,2.200000071548857,0.0,2.200000071548857,1.0,0.0,0.0,,Slider,Slider,4.0,object-56,temp_dist_trial,45.0,s_sh_10_1,student_shared,scissors,10.0,competing,paired,s_sh_10_1.jpg,Student,,,sub-14
Desktop or Laptop,Windows 10,Chrome 138.0.0.0,2560x1440,2560x1440,Temporal Distance Task,cb_10,93.0,temp_dist_trial,dist_items,qkpkxw,2.0,continue,,1769.4000000000233,1768.0,1769.4000000000233,1769.4000000000233,1768.0,1769.4000000000233,1.0,0.0,0.0,,Click To Continue,Next button,7.0,object-60,temp_dist_trial,45.0,s_sh_10_1,student_shared,scissors,10.0,competing,paired,s_sh_10_1.jpg,Student,,,sub-14
Desktop or Laptop,Windows 10,Chrome 138.0.0.0,2560x1440,2560x1440,Temporal Distance Task,cb_10,93.0,temp_dist_trial,dist_items,qkpkxw,2.0,response,38,783.9000000000232,1768.0,1769.600000047707,783.9000000000232,1768.0,1769.600000047707,1.0,985.7000000476836,0.0,,Slider,Slider,4.0,object-56,temp_dist_trial,45.0,s_sh_10_1,student_shared,scissors,10.0,competing,paired,s_sh_10_1.jpg,Student,,,sub-14
Desktop or Laptop,Windows 10,Chrome 138.0.0.0,2560x1440,2560x1440,Temporal Distance Task,cb_10,94.0,temp_dist_trial,num_items,zn7si1,1.0,response,1_ITEM,1656.9000000000233,1651.4000000000233,1656.9000000000233,1656.9000000000233,1651.4000000000233,1656.9000000000233,1.0,0.0,0.0,,Click Response,1_count,3.0,object-46,temp_dist_trial,46.0,s_sh_18_1,student_shared,wall calendar,10.0,competing,single,s_sh_18_1.jpg,Student,,,sub-14
Desktop or Laptop,Windows 10,Chrome 138.0.0.0,2560x1440,2560x1440,Temporal Distance Task,cb_10,95.0,temp_dist_trial,num_items,zn7si1,1.0,response,1_ITEM,1588.2000000953558,1584.7000000000116,1588.2000000953558,1588.2000000953558,1584.7000000000116,1588.2000000953558,1.0,0.0,0.0,,Click Response,1_count,3.0,object-46,temp_dist_trial,47.0,s_sh_23_1,student_shared,ballpoint pen,10.0,competing,paired,s_sh_23_1.jpg,Student,,,sub-14
Desktop or Laptop,Windows 10,Chrome 138.0.0.0,2560x1440,2560x1440,Temporal Distance Task,cb_10,96.0,temp_dist_trial,num_items,zn7si1,1.0,response,1_ITEM,946.9000000953674,934.0999999999768,946.9000000953674,946.9000000953674,934.0999999999768,946.9000000953674,1.0,0.0,0.0,,Click Response,1_count,3.0,object-46,temp_dist_trial,48.0,s_sh_08_1,student_shared,post-its,10.0,competing,single,s_sh_08_1.jpg,Student,,,sub-14
Desktop or Laptop,Windows 10,Chrome 138.0.0.0,2560x1440,2560x1440,Temporal Distance Task,$${counterbalance_group},,,,,,info,END,,,422224.0,,,,0.0,,,,,,,,,,,,,,,,,,,,sub-14
