Participant Device,Participant OS,Participant Browser,Participant Monitor Size,Participant Viewport Size,Task Name,Current Spreadsheet,Trial Number,Display,Screen,Screen ID,Screen Counter,Response Type,Response,Onset Time,Clock Time,Reaction Time,Absolute Onset Time,Absolute Clock Time,Absolute Reaction Time,Correct,Response Duration,Proportion,Tag,Component Name,Object Name,Object Number,Object ID,Spreadsheet: display,Spreadsheet: trial,Spreadsheet: stimulus_id,Spreadsheet: expected_goal,Spreadsheet: stimulus_name,Spreadsheet: c_group,Spreadsheet: condition,Spreadsheet: paired_status,Spreadsheet: stimulus_path,Spreadsheet: block_type,Manipulation: Spreadsheet,Store: enc_test_acc,sub_label
Desktop or Laptop,Windows 10,Firefox 140.0,1920x1080,1920x994,Temporal Distance Task,,,,,,,info,BEGIN,,,,,,,,,,,,,,,,,,,,,,,,,$${counterbalance_group},,sub-88
Desktop or Laptop,Windows 10,Firefox 140.0,1920x1080,1920x994,Temporal Distance Task,cb_06,1.0,temp_instructions,intro_screen,3tnme7,1.0,continue,,325841.80000000005,325834.86000000004,325841.80000000005,325841.80000000005,325834.86000000004,325841.80000000005,1.0,0.0,0.0,,Click To Continue,Continue Button,4.0,object-29,temp_instructions,,,Travel,,,,,,,$${counterbalance_group},,sub-88
Desktop or Laptop,Windows 10,Firefox 140.0,1920x1080,1920x994,Temporal Distance Task,cb_06,1.0,temp_instructions,intro_screen_2,52v7ur,2.0,continue,,66921.47999999997,66916.45999999996,66921.47999999997,66921.47999999997,66916.45999999996,66921.47999999997,1.0,0.0,0.0,,Click To Continue,Continue Button,4.0,object-39,temp_instructions,,,Travel,,,,,,,$${counterbalance_group},,sub-88
Desktop or Laptop,Windows 10,Firefox 140.0,1920x1080,1920x994,Temporal Distance Task,cb_06,1.0,temp_instructions,intro_screen_3,i7lvwx,3.0,continue,,1786.0200000000186,1784.3000000000463,1786.0200000000186,1786.0200000000186,1784.3000000000463,1786.0200000000186,1.0,0.0,0.0,,Click To Continue,Continue Button,4.0,object-67,temp_instructions,,,Travel,,,,,,,$${counterbalance_group},,sub-88
Desktop or Laptop,Windows 10,Firefox 140.0,1920x1080,1920x994,Temporal Distance Task,cb_06,1.0,temp_instructions,test_q1,5ieqx1,4.0,response,choice_3,3901.719999999972,3896.859999999986,3901.719999999972,3901.719999999972,3896.859999999986,3901.719999999972,1.0,0.0,0.0,,Click Response,choice_3,5.0,object-345,temp_instructions,,,Travel,,,,,,,$${counterbalance_group},,sub-88
Desktop or Laptop,Windows 10,Firefox 140.0,1920x1080,1920x994,Temporal Distance Task,cb_06,1.0,temp_instructions,score_corr,7ilvjr,5.0,continue,,10922.979999999981,10916.039999999979,10922.979999999981,10922.979999999981,10916.039999999979,10922.979999999981,1.0,0.0,0.0,,Click To Continue,Continue Button,3.0,object-23,temp_instructions,,,Travel,,,,,,,$${counterbalance_group},,sub-88
Desktop or Laptop,Windows 10,Firefox 140.0,1920x1080,1920x994,Temporal Distance Task,cb_06,1.0,temp_eventStart,Screen 1,dgtyxe,1.0,continue,,4772.820000000007,4771.640000000014,4772.820000000007,4772.820000000007,4771.640000000014,4772.820000000007,1.0,0.0,0.0,,Click To Continue,Next Button,3.0,object-43,temp_eventStart,,,Travel,,,,,,,$${counterbalance_group},,sub-88
Desktop or Laptop,Windows 10,Firefox 140.0,1920x1080,1920x994,Temporal Distance Task,cb_06,1.0,temp_dist_trial,num_items,zn7si1,1.0,response,num_miss,2999.279999999969,2999.279999999969,2999.279999999969,2999.279999999969,2999.279999999969,2999.279999999969,1.0,0.0,0.0,num_miss_tag,Time Limit,screen,0.0,screen,temp_dist_trial,1.0,t_i_05_1,travel_Iceland,hiking boots,6.0,unique,single,t_i_05_1.jpg,Travel,$${counterbalance_group},,sub-88
Desktop or Laptop,Windows 10,Firefox 140.0,1920x1080,1920x994,Temporal Distance Task,cb_06,2.0,temp_dist_trial,num_items,zn7si1,1.0,response,num_miss,2999.3000000000466,2999.3000000000466,2999.3000000000466,2999.3000000000466,2999.3000000000466,2999.3000000000466,1.0,0.0,0.0,num_miss_tag,Time Limit,screen,0.0,screen,temp_dist_trial,2.0,t_s_18_1,travel_shared,first aid kit,6.0,competing,single,t_s_18_1.jpg,Travel,$${counterbalance_group},,sub-88
Desktop or Laptop,Windows 10,Firefox 140.0,1920x1080,1920x994,Temporal Distance Task,cb_06,3.0,temp_dist_trial,num_items,zn7si1,1.0,response,2_ITEM,1791.5999999999767,1786.2599999999509,1791.5999999999767,1791.5999999999767,1786.2599999999509,1791.5999999999767,1.0,0.0,0.0,,Click Response,2_count,5.0,object-49,temp_dist_trial,3.0,t_s_13_1,travel_shared,contact lens case,6.0,competing,paired,t_s_13_1.jpg,Travel,$${counterbalance_group},,sub-88
Desktop or Laptop,Windows 10,Firefox 140.0,1920x1080,1920x994,Temporal Distance Task,cb_06,3.0,temp_dist_trial,dist_items,qkpkxw,2.0,info,,6.400000000023283,0.0,6.400000000023283,6.400000000023283,0.0,6.400000000023283,1.0,0.0,0.0,,Slider,Slider,4.0,object-56,temp_dist_trial,3.0,t_s_13_1,travel_shared,contact lens case,6.0,competing,paired,t_s_13_1.jpg,Travel,$${counterbalance_group},,sub-88
Desktop or Laptop,Windows 10,Firefox 140.0,1920x1080,1920x994,Temporal Distance Task,cb_06,3.0,temp_dist_trial,dist_items,qkpkxw,2.0,continue,,3867.1200000000536,3860.180000000051,3867.1200000000536,3867.1200000000536,3860.180000000051,3867.1200000000536,1.0,0.0,0.0,,Click To Continue,Next button,7.0,object-60,temp_dist_trial,3.0,t_s_13_1,travel_shared,contact lens case,6.0,competing,paired,t_s_13_1.jpg,Travel,$${counterbalance_group},,sub-88
Desktop or Laptop,Windows 10,Firefox 140.0,1920x1080,1920x994,Temporal Distance Task,cb_06,3.0,temp_dist_trial,dist_items,qkpkxw,2.0,response,30,2152.2600000000093,3860.180000000051,3867.1200000000536,2152.2600000000093,3860.180000000051,3867.1200000000536,1.0,1714.8600000000442,0.0,,Slider,Slider,4.0,object-56,temp_dist_trial,3.0,t_s_13_1,travel_shared,contact lens case,6.0,competing,paired,t_s_13_1.jpg,Travel,$${counterbalance_group},,sub-88
Desktop or Laptop,Windows 10,Firefox 140.0,1920x1080,1920x994,Temporal Distance Task,cb_06,4.0,temp_dist_trial,num_items,zn7si1,1.0,response,2_ITEM,1190.2199999999718,1187.2199999999718,1190.2199999999718,1190.2199999999718,1187.2199999999718,1190.2199999999718,1.0,0.0,0.0,,Click Response,2_count,5.0,object-49,temp_dist_trial,4.0,t_i_11_1,travel_Iceland,headlamp,6.0,unique,paired,t_i_11_1.jpg,Travel,$${counterbalance_group},,sub-88
Desktop or Laptop,Windows 10,Firefox 140.0,1920x1080,1920x994,Temporal Distance Task,cb_06,4.0,temp_dist_trial,dist_items,qkpkxw,2.0,info,,6.0599999999976735,0.0,6.0599999999976735,6.0599999999976735,0.0,6.0599999999976735,1.0,0.0,0.0,,Slider,Slider,4.0,object-56,temp_dist_trial,4.0,t_i_11_1,travel_Iceland,headlamp,6.0,unique,paired,t_i_11_1.jpg,Travel,$${counterbalance_group},,sub-88
Desktop or Laptop,Windows 10,Firefox 140.0,1920x1080,1920x994,Temporal Distance Task,cb_06,4.0,temp_dist_trial,dist_items,qkpkxw,2.0,continue,,2333.0599999999977,2327.7999999999884,2333.0599999999977,2333.0599999999977,2327.7999999999884,2333.0599999999977,1.0,0.0,0.0,,Click To Continue,Next button,7.0,object-60,temp_dist_trial,4.0,t_i_11_1,travel_Iceland,headlamp,6.0,unique,paired,t_i_11_1.jpg,Travel,$${counterbalance_group},,sub-88
Desktop or Laptop,Windows 10,Firefox 140.0,1920x1080,1920x994,Temporal Distance Task,cb_06,4.0,temp_dist_trial,dist_items,qkpkxw,2.0,response,70,1020.5999999999768,2327.7999999999884,2333.0599999999977,1020.5999999999768,2327.7999999999884,2333.0599999999977,1.0,1312.460000000021,0.0,,Slider,Slider,4.0,object-56,temp_dist_trial,4.0,t_i_11_1,travel_Iceland,headlamp,6.0,unique,paired,t_i_11_1.jpg,Travel,$${counterbalance_group},,sub-88
Desktop or Laptop,Windows 10,Firefox 140.0,1920x1080,1920x994,Temporal Distance Task,cb_06,5.0,temp_dist_trial,num_items,zn7si1,1.0,response,2_ITEM,997.2600000000093,992.820000000007,997.2600000000093,997.2600000000093,992.820000000007,997.2600000000093,1.0,0.0,0.0,,Click Response,2_count,5.0,object-49,temp_dist_trial,5.0,t_s_07_1,travel_shared,phone charger cable,6.0,competing,single,t_s_07_1.jpg,Travel,$${counterbalance_group},,sub-88
Desktop or Laptop,Windows 10,Firefox 140.0,1920x1080,1920x994,Temporal Distance Task,cb_06,5.0,temp_dist_trial,dist_items,qkpkxw,2.0,info,,6.5,0.0,6.5,6.5,0.0,6.5,1.0,0.0,0.0,,Slider,Slider,4.0,object-56,temp_dist_trial,5.0,t_s_07_1,travel_shared,phone charger cable,6.0,competing,single,t_s_07_1.jpg,Travel,$${counterbalance_group},,sub-88
Desktop or Laptop,Windows 10,Firefox 140.0,1920x1080,1920x994,Temporal Distance Task,cb_06,5.0,temp_dist_trial,dist_items,qkpkxw,2.0,continue,,5018.5,5012.700000000013,5018.5,5018.5,5012.700000000013,5018.5,1.0,0.0,0.0,,Click To Continue,Next button,7.0,object-60,temp_dist_trial,5.0,t_s_07_1,travel_shared,phone charger cable,6.0,competing,single,t_s_07_1.jpg,Travel,$${counterbalance_group},,sub-88
Desktop or Laptop,Windows 10,Firefox 140.0,1920x1080,1920x994,Temporal Distance Task,cb_06,5.0,temp_dist_trial,dist_items,qkpkxw,2.0,response,44,1596.8400000000256,5012.700000000013,5018.5,1596.8400000000256,5012.700000000013,5018.5,1.0,3421.6599999999744,0.0,,Slider,Slider,4.0,object-56,temp_dist_trial,5.0,t_s_07_1,travel_shared,phone charger cable,6.0,competing,single,t_s_07_1.jpg,Travel,$${counterbalance_group},,sub-88
Desktop or Laptop,Windows 10,Firefox 140.0,1920x1080,1920x994,Temporal Distance Task,cb_06,6.0,temp_dist_trial,num_items,zn7si1,1.0,response,2_ITEM,1537.7999999999884,1534.359999999986,1537.7999999999884,1537.7999999999884,1534.359999999986,1537.7999999999884,1.0,0.0,0.0,,Click Response,2_count,5.0,object-49,temp_dist_trial,6.0,t_i_12_1,travel_Iceland,tent,6.0,unique,paired,t_i_12_1.jpg,Travel,$${counterbalance_group},,sub-88
Desktop or Laptop,Windows 10,Firefox 140.0,1920x1080,1920x994,Temporal Distance Task,cb_06,6.0,temp_dist_trial,dist_items,qkpkxw,2.0,info,,5.539999999979045,0.0,5.539999999979045,5.539999999979045,0.0,5.539999999979045,1.0,0.0,0.0,,Slider,Slider,4.0,object-56,temp_dist_trial,6.0,t_i_12_1,travel_Iceland,tent,6.0,unique,paired,t_i_12_1.jpg,Travel,$${counterbalance_group},,sub-88
Desktop or Laptop,Windows 10,Firefox 140.0,1920x1080,1920x994,Temporal Distance Task,cb_06,6.0,temp_dist_trial,dist_items,qkpkxw,2.0,continue,,2565.539999999979,2561.899999999965,2565.539999999979,2565.539999999979,2561.899999999965,2565.539999999979,1.0,0.0,0.0,,Click To Continue,Next button,7.0,object-60,temp_dist_trial,6.0,t_i_12_1,travel_Iceland,tent,6.0,unique,paired,t_i_12_1.jpg,Travel,$${counterbalance_group},,sub-88
Desktop or Laptop,Windows 10,Firefox 140.0,1920x1080,1920x994,Temporal Distance Task,cb_06,6.0,temp_dist_trial,dist_items,qkpkxw,2.0,response,40,1013.6599999999744,2561.899999999965,2566.539999999979,1013.6599999999744,2561.899999999965,2566.539999999979,1.0,1552.8800000000049,0.0,,Slider,Slider,4.0,object-56,temp_dist_trial,6.0,t_i_12_1,travel_Iceland,tent,6.0,unique,paired,t_i_12_1.jpg,Travel,$${counterbalance_group},,sub-88
Desktop or Laptop,Windows 10,Firefox 140.0,1920x1080,1920x994,Temporal Distance Task,cb_06,7.0,temp_dist_trial,num_items,zn7si1,1.0,response,1_ITEM,1338.640000000014,1333.0200000000184,1338.640000000014,1338.640000000014,1333.0200000000184,1338.640000000014,1.0,0.0,0.0,,Click Response,1_count,3.0,object-46,temp_dist_trial,7.0,t_m_02_1,travel_Miami,t-shirt,6.0,unique,single,t_m_02_1.jpg,Travel,$${counterbalance_group},,sub-88
Desktop or Laptop,Windows 10,Firefox 140.0,1920x1080,1920x994,Temporal Distance Task,cb_06,8.0,temp_dist_trial,num_items,zn7si1,1.0,response,2_ITEM,1171.679999999993,1166.3800000000047,1171.679999999993,1171.679999999993,1166.3800000000047,1171.679999999993,1.0,0.0,0.0,,Click Response,2_count,5.0,object-49,temp_dist_trial,8.0,t_s_19_1,travel_shared,pajamas,6.0,competing,paired,t_s_19_1.jpg,Travel,$${counterbalance_group},,sub-88
Desktop or Laptop,Windows 10,Firefox 140.0,1920x1080,1920x994,Temporal Distance Task,cb_06,8.0,temp_dist_trial,dist_items,qkpkxw,2.0,info,,6.35999999998603,0.0,6.35999999998603,6.35999999998603,0.0,6.35999999998603,1.0,0.0,0.0,,Slider,Slider,4.0,object-56,temp_dist_trial,8.0,t_s_19_1,travel_shared,pajamas,6.0,competing,paired,t_s_19_1.jpg,Travel,$${counterbalance_group},,sub-88
Desktop or Laptop,Windows 10,Firefox 140.0,1920x1080,1920x994,Temporal Distance Task,cb_06,8.0,temp_dist_trial,dist_items,qkpkxw,2.0,continue,,2763.359999999986,2758.2600000000093,2763.359999999986,2763.359999999986,2758.2600000000093,2763.359999999986,1.0,0.0,0.0,,Click To Continue,Next button,7.0,object-60,temp_dist_trial,8.0,t_s_19_1,travel_shared,pajamas,6.0,competing,paired,t_s_19_1.jpg,Travel,$${counterbalance_group},,sub-88
Desktop or Laptop,Windows 10,Firefox 140.0,1920x1080,1920x994,Temporal Distance Task,cb_06,8.0,temp_dist_trial,dist_items,qkpkxw,2.0,response,60,1478.820000000007,2758.2600000000093,2763.359999999986,1478.820000000007,2758.2600000000093,2763.359999999986,1.0,1284.539999999979,0.0,,Slider,Slider,4.0,object-56,temp_dist_trial,8.0,t_s_19_1,travel_shared,pajamas,6.0,competing,paired,t_s_19_1.jpg,Travel,$${counterbalance_group},,sub-88
Desktop or Laptop,Windows 10,Firefox 140.0,1920x1080,1920x994,Temporal Distance Task,cb_06,9.0,temp_dist_trial,num_items,zn7si1,1.0,response,1_ITEM,2214.0999999999767,2207.819999999949,2214.0999999999767,2214.0999999999767,2207.819999999949,2214.0999999999767,1.0,0.0,0.0,,Click Response,1_count,3.0,object-46,temp_dist_trial,9.0,t_s_11_1,travel_shared,eye mask,6.0,competing,single,t_s_11_1.jpg,Travel,$${counterbalance_group},,sub-88
Desktop or Laptop,Windows 10,Firefox 140.0,1920x1080,1920x994,Temporal Distance Task,cb_06,10.0,temp_dist_trial,num_items,zn7si1,1.0,response,2_ITEM,1336.3400000000254,1333.0200000000184,1336.3400000000254,1336.3400000000254,1333.0200000000184,1336.3400000000254,1.0,0.0,0.0,,Click Response,2_count,5.0,object-49,temp_dist_trial,10.0,t_s_04_1,travel_shared,instant camera,6.0,competing,paired,t_s_04_1.jpg,Travel,$${counterbalance_group},,sub-88
Desktop or Laptop,Windows 10,Firefox 140.0,1920x1080,1920x994,Temporal Distance Task,cb_06,10.0,temp_dist_trial,dist_items,qkpkxw,2.0,info,,5.3800000000046575,0.0,5.3800000000046575,5.3800000000046575,0.0,5.3800000000046575,1.0,0.0,0.0,,Slider,Slider,4.0,object-56,temp_dist_trial,10.0,t_s_04_1,travel_shared,instant camera,6.0,competing,paired,t_s_04_1.jpg,Travel,$${counterbalance_group},,sub-88
Desktop or Laptop,Windows 10,Firefox 140.0,1920x1080,1920x994,Temporal Distance Task,cb_06,10.0,temp_dist_trial,dist_items,qkpkxw,2.0,continue,,5317.380000000005,5313.200000000013,5317.380000000005,5317.380000000005,5313.200000000013,5317.380000000005,1.0,0.0,0.0,,Click To Continue,Next button,7.0,object-60,temp_dist_trial,10.0,t_s_04_1,travel_shared,instant camera,6.0,competing,paired,t_s_04_1.jpg,Travel,$${counterbalance_group},,sub-88
Desktop or Laptop,Windows 10,Firefox 140.0,1920x1080,1920x994,Temporal Distance Task,cb_06,10.0,temp_dist_trial,dist_items,qkpkxw,2.0,response,35,1263.5800000000165,5313.200000000013,5318.380000000005,1263.5800000000165,5313.200000000013,5318.380000000005,1.0,4054.799999999989,0.0,,Slider,Slider,4.0,object-56,temp_dist_trial,10.0,t_s_04_1,travel_shared,instant camera,6.0,competing,paired,t_s_04_1.jpg,Travel,$${counterbalance_group},,sub-88
Desktop or Laptop,Windows 10,Firefox 140.0,1920x1080,1920x994,Temporal Distance Task,cb_06,11.0,temp_dist_trial,num_items,zn7si1,1.0,response,1_ITEM,1957.179999999993,1950.9199999999842,1957.179999999993,1957.179999999993,1950.9199999999842,1957.179999999993,1.0,0.0,0.0,,Click Response,1_count,3.0,object-46,temp_dist_trial,11.0,t_m_20_1,travel_Miami,inflatable beachball,6.0,unique,paired,t_m_20_1.jpg,Travel,$${counterbalance_group},,sub-88
Desktop or Laptop,Windows 10,Firefox 140.0,1920x1080,1920x994,Temporal Distance Task,cb_06,12.0,temp_dist_trial,num_items,zn7si1,1.0,response,1_ITEM,1852.320000000007,1846.7800000000282,1852.320000000007,1852.320000000007,1846.7800000000282,1852.320000000007,1.0,0.0,0.0,,Click Response,1_count,3.0,object-46,temp_dist_trial,12.0,t_m_11_1,travel_Miami,collapsible beach chair,6.0,unique,paired,t_m_11_1.jpg,Travel,$${counterbalance_group},,sub-88
Desktop or Laptop,Windows 10,Firefox 140.0,1920x1080,1920x994,Temporal Distance Task,cb_06,13.0,temp_dist_trial,num_items,zn7si1,1.0,response,1_ITEM,1074.5999999999767,1069.1999999999532,1074.5999999999767,1074.5999999999767,1069.1999999999532,1074.5999999999767,1.0,0.0,0.0,,Click Response,1_count,3.0,object-46,temp_dist_trial,13.0,t_s_22_1,travel_shared,belt,6.0,competing,single,t_s_22_1.jpg,Travel,$${counterbalance_group},,sub-88
Desktop or Laptop,Windows 10,Firefox 140.0,1920x1080,1920x994,Temporal Distance Task,cb_06,14.0,temp_dist_trial,num_items,zn7si1,1.0,response,2_ITEM,1498.460000000021,1494.640000000014,1498.460000000021,1498.460000000021,1494.640000000014,1498.460000000021,1.0,0.0,0.0,,Click Response,2_count,5.0,object-49,temp_dist_trial,14.0,t_i_13_1,travel_Iceland,sleeping bag,6.0,unique,single,t_i_13_1.jpg,Travel,$${counterbalance_group},,sub-88
Desktop or Laptop,Windows 10,Firefox 140.0,1920x1080,1920x994,Temporal Distance Task,cb_06,14.0,temp_dist_trial,dist_items,qkpkxw,2.0,info,,4.8800000000046575,0.0,4.8800000000046575,4.8800000000046575,0.0,4.8800000000046575,1.0,0.0,0.0,,Slider,Slider,4.0,object-56,temp_dist_trial,14.0,t_i_13_1,travel_Iceland,sleeping bag,6.0,unique,single,t_i_13_1.jpg,Travel,$${counterbalance_group},,sub-88
Desktop or Laptop,Windows 10,Firefox 140.0,1920x1080,1920x994,Temporal Distance Task,cb_06,14.0,temp_dist_trial,dist_items,qkpkxw,2.0,continue,,3357.8800000000047,3353.3800000000047,3357.8800000000047,3357.8800000000047,3353.3800000000047,3357.8800000000047,1.0,0.0,0.0,,Click To Continue,Next button,7.0,object-60,temp_dist_trial,14.0,t_i_13_1,travel_Iceland,sleeping bag,6.0,unique,single,t_i_13_1.jpg,Travel,$${counterbalance_group},,sub-88
Desktop or Laptop,Windows 10,Firefox 140.0,1920x1080,1920x994,Temporal Distance Task,cb_06,14.0,temp_dist_trial,dist_items,qkpkxw,2.0,response,57,583.2000000000116,3353.3800000000047,3358.8800000000047,583.2000000000116,3353.3800000000047,3358.8800000000047,1.0,2775.6799999999935,0.0,,Slider,Slider,4.0,object-56,temp_dist_trial,14.0,t_i_13_1,travel_Iceland,sleeping bag,6.0,unique,single,t_i_13_1.jpg,Travel,$${counterbalance_group},,sub-88
Desktop or Laptop,Windows 10,Firefox 140.0,1920x1080,1920x994,Temporal Distance Task,cb_06,15.0,temp_dist_trial,num_items,zn7si1,1.0,response,num_miss,2999.280000000028,2999.280000000028,2999.280000000028,2999.280000000028,2999.280000000028,2999.280000000028,1.0,0.0,0.0,num_miss_tag,Time Limit,screen,0.0,screen,temp_dist_trial,15.0,t_s_06_1,travel_shared,luggage,6.0,competing,paired,t_s_06_1.jpg,Travel,$${counterbalance_group},,sub-88
Desktop or Laptop,Windows 10,Firefox 140.0,1920x1080,1920x994,Temporal Distance Task,cb_06,16.0,temp_dist_trial,num_items,zn7si1,1.0,response,2_ITEM,1944.2199999999718,1939.0199999999606,1944.2199999999718,1944.2199999999718,1939.0199999999606,1944.2199999999718,1.0,0.0,0.0,,Click Response,2_count,5.0,object-49,temp_dist_trial,16.0,t_i_09_1,travel_Iceland,ear muffs,6.0,unique,single,t_i_09_1.jpg,Travel,$${counterbalance_group},,sub-88
Desktop or Laptop,Windows 10,Firefox 140.0,1920x1080,1920x994,Temporal Distance Task,cb_06,16.0,temp_dist_trial,dist_items,qkpkxw,2.0,info,,4.260000000009313,0.0,4.260000000009313,4.260000000009313,0.0,4.260000000009313,1.0,0.0,0.0,,Slider,Slider,4.0,object-56,temp_dist_trial,16.0,t_i_09_1,travel_Iceland,ear muffs,6.0,unique,single,t_i_09_1.jpg,Travel,$${counterbalance_group},,sub-88
Desktop or Laptop,Windows 10,Firefox 140.0,1920x1080,1920x994,Temporal Distance Task,cb_06,16.0,temp_dist_trial,dist_items,qkpkxw,2.0,continue,,4997.260000000009,4991.859999999986,4997.260000000009,4997.260000000009,4991.859999999986,4997.260000000009,1.0,0.0,0.0,,Click To Continue,Next button,7.0,object-60,temp_dist_trial,16.0,t_i_09_1,travel_Iceland,ear muffs,6.0,unique,single,t_i_09_1.jpg,Travel,$${counterbalance_group},,sub-88
Desktop or Laptop,Windows 10,Firefox 140.0,1920x1080,1920x994,Temporal Distance Task,cb_06,16.0,temp_dist_trial,dist_items,qkpkxw,2.0,response,40,1013.6400000000141,4991.859999999986,4998.260000000009,1013.6400000000141,4991.859999999986,4998.260000000009,1.0,3984.6199999999953,0.0,,Slider,Slider,4.0,object-56,temp_dist_trial,16.0,t_i_09_1,travel_Iceland,ear muffs,6.0,unique,single,t_i_09_1.jpg,Travel,$${counterbalance_group},,sub-88
Desktop or Laptop,Windows 10,Firefox 140.0,1920x1080,1920x994,Temporal Distance Task,cb_06,17.0,temp_dist_trial,num_items,zn7si1,1.0,response,1_ITEM,2042.4000000000235,2036.2000000000119,2042.4000000000235,2042.4000000000235,2036.2000000000119,2042.4000000000235,1.0,0.0,0.0,,Click Response,1_count,3.0,object-46,temp_dist_trial,17.0,t_i_03_1,travel_Iceland,winter jacket,6.0,unique,paired,t_i_03_1.jpg,Travel,$${counterbalance_group},,sub-88
Desktop or Laptop,Windows 10,Firefox 140.0,1920x1080,1920x994,Temporal Distance Task,cb_06,18.0,temp_dist_trial,num_items,zn7si1,1.0,response,1_ITEM,1054.2600000000093,1048.3800000000047,1054.2600000000093,1054.2600000000093,1048.3800000000047,1054.2600000000093,1.0,0.0,0.0,,Click Response,1_count,3.0,object-46,temp_dist_trial,18.0,t_i_15_1,travel_Iceland,compass,6.0,unique,single,t_i_15_1.jpg,Travel,$${counterbalance_group},,sub-88
Desktop or Laptop,Windows 10,Firefox 140.0,1920x1080,1920x994,Temporal Distance Task,cb_06,19.0,temp_dist_trial,num_items,zn7si1,1.0,response,2_ITEM,1080.9400000000023,1076.1199999999953,1080.9400000000023,1080.9400000000023,1076.1199999999953,1080.9400000000023,1.0,0.0,0.0,,Click Response,2_count,5.0,object-49,temp_dist_trial,19.0,t_i_06_1,travel_Iceland,knit hat,6.0,unique,paired,t_i_06_1.jpg,Travel,$${counterbalance_group},,sub-88
Desktop or Laptop,Windows 10,Firefox 140.0,1920x1080,1920x994,Temporal Distance Task,cb_06,19.0,temp_dist_trial,dist_items,qkpkxw,2.0,info,,4.8800000000046575,0.0,4.8800000000046575,4.8800000000046575,0.0,4.8800000000046575,1.0,0.0,0.0,,Slider,Slider,4.0,object-56,temp_dist_trial,19.0,t_i_06_1,travel_Iceland,knit hat,6.0,unique,paired,t_i_06_1.jpg,Travel,$${counterbalance_group},,sub-88
Desktop or Laptop,Windows 10,Firefox 140.0,1920x1080,1920x994,Temporal Distance Task,cb_06,19.0,temp_dist_trial,dist_items,qkpkxw,2.0,continue,,2600.8800000000047,2596.6199999999953,2600.8800000000047,2600.8800000000047,2596.6199999999953,2600.8800000000047,1.0,0.0,0.0,,Click To Continue,Next button,7.0,object-60,temp_dist_trial,19.0,t_i_06_1,travel_Iceland,knit hat,6.0,unique,paired,t_i_06_1.jpg,Travel,$${counterbalance_group},,sub-88
Desktop or Laptop,Windows 10,Firefox 140.0,1920x1080,1920x994,Temporal Distance Task,cb_06,19.0,temp_dist_trial,dist_items,qkpkxw,2.0,response,44,916.4600000000212,2596.6199999999953,2600.8800000000047,916.4600000000212,2596.6199999999953,2600.8800000000047,1.0,1684.4199999999835,0.0,,Slider,Slider,4.0,object-56,temp_dist_trial,19.0,t_i_06_1,travel_Iceland,knit hat,6.0,unique,paired,t_i_06_1.jpg,Travel,$${counterbalance_group},,sub-88
Desktop or Laptop,Windows 10,Firefox 140.0,1920x1080,1920x994,Temporal Distance Task,cb_06,20.0,temp_dist_trial,num_items,zn7si1,1.0,response,1_ITEM,1144.2600000000093,1138.6199999999953,1144.2600000000093,1144.2600000000093,1138.6199999999953,1144.2600000000093,1.0,0.0,0.0,,Click Response,1_count,3.0,object-46,temp_dist_trial,20.0,t_s_03_1,travel_shared,portable charger,6.0,competing,paired,t_s_03_1.jpg,Travel,$${counterbalance_group},,sub-88
Desktop or Laptop,Windows 10,Firefox 140.0,1920x1080,1920x994,Temporal Distance Task,cb_06,21.0,temp_dist_trial,num_items,zn7si1,1.0,response,1_ITEM,1403.7000000000116,1397.4400000000023,1403.7000000000116,1403.7000000000116,1397.4400000000023,1403.7000000000116,1.0,0.0,0.0,,Click Response,1_count,3.0,object-46,temp_dist_trial,21.0,t_s_24_1,travel_shared,ear plugs,6.0,competing,paired,t_s_24_1.jpg,Travel,$${counterbalance_group},,sub-88
Desktop or Laptop,Windows 10,Firefox 140.0,1920x1080,1920x994,Temporal Distance Task,cb_06,22.0,temp_dist_trial,num_items,zn7si1,1.0,response,2_ITEM,1219.320000000007,1214.9799999999816,1219.320000000007,1219.320000000007,1214.9799999999816,1219.320000000007,1.0,0.0,0.0,,Click Response,2_count,5.0,object-49,temp_dist_trial,22.0,t_m_09_1,travel_Miami,beach towel,6.0,unique,paired,t_m_09_1.jpg,Travel,$${counterbalance_group},,sub-88
Desktop or Laptop,Windows 10,Firefox 140.0,1920x1080,1920x994,Temporal Distance Task,cb_06,22.0,temp_dist_trial,dist_items,qkpkxw,2.0,info,,4.400000000023283,0.0,4.400000000023283,4.400000000023283,0.0,4.400000000023283,1.0,0.0,0.0,,Slider,Slider,4.0,object-56,temp_dist_trial,22.0,t_m_09_1,travel_Miami,beach towel,6.0,unique,paired,t_m_09_1.jpg,Travel,$${counterbalance_group},,sub-88
Desktop or Laptop,Windows 10,Firefox 140.0,1920x1080,1920x994,Temporal Distance Task,cb_06,22.0,temp_dist_trial,dist_items,qkpkxw,2.0,continue,,2423.040000000037,2416.100000000035,2423.040000000037,2423.040000000037,2416.100000000035,2423.040000000037,1.0,0.0,0.0,,Click To Continue,Next button,7.0,object-60,temp_dist_trial,22.0,t_m_09_1,travel_Miami,beach towel,6.0,unique,paired,t_m_09_1.jpg,Travel,$${counterbalance_group},,sub-88
Desktop or Laptop,Windows 10,Firefox 140.0,1920x1080,1920x994,Temporal Distance Task,cb_06,22.0,temp_dist_trial,dist_items,qkpkxw,2.0,response,35,1103.9000000000233,2416.100000000035,2423.040000000037,1103.9000000000233,2416.100000000035,2423.040000000037,1.0,1319.140000000014,0.0,,Slider,Slider,4.0,object-56,temp_dist_trial,22.0,t_m_09_1,travel_Miami,beach towel,6.0,unique,paired,t_m_09_1.jpg,Travel,$${counterbalance_group},,sub-88
Desktop or Laptop,Windows 10,Firefox 140.0,1920x1080,1920x994,Temporal Distance Task,cb_06,23.0,temp_dist_trial,num_items,zn7si1,1.0,response,1_ITEM,1393.2999999999884,1388.5599999999977,1393.2999999999884,1393.2999999999884,1388.5599999999977,1393.2999999999884,1.0,0.0,0.0,,Click Response,1_count,3.0,object-46,temp_dist_trial,23.0,t_s_20_1,travel_shared,travel pill case,6.0,competing,single,t_s_20_1.jpg,Travel,$${counterbalance_group},,sub-88
Desktop or Laptop,Windows 10,Firefox 140.0,1920x1080,1920x994,Temporal Distance Task,cb_06,24.0,temp_dist_trial,num_items,zn7si1,1.0,response,1_ITEM,1488.7999999999884,1485.7600000000089,1488.7999999999884,1488.7999999999884,1485.7600000000089,1488.7999999999884,1.0,0.0,0.0,,Click Response,1_count,3.0,object-46,temp_dist_trial,24.0,t_m_12_1,travel_Miami,foldable pail and shovel,6.0,unique,single,t_m_12_1.jpg,Travel,$${counterbalance_group},,sub-88
Desktop or Laptop,Windows 10,Firefox 140.0,1920x1080,1920x994,Temporal Distance Task,cb_06,25.0,temp_dist_trial,num_items,zn7si1,1.0,response,1_ITEM,1843.1599999999744,1839.8399999999679,1843.1599999999744,1843.1599999999744,1839.8399999999679,1843.1599999999744,1.0,0.0,0.0,,Click Response,1_count,3.0,object-46,temp_dist_trial,25.0,t_i_07_1,travel_Iceland,hiking backpack,6.0,unique,paired,t_i_07_1.jpg,Travel,$${counterbalance_group},,sub-88
Desktop or Laptop,Windows 10,Firefox 140.0,1920x1080,1920x994,Temporal Distance Task,cb_06,26.0,temp_dist_trial,num_items,zn7si1,1.0,response,2_ITEM,1339.9800000000396,1333.0200000000184,1339.9800000000396,1339.9800000000396,1333.0200000000184,1339.9800000000396,1.0,0.0,0.0,,Click Response,2_count,5.0,object-49,temp_dist_trial,26.0,t_m_04_1,travel_Miami,UV jacket,6.0,unique,paired,t_m_04_1.jpg,Travel,$${counterbalance_group},,sub-88
Desktop or Laptop,Windows 10,Firefox 140.0,1920x1080,1920x994,Temporal Distance Task,cb_06,26.0,temp_dist_trial,dist_items,qkpkxw,2.0,info,,5.419999999983702,0.0,5.419999999983702,5.419999999983702,0.0,5.419999999983702,1.0,0.0,0.0,,Slider,Slider,4.0,object-56,temp_dist_trial,26.0,t_m_04_1,travel_Miami,UV jacket,6.0,unique,paired,t_m_04_1.jpg,Travel,$${counterbalance_group},,sub-88
Desktop or Laptop,Windows 10,Firefox 140.0,1920x1080,1920x994,Temporal Distance Task,cb_06,26.0,temp_dist_trial,dist_items,qkpkxw,2.0,continue,,3004.419999999984,2999.279999999969,3004.419999999984,3004.419999999984,2999.279999999969,3004.419999999984,1.0,0.0,0.0,,Click To Continue,Next button,7.0,object-60,temp_dist_trial,26.0,t_m_04_1,travel_Miami,UV jacket,6.0,unique,paired,t_m_04_1.jpg,Travel,$${counterbalance_group},,sub-88
Desktop or Laptop,Windows 10,Firefox 140.0,1920x1080,1920x994,Temporal Distance Task,cb_06,26.0,temp_dist_trial,dist_items,qkpkxw,2.0,response,43,1860.6599999999744,2999.279999999969,3004.419999999984,1860.6599999999744,2999.279999999969,3004.419999999984,1.0,1143.7600000000093,0.0,,Slider,Slider,4.0,object-56,temp_dist_trial,26.0,t_m_04_1,travel_Miami,UV jacket,6.0,unique,paired,t_m_04_1.jpg,Travel,$${counterbalance_group},,sub-88
Desktop or Laptop,Windows 10,Firefox 140.0,1920x1080,1920x994,Temporal Distance Task,cb_06,27.0,temp_dist_trial,num_items,zn7si1,1.0,response,1_ITEM,1032.140000000014,1027.5400000000373,1032.140000000014,1032.140000000014,1027.5400000000373,1032.140000000014,1.0,0.0,0.0,,Click Response,1_count,3.0,object-46,temp_dist_trial,27.0,t_i_02_1,travel_Iceland,scarf,6.0,unique,paired,t_i_02_1.jpg,Travel,$${counterbalance_group},,sub-88
Desktop or Laptop,Windows 10,Firefox 140.0,1920x1080,1920x994,Temporal Distance Task,cb_06,28.0,temp_dist_trial,num_items,zn7si1,1.0,response,2_ITEM,1146.7000000000114,1145.5599999999977,1146.7000000000114,1146.7000000000114,1145.5599999999977,1146.7000000000114,1.0,0.0,0.0,,Click Response,2_count,5.0,object-49,temp_dist_trial,28.0,t_s_01_1,travel_shared,fanny pack,6.0,competing,paired,t_s_01_1.jpg,Travel,$${counterbalance_group},,sub-88
Desktop or Laptop,Windows 10,Firefox 140.0,1920x1080,1920x994,Temporal Distance Task,cb_06,28.0,temp_dist_trial,dist_items,qkpkxw,2.0,info,,5.2000000000116415,0.0,5.2000000000116415,5.2000000000116415,0.0,5.2000000000116415,1.0,0.0,0.0,,Slider,Slider,4.0,object-56,temp_dist_trial,28.0,t_s_01_1,travel_shared,fanny pack,6.0,competing,paired,t_s_01_1.jpg,Travel,$${counterbalance_group},,sub-88
Desktop or Laptop,Windows 10,Firefox 140.0,1920x1080,1920x994,Temporal Distance Task,cb_06,28.0,temp_dist_trial,dist_items,qkpkxw,2.0,continue,,5908.320000000007,5901.380000000005,5908.320000000007,5908.320000000007,5901.380000000005,5908.320000000007,1.0,0.0,0.0,,Click To Continue,Next button,7.0,object-60,temp_dist_trial,28.0,t_s_01_1,travel_shared,fanny pack,6.0,competing,paired,t_s_01_1.jpg,Travel,$${counterbalance_group},,sub-88
Desktop or Laptop,Windows 10,Firefox 140.0,1920x1080,1920x994,Temporal Distance Task,cb_06,28.0,temp_dist_trial,dist_items,qkpkxw,2.0,response,34,1298.2999999999886,5901.380000000005,5908.320000000007,1298.2999999999886,5901.380000000005,5908.320000000007,1.0,4610.020000000019,0.0,,Slider,Slider,4.0,object-56,temp_dist_trial,28.0,t_s_01_1,travel_shared,fanny pack,6.0,competing,paired,t_s_01_1.jpg,Travel,$${counterbalance_group},,sub-88
Desktop or Laptop,Windows 10,Firefox 140.0,1920x1080,1920x994,Temporal Distance Task,cb_06,29.0,temp_dist_trial,num_items,zn7si1,1.0,response,2_ITEM,1562.820000000007,1557.140000000014,1562.820000000007,1562.820000000007,1557.140000000014,1562.820000000007,1.0,0.0,0.0,,Click Response,2_count,5.0,object-49,temp_dist_trial,29.0,t_s_21_1,travel_shared,umbrella,6.0,competing,paired,t_s_21_1.jpg,Travel,$${counterbalance_group},,sub-88
Desktop or Laptop,Windows 10,Firefox 140.0,1920x1080,1920x994,Temporal Distance Task,cb_06,29.0,temp_dist_trial,dist_items,qkpkxw,2.0,info,,4.739999999990687,0.0,4.739999999990687,4.739999999990687,0.0,4.739999999990687,1.0,0.0,0.0,,Slider,Slider,4.0,object-56,temp_dist_trial,29.0,t_s_21_1,travel_shared,umbrella,6.0,competing,paired,t_s_21_1.jpg,Travel,$${counterbalance_group},,sub-88
Desktop or Laptop,Windows 10,Firefox 140.0,1920x1080,1920x994,Temporal Distance Task,cb_06,29.0,temp_dist_trial,dist_items,qkpkxw,2.0,continue,,2308.739999999991,2305.0200000000186,2308.739999999991,2308.739999999991,2305.0200000000186,2308.739999999991,1.0,0.0,0.0,,Click To Continue,Next button,7.0,object-60,temp_dist_trial,29.0,t_s_21_1,travel_shared,umbrella,6.0,competing,paired,t_s_21_1.jpg,Travel,$${counterbalance_group},,sub-88
Desktop or Laptop,Windows 10,Firefox 140.0,1920x1080,1920x994,Temporal Distance Task,cb_06,29.0,temp_dist_trial,dist_items,qkpkxw,2.0,response,36,1103.9199999999837,2305.0200000000186,2309.739999999991,1103.9199999999837,2305.0200000000186,2309.739999999991,1.0,1205.820000000007,0.0,,Slider,Slider,4.0,object-56,temp_dist_trial,29.0,t_s_21_1,travel_shared,umbrella,6.0,competing,paired,t_s_21_1.jpg,Travel,$${counterbalance_group},,sub-88
Desktop or Laptop,Windows 10,Firefox 140.0,1920x1080,1920x994,Temporal Distance Task,cb_06,30.0,temp_dist_trial,num_items,zn7si1,1.0,response,1_ITEM,2782.719999999972,2777.119999999996,2782.719999999972,2782.719999999972,2777.119999999996,2782.719999999972,1.0,0.0,0.0,,Click Response,1_count,3.0,object-46,temp_dist_trial,30.0,t_m_01_1,travel_Miami,sandals,6.0,unique,single,t_m_01_1.jpg,Travel,$${counterbalance_group},,sub-88
Desktop or Laptop,Windows 10,Firefox 140.0,1920x1080,1920x994,Temporal Distance Task,cb_06,31.0,temp_dist_trial,num_items,zn7si1,1.0,response,2_ITEM,1409.3800000000049,1402.4400000000023,1409.3800000000049,1409.3800000000049,1402.4400000000023,1409.3800000000049,1.0,0.0,0.0,,Click Response,2_count,5.0,object-49,temp_dist_trial,31.0,t_s_10_1,travel_shared,luggage lock,6.0,competing,paired,t_s_10_1.jpg,Travel,$${counterbalance_group},,sub-88
Desktop or Laptop,Windows 10,Firefox 140.0,1920x1080,1920x994,Temporal Distance Task,cb_06,31.0,temp_dist_trial,dist_items,qkpkxw,2.0,info,,6.2800000000279415,0.0,6.2800000000279415,6.2800000000279415,0.0,6.2800000000279415,1.0,0.0,0.0,,Slider,Slider,4.0,object-56,temp_dist_trial,31.0,t_s_10_1,travel_shared,luggage lock,6.0,competing,paired,t_s_10_1.jpg,Travel,$${counterbalance_group},,sub-88
Desktop or Laptop,Windows 10,Firefox 140.0,1920x1080,1920x994,Temporal Distance Task,cb_06,31.0,temp_dist_trial,dist_items,qkpkxw,2.0,continue,,3169.280000000028,3167.8800000000047,3169.280000000028,3169.280000000028,3167.8800000000047,3169.280000000028,1.0,0.0,0.0,,Click To Continue,Next button,7.0,object-60,temp_dist_trial,31.0,t_s_10_1,travel_shared,luggage lock,6.0,competing,paired,t_s_10_1.jpg,Travel,$${counterbalance_group},,sub-88
Desktop or Laptop,Windows 10,Firefox 140.0,1920x1080,1920x994,Temporal Distance Task,cb_06,31.0,temp_dist_trial,dist_items,qkpkxw,2.0,response,36,758.7200000000303,3167.8800000000047,3171.280000000028,758.7200000000303,3167.8800000000047,3171.280000000028,1.0,2412.5599999999977,0.0,,Slider,Slider,4.0,object-56,temp_dist_trial,31.0,t_s_10_1,travel_shared,luggage lock,6.0,competing,paired,t_s_10_1.jpg,Travel,$${counterbalance_group},,sub-88
Desktop or Laptop,Windows 10,Firefox 140.0,1920x1080,1920x994,Temporal Distance Task,cb_06,32.0,temp_dist_trial,num_items,zn7si1,1.0,response,num_miss,2999.280000000028,2999.280000000028,2999.280000000028,2999.280000000028,2999.280000000028,2999.280000000028,1.0,0.0,0.0,num_miss_tag,Time Limit,screen,0.0,screen,temp_dist_trial,32.0,t_s_12_1,travel_shared,clear toiletry bag,6.0,competing,paired,t_s_12_1.jpg,Travel,$${counterbalance_group},,sub-88
Desktop or Laptop,Windows 10,Firefox 140.0,1920x1080,1920x994,Temporal Distance Task,cb_06,33.0,temp_dist_trial,num_items,zn7si1,1.0,response,1_ITEM,2707.1199999999953,2702.699999999953,2707.1199999999953,2707.1199999999953,2702.699999999953,2707.1199999999953,1.0,0.0,0.0,,Click Response,1_count,3.0,object-46,temp_dist_trial,33.0,t_s_02_1,travel_shared,water bottle,6.0,competing,paired,t_s_02_1.jpg,Travel,$${counterbalance_group},,sub-88
Desktop or Laptop,Windows 10,Firefox 140.0,1920x1080,1920x994,Temporal Distance Task,cb_06,34.0,temp_dist_trial,num_items,zn7si1,1.0,response,2_ITEM,1740.4799999999814,1735.6999999999537,1740.4799999999814,1740.4799999999814,1735.6999999999537,1740.4799999999814,1.0,0.0,0.0,,Click Response,2_count,5.0,object-49,temp_dist_trial,34.0,t_s_17_1,travel_shared,toothbrush,6.0,competing,single,t_s_17_1.jpg,Travel,$${counterbalance_group},,sub-88
Desktop or Laptop,Windows 10,Firefox 140.0,1920x1080,1920x994,Temporal Distance Task,cb_06,34.0,temp_dist_trial,dist_items,qkpkxw,2.0,info,,6.839999999967404,0.0,6.839999999967404,6.839999999967404,0.0,6.839999999967404,1.0,0.0,0.0,,Slider,Slider,4.0,object-56,temp_dist_trial,34.0,t_s_17_1,travel_shared,toothbrush,6.0,competing,single,t_s_17_1.jpg,Travel,$${counterbalance_group},,sub-88
Desktop or Laptop,Windows 10,Firefox 140.0,1920x1080,1920x994,Temporal Distance Task,cb_06,34.0,temp_dist_trial,dist_items,qkpkxw,2.0,continue,,1588.8399999999676,1582.9599999999627,1588.8399999999676,1588.8399999999676,1582.9599999999627,1588.8399999999676,1.0,0.0,0.0,,Click To Continue,Next button,7.0,object-60,temp_dist_trial,34.0,t_s_17_1,travel_shared,toothbrush,6.0,competing,single,t_s_17_1.jpg,Travel,$${counterbalance_group},,sub-88
Desktop or Laptop,Windows 10,Firefox 140.0,1920x1080,1920x994,Temporal Distance Task,cb_06,34.0,temp_dist_trial,dist_items,qkpkxw,2.0,response,61,659.5799999999581,1582.9599999999627,1588.8399999999676,659.5799999999581,1582.9599999999627,1588.8399999999676,1.0,929.2600000000093,0.0,,Slider,Slider,4.0,object-56,temp_dist_trial,34.0,t_s_17_1,travel_shared,toothbrush,6.0,competing,single,t_s_17_1.jpg,Travel,$${counterbalance_group},,sub-88
Desktop or Laptop,Windows 10,Firefox 140.0,1920x1080,1920x994,Temporal Distance Task,cb_06,35.0,temp_dist_trial,num_items,zn7si1,1.0,response,2_ITEM,1400.8800000000049,1395.5200000000186,1400.8800000000049,1400.8800000000049,1395.5200000000186,1400.8800000000049,1.0,0.0,0.0,,Click Response,2_count,5.0,object-49,temp_dist_trial,35.0,t_m_10_1,travel_Miami,tanktop,6.0,unique,paired,t_m_10_1.jpg,Travel,$${counterbalance_group},,sub-88
Desktop or Laptop,Windows 10,Firefox 140.0,1920x1080,1920x994,Temporal Distance Task,cb_06,35.0,temp_dist_trial,dist_items,qkpkxw,2.0,info,,6.4200000000419095,0.0,6.4200000000419095,6.4200000000419095,0.0,6.4200000000419095,1.0,0.0,0.0,,Slider,Slider,4.0,object-56,temp_dist_trial,35.0,t_m_10_1,travel_Miami,tanktop,6.0,unique,paired,t_m_10_1.jpg,Travel,$${counterbalance_group},,sub-88
Desktop or Laptop,Windows 10,Firefox 140.0,1920x1080,1920x994,Temporal Distance Task,cb_06,35.0,temp_dist_trial,dist_items,qkpkxw,2.0,continue,,2388.420000000042,2383.320000000065,2388.420000000042,2388.420000000042,2383.320000000065,2388.420000000042,1.0,0.0,0.0,,Click To Continue,Next button,7.0,object-60,temp_dist_trial,35.0,t_m_10_1,travel_Miami,tanktop,6.0,unique,paired,t_m_10_1.jpg,Travel,$${counterbalance_group},,sub-88
Desktop or Laptop,Windows 10,Firefox 140.0,1920x1080,1920x994,Temporal Distance Task,cb_06,35.0,temp_dist_trial,dist_items,qkpkxw,2.0,response,29,1062.2399999999907,2383.320000000065,2389.420000000042,1062.2399999999907,2383.320000000065,2389.420000000042,1.0,1327.1800000000512,0.0,,Slider,Slider,4.0,object-56,temp_dist_trial,35.0,t_m_10_1,travel_Miami,tanktop,6.0,unique,paired,t_m_10_1.jpg,Travel,$${counterbalance_group},,sub-88
Desktop or Laptop,Windows 10,Firefox 140.0,1920x1080,1920x994,Temporal Distance Task,cb_06,36.0,temp_dist_trial,num_items,zn7si1,1.0,response,2_ITEM,996.0999999999768,992.8199999999488,996.0999999999768,996.0999999999768,992.8199999999488,996.0999999999768,1.0,0.0,0.0,,Click Response,2_count,5.0,object-49,temp_dist_trial,36.0,t_s_16_1,travel_shared,chapstick,6.0,competing,paired,t_s_16_1.jpg,Travel,$${counterbalance_group},,sub-88
Desktop or Laptop,Windows 10,Firefox 140.0,1920x1080,1920x994,Temporal Distance Task,cb_06,36.0,temp_dist_trial,dist_items,qkpkxw,2.0,info,,5.339999999967404,0.0,5.339999999967404,5.339999999967404,0.0,5.339999999967404,1.0,0.0,0.0,,Slider,Slider,4.0,object-56,temp_dist_trial,36.0,t_s_16_1,travel_shared,chapstick,6.0,competing,paired,t_s_16_1.jpg,Travel,$${counterbalance_group},,sub-88
Desktop or Laptop,Windows 10,Firefox 140.0,1920x1080,1920x994,Temporal Distance Task,cb_06,36.0,temp_dist_trial,dist_items,qkpkxw,2.0,continue,,2115.339999999968,2110.5999999999767,2115.339999999968,2115.339999999968,2110.5999999999767,2115.339999999968,1.0,0.0,0.0,,Click To Continue,Next button,7.0,object-60,temp_dist_trial,36.0,t_s_16_1,travel_shared,chapstick,6.0,competing,paired,t_s_16_1.jpg,Travel,$${counterbalance_group},,sub-88
Desktop or Laptop,Windows 10,Firefox 140.0,1920x1080,1920x994,Temporal Distance Task,cb_06,36.0,temp_dist_trial,dist_items,qkpkxw,2.0,response,63,742.8800000000048,2110.5999999999767,2115.339999999968,742.8800000000048,2110.5999999999767,2115.339999999968,1.0,1372.4599999999627,0.0,,Slider,Slider,4.0,object-56,temp_dist_trial,36.0,t_s_16_1,travel_shared,chapstick,6.0,competing,paired,t_s_16_1.jpg,Travel,$${counterbalance_group},,sub-88
Desktop or Laptop,Windows 10,Firefox 140.0,1920x1080,1920x994,Temporal Distance Task,cb_06,37.0,temp_dist_trial,num_items,zn7si1,1.0,response,1_ITEM,1504.7399999999911,1499.6600000000324,1504.7399999999911,1504.7399999999911,1499.6600000000324,1504.7399999999911,1.0,0.0,0.0,,Click Response,1_count,3.0,object-46,temp_dist_trial,37.0,t_s_08_1,travel_shared,hand lotion,6.0,competing,single,t_s_08_1.jpg,Travel,$${counterbalance_group},,sub-88
Desktop or Laptop,Windows 10,Firefox 140.0,1920x1080,1920x994,Temporal Distance Task,cb_06,38.0,temp_dist_trial,num_items,zn7si1,1.0,response,1_ITEM,1694.0599999999395,1687.0999999999767,1694.0599999999395,1694.0599999999395,1687.0999999999767,1694.0599999999395,1.0,0.0,0.0,,Click Response,1_count,3.0,object-46,temp_dist_trial,38.0,t_m_17_1,travel_Miami,water gun,6.0,unique,single,t_m_17_1.jpg,Travel,$${counterbalance_group},,sub-88
Desktop or Laptop,Windows 10,Firefox 140.0,1920x1080,1920x994,Temporal Distance Task,cb_06,39.0,temp_dist_trial,num_items,zn7si1,1.0,response,1_ITEM,2116.0999999999767,2112.539999999921,2116.0999999999767,2116.0999999999767,2112.539999999921,2116.0999999999767,1.0,0.0,0.0,,Click Response,1_count,3.0,object-46,temp_dist_trial,39.0,t_m_05_1,travel_Miami,sunscreen,6.0,unique,paired,t_m_05_1.jpg,Travel,$${counterbalance_group},,sub-88
Desktop or Laptop,Windows 10,Firefox 140.0,1920x1080,1920x994,Temporal Distance Task,cb_06,40.0,temp_dist_trial,num_items,zn7si1,1.0,response,2_ITEM,983.6199999999952,978.939999999944,983.6199999999952,983.6199999999952,978.939999999944,983.6199999999952,1.0,0.0,0.0,,Click Response,2_count,5.0,object-49,temp_dist_trial,40.0,t_i_17_1,travel_Iceland,binoculars,6.0,unique,paired,t_i_17_1.jpg,Travel,$${counterbalance_group},,sub-88
Desktop or Laptop,Windows 10,Firefox 140.0,1920x1080,1920x994,Temporal Distance Task,cb_06,40.0,temp_dist_trial,dist_items,qkpkxw,2.0,info,,5.739999999990688,0.0,5.739999999990688,5.739999999990688,0.0,5.739999999990688,1.0,0.0,0.0,,Slider,Slider,4.0,object-56,temp_dist_trial,40.0,t_i_17_1,travel_Iceland,binoculars,6.0,unique,paired,t_i_17_1.jpg,Travel,$${counterbalance_group},,sub-88
Desktop or Laptop,Windows 10,Firefox 140.0,1920x1080,1920x994,Temporal Distance Task,cb_06,40.0,temp_dist_trial,dist_items,qkpkxw,2.0,continue,,2436.919999999925,2429.979999999981,2436.919999999925,2436.919999999925,2429.979999999981,2436.919999999925,1.0,0.0,0.0,,Click To Continue,Next button,7.0,object-60,temp_dist_trial,40.0,t_i_17_1,travel_Iceland,binoculars,6.0,unique,paired,t_i_17_1.jpg,Travel,$${counterbalance_group},,sub-88
Desktop or Laptop,Windows 10,Firefox 140.0,1920x1080,1920x994,Temporal Distance Task,cb_06,40.0,temp_dist_trial,dist_items,qkpkxw,2.0,response,41,1096.9599999999627,2429.979999999981,2436.919999999925,1096.9599999999627,2429.979999999981,2436.919999999925,1.0,1339.9599999999627,0.0,,Slider,Slider,4.0,object-56,temp_dist_trial,40.0,t_i_17_1,travel_Iceland,binoculars,6.0,unique,paired,t_i_17_1.jpg,Travel,$${counterbalance_group},,sub-88
Desktop or Laptop,Windows 10,Firefox 140.0,1920x1080,1920x994,Temporal Distance Task,cb_06,41.0,temp_dist_trial,num_items,zn7si1,1.0,response,1_ITEM,1714.7600000000089,1707.9200000000421,1714.7600000000089,1714.7600000000089,1707.9200000000421,1714.7600000000089,1.0,0.0,0.0,,Click Response,1_count,3.0,object-46,temp_dist_trial,41.0,t_i_01_1,travel_Iceland,gloves,6.0,unique,paired,t_i_01_1.jpg,Travel,$${counterbalance_group},,sub-88
Desktop or Laptop,Windows 10,Firefox 140.0,1920x1080,1920x994,Temporal Distance Task,cb_06,42.0,temp_dist_trial,num_items,zn7si1,1.0,response,1_ITEM,811.9000000000232,807.3399999999672,811.9000000000232,811.9000000000232,807.3399999999672,811.9000000000232,1.0,0.0,0.0,,Click Response,1_count,3.0,object-46,temp_dist_trial,42.0,t_s_05_1,travel_shared,neck pillow,6.0,competing,single,t_s_05_1.jpg,Travel,$${counterbalance_group},,sub-88
Desktop or Laptop,Windows 10,Firefox 140.0,1920x1080,1920x994,Temporal Distance Task,cb_06,43.0,temp_dist_trial,num_items,zn7si1,1.0,response,1_ITEM,1475.6199999999951,1471.859999999986,1475.6199999999951,1475.6199999999951,1471.859999999986,1475.6199999999951,1.0,0.0,0.0,,Click Response,1_count,3.0,object-46,temp_dist_trial,43.0,t_s_23_1,travel_shared,ball cap,6.0,competing,paired,t_s_23_1.jpg,Travel,$${counterbalance_group},,sub-88
Desktop or Laptop,Windows 10,Firefox 140.0,1920x1080,1920x994,Temporal Distance Task,cb_06,44.0,temp_dist_trial,num_items,zn7si1,1.0,response,2_ITEM,1079.8199999999488,1076.1399999998976,1079.8199999999488,1079.8199999999488,1076.1399999998976,1079.8199999999488,1.0,0.0,0.0,,Click Response,2_count,5.0,object-49,temp_dist_trial,44.0,t_s_15_1,travel_shared,luggage tag,6.0,competing,paired,t_s_15_1.jpg,Travel,$${counterbalance_group},,sub-88
Desktop or Laptop,Windows 10,Firefox 140.0,1920x1080,1920x994,Temporal Distance Task,cb_06,44.0,temp_dist_trial,dist_items,qkpkxw,2.0,info,,4.739999999990687,0.0,4.739999999990687,4.739999999990687,0.0,4.739999999990687,1.0,0.0,0.0,,Slider,Slider,4.0,object-56,temp_dist_trial,44.0,t_s_15_1,travel_shared,luggage tag,6.0,competing,paired,t_s_15_1.jpg,Travel,$${counterbalance_group},,sub-88
Desktop or Laptop,Windows 10,Firefox 140.0,1920x1080,1920x994,Temporal Distance Task,cb_06,44.0,temp_dist_trial,dist_items,qkpkxw,2.0,continue,,1918.7399999999911,1916.2199999999718,1918.7399999999911,1918.7399999999911,1916.2199999999718,1918.7399999999911,1.0,0.0,0.0,,Click To Continue,Next button,7.0,object-60,temp_dist_trial,44.0,t_s_15_1,travel_shared,luggage tag,6.0,competing,paired,t_s_15_1.jpg,Travel,$${counterbalance_group},,sub-88
Desktop or Laptop,Windows 10,Firefox 140.0,1920x1080,1920x994,Temporal Distance Task,cb_06,44.0,temp_dist_trial,dist_items,qkpkxw,2.0,response,63,895.6199999999952,1916.2199999999718,1920.7399999999911,895.6199999999952,1916.2199999999718,1920.7399999999911,1.0,1025.1199999999953,0.0,,Slider,Slider,4.0,object-56,temp_dist_trial,44.0,t_s_15_1,travel_shared,luggage tag,6.0,competing,paired,t_s_15_1.jpg,Travel,$${counterbalance_group},,sub-88
Desktop or Laptop,Windows 10,Firefox 140.0,1920x1080,1920x994,Temporal Distance Task,cb_06,45.0,temp_dist_trial,num_items,zn7si1,1.0,response,1_ITEM,2165.5200000000186,2159.20000000007,2165.5200000000186,2165.5200000000186,2159.20000000007,2165.5200000000186,1.0,0.0,0.0,,Click Response,1_count,3.0,object-46,temp_dist_trial,45.0,t_s_09_1,travel_shared,wallet,6.0,competing,paired,t_s_09_1.jpg,Travel,$${counterbalance_group},,sub-88
Desktop or Laptop,Windows 10,Firefox 140.0,1920x1080,1920x994,Temporal Distance Task,cb_06,46.0,temp_dist_trial,num_items,zn7si1,1.0,response,2_ITEM,1880.3800000000049,1876.5200000000186,1880.3800000000049,1880.3800000000049,1876.5200000000186,1880.3800000000049,1.0,0.0,0.0,,Click Response,2_count,5.0,object-49,temp_dist_trial,46.0,t_m_13_1,travel_Miami,floatie,6.0,unique,paired,t_m_13_1.jpg,Travel,$${counterbalance_group},,sub-88
Desktop or Laptop,Windows 10,Firefox 140.0,1920x1080,1920x994,Temporal Distance Task,cb_06,46.0,temp_dist_trial,dist_items,qkpkxw,2.0,info,,4.9200000000419095,0.0,4.9200000000419095,4.9200000000419095,0.0,4.9200000000419095,1.0,0.0,0.0,,Slider,Slider,4.0,object-56,temp_dist_trial,46.0,t_m_13_1,travel_Miami,floatie,6.0,unique,paired,t_m_13_1.jpg,Travel,$${counterbalance_group},,sub-88
Desktop or Laptop,Windows 10,Firefox 140.0,1920x1080,1920x994,Temporal Distance Task,cb_06,46.0,temp_dist_trial,dist_items,qkpkxw,2.0,continue,,1723.9200000000421,1721.8200000000656,1723.9200000000421,1723.9200000000421,1721.8200000000656,1723.9200000000421,1.0,0.0,0.0,,Click To Continue,Next button,7.0,object-60,temp_dist_trial,46.0,t_m_13_1,travel_Miami,floatie,6.0,unique,paired,t_m_13_1.jpg,Travel,$${counterbalance_group},,sub-88
Desktop or Laptop,Windows 10,Firefox 140.0,1920x1080,1920x994,Temporal Distance Task,cb_06,46.0,temp_dist_trial,dist_items,qkpkxw,2.0,response,65,798.4200000000418,1721.8200000000656,1724.9200000000421,798.4200000000418,1721.8200000000656,1724.9200000000421,1.0,926.5,0.0,,Slider,Slider,4.0,object-56,temp_dist_trial,46.0,t_m_13_1,travel_Miami,floatie,6.0,unique,paired,t_m_13_1.jpg,Travel,$${counterbalance_group},,sub-88
Desktop or Laptop,Windows 10,Firefox 140.0,1920x1080,1920x994,Temporal Distance Task,cb_06,47.0,temp_dist_trial,num_items,zn7si1,1.0,response,1_ITEM,1442.0999999999767,1437.1600000000324,1442.0999999999767,1442.0999999999767,1437.1600000000324,1442.0999999999767,1.0,0.0,0.0,,Click Response,1_count,3.0,object-46,temp_dist_trial,47.0,t_m_14_1,travel_Miami,swim goggles,6.0,unique,paired,t_m_14_1.jpg,Travel,$${counterbalance_group},,sub-88
Desktop or Laptop,Windows 10,Firefox 140.0,1920x1080,1920x994,Temporal Distance Task,cb_06,48.0,temp_dist_trial,num_items,zn7si1,1.0,response,1_ITEM,2504.0,2499.4000000000233,2504.0,2504.0,2499.4000000000233,2504.0,1.0,0.0,0.0,,Click Response,1_count,3.0,object-46,temp_dist_trial,48.0,t_s_14_1,travel_shared,hand sanitizer,6.0,competing,paired,t_s_14_1.jpg,Travel,$${counterbalance_group},,sub-88
Desktop or Laptop,Windows 10,Firefox 140.0,1920x1080,1920x994,Temporal Distance Task,cb_06,2.0,temp_eventStart,Screen 1,dgtyxe,1.0,continue,,1984.6999999999528,1978.6999999999528,1984.6999999999528,1984.6999999999528,1978.6999999999528,1984.6999999999528,1.0,0.0,0.0,,Click To Continue,Next Button,3.0,object-43,temp_eventStart,,,Student,,,,,,,$${counterbalance_group},,sub-88
Desktop or Laptop,Windows 10,Firefox 140.0,1920x1080,1920x994,Temporal Distance Task,cb_06,49.0,temp_dist_trial,num_items,zn7si1,1.0,response,2_ITEM,2585.0,2582.719999999972,2585.0,2585.0,2582.719999999972,2585.0,1.0,0.0,0.0,,Click Response,2_count,5.0,object-49,temp_dist_trial,1.0,s_a_03_1,student_art,palette,6.0,unique,paired,s_a_03_1.jpg,Student,$${counterbalance_group},,sub-88
Desktop or Laptop,Windows 10,Firefox 140.0,1920x1080,1920x994,Temporal Distance Task,cb_06,49.0,temp_dist_trial,dist_items,qkpkxw,2.0,info,,5.339999999967404,0.0,5.339999999967404,5.339999999967404,0.0,5.339999999967404,1.0,0.0,0.0,,Slider,Slider,4.0,object-56,temp_dist_trial,1.0,s_a_03_1,student_art,palette,6.0,unique,paired,s_a_03_1.jpg,Student,$${counterbalance_group},,sub-88
Desktop or Laptop,Windows 10,Firefox 140.0,1920x1080,1920x994,Temporal Distance Task,cb_06,49.0,temp_dist_trial,dist_items,qkpkxw,2.0,continue,,1694.0400000000373,1687.0999999999767,1694.0400000000373,1694.0400000000373,1687.0999999999767,1694.0400000000373,1.0,0.0,0.0,,Click To Continue,Next button,7.0,object-60,temp_dist_trial,1.0,s_a_03_1,student_art,palette,6.0,unique,paired,s_a_03_1.jpg,Student,$${counterbalance_group},,sub-88
Desktop or Laptop,Windows 10,Firefox 140.0,1920x1080,1920x994,Temporal Distance Task,cb_06,49.0,temp_dist_trial,dist_items,qkpkxw,2.0,response,40,729.0,1687.0999999999767,1694.0400000000373,729.0,1687.0999999999767,1694.0400000000373,1.0,965.0400000000373,0.0,,Slider,Slider,4.0,object-56,temp_dist_trial,1.0,s_a_03_1,student_art,palette,6.0,unique,paired,s_a_03_1.jpg,Student,$${counterbalance_group},,sub-88
Desktop or Laptop,Windows 10,Firefox 140.0,1920x1080,1920x994,Temporal Distance Task,cb_06,50.0,temp_dist_trial,num_items,zn7si1,1.0,response,2_ITEM,1083.1000000000931,1076.140000000014,1083.1000000000931,1083.1000000000931,1076.140000000014,1083.1000000000931,1.0,0.0,0.0,,Click Response,2_count,5.0,object-49,temp_dist_trial,2.0,s_sh_03_1,student_shared,highlighter,6.0,competing,single,s_sh_03_1.jpg,Student,$${counterbalance_group},,sub-88
Desktop or Laptop,Windows 10,Firefox 140.0,1920x1080,1920x994,Temporal Distance Task,cb_06,50.0,temp_dist_trial,dist_items,qkpkxw,2.0,info,,6.160000000032596,0.0,6.160000000032596,6.160000000032596,0.0,6.160000000032596,1.0,0.0,0.0,,Slider,Slider,4.0,object-56,temp_dist_trial,2.0,s_sh_03_1,student_shared,highlighter,6.0,competing,single,s_sh_03_1.jpg,Student,$${counterbalance_group},,sub-88
Desktop or Laptop,Windows 10,Firefox 140.0,1920x1080,1920x994,Temporal Distance Task,cb_06,50.0,temp_dist_trial,dist_items,qkpkxw,2.0,continue,,3387.160000000033,3383.0800000000745,3387.160000000033,3387.160000000033,3383.0800000000745,3387.160000000033,1.0,0.0,0.0,,Click To Continue,Next button,7.0,object-60,temp_dist_trial,2.0,s_sh_03_1,student_shared,highlighter,6.0,competing,single,s_sh_03_1.jpg,Student,$${counterbalance_group},,sub-88
Desktop or Laptop,Windows 10,Firefox 140.0,1920x1080,1920x994,Temporal Distance Task,cb_06,50.0,temp_dist_trial,dist_items,qkpkxw,2.0,response,67,1314.1199999999953,3383.0800000000745,3388.160000000033,1314.1199999999953,3383.0800000000745,3388.160000000033,1.0,2074.0400000000373,0.0,,Slider,Slider,4.0,object-56,temp_dist_trial,2.0,s_sh_03_1,student_shared,highlighter,6.0,competing,single,s_sh_03_1.jpg,Student,$${counterbalance_group},,sub-88
Desktop or Laptop,Windows 10,Firefox 140.0,1920x1080,1920x994,Temporal Distance Task,cb_06,51.0,temp_dist_trial,num_items,zn7si1,1.0,response,2_ITEM,1404.0799999999579,1402.439999999944,1404.0799999999579,1404.0799999999579,1402.439999999944,1404.0799999999579,1.0,0.0,0.0,,Click Response,2_count,5.0,object-49,temp_dist_trial,3.0,s_s_14_1,student_stem,funnel,6.0,unique,paired,s_s_14_1.jpg,Student,$${counterbalance_group},,sub-88
Desktop or Laptop,Windows 10,Firefox 140.0,1920x1080,1920x994,Temporal Distance Task,cb_06,51.0,temp_dist_trial,dist_items,qkpkxw,2.0,info,,6.699999999953432,0.0,6.699999999953432,6.699999999953432,0.0,6.699999999953432,1.0,0.0,0.0,,Slider,Slider,4.0,object-56,temp_dist_trial,3.0,s_s_14_1,student_stem,funnel,6.0,unique,paired,s_s_14_1.jpg,Student,$${counterbalance_group},,sub-88
Desktop or Laptop,Windows 10,Firefox 140.0,1920x1080,1920x994,Temporal Distance Task,cb_06,51.0,temp_dist_trial,dist_items,qkpkxw,2.0,continue,,2568.839999999851,2561.899999999907,2568.839999999851,2568.839999999851,2561.899999999907,2568.839999999851,1.0,0.0,0.0,,Click To Continue,Next button,7.0,object-60,temp_dist_trial,3.0,s_s_14_1,student_stem,funnel,6.0,unique,paired,s_s_14_1.jpg,Student,$${counterbalance_group},,sub-88
Desktop or Laptop,Windows 10,Firefox 140.0,1920x1080,1920x994,Temporal Distance Task,cb_06,51.0,temp_dist_trial,dist_items,qkpkxw,2.0,response,35,916.4599999999627,2561.899999999907,2568.839999999851,916.4599999999627,2561.899999999907,2568.839999999851,1.0,1652.3799999998882,0.0,,Slider,Slider,4.0,object-56,temp_dist_trial,3.0,s_s_14_1,student_stem,funnel,6.0,unique,paired,s_s_14_1.jpg,Student,$${counterbalance_group},,sub-88
Desktop or Laptop,Windows 10,Firefox 140.0,1920x1080,1920x994,Temporal Distance Task,cb_06,52.0,temp_dist_trial,num_items,zn7si1,1.0,response,1_ITEM,1452.8000000000463,1446.060000000056,1452.8000000000463,1452.8000000000463,1446.060000000056,1452.8000000000463,1.0,0.0,0.0,,Click Response,1_count,3.0,object-46,temp_dist_trial,4.0,s_sh_07_1,student_shared,ruler,6.0,competing,single,s_sh_07_1.jpg,Student,$${counterbalance_group},,sub-88
Desktop or Laptop,Windows 10,Firefox 140.0,1920x1080,1920x994,Temporal Distance Task,cb_06,53.0,temp_dist_trial,num_items,zn7si1,1.0,response,1_ITEM,1462.8000000000463,1458.0,1462.8000000000463,1462.8000000000463,1458.0,1462.8000000000463,1.0,0.0,0.0,,Click Response,1_count,3.0,object-46,temp_dist_trial,5.0,s_s_11_1,student_stem,scientific scale,6.0,unique,paired,s_s_11_1.jpg,Student,$${counterbalance_group},,sub-88
Desktop or Laptop,Windows 10,Firefox 140.0,1920x1080,1920x994,Temporal Distance Task,cb_06,54.0,temp_dist_trial,num_items,zn7si1,1.0,response,2_ITEM,1258.859999999986,1256.640000000014,1258.859999999986,1258.859999999986,1256.640000000014,1258.859999999986,1.0,0.0,0.0,,Click Response,2_count,5.0,object-49,temp_dist_trial,6.0,s_sh_09_1,student_shared,paper clips,6.0,competing,paired,s_sh_09_1.jpg,Student,$${counterbalance_group},,sub-88
Desktop or Laptop,Windows 10,Firefox 140.0,1920x1080,1920x994,Temporal Distance Task,cb_06,54.0,temp_dist_trial,dist_items,qkpkxw,2.0,info,,6.2800000000279415,0.0,6.2800000000279415,6.2800000000279415,0.0,6.2800000000279415,1.0,0.0,0.0,,Slider,Slider,4.0,object-56,temp_dist_trial,6.0,s_sh_09_1,student_shared,paper clips,6.0,competing,paired,s_sh_09_1.jpg,Student,$${counterbalance_group},,sub-88
Desktop or Laptop,Windows 10,Firefox 140.0,1920x1080,1920x994,Temporal Distance Task,cb_06,54.0,temp_dist_trial,dist_items,qkpkxw,2.0,continue,,3676.280000000028,3672.7399999999907,3676.280000000028,3676.280000000028,3672.7399999999907,3676.280000000028,1.0,0.0,0.0,,Click To Continue,Next button,7.0,object-60,temp_dist_trial,6.0,s_sh_09_1,student_shared,paper clips,6.0,competing,paired,s_sh_09_1.jpg,Student,$${counterbalance_group},,sub-88
Desktop or Laptop,Windows 10,Firefox 140.0,1920x1080,1920x994,Temporal Distance Task,cb_06,54.0,temp_dist_trial,dist_items,qkpkxw,2.0,response,41,715.0999999999768,3672.7399999999907,3677.280000000028,715.0999999999768,3672.7399999999907,3677.280000000028,1.0,2962.180000000051,0.0,,Slider,Slider,4.0,object-56,temp_dist_trial,6.0,s_sh_09_1,student_shared,paper clips,6.0,competing,paired,s_sh_09_1.jpg,Student,$${counterbalance_group},,sub-88
Desktop or Laptop,Windows 10,Firefox 140.0,1920x1080,1920x994,Temporal Distance Task,cb_06,55.0,temp_dist_trial,num_items,zn7si1,1.0,response,2_ITEM,1086.5400000000373,1085.0400000000373,1086.5400000000373,1086.5400000000373,1085.0400000000373,1086.5400000000373,1.0,0.0,0.0,,Click Response,2_count,5.0,object-49,temp_dist_trial,7.0,s_a_07_1,student_art,yarn,6.0,unique,paired,s_a_07_1.jpg,Student,$${counterbalance_group},,sub-88
Desktop or Laptop,Windows 10,Firefox 140.0,1920x1080,1920x994,Temporal Distance Task,cb_06,55.0,temp_dist_trial,dist_items,qkpkxw,2.0,info,,4.560000000055879,0.0,4.560000000055879,4.560000000055879,0.0,4.560000000055879,1.0,0.0,0.0,,Slider,Slider,4.0,object-56,temp_dist_trial,7.0,s_a_07_1,student_art,yarn,6.0,unique,paired,s_a_07_1.jpg,Student,$${counterbalance_group},,sub-88
Desktop or Laptop,Windows 10,Firefox 140.0,1920x1080,1920x994,Temporal Distance Task,cb_06,55.0,temp_dist_trial,dist_items,qkpkxw,2.0,continue,,2888.199999999953,2881.2600000000093,2888.199999999953,2888.199999999953,2881.2600000000093,2888.199999999953,1.0,0.0,0.0,,Click To Continue,Next button,7.0,object-60,temp_dist_trial,7.0,s_a_07_1,student_art,yarn,6.0,unique,paired,s_a_07_1.jpg,Student,$${counterbalance_group},,sub-88
Desktop or Laptop,Windows 10,Firefox 140.0,1920x1080,1920x994,Temporal Distance Task,cb_06,55.0,temp_dist_trial,dist_items,qkpkxw,2.0,response,69,888.6800000000512,2881.2600000000093,2888.199999999953,888.6800000000512,2881.2600000000093,2888.199999999953,1.0,1999.5199999999027,0.0,,Slider,Slider,4.0,object-56,temp_dist_trial,7.0,s_a_07_1,student_art,yarn,6.0,unique,paired,s_a_07_1.jpg,Student,$${counterbalance_group},,sub-88
Desktop or Laptop,Windows 10,Firefox 140.0,1920x1080,1920x994,Temporal Distance Task,cb_06,56.0,temp_dist_trial,num_items,zn7si1,1.0,response,1_ITEM,2374.3000000000466,2367.5,2374.3000000000466,2374.3000000000466,2367.5,2374.3000000000466,1.0,0.0,0.0,,Click Response,1_count,3.0,object-46,temp_dist_trial,8.0,s_sh_11_1,student_shared,pencil case,6.0,competing,paired,s_sh_11_1.jpg,Student,$${counterbalance_group},,sub-88
Desktop or Laptop,Windows 10,Firefox 140.0,1920x1080,1920x994,Temporal Distance Task,cb_06,57.0,temp_dist_trial,num_items,zn7si1,1.0,response,2_ITEM,1637.859999999986,1633.5,1637.859999999986,1637.859999999986,1633.5,1637.859999999986,1.0,0.0,0.0,,Click Response,2_count,5.0,object-49,temp_dist_trial,9.0,s_sh_12_1,student_shared,binder,6.0,competing,paired,s_sh_12_1.jpg,Student,$${counterbalance_group},,sub-88
Desktop or Laptop,Windows 10,Firefox 140.0,1920x1080,1920x994,Temporal Distance Task,cb_06,57.0,temp_dist_trial,dist_items,qkpkxw,2.0,info,,4.4200000000419095,0.0,4.4200000000419095,4.4200000000419095,0.0,4.4200000000419095,1.0,0.0,0.0,,Slider,Slider,4.0,object-56,temp_dist_trial,9.0,s_sh_12_1,student_shared,binder,6.0,competing,paired,s_sh_12_1.jpg,Student,$${counterbalance_group},,sub-88
Desktop or Laptop,Windows 10,Firefox 140.0,1920x1080,1920x994,Temporal Distance Task,cb_06,57.0,temp_dist_trial,dist_items,qkpkxw,2.0,continue,,2367.420000000042,2360.5600000000563,2367.420000000042,2367.420000000042,2360.5600000000563,2367.420000000042,1.0,0.0,0.0,,Click To Continue,Next button,7.0,object-60,temp_dist_trial,9.0,s_sh_12_1,student_shared,binder,6.0,competing,paired,s_sh_12_1.jpg,Student,$${counterbalance_group},,sub-88
Desktop or Laptop,Windows 10,Firefox 140.0,1920x1080,1920x994,Temporal Distance Task,cb_06,57.0,temp_dist_trial,dist_items,qkpkxw,2.0,response,35,680.4000000000233,2360.5600000000563,2367.5200000000186,680.4000000000233,2360.5600000000563,2367.5200000000186,1.0,1687.1199999999951,0.0,,Slider,Slider,4.0,object-56,temp_dist_trial,9.0,s_sh_12_1,student_shared,binder,6.0,competing,paired,s_sh_12_1.jpg,Student,$${counterbalance_group},,sub-88
Desktop or Laptop,Windows 10,Firefox 140.0,1920x1080,1920x994,Temporal Distance Task,cb_06,58.0,temp_dist_trial,num_items,zn7si1,1.0,response,2_ITEM,1171.859999999986,1166.3800000000047,1171.859999999986,1171.859999999986,1166.3800000000047,1171.859999999986,1.0,0.0,0.0,,Click Response,2_count,5.0,object-49,temp_dist_trial,10.0,s_sh_13_1,student_shared,index cards,6.0,competing,paired,s_sh_13_1.jpg,Student,$${counterbalance_group},,sub-88
Desktop or Laptop,Windows 10,Firefox 140.0,1920x1080,1920x994,Temporal Distance Task,cb_06,58.0,temp_dist_trial,dist_items,qkpkxw,2.0,info,,4.540000000037253,0.0,4.540000000037253,4.540000000037253,0.0,4.540000000037253,1.0,0.0,0.0,,Slider,Slider,4.0,object-56,temp_dist_trial,10.0,s_sh_13_1,student_shared,index cards,6.0,competing,paired,s_sh_13_1.jpg,Student,$${counterbalance_group},,sub-88
Desktop or Laptop,Windows 10,Firefox 140.0,1920x1080,1920x994,Temporal Distance Task,cb_06,58.0,temp_dist_trial,dist_items,qkpkxw,2.0,continue,,3699.5400000000373,3695.5200000000177,3699.5400000000373,3699.5400000000373,3695.5200000000177,3699.5400000000373,1.0,0.0,0.0,,Click To Continue,Next button,7.0,object-60,temp_dist_trial,10.0,s_sh_13_1,student_shared,index cards,6.0,competing,paired,s_sh_13_1.jpg,Student,$${counterbalance_group},,sub-88
Desktop or Laptop,Windows 10,Firefox 140.0,1920x1080,1920x994,Temporal Distance Task,cb_06,58.0,temp_dist_trial,dist_items,qkpkxw,2.0,response,42,1201.1000000000931,3695.5200000000177,3700.5400000000373,1201.1000000000931,3695.5200000000177,3700.5400000000373,1.0,2499.4399999999437,0.0,,Slider,Slider,4.0,object-56,temp_dist_trial,10.0,s_sh_13_1,student_shared,index cards,6.0,competing,paired,s_sh_13_1.jpg,Student,$${counterbalance_group},,sub-88
Desktop or Laptop,Windows 10,Firefox 140.0,1920x1080,1920x994,Temporal Distance Task,cb_06,59.0,temp_dist_trial,num_items,zn7si1,1.0,response,num_miss,2999.280000000028,2999.280000000028,2999.280000000028,2999.280000000028,2999.280000000028,2999.280000000028,1.0,0.0,0.0,num_miss_tag,Time Limit,screen,0.0,screen,temp_dist_trial,11.0,s_sh_23_1,student_shared,ballpoint pen,6.0,competing,single,s_sh_23_1.jpg,Student,$${counterbalance_group},,sub-88
Desktop or Laptop,Windows 10,Firefox 140.0,1920x1080,1920x994,Temporal Distance Task,cb_06,60.0,temp_dist_trial,num_items,zn7si1,1.0,response,num_miss,2999.280000000028,2999.280000000028,2999.280000000028,2999.280000000028,2999.280000000028,2999.280000000028,1.0,0.0,0.0,num_miss_tag,Time Limit,screen,0.0,screen,temp_dist_trial,12.0,s_a_09_1,student_art,picture frame,6.0,unique,paired,s_a_09_1.jpg,Student,$${counterbalance_group},,sub-88
Desktop or Laptop,Windows 10,Firefox 140.0,1920x1080,1920x994,Temporal Distance Task,cb_06,61.0,temp_dist_trial,num_items,zn7si1,1.0,response,1_ITEM,1270.5400000000373,1263.5999999999767,1270.5400000000373,1270.5400000000373,1263.5999999999767,1270.5400000000373,1.0,0.0,0.0,,Click Response,1_count,3.0,object-46,temp_dist_trial,13.0,s_s_13_1,student_stem,telescope,6.0,unique,paired,s_s_13_1.jpg,Student,$${counterbalance_group},,sub-88
Desktop or Laptop,Windows 10,Firefox 140.0,1920x1080,1920x994,Temporal Distance Task,cb_06,62.0,temp_dist_trial,num_items,zn7si1,1.0,response,1_ITEM,1673.9200000000421,1668.2399999999911,1673.9200000000421,1673.9200000000421,1668.2399999999911,1673.9200000000421,1.0,0.0,0.0,,Click Response,1_count,3.0,object-46,temp_dist_trial,14.0,s_sh_19_1,student_shared,portable plastic drawer,6.0,competing,single,s_sh_19_1.jpg,Student,$${counterbalance_group},,sub-88
Desktop or Laptop,Windows 10,Firefox 140.0,1920x1080,1920x994,Temporal Distance Task,cb_06,63.0,temp_dist_trial,num_items,zn7si1,1.0,response,1_ITEM,1275.7399999999907,1270.5200000000184,1275.7399999999907,1275.7399999999907,1270.5200000000184,1275.7399999999907,1.0,0.0,0.0,,Click Response,1_count,3.0,object-46,temp_dist_trial,15.0,s_a_11_1,student_art,clapperboard,6.0,unique,single,s_a_11_1.jpg,Student,$${counterbalance_group},,sub-88
Desktop or Laptop,Windows 10,Firefox 140.0,1920x1080,1920x994,Temporal Distance Task,cb_06,64.0,temp_dist_trial,num_items,zn7si1,1.0,response,1_ITEM,1124.7400000001069,1117.8000000000468,1124.7400000001069,1124.7400000001069,1117.8000000000468,1124.7400000001069,1.0,0.0,0.0,,Click Response,1_count,3.0,object-46,temp_dist_trial,16.0,s_s_18_1,student_stem,brain model,6.0,unique,single,s_s_18_1.jpg,Student,$${counterbalance_group},,sub-88
Desktop or Laptop,Windows 10,Firefox 140.0,1920x1080,1920x994,Temporal Distance Task,cb_06,65.0,temp_dist_trial,num_items,zn7si1,1.0,response,1_ITEM,1256.6400000001304,1249.7000000000694,1256.6400000001304,1256.6400000001304,1249.7000000000694,1256.6400000001304,1.0,0.0,0.0,,Click Response,1_count,3.0,object-46,temp_dist_trial,17.0,s_a_10_1,student_art,tripod,6.0,unique,single,s_a_10_1.jpg,Student,$${counterbalance_group},,sub-88
Desktop or Laptop,Windows 10,Firefox 140.0,1920x1080,1920x994,Temporal Distance Task,cb_06,66.0,temp_dist_trial,num_items,zn7si1,1.0,response,1_ITEM,985.8800000001213,978.9400000000604,985.8800000001213,985.8800000001213,978.9400000000604,985.8800000001213,1.0,0.0,0.0,,Click Response,1_count,3.0,object-46,temp_dist_trial,18.0,s_a_13_1,student_art,violin,6.0,unique,paired,s_a_13_1.jpg,Student,$${counterbalance_group},,sub-88
Desktop or Laptop,Windows 10,Firefox 140.0,1920x1080,1920x994,Temporal Distance Task,cb_06,67.0,temp_dist_trial,num_items,zn7si1,1.0,response,1_ITEM,1279.0200000000184,1272.4799999999816,1279.0200000000184,1279.0200000000184,1272.4799999999816,1279.0200000000184,1.0,0.0,0.0,,Click Response,1_count,3.0,object-46,temp_dist_trial,19.0,s_a_15_1,student_art,drum kit,6.0,unique,paired,s_a_15_1.jpg,Student,$${counterbalance_group},,sub-88
Desktop or Laptop,Windows 10,Firefox 140.0,1920x1080,1920x994,Temporal Distance Task,cb_06,68.0,temp_dist_trial,num_items,zn7si1,1.0,response,2_ITEM,1219.5999999999767,1215.0,1219.5999999999767,1219.5999999999767,1215.0,1219.5999999999767,1.0,0.0,0.0,,Click Response,2_count,5.0,object-49,temp_dist_trial,20.0,s_sh_22_1,student_shared,hole puncher,6.0,competing,paired,s_sh_22_1.jpg,Student,$${counterbalance_group},,sub-88
Desktop or Laptop,Windows 10,Firefox 140.0,1920x1080,1920x994,Temporal Distance Task,cb_06,68.0,temp_dist_trial,dist_items,qkpkxw,2.0,info,,5.660000000032596,0.0,5.660000000032596,5.660000000032596,0.0,5.660000000032596,1.0,0.0,0.0,,Slider,Slider,4.0,object-56,temp_dist_trial,20.0,s_sh_22_1,student_shared,hole puncher,6.0,competing,paired,s_sh_22_1.jpg,Student,$${counterbalance_group},,sub-88
Desktop or Laptop,Windows 10,Firefox 140.0,1920x1080,1920x994,Temporal Distance Task,cb_06,68.0,temp_dist_trial,dist_items,qkpkxw,2.0,continue,,6866.660000000033,6861.420000000042,6866.660000000033,6866.660000000033,6861.420000000042,6866.660000000033,1.0,0.0,0.0,,Click To Continue,Next button,7.0,object-60,temp_dist_trial,20.0,s_sh_22_1,student_shared,hole puncher,6.0,competing,paired,s_sh_22_1.jpg,Student,$${counterbalance_group},,sub-88
Desktop or Laptop,Windows 10,Firefox 140.0,1920x1080,1920x994,Temporal Distance Task,cb_06,68.0,temp_dist_trial,dist_items,qkpkxw,2.0,response,47,3638.0200000000177,6861.420000000042,6867.660000000033,3638.0200000000177,6861.420000000042,6867.660000000033,1.0,3229.640000000014,0.0,,Slider,Slider,4.0,object-56,temp_dist_trial,20.0,s_sh_22_1,student_shared,hole puncher,6.0,competing,paired,s_sh_22_1.jpg,Student,$${counterbalance_group},,sub-88
Desktop or Laptop,Windows 10,Firefox 140.0,1920x1080,1920x994,Temporal Distance Task,cb_06,69.0,temp_dist_trial,num_items,zn7si1,1.0,response,1_ITEM,1082.2399999999907,1076.140000000014,1082.2399999999907,1082.2399999999907,1076.140000000014,1082.2399999999907,1.0,0.0,0.0,,Click Response,1_count,3.0,object-46,temp_dist_trial,21.0,s_s_04_1,student_stem,bunsen burner,6.0,unique,single,s_s_04_1.jpg,Student,$${counterbalance_group},,sub-88
Desktop or Laptop,Windows 10,Firefox 140.0,1920x1080,1920x994,Temporal Distance Task,cb_06,70.0,temp_dist_trial,num_items,zn7si1,1.0,response,2_ITEM,921.1600000000328,916.4400000000604,921.1600000000328,921.1600000000328,916.4400000000604,921.1600000000328,1.0,0.0,0.0,,Click Response,2_count,5.0,object-49,temp_dist_trial,22.0,s_sh_01_1,student_shared,notebook,6.0,competing,paired,s_sh_01_1.jpg,Student,$${counterbalance_group},,sub-88
Desktop or Laptop,Windows 10,Firefox 140.0,1920x1080,1920x994,Temporal Distance Task,cb_06,70.0,temp_dist_trial,dist_items,qkpkxw,2.0,info,,5.7800000000279415,0.0,5.7800000000279415,5.7800000000279415,0.0,5.7800000000279415,1.0,0.0,0.0,,Slider,Slider,4.0,object-56,temp_dist_trial,22.0,s_sh_01_1,student_shared,notebook,6.0,competing,paired,s_sh_01_1.jpg,Student,$${counterbalance_group},,sub-88
Desktop or Laptop,Windows 10,Firefox 140.0,1920x1080,1920x994,Temporal Distance Task,cb_06,70.0,temp_dist_trial,dist_items,qkpkxw,2.0,continue,,3107.780000000028,3103.4400000000605,3107.780000000028,3107.780000000028,3103.4400000000605,3107.780000000028,1.0,0.0,0.0,,Click To Continue,Next button,7.0,object-60,temp_dist_trial,22.0,s_sh_01_1,student_shared,notebook,6.0,competing,paired,s_sh_01_1.jpg,Student,$${counterbalance_group},,sub-88
Desktop or Laptop,Windows 10,Firefox 140.0,1920x1080,1920x994,Temporal Distance Task,cb_06,70.0,temp_dist_trial,dist_items,qkpkxw,2.0,response,29,770.6600000000328,3103.4400000000605,3107.780000000028,770.6600000000328,3103.4400000000605,3107.780000000028,1.0,2337.1199999999953,0.0,,Slider,Slider,4.0,object-56,temp_dist_trial,22.0,s_sh_01_1,student_shared,notebook,6.0,competing,paired,s_sh_01_1.jpg,Student,$${counterbalance_group},,sub-88
Desktop or Laptop,Windows 10,Firefox 140.0,1920x1080,1920x994,Temporal Distance Task,cb_06,71.0,temp_dist_trial,num_items,zn7si1,1.0,response,2_ITEM,1667.3399999999676,1661.2600000000089,1667.3399999999676,1667.3399999999676,1661.2600000000089,1667.3399999999676,1.0,0.0,0.0,,Click Response,2_count,5.0,object-49,temp_dist_trial,23.0,s_sh_21_1,student_shared,file holder,6.0,competing,single,s_sh_21_1.jpg,Student,$${counterbalance_group},,sub-88
Desktop or Laptop,Windows 10,Firefox 140.0,1920x1080,1920x994,Temporal Distance Task,cb_06,71.0,temp_dist_trial,dist_items,qkpkxw,2.0,info,,4.14000000001397,0.0,4.14000000001397,4.14000000001397,0.0,4.14000000001397,1.0,0.0,0.0,,Slider,Slider,4.0,object-56,temp_dist_trial,23.0,s_sh_21_1,student_shared,file holder,6.0,competing,single,s_sh_21_1.jpg,Student,$${counterbalance_group},,sub-88
Desktop or Laptop,Windows 10,Firefox 140.0,1920x1080,1920x994,Temporal Distance Task,cb_06,71.0,temp_dist_trial,dist_items,qkpkxw,2.0,continue,,1698.140000000014,1694.0400000000373,1698.140000000014,1698.140000000014,1694.0400000000373,1698.140000000014,1.0,0.0,0.0,,Click To Continue,Next button,7.0,object-60,temp_dist_trial,23.0,s_sh_21_1,student_shared,file holder,6.0,competing,single,s_sh_21_1.jpg,Student,$${counterbalance_group},,sub-88
Desktop or Laptop,Windows 10,Firefox 140.0,1920x1080,1920x994,Temporal Distance Task,cb_06,71.0,temp_dist_trial,dist_items,qkpkxw,2.0,response,41,715.0999999999768,1694.0400000000373,1698.140000000014,715.0999999999768,1694.0400000000373,1698.140000000014,1.0,983.0400000000373,0.0,,Slider,Slider,4.0,object-56,temp_dist_trial,23.0,s_sh_21_1,student_shared,file holder,6.0,competing,single,s_sh_21_1.jpg,Student,$${counterbalance_group},,sub-88
Desktop or Laptop,Windows 10,Firefox 140.0,1920x1080,1920x994,Temporal Distance Task,cb_06,72.0,temp_dist_trial,num_items,zn7si1,1.0,response,1_ITEM,1484.0999999999767,1478.8199999999488,1484.0999999999767,1484.0999999999767,1478.8199999999488,1484.0999999999767,1.0,0.0,0.0,,Click Response,1_count,3.0,object-46,temp_dist_trial,24.0,s_sh_02_1,student_shared,eraser,6.0,competing,single,s_sh_02_1.jpg,Student,$${counterbalance_group},,sub-88
Desktop or Laptop,Windows 10,Firefox 140.0,1920x1080,1920x994,Temporal Distance Task,cb_06,73.0,temp_dist_trial,num_items,zn7si1,1.0,response,1_ITEM,1199.3399999999674,1194.1599999999162,1199.3399999999674,1199.3399999999674,1194.1599999999162,1199.3399999999674,1.0,0.0,0.0,,Click Response,1_count,3.0,object-46,temp_dist_trial,25.0,s_s_20_1,student_stem,dna model,6.0,unique,paired,s_s_20_1.jpg,Student,$${counterbalance_group},,sub-88
Desktop or Laptop,Windows 10,Firefox 140.0,1920x1080,1920x994,Temporal Distance Task,cb_06,74.0,temp_dist_trial,num_items,zn7si1,1.0,response,2_ITEM,933.2399999999907,930.3399999999672,933.2399999999907,933.2399999999907,930.3399999999672,933.2399999999907,1.0,0.0,0.0,,Click Response,2_count,5.0,object-49,temp_dist_trial,26.0,s_sh_17_1,student_shared,wireless mouse,6.0,competing,paired,s_sh_17_1.jpg,Student,$${counterbalance_group},,sub-88
Desktop or Laptop,Windows 10,Firefox 140.0,1920x1080,1920x994,Temporal Distance Task,cb_06,74.0,temp_dist_trial,dist_items,qkpkxw,2.0,info,,5.959999999962747,0.0,5.959999999962747,5.959999999962747,0.0,5.959999999962747,1.0,0.0,0.0,,Slider,Slider,4.0,object-56,temp_dist_trial,26.0,s_sh_17_1,student_shared,wireless mouse,6.0,competing,paired,s_sh_17_1.jpg,Student,$${counterbalance_group},,sub-88
Desktop or Laptop,Windows 10,Firefox 140.0,1920x1080,1920x994,Temporal Distance Task,cb_06,74.0,temp_dist_trial,dist_items,qkpkxw,2.0,continue,,2103.9599999999627,2098.679999999935,2103.9599999999627,2103.9599999999627,2098.679999999935,2103.9599999999627,1.0,0.0,0.0,,Click To Continue,Next button,7.0,object-60,temp_dist_trial,26.0,s_sh_17_1,student_shared,wireless mouse,6.0,competing,paired,s_sh_17_1.jpg,Student,$${counterbalance_group},,sub-88
Desktop or Laptop,Windows 10,Firefox 140.0,1920x1080,1920x994,Temporal Distance Task,cb_06,74.0,temp_dist_trial,dist_items,qkpkxw,2.0,response,16,631.7999999999303,2098.679999999935,2103.9599999999627,631.7999999999303,2098.679999999935,2103.9599999999627,1.0,1472.1600000000324,0.0,,Slider,Slider,4.0,object-56,temp_dist_trial,26.0,s_sh_17_1,student_shared,wireless mouse,6.0,competing,paired,s_sh_17_1.jpg,Student,$${counterbalance_group},,sub-88
Desktop or Laptop,Windows 10,Firefox 140.0,1920x1080,1920x994,Temporal Distance Task,cb_06,75.0,temp_dist_trial,num_items,zn7si1,1.0,response,2_ITEM,1242.7600000001255,1235.8200000000654,1242.7600000001255,1242.7600000001255,1235.8200000000654,1242.7600000001255,1.0,0.0,0.0,,Click Response,2_count,5.0,object-49,temp_dist_trial,27.0,s_sh_10_1,student_shared,scissors,6.0,competing,paired,s_sh_10_1.jpg,Student,$${counterbalance_group},,sub-88
Desktop or Laptop,Windows 10,Firefox 140.0,1920x1080,1920x994,Temporal Distance Task,cb_06,75.0,temp_dist_trial,dist_items,qkpkxw,2.0,info,,5.5200000000186265,0.0,5.5200000000186265,5.5200000000186265,0.0,5.5200000000186265,1.0,0.0,0.0,,Slider,Slider,4.0,object-56,temp_dist_trial,27.0,s_sh_10_1,student_shared,scissors,6.0,competing,paired,s_sh_10_1.jpg,Student,$${counterbalance_group},,sub-88
Desktop or Laptop,Windows 10,Firefox 140.0,1920x1080,1920x994,Temporal Distance Task,cb_06,75.0,temp_dist_trial,dist_items,qkpkxw,2.0,continue,,1369.5200000000184,1367.7399999999907,1369.5200000000184,1369.5200000000184,1367.7399999999907,1369.5200000000184,1.0,0.0,0.0,,Click To Continue,Next button,7.0,object-60,temp_dist_trial,27.0,s_sh_10_1,student_shared,scissors,6.0,competing,paired,s_sh_10_1.jpg,Student,$${counterbalance_group},,sub-88
Desktop or Laptop,Windows 10,Firefox 140.0,1920x1080,1920x994,Temporal Distance Task,cb_06,75.0,temp_dist_trial,dist_items,qkpkxw,2.0,response,42,610.9799999999814,1367.7399999999907,1369.5200000000184,610.9799999999814,1367.7399999999907,1369.5200000000184,1.0,758.5400000000373,0.0,,Slider,Slider,4.0,object-56,temp_dist_trial,27.0,s_sh_10_1,student_shared,scissors,6.0,competing,paired,s_sh_10_1.jpg,Student,$${counterbalance_group},,sub-88
Desktop or Laptop,Windows 10,Firefox 140.0,1920x1080,1920x994,Temporal Distance Task,cb_06,76.0,temp_dist_trial,num_items,zn7si1,1.0,response,1_ITEM,2367.480000000098,2360.540000000037,2367.480000000098,2367.480000000098,2360.540000000037,2367.480000000098,1.0,0.0,0.0,,Click Response,1_count,3.0,object-46,temp_dist_trial,28.0,s_a_08_1,student_art,sewing machine,6.0,unique,paired,s_a_08_1.jpg,Student,$${counterbalance_group},,sub-88
Desktop or Laptop,Windows 10,Firefox 140.0,1920x1080,1920x994,Temporal Distance Task,cb_06,77.0,temp_dist_trial,num_items,zn7si1,1.0,response,2_ITEM,1116.3000000000468,1110.8600000001024,1116.3000000000468,1116.3000000000468,1110.8600000001024,1116.3000000000468,1.0,0.0,0.0,,Click Response,2_count,5.0,object-49,temp_dist_trial,29.0,s_sh_15_1,student_shared,usb drive,6.0,competing,paired,s_sh_15_1.jpg,Student,$${counterbalance_group},,sub-88
Desktop or Laptop,Windows 10,Firefox 140.0,1920x1080,1920x994,Temporal Distance Task,cb_06,77.0,temp_dist_trial,dist_items,qkpkxw,2.0,info,,6.5,0.0,6.5,6.5,0.0,6.5,1.0,0.0,0.0,,Slider,Slider,4.0,object-56,temp_dist_trial,29.0,s_sh_15_1,student_shared,usb drive,6.0,competing,paired,s_sh_15_1.jpg,Student,$${counterbalance_group},,sub-88
Desktop or Laptop,Windows 10,Firefox 140.0,1920x1080,1920x994,Temporal Distance Task,cb_06,77.0,temp_dist_trial,dist_items,qkpkxw,2.0,continue,,6532.5,6528.1999999999525,6532.5,6532.5,6528.1999999999525,6532.5,1.0,0.0,0.0,,Click To Continue,Next button,7.0,object-60,temp_dist_trial,29.0,s_sh_15_1,student_shared,usb drive,6.0,competing,paired,s_sh_15_1.jpg,Student,$${counterbalance_group},,sub-88
Desktop or Laptop,Windows 10,Firefox 140.0,1920x1080,1920x994,Temporal Distance Task,cb_06,77.0,temp_dist_trial,dist_items,qkpkxw,2.0,response,57,1411.359999999986,6528.1999999999525,6534.5,1411.359999999986,6528.1999999999525,6534.5,1.0,5123.140000000014,0.0,,Slider,Slider,4.0,object-56,temp_dist_trial,29.0,s_sh_15_1,student_shared,usb drive,6.0,competing,paired,s_sh_15_1.jpg,Student,$${counterbalance_group},,sub-88
Desktop or Laptop,Windows 10,Firefox 140.0,1920x1080,1920x994,Temporal Distance Task,cb_06,78.0,temp_dist_trial,num_items,zn7si1,1.0,response,1_ITEM,1762.3000000000463,1756.5200000000186,1762.3000000000463,1762.3000000000463,1756.5200000000186,1762.3000000000463,1.0,0.0,0.0,,Click Response,1_count,3.0,object-46,temp_dist_trial,30.0,s_a_06_1,student_art,pastels,6.0,unique,paired,s_a_06_1.jpg,Student,$${counterbalance_group},,sub-88
Desktop or Laptop,Windows 10,Firefox 140.0,1920x1080,1920x994,Temporal Distance Task,cb_06,79.0,temp_dist_trial,num_items,zn7si1,1.0,response,1_ITEM,1748.8399999999676,1744.5999999999767,1748.8399999999676,1748.8399999999676,1744.5999999999767,1748.8399999999676,1.0,0.0,0.0,,Click Response,1_count,3.0,object-46,temp_dist_trial,31.0,s_a_20_1,student_art,pin cushion,6.0,unique,single,s_a_20_1.jpg,Student,$${counterbalance_group},,sub-88
Desktop or Laptop,Windows 10,Firefox 140.0,1920x1080,1920x994,Temporal Distance Task,cb_06,80.0,temp_dist_trial,num_items,zn7si1,1.0,response,2_ITEM,1136.3000000000466,1131.6800000000512,1136.3000000000466,1136.3000000000466,1131.6800000000512,1136.3000000000466,1.0,0.0,0.0,,Click Response,2_count,5.0,object-49,temp_dist_trial,32.0,s_sh_18_1,student_shared,wall calendar,6.0,competing,paired,s_sh_18_1.jpg,Student,$${counterbalance_group},,sub-88
Desktop or Laptop,Windows 10,Firefox 140.0,1920x1080,1920x994,Temporal Distance Task,cb_06,80.0,temp_dist_trial,dist_items,qkpkxw,2.0,info,,5.680000000051223,0.0,5.680000000051223,5.680000000051223,0.0,5.680000000051223,1.0,0.0,0.0,,Slider,Slider,4.0,object-56,temp_dist_trial,32.0,s_sh_18_1,student_shared,wall calendar,6.0,competing,paired,s_sh_18_1.jpg,Student,$${counterbalance_group},,sub-88
Desktop or Laptop,Windows 10,Firefox 140.0,1920x1080,1920x994,Temporal Distance Task,cb_06,80.0,temp_dist_trial,dist_items,qkpkxw,2.0,continue,,1852.6800000000512,1846.8000000000463,1852.6800000000512,1852.6800000000512,1846.8000000000463,1852.6800000000512,1.0,0.0,0.0,,Click To Continue,Next button,7.0,object-60,temp_dist_trial,32.0,s_sh_18_1,student_shared,wall calendar,6.0,competing,paired,s_sh_18_1.jpg,Student,$${counterbalance_group},,sub-88
Desktop or Laptop,Windows 10,Firefox 140.0,1920x1080,1920x994,Temporal Distance Task,cb_06,80.0,temp_dist_trial,dist_items,qkpkxw,2.0,response,40,798.4200000000418,1846.8000000000463,1852.6800000000512,798.4200000000418,1846.8000000000463,1852.6800000000512,1.0,1054.2600000000093,0.0,,Slider,Slider,4.0,object-56,temp_dist_trial,32.0,s_sh_18_1,student_shared,wall calendar,6.0,competing,paired,s_sh_18_1.jpg,Student,$${counterbalance_group},,sub-88
Desktop or Laptop,Windows 10,Firefox 140.0,1920x1080,1920x994,Temporal Distance Task,cb_06,81.0,temp_dist_trial,num_items,zn7si1,1.0,response,2_ITEM,1610.7200000000885,1603.7800000000284,1610.7200000000885,1610.7200000000885,1603.7800000000284,1610.7200000000885,1.0,0.0,0.0,,Click Response,2_count,5.0,object-49,temp_dist_trial,33.0,s_sh_04_1,student_shared,laptop stand,6.0,competing,paired,s_sh_04_1.jpg,Student,$${counterbalance_group},,sub-88
Desktop or Laptop,Windows 10,Firefox 140.0,1920x1080,1920x994,Temporal Distance Task,cb_06,81.0,temp_dist_trial,dist_items,qkpkxw,2.0,info,,6.939999999944121,0.0,6.939999999944121,6.939999999944121,0.0,6.939999999944121,1.0,0.0,0.0,,Slider,Slider,4.0,object-56,temp_dist_trial,33.0,s_sh_04_1,student_shared,laptop stand,6.0,competing,paired,s_sh_04_1.jpg,Student,$${counterbalance_group},,sub-88
Desktop or Laptop,Windows 10,Firefox 140.0,1920x1080,1920x994,Temporal Distance Task,cb_06,81.0,temp_dist_trial,dist_items,qkpkxw,2.0,continue,,3658.160000000033,3653.8400000000843,3658.160000000033,3658.160000000033,3653.8400000000843,3658.160000000033,1.0,0.0,0.0,,Click To Continue,Next button,7.0,object-60,temp_dist_trial,33.0,s_sh_04_1,student_shared,laptop stand,6.0,competing,paired,s_sh_04_1.jpg,Student,$${counterbalance_group},,sub-88
Desktop or Laptop,Windows 10,Firefox 140.0,1920x1080,1920x994,Temporal Distance Task,cb_06,81.0,temp_dist_trial,dist_items,qkpkxw,2.0,response,58,784.5400000000373,3653.8400000000843,3659.160000000033,784.5400000000373,3653.8400000000843,3659.160000000033,1.0,2874.619999999996,0.0,,Slider,Slider,4.0,object-56,temp_dist_trial,33.0,s_sh_04_1,student_shared,laptop stand,6.0,competing,paired,s_sh_04_1.jpg,Student,$${counterbalance_group},,sub-88
Desktop or Laptop,Windows 10,Firefox 140.0,1920x1080,1920x994,Temporal Distance Task,cb_06,82.0,temp_dist_trial,num_items,zn7si1,1.0,response,1_ITEM,1074.3199999999488,1069.1999999999532,1074.3199999999488,1074.3199999999488,1069.1999999999532,1074.3199999999488,1.0,0.0,0.0,,Click Response,1_count,3.0,object-46,temp_dist_trial,34.0,s_s_06_1,student_stem,calculator,6.0,unique,paired,s_s_06_1.jpg,Student,$${counterbalance_group},,sub-88
Desktop or Laptop,Windows 10,Firefox 140.0,1920x1080,1920x994,Temporal Distance Task,cb_06,83.0,temp_dist_trial,num_items,zn7si1,1.0,response,num_miss,2999.280000000028,2999.280000000028,2999.280000000028,2999.280000000028,2999.280000000028,2999.280000000028,1.0,0.0,0.0,num_miss_tag,Time Limit,screen,0.0,screen,temp_dist_trial,35.0,s_a_01_1,student_art,paintbrush,6.0,unique,paired,s_a_01_1.jpg,Student,$${counterbalance_group},,sub-88
Desktop or Laptop,Windows 10,Firefox 140.0,1920x1080,1920x994,Temporal Distance Task,cb_06,84.0,temp_dist_trial,num_items,zn7si1,1.0,response,2_ITEM,1483.9000000000233,1480.7600000000089,1483.9000000000233,1483.9000000000233,1480.7600000000089,1483.9000000000233,1.0,0.0,0.0,,Click Response,2_count,5.0,object-49,temp_dist_trial,36.0,s_s_03_1,student_stem,petri dish,6.0,unique,paired,s_s_03_1.jpg,Student,$${counterbalance_group},,sub-88
Desktop or Laptop,Windows 10,Firefox 140.0,1920x1080,1920x994,Temporal Distance Task,cb_06,84.0,temp_dist_trial,dist_items,qkpkxw,2.0,info,,5.199999999953434,0.0,5.199999999953434,5.199999999953434,0.0,5.199999999953434,1.0,0.0,0.0,,Slider,Slider,4.0,object-56,temp_dist_trial,36.0,s_s_03_1,student_stem,petri dish,6.0,unique,paired,s_s_03_1.jpg,Student,$${counterbalance_group},,sub-88
Desktop or Laptop,Windows 10,Firefox 140.0,1920x1080,1920x994,Temporal Distance Task,cb_06,84.0,temp_dist_trial,dist_items,qkpkxw,2.0,continue,,1999.5200000000186,1992.5799999999576,1999.5200000000186,1999.5200000000186,1992.5799999999576,1999.5200000000186,1.0,0.0,0.0,,Click To Continue,Next button,7.0,object-60,temp_dist_trial,36.0,s_s_03_1,student_stem,petri dish,6.0,unique,paired,s_s_03_1.jpg,Student,$${counterbalance_group},,sub-88
Desktop or Laptop,Windows 10,Firefox 140.0,1920x1080,1920x994,Temporal Distance Task,cb_06,84.0,temp_dist_trial,dist_items,qkpkxw,2.0,response,42,840.0799999999582,1992.5799999999576,1999.5200000000186,840.0799999999582,1992.5799999999576,1999.5200000000186,1.0,1159.4400000000605,0.0,,Slider,Slider,4.0,object-56,temp_dist_trial,36.0,s_s_03_1,student_stem,petri dish,6.0,unique,paired,s_s_03_1.jpg,Student,$${counterbalance_group},,sub-88
Desktop or Laptop,Windows 10,Firefox 140.0,1920x1080,1920x994,Temporal Distance Task,cb_06,85.0,temp_dist_trial,num_items,zn7si1,1.0,response,2_ITEM,978.9400000000604,972.0,978.9400000000604,978.9400000000604,972.0,978.9400000000604,1.0,0.0,0.0,,Click Response,2_count,5.0,object-49,temp_dist_trial,37.0,s_sh_08_1,student_shared,post-its,6.0,competing,paired,s_sh_08_1.jpg,Student,$${counterbalance_group},,sub-88
Desktop or Laptop,Windows 10,Firefox 140.0,1920x1080,1920x994,Temporal Distance Task,cb_06,85.0,temp_dist_trial,dist_items,qkpkxw,2.0,info,,5.680000000051223,0.0,5.680000000051223,5.680000000051223,0.0,5.680000000051223,1.0,0.0,0.0,,Slider,Slider,4.0,object-56,temp_dist_trial,37.0,s_sh_08_1,student_shared,post-its,6.0,competing,paired,s_sh_08_1.jpg,Student,$${counterbalance_group},,sub-88
Desktop or Laptop,Windows 10,Firefox 140.0,1920x1080,1920x994,Temporal Distance Task,cb_06,85.0,temp_dist_trial,dist_items,qkpkxw,2.0,continue,,3087.680000000051,3082.6000000000927,3087.680000000051,3087.680000000051,3082.6000000000927,3087.680000000051,1.0,0.0,0.0,,Click To Continue,Next button,7.0,object-60,temp_dist_trial,37.0,s_sh_08_1,student_shared,post-its,6.0,competing,paired,s_sh_08_1.jpg,Student,$${counterbalance_group},,sub-88
Desktop or Laptop,Windows 10,Firefox 140.0,1920x1080,1920x994,Temporal Distance Task,cb_06,85.0,temp_dist_trial,dist_items,qkpkxw,2.0,response,44,1333.0200000000184,3082.6000000000927,3088.680000000051,1333.0200000000184,3082.6000000000927,3088.680000000051,1.0,1755.6600000000324,0.0,,Slider,Slider,4.0,object-56,temp_dist_trial,37.0,s_sh_08_1,student_shared,post-its,6.0,competing,paired,s_sh_08_1.jpg,Student,$${counterbalance_group},,sub-88
Desktop or Laptop,Windows 10,Firefox 140.0,1920x1080,1920x994,Temporal Distance Task,cb_06,86.0,temp_dist_trial,num_items,zn7si1,1.0,response,1_ITEM,876.0799999999582,869.7999999999303,876.0799999999582,876.0799999999582,869.7999999999303,876.0799999999582,1.0,0.0,0.0,,Click Response,1_count,3.0,object-46,temp_dist_trial,38.0,s_s_12_1,student_stem,robotic arm,6.0,unique,single,s_s_12_1.jpg,Student,$${counterbalance_group},,sub-88
Desktop or Laptop,Windows 10,Firefox 140.0,1920x1080,1920x994,Temporal Distance Task,cb_06,87.0,temp_dist_trial,num_items,zn7si1,1.0,response,1_ITEM,894.3399999999672,888.6799999999347,894.3399999999672,894.3399999999672,888.6799999999347,894.3399999999672,1.0,0.0,0.0,,Click Response,1_count,3.0,object-46,temp_dist_trial,39.0,s_sh_06_1,student_shared,clipboard,6.0,competing,paired,s_sh_06_1.jpg,Student,$${counterbalance_group},,sub-88
Desktop or Laptop,Windows 10,Firefox 140.0,1920x1080,1920x994,Temporal Distance Task,cb_06,88.0,temp_dist_trial,num_items,zn7si1,1.0,response,2_ITEM,1780.7199999999716,1777.359999999986,1780.7199999999716,1780.7199999999716,1777.359999999986,1780.7199999999716,1.0,0.0,0.0,,Click Response,2_count,5.0,object-49,temp_dist_trial,40.0,s_sh_05_1,student_shared,laptop,6.0,competing,single,s_sh_05_1.jpg,Student,$${counterbalance_group},,sub-88
Desktop or Laptop,Windows 10,Firefox 140.0,1920x1080,1920x994,Temporal Distance Task,cb_06,88.0,temp_dist_trial,dist_items,qkpkxw,2.0,info,,4.4200000000419095,0.0,4.4200000000419095,4.4200000000419095,0.0,4.4200000000419095,1.0,0.0,0.0,,Slider,Slider,4.0,object-56,temp_dist_trial,40.0,s_sh_05_1,student_shared,laptop,6.0,competing,single,s_sh_05_1.jpg,Student,$${counterbalance_group},,sub-88
Desktop or Laptop,Windows 10,Firefox 140.0,1920x1080,1920x994,Temporal Distance Task,cb_06,88.0,temp_dist_trial,dist_items,qkpkxw,2.0,continue,,1484.4200000000421,1478.8200000000656,1484.4200000000421,1484.4200000000421,1478.8200000000656,1484.4200000000421,1.0,0.0,0.0,,Click To Continue,Next button,7.0,object-60,temp_dist_trial,40.0,s_sh_05_1,student_shared,laptop,6.0,competing,single,s_sh_05_1.jpg,Student,$${counterbalance_group},,sub-88
Desktop or Laptop,Windows 10,Firefox 140.0,1920x1080,1920x994,Temporal Distance Task,cb_06,88.0,temp_dist_trial,dist_items,qkpkxw,2.0,response,66,770.6400000000142,1478.8200000000656,1485.4200000000421,770.6400000000142,1478.8200000000656,1485.4200000000421,1.0,714.7800000000279,0.0,,Slider,Slider,4.0,object-56,temp_dist_trial,40.0,s_sh_05_1,student_shared,laptop,6.0,competing,single,s_sh_05_1.jpg,Student,$${counterbalance_group},,sub-88
Desktop or Laptop,Windows 10,Firefox 140.0,1920x1080,1920x994,Temporal Distance Task,cb_06,89.0,temp_dist_trial,num_items,zn7si1,1.0,response,1_ITEM,1677.5999999999767,1673.1999999999537,1677.5999999999767,1677.5999999999767,1673.1999999999537,1677.5999999999767,1.0,0.0,0.0,,Click Response,1_count,3.0,object-46,temp_dist_trial,41.0,s_sh_14_1,student_shared,printer,6.0,competing,paired,s_sh_14_1.jpg,Student,$${counterbalance_group},,sub-88
Desktop or Laptop,Windows 10,Firefox 140.0,1920x1080,1920x994,Temporal Distance Task,cb_06,90.0,temp_dist_trial,num_items,zn7si1,1.0,response,1_ITEM,2416.459999999963,2411.1199999999953,2416.459999999963,2416.459999999963,2411.1199999999953,2416.459999999963,1.0,0.0,0.0,,Click Response,1_count,3.0,object-46,temp_dist_trial,42.0,s_s_05_1,student_stem,lab goggles,6.0,unique,single,s_s_05_1.jpg,Student,$${counterbalance_group},,sub-88
Desktop or Laptop,Windows 10,Firefox 140.0,1920x1080,1920x994,Temporal Distance Task,cb_06,91.0,temp_dist_trial,num_items,zn7si1,1.0,response,2_ITEM,867.4000000000232,860.9200000000418,867.4000000000232,867.4000000000232,860.9200000000418,867.4000000000232,1.0,0.0,0.0,,Click Response,2_count,5.0,object-49,temp_dist_trial,43.0,s_sh_16_1,student_shared,stapler,6.0,competing,single,s_sh_16_1.jpg,Student,$${counterbalance_group},,sub-88
Desktop or Laptop,Windows 10,Firefox 140.0,1920x1080,1920x994,Temporal Distance Task,cb_06,91.0,temp_dist_trial,dist_items,qkpkxw,2.0,info,,5.540000000037253,0.0,5.540000000037253,5.540000000037253,0.0,5.540000000037253,1.0,0.0,0.0,,Slider,Slider,4.0,object-56,temp_dist_trial,43.0,s_sh_16_1,student_shared,stapler,6.0,competing,single,s_sh_16_1.jpg,Student,$${counterbalance_group},,sub-88
Desktop or Laptop,Windows 10,Firefox 140.0,1920x1080,1920x994,Temporal Distance Task,cb_06,91.0,temp_dist_trial,dist_items,qkpkxw,2.0,continue,,1893.5400000000373,1888.4400000000605,1893.5400000000373,1893.5400000000373,1888.4400000000605,1893.5400000000373,1.0,0.0,0.0,,Click To Continue,Next button,7.0,object-60,temp_dist_trial,43.0,s_sh_16_1,student_shared,stapler,6.0,competing,single,s_sh_16_1.jpg,Student,$${counterbalance_group},,sub-88
Desktop or Laptop,Windows 10,Firefox 140.0,1920x1080,1920x994,Temporal Distance Task,cb_06,91.0,temp_dist_trial,dist_items,qkpkxw,2.0,response,42,951.1600000000328,1888.4400000000605,1893.5400000000373,951.1600000000328,1888.4400000000605,1893.5400000000373,1.0,942.3800000000048,0.0,,Slider,Slider,4.0,object-56,temp_dist_trial,43.0,s_sh_16_1,student_shared,stapler,6.0,competing,single,s_sh_16_1.jpg,Student,$${counterbalance_group},,sub-88
Desktop or Laptop,Windows 10,Firefox 140.0,1920x1080,1920x994,Temporal Distance Task,cb_06,92.0,temp_dist_trial,num_items,zn7si1,1.0,response,1_ITEM,2370.099999999977,2367.479999999981,2370.099999999977,2370.099999999977,2367.479999999981,2370.099999999977,1.0,0.0,0.0,,Click Response,1_count,3.0,object-46,temp_dist_trial,44.0,s_sh_20_1,student_shared,tape,6.0,competing,paired,s_sh_20_1.jpg,Student,$${counterbalance_group},,sub-88
Desktop or Laptop,Windows 10,Firefox 140.0,1920x1080,1920x994,Temporal Distance Task,cb_06,93.0,temp_dist_trial,num_items,zn7si1,1.0,response,1_ITEM,1689.6800000000512,1689.060000000056,1689.6800000000512,1689.6800000000512,1689.060000000056,1689.6800000000512,1.0,0.0,0.0,,Click Response,1_count,3.0,object-46,temp_dist_trial,45.0,s_s_17_1,student_stem,ring stand,6.0,unique,paired,s_s_17_1.jpg,Student,$${counterbalance_group},,sub-88
Desktop or Laptop,Windows 10,Firefox 140.0,1920x1080,1920x994,Temporal Distance Task,cb_06,94.0,temp_dist_trial,num_items,zn7si1,1.0,response,2_ITEM,862.6800000000512,860.9000000000232,862.6800000000512,862.6800000000512,860.9000000000232,862.6800000000512,1.0,0.0,0.0,,Click Response,2_count,5.0,object-49,temp_dist_trial,46.0,s_sh_24_1,student_shared,desk organizer,6.0,competing,paired,s_sh_24_1.jpg,Student,$${counterbalance_group},,sub-88
Desktop or Laptop,Windows 10,Firefox 140.0,1920x1080,1920x994,Temporal Distance Task,cb_06,94.0,temp_dist_trial,dist_items,qkpkxw,2.0,info,,4.839999999967404,0.0,4.839999999967404,4.839999999967404,0.0,4.839999999967404,1.0,0.0,0.0,,Slider,Slider,4.0,object-56,temp_dist_trial,46.0,s_sh_24_1,student_shared,desk organizer,6.0,competing,paired,s_sh_24_1.jpg,Student,$${counterbalance_group},,sub-88
Desktop or Laptop,Windows 10,Firefox 140.0,1920x1080,1920x994,Temporal Distance Task,cb_06,94.0,temp_dist_trial,dist_items,qkpkxw,2.0,continue,,2725.839999999968,2721.579999999958,2725.839999999968,2725.839999999968,2721.579999999958,2725.839999999968,1.0,0.0,0.0,,Click To Continue,Next button,7.0,object-60,temp_dist_trial,46.0,s_sh_24_1,student_shared,desk organizer,6.0,competing,paired,s_sh_24_1.jpg,Student,$${counterbalance_group},,sub-88
Desktop or Laptop,Windows 10,Firefox 140.0,1920x1080,1920x994,Temporal Distance Task,cb_06,94.0,temp_dist_trial,dist_items,qkpkxw,2.0,response,60,576.2600000000092,2721.579999999958,2727.839999999968,576.2600000000092,2721.579999999958,2727.839999999968,1.0,2151.579999999958,0.0,,Slider,Slider,4.0,object-56,temp_dist_trial,46.0,s_sh_24_1,student_shared,desk organizer,6.0,competing,paired,s_sh_24_1.jpg,Student,$${counterbalance_group},,sub-88
Desktop or Laptop,Windows 10,Firefox 140.0,1920x1080,1920x994,Temporal Distance Task,cb_06,95.0,temp_dist_trial,num_items,zn7si1,1.0,response,num_miss,2999.3000000000466,2999.3000000000466,2999.3000000000466,2999.3000000000466,2999.3000000000466,2999.3000000000466,1.0,0.0,0.0,num_miss_tag,Time Limit,screen,0.0,screen,temp_dist_trial,47.0,s_s_16_1,student_stem,toolbox,6.0,unique,paired,s_s_16_1.jpg,Student,$${counterbalance_group},,sub-88
Desktop or Laptop,Windows 10,Firefox 140.0,1920x1080,1920x994,Temporal Distance Task,cb_06,96.0,temp_dist_trial,num_items,zn7si1,1.0,response,1_ITEM,1522.4200000000421,1515.4799999999814,1522.4200000000421,1522.4200000000421,1515.4799999999814,1522.4200000000421,1.0,0.0,0.0,,Click Response,1_count,3.0,object-46,temp_dist_trial,48.0,s_a_04_1,student_art,easel,6.0,unique,single,s_a_04_1.jpg,Student,$${counterbalance_group},,sub-88
Desktop or Laptop,Windows 10,Firefox 140.0,1920x1080,1920x994,Temporal Distance Task,,,,,,,info,END,,,714385.0,,,,,,,,,,,,,,,,,,,,,,$${counterbalance_group},,sub-88
