Participant Device,Participant OS,Participant Browser,Participant Monitor Size,Participant Viewport Size,Task Name,Current Spreadsheet,Trial Number,Display,Screen,Screen ID,Screen Counter,Response Type,Response,Onset Time,Clock Time,Reaction Time,Absolute Onset Time,Absolute Clock Time,Absolute Reaction Time,Correct,Response Duration,Proportion,Tag,Component Name,Object Name,Object Number,Object ID,Spreadsheet: display,Spreadsheet: trial,Spreadsheet: stimulus_id,Spreadsheet: expected_goal,Spreadsheet: stimulus_name,Spreadsheet: c_group,Spreadsheet: condition,Spreadsheet: paired_status,Spreadsheet: stimulus_path,Spreadsheet: block_type,Manipulation: Spreadsheet,Store: enc_test_acc,sub_label
Desktop or Laptop,Windows 10,Chrome 133.0.0.0,1536x864,1366x768,Temporal Distance Task,,,,,,,info,BEGIN,,,,,,,,,,,,,,,,,,,,,,,,,$${counterbalance_group},,sub-101
Desktop or Laptop,Windows 10,Chrome 133.0.0.0,1536x864,1366x768,Temporal Distance Task,cb_10,1.0,temp_instructions,intro_screen,3tnme7,1.0,continue,,10462.7,10445.5,10462.7,10462.7,10445.5,10462.7,1.0,0.0,0.0,,Click To Continue,Continue Button,4.0,object-29,temp_instructions,,,Travel,,,,,,,$${counterbalance_group},,sub-101
Desktop or Laptop,Windows 10,Chrome 133.0.0.0,1536x864,1366x768,Temporal Distance Task,cb_10,1.0,temp_instructions,intro_screen_2,52v7ur,2.0,continue,,21102.89999999404,21088.8,21102.89999999404,21102.89999999404,21088.8,21102.89999999404,1.0,0.0,0.0,,Click To Continue,Continue Button,4.0,object-39,temp_instructions,,,Travel,,,,,,,$${counterbalance_group},,sub-101
Desktop or Laptop,Windows 10,Chrome 133.0.0.0,1536x864,1366x768,Temporal Distance Task,cb_10,1.0,temp_instructions,intro_screen_3,i7lvwx,3.0,continue,,5254.799999999996,5238.0999999999985,5254.799999999996,5254.799999999996,5238.0999999999985,5254.799999999996,1.0,0.0,0.0,,Click To Continue,Continue Button,4.0,object-67,temp_instructions,,,Travel,,,,,,,$${counterbalance_group},,sub-101
Desktop or Laptop,Windows 10,Chrome 133.0.0.0,1536x864,1366x768,Temporal Distance Task,cb_10,1.0,temp_instructions,test_q1,5ieqx1,4.0,response,choice_3,4317.69999998212,4310.5,4317.69999998212,4317.69999998212,4310.5,4317.69999998212,1.0,0.0,0.0,,Click Response,choice_3,5.0,object-345,temp_instructions,,,Travel,,,,,,,$${counterbalance_group},,sub-101
Desktop or Laptop,Windows 10,Chrome 133.0.0.0,1536x864,1366x768,Temporal Distance Task,cb_10,1.0,temp_instructions,score_corr,7ilvjr,5.0,continue,,938.9000000000017,928.4000000000017,938.9000000000017,938.9000000000017,928.4000000000017,938.9000000000017,1.0,0.0,0.0,,Click To Continue,Continue Button,3.0,object-23,temp_instructions,,,Travel,,,,,,,$${counterbalance_group},,sub-101
Desktop or Laptop,Windows 10,Chrome 133.0.0.0,1536x864,1366x768,Temporal Distance Task,cb_10,1.0,temp_eventStart,Screen 1,dgtyxe,1.0,continue,,1407.0,1393.0,1407.0,1407.0,1393.0,1407.0,1.0,0.0,0.0,,Click To Continue,Next Button,3.0,object-43,temp_eventStart,,,Travel,,,,,,,$${counterbalance_group},,sub-101
Desktop or Laptop,Windows 10,Chrome 133.0.0.0,1536x864,1366x768,Temporal Distance Task,cb_10,1.0,temp_dist_trial,num_items,zn7si1,1.0,response,num_miss,3000.800000000003,3000.800000000003,3000.800000000003,3000.800000000003,3000.800000000003,3000.800000000003,1.0,0.0,0.0,num_miss_tag,Time Limit,screen,0.0,screen,temp_dist_trial,1.0,t_m_13_1,travel_Miami,floatie,10.0,unique,single,t_m_13_1.jpg,Travel,$${counterbalance_group},,sub-101
Desktop or Laptop,Windows 10,Chrome 133.0.0.0,1536x864,1366x768,Temporal Distance Task,cb_10,2.0,temp_dist_trial,num_items,zn7si1,1.0,response,1_ITEM,929.1000000000205,912.7000000000116,929.1000000000205,929.1000000000205,912.7000000000116,929.1000000000205,1.0,0.0,0.0,,Click Response,1_count,3.0,object-46,temp_dist_trial,2.0,t_i_16_1,travel_Iceland,skis,10.0,unique,paired,t_i_16_1.jpg,Travel,$${counterbalance_group},,sub-101
Desktop or Laptop,Windows 10,Chrome 133.0.0.0,1536x864,1366x768,Temporal Distance Task,cb_10,3.0,temp_dist_trial,num_items,zn7si1,1.0,response,1_ITEM,1840.900000000009,1824.3000000000034,1840.900000000009,1840.900000000009,1824.3000000000034,1840.900000000009,1.0,0.0,0.0,,Click Response,1_count,3.0,object-46,temp_dist_trial,3.0,t_i_06_1,travel_Iceland,knit hat,10.0,unique,single,t_i_06_1.jpg,Travel,$${counterbalance_group},,sub-101
Desktop or Laptop,Windows 10,Chrome 133.0.0.0,1536x864,1366x768,Temporal Distance Task,cb_10,4.0,temp_dist_trial,num_items,zn7si1,1.0,response,1_ITEM,1207.2000000059634,1197.6000000000058,1207.2000000059634,1207.2000000059634,1197.6000000000058,1207.2000000059634,1.0,0.0,0.0,,Click Response,1_count,3.0,object-46,temp_dist_trial,4.0,t_s_04_1,travel_shared,instant camera,10.0,competing,single,t_s_04_1.jpg,Travel,$${counterbalance_group},,sub-101
Desktop or Laptop,Windows 10,Chrome 133.0.0.0,1536x864,1366x768,Temporal Distance Task,cb_10,5.0,temp_dist_trial,num_items,zn7si1,1.0,response,1_ITEM,1073.4999999821157,1060.1999999999969,1073.4999999821157,1073.4999999821157,1060.1999999999969,1073.4999999821157,1.0,0.0,0.0,,Click Response,1_count,3.0,object-46,temp_dist_trial,5.0,t_i_12_1,travel_Iceland,tent,10.0,unique,single,t_i_12_1.jpg,Travel,$${counterbalance_group},,sub-101
Desktop or Laptop,Windows 10,Chrome 133.0.0.0,1536x864,1366x768,Temporal Distance Task,cb_10,6.0,temp_dist_trial,num_items,zn7si1,1.0,response,2_ITEM,2587.3999999999937,2570.3999999999937,2587.3999999999937,2587.3999999999937,2570.3999999999937,2587.3999999999937,1.0,0.0,0.0,,Click Response,2_count,5.0,object-49,temp_dist_trial,6.0,t_m_11_1,travel_Miami,collapsible beach chair,10.0,unique,single,t_m_11_1.jpg,Travel,$${counterbalance_group},,sub-101
Desktop or Laptop,Windows 10,Chrome 133.0.0.0,1536x864,1366x768,Temporal Distance Task,cb_10,6.0,temp_dist_trial,dist_items,qkpkxw,2.0,info,,16.40000000000873,0.0,16.40000000000873,16.40000000000873,0.0,16.40000000000873,1.0,0.0,0.0,,Slider,Slider,4.0,object-56,temp_dist_trial,6.0,t_m_11_1,travel_Miami,collapsible beach chair,10.0,unique,single,t_m_11_1.jpg,Travel,$${counterbalance_group},,sub-101
Desktop or Laptop,Windows 10,Chrome 133.0.0.0,1536x864,1366x768,Temporal Distance Task,cb_10,6.0,temp_dist_trial,dist_items,qkpkxw,2.0,continue,,3497.699999999982,3481.0999999999913,3497.699999999982,3497.699999999982,3481.0999999999913,3497.699999999982,1.0,0.0,0.0,,Click To Continue,Next button,7.0,object-60,temp_dist_trial,6.0,t_m_11_1,travel_Miami,collapsible beach chair,10.0,unique,single,t_m_11_1.jpg,Travel,$${counterbalance_group},,sub-101
Desktop or Laptop,Windows 10,Chrome 133.0.0.0,1536x864,1366x768,Temporal Distance Task,cb_10,6.0,temp_dist_trial,dist_items,qkpkxw,2.0,response,28,1624.7999999999884,3481.0999999999913,3497.699999999982,1624.7999999999884,3481.0999999999913,3497.699999999982,1.0,1872.8999999999944,0.0,,Slider,Slider,4.0,object-56,temp_dist_trial,6.0,t_m_11_1,travel_Miami,collapsible beach chair,10.0,unique,single,t_m_11_1.jpg,Travel,$${counterbalance_group},,sub-101
Desktop or Laptop,Windows 10,Chrome 133.0.0.0,1536x864,1366x768,Temporal Distance Task,cb_10,7.0,temp_dist_trial,num_items,zn7si1,1.0,response,2_ITEM,2504.2999999999884,2487.699999999997,2504.2999999999884,2504.2999999999884,2487.699999999997,2504.2999999999884,1.0,0.0,0.0,,Click Response,2_count,5.0,object-49,temp_dist_trial,7.0,t_i_10_1,travel_Iceland,trekking poles,10.0,unique,paired,t_i_10_1.jpg,Travel,$${counterbalance_group},,sub-101
Desktop or Laptop,Windows 10,Chrome 133.0.0.0,1536x864,1366x768,Temporal Distance Task,cb_10,7.0,temp_dist_trial,dist_items,qkpkxw,2.0,info,,17.10000000000582,0.0,17.10000000000582,17.10000000000582,0.0,17.10000000000582,1.0,0.0,0.0,,Slider,Slider,4.0,object-56,temp_dist_trial,7.0,t_i_10_1,travel_Iceland,trekking poles,10.0,unique,paired,t_i_10_1.jpg,Travel,$${counterbalance_group},,sub-101
Desktop or Laptop,Windows 10,Chrome 133.0.0.0,1536x864,1366x768,Temporal Distance Task,cb_10,7.0,temp_dist_trial,dist_items,qkpkxw,2.0,continue,,2734.89999999998,2718.2999999999884,2734.89999999998,2734.89999999998,2718.2999999999884,2734.89999999998,1.0,0.0,0.0,,Click To Continue,Next button,7.0,object-60,temp_dist_trial,7.0,t_i_10_1,travel_Iceland,trekking poles,10.0,unique,paired,t_i_10_1.jpg,Travel,$${counterbalance_group},,sub-101
Desktop or Laptop,Windows 10,Chrome 133.0.0.0,1536x864,1366x768,Temporal Distance Task,cb_10,7.0,temp_dist_trial,dist_items,qkpkxw,2.0,response,73,1458.1999999999966,2718.2999999999884,2734.89999999998,1458.1999999999966,2718.2999999999884,2734.89999999998,1.0,1276.6999999999825,0.0,,Slider,Slider,4.0,object-56,temp_dist_trial,7.0,t_i_10_1,travel_Iceland,trekking poles,10.0,unique,paired,t_i_10_1.jpg,Travel,$${counterbalance_group},,sub-101
Desktop or Laptop,Windows 10,Chrome 133.0.0.0,1536x864,1366x768,Temporal Distance Task,cb_10,8.0,temp_dist_trial,num_items,zn7si1,1.0,response,2_ITEM,1797.7999999880853,1792.6000000000058,1797.7999999880853,1797.7999999880853,1792.6000000000058,1797.7999999880853,1.0,0.0,0.0,,Click Response,2_count,5.0,object-49,temp_dist_trial,8.0,t_s_17_1,travel_shared,toothbrush,10.0,competing,paired,t_s_17_1.jpg,Travel,$${counterbalance_group},,sub-101
Desktop or Laptop,Windows 10,Chrome 133.0.0.0,1536x864,1366x768,Temporal Distance Task,cb_10,8.0,temp_dist_trial,dist_items,qkpkxw,2.0,info,,16.5,0.0,16.5,16.5,0.0,16.5,1.0,0.0,0.0,,Slider,Slider,4.0,object-56,temp_dist_trial,8.0,t_s_17_1,travel_shared,toothbrush,10.0,competing,paired,t_s_17_1.jpg,Travel,$${counterbalance_group},,sub-101
Desktop or Laptop,Windows 10,Chrome 133.0.0.0,1536x864,1366x768,Temporal Distance Task,cb_10,8.0,temp_dist_trial,dist_items,qkpkxw,2.0,continue,,3462.200000005964,3448.900000000009,3462.200000005964,3462.200000005964,3448.900000000009,3462.200000005964,1.0,0.0,0.0,,Click To Continue,Next button,7.0,object-60,temp_dist_trial,8.0,t_s_17_1,travel_shared,toothbrush,10.0,competing,paired,t_s_17_1.jpg,Travel,$${counterbalance_group},,sub-101
Desktop or Laptop,Windows 10,Chrome 133.0.0.0,1536x864,1366x768,Temporal Distance Task,cb_10,8.0,temp_dist_trial,dist_items,qkpkxw,2.0,response,61,1375.900000000009,3448.900000000009,3466.400000000009,1375.900000000009,3448.900000000009,3466.400000000009,1.0,2090.5,0.0,,Slider,Slider,4.0,object-56,temp_dist_trial,8.0,t_s_17_1,travel_shared,toothbrush,10.0,competing,paired,t_s_17_1.jpg,Travel,$${counterbalance_group},,sub-101
Desktop or Laptop,Windows 10,Chrome 133.0.0.0,1536x864,1366x768,Temporal Distance Task,cb_10,9.0,temp_dist_trial,num_items,zn7si1,1.0,response,2_ITEM,1285.0999999880733,1275.8999999999942,1285.0999999880733,1285.0999999880733,1275.8999999999942,1285.0999999880733,1.0,0.0,0.0,,Click Response,2_count,5.0,object-49,temp_dist_trial,9.0,t_m_15_1,travel_Miami,shorts,10.0,unique,paired,t_m_15_1.jpg,Travel,$${counterbalance_group},,sub-101
Desktop or Laptop,Windows 10,Chrome 133.0.0.0,1536x864,1366x768,Temporal Distance Task,cb_10,9.0,temp_dist_trial,dist_items,qkpkxw,2.0,info,,16.60000000000582,0.0,16.60000000000582,16.60000000000582,0.0,16.60000000000582,1.0,0.0,0.0,,Slider,Slider,4.0,object-56,temp_dist_trial,9.0,t_m_15_1,travel_Miami,shorts,10.0,unique,paired,t_m_15_1.jpg,Travel,$${counterbalance_group},,sub-101
Desktop or Laptop,Windows 10,Chrome 133.0.0.0,1536x864,1366x768,Temporal Distance Task,cb_10,9.0,temp_dist_trial,dist_items,qkpkxw,2.0,continue,,2114.5999999940395,2106.800000000003,2114.5999999940395,2114.5999999940395,2106.800000000003,2114.5999999940395,1.0,0.0,0.0,,Click To Continue,Next button,7.0,object-60,temp_dist_trial,9.0,t_m_15_1,travel_Miami,shorts,10.0,unique,paired,t_m_15_1.jpg,Travel,$${counterbalance_group},,sub-101
Desktop or Laptop,Windows 10,Chrome 133.0.0.0,1536x864,1366x768,Temporal Distance Task,cb_10,9.0,temp_dist_trial,dist_items,qkpkxw,2.0,response,78,977.5,2106.800000000003,2117.9000000059605,977.5,2106.800000000003,2117.9000000059605,1.0,1140.4000000059605,0.0,,Slider,Slider,4.0,object-56,temp_dist_trial,9.0,t_m_15_1,travel_Miami,shorts,10.0,unique,paired,t_m_15_1.jpg,Travel,$${counterbalance_group},,sub-101
Desktop or Laptop,Windows 10,Chrome 133.0.0.0,1536x864,1366x768,Temporal Distance Task,cb_10,10.0,temp_dist_trial,num_items,zn7si1,1.0,response,1_ITEM,1489.1999999999966,1473.599999999991,1489.1999999999966,1489.1999999999966,1473.599999999991,1489.1999999999966,1.0,0.0,0.0,,Click Response,1_count,3.0,object-46,temp_dist_trial,10.0,t_m_18_1,travel_Miami,waterproof tote,10.0,unique,paired,t_m_18_1.jpg,Travel,$${counterbalance_group},,sub-101
Desktop or Laptop,Windows 10,Chrome 133.0.0.0,1536x864,1366x768,Temporal Distance Task,cb_10,11.0,temp_dist_trial,num_items,zn7si1,1.0,response,1_ITEM,853.8999999999942,844.0999999999913,853.8999999999942,853.8999999999942,844.0999999999913,853.8999999999942,1.0,0.0,0.0,,Click Response,1_count,3.0,object-46,temp_dist_trial,11.0,t_s_24_1,travel_shared,ear plugs,10.0,competing,single,t_s_24_1.jpg,Travel,$${counterbalance_group},,sub-101
Desktop or Laptop,Windows 10,Chrome 133.0.0.0,1536x864,1366x768,Temporal Distance Task,cb_10,12.0,temp_dist_trial,num_items,zn7si1,1.0,response,2_ITEM,1369.1000000059576,1359.5999999999913,1369.1000000059576,1369.1000000059576,1359.5999999999913,1369.1000000059576,1.0,0.0,0.0,,Click Response,2_count,5.0,object-49,temp_dist_trial,12.0,t_s_12_1,travel_shared,clear toiletry bag,10.0,competing,paired,t_s_12_1.jpg,Travel,$${counterbalance_group},,sub-101
Desktop or Laptop,Windows 10,Chrome 133.0.0.0,1536x864,1366x768,Temporal Distance Task,cb_10,12.0,temp_dist_trial,dist_items,qkpkxw,2.0,info,,16.60000000000582,0.0,16.60000000000582,16.60000000000582,0.0,16.60000000000582,1.0,0.0,0.0,,Slider,Slider,4.0,object-56,temp_dist_trial,12.0,t_s_12_1,travel_shared,clear toiletry bag,10.0,competing,paired,t_s_12_1.jpg,Travel,$${counterbalance_group},,sub-101
Desktop or Laptop,Windows 10,Chrome 133.0.0.0,1536x864,1366x768,Temporal Distance Task,cb_10,12.0,temp_dist_trial,dist_items,qkpkxw,2.0,continue,,2037.900000000009,2021.5,2037.900000000009,2037.900000000009,2021.5,2037.900000000009,1.0,0.0,0.0,,Click To Continue,Next button,7.0,object-60,temp_dist_trial,12.0,t_s_12_1,travel_shared,clear toiletry bag,10.0,competing,paired,t_s_12_1.jpg,Travel,$${counterbalance_group},,sub-101
Desktop or Laptop,Windows 10,Chrome 133.0.0.0,1536x864,1366x768,Temporal Distance Task,cb_10,12.0,temp_dist_trial,dist_items,qkpkxw,2.0,response,85,1293.0999999999913,2021.5,2037.900000000009,1293.0999999999913,2021.5,2037.900000000009,1.0,744.8000000000177,0.0,,Slider,Slider,4.0,object-56,temp_dist_trial,12.0,t_s_12_1,travel_shared,clear toiletry bag,10.0,competing,paired,t_s_12_1.jpg,Travel,$${counterbalance_group},,sub-101
Desktop or Laptop,Windows 10,Chrome 133.0.0.0,1536x864,1366x768,Temporal Distance Task,cb_10,13.0,temp_dist_trial,num_items,zn7si1,1.0,response,1_ITEM,1832.6999999821128,1826.0,1832.6999999821128,1832.6999999821128,1826.0,1832.6999999821128,1.0,0.0,0.0,,Click Response,1_count,3.0,object-46,temp_dist_trial,13.0,t_i_14_1,travel_Iceland,snow pants,10.0,unique,paired,t_i_14_1.jpg,Travel,$${counterbalance_group},,sub-101
Desktop or Laptop,Windows 10,Chrome 133.0.0.0,1536x864,1366x768,Temporal Distance Task,cb_10,14.0,temp_dist_trial,num_items,zn7si1,1.0,response,2_ITEM,1295.3000000000031,1277.3000000000031,1295.3000000000031,1295.3000000000031,1277.3000000000031,1295.3000000000031,1.0,0.0,0.0,,Click Response,2_count,5.0,object-49,temp_dist_trial,14.0,t_s_19_1,travel_shared,pajamas,10.0,competing,single,t_s_19_1.jpg,Travel,$${counterbalance_group},,sub-101
Desktop or Laptop,Windows 10,Chrome 133.0.0.0,1536x864,1366x768,Temporal Distance Task,cb_10,14.0,temp_dist_trial,dist_items,qkpkxw,2.0,info,,16.59999999999127,0.0,16.59999999999127,16.59999999999127,0.0,16.59999999999127,1.0,0.0,0.0,,Slider,Slider,4.0,object-56,temp_dist_trial,14.0,t_s_19_1,travel_shared,pajamas,10.0,competing,single,t_s_19_1.jpg,Travel,$${counterbalance_group},,sub-101
Desktop or Laptop,Windows 10,Chrome 133.0.0.0,1536x864,1366x768,Temporal Distance Task,cb_10,14.0,temp_dist_trial,dist_items,qkpkxw,2.0,continue,,1873.900000000009,1856.8000000000034,1873.900000000009,1873.900000000009,1856.8000000000034,1873.900000000009,1.0,0.0,0.0,,Click To Continue,Next button,7.0,object-60,temp_dist_trial,14.0,t_s_19_1,travel_shared,pajamas,10.0,competing,single,t_s_19_1.jpg,Travel,$${counterbalance_group},,sub-101
Desktop or Laptop,Windows 10,Chrome 133.0.0.0,1536x864,1366x768,Temporal Distance Task,cb_10,14.0,temp_dist_trial,dist_items,qkpkxw,2.0,response,85,927.6000000000058,1856.8000000000034,1873.900000000009,927.6000000000058,1856.8000000000034,1873.900000000009,1.0,946.3000000000028,0.0,,Slider,Slider,4.0,object-56,temp_dist_trial,14.0,t_s_19_1,travel_shared,pajamas,10.0,competing,single,t_s_19_1.jpg,Travel,$${counterbalance_group},,sub-101
Desktop or Laptop,Windows 10,Chrome 133.0.0.0,1536x864,1366x768,Temporal Distance Task,cb_10,15.0,temp_dist_trial,num_items,zn7si1,1.0,response,1_ITEM,1148.199999988079,1144.6999999999969,1148.199999988079,1148.199999988079,1144.6999999999969,1148.199999988079,1.0,0.0,0.0,,Click Response,1_count,3.0,object-46,temp_dist_trial,15.0,t_s_21_1,travel_shared,umbrella,10.0,competing,paired,t_s_21_1.jpg,Travel,$${counterbalance_group},,sub-101
Desktop or Laptop,Windows 10,Chrome 133.0.0.0,1536x864,1366x768,Temporal Distance Task,cb_10,16.0,temp_dist_trial,num_items,zn7si1,1.0,response,1_ITEM,1720.0000000059665,1711.7000000000116,1720.0000000059665,1720.0000000059665,1711.7000000000116,1720.0000000059665,1.0,0.0,0.0,,Click Response,1_count,3.0,object-46,temp_dist_trial,16.0,t_i_04_1,travel_Iceland,portable camping stove,10.0,unique,paired,t_i_04_1.jpg,Travel,$${counterbalance_group},,sub-101
Desktop or Laptop,Windows 10,Chrome 133.0.0.0,1536x864,1366x768,Temporal Distance Task,cb_10,17.0,temp_dist_trial,num_items,zn7si1,1.0,response,1_ITEM,976.1000000059577,962.0,976.1000000059577,976.1000000059577,962.0,976.1000000059577,1.0,0.0,0.0,,Click Response,1_count,3.0,object-46,temp_dist_trial,17.0,t_i_18_1,travel_Iceland,ski mask,10.0,unique,paired,t_i_18_1.jpg,Travel,$${counterbalance_group},,sub-101
Desktop or Laptop,Windows 10,Chrome 133.0.0.0,1536x864,1366x768,Temporal Distance Task,cb_10,18.0,temp_dist_trial,num_items,zn7si1,1.0,response,2_ITEM,1558.7000000000116,1542.400000000009,1558.7000000000116,1558.7000000000116,1542.400000000009,1558.7000000000116,1.0,0.0,0.0,,Click Response,2_count,5.0,object-49,temp_dist_trial,18.0,t_i_19_1,travel_Iceland,rope,10.0,unique,paired,t_i_19_1.jpg,Travel,$${counterbalance_group},,sub-101
Desktop or Laptop,Windows 10,Chrome 133.0.0.0,1536x864,1366x768,Temporal Distance Task,cb_10,18.0,temp_dist_trial,dist_items,qkpkxw,2.0,info,,16.69999999999709,0.0,16.69999999999709,16.69999999999709,0.0,16.69999999999709,1.0,0.0,0.0,,Slider,Slider,4.0,object-56,temp_dist_trial,18.0,t_i_19_1,travel_Iceland,rope,10.0,unique,paired,t_i_19_1.jpg,Travel,$${counterbalance_group},,sub-101
Desktop or Laptop,Windows 10,Chrome 133.0.0.0,1536x864,1366x768,Temporal Distance Task,cb_10,18.0,temp_dist_trial,dist_items,qkpkxw,2.0,continue,,2367.300000000003,2356.1000000000063,2367.300000000003,2367.300000000003,2356.1000000000063,2367.300000000003,1.0,0.0,0.0,,Click To Continue,Next button,7.0,object-60,temp_dist_trial,18.0,t_i_19_1,travel_Iceland,rope,10.0,unique,paired,t_i_19_1.jpg,Travel,$${counterbalance_group},,sub-101
Desktop or Laptop,Windows 10,Chrome 133.0.0.0,1536x864,1366x768,Temporal Distance Task,cb_10,18.0,temp_dist_trial,dist_items,qkpkxw,2.0,response,39,1641.1999999999966,2356.1000000000063,2371.499999988082,1641.1999999999966,2356.1000000000063,2371.499999988082,1.0,730.2999999880849,0.0,,Slider,Slider,4.0,object-56,temp_dist_trial,18.0,t_i_19_1,travel_Iceland,rope,10.0,unique,paired,t_i_19_1.jpg,Travel,$${counterbalance_group},,sub-101
Desktop or Laptop,Windows 10,Chrome 133.0.0.0,1536x864,1366x768,Temporal Distance Task,cb_10,19.0,temp_dist_trial,num_items,zn7si1,1.0,response,1_ITEM,1065.8999999880764,1058.8000000000031,1065.8999999880764,1065.8999999880764,1058.8000000000031,1065.8999999880764,1.0,0.0,0.0,,Click Response,1_count,3.0,object-46,temp_dist_trial,19.0,t_s_01_1,travel_shared,fanny pack,10.0,competing,single,t_s_01_1.jpg,Travel,$${counterbalance_group},,sub-101
Desktop or Laptop,Windows 10,Chrome 133.0.0.0,1536x864,1366x768,Temporal Distance Task,cb_10,20.0,temp_dist_trial,num_items,zn7si1,1.0,response,2_ITEM,1536.0999999940395,1528.0,1536.0999999940395,1536.0999999940395,1528.0,1536.0999999940395,1.0,0.0,0.0,,Click Response,2_count,5.0,object-49,temp_dist_trial,20.0,t_m_19_1,travel_Miami,surfboard,10.0,unique,paired,t_m_19_1.jpg,Travel,$${counterbalance_group},,sub-101
Desktop or Laptop,Windows 10,Chrome 133.0.0.0,1536x864,1366x768,Temporal Distance Task,cb_10,20.0,temp_dist_trial,dist_items,qkpkxw,2.0,info,,16.60000000000582,0.0,16.60000000000582,16.60000000000582,0.0,16.60000000000582,1.0,0.0,0.0,,Slider,Slider,4.0,object-56,temp_dist_trial,20.0,t_m_19_1,travel_Miami,surfboard,10.0,unique,paired,t_m_19_1.jpg,Travel,$${counterbalance_group},,sub-101
Desktop or Laptop,Windows 10,Chrome 133.0.0.0,1536x864,1366x768,Temporal Distance Task,cb_10,20.0,temp_dist_trial,dist_items,qkpkxw,2.0,continue,,2144.699999999997,2138.5,2144.699999999997,2144.699999999997,2138.5,2144.699999999997,1.0,0.0,0.0,,Click To Continue,Next button,7.0,object-60,temp_dist_trial,20.0,t_m_19_1,travel_Miami,surfboard,10.0,unique,paired,t_m_19_1.jpg,Travel,$${counterbalance_group},,sub-101
Desktop or Laptop,Windows 10,Chrome 133.0.0.0,1536x864,1366x768,Temporal Distance Task,cb_10,20.0,temp_dist_trial,dist_items,qkpkxw,2.0,response,83,1242.8000000000031,2138.5,2146.999999982116,1242.8000000000031,2138.5,2146.999999982116,1.0,904.1999999821128,0.0,,Slider,Slider,4.0,object-56,temp_dist_trial,20.0,t_m_19_1,travel_Miami,surfboard,10.0,unique,paired,t_m_19_1.jpg,Travel,$${counterbalance_group},,sub-101
Desktop or Laptop,Windows 10,Chrome 133.0.0.0,1536x864,1366x768,Temporal Distance Task,cb_10,21.0,temp_dist_trial,num_items,zn7si1,1.0,response,1_ITEM,1718.1999999999966,1707.6999999999966,1718.1999999999966,1718.1999999999966,1707.6999999999966,1718.1999999999966,1.0,0.0,0.0,,Click Response,1_count,3.0,object-46,temp_dist_trial,21.0,t_m_05_1,travel_Miami,sunscreen,10.0,unique,single,t_m_05_1.jpg,Travel,$${counterbalance_group},,sub-101
Desktop or Laptop,Windows 10,Chrome 133.0.0.0,1536x864,1366x768,Temporal Distance Task,cb_10,22.0,temp_dist_trial,num_items,zn7si1,1.0,response,1_ITEM,1392.7999999999884,1376.1999999999966,1392.7999999999884,1392.7999999999884,1376.1999999999966,1392.7999999999884,1.0,0.0,0.0,,Click Response,1_count,3.0,object-46,temp_dist_trial,22.0,t_s_16_1,travel_shared,chapstick,10.0,competing,paired,t_s_16_1.jpg,Travel,$${counterbalance_group},,sub-101
Desktop or Laptop,Windows 10,Chrome 133.0.0.0,1536x864,1366x768,Temporal Distance Task,cb_10,23.0,temp_dist_trial,num_items,zn7si1,1.0,response,2_ITEM,1200.8000000000031,1193.5,1200.8000000000031,1200.8000000000031,1193.5,1200.8000000000031,1.0,0.0,0.0,,Click Response,2_count,5.0,object-49,temp_dist_trial,23.0,t_s_05_1,travel_shared,neck pillow,10.0,competing,paired,t_s_05_1.jpg,Travel,$${counterbalance_group},,sub-101
Desktop or Laptop,Windows 10,Chrome 133.0.0.0,1536x864,1366x768,Temporal Distance Task,cb_10,23.0,temp_dist_trial,dist_items,qkpkxw,2.0,info,,17.30000000000291,0.0,17.30000000000291,17.30000000000291,0.0,17.30000000000291,1.0,0.0,0.0,,Slider,Slider,4.0,object-56,temp_dist_trial,23.0,t_s_05_1,travel_shared,neck pillow,10.0,competing,paired,t_s_05_1.jpg,Travel,$${counterbalance_group},,sub-101
Desktop or Laptop,Windows 10,Chrome 133.0.0.0,1536x864,1366x768,Temporal Distance Task,cb_10,23.0,temp_dist_trial,dist_items,qkpkxw,2.0,continue,,2797.699999999997,2784.3999999999933,2797.699999999997,2797.699999999997,2784.3999999999933,2797.699999999997,1.0,0.0,0.0,,Click To Continue,Next button,7.0,object-60,temp_dist_trial,23.0,t_s_05_1,travel_shared,neck pillow,10.0,competing,paired,t_s_05_1.jpg,Travel,$${counterbalance_group},,sub-101
Desktop or Laptop,Windows 10,Chrome 133.0.0.0,1536x864,1366x768,Temporal Distance Task,cb_10,23.0,temp_dist_trial,dist_items,qkpkxw,2.0,response,28,1757.5,2784.3999999999933,2801.0999999999913,1757.5,2784.3999999999933,2801.0999999999913,1.0,1043.5999999999913,0.0,,Slider,Slider,4.0,object-56,temp_dist_trial,23.0,t_s_05_1,travel_shared,neck pillow,10.0,competing,paired,t_s_05_1.jpg,Travel,$${counterbalance_group},,sub-101
Desktop or Laptop,Windows 10,Chrome 133.0.0.0,1536x864,1366x768,Temporal Distance Task,cb_10,24.0,temp_dist_trial,num_items,zn7si1,1.0,response,2_ITEM,1620.3000000000034,1609.400000000009,1620.3000000000034,1620.3000000000034,1609.400000000009,1620.3000000000034,1.0,0.0,0.0,,Click Response,2_count,5.0,object-49,temp_dist_trial,24.0,t_s_02_1,travel_shared,water bottle,10.0,competing,paired,t_s_02_1.jpg,Travel,$${counterbalance_group},,sub-101
Desktop or Laptop,Windows 10,Chrome 133.0.0.0,1536x864,1366x768,Temporal Distance Task,cb_10,24.0,temp_dist_trial,dist_items,qkpkxw,2.0,info,,16.30000000000291,0.0,16.30000000000291,16.30000000000291,0.0,16.30000000000291,1.0,0.0,0.0,,Slider,Slider,4.0,object-56,temp_dist_trial,24.0,t_s_02_1,travel_shared,water bottle,10.0,competing,paired,t_s_02_1.jpg,Travel,$${counterbalance_group},,sub-101
Desktop or Laptop,Windows 10,Chrome 133.0.0.0,1536x864,1366x768,Temporal Distance Task,cb_10,24.0,temp_dist_trial,dist_items,qkpkxw,2.0,continue,,2196.2000000059634,2187.800000000003,2196.2000000059634,2196.2000000059634,2187.800000000003,2196.2000000059634,1.0,0.0,0.0,,Click To Continue,Next button,7.0,object-60,temp_dist_trial,24.0,t_s_02_1,travel_shared,water bottle,10.0,competing,paired,t_s_02_1.jpg,Travel,$${counterbalance_group},,sub-101
Desktop or Laptop,Windows 10,Chrome 133.0.0.0,1536x864,1366x768,Temporal Distance Task,cb_10,24.0,temp_dist_trial,dist_items,qkpkxw,2.0,response,79,1342.3000000000031,2187.800000000003,2197.499999988082,1342.3000000000031,2187.800000000003,2197.499999988082,1.0,855.1999999880791,0.0,,Slider,Slider,4.0,object-56,temp_dist_trial,24.0,t_s_02_1,travel_shared,water bottle,10.0,competing,paired,t_s_02_1.jpg,Travel,$${counterbalance_group},,sub-101
Desktop or Laptop,Windows 10,Chrome 133.0.0.0,1536x864,1366x768,Temporal Distance Task,cb_10,25.0,temp_dist_trial,num_items,zn7si1,1.0,response,2_ITEM,1407.1999999880786,1393.3999999999942,1407.1999999880786,1407.1999999880786,1393.3999999999942,1407.1999999880786,1.0,0.0,0.0,,Click Response,2_count,5.0,object-49,temp_dist_trial,25.0,t_m_08_1,travel_Miami,flipflops,10.0,unique,paired,t_m_08_1.jpg,Travel,$${counterbalance_group},,sub-101
Desktop or Laptop,Windows 10,Chrome 133.0.0.0,1536x864,1366x768,Temporal Distance Task,cb_10,25.0,temp_dist_trial,dist_items,qkpkxw,2.0,info,,16.5,0.0,16.5,16.5,0.0,16.5,1.0,0.0,0.0,,Slider,Slider,4.0,object-56,temp_dist_trial,25.0,t_m_08_1,travel_Miami,flipflops,10.0,unique,paired,t_m_08_1.jpg,Travel,$${counterbalance_group},,sub-101
Desktop or Laptop,Windows 10,Chrome 133.0.0.0,1536x864,1366x768,Temporal Distance Task,cb_10,25.0,temp_dist_trial,dist_items,qkpkxw,2.0,continue,,1707.0,1690.3999999999942,1707.0,1707.0,1690.3999999999942,1707.0,1.0,0.0,0.0,,Click To Continue,Next button,7.0,object-60,temp_dist_trial,25.0,t_m_08_1,travel_Miami,flipflops,10.0,unique,paired,t_m_08_1.jpg,Travel,$${counterbalance_group},,sub-101
Desktop or Laptop,Windows 10,Chrome 133.0.0.0,1536x864,1366x768,Temporal Distance Task,cb_10,25.0,temp_dist_trial,dist_items,qkpkxw,2.0,response,81,812.5,1690.3999999999942,1707.0,812.5,1690.3999999999942,1707.0,1.0,894.5,0.0,,Slider,Slider,4.0,object-56,temp_dist_trial,25.0,t_m_08_1,travel_Miami,flipflops,10.0,unique,paired,t_m_08_1.jpg,Travel,$${counterbalance_group},,sub-101
Desktop or Laptop,Windows 10,Chrome 133.0.0.0,1536x864,1366x768,Temporal Distance Task,cb_10,26.0,temp_dist_trial,num_items,zn7si1,1.0,response,1_ITEM,1128.1999999999825,1111.8999999999942,1128.1999999999825,1128.1999999999825,1111.8999999999942,1128.1999999999825,1.0,0.0,0.0,,Click Response,1_count,3.0,object-46,temp_dist_trial,26.0,t_s_06_1,travel_shared,luggage,10.0,competing,paired,t_s_06_1.jpg,Travel,$${counterbalance_group},,sub-101
Desktop or Laptop,Windows 10,Chrome 133.0.0.0,1536x864,1366x768,Temporal Distance Task,cb_10,27.0,temp_dist_trial,num_items,zn7si1,1.0,response,1_ITEM,1392.500000000029,1375.8000000000175,1392.500000000029,1392.500000000029,1375.8000000000175,1392.500000000029,1.0,0.0,0.0,,Click Response,1_count,3.0,object-46,temp_dist_trial,27.0,t_s_20_1,travel_shared,travel pill case,10.0,competing,paired,t_s_20_1.jpg,Travel,$${counterbalance_group},,sub-101
Desktop or Laptop,Windows 10,Chrome 133.0.0.0,1536x864,1366x768,Temporal Distance Task,cb_10,28.0,temp_dist_trial,num_items,zn7si1,1.0,response,2_ITEM,1276.500000000029,1259.8000000000175,1276.500000000029,1276.500000000029,1259.8000000000175,1276.500000000029,1.0,0.0,0.0,,Click Response,2_count,5.0,object-49,temp_dist_trial,28.0,t_i_08_1,travel_Iceland,thick socks,10.0,unique,paired,t_i_08_1.jpg,Travel,$${counterbalance_group},,sub-101
Desktop or Laptop,Windows 10,Chrome 133.0.0.0,1536x864,1366x768,Temporal Distance Task,cb_10,28.0,temp_dist_trial,dist_items,qkpkxw,2.0,info,,16.5,0.0,16.5,16.5,0.0,16.5,1.0,0.0,0.0,,Slider,Slider,4.0,object-56,temp_dist_trial,28.0,t_i_08_1,travel_Iceland,thick socks,10.0,unique,paired,t_i_08_1.jpg,Travel,$${counterbalance_group},,sub-101
Desktop or Laptop,Windows 10,Chrome 133.0.0.0,1536x864,1366x768,Temporal Distance Task,cb_10,28.0,temp_dist_trial,dist_items,qkpkxw,2.0,continue,,1823.8000000000175,1807.2000000000119,1823.8000000000175,1823.8000000000175,1807.2000000000119,1823.8000000000175,1.0,0.0,0.0,,Click To Continue,Next button,7.0,object-60,temp_dist_trial,28.0,t_i_08_1,travel_Iceland,thick socks,10.0,unique,paired,t_i_08_1.jpg,Travel,$${counterbalance_group},,sub-101
Desktop or Laptop,Windows 10,Chrome 133.0.0.0,1536x864,1366x768,Temporal Distance Task,cb_10,28.0,temp_dist_trial,dist_items,qkpkxw,2.0,response,32,896.1000000000058,1807.2000000000119,1823.8000000000175,896.1000000000058,1807.2000000000119,1823.8000000000175,1.0,927.7000000000116,0.0,,Slider,Slider,4.0,object-56,temp_dist_trial,28.0,t_i_08_1,travel_Iceland,thick socks,10.0,unique,paired,t_i_08_1.jpg,Travel,$${counterbalance_group},,sub-101
Desktop or Laptop,Windows 10,Chrome 133.0.0.0,1536x864,1366x768,Temporal Distance Task,cb_10,29.0,temp_dist_trial,num_items,zn7si1,1.0,response,1_ITEM,1071.5,1061.1000000000058,1071.5,1071.5,1061.1000000000058,1071.5,1.0,0.0,0.0,,Click Response,1_count,3.0,object-46,temp_dist_trial,29.0,t_s_11_1,travel_shared,eye mask,10.0,competing,paired,t_s_11_1.jpg,Travel,$${counterbalance_group},,sub-101
Desktop or Laptop,Windows 10,Chrome 133.0.0.0,1536x864,1366x768,Temporal Distance Task,cb_10,30.0,temp_dist_trial,num_items,zn7si1,1.0,response,1_ITEM,867.3999999880908,863.6000000000058,867.3999999880908,867.3999999880908,863.6000000000058,867.3999999880908,1.0,0.0,0.0,,Click Response,1_count,3.0,object-46,temp_dist_trial,30.0,t_s_14_1,travel_shared,hand sanitizer,10.0,competing,paired,t_s_14_1.jpg,Travel,$${counterbalance_group},,sub-101
Desktop or Laptop,Windows 10,Chrome 133.0.0.0,1536x864,1366x768,Temporal Distance Task,cb_10,31.0,temp_dist_trial,num_items,zn7si1,1.0,response,2_ITEM,1746.6999999940454,1740.0,1746.6999999940454,1746.6999999940454,1740.0,1746.6999999940454,1.0,0.0,0.0,,Click Response,2_count,5.0,object-49,temp_dist_trial,31.0,t_s_22_1,travel_shared,belt,10.0,competing,paired,t_s_22_1.jpg,Travel,$${counterbalance_group},,sub-101
Desktop or Laptop,Windows 10,Chrome 133.0.0.0,1536x864,1366x768,Temporal Distance Task,cb_10,31.0,temp_dist_trial,dist_items,qkpkxw,2.0,info,,18.5,0.0,18.5,18.5,0.0,18.5,1.0,0.0,0.0,,Slider,Slider,4.0,object-56,temp_dist_trial,31.0,t_s_22_1,travel_shared,belt,10.0,competing,paired,t_s_22_1.jpg,Travel,$${counterbalance_group},,sub-101
Desktop or Laptop,Windows 10,Chrome 133.0.0.0,1536x864,1366x768,Temporal Distance Task,cb_10,31.0,temp_dist_trial,dist_items,qkpkxw,2.0,continue,,1612.8999999821247,1605.7000000000116,1612.8999999821247,1612.8999999821247,1605.7000000000116,1612.8999999821247,1.0,0.0,0.0,,Click To Continue,Next button,7.0,object-60,temp_dist_trial,31.0,t_s_22_1,travel_shared,belt,10.0,competing,paired,t_s_22_1.jpg,Travel,$${counterbalance_group},,sub-101
Desktop or Laptop,Windows 10,Chrome 133.0.0.0,1536x864,1366x768,Temporal Distance Task,cb_10,31.0,temp_dist_trial,dist_items,qkpkxw,2.0,response,84,643.8000000000175,1605.7000000000116,1614.7999999880853,643.8000000000175,1605.7000000000116,1614.7999999880853,1.0,970.9999999880673,0.0,,Slider,Slider,4.0,object-56,temp_dist_trial,31.0,t_s_22_1,travel_shared,belt,10.0,competing,paired,t_s_22_1.jpg,Travel,$${counterbalance_group},,sub-101
Desktop or Laptop,Windows 10,Chrome 133.0.0.0,1536x864,1366x768,Temporal Distance Task,cb_10,32.0,temp_dist_trial,num_items,zn7si1,1.0,response,1_ITEM,978.5,961.8999999999942,978.5,978.5,961.8999999999942,978.5,1.0,0.0,0.0,,Click Response,1_count,3.0,object-46,temp_dist_trial,32.0,t_i_20_1,travel_Iceland,lantern,10.0,unique,paired,t_i_20_1.jpg,Travel,$${counterbalance_group},,sub-101
Desktop or Laptop,Windows 10,Chrome 133.0.0.0,1536x864,1366x768,Temporal Distance Task,cb_10,33.0,temp_dist_trial,num_items,zn7si1,1.0,response,1_ITEM,812.5999999999768,796.0,812.5999999999768,812.5999999999768,796.0,812.5999999999768,1.0,0.0,0.0,,Click Response,1_count,3.0,object-46,temp_dist_trial,33.0,t_s_10_1,travel_shared,luggage lock,10.0,competing,single,t_s_10_1.jpg,Travel,$${counterbalance_group},,sub-101
Desktop or Laptop,Windows 10,Chrome 133.0.0.0,1536x864,1366x768,Temporal Distance Task,cb_10,34.0,temp_dist_trial,num_items,zn7si1,1.0,response,1_ITEM,1040.2999999821186,1031.5,1040.2999999821186,1040.2999999821186,1031.5,1040.2999999821186,1.0,0.0,0.0,,Click Response,1_count,3.0,object-46,temp_dist_trial,34.0,t_s_13_1,travel_shared,contact lens case,10.0,competing,single,t_s_13_1.jpg,Travel,$${counterbalance_group},,sub-101
Desktop or Laptop,Windows 10,Chrome 133.0.0.0,1536x864,1366x768,Temporal Distance Task,cb_10,35.0,temp_dist_trial,num_items,zn7si1,1.0,response,1_ITEM,1091.7000000000116,1075.1000000000058,1091.7000000000116,1091.7000000000116,1075.1000000000058,1091.7000000000116,1.0,0.0,0.0,,Click Response,1_count,3.0,object-46,temp_dist_trial,35.0,t_s_08_1,travel_shared,hand lotion,10.0,competing,paired,t_s_08_1.jpg,Travel,$${counterbalance_group},,sub-101
Desktop or Laptop,Windows 10,Chrome 133.0.0.0,1536x864,1366x768,Temporal Distance Task,cb_10,36.0,temp_dist_trial,num_items,zn7si1,1.0,response,2_ITEM,1339.6000000059719,1325.5,1339.6000000059719,1339.6000000059719,1325.5,1339.6000000059719,1.0,0.0,0.0,,Click Response,2_count,5.0,object-49,temp_dist_trial,36.0,t_s_07_1,travel_shared,phone charger cable,10.0,competing,paired,t_s_07_1.jpg,Travel,$${counterbalance_group},,sub-101
Desktop or Laptop,Windows 10,Chrome 133.0.0.0,1536x864,1366x768,Temporal Distance Task,cb_10,36.0,temp_dist_trial,dist_items,qkpkxw,2.0,info,,16.700000000011638,0.0,16.700000000011638,16.700000000011638,0.0,16.700000000011638,1.0,0.0,0.0,,Slider,Slider,4.0,object-56,temp_dist_trial,36.0,t_s_07_1,travel_shared,phone charger cable,10.0,competing,paired,t_s_07_1.jpg,Travel,$${counterbalance_group},,sub-101
Desktop or Laptop,Windows 10,Chrome 133.0.0.0,1536x864,1366x768,Temporal Distance Task,cb_10,36.0,temp_dist_trial,dist_items,qkpkxw,2.0,continue,,3188.199999999982,3169.3999999999933,3188.199999999982,3188.199999999982,3169.3999999999933,3188.199999999982,1.0,0.0,0.0,,Click To Continue,Next button,7.0,object-60,temp_dist_trial,36.0,t_s_07_1,travel_shared,phone charger cable,10.0,competing,paired,t_s_07_1.jpg,Travel,$${counterbalance_group},,sub-101
Desktop or Laptop,Windows 10,Chrome 133.0.0.0,1536x864,1366x768,Temporal Distance Task,cb_10,36.0,temp_dist_trial,dist_items,qkpkxw,2.0,response,81,2304.6000000000063,3169.3999999999933,3188.199999999982,2304.6000000000063,3169.3999999999933,3188.199999999982,1.0,883.5999999999768,0.0,,Slider,Slider,4.0,object-56,temp_dist_trial,36.0,t_s_07_1,travel_shared,phone charger cable,10.0,competing,paired,t_s_07_1.jpg,Travel,$${counterbalance_group},,sub-101
Desktop or Laptop,Windows 10,Chrome 133.0.0.0,1536x864,1366x768,Temporal Distance Task,cb_10,37.0,temp_dist_trial,num_items,zn7si1,1.0,response,1_ITEM,1323.5,1306.8999999999942,1323.5,1323.5,1306.8999999999942,1323.5,1.0,0.0,0.0,,Click Response,1_count,3.0,object-46,temp_dist_trial,37.0,t_m_06_1,travel_Miami,handheld fan,10.0,unique,paired,t_m_06_1.jpg,Travel,$${counterbalance_group},,sub-101
Desktop or Laptop,Windows 10,Chrome 133.0.0.0,1536x864,1366x768,Temporal Distance Task,cb_10,38.0,temp_dist_trial,num_items,zn7si1,1.0,response,1_ITEM,978.0,961.3999999999942,978.0,978.0,961.3999999999942,978.0,1.0,0.0,0.0,,Click Response,1_count,3.0,object-46,temp_dist_trial,38.0,t_s_18_1,travel_shared,first aid kit,10.0,competing,paired,t_s_18_1.jpg,Travel,$${counterbalance_group},,sub-101
Desktop or Laptop,Windows 10,Chrome 133.0.0.0,1536x864,1366x768,Temporal Distance Task,cb_10,39.0,temp_dist_trial,num_items,zn7si1,1.0,response,1_ITEM,1348.9999999940335,1341.6999999999825,1348.9999999940335,1348.9999999940335,1341.6999999999825,1348.9999999940335,1.0,0.0,0.0,,Click Response,1_count,3.0,object-46,temp_dist_trial,39.0,t_s_09_1,travel_shared,wallet,10.0,competing,paired,t_s_09_1.jpg,Travel,$${counterbalance_group},,sub-101
Desktop or Laptop,Windows 10,Chrome 133.0.0.0,1536x864,1366x768,Temporal Distance Task,cb_10,40.0,temp_dist_trial,num_items,zn7si1,1.0,response,2_ITEM,1044.500000000029,1027.8000000000177,1044.500000000029,1044.500000000029,1027.8000000000177,1044.500000000029,1.0,0.0,0.0,,Click Response,2_count,5.0,object-49,temp_dist_trial,40.0,t_s_03_1,travel_shared,portable charger,10.0,competing,paired,t_s_03_1.jpg,Travel,$${counterbalance_group},,sub-101
Desktop or Laptop,Windows 10,Chrome 133.0.0.0,1536x864,1366x768,Temporal Distance Task,cb_10,40.0,temp_dist_trial,dist_items,qkpkxw,2.0,info,,38.20000000001164,0.0,38.20000000001164,38.20000000001164,0.0,38.20000000001164,1.0,0.0,0.0,,Slider,Slider,4.0,object-56,temp_dist_trial,40.0,t_s_03_1,travel_shared,portable charger,10.0,competing,paired,t_s_03_1.jpg,Travel,$${counterbalance_group},,sub-101
Desktop or Laptop,Windows 10,Chrome 133.0.0.0,1536x864,1366x768,Temporal Distance Task,cb_10,40.0,temp_dist_trial,dist_items,qkpkxw,2.0,continue,,2893.100000005972,2879.200000000012,2893.100000005972,2893.100000005972,2879.200000000012,2893.100000005972,1.0,0.0,0.0,,Click To Continue,Next button,7.0,object-60,temp_dist_trial,40.0,t_s_03_1,travel_shared,portable charger,10.0,competing,paired,t_s_03_1.jpg,Travel,$${counterbalance_group},,sub-101
Desktop or Laptop,Windows 10,Chrome 133.0.0.0,1536x864,1366x768,Temporal Distance Task,cb_10,40.0,temp_dist_trial,dist_items,qkpkxw,2.0,response,76,1769.4000000000233,2879.200000000012,2894.3999999880907,1769.4000000000233,2879.200000000012,2894.3999999880907,1.0,1124.9999999880674,0.0,,Slider,Slider,4.0,object-56,temp_dist_trial,40.0,t_s_03_1,travel_shared,portable charger,10.0,competing,paired,t_s_03_1.jpg,Travel,$${counterbalance_group},,sub-101
Desktop or Laptop,Windows 10,Chrome 133.0.0.0,1536x864,1366x768,Temporal Distance Task,cb_10,41.0,temp_dist_trial,num_items,zn7si1,1.0,response,1_ITEM,1094.1000000000058,1077.5,1094.1000000000058,1094.1000000000058,1077.5,1094.1000000000058,1.0,0.0,0.0,,Click Response,1_count,3.0,object-46,temp_dist_trial,41.0,t_s_23_1,travel_shared,ball cap,10.0,competing,single,t_s_23_1.jpg,Travel,$${counterbalance_group},,sub-101
Desktop or Laptop,Windows 10,Chrome 133.0.0.0,1536x864,1366x768,Temporal Distance Task,cb_10,42.0,temp_dist_trial,num_items,zn7si1,1.0,response,1_ITEM,796.6000000000058,780.1000000000058,796.6000000000058,796.6000000000058,780.1000000000058,796.6000000000058,1.0,0.0,0.0,,Click Response,1_count,3.0,object-46,temp_dist_trial,42.0,t_m_03_1,travel_Miami,wetsuit,10.0,unique,paired,t_m_03_1.jpg,Travel,$${counterbalance_group},,sub-101
Desktop or Laptop,Windows 10,Chrome 133.0.0.0,1536x864,1366x768,Temporal Distance Task,cb_10,43.0,temp_dist_trial,num_items,zn7si1,1.0,response,1_ITEM,1205.099999982107,1196.3999999999942,1205.099999982107,1205.099999982107,1196.3999999999942,1205.099999982107,1.0,0.0,0.0,,Click Response,1_count,3.0,object-46,temp_dist_trial,43.0,t_s_15_1,travel_shared,luggage tag,10.0,competing,single,t_s_15_1.jpg,Travel,$${counterbalance_group},,sub-101
Desktop or Laptop,Windows 10,Chrome 133.0.0.0,1536x864,1366x768,Temporal Distance Task,cb_10,44.0,temp_dist_trial,num_items,zn7si1,1.0,response,1_ITEM,1385.8999999999942,1378.7999999999884,1385.8999999999942,1385.8999999999942,1378.7999999999884,1385.8999999999942,1.0,0.0,0.0,,Click Response,1_count,3.0,object-46,temp_dist_trial,44.0,t_m_09_1,travel_Miami,beach towel,10.0,unique,single,t_m_09_1.jpg,Travel,$${counterbalance_group},,sub-101
Desktop or Laptop,Windows 10,Chrome 133.0.0.0,1536x864,1366x768,Temporal Distance Task,cb_10,45.0,temp_dist_trial,num_items,zn7si1,1.0,response,1_ITEM,1102.8999999821244,1096.3999999999942,1102.8999999821244,1102.8999999821244,1096.3999999999942,1102.8999999821244,1.0,0.0,0.0,,Click Response,1_count,3.0,object-46,temp_dist_trial,45.0,t_i_11_1,travel_Iceland,headlamp,10.0,unique,single,t_i_11_1.jpg,Travel,$${counterbalance_group},,sub-101
Desktop or Laptop,Windows 10,Chrome 133.0.0.0,1536x864,1366x768,Temporal Distance Task,cb_10,46.0,temp_dist_trial,num_items,zn7si1,1.0,response,1_ITEM,873.6000000000058,861.8999999999942,873.6000000000058,873.6000000000058,861.8999999999942,873.6000000000058,1.0,0.0,0.0,,Click Response,1_count,3.0,object-46,temp_dist_trial,46.0,t_m_16_1,travel_Miami,flippers,10.0,unique,paired,t_m_16_1.jpg,Travel,$${counterbalance_group},,sub-101
Desktop or Laptop,Windows 10,Chrome 133.0.0.0,1536x864,1366x768,Temporal Distance Task,cb_10,47.0,temp_dist_trial,num_items,zn7si1,1.0,response,1_ITEM,740.2999999940512,732.1000000000058,740.2999999940512,740.2999999940512,732.1000000000058,740.2999999940512,1.0,0.0,0.0,,Click Response,1_count,3.0,object-46,temp_dist_trial,47.0,t_i_01_1,travel_Iceland,gloves,10.0,unique,single,t_i_01_1.jpg,Travel,$${counterbalance_group},,sub-101
Desktop or Laptop,Windows 10,Chrome 133.0.0.0,1536x864,1366x768,Temporal Distance Task,cb_10,48.0,temp_dist_trial,num_items,zn7si1,1.0,response,1_ITEM,813.7000000000116,796.8000000000177,813.7000000000116,813.7000000000116,796.8000000000177,813.7000000000116,1.0,0.0,0.0,,Click Response,1_count,3.0,object-46,temp_dist_trial,48.0,t_m_07_1,travel_Miami,sunglasses,10.0,unique,paired,t_m_07_1.jpg,Travel,$${counterbalance_group},,sub-101
Desktop or Laptop,Windows 10,Chrome 133.0.0.0,1536x864,1366x768,Temporal Distance Task,cb_10,2.0,temp_eventStart,Screen 1,dgtyxe,1.0,continue,,71745.69999998808,71737.70000000001,71745.69999998808,71745.69999998808,71737.70000000001,71745.69999998808,1.0,0.0,0.0,,Click To Continue,Next Button,3.0,object-43,temp_eventStart,,,Student,,,,,,,$${counterbalance_group},,sub-101
Desktop or Laptop,Windows 10,Chrome 133.0.0.0,1536x864,1366x768,Temporal Distance Task,cb_10,49.0,temp_dist_trial,num_items,zn7si1,1.0,response,2_ITEM,2083.2000000059493,2072.7999999999884,2083.2000000059493,2083.2000000059493,2072.7999999999884,2083.2000000059493,1.0,0.0,0.0,,Click Response,2_count,5.0,object-49,temp_dist_trial,1.0,s_sh_14_1,student_shared,printer,10.0,competing,paired,s_sh_14_1.jpg,Student,$${counterbalance_group},,sub-101
Desktop or Laptop,Windows 10,Chrome 133.0.0.0,1536x864,1366x768,Temporal Distance Task,cb_10,49.0,temp_dist_trial,dist_items,qkpkxw,2.0,info,,12.600000000005819,0.0,12.600000000005819,12.600000000005819,0.0,12.600000000005819,1.0,0.0,0.0,,Slider,Slider,4.0,object-56,temp_dist_trial,1.0,s_sh_14_1,student_shared,printer,10.0,competing,paired,s_sh_14_1.jpg,Student,$${counterbalance_group},,sub-101
Desktop or Laptop,Windows 10,Chrome 133.0.0.0,1536x864,1366x768,Temporal Distance Task,cb_10,49.0,temp_dist_trial,dist_items,qkpkxw,2.0,continue,,2835.699999999982,2818.699999999982,2835.699999999982,2835.699999999982,2818.699999999982,2835.699999999982,1.0,0.0,0.0,,Click To Continue,Next button,7.0,object-60,temp_dist_trial,1.0,s_sh_14_1,student_shared,printer,10.0,competing,paired,s_sh_14_1.jpg,Student,$${counterbalance_group},,sub-101
Desktop or Laptop,Windows 10,Chrome 133.0.0.0,1536x864,1366x768,Temporal Distance Task,cb_10,49.0,temp_dist_trial,dist_items,qkpkxw,2.0,response,77,2023.2999999999884,2818.699999999982,2835.699999999982,2023.2999999999884,2818.699999999982,2835.699999999982,1.0,812.3999999999942,0.0,,Slider,Slider,4.0,object-56,temp_dist_trial,1.0,s_sh_14_1,student_shared,printer,10.0,competing,paired,s_sh_14_1.jpg,Student,$${counterbalance_group},,sub-101
Desktop or Laptop,Windows 10,Chrome 133.0.0.0,1536x864,1366x768,Temporal Distance Task,cb_10,50.0,temp_dist_trial,num_items,zn7si1,1.0,response,1_ITEM,1061.600000000035,1044.8000000000177,1061.600000000035,1061.600000000035,1044.8000000000177,1061.600000000035,1.0,0.0,0.0,,Click Response,1_count,3.0,object-46,temp_dist_trial,2.0,s_sh_13_1,student_shared,index cards,10.0,competing,paired,s_sh_13_1.jpg,Student,$${counterbalance_group},,sub-101
Desktop or Laptop,Windows 10,Chrome 133.0.0.0,1536x864,1366x768,Temporal Distance Task,cb_10,51.0,temp_dist_trial,num_items,zn7si1,1.0,response,1_ITEM,1343.5,1327.1000000000058,1343.5,1343.5,1327.1000000000058,1343.5,1.0,0.0,0.0,,Click Response,1_count,3.0,object-46,temp_dist_trial,3.0,s_sh_01_1,student_shared,notebook,10.0,competing,single,s_sh_01_1.jpg,Student,$${counterbalance_group},,sub-101
Desktop or Laptop,Windows 10,Chrome 133.0.0.0,1536x864,1366x768,Temporal Distance Task,cb_10,52.0,temp_dist_trial,num_items,zn7si1,1.0,response,1_ITEM,1305.4999999821302,1296.7000000000114,1305.4999999821302,1305.4999999821302,1296.7000000000114,1305.4999999821302,1.0,0.0,0.0,,Click Response,1_count,3.0,object-46,temp_dist_trial,4.0,s_s_15_1,student_stem,jumper cables,10.0,unique,paired,s_s_15_1.jpg,Student,$${counterbalance_group},,sub-101
Desktop or Laptop,Windows 10,Chrome 133.0.0.0,1536x864,1366x768,Temporal Distance Task,cb_10,53.0,temp_dist_trial,num_items,zn7si1,1.0,response,num_miss,3000.8999999999933,3000.8999999999933,3000.8999999999933,3000.8999999999933,3000.8999999999933,3000.8999999999933,1.0,0.0,0.0,num_miss_tag,Time Limit,screen,0.0,screen,temp_dist_trial,5.0,s_s_08_1,student_stem,soldering iron,10.0,unique,paired,s_s_08_1.jpg,Student,$${counterbalance_group},,sub-101
Desktop or Laptop,Windows 10,Chrome 133.0.0.0,1536x864,1366x768,Temporal Distance Task,cb_10,54.0,temp_dist_trial,num_items,zn7si1,1.0,response,1_ITEM,911.8999999999942,895.2999999999884,911.8999999999942,911.8999999999942,895.2999999999884,911.8999999999942,1.0,0.0,0.0,,Click Response,1_count,3.0,object-46,temp_dist_trial,6.0,s_s_09_1,student_stem,multimeter,10.0,unique,paired,s_s_09_1.jpg,Student,$${counterbalance_group},,sub-101
Desktop or Laptop,Windows 10,Chrome 133.0.0.0,1536x864,1366x768,Temporal Distance Task,cb_10,55.0,temp_dist_trial,num_items,zn7si1,1.0,response,1_ITEM,1520.7000000000116,1512.0,1520.7000000000116,1520.7000000000116,1512.0,1520.7000000000116,1.0,0.0,0.0,,Click Response,1_count,3.0,object-46,temp_dist_trial,7.0,s_sh_04_1,student_shared,laptop stand,10.0,competing,single,s_sh_04_1.jpg,Student,$${counterbalance_group},,sub-101
Desktop or Laptop,Windows 10,Chrome 133.0.0.0,1536x864,1366x768,Temporal Distance Task,cb_10,56.0,temp_dist_trial,num_items,zn7si1,1.0,response,1_ITEM,1045.899999999965,1028.7999999999884,1045.899999999965,1045.899999999965,1028.7999999999884,1045.899999999965,1.0,0.0,0.0,,Click Response,1_count,3.0,object-46,temp_dist_trial,8.0,s_sh_06_1,student_shared,clipboard,10.0,competing,paired,s_sh_06_1.jpg,Student,$${counterbalance_group},,sub-101
Desktop or Laptop,Windows 10,Chrome 133.0.0.0,1536x864,1366x768,Temporal Distance Task,cb_10,57.0,temp_dist_trial,num_items,zn7si1,1.0,response,2_ITEM,1267.3999999880907,1259.2000000000114,1267.3999999880907,1267.3999999880907,1259.2000000000114,1267.3999999880907,1.0,0.0,0.0,,Click Response,2_count,5.0,object-49,temp_dist_trial,9.0,s_sh_07_1,student_shared,ruler,10.0,competing,paired,s_sh_07_1.jpg,Student,$${counterbalance_group},,sub-101
Desktop or Laptop,Windows 10,Chrome 133.0.0.0,1536x864,1366x768,Temporal Distance Task,cb_10,57.0,temp_dist_trial,dist_items,qkpkxw,2.0,info,,16.900000000023287,0.0,16.900000000023287,16.900000000023287,0.0,16.900000000023287,1.0,0.0,0.0,,Slider,Slider,4.0,object-56,temp_dist_trial,9.0,s_sh_07_1,student_shared,ruler,10.0,competing,paired,s_sh_07_1.jpg,Student,$${counterbalance_group},,sub-101
Desktop or Laptop,Windows 10,Chrome 133.0.0.0,1536x864,1366x768,Temporal Distance Task,cb_10,57.0,temp_dist_trial,dist_items,qkpkxw,2.0,continue,,2448.5999999940395,2436.4000000000233,2448.5999999940395,2448.5999999940395,2436.4000000000233,2448.5999999940395,1.0,0.0,0.0,,Click To Continue,Next button,7.0,object-60,temp_dist_trial,9.0,s_sh_07_1,student_shared,ruler,10.0,competing,paired,s_sh_07_1.jpg,Student,$${counterbalance_group},,sub-101
Desktop or Laptop,Windows 10,Chrome 133.0.0.0,1536x864,1366x768,Temporal Distance Task,cb_10,57.0,temp_dist_trial,dist_items,qkpkxw,2.0,response,83,1575.2000000000116,2436.4000000000233,2450.7999999821186,1575.2000000000116,2436.4000000000233,2450.7999999821186,1.0,875.599999982107,0.0,,Slider,Slider,4.0,object-56,temp_dist_trial,9.0,s_sh_07_1,student_shared,ruler,10.0,competing,paired,s_sh_07_1.jpg,Student,$${counterbalance_group},,sub-101
Desktop or Laptop,Windows 10,Chrome 133.0.0.0,1536x864,1366x768,Temporal Distance Task,cb_10,58.0,temp_dist_trial,num_items,zn7si1,1.0,response,1_ITEM,1099.5999999999767,1094.1999999999532,1099.5999999999767,1099.5999999999767,1094.1999999999532,1099.5999999999767,1.0,0.0,0.0,,Click Response,1_count,3.0,object-46,temp_dist_trial,10.0,s_a_12_1,student_art,saxophone,10.0,unique,paired,s_a_12_1.jpg,Student,$${counterbalance_group},,sub-101
Desktop or Laptop,Windows 10,Chrome 133.0.0.0,1536x864,1366x768,Temporal Distance Task,cb_10,59.0,temp_dist_trial,num_items,zn7si1,1.0,response,2_ITEM,1902.399999982096,1887.8999999999646,1902.399999982096,1902.399999982096,1887.8999999999646,1902.399999982096,1.0,0.0,0.0,,Click Response,2_count,5.0,object-49,temp_dist_trial,11.0,s_sh_05_1,student_shared,laptop,10.0,competing,paired,s_sh_05_1.jpg,Student,$${counterbalance_group},,sub-101
Desktop or Laptop,Windows 10,Chrome 133.0.0.0,1536x864,1366x768,Temporal Distance Task,cb_10,59.0,temp_dist_trial,dist_items,qkpkxw,2.0,info,,16.599999999976713,0.0,16.599999999976713,16.599999999976713,0.0,16.599999999976713,1.0,0.0,0.0,,Slider,Slider,4.0,object-56,temp_dist_trial,11.0,s_sh_05_1,student_shared,laptop,10.0,competing,paired,s_sh_05_1.jpg,Student,$${counterbalance_group},,sub-101
Desktop or Laptop,Windows 10,Chrome 133.0.0.0,1536x864,1366x768,Temporal Distance Task,cb_10,59.0,temp_dist_trial,dist_items,qkpkxw,2.0,continue,,2851.7999999999884,2835.0,2851.7999999999884,2851.7999999999884,2835.0,2851.7999999999884,1.0,0.0,0.0,,Click To Continue,Next button,7.0,object-60,temp_dist_trial,11.0,s_sh_05_1,student_shared,laptop,10.0,competing,paired,s_sh_05_1.jpg,Student,$${counterbalance_group},,sub-101
Desktop or Laptop,Windows 10,Chrome 133.0.0.0,1536x864,1366x768,Temporal Distance Task,cb_10,59.0,temp_dist_trial,dist_items,qkpkxw,2.0,response,84,1393.4000000000233,2835.0,2851.7999999999884,1393.4000000000233,2835.0,2851.7999999999884,1.0,1458.3999999999646,0.0,,Slider,Slider,4.0,object-56,temp_dist_trial,11.0,s_sh_05_1,student_shared,laptop,10.0,competing,paired,s_sh_05_1.jpg,Student,$${counterbalance_group},,sub-101
Desktop or Laptop,Windows 10,Chrome 133.0.0.0,1536x864,1366x768,Temporal Distance Task,cb_10,60.0,temp_dist_trial,num_items,zn7si1,1.0,response,2_ITEM,1671.7000000000116,1657.7000000000116,1671.7000000000116,1671.7000000000116,1657.7000000000116,1671.7000000000116,1.0,0.0,0.0,,Click Response,2_count,5.0,object-49,temp_dist_trial,12.0,s_a_18_1,student_art,tutu,10.0,unique,paired,s_a_18_1.jpg,Student,$${counterbalance_group},,sub-101
Desktop or Laptop,Windows 10,Chrome 133.0.0.0,1536x864,1366x768,Temporal Distance Task,cb_10,60.0,temp_dist_trial,dist_items,qkpkxw,2.0,info,,17.0,0.0,17.0,17.0,0.0,17.0,1.0,0.0,0.0,,Slider,Slider,4.0,object-56,temp_dist_trial,12.0,s_a_18_1,student_art,tutu,10.0,unique,paired,s_a_18_1.jpg,Student,$${counterbalance_group},,sub-101
Desktop or Laptop,Windows 10,Chrome 133.0.0.0,1536x864,1366x768,Temporal Distance Task,cb_10,60.0,temp_dist_trial,dist_items,qkpkxw,2.0,continue,,1700.9999999880677,1690.2999999999884,1700.9999999880677,1700.9999999880677,1690.2999999999884,1700.9999999880677,1.0,0.0,0.0,,Click To Continue,Next button,7.0,object-60,temp_dist_trial,12.0,s_a_18_1,student_art,tutu,10.0,unique,paired,s_a_18_1.jpg,Student,$${counterbalance_group},,sub-101
Desktop or Laptop,Windows 10,Chrome 133.0.0.0,1536x864,1366x768,Temporal Distance Task,cb_10,60.0,temp_dist_trial,dist_items,qkpkxw,2.0,response,81,1044.399999999965,1690.2999999999884,1703.9999999880677,1044.399999999965,1690.2999999999884,1703.9999999880677,1.0,659.5999999881024,0.0,,Slider,Slider,4.0,object-56,temp_dist_trial,12.0,s_a_18_1,student_art,tutu,10.0,unique,paired,s_a_18_1.jpg,Student,$${counterbalance_group},,sub-101
Desktop or Laptop,Windows 10,Chrome 133.0.0.0,1536x864,1366x768,Temporal Distance Task,cb_10,61.0,temp_dist_trial,num_items,zn7si1,1.0,response,1_ITEM,978.4000000000232,961.7000000000116,978.4000000000232,978.4000000000232,961.7000000000116,978.4000000000232,1.0,0.0,0.0,,Click Response,1_count,3.0,object-46,temp_dist_trial,13.0,s_s_02_1,student_stem,flask,10.0,unique,paired,s_s_02_1.jpg,Student,$${counterbalance_group},,sub-101
Desktop or Laptop,Windows 10,Chrome 133.0.0.0,1536x864,1366x768,Temporal Distance Task,cb_10,62.0,temp_dist_trial,num_items,zn7si1,1.0,response,1_ITEM,1193.8000000000466,1177.4000000000233,1193.8000000000466,1193.8000000000466,1177.4000000000233,1193.8000000000466,1.0,0.0,0.0,,Click Response,1_count,3.0,object-46,temp_dist_trial,14.0,s_sh_17_1,student_shared,wireless mouse,10.0,competing,single,s_sh_17_1.jpg,Student,$${counterbalance_group},,sub-101
Desktop or Laptop,Windows 10,Chrome 133.0.0.0,1536x864,1366x768,Temporal Distance Task,cb_10,63.0,temp_dist_trial,num_items,zn7si1,1.0,response,1_ITEM,1460.0999999999767,1443.3999999999646,1460.0999999999767,1460.0999999999767,1443.3999999999646,1460.0999999999767,1.0,0.0,0.0,,Click Response,1_count,3.0,object-46,temp_dist_trial,15.0,s_sh_24_1,student_shared,desk organizer,10.0,competing,paired,s_sh_24_1.jpg,Student,$${counterbalance_group},,sub-101
Desktop or Laptop,Windows 10,Chrome 133.0.0.0,1536x864,1366x768,Temporal Distance Task,cb_10,64.0,temp_dist_trial,num_items,zn7si1,1.0,response,1_ITEM,1525.8000000000463,1509.1000000000354,1525.8000000000463,1525.8000000000463,1509.1000000000354,1525.8000000000463,1.0,0.0,0.0,,Click Response,1_count,3.0,object-46,temp_dist_trial,16.0,s_s_19_1,student_stem,circuit board,10.0,unique,paired,s_s_19_1.jpg,Student,$${counterbalance_group},,sub-101
Desktop or Laptop,Windows 10,Chrome 133.0.0.0,1536x864,1366x768,Temporal Distance Task,cb_10,65.0,temp_dist_trial,num_items,zn7si1,1.0,response,2_ITEM,1158.2000000059488,1143.5999999999767,1158.2000000059488,1158.2000000059488,1143.5999999999767,1158.2000000059488,1.0,0.0,0.0,,Click Response,2_count,5.0,object-49,temp_dist_trial,17.0,s_sh_02_1,student_shared,eraser,10.0,competing,paired,s_sh_02_1.jpg,Student,$${counterbalance_group},,sub-101
Desktop or Laptop,Windows 10,Chrome 133.0.0.0,1536x864,1366x768,Temporal Distance Task,cb_10,65.0,temp_dist_trial,dist_items,qkpkxw,2.0,info,,16.5,0.0,16.5,16.5,0.0,16.5,1.0,0.0,0.0,,Slider,Slider,4.0,object-56,temp_dist_trial,17.0,s_sh_02_1,student_shared,eraser,10.0,competing,paired,s_sh_02_1.jpg,Student,$${counterbalance_group},,sub-101
Desktop or Laptop,Windows 10,Chrome 133.0.0.0,1536x864,1366x768,Temporal Distance Task,cb_10,65.0,temp_dist_trial,dist_items,qkpkxw,2.0,continue,,1585.1999999880786,1575.0999999999767,1585.1999999880786,1585.1999999880786,1575.0999999999767,1585.1999999880786,1.0,0.0,0.0,,Click To Continue,Next button,7.0,object-60,temp_dist_trial,17.0,s_sh_02_1,student_shared,eraser,10.0,competing,paired,s_sh_02_1.jpg,Student,$${counterbalance_group},,sub-101
Desktop or Laptop,Windows 10,Chrome 133.0.0.0,1536x864,1366x768,Temporal Distance Task,cb_10,65.0,temp_dist_trial,dist_items,qkpkxw,2.0,response,76,912.4000000000232,1575.0999999999767,1587.2999999821186,912.4000000000232,1575.0999999999767,1587.2999999821186,1.0,674.8999999820952,0.0,,Slider,Slider,4.0,object-56,temp_dist_trial,17.0,s_sh_02_1,student_shared,eraser,10.0,competing,paired,s_sh_02_1.jpg,Student,$${counterbalance_group},,sub-101
Desktop or Laptop,Windows 10,Chrome 133.0.0.0,1536x864,1366x768,Temporal Distance Task,cb_10,66.0,temp_dist_trial,num_items,zn7si1,1.0,response,1_ITEM,878.8000000000467,862.3000000000467,878.8000000000467,878.8000000000467,862.3000000000467,878.8000000000467,1.0,0.0,0.0,,Click Response,1_count,3.0,object-46,temp_dist_trial,18.0,s_sh_03_1,student_shared,highlighter,10.0,competing,paired,s_sh_03_1.jpg,Student,$${counterbalance_group},,sub-101
Desktop or Laptop,Windows 10,Chrome 133.0.0.0,1536x864,1366x768,Temporal Distance Task,cb_10,67.0,temp_dist_trial,num_items,zn7si1,1.0,response,1_ITEM,660.9999999821302,646.7999999999884,660.9999999821302,660.9999999821302,646.7999999999884,660.9999999821302,1.0,0.0,0.0,,Click Response,1_count,3.0,object-46,temp_dist_trial,19.0,s_a_07_1,student_art,yarn,10.0,unique,single,s_a_07_1.jpg,Student,$${counterbalance_group},,sub-101
Desktop or Laptop,Windows 10,Chrome 133.0.0.0,1536x864,1366x768,Temporal Distance Task,cb_10,68.0,temp_dist_trial,num_items,zn7si1,1.0,response,1_ITEM,1077.0999999999767,1060.5,1077.0999999999767,1077.0999999999767,1060.5,1077.0999999999767,1.0,0.0,0.0,,Click Response,1_count,3.0,object-46,temp_dist_trial,20.0,s_sh_15_1,student_shared,usb drive,10.0,competing,paired,s_sh_15_1.jpg,Student,$${counterbalance_group},,sub-101
Desktop or Laptop,Windows 10,Chrome 133.0.0.0,1536x864,1366x768,Temporal Distance Task,cb_10,69.0,temp_dist_trial,num_items,zn7si1,1.0,response,1_ITEM,1672.4999999880677,1657.5999999999767,1672.4999999880677,1672.4999999880677,1657.5999999999767,1672.4999999880677,1.0,0.0,0.0,,Click Response,1_count,3.0,object-46,temp_dist_trial,21.0,s_sh_09_1,student_shared,paper clips,10.0,competing,single,s_sh_09_1.jpg,Student,$${counterbalance_group},,sub-101
Desktop or Laptop,Windows 10,Chrome 133.0.0.0,1536x864,1366x768,Temporal Distance Task,cb_10,70.0,temp_dist_trial,num_items,zn7si1,1.0,response,1_ITEM,822.5999999999768,812.5,822.5999999999768,822.5999999999768,812.5,822.5999999999768,1.0,0.0,0.0,,Click Response,1_count,3.0,object-46,temp_dist_trial,22.0,s_s_01_1,student_stem,microscope,10.0,unique,paired,s_s_01_1.jpg,Student,$${counterbalance_group},,sub-101
Desktop or Laptop,Windows 10,Chrome 133.0.0.0,1536x864,1366x768,Temporal Distance Task,cb_10,71.0,temp_dist_trial,num_items,zn7si1,1.0,response,1_ITEM,2361.0,2354.2999999999884,2361.0,2361.0,2354.2999999999884,2361.0,1.0,0.0,0.0,,Click Response,1_count,3.0,object-46,temp_dist_trial,23.0,s_s_06_1,student_stem,calculator,10.0,unique,single,s_s_06_1.jpg,Student,$${counterbalance_group},,sub-101
Desktop or Laptop,Windows 10,Chrome 133.0.0.0,1536x864,1366x768,Temporal Distance Task,cb_10,72.0,temp_dist_trial,num_items,zn7si1,1.0,response,1_ITEM,845.8999999999651,829.0999999999768,845.8999999999651,845.8999999999651,829.0999999999768,845.8999999999651,1.0,0.0,0.0,,Click Response,1_count,3.0,object-46,temp_dist_trial,24.0,s_a_15_1,student_art,drum kit,10.0,unique,single,s_a_15_1.jpg,Student,$${counterbalance_group},,sub-101
Desktop or Laptop,Windows 10,Chrome 133.0.0.0,1536x864,1366x768,Temporal Distance Task,cb_10,73.0,temp_dist_trial,num_items,zn7si1,1.0,response,1_ITEM,1293.2000000000694,1276.600000000035,1293.2000000000694,1293.2000000000694,1276.600000000035,1293.2000000000694,1.0,0.0,0.0,,Click Response,1_count,3.0,object-46,temp_dist_trial,25.0,s_a_01_1,student_art,paintbrush,10.0,unique,single,s_a_01_1.jpg,Student,$${counterbalance_group},,sub-101
Desktop or Laptop,Windows 10,Chrome 133.0.0.0,1536x864,1366x768,Temporal Distance Task,cb_10,74.0,temp_dist_trial,num_items,zn7si1,1.0,response,2_ITEM,1135.1000000059719,1127.2999999999886,1135.1000000059719,1135.1000000059719,1127.2999999999886,1135.1000000059719,1.0,0.0,0.0,,Click Response,2_count,5.0,object-49,temp_dist_trial,26.0,s_a_17_1,student_art,microphone,10.0,unique,paired,s_a_17_1.jpg,Student,$${counterbalance_group},,sub-101
Desktop or Laptop,Windows 10,Chrome 133.0.0.0,1536x864,1366x768,Temporal Distance Task,cb_10,74.0,temp_dist_trial,dist_items,qkpkxw,2.0,info,,16.5,0.0,16.5,16.5,0.0,16.5,1.0,0.0,0.0,,Slider,Slider,4.0,object-56,temp_dist_trial,26.0,s_a_17_1,student_art,microphone,10.0,unique,paired,s_a_17_1.jpg,Student,$${counterbalance_group},,sub-101
Desktop or Laptop,Windows 10,Chrome 133.0.0.0,1536x864,1366x768,Temporal Distance Task,cb_10,74.0,temp_dist_trial,dist_items,qkpkxw,2.0,continue,,1715.2000000000116,1707.2999999999884,1715.2000000000116,1715.2000000000116,1707.2999999999884,1715.2000000000116,1.0,0.0,0.0,,Click To Continue,Next button,7.0,object-60,temp_dist_trial,26.0,s_a_17_1,student_art,microphone,10.0,unique,paired,s_a_17_1.jpg,Student,$${counterbalance_group},,sub-101
Desktop or Laptop,Windows 10,Chrome 133.0.0.0,1536x864,1366x768,Temporal Distance Task,cb_10,74.0,temp_dist_trial,dist_items,qkpkxw,2.0,response,81,1011.7999999999884,1707.2999999999884,1716.99999998213,1011.7999999999884,1707.2999999999884,1716.99999998213,1.0,705.1999999821419,0.0,,Slider,Slider,4.0,object-56,temp_dist_trial,26.0,s_a_17_1,student_art,microphone,10.0,unique,paired,s_a_17_1.jpg,Student,$${counterbalance_group},,sub-101
Desktop or Laptop,Windows 10,Chrome 133.0.0.0,1536x864,1366x768,Temporal Distance Task,cb_10,75.0,temp_dist_trial,num_items,zn7si1,1.0,response,1_ITEM,806.8000000059837,796.6000000000349,806.8000000059837,806.8000000059837,796.6000000000349,806.8000000059837,1.0,0.0,0.0,,Click Response,1_count,3.0,object-46,temp_dist_trial,27.0,s_a_05_1,student_art,clay,10.0,unique,paired,s_a_05_1.jpg,Student,$${counterbalance_group},,sub-101
Desktop or Laptop,Windows 10,Chrome 133.0.0.0,1536x864,1366x768,Temporal Distance Task,cb_10,76.0,temp_dist_trial,num_items,zn7si1,1.0,response,2_ITEM,1176.3000000000466,1159.7000000000114,1176.3000000000466,1176.3000000000466,1159.7000000000114,1176.3000000000466,1.0,0.0,0.0,,Click Response,2_count,5.0,object-49,temp_dist_trial,28.0,s_sh_21_1,student_shared,file holder,10.0,competing,paired,s_sh_21_1.jpg,Student,$${counterbalance_group},,sub-101
Desktop or Laptop,Windows 10,Chrome 133.0.0.0,1536x864,1366x768,Temporal Distance Task,cb_10,76.0,temp_dist_trial,dist_items,qkpkxw,2.0,info,,16.600000000034925,0.0,16.600000000034925,16.600000000034925,0.0,16.600000000034925,1.0,0.0,0.0,,Slider,Slider,4.0,object-56,temp_dist_trial,28.0,s_sh_21_1,student_shared,file holder,10.0,competing,paired,s_sh_21_1.jpg,Student,$${counterbalance_group},,sub-101
Desktop or Laptop,Windows 10,Chrome 133.0.0.0,1536x864,1366x768,Temporal Distance Task,cb_10,76.0,temp_dist_trial,dist_items,qkpkxw,2.0,continue,,1932.6999999940165,1923.3999999999646,1932.6999999940165,1932.6999999940165,1923.3999999999646,1932.6999999940165,1.0,0.0,0.0,,Click To Continue,Next button,7.0,object-60,temp_dist_trial,28.0,s_sh_21_1,student_shared,file holder,10.0,competing,paired,s_sh_21_1.jpg,Student,$${counterbalance_group},,sub-101
Desktop or Laptop,Windows 10,Chrome 133.0.0.0,1536x864,1366x768,Temporal Distance Task,cb_10,76.0,temp_dist_trial,dist_items,qkpkxw,2.0,response,82,1111.1999999999532,1923.3999999999646,1934.0999999999767,1111.1999999999532,1923.3999999999646,1934.0999999999767,1.0,822.9000000000232,0.0,,Slider,Slider,4.0,object-56,temp_dist_trial,28.0,s_sh_21_1,student_shared,file holder,10.0,competing,paired,s_sh_21_1.jpg,Student,$${counterbalance_group},,sub-101
Desktop or Laptop,Windows 10,Chrome 133.0.0.0,1536x864,1366x768,Temporal Distance Task,cb_10,77.0,temp_dist_trial,num_items,zn7si1,1.0,response,2_ITEM,1585.8999999880907,1578.9000000000233,1585.8999999880907,1585.8999999880907,1578.9000000000233,1585.8999999880907,1.0,0.0,0.0,,Click Response,2_count,5.0,object-49,temp_dist_trial,29.0,s_a_02_1,student_art,canvas,10.0,unique,paired,s_a_02_1.jpg,Student,$${counterbalance_group},,sub-101
Desktop or Laptop,Windows 10,Chrome 133.0.0.0,1536x864,1366x768,Temporal Distance Task,cb_10,77.0,temp_dist_trial,dist_items,qkpkxw,2.0,info,,16.299999999988362,0.0,16.299999999988362,16.299999999988362,0.0,16.299999999988362,1.0,0.0,0.0,,Slider,Slider,4.0,object-56,temp_dist_trial,29.0,s_a_02_1,student_art,canvas,10.0,unique,paired,s_a_02_1.jpg,Student,$${counterbalance_group},,sub-101
Desktop or Laptop,Windows 10,Chrome 133.0.0.0,1536x864,1366x768,Temporal Distance Task,cb_10,77.0,temp_dist_trial,dist_items,qkpkxw,2.0,continue,,3288.699999982142,3282.0,3288.699999982142,3288.699999982142,3282.0,3288.699999982142,1.0,0.0,0.0,,Click To Continue,Next button,7.0,object-60,temp_dist_trial,29.0,s_a_02_1,student_art,canvas,10.0,unique,paired,s_a_02_1.jpg,Student,$${counterbalance_group},,sub-101
Desktop or Laptop,Windows 10,Chrome 133.0.0.0,1536x864,1366x768,Temporal Distance Task,cb_10,77.0,temp_dist_trial,dist_items,qkpkxw,2.0,response,25,1111.3000000000468,3282.0,3290.3000000059837,1111.3000000000468,3282.0,3290.3000000059837,1.0,2179.0000000059367,0.0,,Slider,Slider,4.0,object-56,temp_dist_trial,29.0,s_a_02_1,student_art,canvas,10.0,unique,paired,s_a_02_1.jpg,Student,$${counterbalance_group},,sub-101
Desktop or Laptop,Windows 10,Chrome 133.0.0.0,1536x864,1366x768,Temporal Distance Task,cb_10,78.0,temp_dist_trial,num_items,zn7si1,1.0,response,1_ITEM,1423.8000000059835,1410.2000000000116,1423.8000000059835,1423.8000000059835,1410.2000000000116,1423.8000000059835,1.0,0.0,0.0,,Click Response,1_count,3.0,object-46,temp_dist_trial,30.0,s_s_11_1,student_stem,scientific scale,10.0,unique,single,s_s_11_1.jpg,Student,$${counterbalance_group},,sub-101
Desktop or Laptop,Windows 10,Chrome 133.0.0.0,1536x864,1366x768,Temporal Distance Task,cb_10,79.0,temp_dist_trial,num_items,zn7si1,1.0,response,1_ITEM,1452.4999999940628,1444.6000000000354,1452.4999999940628,1452.4999999940628,1444.6000000000354,1452.4999999940628,1.0,0.0,0.0,,Click Response,1_count,3.0,object-46,temp_dist_trial,31.0,s_a_14_1,student_art,guitar pick,10.0,unique,paired,s_a_14_1.jpg,Student,$${counterbalance_group},,sub-101
Desktop or Laptop,Windows 10,Chrome 133.0.0.0,1536x864,1366x768,Temporal Distance Task,cb_10,80.0,temp_dist_trial,num_items,zn7si1,1.0,response,1_ITEM,2354.899999999965,2338.5,2354.899999999965,2354.899999999965,2338.5,2354.899999999965,1.0,0.0,0.0,,Click Response,1_count,3.0,object-46,temp_dist_trial,32.0,s_sh_22_1,student_shared,hole puncher,10.0,competing,single,s_sh_22_1.jpg,Student,$${counterbalance_group},,sub-101
Desktop or Laptop,Windows 10,Chrome 133.0.0.0,1536x864,1366x768,Temporal Distance Task,cb_10,81.0,temp_dist_trial,num_items,zn7si1,1.0,response,1_ITEM,1144.899999999965,1128.2999999999886,1144.899999999965,1144.899999999965,1128.2999999999886,1144.899999999965,1.0,0.0,0.0,,Click Response,1_count,3.0,object-46,temp_dist_trial,33.0,s_sh_11_1,student_shared,pencil case,10.0,competing,paired,s_sh_11_1.jpg,Student,$${counterbalance_group},,sub-101
Desktop or Laptop,Windows 10,Chrome 133.0.0.0,1536x864,1366x768,Temporal Distance Task,cb_10,82.0,temp_dist_trial,num_items,zn7si1,1.0,response,1_ITEM,862.0999999999185,845.6999999999533,862.0999999999185,862.0999999999185,845.6999999999533,862.0999999999185,1.0,0.0,0.0,,Click Response,1_count,3.0,object-46,temp_dist_trial,34.0,s_s_20_1,student_stem,dna model,10.0,unique,single,s_s_20_1.jpg,Student,$${counterbalance_group},,sub-101
Desktop or Laptop,Windows 10,Chrome 133.0.0.0,1536x864,1366x768,Temporal Distance Task,cb_10,83.0,temp_dist_trial,num_items,zn7si1,1.0,response,2_ITEM,1155.399999982095,1143.7999999999886,1155.399999982095,1155.399999982095,1143.7999999999886,1155.399999982095,1.0,0.0,0.0,,Click Response,2_count,5.0,object-49,temp_dist_trial,35.0,s_s_07_1,student_stem,periodic table,10.0,unique,paired,s_s_07_1.jpg,Student,$${counterbalance_group},,sub-101
Desktop or Laptop,Windows 10,Chrome 133.0.0.0,1536x864,1366x768,Temporal Distance Task,cb_10,83.0,temp_dist_trial,dist_items,qkpkxw,2.0,info,,16.700000000011638,0.0,16.700000000011638,16.700000000011638,0.0,16.700000000011638,1.0,0.0,0.0,,Slider,Slider,4.0,object-56,temp_dist_trial,35.0,s_s_07_1,student_stem,periodic table,10.0,unique,paired,s_s_07_1.jpg,Student,$${counterbalance_group},,sub-101
Desktop or Laptop,Windows 10,Chrome 133.0.0.0,1536x864,1366x768,Temporal Distance Task,cb_10,83.0,temp_dist_trial,dist_items,qkpkxw,2.0,continue,,2285.599999999977,2271.899999999965,2285.599999999977,2285.599999999977,2271.899999999965,2285.599999999977,1.0,0.0,0.0,,Click To Continue,Next button,7.0,object-60,temp_dist_trial,35.0,s_s_07_1,student_stem,periodic table,10.0,unique,paired,s_s_07_1.jpg,Student,$${counterbalance_group},,sub-101
Desktop or Laptop,Windows 10,Chrome 133.0.0.0,1536x864,1366x768,Temporal Distance Task,cb_10,83.0,temp_dist_trial,dist_items,qkpkxw,2.0,response,80,1576.1999999999537,2271.899999999965,2288.099999999977,1576.1999999999537,2271.899999999965,2288.099999999977,1.0,711.9000000000232,0.0,,Slider,Slider,4.0,object-56,temp_dist_trial,35.0,s_s_07_1,student_stem,periodic table,10.0,unique,paired,s_s_07_1.jpg,Student,$${counterbalance_group},,sub-101
Desktop or Laptop,Windows 10,Chrome 133.0.0.0,1536x864,1366x768,Temporal Distance Task,cb_10,84.0,temp_dist_trial,num_items,zn7si1,1.0,response,1_ITEM,2217.200000000012,2204.4000000000233,2217.200000000012,2217.200000000012,2204.4000000000233,2217.200000000012,1.0,0.0,0.0,,Click Response,1_count,3.0,object-46,temp_dist_trial,36.0,s_sh_19_1,student_shared,portable plastic drawer,10.0,competing,paired,s_sh_19_1.jpg,Student,$${counterbalance_group},,sub-101
Desktop or Laptop,Windows 10,Chrome 133.0.0.0,1536x864,1366x768,Temporal Distance Task,cb_10,85.0,temp_dist_trial,num_items,zn7si1,1.0,response,1_ITEM,1321.6000000059719,1309.4000000000233,1321.6000000059719,1321.6000000059719,1309.4000000000233,1321.6000000059719,1.0,0.0,0.0,,Click Response,1_count,3.0,object-46,temp_dist_trial,37.0,s_a_19_1,student_art,ballet shoes,10.0,unique,paired,s_a_19_1.jpg,Student,$${counterbalance_group},,sub-101
Desktop or Laptop,Windows 10,Chrome 133.0.0.0,1536x864,1366x768,Temporal Distance Task,cb_10,86.0,temp_dist_trial,num_items,zn7si1,1.0,response,1_ITEM,1487.3999999820953,1479.3999999999646,1487.3999999820953,1487.3999999820953,1479.3999999999646,1487.3999999820953,1.0,0.0,0.0,,Click Response,1_count,3.0,object-46,temp_dist_trial,38.0,s_sh_12_1,student_shared,binder,10.0,competing,paired,s_sh_12_1.jpg,Student,$${counterbalance_group},,sub-101
Desktop or Laptop,Windows 10,Chrome 133.0.0.0,1536x864,1366x768,Temporal Distance Task,cb_10,87.0,temp_dist_trial,num_items,zn7si1,1.0,response,1_ITEM,912.5,895.7999999999884,912.5,912.5,895.7999999999884,912.5,1.0,0.0,0.0,,Click Response,1_count,3.0,object-46,temp_dist_trial,39.0,s_sh_20_1,student_shared,tape,10.0,competing,single,s_sh_20_1.jpg,Student,$${counterbalance_group},,sub-101
Desktop or Laptop,Windows 10,Chrome 133.0.0.0,1536x864,1366x768,Temporal Distance Task,cb_10,88.0,temp_dist_trial,num_items,zn7si1,1.0,response,1_ITEM,819.7999999821187,814.2999999999884,819.7999999821187,819.7999999821187,814.2999999999884,819.7999999821187,1.0,0.0,0.0,,Click Response,1_count,3.0,object-46,temp_dist_trial,40.0,s_s_10_1,student_stem,3d molecule,10.0,unique,paired,s_s_10_1.jpg,Student,$${counterbalance_group},,sub-101
Desktop or Laptop,Windows 10,Chrome 133.0.0.0,1536x864,1366x768,Temporal Distance Task,cb_10,89.0,temp_dist_trial,num_items,zn7si1,1.0,response,1_ITEM,927.4999999999416,910.0999999999768,927.4999999999416,927.4999999999416,910.0999999999768,927.4999999999416,1.0,0.0,0.0,,Click Response,1_count,3.0,object-46,temp_dist_trial,41.0,s_sh_16_1,student_shared,stapler,10.0,competing,paired,s_sh_16_1.jpg,Student,$${counterbalance_group},,sub-101
Desktop or Laptop,Windows 10,Chrome 133.0.0.0,1536x864,1366x768,Temporal Distance Task,cb_10,90.0,temp_dist_trial,num_items,zn7si1,1.0,response,1_ITEM,780.9999999999417,763.8999999999651,780.9999999999417,780.9999999999417,763.8999999999651,780.9999999999417,1.0,0.0,0.0,,Click Response,1_count,3.0,object-46,temp_dist_trial,42.0,s_a_06_1,student_art,pastels,10.0,unique,single,s_a_06_1.jpg,Student,$${counterbalance_group},,sub-101
Desktop or Laptop,Windows 10,Chrome 133.0.0.0,1536x864,1366x768,Temporal Distance Task,cb_10,91.0,temp_dist_trial,num_items,zn7si1,1.0,response,1_ITEM,714.1000000000349,697.4000000000232,714.1000000000349,714.1000000000349,697.4000000000232,714.1000000000349,1.0,0.0,0.0,,Click Response,1_count,3.0,object-46,temp_dist_trial,43.0,s_s_16_1,student_stem,toolbox,10.0,unique,single,s_s_16_1.jpg,Student,$${counterbalance_group},,sub-101
Desktop or Laptop,Windows 10,Chrome 133.0.0.0,1536x864,1366x768,Temporal Distance Task,cb_10,92.0,temp_dist_trial,num_items,zn7si1,1.0,response,2_ITEM,1571.1000000059719,1558.7000000000116,1571.1000000059719,1571.1000000059719,1558.7000000000116,1571.1000000059719,1.0,0.0,0.0,,Click Response,2_count,5.0,object-49,temp_dist_trial,44.0,s_a_16_1,student_art,piano,10.0,unique,paired,s_a_16_1.jpg,Student,$${counterbalance_group},,sub-101
Desktop or Laptop,Windows 10,Chrome 133.0.0.0,1536x864,1366x768,Temporal Distance Task,cb_10,92.0,temp_dist_trial,dist_items,qkpkxw,2.0,info,,16.599999999976713,0.0,16.599999999976713,16.599999999976713,0.0,16.599999999976713,1.0,0.0,0.0,,Slider,Slider,4.0,object-56,temp_dist_trial,44.0,s_a_16_1,student_art,piano,10.0,unique,paired,s_a_16_1.jpg,Student,$${counterbalance_group},,sub-101
Desktop or Laptop,Windows 10,Chrome 133.0.0.0,1536x864,1366x768,Temporal Distance Task,cb_10,92.0,temp_dist_trial,dist_items,qkpkxw,2.0,continue,,2214.0,2204.200000000012,2214.0,2214.0,2204.200000000012,2214.0,1.0,0.0,0.0,,Click To Continue,Next button,7.0,object-60,temp_dist_trial,44.0,s_a_16_1,student_art,piano,10.0,unique,paired,s_a_16_1.jpg,Student,$${counterbalance_group},,sub-101
Desktop or Laptop,Windows 10,Chrome 133.0.0.0,1536x864,1366x768,Temporal Distance Task,cb_10,92.0,temp_dist_trial,dist_items,qkpkxw,2.0,response,65,978.7000000000116,2204.200000000012,2215.0,978.7000000000116,2204.200000000012,2215.0,1.0,1236.2999999999886,0.0,,Slider,Slider,4.0,object-56,temp_dist_trial,44.0,s_a_16_1,student_art,piano,10.0,unique,paired,s_a_16_1.jpg,Student,$${counterbalance_group},,sub-101
Desktop or Laptop,Windows 10,Chrome 133.0.0.0,1536x864,1366x768,Temporal Distance Task,cb_10,93.0,temp_dist_trial,num_items,zn7si1,1.0,response,1_ITEM,2158.000000000058,2140.700000000012,2158.000000000058,2158.000000000058,2140.700000000012,2158.000000000058,1.0,0.0,0.0,,Click Response,1_count,3.0,object-46,temp_dist_trial,45.0,s_sh_10_1,student_shared,scissors,10.0,competing,paired,s_sh_10_1.jpg,Student,$${counterbalance_group},,sub-101
Desktop or Laptop,Windows 10,Chrome 133.0.0.0,1536x864,1366x768,Temporal Distance Task,cb_10,94.0,temp_dist_trial,num_items,zn7si1,1.0,response,1_ITEM,856.5,849.0,856.5,856.5,849.0,856.5,1.0,0.0,0.0,,Click Response,1_count,3.0,object-46,temp_dist_trial,46.0,s_sh_18_1,student_shared,wall calendar,10.0,competing,single,s_sh_18_1.jpg,Student,$${counterbalance_group},,sub-101
Desktop or Laptop,Windows 10,Chrome 133.0.0.0,1536x864,1366x768,Temporal Distance Task,cb_10,95.0,temp_dist_trial,num_items,zn7si1,1.0,response,2_ITEM,1360.4000000000233,1343.4000000000233,1360.4000000000233,1360.4000000000233,1343.4000000000233,1360.4000000000233,1.0,0.0,0.0,,Click Response,2_count,5.0,object-49,temp_dist_trial,47.0,s_sh_23_1,student_shared,ballpoint pen,10.0,competing,paired,s_sh_23_1.jpg,Student,$${counterbalance_group},,sub-101
Desktop or Laptop,Windows 10,Chrome 133.0.0.0,1536x864,1366x768,Temporal Distance Task,cb_10,95.0,temp_dist_trial,dist_items,qkpkxw,2.0,info,,17.0,0.0,17.0,17.0,0.0,17.0,1.0,0.0,0.0,,Slider,Slider,4.0,object-56,temp_dist_trial,47.0,s_sh_23_1,student_shared,ballpoint pen,10.0,competing,paired,s_sh_23_1.jpg,Student,$${counterbalance_group},,sub-101
Desktop or Laptop,Windows 10,Chrome 133.0.0.0,1536x864,1366x768,Temporal Distance Task,cb_10,95.0,temp_dist_trial,dist_items,qkpkxw,2.0,continue,,2303.700000000012,2287.200000000012,2303.700000000012,2303.700000000012,2287.200000000012,2303.700000000012,1.0,0.0,0.0,,Click To Continue,Next button,7.0,object-60,temp_dist_trial,47.0,s_sh_23_1,student_shared,ballpoint pen,10.0,competing,paired,s_sh_23_1.jpg,Student,$${counterbalance_group},,sub-101
Desktop or Laptop,Windows 10,Chrome 133.0.0.0,1536x864,1366x768,Temporal Distance Task,cb_10,95.0,temp_dist_trial,dist_items,qkpkxw,2.0,response,79,1343.0,2287.200000000012,2303.700000000012,1343.0,2287.200000000012,2303.700000000012,1.0,960.7000000000116,0.0,,Slider,Slider,4.0,object-56,temp_dist_trial,47.0,s_sh_23_1,student_shared,ballpoint pen,10.0,competing,paired,s_sh_23_1.jpg,Student,$${counterbalance_group},,sub-101
Desktop or Laptop,Windows 10,Chrome 133.0.0.0,1536x864,1366x768,Temporal Distance Task,cb_10,96.0,temp_dist_trial,num_items,zn7si1,1.0,response,1_ITEM,840.6999999940163,829.0,840.6999999940163,840.6999999940163,829.0,840.6999999940163,1.0,0.0,0.0,,Click Response,1_count,3.0,object-46,temp_dist_trial,48.0,s_sh_08_1,student_shared,post-its,10.0,competing,single,s_sh_08_1.jpg,Student,$${counterbalance_group},,sub-101
Desktop or Laptop,Windows 10,Chrome 133.0.0.0,1536x864,1366x768,Temporal Distance Task,,,,,,,info,END,,,326761.0,,,,,,,,,,,,,,,,,,,,,,$${counterbalance_group},,sub-101
