Participant Device,Participant OS,Participant Browser,Participant Monitor Size,Participant Viewport Size,Task Name,Current Spreadsheet,Trial Number,Display,Screen,Screen ID,Screen Counter,Response Type,Response,Onset Time,Clock Time,Reaction Time,Absolute Onset Time,Absolute Clock Time,Absolute Reaction Time,Correct,Response Duration,Proportion,Tag,Component Name,Object Name,Object Number,Object ID,Spreadsheet: display,Spreadsheet: trial,Spreadsheet: stimulus_id,Spreadsheet: expected_goal,Spreadsheet: stimulus_name,Spreadsheet: c_group,Spreadsheet: condition,Spreadsheet: paired_status,Spreadsheet: stimulus_path,Spreadsheet: block_type,Manipulation: Spreadsheet,Store: enc_test_acc,sub_label
Desktop or Laptop,Windows 10,Chrome 138.0.0.0,1366x768,1366x768,Temporal Distance Task,,,,,,,info,BEGIN,,,,,,,,,,,,,,,,,,,,,,,,,$${counterbalance_group},,sub-87
Desktop or Laptop,Windows 10,Chrome 138.0.0.0,1366x768,1366x768,Temporal Distance Task,cb_05,1.0,temp_instructions,intro_screen,3tnme7,1.0,continue,,25888.799999964238,25882.4,25888.799999964238,25888.799999964238,25882.4,25888.799999964238,1.0,0.0,0.0,,Click To Continue,Continue Button,4.0,object-29,temp_instructions,,,Student,,,,,,,$${counterbalance_group},,sub-87
Desktop or Laptop,Windows 10,Chrome 138.0.0.0,1366x768,1366x768,Temporal Distance Task,cb_05,1.0,temp_instructions,intro_screen_2,52v7ur,2.0,continue,,7324.399999964237,7316.899999999998,7324.399999964237,7324.399999964237,7316.899999999998,7324.399999964237,1.0,0.0,0.0,,Click To Continue,Continue Button,4.0,object-39,temp_instructions,,,Student,,,,,,,$${counterbalance_group},,sub-87
Desktop or Laptop,Windows 10,Chrome 138.0.0.0,1366x768,1366x768,Temporal Distance Task,cb_05,1.0,temp_instructions,intro_screen_3,i7lvwx,3.0,continue,,20380.999999964242,20365.200000000004,20380.999999964242,20380.999999964242,20365.200000000004,20380.999999964242,1.0,0.0,0.0,,Click To Continue,Continue Button,4.0,object-67,temp_instructions,,,Student,,,,,,,$${counterbalance_group},,sub-87
Desktop or Laptop,Windows 10,Chrome 138.0.0.0,1366x768,1366x768,Temporal Distance Task,cb_05,1.0,temp_instructions,test_q1,5ieqx1,4.0,response,choice_3,5244.299999964234,5233.199999999997,5244.299999964234,5244.299999964234,5233.199999999997,5244.299999964234,1.0,0.0,0.0,,Click Response,choice_3,5.0,object-345,temp_instructions,,,Student,,,,,,,$${counterbalance_group},,sub-87
Desktop or Laptop,Windows 10,Chrome 138.0.0.0,1366x768,1366x768,Temporal Distance Task,cb_05,1.0,temp_instructions,score_corr,7ilvjr,5.0,continue,,1595.0999999642374,1583.1999999999966,1595.0999999642374,1595.0999999642374,1583.1999999999966,1595.0999999642374,1.0,0.0,0.0,,Click To Continue,Continue Button,3.0,object-23,temp_instructions,,,Student,,,,,,,$${counterbalance_group},,sub-87
Desktop or Laptop,Windows 10,Chrome 138.0.0.0,1366x768,1366x768,Temporal Distance Task,cb_05,1.0,temp_eventStart,Screen 1,dgtyxe,1.0,continue,,3330.39999996424,3316.5,3330.39999996424,3330.39999996424,3316.5,3330.39999996424,1.0,0.0,0.0,,Click To Continue,Next Button,3.0,object-43,temp_eventStart,,,Student,,,,,,,$${counterbalance_group},,sub-87
Desktop or Laptop,Windows 10,Chrome 138.0.0.0,1366x768,1366x768,Temporal Distance Task,cb_05,1.0,temp_dist_trial,num_items,zn7si1,1.0,response,1_ITEM,2486.89999996424,2482.9000000000087,2486.89999996424,2486.89999996424,2482.9000000000087,2486.89999996424,1.0,0.0,0.0,,Click Response,1_count,3.0,object-46,temp_dist_trial,1.0,s_a_08_1,student_art,sewing machine,5.0,unique,paired,s_a_08_1.jpg,Student,$${counterbalance_group},,sub-87
Desktop or Laptop,Windows 10,Chrome 138.0.0.0,1366x768,1366x768,Temporal Distance Task,cb_05,2.0,temp_dist_trial,num_items,zn7si1,1.0,response,1_ITEM,2157.799999988085,2149.800000000003,2157.799999988085,2157.799999988085,2149.800000000003,2157.799999988085,1.0,0.0,0.0,,Click Response,1_count,3.0,object-46,temp_dist_trial,2.0,s_s_03_1,student_stem,petri dish,5.0,unique,paired,s_s_03_1.jpg,Student,$${counterbalance_group},,sub-87
Desktop or Laptop,Windows 10,Chrome 138.0.0.0,1366x768,1366x768,Temporal Distance Task,cb_05,3.0,temp_dist_trial,num_items,zn7si1,1.0,response,2_ITEM,1205.499999988082,1199.6999999999969,1205.499999988082,1205.499999988082,1199.6999999999969,1205.499999988082,1.0,0.0,0.0,,Click Response,2_count,5.0,object-49,temp_dist_trial,3.0,s_sh_02_1,student_shared,eraser,5.0,competing,paired,s_sh_02_1.jpg,Student,$${counterbalance_group},,sub-87
Desktop or Laptop,Windows 10,Chrome 138.0.0.0,1366x768,1366x768,Temporal Distance Task,cb_05,3.0,temp_dist_trial,dist_items,qkpkxw,2.0,info,,16.89999999999418,0.0,16.89999999999418,16.89999999999418,0.0,16.89999999999418,1.0,0.0,0.0,,Slider,Slider,4.0,object-56,temp_dist_trial,3.0,s_sh_02_1,student_shared,eraser,5.0,competing,paired,s_sh_02_1.jpg,Student,$${counterbalance_group},,sub-87
Desktop or Laptop,Windows 10,Chrome 138.0.0.0,1366x768,1366x768,Temporal Distance Task,cb_05,3.0,temp_dist_trial,dist_items,qkpkxw,2.0,continue,,4433.0,4416.300000000003,4433.0,4433.0,4416.300000000003,4433.0,1.0,0.0,0.0,,Click To Continue,Next button,7.0,object-60,temp_dist_trial,3.0,s_sh_02_1,student_shared,eraser,5.0,competing,paired,s_sh_02_1.jpg,Student,$${counterbalance_group},,sub-87
Desktop or Laptop,Windows 10,Chrome 138.0.0.0,1366x768,1366x768,Temporal Distance Task,cb_05,3.0,temp_dist_trial,dist_items,qkpkxw,2.0,response,71,2199.700000000012,4416.300000000003,4433.0,2199.700000000012,4416.300000000003,4433.0,1.0,2233.2999999999884,0.0,,Slider,Slider,4.0,object-56,temp_dist_trial,3.0,s_sh_02_1,student_shared,eraser,5.0,competing,paired,s_sh_02_1.jpg,Student,$${counterbalance_group},,sub-87
Desktop or Laptop,Windows 10,Chrome 138.0.0.0,1366x768,1366x768,Temporal Distance Task,cb_05,4.0,temp_dist_trial,num_items,zn7si1,1.0,response,2_ITEM,1496.6000000119238,1483.1999999999966,1496.6000000119238,1496.6000000119238,1483.1999999999966,1496.6000000119238,1.0,0.0,0.0,,Click Response,2_count,5.0,object-49,temp_dist_trial,4.0,s_a_01_1,student_art,paintbrush,5.0,unique,paired,s_a_01_1.jpg,Student,$${counterbalance_group},,sub-87
Desktop or Laptop,Windows 10,Chrome 138.0.0.0,1366x768,1366x768,Temporal Distance Task,cb_05,4.0,temp_dist_trial,dist_items,qkpkxw,2.0,info,,16.60000000000582,0.0,16.60000000000582,16.60000000000582,0.0,16.60000000000582,1.0,0.0,0.0,,Slider,Slider,4.0,object-56,temp_dist_trial,4.0,s_a_01_1,student_art,paintbrush,5.0,unique,paired,s_a_01_1.jpg,Student,$${counterbalance_group},,sub-87
Desktop or Laptop,Windows 10,Chrome 138.0.0.0,1366x768,1366x768,Temporal Distance Task,cb_05,4.0,temp_dist_trial,dist_items,qkpkxw,2.0,continue,,3183.39999999998,3166.7999999999884,3183.39999999998,3183.39999999998,3166.7999999999884,3183.39999999998,1.0,0.0,0.0,,Click To Continue,Next button,7.0,object-60,temp_dist_trial,4.0,s_a_01_1,student_art,paintbrush,5.0,unique,paired,s_a_01_1.jpg,Student,$${counterbalance_group},,sub-87
Desktop or Laptop,Windows 10,Chrome 138.0.0.0,1366x768,1366x768,Temporal Distance Task,cb_05,4.0,temp_dist_trial,dist_items,qkpkxw,2.0,response,59,1483.5,3166.7999999999884,3183.39999999998,1483.5,3166.7999999999884,3183.39999999998,1.0,1699.8999999999796,0.0,,Slider,Slider,4.0,object-56,temp_dist_trial,4.0,s_a_01_1,student_art,paintbrush,5.0,unique,paired,s_a_01_1.jpg,Student,$${counterbalance_group},,sub-87
Desktop or Laptop,Windows 10,Chrome 138.0.0.0,1366x768,1366x768,Temporal Distance Task,cb_05,5.0,temp_dist_trial,num_items,zn7si1,1.0,response,1_ITEM,1857.499999976164,1850.1000000000056,1857.499999976164,1857.499999976164,1850.1000000000056,1857.499999976164,1.0,0.0,0.0,,Click Response,1_count,3.0,object-46,temp_dist_trial,5.0,s_s_17_1,student_stem,ring stand,5.0,unique,paired,s_s_17_1.jpg,Student,$${counterbalance_group},,sub-87
Desktop or Laptop,Windows 10,Chrome 138.0.0.0,1366x768,1366x768,Temporal Distance Task,cb_05,6.0,temp_dist_trial,num_items,zn7si1,1.0,response,1_ITEM,2299.800000000003,2283.199999999997,2299.800000000003,2299.800000000003,2283.199999999997,2299.800000000003,1.0,0.0,0.0,,Click Response,1_count,3.0,object-46,temp_dist_trial,6.0,s_sh_11_1,student_shared,pencil case,5.0,competing,single,s_sh_11_1.jpg,Student,$${counterbalance_group},,sub-87
Desktop or Laptop,Windows 10,Chrome 138.0.0.0,1366x768,1366x768,Temporal Distance Task,cb_05,7.0,temp_dist_trial,num_items,zn7si1,1.0,response,1_ITEM,2025.6999999880786,2016.6000000000056,2025.6999999880786,2025.6999999880786,2016.6000000000056,2025.6999999880786,1.0,0.0,0.0,,Click Response,1_count,3.0,object-46,temp_dist_trial,7.0,s_a_07_1,student_art,yarn,5.0,unique,paired,s_a_07_1.jpg,Student,$${counterbalance_group},,sub-87
Desktop or Laptop,Windows 10,Chrome 138.0.0.0,1366x768,1366x768,Temporal Distance Task,cb_05,8.0,temp_dist_trial,num_items,zn7si1,1.0,response,1_ITEM,1475.2999999761525,1466.5,1475.2999999761525,1475.2999999761525,1466.5,1475.2999999761525,1.0,0.0,0.0,,Click Response,1_count,3.0,object-46,temp_dist_trial,8.0,s_a_13_1,student_art,violin,5.0,unique,paired,s_a_13_1.jpg,Student,$${counterbalance_group},,sub-87
Desktop or Laptop,Windows 10,Chrome 138.0.0.0,1366x768,1366x768,Temporal Distance Task,cb_05,9.0,temp_dist_trial,num_items,zn7si1,1.0,response,1_ITEM,2205.9999999642314,2200.199999999997,2205.9999999642314,2205.9999999642314,2200.199999999997,2205.9999999642314,1.0,0.0,0.0,,Click Response,1_count,3.0,object-46,temp_dist_trial,9.0,s_sh_17_1,student_shared,wireless mouse,5.0,competing,paired,s_sh_17_1.jpg,Student,$${counterbalance_group},,sub-87
Desktop or Laptop,Windows 10,Chrome 138.0.0.0,1366x768,1366x768,Temporal Distance Task,cb_05,10.0,temp_dist_trial,num_items,zn7si1,1.0,response,1_ITEM,1899.0999999761555,1883.5999999999915,1899.0999999761555,1899.0999999761555,1883.5999999999915,1899.0999999761555,1.0,0.0,0.0,,Click Response,1_count,3.0,object-46,temp_dist_trial,10.0,s_s_05_1,student_stem,lab goggles,5.0,unique,single,s_s_05_1.jpg,Student,$${counterbalance_group},,sub-87
Desktop or Laptop,Windows 10,Chrome 138.0.0.0,1366x768,1366x768,Temporal Distance Task,cb_05,11.0,temp_dist_trial,num_items,zn7si1,1.0,response,2_ITEM,1189.8999999642401,1183.4000000000087,1189.8999999642401,1189.8999999642401,1183.4000000000087,1189.8999999642401,1.0,0.0,0.0,,Click Response,2_count,5.0,object-49,temp_dist_trial,11.0,s_s_16_1,student_stem,toolbox,5.0,unique,paired,s_s_16_1.jpg,Student,$${counterbalance_group},,sub-87
Desktop or Laptop,Windows 10,Chrome 138.0.0.0,1366x768,1366x768,Temporal Distance Task,cb_05,11.0,temp_dist_trial,dist_items,qkpkxw,2.0,info,,16.700000000011638,0.0,16.700000000011638,16.700000000011638,0.0,16.700000000011638,1.0,0.0,0.0,,Slider,Slider,4.0,object-56,temp_dist_trial,11.0,s_s_16_1,student_stem,toolbox,5.0,unique,paired,s_s_16_1.jpg,Student,$${counterbalance_group},,sub-87
Desktop or Laptop,Windows 10,Chrome 138.0.0.0,1366x768,1366x768,Temporal Distance Task,cb_05,11.0,temp_dist_trial,dist_items,qkpkxw,2.0,continue,,3814.299999976152,3799.599999999991,3814.299999976152,3814.299999976152,3799.599999999991,3814.299999976152,1.0,0.0,0.0,,Click To Continue,Next button,7.0,object-60,temp_dist_trial,11.0,s_s_16_1,student_stem,toolbox,5.0,unique,paired,s_s_16_1.jpg,Student,$${counterbalance_group},,sub-87
Desktop or Laptop,Windows 10,Chrome 138.0.0.0,1366x768,1366x768,Temporal Distance Task,cb_05,11.0,temp_dist_trial,dist_items,qkpkxw,2.0,response,41,1833.1999999999966,3799.599999999991,3816.199999999983,1833.1999999999966,3799.599999999991,3816.199999999983,1.0,1982.9999999999854,0.0,,Slider,Slider,4.0,object-56,temp_dist_trial,11.0,s_s_16_1,student_stem,toolbox,5.0,unique,paired,s_s_16_1.jpg,Student,$${counterbalance_group},,sub-87
Desktop or Laptop,Windows 10,Chrome 138.0.0.0,1366x768,1366x768,Temporal Distance Task,cb_05,12.0,temp_dist_trial,num_items,zn7si1,1.0,response,1_ITEM,1610.3000000000034,1599.8000000000034,1610.3000000000034,1610.3000000000034,1599.8000000000034,1610.3000000000034,1.0,0.0,0.0,,Click Response,1_count,3.0,object-46,temp_dist_trial,12.0,s_sh_24_1,student_shared,desk organizer,5.0,competing,single,s_sh_24_1.jpg,Student,$${counterbalance_group},,sub-87
Desktop or Laptop,Windows 10,Chrome 138.0.0.0,1366x768,1366x768,Temporal Distance Task,cb_05,13.0,temp_dist_trial,num_items,zn7si1,1.0,response,1_ITEM,1990.6999999642428,1983.7000000000119,1990.6999999642428,1990.6999999642428,1983.7000000000119,1990.6999999642428,1.0,0.0,0.0,,Click Response,1_count,3.0,object-46,temp_dist_trial,13.0,s_a_15_1,student_art,drum kit,5.0,unique,paired,s_a_15_1.jpg,Student,$${counterbalance_group},,sub-87
Desktop or Laptop,Windows 10,Chrome 138.0.0.0,1366x768,1366x768,Temporal Distance Task,cb_05,14.0,temp_dist_trial,num_items,zn7si1,1.0,response,2_ITEM,1980.6999999999966,1966.8999999999944,1980.6999999999966,1980.6999999999966,1966.8999999999944,1980.6999999999966,1.0,0.0,0.0,,Click Response,2_count,5.0,object-49,temp_dist_trial,14.0,s_a_06_1,student_art,pastels,5.0,unique,paired,s_a_06_1.jpg,Student,$${counterbalance_group},,sub-87
Desktop or Laptop,Windows 10,Chrome 138.0.0.0,1366x768,1366x768,Temporal Distance Task,cb_05,14.0,temp_dist_trial,dist_items,qkpkxw,2.0,info,,16.700000000011638,0.0,16.700000000011638,16.700000000011638,0.0,16.700000000011638,1.0,0.0,0.0,,Slider,Slider,4.0,object-56,temp_dist_trial,14.0,s_a_06_1,student_art,pastels,5.0,unique,paired,s_a_06_1.jpg,Student,$${counterbalance_group},,sub-87
Desktop or Laptop,Windows 10,Chrome 138.0.0.0,1366x768,1366x768,Temporal Distance Task,cb_05,14.0,temp_dist_trial,dist_items,qkpkxw,2.0,continue,,3371.3999999999933,3366.2999999999884,3371.3999999999933,3371.3999999999933,3366.2999999999884,3371.3999999999933,1.0,0.0,0.0,,Click To Continue,Next button,7.0,object-60,temp_dist_trial,14.0,s_a_06_1,student_art,pastels,5.0,unique,paired,s_a_06_1.jpg,Student,$${counterbalance_group},,sub-87
Desktop or Laptop,Windows 10,Chrome 138.0.0.0,1366x768,1366x768,Temporal Distance Task,cb_05,14.0,temp_dist_trial,dist_items,qkpkxw,2.0,response,29,1283.1999999999969,3366.2999999999884,3373.8999999999933,1283.1999999999969,3366.2999999999884,3373.8999999999933,1.0,2090.699999999997,0.0,,Slider,Slider,4.0,object-56,temp_dist_trial,14.0,s_a_06_1,student_art,pastels,5.0,unique,paired,s_a_06_1.jpg,Student,$${counterbalance_group},,sub-87
Desktop or Laptop,Windows 10,Chrome 138.0.0.0,1366x768,1366x768,Temporal Distance Task,cb_05,15.0,temp_dist_trial,num_items,zn7si1,1.0,response,1_ITEM,1747.7999999880853,1733.5,1747.7999999880853,1747.7999999880853,1733.5,1747.7999999880853,1.0,0.0,0.0,,Click Response,1_count,3.0,object-46,temp_dist_trial,15.0,s_sh_20_1,student_shared,tape,5.0,competing,paired,s_sh_20_1.jpg,Student,$${counterbalance_group},,sub-87
Desktop or Laptop,Windows 10,Chrome 138.0.0.0,1366x768,1366x768,Temporal Distance Task,cb_05,16.0,temp_dist_trial,num_items,zn7si1,1.0,response,1_ITEM,2355.5999999761552,2349.800000000003,2355.5999999761552,2355.5999999761552,2349.800000000003,2355.5999999761552,1.0,0.0,0.0,,Click Response,1_count,3.0,object-46,temp_dist_trial,16.0,s_a_03_1,student_art,palette,5.0,unique,paired,s_a_03_1.jpg,Student,$${counterbalance_group},,sub-87
Desktop or Laptop,Windows 10,Chrome 138.0.0.0,1366x768,1366x768,Temporal Distance Task,cb_05,17.0,temp_dist_trial,num_items,zn7si1,1.0,response,num_miss,2999.800000000003,2999.800000000003,2999.800000000003,2999.800000000003,2999.800000000003,2999.800000000003,1.0,0.0,0.0,num_miss_tag,Time Limit,screen,0.0,screen,temp_dist_trial,17.0,s_sh_16_1,student_shared,stapler,5.0,competing,paired,s_sh_16_1.jpg,Student,$${counterbalance_group},,sub-87
Desktop or Laptop,Windows 10,Chrome 138.0.0.0,1366x768,1366x768,Temporal Distance Task,cb_05,18.0,temp_dist_trial,num_items,zn7si1,1.0,response,1_ITEM,1463.3999999642401,1450.1000000000058,1463.3999999642401,1463.3999999642401,1450.1000000000058,1463.3999999642401,1.0,0.0,0.0,,Click Response,1_count,3.0,object-46,temp_dist_trial,18.0,s_sh_14_1,student_shared,printer,5.0,competing,single,s_sh_14_1.jpg,Student,$${counterbalance_group},,sub-87
Desktop or Laptop,Windows 10,Chrome 138.0.0.0,1366x768,1366x768,Temporal Distance Task,cb_05,19.0,temp_dist_trial,num_items,zn7si1,1.0,response,1_ITEM,2555.0999999761552,2549.5999999999913,2555.0999999761552,2555.0999999761552,2549.5999999999913,2555.0999999761552,1.0,0.0,0.0,,Click Response,1_count,3.0,object-46,temp_dist_trial,19.0,s_sh_19_1,student_shared,portable plastic drawer,5.0,competing,paired,s_sh_19_1.jpg,Student,$${counterbalance_group},,sub-87
Desktop or Laptop,Windows 10,Chrome 138.0.0.0,1366x768,1366x768,Temporal Distance Task,cb_05,20.0,temp_dist_trial,num_items,zn7si1,1.0,response,1_ITEM,2265.6000000000063,2250.200000000012,2265.6000000000063,2265.6000000000063,2250.200000000012,2265.6000000000063,1.0,0.0,0.0,,Click Response,1_count,3.0,object-46,temp_dist_trial,20.0,s_s_04_1,student_stem,bunsen burner,5.0,unique,single,s_s_04_1.jpg,Student,$${counterbalance_group},,sub-87
Desktop or Laptop,Windows 10,Chrome 138.0.0.0,1366x768,1366x768,Temporal Distance Task,cb_05,21.0,temp_dist_trial,num_items,zn7si1,1.0,response,1_ITEM,1416.1999999999966,1399.5,1416.1999999999966,1416.1999999999966,1399.5,1416.1999999999966,1.0,0.0,0.0,,Click Response,1_count,3.0,object-46,temp_dist_trial,21.0,s_s_14_1,student_stem,funnel,5.0,unique,paired,s_s_14_1.jpg,Student,$${counterbalance_group},,sub-87
Desktop or Laptop,Windows 10,Chrome 138.0.0.0,1366x768,1366x768,Temporal Distance Task,cb_05,22.0,temp_dist_trial,num_items,zn7si1,1.0,response,1_ITEM,978.7000000119153,967.0,978.7000000119153,978.7000000119153,967.0,978.7000000119153,1.0,0.0,0.0,,Click Response,1_count,3.0,object-46,temp_dist_trial,22.0,s_sh_15_1,student_shared,usb drive,5.0,competing,single,s_sh_15_1.jpg,Student,$${counterbalance_group},,sub-87
Desktop or Laptop,Windows 10,Chrome 138.0.0.0,1366x768,1366x768,Temporal Distance Task,cb_05,23.0,temp_dist_trial,num_items,zn7si1,1.0,response,1_ITEM,2344.8999999999937,2333.1999999999825,2344.8999999999937,2344.8999999999937,2333.1999999999825,2344.8999999999937,1.0,0.0,0.0,,Click Response,1_count,3.0,object-46,temp_dist_trial,23.0,s_sh_10_1,student_shared,scissors,5.0,competing,single,s_sh_10_1.jpg,Student,$${counterbalance_group},,sub-87
Desktop or Laptop,Windows 10,Chrome 138.0.0.0,1366x768,1366x768,Temporal Distance Task,cb_05,24.0,temp_dist_trial,num_items,zn7si1,1.0,response,1_ITEM,1088.8999999880907,1083.0,1088.8999999880907,1088.8999999880907,1083.0,1088.8999999880907,1.0,0.0,0.0,,Click Response,1_count,3.0,object-46,temp_dist_trial,24.0,s_s_12_1,student_stem,robotic arm,5.0,unique,single,s_s_12_1.jpg,Student,$${counterbalance_group},,sub-87
Desktop or Laptop,Windows 10,Chrome 138.0.0.0,1366x768,1366x768,Temporal Distance Task,cb_05,25.0,temp_dist_trial,num_items,zn7si1,1.0,response,2_ITEM,2233.1000000000063,2216.5,2233.1000000000063,2233.1000000000063,2216.5,2233.1000000000063,1.0,0.0,0.0,,Click Response,2_count,5.0,object-49,temp_dist_trial,25.0,s_sh_23_1,student_shared,ballpoint pen,5.0,competing,paired,s_sh_23_1.jpg,Student,$${counterbalance_group},,sub-87
Desktop or Laptop,Windows 10,Chrome 138.0.0.0,1366x768,1366x768,Temporal Distance Task,cb_05,25.0,temp_dist_trial,dist_items,qkpkxw,2.0,info,,16.700000000011638,0.0,16.700000000011638,16.700000000011638,0.0,16.700000000011638,1.0,0.0,0.0,,Slider,Slider,4.0,object-56,temp_dist_trial,25.0,s_sh_23_1,student_shared,ballpoint pen,5.0,competing,paired,s_sh_23_1.jpg,Student,$${counterbalance_group},,sub-87
Desktop or Laptop,Windows 10,Chrome 138.0.0.0,1366x768,1366x768,Temporal Distance Task,cb_05,25.0,temp_dist_trial,dist_items,qkpkxw,2.0,continue,,3925.3999999999933,3916.5,3925.3999999999933,3925.3999999999933,3916.5,3925.3999999999933,1.0,0.0,0.0,,Click To Continue,Next button,7.0,object-60,temp_dist_trial,25.0,s_sh_23_1,student_shared,ballpoint pen,5.0,competing,paired,s_sh_23_1.jpg,Student,$${counterbalance_group},,sub-87
Desktop or Laptop,Windows 10,Chrome 138.0.0.0,1366x768,1366x768,Temporal Distance Task,cb_05,25.0,temp_dist_trial,dist_items,qkpkxw,2.0,response,18,1283.2999999999886,3916.5,3926.3999999999933,1283.2999999999886,3916.5,3926.3999999999933,1.0,2643.1000000000063,0.0,,Slider,Slider,4.0,object-56,temp_dist_trial,25.0,s_sh_23_1,student_shared,ballpoint pen,5.0,competing,paired,s_sh_23_1.jpg,Student,$${counterbalance_group},,sub-87
Desktop or Laptop,Windows 10,Chrome 138.0.0.0,1366x768,1366x768,Temporal Distance Task,cb_05,26.0,temp_dist_trial,num_items,zn7si1,1.0,response,1_ITEM,1815.7999999999884,1799.7999999999884,1815.7999999999884,1815.7999999999884,1799.7999999999884,1815.7999999999884,1.0,0.0,0.0,,Click Response,1_count,3.0,object-46,temp_dist_trial,26.0,s_sh_06_1,student_shared,clipboard,5.0,competing,single,s_sh_06_1.jpg,Student,$${counterbalance_group},,sub-87
Desktop or Laptop,Windows 10,Chrome 138.0.0.0,1366x768,1366x768,Temporal Distance Task,cb_05,27.0,temp_dist_trial,num_items,zn7si1,1.0,response,1_ITEM,1470.1999999642428,1466.5,1470.1999999642428,1470.1999999642428,1466.5,1470.1999999642428,1.0,0.0,0.0,,Click Response,1_count,3.0,object-46,temp_dist_trial,27.0,s_s_18_1,student_stem,brain model,5.0,unique,single,s_s_18_1.jpg,Student,$${counterbalance_group},,sub-87
Desktop or Laptop,Windows 10,Chrome 138.0.0.0,1366x768,1366x768,Temporal Distance Task,cb_05,28.0,temp_dist_trial,num_items,zn7si1,1.0,response,1_ITEM,1616.6000000000058,1599.8999999999942,1616.6000000000058,1616.6000000000058,1599.8999999999942,1616.6000000000058,1.0,0.0,0.0,,Click Response,1_count,3.0,object-46,temp_dist_trial,28.0,s_sh_08_1,student_shared,post-its,5.0,competing,paired,s_sh_08_1.jpg,Student,$${counterbalance_group},,sub-87
Desktop or Laptop,Windows 10,Chrome 138.0.0.0,1366x768,1366x768,Temporal Distance Task,cb_05,29.0,temp_dist_trial,num_items,zn7si1,1.0,response,num_miss,2999.6000000000067,2999.6000000000067,2999.6000000000067,2999.6000000000067,2999.6000000000067,2999.6000000000067,1.0,0.0,0.0,num_miss_tag,Time Limit,screen,0.0,screen,temp_dist_trial,29.0,s_a_20_1,student_art,pin cushion,5.0,unique,single,s_a_20_1.jpg,Student,$${counterbalance_group},,sub-87
Desktop or Laptop,Windows 10,Chrome 138.0.0.0,1366x768,1366x768,Temporal Distance Task,cb_05,30.0,temp_dist_trial,num_items,zn7si1,1.0,response,1_ITEM,852.6000000119092,849.6999999999823,852.6000000119092,852.6000000119092,849.6999999999823,852.6000000119092,1.0,0.0,0.0,,Click Response,1_count,3.0,object-46,temp_dist_trial,30.0,s_s_13_1,student_stem,telescope,5.0,unique,paired,s_s_13_1.jpg,Student,$${counterbalance_group},,sub-87
Desktop or Laptop,Windows 10,Chrome 138.0.0.0,1366x768,1366x768,Temporal Distance Task,cb_05,31.0,temp_dist_trial,num_items,zn7si1,1.0,response,1_ITEM,2033.3999999999646,2016.6999999999825,2033.3999999999646,2033.3999999999646,2016.6999999999825,2033.3999999999646,1.0,0.0,0.0,,Click Response,1_count,3.0,object-46,temp_dist_trial,31.0,s_sh_13_1,student_shared,index cards,5.0,competing,single,s_sh_13_1.jpg,Student,$${counterbalance_group},,sub-87
Desktop or Laptop,Windows 10,Chrome 138.0.0.0,1366x768,1366x768,Temporal Distance Task,cb_05,32.0,temp_dist_trial,num_items,zn7si1,1.0,response,1_ITEM,2466.800000000017,2450.0,2466.800000000017,2466.800000000017,2450.0,2466.800000000017,1.0,0.0,0.0,,Click Response,1_count,3.0,object-46,temp_dist_trial,32.0,s_sh_05_1,student_shared,laptop,5.0,competing,paired,s_sh_05_1.jpg,Student,$${counterbalance_group},,sub-87
Desktop or Laptop,Windows 10,Chrome 138.0.0.0,1366x768,1366x768,Temporal Distance Task,cb_05,33.0,temp_dist_trial,num_items,zn7si1,1.0,response,1_ITEM,2549.699999999953,2533.099999999977,2549.699999999953,2549.699999999953,2533.099999999977,2549.699999999953,1.0,0.0,0.0,,Click Response,1_count,3.0,object-46,temp_dist_trial,33.0,s_sh_21_1,student_shared,file holder,5.0,competing,paired,s_sh_21_1.jpg,Student,$${counterbalance_group},,sub-87
Desktop or Laptop,Windows 10,Chrome 138.0.0.0,1366x768,1366x768,Temporal Distance Task,cb_05,34.0,temp_dist_trial,num_items,zn7si1,1.0,response,1_ITEM,1982.7999999761525,1966.7999999999884,1982.7999999761525,1982.7999999761525,1966.7999999999884,1982.7999999761525,1.0,0.0,0.0,,Click Response,1_count,3.0,object-46,temp_dist_trial,34.0,s_sh_03_1,student_shared,highlighter,5.0,competing,paired,s_sh_03_1.jpg,Student,$${counterbalance_group},,sub-87
Desktop or Laptop,Windows 10,Chrome 138.0.0.0,1366x768,1366x768,Temporal Distance Task,cb_05,35.0,temp_dist_trial,num_items,zn7si1,1.0,response,1_ITEM,1077.2000000000116,1066.7000000000116,1077.2000000000116,1077.2000000000116,1066.7000000000116,1077.2000000000116,1.0,0.0,0.0,,Click Response,1_count,3.0,object-46,temp_dist_trial,35.0,s_s_20_1,student_stem,dna model,5.0,unique,paired,s_s_20_1.jpg,Student,$${counterbalance_group},,sub-87
Desktop or Laptop,Windows 10,Chrome 138.0.0.0,1366x768,1366x768,Temporal Distance Task,cb_05,36.0,temp_dist_trial,num_items,zn7si1,1.0,response,1_ITEM,1303.300000011921,1299.7000000000114,1303.300000011921,1303.300000011921,1299.7000000000114,1303.300000011921,1.0,0.0,0.0,,Click Response,1_count,3.0,object-46,temp_dist_trial,36.0,s_a_10_1,student_art,tripod,5.0,unique,single,s_a_10_1.jpg,Student,$${counterbalance_group},,sub-87
Desktop or Laptop,Windows 10,Chrome 138.0.0.0,1366x768,1366x768,Temporal Distance Task,cb_05,37.0,temp_dist_trial,num_items,zn7si1,1.0,response,2_ITEM,1415.999999976164,1399.8999999999942,1415.999999976164,1415.999999976164,1399.8999999999942,1415.999999976164,1.0,0.0,0.0,,Click Response,2_count,5.0,object-49,temp_dist_trial,37.0,s_a_09_1,student_art,picture frame,5.0,unique,paired,s_a_09_1.jpg,Student,$${counterbalance_group},,sub-87
Desktop or Laptop,Windows 10,Chrome 138.0.0.0,1366x768,1366x768,Temporal Distance Task,cb_05,37.0,temp_dist_trial,dist_items,qkpkxw,2.0,info,,16.699999999982538,0.0,16.699999999982538,16.699999999982538,0.0,16.699999999982538,1.0,0.0,0.0,,Slider,Slider,4.0,object-56,temp_dist_trial,37.0,s_a_09_1,student_art,picture frame,5.0,unique,paired,s_a_09_1.jpg,Student,$${counterbalance_group},,sub-87
Desktop or Laptop,Windows 10,Chrome 138.0.0.0,1366x768,1366x768,Temporal Distance Task,cb_05,37.0,temp_dist_trial,dist_items,qkpkxw,2.0,continue,,4539.59999997617,4533.100000000006,4539.59999997617,4539.59999997617,4533.100000000006,4539.59999997617,1.0,0.0,0.0,,Click To Continue,Next button,7.0,object-60,temp_dist_trial,37.0,s_a_09_1,student_art,picture frame,5.0,unique,paired,s_a_09_1.jpg,Student,$${counterbalance_group},,sub-87
Desktop or Laptop,Windows 10,Chrome 138.0.0.0,1366x768,1366x768,Temporal Distance Task,cb_05,37.0,temp_dist_trial,dist_items,qkpkxw,2.0,response,34,3266.700000000012,4533.100000000006,4541.700000000013,3266.700000000012,4533.100000000006,4541.700000000013,1.0,1275.0,0.0,,Slider,Slider,4.0,object-56,temp_dist_trial,37.0,s_a_09_1,student_art,picture frame,5.0,unique,paired,s_a_09_1.jpg,Student,$${counterbalance_group},,sub-87
Desktop or Laptop,Windows 10,Chrome 138.0.0.0,1366x768,1366x768,Temporal Distance Task,cb_05,38.0,temp_dist_trial,num_items,zn7si1,1.0,response,1_ITEM,2762.699999964243,2749.700000000012,2762.699999964243,2762.699999964243,2749.700000000012,2762.699999964243,1.0,0.0,0.0,,Click Response,1_count,3.0,object-46,temp_dist_trial,38.0,s_a_11_1,student_art,clapperboard,5.0,unique,single,s_a_11_1.jpg,Student,$${counterbalance_group},,sub-87
Desktop or Laptop,Windows 10,Chrome 138.0.0.0,1366x768,1366x768,Temporal Distance Task,cb_05,39.0,temp_dist_trial,num_items,zn7si1,1.0,response,2_ITEM,1908.8999999999944,1900.1000000000056,1908.8999999999944,1908.8999999999944,1900.1000000000056,1908.8999999999944,1.0,0.0,0.0,,Click Response,2_count,5.0,object-49,temp_dist_trial,39.0,s_sh_04_1,student_shared,laptop stand,5.0,competing,paired,s_sh_04_1.jpg,Student,$${counterbalance_group},,sub-87
Desktop or Laptop,Windows 10,Chrome 138.0.0.0,1366x768,1366x768,Temporal Distance Task,cb_05,39.0,temp_dist_trial,dist_items,qkpkxw,2.0,info,,14.399999999994181,0.0,14.399999999994181,14.399999999994181,0.0,14.399999999994181,1.0,0.0,0.0,,Slider,Slider,4.0,object-56,temp_dist_trial,39.0,s_sh_04_1,student_shared,laptop stand,5.0,competing,paired,s_sh_04_1.jpg,Student,$${counterbalance_group},,sub-87
Desktop or Laptop,Windows 10,Chrome 138.0.0.0,1366x768,1366x768,Temporal Distance Task,cb_05,39.0,temp_dist_trial,dist_items,qkpkxw,2.0,continue,,2533.0,2516.3999999999937,2533.0,2533.0,2516.3999999999937,2533.0,1.0,0.0,0.0,,Click To Continue,Next button,7.0,object-60,temp_dist_trial,39.0,s_sh_04_1,student_shared,laptop stand,5.0,competing,paired,s_sh_04_1.jpg,Student,$${counterbalance_group},,sub-87
Desktop or Laptop,Windows 10,Chrome 138.0.0.0,1366x768,1366x768,Temporal Distance Task,cb_05,39.0,temp_dist_trial,dist_items,qkpkxw,2.0,response,68,1616.5,2516.3999999999937,2533.0,1616.5,2516.3999999999937,2533.0,1.0,916.5,0.0,,Slider,Slider,4.0,object-56,temp_dist_trial,39.0,s_sh_04_1,student_shared,laptop stand,5.0,competing,paired,s_sh_04_1.jpg,Student,$${counterbalance_group},,sub-87
Desktop or Laptop,Windows 10,Chrome 138.0.0.0,1366x768,1366x768,Temporal Distance Task,cb_05,40.0,temp_dist_trial,num_items,zn7si1,1.0,response,1_ITEM,1783.8999999999942,1767.0,1783.8999999999942,1783.8999999999942,1767.0,1783.8999999999942,1.0,0.0,0.0,,Click Response,1_count,3.0,object-46,temp_dist_trial,40.0,s_sh_09_1,student_shared,paper clips,5.0,competing,paired,s_sh_09_1.jpg,Student,$${counterbalance_group},,sub-87
Desktop or Laptop,Windows 10,Chrome 138.0.0.0,1366x768,1366x768,Temporal Distance Task,cb_05,41.0,temp_dist_trial,num_items,zn7si1,1.0,response,1_ITEM,2406.899999988091,2399.9000000000233,2406.899999988091,2406.899999988091,2399.9000000000233,2406.899999988091,1.0,0.0,0.0,,Click Response,1_count,3.0,object-46,temp_dist_trial,41.0,s_sh_22_1,student_shared,hole puncher,5.0,competing,paired,s_sh_22_1.jpg,Student,$${counterbalance_group},,sub-87
Desktop or Laptop,Windows 10,Chrome 138.0.0.0,1366x768,1366x768,Temporal Distance Task,cb_05,42.0,temp_dist_trial,num_items,zn7si1,1.0,response,2_ITEM,1564.7000000119147,1550.0,1564.7000000119147,1564.7000000119147,1550.0,1564.7000000119147,1.0,0.0,0.0,,Click Response,2_count,5.0,object-49,temp_dist_trial,42.0,s_sh_01_1,student_shared,notebook,5.0,competing,paired,s_sh_01_1.jpg,Student,$${counterbalance_group},,sub-87
Desktop or Laptop,Windows 10,Chrome 138.0.0.0,1366x768,1366x768,Temporal Distance Task,cb_05,42.0,temp_dist_trial,dist_items,qkpkxw,2.0,info,,16.29999997615232,0.0,16.29999997615232,16.29999997615232,0.0,16.29999997615232,1.0,0.0,0.0,,Slider,Slider,4.0,object-56,temp_dist_trial,42.0,s_sh_01_1,student_shared,notebook,5.0,competing,paired,s_sh_01_1.jpg,Student,$${counterbalance_group},,sub-87
Desktop or Laptop,Windows 10,Chrome 138.0.0.0,1366x768,1366x768,Temporal Distance Task,cb_05,42.0,temp_dist_trial,dist_items,qkpkxw,2.0,continue,,4194.399999999994,4183.100000000006,4194.399999999994,4194.399999999994,4183.100000000006,4194.399999999994,1.0,0.0,0.0,,Click To Continue,Next button,7.0,object-60,temp_dist_trial,42.0,s_sh_01_1,student_shared,notebook,5.0,competing,paired,s_sh_01_1.jpg,Student,$${counterbalance_group},,sub-87
Desktop or Laptop,Windows 10,Chrome 138.0.0.0,1366x768,1366x768,Temporal Distance Task,cb_05,42.0,temp_dist_trial,dist_items,qkpkxw,2.0,response,78,3232.8999999999933,4183.100000000006,4195.700000011915,3232.8999999999933,4183.100000000006,4195.700000011915,1.0,962.8000000119208,0.0,,Slider,Slider,4.0,object-56,temp_dist_trial,42.0,s_sh_01_1,student_shared,notebook,5.0,competing,paired,s_sh_01_1.jpg,Student,$${counterbalance_group},,sub-87
Desktop or Laptop,Windows 10,Chrome 138.0.0.0,1366x768,1366x768,Temporal Distance Task,cb_05,43.0,temp_dist_trial,num_items,zn7si1,1.0,response,1_ITEM,1099.7999999999593,1083.0999999999767,1099.7999999999593,1099.7999999999593,1083.0999999999767,1099.7999999999593,1.0,0.0,0.0,,Click Response,1_count,3.0,object-46,temp_dist_trial,43.0,s_s_11_1,student_stem,scientific scale,5.0,unique,paired,s_s_11_1.jpg,Student,$${counterbalance_group},,sub-87
Desktop or Laptop,Windows 10,Chrome 138.0.0.0,1366x768,1366x768,Temporal Distance Task,cb_05,44.0,temp_dist_trial,num_items,zn7si1,1.0,response,1_ITEM,2041.2999999642486,2033.1000000000056,2041.2999999642486,2041.2999999642486,2033.1000000000056,2041.2999999642486,1.0,0.0,0.0,,Click Response,1_count,3.0,object-46,temp_dist_trial,44.0,s_sh_07_1,student_shared,ruler,5.0,competing,paired,s_sh_07_1.jpg,Student,$${counterbalance_group},,sub-87
Desktop or Laptop,Windows 10,Chrome 138.0.0.0,1366x768,1366x768,Temporal Distance Task,cb_05,45.0,temp_dist_trial,num_items,zn7si1,1.0,response,1_ITEM,1353.0999999642372,1350.0,1353.0999999642372,1353.0999999642372,1350.0,1353.0999999642372,1.0,0.0,0.0,,Click Response,1_count,3.0,object-46,temp_dist_trial,45.0,s_a_04_1,student_art,easel,5.0,unique,single,s_a_04_1.jpg,Student,$${counterbalance_group},,sub-87
Desktop or Laptop,Windows 10,Chrome 138.0.0.0,1366x768,1366x768,Temporal Distance Task,cb_05,46.0,temp_dist_trial,num_items,zn7si1,1.0,response,num_miss,2999.7999999999884,2999.7999999999884,2999.7999999999884,2999.7999999999884,2999.7999999999884,2999.7999999999884,1.0,0.0,0.0,num_miss_tag,Time Limit,screen,0.0,screen,temp_dist_trial,46.0,s_s_06_1,student_stem,calculator,5.0,unique,paired,s_s_06_1.jpg,Student,$${counterbalance_group},,sub-87
Desktop or Laptop,Windows 10,Chrome 138.0.0.0,1366x768,1366x768,Temporal Distance Task,cb_05,47.0,temp_dist_trial,num_items,zn7si1,1.0,response,2_ITEM,158.0,150.0,158.0,158.0,150.0,158.0,1.0,0.0,0.0,,Click Response,2_count,5.0,object-49,temp_dist_trial,47.0,s_sh_12_1,student_shared,binder,5.0,competing,single,s_sh_12_1.jpg,Student,$${counterbalance_group},,sub-87
Desktop or Laptop,Windows 10,Chrome 138.0.0.0,1366x768,1366x768,Temporal Distance Task,cb_05,47.0,temp_dist_trial,dist_items,qkpkxw,2.0,info,,16.5,0.0,16.5,16.5,0.0,16.5,1.0,0.0,0.0,,Slider,Slider,4.0,object-56,temp_dist_trial,47.0,s_sh_12_1,student_shared,binder,5.0,competing,single,s_sh_12_1.jpg,Student,$${counterbalance_group},,sub-87
Desktop or Laptop,Windows 10,Chrome 138.0.0.0,1366x768,1366x768,Temporal Distance Task,cb_05,47.0,temp_dist_trial,dist_items,qkpkxw,2.0,continue,,5764.2000000000135,5749.900000000023,5764.2000000000135,5764.2000000000135,5749.900000000023,5764.2000000000135,1.0,0.0,0.0,,Click To Continue,Next button,7.0,object-60,temp_dist_trial,47.0,s_sh_12_1,student_shared,binder,5.0,competing,single,s_sh_12_1.jpg,Student,$${counterbalance_group},,sub-87
Desktop or Laptop,Windows 10,Chrome 138.0.0.0,1366x768,1366x768,Temporal Distance Task,cb_05,47.0,temp_dist_trial,dist_items,qkpkxw,2.0,response,61,2799.9000000000237,5749.900000000023,5765.899999988091,2799.9000000000237,5749.900000000023,5765.899999988091,1.0,2965.9999999880674,0.0,,Slider,Slider,4.0,object-56,temp_dist_trial,47.0,s_sh_12_1,student_shared,binder,5.0,competing,single,s_sh_12_1.jpg,Student,$${counterbalance_group},,sub-87
Desktop or Laptop,Windows 10,Chrome 138.0.0.0,1366x768,1366x768,Temporal Distance Task,cb_05,48.0,temp_dist_trial,num_items,zn7si1,1.0,response,1_ITEM,1628.2999999999884,1616.3999999999942,1628.2999999999884,1628.2999999999884,1616.3999999999942,1628.2999999999884,1.0,0.0,0.0,,Click Response,1_count,3.0,object-46,temp_dist_trial,48.0,s_sh_18_1,student_shared,wall calendar,5.0,competing,paired,s_sh_18_1.jpg,Student,$${counterbalance_group},,sub-87
Desktop or Laptop,Windows 10,Chrome 138.0.0.0,1366x768,1366x768,Temporal Distance Task,cb_05,2.0,temp_eventStart,Screen 1,dgtyxe,1.0,continue,,20377.799999976152,20365.699999999983,20377.799999976152,20377.799999976152,20365.699999999983,20377.799999976152,1.0,0.0,0.0,,Click To Continue,Next Button,3.0,object-43,temp_eventStart,,,Travel,,,,,,,$${counterbalance_group},,sub-87
Desktop or Laptop,Windows 10,Chrome 138.0.0.0,1366x768,1366x768,Temporal Distance Task,cb_05,49.0,temp_dist_trial,num_items,zn7si1,1.0,response,1_ITEM,1738.3999999880907,1733.0,1738.3999999880907,1738.3999999880907,1733.0,1738.3999999880907,1.0,0.0,0.0,,Click Response,1_count,3.0,object-46,temp_dist_trial,1.0,t_m_20_1,travel_Miami,inflatable beachball,5.0,unique,paired,t_m_20_1.jpg,Travel,$${counterbalance_group},,sub-87
Desktop or Laptop,Windows 10,Chrome 138.0.0.0,1366x768,1366x768,Temporal Distance Task,cb_05,50.0,temp_dist_trial,num_items,zn7si1,1.0,response,1_ITEM,1370.2999999642489,1366.5,1370.2999999642489,1370.2999999642489,1366.5,1370.2999999642489,1.0,0.0,0.0,,Click Response,1_count,3.0,object-46,temp_dist_trial,2.0,t_i_13_1,travel_Iceland,sleeping bag,5.0,unique,single,t_i_13_1.jpg,Travel,$${counterbalance_group},,sub-87
Desktop or Laptop,Windows 10,Chrome 138.0.0.0,1366x768,1366x768,Temporal Distance Task,cb_05,51.0,temp_dist_trial,num_items,zn7si1,1.0,response,2_ITEM,1499.0999999642374,1483.3999999999942,1499.0999999642374,1499.0999999642374,1483.3999999999942,1499.0999999642374,1.0,0.0,0.0,,Click Response,2_count,5.0,object-49,temp_dist_trial,3.0,t_s_05_1,travel_shared,neck pillow,5.0,competing,paired,t_s_05_1.jpg,Travel,$${counterbalance_group},,sub-87
Desktop or Laptop,Windows 10,Chrome 138.0.0.0,1366x768,1366x768,Temporal Distance Task,cb_05,51.0,temp_dist_trial,dist_items,qkpkxw,2.0,info,,16.60000000000582,0.0,16.60000000000582,16.60000000000582,0.0,16.60000000000582,1.0,0.0,0.0,,Slider,Slider,4.0,object-56,temp_dist_trial,3.0,t_s_05_1,travel_shared,neck pillow,5.0,competing,paired,t_s_05_1.jpg,Travel,$${counterbalance_group},,sub-87
Desktop or Laptop,Windows 10,Chrome 138.0.0.0,1366x768,1366x768,Temporal Distance Task,cb_05,51.0,temp_dist_trial,dist_items,qkpkxw,2.0,continue,,2170.700000011915,2166.6000000000063,2170.700000011915,2170.700000011915,2166.6000000000063,2170.700000011915,1.0,0.0,0.0,,Click To Continue,Next button,7.0,object-60,temp_dist_trial,3.0,t_s_05_1,travel_shared,neck pillow,5.0,competing,paired,t_s_05_1.jpg,Travel,$${counterbalance_group},,sub-87
Desktop or Laptop,Windows 10,Chrome 138.0.0.0,1366x768,1366x768,Temporal Distance Task,cb_05,51.0,temp_dist_trial,dist_items,qkpkxw,2.0,response,70,1466.8999999999942,2166.6000000000063,2172.700000011915,1466.8999999999942,2166.6000000000063,2172.700000011915,1.0,705.8000000119209,0.0,,Slider,Slider,4.0,object-56,temp_dist_trial,3.0,t_s_05_1,travel_shared,neck pillow,5.0,competing,paired,t_s_05_1.jpg,Travel,$${counterbalance_group},,sub-87
Desktop or Laptop,Windows 10,Chrome 138.0.0.0,1366x768,1366x768,Temporal Distance Task,cb_05,52.0,temp_dist_trial,num_items,zn7si1,1.0,response,2_ITEM,1266.899999999965,1250.1999999999825,1266.899999999965,1266.899999999965,1250.1999999999825,1266.899999999965,1.0,0.0,0.0,,Click Response,2_count,5.0,object-49,temp_dist_trial,4.0,t_s_07_1,travel_shared,phone charger cable,5.0,competing,paired,t_s_07_1.jpg,Travel,$${counterbalance_group},,sub-87
Desktop or Laptop,Windows 10,Chrome 138.0.0.0,1366x768,1366x768,Temporal Distance Task,cb_05,52.0,temp_dist_trial,dist_items,qkpkxw,2.0,info,,16.700000000011638,0.0,16.700000000011638,16.700000000011638,0.0,16.700000000011638,1.0,0.0,0.0,,Slider,Slider,4.0,object-56,temp_dist_trial,4.0,t_s_07_1,travel_shared,phone charger cable,5.0,competing,paired,t_s_07_1.jpg,Travel,$${counterbalance_group},,sub-87
Desktop or Laptop,Windows 10,Chrome 138.0.0.0,1366x768,1366x768,Temporal Distance Task,cb_05,52.0,temp_dist_trial,dist_items,qkpkxw,2.0,continue,,3125.699999988079,3116.6000000000067,3125.699999988079,3125.699999988079,3116.6000000000067,3125.699999988079,1.0,0.0,0.0,,Click To Continue,Next button,7.0,object-60,temp_dist_trial,4.0,t_s_07_1,travel_shared,phone charger cable,5.0,competing,paired,t_s_07_1.jpg,Travel,$${counterbalance_group},,sub-87
Desktop or Laptop,Windows 10,Chrome 138.0.0.0,1366x768,1366x768,Temporal Distance Task,cb_05,52.0,temp_dist_trial,dist_items,qkpkxw,2.0,response,84,2166.5,3116.6000000000067,3133.4000000000237,2166.5,3116.6000000000067,3133.4000000000237,1.0,966.9000000000232,0.0,,Slider,Slider,4.0,object-56,temp_dist_trial,4.0,t_s_07_1,travel_shared,phone charger cable,5.0,competing,paired,t_s_07_1.jpg,Travel,$${counterbalance_group},,sub-87
Desktop or Laptop,Windows 10,Chrome 138.0.0.0,1366x768,1366x768,Temporal Distance Task,cb_05,53.0,temp_dist_trial,num_items,zn7si1,1.0,response,1_ITEM,1176.8999999999942,1166.3999999999942,1176.8999999999942,1176.8999999999942,1166.3999999999942,1176.8999999999942,1.0,0.0,0.0,,Click Response,1_count,3.0,object-46,temp_dist_trial,5.0,t_i_03_1,travel_Iceland,winter jacket,5.0,unique,paired,t_i_03_1.jpg,Travel,$${counterbalance_group},,sub-87
Desktop or Laptop,Windows 10,Chrome 138.0.0.0,1366x768,1366x768,Temporal Distance Task,cb_05,54.0,temp_dist_trial,num_items,zn7si1,1.0,response,2_ITEM,1931.8999999761581,1916.2999999999884,1931.8999999761581,1931.8999999761581,1916.2999999999884,1931.8999999761581,1.0,0.0,0.0,,Click Response,2_count,5.0,object-49,temp_dist_trial,6.0,t_m_10_1,travel_Miami,tanktop,5.0,unique,paired,t_m_10_1.jpg,Travel,$${counterbalance_group},,sub-87
Desktop or Laptop,Windows 10,Chrome 138.0.0.0,1366x768,1366x768,Temporal Distance Task,cb_05,54.0,temp_dist_trial,dist_items,qkpkxw,2.0,info,,16.89999999999418,0.0,16.89999999999418,16.89999999999418,0.0,16.89999999999418,1.0,0.0,0.0,,Slider,Slider,4.0,object-56,temp_dist_trial,6.0,t_m_10_1,travel_Miami,tanktop,5.0,unique,paired,t_m_10_1.jpg,Travel,$${counterbalance_group},,sub-87
Desktop or Laptop,Windows 10,Chrome 138.0.0.0,1366x768,1366x768,Temporal Distance Task,cb_05,54.0,temp_dist_trial,dist_items,qkpkxw,2.0,continue,,4055.2999999642493,4049.300000000018,4055.2999999642493,4055.2999999642493,4049.300000000018,4055.2999999642493,1.0,0.0,0.0,,Click To Continue,Next button,7.0,object-60,temp_dist_trial,6.0,t_m_10_1,travel_Miami,tanktop,5.0,unique,paired,t_m_10_1.jpg,Travel,$${counterbalance_group},,sub-87
Desktop or Laptop,Windows 10,Chrome 138.0.0.0,1366x768,1366x768,Temporal Distance Task,cb_05,54.0,temp_dist_trial,dist_items,qkpkxw,2.0,response,30,1366.5,4049.300000000018,4057.500000011933,1366.5,4049.300000000018,4057.500000011933,1.0,2691.000000011933,0.0,,Slider,Slider,4.0,object-56,temp_dist_trial,6.0,t_m_10_1,travel_Miami,tanktop,5.0,unique,paired,t_m_10_1.jpg,Travel,$${counterbalance_group},,sub-87
Desktop or Laptop,Windows 10,Chrome 138.0.0.0,1366x768,1366x768,Temporal Distance Task,cb_05,55.0,temp_dist_trial,num_items,zn7si1,1.0,response,2_ITEM,2292.8999999999937,2283.7999999999884,2292.8999999999937,2292.8999999999937,2283.7999999999884,2292.8999999999937,1.0,0.0,0.0,,Click Response,2_count,5.0,object-49,temp_dist_trial,7.0,t_s_01_1,travel_shared,fanny pack,5.0,competing,paired,t_s_01_1.jpg,Travel,$${counterbalance_group},,sub-87
Desktop or Laptop,Windows 10,Chrome 138.0.0.0,1366x768,1366x768,Temporal Distance Task,cb_05,55.0,temp_dist_trial,dist_items,qkpkxw,2.0,info,,16.900000000023287,0.0,16.900000000023287,16.900000000023287,0.0,16.900000000023287,1.0,0.0,0.0,,Slider,Slider,4.0,object-56,temp_dist_trial,7.0,t_s_01_1,travel_shared,fanny pack,5.0,competing,paired,t_s_01_1.jpg,Travel,$${counterbalance_group},,sub-87
Desktop or Laptop,Windows 10,Chrome 138.0.0.0,1366x768,1366x768,Temporal Distance Task,cb_05,55.0,temp_dist_trial,dist_items,qkpkxw,2.0,continue,,3166.2999999999884,3149.699999999982,3166.2999999999884,3166.2999999999884,3149.699999999982,3166.2999999999884,1.0,0.0,0.0,,Click To Continue,Next button,7.0,object-60,temp_dist_trial,7.0,t_s_01_1,travel_shared,fanny pack,5.0,competing,paired,t_s_01_1.jpg,Travel,$${counterbalance_group},,sub-87
Desktop or Laptop,Windows 10,Chrome 138.0.0.0,1366x768,1366x768,Temporal Distance Task,cb_05,55.0,temp_dist_trial,dist_items,qkpkxw,2.0,response,28,2233.0999999999767,3149.699999999982,3166.2999999999884,2233.0999999999767,3149.699999999982,3166.2999999999884,1.0,933.2000000000116,0.0,,Slider,Slider,4.0,object-56,temp_dist_trial,7.0,t_s_01_1,travel_shared,fanny pack,5.0,competing,paired,t_s_01_1.jpg,Travel,$${counterbalance_group},,sub-87
Desktop or Laptop,Windows 10,Chrome 138.0.0.0,1366x768,1366x768,Temporal Distance Task,cb_05,56.0,temp_dist_trial,num_items,zn7si1,1.0,response,2_ITEM,1838.499999976164,1833.0,1838.499999976164,1838.499999976164,1833.0,1838.499999976164,1.0,0.0,0.0,,Click Response,2_count,5.0,object-49,temp_dist_trial,8.0,t_i_02_1,travel_Iceland,scarf,5.0,unique,paired,t_i_02_1.jpg,Travel,$${counterbalance_group},,sub-87
Desktop or Laptop,Windows 10,Chrome 138.0.0.0,1366x768,1366x768,Temporal Distance Task,cb_05,56.0,temp_dist_trial,dist_items,qkpkxw,2.0,info,,16.799999999988362,0.0,16.799999999988362,16.799999999988362,0.0,16.799999999988362,1.0,0.0,0.0,,Slider,Slider,4.0,object-56,temp_dist_trial,8.0,t_i_02_1,travel_Iceland,scarf,5.0,unique,paired,t_i_02_1.jpg,Travel,$${counterbalance_group},,sub-87
Desktop or Laptop,Windows 10,Chrome 138.0.0.0,1366x768,1366x768,Temporal Distance Task,cb_05,56.0,temp_dist_trial,dist_items,qkpkxw,2.0,continue,,2714.1000000000063,2699.700000000012,2714.1000000000063,2714.1000000000063,2699.700000000012,2714.1000000000063,1.0,0.0,0.0,,Click To Continue,Next button,7.0,object-60,temp_dist_trial,8.0,t_i_02_1,travel_Iceland,scarf,5.0,unique,paired,t_i_02_1.jpg,Travel,$${counterbalance_group},,sub-87
Desktop or Laptop,Windows 10,Chrome 138.0.0.0,1366x768,1366x768,Temporal Distance Task,cb_05,56.0,temp_dist_trial,dist_items,qkpkxw,2.0,response,68,1916.3999999999944,2699.700000000012,2716.300000000017,1916.3999999999944,2699.700000000012,2716.300000000017,1.0,799.9000000000232,0.0,,Slider,Slider,4.0,object-56,temp_dist_trial,8.0,t_i_02_1,travel_Iceland,scarf,5.0,unique,paired,t_i_02_1.jpg,Travel,$${counterbalance_group},,sub-87
Desktop or Laptop,Windows 10,Chrome 138.0.0.0,1366x768,1366x768,Temporal Distance Task,cb_05,57.0,temp_dist_trial,num_items,zn7si1,1.0,response,1_ITEM,2661.5999999880733,2649.8999999999937,2661.5999999880733,2661.5999999880733,2649.8999999999937,2661.5999999880733,1.0,0.0,0.0,,Click Response,1_count,3.0,object-46,temp_dist_trial,9.0,t_m_12_1,travel_Miami,foldable pail and shovel,5.0,unique,single,t_m_12_1.jpg,Travel,$${counterbalance_group},,sub-87
Desktop or Laptop,Windows 10,Chrome 138.0.0.0,1366x768,1366x768,Temporal Distance Task,cb_05,58.0,temp_dist_trial,num_items,zn7si1,1.0,response,2_ITEM,1256.0999999642372,1249.7999999999886,1256.0999999642372,1256.0999999642372,1249.7999999999886,1256.0999999642372,1.0,0.0,0.0,,Click Response,2_count,5.0,object-49,temp_dist_trial,10.0,t_s_19_1,travel_shared,pajamas,5.0,competing,paired,t_s_19_1.jpg,Travel,$${counterbalance_group},,sub-87
Desktop or Laptop,Windows 10,Chrome 138.0.0.0,1366x768,1366x768,Temporal Distance Task,cb_05,58.0,temp_dist_trial,dist_items,qkpkxw,2.0,info,,16.09999998807325,0.0,16.09999998807325,16.09999998807325,0.0,16.09999998807325,1.0,0.0,0.0,,Slider,Slider,4.0,object-56,temp_dist_trial,10.0,t_s_19_1,travel_shared,pajamas,5.0,competing,paired,t_s_19_1.jpg,Travel,$${counterbalance_group},,sub-87
Desktop or Laptop,Windows 10,Chrome 138.0.0.0,1366x768,1366x768,Temporal Distance Task,cb_05,58.0,temp_dist_trial,dist_items,qkpkxw,2.0,continue,,2091.3999999999937,2083.5,2091.3999999999937,2091.3999999999937,2083.5,2091.3999999999937,1.0,0.0,0.0,,Click To Continue,Next button,7.0,object-60,temp_dist_trial,10.0,t_s_19_1,travel_shared,pajamas,5.0,competing,paired,t_s_19_1.jpg,Travel,$${counterbalance_group},,sub-87
Desktop or Laptop,Windows 10,Chrome 138.0.0.0,1366x768,1366x768,Temporal Distance Task,cb_05,58.0,temp_dist_trial,dist_items,qkpkxw,2.0,response,73,1316.8999999999942,2083.5,2092.4999999642314,1316.8999999999942,2083.5,2092.4999999642314,1.0,775.5999999642372,0.0,,Slider,Slider,4.0,object-56,temp_dist_trial,10.0,t_s_19_1,travel_shared,pajamas,5.0,competing,paired,t_s_19_1.jpg,Travel,$${counterbalance_group},,sub-87
Desktop or Laptop,Windows 10,Chrome 138.0.0.0,1366x768,1366x768,Temporal Distance Task,cb_05,59.0,temp_dist_trial,num_items,zn7si1,1.0,response,1_ITEM,1999.599999988073,1983.2999999999884,1999.599999988073,1999.599999988073,1983.2999999999884,1999.599999988073,1.0,0.0,0.0,,Click Response,1_count,3.0,object-46,temp_dist_trial,11.0,t_s_12_1,travel_shared,clear toiletry bag,5.0,competing,single,t_s_12_1.jpg,Travel,$${counterbalance_group},,sub-87
Desktop or Laptop,Windows 10,Chrome 138.0.0.0,1366x768,1366x768,Temporal Distance Task,cb_05,60.0,temp_dist_trial,num_items,zn7si1,1.0,response,2_ITEM,2237.6000000000063,2232.8999999999937,2237.6000000000063,2237.6000000000063,2232.8999999999937,2237.6000000000063,1.0,0.0,0.0,,Click Response,2_count,5.0,object-49,temp_dist_trial,12.0,t_s_20_1,travel_shared,travel pill case,5.0,competing,paired,t_s_20_1.jpg,Travel,$${counterbalance_group},,sub-87
Desktop or Laptop,Windows 10,Chrome 138.0.0.0,1366x768,1366x768,Temporal Distance Task,cb_05,60.0,temp_dist_trial,dist_items,qkpkxw,2.0,info,,17.0,0.0,17.0,17.0,0.0,17.0,1.0,0.0,0.0,,Slider,Slider,4.0,object-56,temp_dist_trial,12.0,t_s_20_1,travel_shared,travel pill case,5.0,competing,paired,t_s_20_1.jpg,Travel,$${counterbalance_group},,sub-87
Desktop or Laptop,Windows 10,Chrome 138.0.0.0,1366x768,1366x768,Temporal Distance Task,cb_05,60.0,temp_dist_trial,dist_items,qkpkxw,2.0,continue,,2009.200000011944,1999.9000000000235,2009.200000011944,2009.200000011944,1999.9000000000235,2009.200000011944,1.0,0.0,0.0,,Click To Continue,Next button,7.0,object-60,temp_dist_trial,12.0,t_s_20_1,travel_shared,travel pill case,5.0,competing,paired,t_s_20_1.jpg,Travel,$${counterbalance_group},,sub-87
Desktop or Laptop,Windows 10,Chrome 138.0.0.0,1366x768,1366x768,Temporal Distance Task,cb_05,60.0,temp_dist_trial,dist_items,qkpkxw,2.0,response,24,1199.9000000000233,1999.9000000000235,2016.6000000000354,1199.9000000000233,1999.9000000000235,2016.6000000000354,1.0,816.7000000000116,0.0,,Slider,Slider,4.0,object-56,temp_dist_trial,12.0,t_s_20_1,travel_shared,travel pill case,5.0,competing,paired,t_s_20_1.jpg,Travel,$${counterbalance_group},,sub-87
Desktop or Laptop,Windows 10,Chrome 138.0.0.0,1366x768,1366x768,Temporal Distance Task,cb_05,61.0,temp_dist_trial,num_items,zn7si1,1.0,response,1_ITEM,1807.0999999642368,1799.7999999999884,1807.0999999642368,1807.0999999642368,1799.7999999999884,1807.0999999642368,1.0,0.0,0.0,,Click Response,1_count,3.0,object-46,temp_dist_trial,13.0,t_s_21_1,travel_shared,umbrella,5.0,competing,single,t_s_21_1.jpg,Travel,$${counterbalance_group},,sub-87
Desktop or Laptop,Windows 10,Chrome 138.0.0.0,1366x768,1366x768,Temporal Distance Task,cb_05,62.0,temp_dist_trial,num_items,zn7si1,1.0,response,1_ITEM,1333.2000000000114,1316.5,1333.2000000000114,1333.2000000000114,1316.5,1333.2000000000114,1.0,0.0,0.0,,Click Response,1_count,3.0,object-46,temp_dist_trial,14.0,t_m_04_1,travel_Miami,UV jacket,5.0,unique,paired,t_m_04_1.jpg,Travel,$${counterbalance_group},,sub-87
Desktop or Laptop,Windows 10,Chrome 138.0.0.0,1366x768,1366x768,Temporal Distance Task,cb_05,63.0,temp_dist_trial,num_items,zn7si1,1.0,response,1_ITEM,2526.300000011921,2516.5,2526.300000011921,2526.300000011921,2516.5,2526.300000011921,1.0,0.0,0.0,,Click Response,1_count,3.0,object-46,temp_dist_trial,15.0,t_m_14_1,travel_Miami,swim goggles,5.0,unique,paired,t_m_14_1.jpg,Travel,$${counterbalance_group},,sub-87
Desktop or Laptop,Windows 10,Chrome 138.0.0.0,1366x768,1366x768,Temporal Distance Task,cb_05,64.0,temp_dist_trial,num_items,zn7si1,1.0,response,2_ITEM,1303.800000011921,1299.7000000000114,1303.800000011921,1303.800000011921,1299.7000000000114,1303.800000011921,1.0,0.0,0.0,,Click Response,2_count,5.0,object-49,temp_dist_trial,16.0,t_i_17_1,travel_Iceland,binoculars,5.0,unique,paired,t_i_17_1.jpg,Travel,$${counterbalance_group},,sub-87
Desktop or Laptop,Windows 10,Chrome 138.0.0.0,1366x768,1366x768,Temporal Distance Task,cb_05,64.0,temp_dist_trial,dist_items,qkpkxw,2.0,info,,16.19999998807907,0.0,16.19999998807907,16.19999998807907,0.0,16.19999998807907,1.0,0.0,0.0,,Slider,Slider,4.0,object-56,temp_dist_trial,16.0,t_i_17_1,travel_Iceland,binoculars,5.0,unique,paired,t_i_17_1.jpg,Travel,$${counterbalance_group},,sub-87
Desktop or Laptop,Windows 10,Chrome 138.0.0.0,1366x768,1366x768,Temporal Distance Task,cb_05,64.0,temp_dist_trial,dist_items,qkpkxw,2.0,continue,,2049.3000000000466,2032.9000000000235,2049.3000000000466,2049.3000000000466,2032.9000000000235,2049.3000000000466,1.0,0.0,0.0,,Click To Continue,Next button,7.0,object-60,temp_dist_trial,16.0,t_i_17_1,travel_Iceland,binoculars,5.0,unique,paired,t_i_17_1.jpg,Travel,$${counterbalance_group},,sub-87
Desktop or Laptop,Windows 10,Chrome 138.0.0.0,1366x768,1366x768,Temporal Distance Task,cb_05,64.0,temp_dist_trial,dist_items,qkpkxw,2.0,response,74,1133.2000000000114,2032.9000000000235,2049.3000000000466,1133.2000000000114,2032.9000000000235,2049.3000000000466,1.0,916.1000000000348,0.0,,Slider,Slider,4.0,object-56,temp_dist_trial,16.0,t_i_17_1,travel_Iceland,binoculars,5.0,unique,paired,t_i_17_1.jpg,Travel,$${counterbalance_group},,sub-87
Desktop or Laptop,Windows 10,Chrome 138.0.0.0,1366x768,1366x768,Temporal Distance Task,cb_05,65.0,temp_dist_trial,num_items,zn7si1,1.0,response,1_ITEM,1533.4000000000233,1516.7999999999884,1533.4000000000233,1533.4000000000233,1516.7999999999884,1533.4000000000233,1.0,0.0,0.0,,Click Response,1_count,3.0,object-46,temp_dist_trial,17.0,t_s_18_1,travel_shared,first aid kit,5.0,competing,paired,t_s_18_1.jpg,Travel,$${counterbalance_group},,sub-87
Desktop or Laptop,Windows 10,Chrome 138.0.0.0,1366x768,1366x768,Temporal Distance Task,cb_05,66.0,temp_dist_trial,num_items,zn7si1,1.0,response,2_ITEM,2373.600000011909,2366.599999999977,2373.600000011909,2373.600000011909,2366.599999999977,2373.600000011909,1.0,0.0,0.0,,Click Response,2_count,5.0,object-49,temp_dist_trial,18.0,t_i_11_1,travel_Iceland,headlamp,5.0,unique,paired,t_i_11_1.jpg,Travel,$${counterbalance_group},,sub-87
Desktop or Laptop,Windows 10,Chrome 138.0.0.0,1366x768,1366x768,Temporal Distance Task,cb_05,66.0,temp_dist_trial,dist_items,qkpkxw,2.0,info,,16.299999999988362,0.0,16.299999999988362,16.299999999988362,0.0,16.299999999988362,1.0,0.0,0.0,,Slider,Slider,4.0,object-56,temp_dist_trial,18.0,t_i_11_1,travel_Iceland,headlamp,5.0,unique,paired,t_i_11_1.jpg,Travel,$${counterbalance_group},,sub-87
Desktop or Laptop,Windows 10,Chrome 138.0.0.0,1366x768,1366x768,Temporal Distance Task,cb_05,66.0,temp_dist_trial,dist_items,qkpkxw,2.0,continue,,2589.0,2583.200000000012,2589.0,2589.0,2583.200000000012,2589.0,1.0,0.0,0.0,,Click To Continue,Next button,7.0,object-60,temp_dist_trial,18.0,t_i_11_1,travel_Iceland,headlamp,5.0,unique,paired,t_i_11_1.jpg,Travel,$${counterbalance_group},,sub-87
Desktop or Laptop,Windows 10,Chrome 138.0.0.0,1366x768,1366x768,Temporal Distance Task,cb_05,66.0,temp_dist_trial,dist_items,qkpkxw,2.0,response,81,1466.9000000000233,2583.200000000012,2590.399999976158,1466.9000000000233,2583.200000000012,2590.399999976158,1.0,1123.4999999761349,0.0,,Slider,Slider,4.0,object-56,temp_dist_trial,18.0,t_i_11_1,travel_Iceland,headlamp,5.0,unique,paired,t_i_11_1.jpg,Travel,$${counterbalance_group},,sub-87
Desktop or Laptop,Windows 10,Chrome 138.0.0.0,1366x768,1366x768,Temporal Distance Task,cb_05,67.0,temp_dist_trial,num_items,zn7si1,1.0,response,1_ITEM,1364.2999999999886,1350.2999999999886,1364.2999999999886,1364.2999999999886,1350.2999999999886,1364.2999999999886,1.0,0.0,0.0,,Click Response,1_count,3.0,object-46,temp_dist_trial,19.0,t_s_04_1,travel_shared,instant camera,5.0,competing,paired,t_s_04_1.jpg,Travel,$${counterbalance_group},,sub-87
Desktop or Laptop,Windows 10,Chrome 138.0.0.0,1366x768,1366x768,Temporal Distance Task,cb_05,68.0,temp_dist_trial,num_items,zn7si1,1.0,response,1_ITEM,933.3999999999068,916.6999999999533,933.3999999999068,933.3999999999068,916.6999999999533,933.3999999999068,1.0,0.0,0.0,,Click Response,1_count,3.0,object-46,temp_dist_trial,20.0,t_i_12_1,travel_Iceland,tent,5.0,unique,paired,t_i_12_1.jpg,Travel,$${counterbalance_group},,sub-87
Desktop or Laptop,Windows 10,Chrome 138.0.0.0,1366x768,1366x768,Temporal Distance Task,cb_05,69.0,temp_dist_trial,num_items,zn7si1,1.0,response,1_ITEM,1517.0,1500.2999999999884,1517.0,1517.0,1500.2999999999884,1517.0,1.0,0.0,0.0,,Click Response,1_count,3.0,object-46,temp_dist_trial,21.0,t_i_07_1,travel_Iceland,hiking backpack,5.0,unique,paired,t_i_07_1.jpg,Travel,$${counterbalance_group},,sub-87
Desktop or Laptop,Windows 10,Chrome 138.0.0.0,1366x768,1366x768,Temporal Distance Task,cb_05,70.0,temp_dist_trial,num_items,zn7si1,1.0,response,1_ITEM,1214.300000011921,1199.9000000000233,1214.300000011921,1214.300000011921,1199.9000000000233,1214.300000011921,1.0,0.0,0.0,,Click Response,1_count,3.0,object-46,temp_dist_trial,22.0,t_m_05_1,travel_Miami,sunscreen,5.0,unique,paired,t_m_05_1.jpg,Travel,$${counterbalance_group},,sub-87
Desktop or Laptop,Windows 10,Chrome 138.0.0.0,1366x768,1366x768,Temporal Distance Task,cb_05,71.0,temp_dist_trial,num_items,zn7si1,1.0,response,2_ITEM,1150.0999999999767,1133.5,1150.0999999999767,1150.0999999999767,1133.5,1150.0999999999767,1.0,0.0,0.0,,Click Response,2_count,5.0,object-49,temp_dist_trial,23.0,t_i_01_1,travel_Iceland,gloves,5.0,unique,paired,t_i_01_1.jpg,Travel,$${counterbalance_group},,sub-87
Desktop or Laptop,Windows 10,Chrome 138.0.0.0,1366x768,1366x768,Temporal Distance Task,cb_05,71.0,temp_dist_trial,dist_items,qkpkxw,2.0,info,,16.5,0.0,16.5,16.5,0.0,16.5,1.0,0.0,0.0,,Slider,Slider,4.0,object-56,temp_dist_trial,23.0,t_i_01_1,travel_Iceland,gloves,5.0,unique,paired,t_i_01_1.jpg,Travel,$${counterbalance_group},,sub-87
Desktop or Laptop,Windows 10,Chrome 138.0.0.0,1366x768,1366x768,Temporal Distance Task,cb_05,71.0,temp_dist_trial,dist_items,qkpkxw,2.0,continue,,1939.6999999880786,1933.4000000000235,1939.6999999880786,1939.6999999880786,1933.4000000000235,1939.6999999880786,1.0,0.0,0.0,,Click To Continue,Next button,7.0,object-60,temp_dist_trial,23.0,t_i_01_1,travel_Iceland,gloves,5.0,unique,paired,t_i_01_1.jpg,Travel,$${counterbalance_group},,sub-87
Desktop or Laptop,Windows 10,Chrome 138.0.0.0,1366x768,1366x768,Temporal Distance Task,cb_05,71.0,temp_dist_trial,dist_items,qkpkxw,2.0,response,79,1216.7999999999886,1933.4000000000235,1940.8999999761581,1216.7999999999886,1933.4000000000235,1940.8999999761581,1.0,724.0999999761698,0.0,,Slider,Slider,4.0,object-56,temp_dist_trial,23.0,t_i_01_1,travel_Iceland,gloves,5.0,unique,paired,t_i_01_1.jpg,Travel,$${counterbalance_group},,sub-87
Desktop or Laptop,Windows 10,Chrome 138.0.0.0,1366x768,1366x768,Temporal Distance Task,cb_05,72.0,temp_dist_trial,num_items,zn7si1,1.0,response,1_ITEM,1029.0999999999767,1016.5999999999768,1029.0999999999767,1029.0999999999767,1016.5999999999768,1029.0999999999767,1.0,0.0,0.0,,Click Response,1_count,3.0,object-46,temp_dist_trial,24.0,t_m_17_1,travel_Miami,water gun,5.0,unique,single,t_m_17_1.jpg,Travel,$${counterbalance_group},,sub-87
Desktop or Laptop,Windows 10,Chrome 138.0.0.0,1366x768,1366x768,Temporal Distance Task,cb_05,73.0,temp_dist_trial,num_items,zn7si1,1.0,response,2_ITEM,1257.0999999881026,1249.9000000000233,1257.0999999881026,1257.0999999881026,1249.9000000000233,1257.0999999881026,1.0,0.0,0.0,,Click Response,2_count,5.0,object-49,temp_dist_trial,25.0,t_s_03_1,travel_shared,portable charger,5.0,competing,single,t_s_03_1.jpg,Travel,$${counterbalance_group},,sub-87
Desktop or Laptop,Windows 10,Chrome 138.0.0.0,1366x768,1366x768,Temporal Distance Task,cb_05,73.0,temp_dist_trial,dist_items,qkpkxw,2.0,info,,16.099999964237213,0.0,16.099999964237213,16.099999964237213,0.0,16.099999964237213,1.0,0.0,0.0,,Slider,Slider,4.0,object-56,temp_dist_trial,25.0,t_s_03_1,travel_shared,portable charger,5.0,competing,single,t_s_03_1.jpg,Travel,$${counterbalance_group},,sub-87
Desktop or Laptop,Windows 10,Chrome 138.0.0.0,1366x768,1366x768,Temporal Distance Task,cb_05,73.0,temp_dist_trial,dist_items,qkpkxw,2.0,continue,,3236.800000011921,3232.9000000000237,3236.800000011921,3236.800000011921,3232.9000000000237,3236.800000011921,1.0,0.0,0.0,,Click To Continue,Next button,7.0,object-60,temp_dist_trial,25.0,t_s_03_1,travel_shared,portable charger,5.0,competing,single,t_s_03_1.jpg,Travel,$${counterbalance_group},,sub-87
Desktop or Laptop,Windows 10,Chrome 138.0.0.0,1366x768,1366x768,Temporal Distance Task,cb_05,73.0,temp_dist_trial,dist_items,qkpkxw,2.0,response,57,1116.5999999999767,3232.9000000000237,3239.199999988079,1116.5999999999767,3232.9000000000237,3239.199999988079,1.0,2122.5999999881024,0.0,,Slider,Slider,4.0,object-56,temp_dist_trial,25.0,t_s_03_1,travel_shared,portable charger,5.0,competing,single,t_s_03_1.jpg,Travel,$${counterbalance_group},,sub-87
Desktop or Laptop,Windows 10,Chrome 138.0.0.0,1366x768,1366x768,Temporal Distance Task,cb_05,74.0,temp_dist_trial,num_items,zn7si1,1.0,response,2_ITEM,1611.0999999999767,1600.0999999999767,1611.0999999999767,1611.0999999999767,1600.0999999999767,1611.0999999999767,1.0,0.0,0.0,,Click Response,2_count,5.0,object-49,temp_dist_trial,26.0,t_i_06_1,travel_Iceland,knit hat,5.0,unique,paired,t_i_06_1.jpg,Travel,$${counterbalance_group},,sub-87
Desktop or Laptop,Windows 10,Chrome 138.0.0.0,1366x768,1366x768,Temporal Distance Task,cb_05,74.0,temp_dist_trial,dist_items,qkpkxw,2.0,info,,16.799999999988362,0.0,16.799999999988362,16.799999999988362,0.0,16.799999999988362,1.0,0.0,0.0,,Slider,Slider,4.0,object-56,temp_dist_trial,26.0,t_i_06_1,travel_Iceland,knit hat,5.0,unique,paired,t_i_06_1.jpg,Travel,$${counterbalance_group},,sub-87
Desktop or Laptop,Windows 10,Chrome 138.0.0.0,1366x768,1366x768,Temporal Distance Task,cb_05,74.0,temp_dist_trial,dist_items,qkpkxw,2.0,continue,,2047.7999999761814,2033.1000000000354,2047.7999999761814,2047.7999999761814,2033.1000000000354,2047.7999999761814,1.0,0.0,0.0,,Click To Continue,Next button,7.0,object-60,temp_dist_trial,26.0,t_i_06_1,travel_Iceland,knit hat,5.0,unique,paired,t_i_06_1.jpg,Travel,$${counterbalance_group},,sub-87
Desktop or Laptop,Windows 10,Chrome 138.0.0.0,1366x768,1366x768,Temporal Distance Task,cb_05,74.0,temp_dist_trial,dist_items,qkpkxw,2.0,response,39,1050.0,2033.1000000000354,2048.7000000119438,1050.0,2033.1000000000354,2048.7000000119438,1.0,998.7000000119444,0.0,,Slider,Slider,4.0,object-56,temp_dist_trial,26.0,t_i_06_1,travel_Iceland,knit hat,5.0,unique,paired,t_i_06_1.jpg,Travel,$${counterbalance_group},,sub-87
Desktop or Laptop,Windows 10,Chrome 138.0.0.0,1366x768,1366x768,Temporal Distance Task,cb_05,75.0,temp_dist_trial,num_items,zn7si1,1.0,response,1_ITEM,1545.1000000119093,1533.3999999999646,1545.1000000119093,1545.1000000119093,1533.3999999999646,1545.1000000119093,1.0,0.0,0.0,,Click Response,1_count,3.0,object-46,temp_dist_trial,27.0,t_m_01_1,travel_Miami,sandals,5.0,unique,single,t_m_01_1.jpg,Travel,$${counterbalance_group},,sub-87
Desktop or Laptop,Windows 10,Chrome 138.0.0.0,1366x768,1366x768,Temporal Distance Task,cb_05,76.0,temp_dist_trial,num_items,zn7si1,1.0,response,2_ITEM,1770.7000000119442,1766.2000000000116,1770.7000000119442,1770.7000000119442,1766.2000000000116,1770.7000000119442,1.0,0.0,0.0,,Click Response,2_count,5.0,object-49,temp_dist_trial,28.0,t_s_15_1,travel_shared,luggage tag,5.0,competing,paired,t_s_15_1.jpg,Travel,$${counterbalance_group},,sub-87
Desktop or Laptop,Windows 10,Chrome 138.0.0.0,1366x768,1366x768,Temporal Distance Task,cb_05,76.0,temp_dist_trial,dist_items,qkpkxw,2.0,info,,7.299999964248855,0.0,7.299999964248855,7.299999964248855,0.0,7.299999964248855,1.0,0.0,0.0,,Slider,Slider,4.0,object-56,temp_dist_trial,28.0,t_s_15_1,travel_shared,luggage tag,5.0,competing,paired,t_s_15_1.jpg,Travel,$${counterbalance_group},,sub-87
Desktop or Laptop,Windows 10,Chrome 138.0.0.0,1366x768,1366x768,Temporal Distance Task,cb_05,76.0,temp_dist_trial,dist_items,qkpkxw,2.0,continue,,3132.000000011933,3116.600000000035,3132.000000011933,3132.000000011933,3116.600000000035,3132.000000011933,1.0,0.0,0.0,,Click To Continue,Next button,7.0,object-60,temp_dist_trial,28.0,t_s_15_1,travel_shared,luggage tag,5.0,competing,paired,t_s_15_1.jpg,Travel,$${counterbalance_group},,sub-87
Desktop or Laptop,Windows 10,Chrome 138.0.0.0,1366x768,1366x768,Temporal Distance Task,cb_05,76.0,temp_dist_trial,dist_items,qkpkxw,2.0,response,30,2333.200000000012,3116.600000000035,3133.100000000035,2333.200000000012,3116.600000000035,3133.100000000035,1.0,799.9000000000232,0.0,,Slider,Slider,4.0,object-56,temp_dist_trial,28.0,t_s_15_1,travel_shared,luggage tag,5.0,competing,paired,t_s_15_1.jpg,Travel,$${counterbalance_group},,sub-87
Desktop or Laptop,Windows 10,Chrome 138.0.0.0,1366x768,1366x768,Temporal Distance Task,cb_05,77.0,temp_dist_trial,num_items,zn7si1,1.0,response,1_ITEM,2110.5999999999767,2100.0999999999767,2110.5999999999767,2110.5999999999767,2100.0999999999767,2110.5999999999767,1.0,0.0,0.0,,Click Response,1_count,3.0,object-46,temp_dist_trial,29.0,t_s_02_1,travel_shared,water bottle,5.0,competing,single,t_s_02_1.jpg,Travel,$${counterbalance_group},,sub-87
Desktop or Laptop,Windows 10,Chrome 138.0.0.0,1366x768,1366x768,Temporal Distance Task,cb_05,78.0,temp_dist_trial,num_items,zn7si1,1.0,response,2_ITEM,1799.0,1783.0,1799.0,1799.0,1783.0,1799.0,1.0,0.0,0.0,,Click Response,2_count,5.0,object-49,temp_dist_trial,30.0,t_m_11_1,travel_Miami,collapsible beach chair,5.0,unique,paired,t_m_11_1.jpg,Travel,$${counterbalance_group},,sub-87
Desktop or Laptop,Windows 10,Chrome 138.0.0.0,1366x768,1366x768,Temporal Distance Task,cb_05,78.0,temp_dist_trial,dist_items,qkpkxw,2.0,info,,16.800000000046566,0.0,16.800000000046566,16.800000000046566,0.0,16.800000000046566,1.0,0.0,0.0,,Slider,Slider,4.0,object-56,temp_dist_trial,30.0,t_m_11_1,travel_Miami,collapsible beach chair,5.0,unique,paired,t_m_11_1.jpg,Travel,$${counterbalance_group},,sub-87
Desktop or Laptop,Windows 10,Chrome 138.0.0.0,1366x768,1366x768,Temporal Distance Task,cb_05,78.0,temp_dist_trial,dist_items,qkpkxw,2.0,continue,,3939.4999999761353,3933.0999999999767,3939.4999999761353,3939.4999999761353,3933.0999999999767,3939.4999999761353,1.0,0.0,0.0,,Click To Continue,Next button,7.0,object-60,temp_dist_trial,30.0,t_m_11_1,travel_Miami,collapsible beach chair,5.0,unique,paired,t_m_11_1.jpg,Travel,$${counterbalance_group},,sub-87
Desktop or Laptop,Windows 10,Chrome 138.0.0.0,1366x768,1366x768,Temporal Distance Task,cb_05,78.0,temp_dist_trial,dist_items,qkpkxw,2.0,response,67,2832.699999999953,3933.0999999999767,3940.9999999761353,2832.699999999953,3933.0999999999767,3940.9999999761353,1.0,1108.2999999761814,0.0,,Slider,Slider,4.0,object-56,temp_dist_trial,30.0,t_m_11_1,travel_Miami,collapsible beach chair,5.0,unique,paired,t_m_11_1.jpg,Travel,$${counterbalance_group},,sub-87
Desktop or Laptop,Windows 10,Chrome 138.0.0.0,1366x768,1366x768,Temporal Distance Task,cb_05,79.0,temp_dist_trial,num_items,zn7si1,1.0,response,2_ITEM,2282.9000000000233,2266.200000000012,2282.9000000000233,2282.9000000000233,2266.200000000012,2282.9000000000233,1.0,0.0,0.0,,Click Response,2_count,5.0,object-49,temp_dist_trial,31.0,t_s_22_1,travel_shared,belt,5.0,competing,paired,t_s_22_1.jpg,Travel,$${counterbalance_group},,sub-87
Desktop or Laptop,Windows 10,Chrome 138.0.0.0,1366x768,1366x768,Temporal Distance Task,cb_05,79.0,temp_dist_trial,dist_items,qkpkxw,2.0,info,,16.599999999976713,0.0,16.599999999976713,16.599999999976713,0.0,16.599999999976713,1.0,0.0,0.0,,Slider,Slider,4.0,object-56,temp_dist_trial,31.0,t_s_22_1,travel_shared,belt,5.0,competing,paired,t_s_22_1.jpg,Travel,$${counterbalance_group},,sub-87
Desktop or Laptop,Windows 10,Chrome 138.0.0.0,1366x768,1366x768,Temporal Distance Task,cb_05,79.0,temp_dist_trial,dist_items,qkpkxw,2.0,continue,,1616.8000000000463,1600.1000000000354,1616.8000000000463,1616.8000000000463,1600.1000000000354,1616.8000000000463,1.0,0.0,0.0,,Click To Continue,Next button,7.0,object-60,temp_dist_trial,31.0,t_s_22_1,travel_shared,belt,5.0,competing,paired,t_s_22_1.jpg,Travel,$${counterbalance_group},,sub-87
Desktop or Laptop,Windows 10,Chrome 138.0.0.0,1366x768,1366x768,Temporal Distance Task,cb_05,79.0,temp_dist_trial,dist_items,qkpkxw,2.0,response,78,967.0,1600.1000000000354,1616.8000000000463,967.0,1600.1000000000354,1616.8000000000463,1.0,649.8000000000466,0.0,,Slider,Slider,4.0,object-56,temp_dist_trial,31.0,t_s_22_1,travel_shared,belt,5.0,competing,paired,t_s_22_1.jpg,Travel,$${counterbalance_group},,sub-87
Desktop or Laptop,Windows 10,Chrome 138.0.0.0,1366x768,1366x768,Temporal Distance Task,cb_05,80.0,temp_dist_trial,num_items,zn7si1,1.0,response,2_ITEM,1839.6999999761465,1833.3999999999646,1839.6999999761465,1839.6999999761465,1833.3999999999646,1839.6999999761465,1.0,0.0,0.0,,Click Response,2_count,5.0,object-49,temp_dist_trial,32.0,t_s_24_1,travel_shared,ear plugs,5.0,competing,paired,t_s_24_1.jpg,Travel,$${counterbalance_group},,sub-87
Desktop or Laptop,Windows 10,Chrome 138.0.0.0,1366x768,1366x768,Temporal Distance Task,cb_05,80.0,temp_dist_trial,dist_items,qkpkxw,2.0,info,,16.299999999988362,0.0,16.299999999988362,16.299999999988362,0.0,16.299999999988362,1.0,0.0,0.0,,Slider,Slider,4.0,object-56,temp_dist_trial,32.0,t_s_24_1,travel_shared,ear plugs,5.0,competing,paired,t_s_24_1.jpg,Travel,$${counterbalance_group},,sub-87
Desktop or Laptop,Windows 10,Chrome 138.0.0.0,1366x768,1366x768,Temporal Distance Task,cb_05,80.0,temp_dist_trial,dist_items,qkpkxw,2.0,continue,,2060.5000000119326,2050.200000000012,2060.5000000119326,2060.5000000119326,2050.200000000012,2060.5000000119326,1.0,0.0,0.0,,Click To Continue,Next button,7.0,object-60,temp_dist_trial,32.0,t_s_24_1,travel_shared,ear plugs,5.0,competing,paired,t_s_24_1.jpg,Travel,$${counterbalance_group},,sub-87
Desktop or Laptop,Windows 10,Chrome 138.0.0.0,1366x768,1366x768,Temporal Distance Task,cb_05,80.0,temp_dist_trial,dist_items,qkpkxw,2.0,response,22,1200.2000000000114,2050.200000000012,2061.8999999880907,1200.2000000000114,2050.200000000012,2061.8999999880907,1.0,861.6999999880791,0.0,,Slider,Slider,4.0,object-56,temp_dist_trial,32.0,t_s_24_1,travel_shared,ear plugs,5.0,competing,paired,t_s_24_1.jpg,Travel,$${counterbalance_group},,sub-87
Desktop or Laptop,Windows 10,Chrome 138.0.0.0,1366x768,1366x768,Temporal Distance Task,cb_05,81.0,temp_dist_trial,num_items,zn7si1,1.0,response,1_ITEM,1345.0999999642372,1333.2999999999886,1345.0999999642372,1345.0999999642372,1333.2999999999886,1345.0999999642372,1.0,0.0,0.0,,Click Response,1_count,3.0,object-46,temp_dist_trial,33.0,t_s_09_1,travel_shared,wallet,5.0,competing,single,t_s_09_1.jpg,Travel,$${counterbalance_group},,sub-87
Desktop or Laptop,Windows 10,Chrome 138.0.0.0,1366x768,1366x768,Temporal Distance Task,cb_05,82.0,temp_dist_trial,num_items,zn7si1,1.0,response,1_ITEM,956.2999999642489,949.7000000000116,956.2999999642489,956.2999999642489,949.7000000000116,956.2999999642489,1.0,0.0,0.0,,Click Response,1_count,3.0,object-46,temp_dist_trial,34.0,t_i_15_1,travel_Iceland,compass,5.0,unique,single,t_i_15_1.jpg,Travel,$${counterbalance_group},,sub-87
Desktop or Laptop,Windows 10,Chrome 138.0.0.0,1366x768,1366x768,Temporal Distance Task,cb_05,83.0,temp_dist_trial,num_items,zn7si1,1.0,response,1_ITEM,1843.1000000119093,1833.2999999999884,1843.1000000119093,1843.1000000119093,1833.2999999999884,1843.1000000119093,1.0,0.0,0.0,,Click Response,1_count,3.0,object-46,temp_dist_trial,35.0,t_m_13_1,travel_Miami,floatie,5.0,unique,paired,t_m_13_1.jpg,Travel,$${counterbalance_group},,sub-87
Desktop or Laptop,Windows 10,Chrome 138.0.0.0,1366x768,1366x768,Temporal Distance Task,cb_05,84.0,temp_dist_trial,num_items,zn7si1,1.0,response,1_ITEM,1001.2999999880556,999.5999999999768,1001.2999999880556,1001.2999999880556,999.5999999999768,1001.2999999880556,1.0,0.0,0.0,,Click Response,1_count,3.0,object-46,temp_dist_trial,36.0,t_i_05_1,travel_Iceland,hiking boots,5.0,unique,single,t_i_05_1.jpg,Travel,$${counterbalance_group},,sub-87
Desktop or Laptop,Windows 10,Chrome 138.0.0.0,1366x768,1366x768,Temporal Distance Task,cb_05,85.0,temp_dist_trial,num_items,zn7si1,1.0,response,1_ITEM,1842.299999988056,1833.2999999999884,1842.299999988056,1842.299999988056,1833.2999999999884,1842.299999988056,1.0,0.0,0.0,,Click Response,1_count,3.0,object-46,temp_dist_trial,37.0,t_i_09_1,travel_Iceland,ear muffs,5.0,unique,single,t_i_09_1.jpg,Travel,$${counterbalance_group},,sub-87
Desktop or Laptop,Windows 10,Chrome 138.0.0.0,1366x768,1366x768,Temporal Distance Task,cb_05,86.0,temp_dist_trial,num_items,zn7si1,1.0,response,2_ITEM,2957.49999996426,2949.9000000000237,2957.49999996426,2957.49999996426,2949.9000000000237,2957.49999996426,1.0,0.0,0.0,,Click Response,2_count,5.0,object-49,temp_dist_trial,38.0,t_s_08_1,travel_shared,hand lotion,5.0,competing,paired,t_s_08_1.jpg,Travel,$${counterbalance_group},,sub-87
Desktop or Laptop,Windows 10,Chrome 138.0.0.0,1366x768,1366x768,Temporal Distance Task,cb_05,86.0,temp_dist_trial,dist_items,qkpkxw,2.0,info,,16.700000000011638,0.0,16.700000000011638,16.700000000011638,0.0,16.700000000011638,1.0,0.0,0.0,,Slider,Slider,4.0,object-56,temp_dist_trial,38.0,t_s_08_1,travel_shared,hand lotion,5.0,competing,paired,t_s_08_1.jpg,Travel,$${counterbalance_group},,sub-87
Desktop or Laptop,Windows 10,Chrome 138.0.0.0,1366x768,1366x768,Temporal Distance Task,cb_05,86.0,temp_dist_trial,dist_items,qkpkxw,2.0,continue,,4358.5,4349.900000000023,4358.5,4358.5,4349.900000000023,4358.5,1.0,0.0,0.0,,Click To Continue,Next button,7.0,object-60,temp_dist_trial,38.0,t_s_08_1,travel_shared,hand lotion,5.0,competing,paired,t_s_08_1.jpg,Travel,$${counterbalance_group},,sub-87
Desktop or Laptop,Windows 10,Chrome 138.0.0.0,1366x768,1366x768,Temporal Distance Task,cb_05,86.0,temp_dist_trial,dist_items,qkpkxw,2.0,response,75,3616.5,4349.900000000023,4360.0,3616.5,4349.900000000023,4360.0,1.0,743.5,0.0,,Slider,Slider,4.0,object-56,temp_dist_trial,38.0,t_s_08_1,travel_shared,hand lotion,5.0,competing,paired,t_s_08_1.jpg,Travel,$${counterbalance_group},,sub-87
Desktop or Laptop,Windows 10,Chrome 138.0.0.0,1366x768,1366x768,Temporal Distance Task,cb_05,87.0,temp_dist_trial,num_items,zn7si1,1.0,response,2_ITEM,1591.0999999999767,1583.0999999999767,1591.0999999999767,1591.0999999999767,1583.0999999999767,1591.0999999999767,1.0,0.0,0.0,,Click Response,2_count,5.0,object-49,temp_dist_trial,39.0,t_s_11_1,travel_shared,eye mask,5.0,competing,paired,t_s_11_1.jpg,Travel,$${counterbalance_group},,sub-87
Desktop or Laptop,Windows 10,Chrome 138.0.0.0,1366x768,1366x768,Temporal Distance Task,cb_05,87.0,temp_dist_trial,dist_items,qkpkxw,2.0,info,,16.0,0.0,16.0,16.0,0.0,16.0,1.0,0.0,0.0,,Slider,Slider,4.0,object-56,temp_dist_trial,39.0,t_s_11_1,travel_shared,eye mask,5.0,competing,paired,t_s_11_1.jpg,Travel,$${counterbalance_group},,sub-87
Desktop or Laptop,Windows 10,Chrome 138.0.0.0,1366x768,1366x768,Temporal Distance Task,cb_05,87.0,temp_dist_trial,dist_items,qkpkxw,2.0,continue,,3513.599999964237,3499.7999999999884,3513.599999964237,3513.599999964237,3499.7999999999884,3513.599999964237,1.0,0.0,0.0,,Click To Continue,Next button,7.0,object-60,temp_dist_trial,39.0,t_s_11_1,travel_shared,eye mask,5.0,competing,paired,t_s_11_1.jpg,Travel,$${counterbalance_group},,sub-87
Desktop or Laptop,Windows 10,Chrome 138.0.0.0,1366x768,1366x768,Temporal Distance Task,cb_05,87.0,temp_dist_trial,dist_items,qkpkxw,2.0,response,76,2299.9000000000233,3499.7999999999884,3516.399999999965,2299.9000000000233,3499.7999999999884,3516.399999999965,1.0,1216.4999999999418,0.0,,Slider,Slider,4.0,object-56,temp_dist_trial,39.0,t_s_11_1,travel_shared,eye mask,5.0,competing,paired,t_s_11_1.jpg,Travel,$${counterbalance_group},,sub-87
Desktop or Laptop,Windows 10,Chrome 138.0.0.0,1366x768,1366x768,Temporal Distance Task,cb_05,88.0,temp_dist_trial,num_items,zn7si1,1.0,response,1_ITEM,2212.5999999761702,2200.0,2212.5999999761702,2212.5999999761702,2200.0,2212.5999999761702,1.0,0.0,0.0,,Click Response,1_count,3.0,object-46,temp_dist_trial,40.0,t_m_02_1,travel_Miami,t-shirt,5.0,unique,single,t_m_02_1.jpg,Travel,$${counterbalance_group},,sub-87
Desktop or Laptop,Windows 10,Chrome 138.0.0.0,1366x768,1366x768,Temporal Distance Task,cb_05,89.0,temp_dist_trial,num_items,zn7si1,1.0,response,1_ITEM,2393.8999999642256,2383.2999999999884,2393.8999999642256,2393.8999999642256,2383.2999999999884,2393.8999999642256,1.0,0.0,0.0,,Click Response,1_count,3.0,object-46,temp_dist_trial,41.0,t_s_23_1,travel_shared,ball cap,5.0,competing,paired,t_s_23_1.jpg,Travel,$${counterbalance_group},,sub-87
Desktop or Laptop,Windows 10,Chrome 138.0.0.0,1366x768,1366x768,Temporal Distance Task,cb_05,90.0,temp_dist_trial,num_items,zn7si1,1.0,response,2_ITEM,1522.0,1516.2000000000116,1522.0,1522.0,1516.2000000000116,1522.0,1.0,0.0,0.0,,Click Response,2_count,5.0,object-49,temp_dist_trial,42.0,t_s_13_1,travel_shared,contact lens case,5.0,competing,paired,t_s_13_1.jpg,Travel,$${counterbalance_group},,sub-87
Desktop or Laptop,Windows 10,Chrome 138.0.0.0,1366x768,1366x768,Temporal Distance Task,cb_05,90.0,temp_dist_trial,dist_items,qkpkxw,2.0,info,,16.299999976181425,0.0,16.299999976181425,16.299999976181425,0.0,16.299999976181425,1.0,0.0,0.0,,Slider,Slider,4.0,object-56,temp_dist_trial,42.0,t_s_13_1,travel_shared,contact lens case,5.0,competing,paired,t_s_13_1.jpg,Travel,$${counterbalance_group},,sub-87
Desktop or Laptop,Windows 10,Chrome 138.0.0.0,1366x768,1366x768,Temporal Distance Task,cb_05,90.0,temp_dist_trial,dist_items,qkpkxw,2.0,continue,,2423.7000000119438,2416.5,2423.7000000119438,2423.7000000119438,2416.5,2423.7000000119438,1.0,0.0,0.0,,Click To Continue,Next button,7.0,object-60,temp_dist_trial,42.0,t_s_13_1,travel_shared,contact lens case,5.0,competing,paired,t_s_13_1.jpg,Travel,$${counterbalance_group},,sub-87
Desktop or Laptop,Windows 10,Chrome 138.0.0.0,1366x768,1366x768,Temporal Distance Task,cb_05,90.0,temp_dist_trial,dist_items,qkpkxw,2.0,response,76,1499.9000000000233,2416.5,2425.4000000000233,1499.9000000000233,2416.5,2425.4000000000233,1.0,925.5,0.0,,Slider,Slider,4.0,object-56,temp_dist_trial,42.0,t_s_13_1,travel_shared,contact lens case,5.0,competing,paired,t_s_13_1.jpg,Travel,$${counterbalance_group},,sub-87
Desktop or Laptop,Windows 10,Chrome 138.0.0.0,1366x768,1366x768,Temporal Distance Task,cb_05,91.0,temp_dist_trial,num_items,zn7si1,1.0,response,1_ITEM,1926.2999999761814,1916.5,1926.2999999761814,1926.2999999761814,1916.5,1926.2999999761814,1.0,0.0,0.0,,Click Response,1_count,3.0,object-46,temp_dist_trial,43.0,t_s_06_1,travel_shared,luggage,5.0,competing,single,t_s_06_1.jpg,Travel,$${counterbalance_group},,sub-87
Desktop or Laptop,Windows 10,Chrome 138.0.0.0,1366x768,1366x768,Temporal Distance Task,cb_05,92.0,temp_dist_trial,num_items,zn7si1,1.0,response,1_ITEM,1136.2999999761814,1133.100000000035,1136.2999999761814,1136.2999999761814,1133.100000000035,1136.2999999761814,1.0,0.0,0.0,,Click Response,1_count,3.0,object-46,temp_dist_trial,44.0,t_s_16_1,travel_shared,chapstick,5.0,competing,single,t_s_16_1.jpg,Travel,$${counterbalance_group},,sub-87
Desktop or Laptop,Windows 10,Chrome 138.0.0.0,1366x768,1366x768,Temporal Distance Task,cb_05,93.0,temp_dist_trial,num_items,zn7si1,1.0,response,1_ITEM,1456.0999999999767,1450.7999999999884,1456.0999999999767,1456.0999999999767,1450.7999999999884,1456.0999999999767,1.0,0.0,0.0,,Click Response,1_count,3.0,object-46,temp_dist_trial,45.0,t_s_17_1,travel_shared,toothbrush,5.0,competing,paired,t_s_17_1.jpg,Travel,$${counterbalance_group},,sub-87
Desktop or Laptop,Windows 10,Chrome 138.0.0.0,1366x768,1366x768,Temporal Distance Task,cb_05,94.0,temp_dist_trial,num_items,zn7si1,1.0,response,2_ITEM,1390.5999999642374,1383.2999999999884,1390.5999999642374,1390.5999999642374,1383.2999999999884,1390.5999999642374,1.0,0.0,0.0,,Click Response,2_count,5.0,object-49,temp_dist_trial,46.0,t_s_10_1,travel_shared,luggage lock,5.0,competing,paired,t_s_10_1.jpg,Travel,$${counterbalance_group},,sub-87
Desktop or Laptop,Windows 10,Chrome 138.0.0.0,1366x768,1366x768,Temporal Distance Task,cb_05,94.0,temp_dist_trial,dist_items,qkpkxw,2.0,info,,17.0,0.0,17.0,17.0,0.0,17.0,1.0,0.0,0.0,,Slider,Slider,4.0,object-56,temp_dist_trial,46.0,t_s_10_1,travel_shared,luggage lock,5.0,competing,paired,t_s_10_1.jpg,Travel,$${counterbalance_group},,sub-87
Desktop or Laptop,Windows 10,Chrome 138.0.0.0,1366x768,1366x768,Temporal Distance Task,cb_05,94.0,temp_dist_trial,dist_items,qkpkxw,2.0,continue,,4839.799999976181,4833.200000000013,4839.799999976181,4839.799999976181,4833.200000000013,4839.799999976181,1.0,0.0,0.0,,Click To Continue,Next button,7.0,object-60,temp_dist_trial,46.0,t_s_10_1,travel_shared,luggage lock,5.0,competing,paired,t_s_10_1.jpg,Travel,$${counterbalance_group},,sub-87
Desktop or Laptop,Windows 10,Chrome 138.0.0.0,1366x768,1366x768,Temporal Distance Task,cb_05,94.0,temp_dist_trial,dist_items,qkpkxw,2.0,response,25,3983.200000000012,4833.200000000013,4841.799999976181,3983.200000000012,4833.200000000013,4841.799999976181,1.0,858.5999999761698,0.0,,Slider,Slider,4.0,object-56,temp_dist_trial,46.0,t_s_10_1,travel_shared,luggage lock,5.0,competing,paired,t_s_10_1.jpg,Travel,$${counterbalance_group},,sub-87
Desktop or Laptop,Windows 10,Chrome 138.0.0.0,1366x768,1366x768,Temporal Distance Task,cb_05,95.0,temp_dist_trial,num_items,zn7si1,1.0,response,1_ITEM,1583.0999999999767,1566.5,1583.0999999999767,1583.0999999999767,1566.5,1583.0999999999767,1.0,0.0,0.0,,Click Response,1_count,3.0,object-46,temp_dist_trial,47.0,t_s_14_1,travel_shared,hand sanitizer,5.0,competing,single,t_s_14_1.jpg,Travel,$${counterbalance_group},,sub-87
Desktop or Laptop,Windows 10,Chrome 138.0.0.0,1366x768,1366x768,Temporal Distance Task,cb_05,96.0,temp_dist_trial,num_items,zn7si1,1.0,response,2_ITEM,2198.599999964237,2183.5,2198.599999964237,2198.599999964237,2183.5,2198.599999964237,1.0,0.0,0.0,,Click Response,2_count,5.0,object-49,temp_dist_trial,48.0,t_m_09_1,travel_Miami,beach towel,5.0,unique,paired,t_m_09_1.jpg,Travel,$${counterbalance_group},,sub-87
Desktop or Laptop,Windows 10,Chrome 138.0.0.0,1366x768,1366x768,Temporal Distance Task,cb_05,96.0,temp_dist_trial,dist_items,qkpkxw,2.0,info,,16.19999998807907,0.0,16.19999998807907,16.19999998807907,0.0,16.19999998807907,1.0,0.0,0.0,,Slider,Slider,4.0,object-56,temp_dist_trial,48.0,t_m_09_1,travel_Miami,beach towel,5.0,unique,paired,t_m_09_1.jpg,Travel,$${counterbalance_group},,sub-87
Desktop or Laptop,Windows 10,Chrome 138.0.0.0,1366x768,1366x768,Temporal Distance Task,cb_05,96.0,temp_dist_trial,dist_items,qkpkxw,2.0,continue,,2033.5,2016.7000000000119,2033.5,2033.5,2016.7000000000119,2033.5,1.0,0.0,0.0,,Click To Continue,Next button,7.0,object-60,temp_dist_trial,48.0,t_m_09_1,travel_Miami,beach towel,5.0,unique,paired,t_m_09_1.jpg,Travel,$${counterbalance_group},,sub-87
Desktop or Laptop,Windows 10,Chrome 138.0.0.0,1366x768,1366x768,Temporal Distance Task,cb_05,96.0,temp_dist_trial,dist_items,qkpkxw,2.0,response,29,1083.0,2016.7000000000119,2033.5,1083.0,2016.7000000000119,2033.5,1.0,950.5,0.0,,Slider,Slider,4.0,object-56,temp_dist_trial,48.0,t_m_09_1,travel_Miami,beach towel,5.0,unique,paired,t_m_09_1.jpg,Travel,$${counterbalance_group},,sub-87
Desktop or Laptop,Windows 10,Chrome 138.0.0.0,1366x768,1366x768,Temporal Distance Task,,,,,,,info,END,,,371216.0,,,,,,,,,,,,,,,,,,,,,,$${counterbalance_group},,sub-87
