Participant Device,Participant OS,Participant Browser,Participant Monitor Size,Participant Viewport Size,Task Name,Current Spreadsheet,Trial Number,Display,Screen,Screen ID,Screen Counter,Response Type,Response,Onset Time,Clock Time,Reaction Time,Absolute Onset Time,Absolute Clock Time,Absolute Reaction Time,Correct,Response Duration,Proportion,Tag,Component Name,Object Name,Object Number,Object ID,Spreadsheet: display,Spreadsheet: trial,Spreadsheet: stimulus_id,Spreadsheet: expected_goal,Spreadsheet: stimulus_name,Spreadsheet: c_group,Spreadsheet: condition,Spreadsheet: paired_status,Spreadsheet: stimulus_path,Spreadsheet: block_type,Manipulation: Spreadsheet,Store: enc_test_acc,sub_label
Desktop or Laptop,Windows 10,Chrome 138.0.0.0,1920x1080,958x910,Temporal Distance Task,$${counterbalance_group},,,,,,info,BEGIN,,,,,,,0.0,,,,,,,,,,,,,,,,,,,,sub-34
Desktop or Laptop,Windows 10,Chrome 138.0.0.0,1920x1080,958x910,Temporal Distance Task,cb_10,1.0,temp_instructions,intro_screen,3tnme7,1.0,continue,,5403.299999713898,5400.0,5403.299999713898,5403.299999713898,5400.0,5403.299999713898,1.0,0.0,0.0,,Click To Continue,Continue Button,4.0,object-29,temp_instructions,,,Travel,,,,,,,,,sub-34
Desktop or Laptop,Windows 10,Chrome 138.0.0.0,1920x1080,958x910,Temporal Distance Task,cb_10,1.0,temp_instructions,intro_screen_2,52v7ur,2.0,continue,,8683.300000000001,8666.6,8683.300000000001,8683.300000000001,8666.6,8683.300000000001,1.0,0.0,0.0,,Click To Continue,Continue Button,4.0,object-39,temp_instructions,,,Travel,,,,,,,,,sub-34
Desktop or Laptop,Windows 10,Chrome 138.0.0.0,1920x1080,958x910,Temporal Distance Task,cb_10,1.0,temp_instructions,intro_screen_3,i7lvwx,3.0,continue,,6287.099999809265,6283.499999999997,6287.099999809265,6287.099999809265,6283.499999999997,6287.099999809265,1.0,0.0,0.0,,Click To Continue,Continue Button,4.0,object-67,temp_instructions,,,Travel,,,,,,,,,sub-34
Desktop or Laptop,Windows 10,Chrome 138.0.0.0,1920x1080,958x910,Temporal Distance Task,cb_10,1.0,temp_instructions,test_q1,5ieqx1,4.0,response,choice_3,4583.4000000000015,4566.700000000002,4583.4000000000015,4583.4000000000015,4566.700000000002,4583.4000000000015,1.0,0.0,0.0,,Click Response,choice_3,5.0,object-345,temp_instructions,,,Travel,,,,,,,,,sub-34
Desktop or Laptop,Windows 10,Chrome 138.0.0.0,1920x1080,958x910,Temporal Distance Task,cb_10,1.0,temp_instructions,score_corr,7ilvjr,5.0,continue,,987.7000000000007,983.2999999999993,987.7000000000007,987.7000000000007,983.2999999999993,987.7000000000007,1.0,0.0,0.0,,Click To Continue,Continue Button,3.0,object-23,temp_instructions,,,Travel,,,,,,,,,sub-34
Desktop or Laptop,Windows 10,Chrome 138.0.0.0,1920x1080,958x910,Temporal Distance Task,cb_10,1.0,temp_eventStart,Screen 1,dgtyxe,1.0,continue,,1239.2999996185315,1233.3000000000031,1239.2999996185315,1239.2999996185315,1233.3000000000031,1239.2999996185315,1.0,0.0,0.0,,Click To Continue,Next Button,3.0,object-43,temp_eventStart,,,Travel,,,,,,,,,sub-34
Desktop or Laptop,Windows 10,Chrome 138.0.0.0,1920x1080,958x910,Temporal Distance Task,cb_10,1.0,temp_dist_trial,num_items,zn7si1,1.0,response,1_ITEM,1785.9999996185288,1783.3999999999978,1785.9999996185288,1785.9999996185288,1783.3999999999978,1785.9999996185288,1.0,0.0,0.0,,Click Response,1_count,3.0,object-46,temp_dist_trial,1.0,t_m_13_1,travel_Miami,floatie,10.0,unique,single,t_m_13_1.jpg,Travel,,,sub-34
Desktop or Laptop,Windows 10,Chrome 138.0.0.0,1920x1080,958x910,Temporal Distance Task,cb_10,2.0,temp_dist_trial,num_items,zn7si1,1.0,response,2_ITEM,1272.599999618531,1266.7000000000007,1272.599999618531,1272.599999618531,1266.7000000000007,1272.599999618531,1.0,0.0,0.0,,Click Response,2_count,5.0,object-49,temp_dist_trial,2.0,t_i_16_1,travel_Iceland,skis,10.0,unique,paired,t_i_16_1.jpg,Travel,,,sub-34
Desktop or Laptop,Windows 10,Chrome 138.0.0.0,1920x1080,958x910,Temporal Distance Task,cb_10,2.0,temp_dist_trial,dist_items,qkpkxw,2.0,info,,6.999999618528818,0.0,6.999999618528818,6.999999618528818,0.0,6.999999618528818,1.0,0.0,0.0,,Slider,Slider,4.0,object-56,temp_dist_trial,2.0,t_i_16_1,travel_Iceland,skis,10.0,unique,paired,t_i_16_1.jpg,Travel,,,sub-34
Desktop or Laptop,Windows 10,Chrome 138.0.0.0,1920x1080,958x910,Temporal Distance Task,cb_10,2.0,temp_dist_trial,dist_items,qkpkxw,2.0,continue,,2807.6999999046307,2800.0,2807.6999999046307,2807.6999999046307,2800.0,2807.6999999046307,1.0,0.0,0.0,,Click To Continue,Next button,7.0,object-60,temp_dist_trial,2.0,t_i_16_1,travel_Iceland,skis,10.0,unique,paired,t_i_16_1.jpg,Travel,,,sub-34
Desktop or Laptop,Windows 10,Chrome 138.0.0.0,1920x1080,958x910,Temporal Distance Task,cb_10,2.0,temp_dist_trial,dist_items,qkpkxw,2.0,response,72,1833.1999999999966,2800.0,2808.899999713896,1833.1999999999966,2800.0,2808.899999713896,1.0,975.6999997138993,0.0,,Slider,Slider,4.0,object-56,temp_dist_trial,2.0,t_i_16_1,travel_Iceland,skis,10.0,unique,paired,t_i_16_1.jpg,Travel,,,sub-34
Desktop or Laptop,Windows 10,Chrome 138.0.0.0,1920x1080,958x910,Temporal Distance Task,cb_10,3.0,temp_dist_trial,num_items,zn7si1,1.0,response,2_ITEM,1395.8999997138962,1383.2999999999954,1395.8999997138962,1395.8999997138962,1383.2999999999954,1395.8999997138962,1.0,0.0,0.0,,Click Response,2_count,5.0,object-49,temp_dist_trial,3.0,t_i_06_1,travel_Iceland,knit hat,10.0,unique,single,t_i_06_1.jpg,Travel,,,sub-34
Desktop or Laptop,Windows 10,Chrome 138.0.0.0,1920x1080,958x910,Temporal Distance Task,cb_10,3.0,temp_dist_trial,dist_items,qkpkxw,2.0,info,,6.9999997138947965,0.0,6.9999997138947965,6.9999997138947965,0.0,6.9999997138947965,1.0,0.0,0.0,,Slider,Slider,4.0,object-56,temp_dist_trial,3.0,t_i_06_1,travel_Iceland,knit hat,10.0,unique,single,t_i_06_1.jpg,Travel,,,sub-34
Desktop or Laptop,Windows 10,Chrome 138.0.0.0,1920x1080,958x910,Temporal Distance Task,cb_10,3.0,temp_dist_trial,dist_items,qkpkxw,2.0,continue,,1280.9999997138948,1266.5999999999985,1280.9999997138948,1280.9999997138948,1266.5999999999985,1280.9999997138948,1.0,0.0,0.0,,Click To Continue,Next button,7.0,object-60,temp_dist_trial,3.0,t_i_06_1,travel_Iceland,knit hat,10.0,unique,single,t_i_06_1.jpg,Travel,,,sub-34
Desktop or Laptop,Windows 10,Chrome 138.0.0.0,1920x1080,958x910,Temporal Distance Task,cb_10,3.0,temp_dist_trial,dist_items,qkpkxw,2.0,response,,1281.4999997138948,1266.5999999999985,1281.4999997138948,1281.4999997138948,1266.5999999999985,1281.4999997138948,1.0,0.0,0.0,,Slider,Slider,4.0,object-56,temp_dist_trial,3.0,t_i_06_1,travel_Iceland,knit hat,10.0,unique,single,t_i_06_1.jpg,Travel,,,sub-34
Desktop or Laptop,Windows 10,Chrome 138.0.0.0,1920x1080,958x910,Temporal Distance Task,cb_10,4.0,temp_dist_trial,num_items,zn7si1,1.0,response,1_ITEM,1424.8999997138962,1416.6999999999966,1424.8999997138962,1424.8999997138962,1416.6999999999966,1424.8999997138962,1.0,0.0,0.0,,Click Response,1_count,3.0,object-46,temp_dist_trial,4.0,t_s_04_1,travel_shared,instant camera,10.0,competing,single,t_s_04_1.jpg,Travel,,,sub-34
Desktop or Laptop,Windows 10,Chrome 138.0.0.0,1920x1080,958x910,Temporal Distance Task,cb_10,5.0,temp_dist_trial,num_items,zn7si1,1.0,response,1_ITEM,1161.0999998092666,1150.0,1161.0999998092666,1161.0999998092666,1150.0,1161.0999998092666,1.0,0.0,0.0,,Click Response,1_count,3.0,object-46,temp_dist_trial,5.0,t_i_12_1,travel_Iceland,tent,10.0,unique,single,t_i_12_1.jpg,Travel,,,sub-34
Desktop or Laptop,Windows 10,Chrome 138.0.0.0,1920x1080,958x910,Temporal Distance Task,cb_10,6.0,temp_dist_trial,num_items,zn7si1,1.0,response,1_ITEM,1470.6999997138992,1466.5999999999985,1470.6999997138992,1470.6999997138992,1466.5999999999985,1470.6999997138992,1.0,0.0,0.0,,Click Response,1_count,3.0,object-46,temp_dist_trial,6.0,t_m_11_1,travel_Miami,collapsible beach chair,10.0,unique,single,t_m_11_1.jpg,Travel,,,sub-34
Desktop or Laptop,Windows 10,Chrome 138.0.0.0,1920x1080,958x910,Temporal Distance Task,cb_10,7.0,temp_dist_trial,num_items,zn7si1,1.0,response,2_ITEM,1299.6999996185334,1283.4000000000015,1299.6999996185334,1299.6999996185334,1283.4000000000015,1299.6999996185334,1.0,0.0,0.0,,Click Response,2_count,5.0,object-49,temp_dist_trial,7.0,t_i_10_1,travel_Iceland,trekking poles,10.0,unique,paired,t_i_10_1.jpg,Travel,,,sub-34
Desktop or Laptop,Windows 10,Chrome 138.0.0.0,1920x1080,958x910,Temporal Distance Task,cb_10,7.0,temp_dist_trial,dist_items,qkpkxw,2.0,info,,6.3999996185302725,0.0,6.3999996185302725,6.3999996185302725,0.0,6.3999996185302725,1.0,0.0,0.0,,Slider,Slider,4.0,object-56,temp_dist_trial,7.0,t_i_10_1,travel_Iceland,trekking poles,10.0,unique,paired,t_i_10_1.jpg,Travel,,,sub-34
Desktop or Laptop,Windows 10,Chrome 138.0.0.0,1920x1080,958x910,Temporal Distance Task,cb_10,7.0,temp_dist_trial,dist_items,qkpkxw,2.0,continue,,2201.5,2200.0,2201.5,2201.5,2200.0,2201.5,1.0,0.0,0.0,,Click To Continue,Next button,7.0,object-60,temp_dist_trial,7.0,t_i_10_1,travel_Iceland,trekking poles,10.0,unique,paired,t_i_10_1.jpg,Travel,,,sub-34
Desktop or Laptop,Windows 10,Chrome 138.0.0.0,1920x1080,958x910,Temporal Distance Task,cb_10,7.0,temp_dist_trial,dist_items,qkpkxw,2.0,response,17,916.6999999999972,2200.0,2202.599999904633,916.6999999999972,2200.0,2202.599999904633,1.0,1285.8999999046355,0.0,,Slider,Slider,4.0,object-56,temp_dist_trial,7.0,t_i_10_1,travel_Iceland,trekking poles,10.0,unique,paired,t_i_10_1.jpg,Travel,,,sub-34
Desktop or Laptop,Windows 10,Chrome 138.0.0.0,1920x1080,958x910,Temporal Distance Task,cb_10,8.0,temp_dist_trial,num_items,zn7si1,1.0,response,2_ITEM,1313.5,1300.0999999999985,1313.5,1313.5,1300.0999999999985,1313.5,1.0,0.0,0.0,,Click Response,2_count,5.0,object-49,temp_dist_trial,8.0,t_s_17_1,travel_shared,toothbrush,10.0,competing,paired,t_s_17_1.jpg,Travel,,,sub-34
Desktop or Laptop,Windows 10,Chrome 138.0.0.0,1920x1080,958x910,Temporal Distance Task,cb_10,8.0,temp_dist_trial,dist_items,qkpkxw,2.0,info,,3.5999999046325684,0.0,3.5999999046325684,3.5999999046325684,0.0,3.5999999046325684,1.0,0.0,0.0,,Slider,Slider,4.0,object-56,temp_dist_trial,8.0,t_s_17_1,travel_shared,toothbrush,10.0,competing,paired,t_s_17_1.jpg,Travel,,,sub-34
Desktop or Laptop,Windows 10,Chrome 138.0.0.0,1920x1080,958x910,Temporal Distance Task,cb_10,8.0,temp_dist_trial,dist_items,qkpkxw,2.0,continue,,2279.5,2266.800000000003,2279.5,2279.5,2266.800000000003,2279.5,1.0,0.0,0.0,,Click To Continue,Next button,7.0,object-60,temp_dist_trial,8.0,t_s_17_1,travel_shared,toothbrush,10.0,competing,paired,t_s_17_1.jpg,Travel,,,sub-34
Desktop or Laptop,Windows 10,Chrome 138.0.0.0,1920x1080,958x910,Temporal Distance Task,cb_10,8.0,temp_dist_trial,dist_items,qkpkxw,2.0,response,33,1033.3000000000031,2266.800000000003,2280.099999904633,1033.3000000000031,2266.800000000003,2280.099999904633,1.0,1246.7999999046294,0.0,,Slider,Slider,4.0,object-56,temp_dist_trial,8.0,t_s_17_1,travel_shared,toothbrush,10.0,competing,paired,t_s_17_1.jpg,Travel,,,sub-34
Desktop or Laptop,Windows 10,Chrome 138.0.0.0,1920x1080,958x910,Temporal Distance Task,cb_10,9.0,temp_dist_trial,num_items,zn7si1,1.0,response,2_ITEM,1152.5999996185276,1150.0,1152.5999996185276,1152.5999996185276,1150.0,1152.5999996185276,1.0,0.0,0.0,,Click Response,2_count,5.0,object-49,temp_dist_trial,9.0,t_m_15_1,travel_Miami,shorts,10.0,unique,paired,t_m_15_1.jpg,Travel,,,sub-34
Desktop or Laptop,Windows 10,Chrome 138.0.0.0,1920x1080,958x910,Temporal Distance Task,cb_10,9.0,temp_dist_trial,dist_items,qkpkxw,2.0,info,,6.399999809262228,0.0,6.399999809262228,6.399999809262228,0.0,6.399999809262228,1.0,0.0,0.0,,Slider,Slider,4.0,object-56,temp_dist_trial,9.0,t_m_15_1,travel_Miami,shorts,10.0,unique,paired,t_m_15_1.jpg,Travel,,,sub-34
Desktop or Laptop,Windows 10,Chrome 138.0.0.0,1920x1080,958x910,Temporal Distance Task,cb_10,9.0,temp_dist_trial,dist_items,qkpkxw,2.0,continue,,1774.3999998092625,1766.6999999999966,1774.3999998092625,1774.3999998092625,1766.6999999999966,1774.3999998092625,1.0,0.0,0.0,,Click To Continue,Next button,7.0,object-60,temp_dist_trial,9.0,t_m_15_1,travel_Miami,shorts,10.0,unique,paired,t_m_15_1.jpg,Travel,,,sub-34
Desktop or Laptop,Windows 10,Chrome 138.0.0.0,1920x1080,958x910,Temporal Distance Task,cb_10,9.0,temp_dist_trial,dist_items,qkpkxw,2.0,response,39,949.7999999999955,1766.6999999999966,1775.1999999999966,949.7999999999955,1766.6999999999966,1775.1999999999966,1.0,825.4000000000017,0.0,,Slider,Slider,4.0,object-56,temp_dist_trial,9.0,t_m_15_1,travel_Miami,shorts,10.0,unique,paired,t_m_15_1.jpg,Travel,,,sub-34
Desktop or Laptop,Windows 10,Chrome 138.0.0.0,1920x1080,958x910,Temporal Distance Task,cb_10,10.0,temp_dist_trial,num_items,zn7si1,1.0,response,2_ITEM,1505.5999999046326,1500.0,1505.5999999046326,1505.5999999046326,1500.0,1505.5999999046326,1.0,0.0,0.0,,Click Response,2_count,5.0,object-49,temp_dist_trial,10.0,t_m_18_1,travel_Miami,waterproof tote,10.0,unique,paired,t_m_18_1.jpg,Travel,,,sub-34
Desktop or Laptop,Windows 10,Chrome 138.0.0.0,1920x1080,958x910,Temporal Distance Task,cb_10,10.0,temp_dist_trial,dist_items,qkpkxw,2.0,info,,7.1999999999970905,0.0,7.1999999999970905,7.1999999999970905,0.0,7.1999999999970905,1.0,0.0,0.0,,Slider,Slider,4.0,object-56,temp_dist_trial,10.0,t_m_18_1,travel_Miami,waterproof tote,10.0,unique,paired,t_m_18_1.jpg,Travel,,,sub-34
Desktop or Laptop,Windows 10,Chrome 138.0.0.0,1920x1080,958x910,Temporal Distance Task,cb_10,10.0,temp_dist_trial,dist_items,qkpkxw,2.0,continue,,2137.7999999046297,2133.3999999999937,2137.7999999046297,2137.7999999046297,2133.3999999999937,2137.7999999046297,1.0,0.0,0.0,,Click To Continue,Next button,7.0,object-60,temp_dist_trial,10.0,t_m_18_1,travel_Miami,waterproof tote,10.0,unique,paired,t_m_18_1.jpg,Travel,,,sub-34
Desktop or Laptop,Windows 10,Chrome 138.0.0.0,1920x1080,958x910,Temporal Distance Task,cb_10,10.0,temp_dist_trial,dist_items,qkpkxw,2.0,response,34,916.7999999999955,2133.3999999999937,2138.699999999997,916.7999999999955,2133.3999999999937,2138.699999999997,1.0,1221.9000000000015,0.0,,Slider,Slider,4.0,object-56,temp_dist_trial,10.0,t_m_18_1,travel_Miami,waterproof tote,10.0,unique,paired,t_m_18_1.jpg,Travel,,,sub-34
Desktop or Laptop,Windows 10,Chrome 138.0.0.0,1920x1080,958x910,Temporal Distance Task,cb_10,11.0,temp_dist_trial,num_items,zn7si1,1.0,response,1_ITEM,1634.1999996185336,1633.3000000000034,1634.1999996185336,1634.1999996185336,1633.3000000000034,1634.1999996185336,1.0,0.0,0.0,,Click Response,1_count,3.0,object-46,temp_dist_trial,11.0,t_s_24_1,travel_shared,ear plugs,10.0,competing,single,t_s_24_1.jpg,Travel,,,sub-34
Desktop or Laptop,Windows 10,Chrome 138.0.0.0,1920x1080,958x910,Temporal Distance Task,cb_10,12.0,temp_dist_trial,num_items,zn7si1,1.0,response,2_ITEM,1207.2999997138975,1200.0999999999985,1207.2999997138975,1207.2999997138975,1200.0999999999985,1207.2999997138975,1.0,0.0,0.0,,Click Response,2_count,5.0,object-49,temp_dist_trial,12.0,t_s_12_1,travel_shared,clear toiletry bag,10.0,competing,paired,t_s_12_1.jpg,Travel,,,sub-34
Desktop or Laptop,Windows 10,Chrome 138.0.0.0,1920x1080,958x910,Temporal Distance Task,cb_10,12.0,temp_dist_trial,dist_items,qkpkxw,2.0,info,,6.69999971389916,0.0,6.69999971389916,6.69999971389916,0.0,6.69999971389916,1.0,0.0,0.0,,Slider,Slider,4.0,object-56,temp_dist_trial,12.0,t_s_12_1,travel_shared,clear toiletry bag,10.0,competing,paired,t_s_12_1.jpg,Travel,,,sub-34
Desktop or Laptop,Windows 10,Chrome 138.0.0.0,1920x1080,958x910,Temporal Distance Task,cb_10,12.0,temp_dist_trial,dist_items,qkpkxw,2.0,continue,,1855.4000000000005,1850.0,1855.4000000000005,1855.4000000000005,1850.0,1855.4000000000005,1.0,0.0,0.0,,Click To Continue,Next button,7.0,object-60,temp_dist_trial,12.0,t_s_12_1,travel_shared,clear toiletry bag,10.0,competing,paired,t_s_12_1.jpg,Travel,,,sub-34
Desktop or Laptop,Windows 10,Chrome 138.0.0.0,1920x1080,958x910,Temporal Distance Task,cb_10,12.0,temp_dist_trial,dist_items,qkpkxw,2.0,response,27,1016.5999999999983,1850.0,1855.9000000000005,1016.5999999999983,1850.0,1855.9000000000005,1.0,839.3000000000029,0.0,,Slider,Slider,4.0,object-56,temp_dist_trial,12.0,t_s_12_1,travel_shared,clear toiletry bag,10.0,competing,paired,t_s_12_1.jpg,Travel,,,sub-34
Desktop or Laptop,Windows 10,Chrome 138.0.0.0,1920x1080,958x910,Temporal Distance Task,cb_10,13.0,temp_dist_trial,num_items,zn7si1,1.0,response,2_ITEM,1487.2999996185315,1483.3000000000034,1487.2999996185315,1487.2999996185315,1483.3000000000034,1487.2999996185315,1.0,0.0,0.0,,Click Response,2_count,5.0,object-49,temp_dist_trial,13.0,t_i_14_1,travel_Iceland,snow pants,10.0,unique,paired,t_i_14_1.jpg,Travel,,,sub-34
Desktop or Laptop,Windows 10,Chrome 138.0.0.0,1920x1080,958x910,Temporal Distance Task,cb_10,13.0,temp_dist_trial,dist_items,qkpkxw,2.0,info,,6.599999999998545,0.0,6.599999999998545,6.599999999998545,0.0,6.599999999998545,1.0,0.0,0.0,,Slider,Slider,4.0,object-56,temp_dist_trial,13.0,t_i_14_1,travel_Iceland,snow pants,10.0,unique,paired,t_i_14_1.jpg,Travel,,,sub-34
Desktop or Laptop,Windows 10,Chrome 138.0.0.0,1920x1080,958x910,Temporal Distance Task,cb_10,13.0,temp_dist_trial,dist_items,qkpkxw,2.0,continue,,2045.799999809264,2033.299999999996,2045.799999809264,2045.799999809264,2033.299999999996,2045.799999809264,1.0,0.0,0.0,,Click To Continue,Next button,7.0,object-60,temp_dist_trial,13.0,t_i_14_1,travel_Iceland,snow pants,10.0,unique,paired,t_i_14_1.jpg,Travel,,,sub-34
Desktop or Laptop,Windows 10,Chrome 138.0.0.0,1920x1080,958x910,Temporal Distance Task,cb_10,13.0,temp_dist_trial,dist_items,qkpkxw,2.0,response,33,899.9999999999927,2033.299999999996,2046.5999999999985,899.9999999999927,2033.299999999996,2046.5999999999985,1.0,1146.6000000000058,0.0,,Slider,Slider,4.0,object-56,temp_dist_trial,13.0,t_i_14_1,travel_Iceland,snow pants,10.0,unique,paired,t_i_14_1.jpg,Travel,,,sub-34
Desktop or Laptop,Windows 10,Chrome 138.0.0.0,1920x1080,958x910,Temporal Distance Task,cb_10,14.0,temp_dist_trial,num_items,zn7si1,1.0,response,1_ITEM,1284.499999809268,1283.3000000000031,1284.499999809268,1284.499999809268,1283.3000000000031,1284.499999809268,1.0,0.0,0.0,,Click Response,1_count,3.0,object-46,temp_dist_trial,14.0,t_s_19_1,travel_shared,pajamas,10.0,competing,single,t_s_19_1.jpg,Travel,,,sub-34
Desktop or Laptop,Windows 10,Chrome 138.0.0.0,1920x1080,958x910,Temporal Distance Task,cb_10,15.0,temp_dist_trial,num_items,zn7si1,1.0,response,2_ITEM,1261.699999713892,1250.5,1261.699999713892,1261.699999713892,1250.5,1261.699999713892,1.0,0.0,0.0,,Click Response,2_count,5.0,object-49,temp_dist_trial,15.0,t_s_21_1,travel_shared,umbrella,10.0,competing,paired,t_s_21_1.jpg,Travel,,,sub-34
Desktop or Laptop,Windows 10,Chrome 138.0.0.0,1920x1080,958x910,Temporal Distance Task,cb_10,15.0,temp_dist_trial,dist_items,qkpkxw,2.0,info,,6.399999999994179,0.0,6.399999999994179,6.399999999994179,0.0,6.399999999994179,1.0,0.0,0.0,,Slider,Slider,4.0,object-56,temp_dist_trial,15.0,t_s_21_1,travel_shared,umbrella,10.0,competing,paired,t_s_21_1.jpg,Travel,,,sub-34
Desktop or Laptop,Windows 10,Chrome 138.0.0.0,1920x1080,958x910,Temporal Distance Task,cb_10,15.0,temp_dist_trial,dist_items,qkpkxw,2.0,continue,,1983.3000000000034,1966.6999999999966,1983.3000000000034,1983.3000000000034,1966.6999999999966,1983.3000000000034,1.0,0.0,0.0,,Click To Continue,Next button,7.0,object-60,temp_dist_trial,15.0,t_s_21_1,travel_shared,umbrella,10.0,competing,paired,t_s_21_1.jpg,Travel,,,sub-34
Desktop or Laptop,Windows 10,Chrome 138.0.0.0,1920x1080,958x910,Temporal Distance Task,cb_10,15.0,temp_dist_trial,dist_items,qkpkxw,2.0,response,29,1233.5999999999913,1966.6999999999966,1983.3000000000034,1233.5999999999913,1966.6999999999966,1983.3000000000034,1.0,749.7000000000116,0.0,,Slider,Slider,4.0,object-56,temp_dist_trial,15.0,t_s_21_1,travel_shared,umbrella,10.0,competing,paired,t_s_21_1.jpg,Travel,,,sub-34
Desktop or Laptop,Windows 10,Chrome 138.0.0.0,1920x1080,958x910,Temporal Distance Task,cb_10,16.0,temp_dist_trial,num_items,zn7si1,1.0,response,2_ITEM,1476.4999997138943,1466.599999999991,1476.4999997138943,1476.4999997138943,1466.599999999991,1476.4999997138943,1.0,0.0,0.0,,Click Response,2_count,5.0,object-49,temp_dist_trial,16.0,t_i_04_1,travel_Iceland,portable camping stove,10.0,unique,paired,t_i_04_1.jpg,Travel,,,sub-34
Desktop or Laptop,Windows 10,Chrome 138.0.0.0,1920x1080,958x910,Temporal Distance Task,cb_10,16.0,temp_dist_trial,dist_items,qkpkxw,2.0,info,,7.199999904638388,0.0,7.199999904638388,7.199999904638388,0.0,7.199999904638388,1.0,0.0,0.0,,Slider,Slider,4.0,object-56,temp_dist_trial,16.0,t_i_04_1,travel_Iceland,portable camping stove,10.0,unique,paired,t_i_04_1.jpg,Travel,,,sub-34
Desktop or Laptop,Windows 10,Chrome 138.0.0.0,1920x1080,958x910,Temporal Distance Task,cb_10,16.0,temp_dist_trial,dist_items,qkpkxw,2.0,continue,,3122.6000000000067,3116.800000000003,3122.6000000000067,3122.6000000000067,3116.800000000003,3122.6000000000067,1.0,0.0,0.0,,Click To Continue,Next button,7.0,object-60,temp_dist_trial,16.0,t_i_04_1,travel_Iceland,portable camping stove,10.0,unique,paired,t_i_04_1.jpg,Travel,,,sub-34
Desktop or Laptop,Windows 10,Chrome 138.0.0.0,1920x1080,958x910,Temporal Distance Task,cb_10,16.0,temp_dist_trial,dist_items,qkpkxw,2.0,response,36,983.3000000000028,3116.800000000003,3123.399999713903,983.3000000000028,3116.800000000003,3123.399999713903,1.0,2140.0999997139006,0.0,,Slider,Slider,4.0,object-56,temp_dist_trial,16.0,t_i_04_1,travel_Iceland,portable camping stove,10.0,unique,paired,t_i_04_1.jpg,Travel,,,sub-34
Desktop or Laptop,Windows 10,Chrome 138.0.0.0,1920x1080,958x910,Temporal Distance Task,cb_10,17.0,temp_dist_trial,num_items,zn7si1,1.0,response,2_ITEM,1473.0999997139004,1467.0,1473.0999997139004,1473.0999997139004,1467.0,1473.0999997139004,1.0,0.0,0.0,,Click Response,2_count,5.0,object-49,temp_dist_trial,17.0,t_i_18_1,travel_Iceland,ski mask,10.0,unique,paired,t_i_18_1.jpg,Travel,,,sub-34
Desktop or Laptop,Windows 10,Chrome 138.0.0.0,1920x1080,958x910,Temporal Distance Task,cb_10,17.0,temp_dist_trial,dist_items,qkpkxw,2.0,info,,6.600000000005821,0.0,6.600000000005821,6.600000000005821,0.0,6.600000000005821,1.0,0.0,0.0,,Slider,Slider,4.0,object-56,temp_dist_trial,17.0,t_i_18_1,travel_Iceland,ski mask,10.0,unique,paired,t_i_18_1.jpg,Travel,,,sub-34
Desktop or Laptop,Windows 10,Chrome 138.0.0.0,1920x1080,958x910,Temporal Distance Task,cb_10,17.0,temp_dist_trial,dist_items,qkpkxw,2.0,continue,,2945.4999996185356,2933.400000000009,2945.4999996185356,2945.4999996185356,2933.400000000009,2945.4999996185356,1.0,0.0,0.0,,Click To Continue,Next button,7.0,object-60,temp_dist_trial,17.0,t_i_18_1,travel_Iceland,ski mask,10.0,unique,paired,t_i_18_1.jpg,Travel,,,sub-34
Desktop or Laptop,Windows 10,Chrome 138.0.0.0,1920x1080,958x910,Temporal Distance Task,cb_10,17.0,temp_dist_trial,dist_items,qkpkxw,2.0,response,45,1250.1000000000058,2933.400000000009,2950.200000000012,1250.1000000000058,2933.400000000009,2950.200000000012,1.0,1700.1000000000058,0.0,,Slider,Slider,4.0,object-56,temp_dist_trial,17.0,t_i_18_1,travel_Iceland,ski mask,10.0,unique,paired,t_i_18_1.jpg,Travel,,,sub-34
Desktop or Laptop,Windows 10,Chrome 138.0.0.0,1920x1080,958x910,Temporal Distance Task,cb_10,18.0,temp_dist_trial,num_items,zn7si1,1.0,response,2_ITEM,881.8999998092622,866.5,881.8999998092622,881.8999998092622,866.5,881.8999998092622,1.0,0.0,0.0,,Click Response,2_count,5.0,object-49,temp_dist_trial,18.0,t_i_19_1,travel_Iceland,rope,10.0,unique,paired,t_i_19_1.jpg,Travel,,,sub-34
Desktop or Laptop,Windows 10,Chrome 138.0.0.0,1920x1080,958x910,Temporal Distance Task,cb_10,18.0,temp_dist_trial,dist_items,qkpkxw,2.0,info,,6.899999809262228,0.0,6.899999809262228,6.899999809262228,0.0,6.899999809262228,1.0,0.0,0.0,,Slider,Slider,4.0,object-56,temp_dist_trial,18.0,t_i_19_1,travel_Iceland,rope,10.0,unique,paired,t_i_19_1.jpg,Travel,,,sub-34
Desktop or Laptop,Windows 10,Chrome 138.0.0.0,1920x1080,958x910,Temporal Distance Task,cb_10,18.0,temp_dist_trial,dist_items,qkpkxw,2.0,continue,,2694.999999713895,2683.199999999997,2694.999999713895,2694.999999713895,2683.199999999997,2694.999999713895,1.0,0.0,0.0,,Click To Continue,Next button,7.0,object-60,temp_dist_trial,18.0,t_i_19_1,travel_Iceland,rope,10.0,unique,paired,t_i_19_1.jpg,Travel,,,sub-34
Desktop or Laptop,Windows 10,Chrome 138.0.0.0,1920x1080,958x910,Temporal Distance Task,cb_10,18.0,temp_dist_trial,dist_items,qkpkxw,2.0,response,65,1750.099999999991,2683.199999999997,2695.199999999997,1750.099999999991,2683.199999999997,2695.199999999997,1.0,945.1000000000058,0.0,,Slider,Slider,4.0,object-56,temp_dist_trial,18.0,t_i_19_1,travel_Iceland,rope,10.0,unique,paired,t_i_19_1.jpg,Travel,,,sub-34
Desktop or Laptop,Windows 10,Chrome 138.0.0.0,1920x1080,958x910,Temporal Distance Task,cb_10,19.0,temp_dist_trial,num_items,zn7si1,1.0,response,1_ITEM,2011.2999997138975,2000.1999999999966,2011.2999997138975,2011.2999997138975,2000.1999999999966,2011.2999997138975,1.0,0.0,0.0,,Click Response,1_count,3.0,object-46,temp_dist_trial,19.0,t_s_01_1,travel_shared,fanny pack,10.0,competing,single,t_s_01_1.jpg,Travel,,,sub-34
Desktop or Laptop,Windows 10,Chrome 138.0.0.0,1920x1080,958x910,Temporal Distance Task,cb_10,20.0,temp_dist_trial,num_items,zn7si1,1.0,response,2_ITEM,1272.999999809268,1266.8000000000031,1272.999999809268,1272.999999809268,1266.8000000000031,1272.999999809268,1.0,0.0,0.0,,Click Response,2_count,5.0,object-49,temp_dist_trial,20.0,t_m_19_1,travel_Miami,surfboard,10.0,unique,paired,t_m_19_1.jpg,Travel,,,sub-34
Desktop or Laptop,Windows 10,Chrome 138.0.0.0,1920x1080,958x910,Temporal Distance Task,cb_10,20.0,temp_dist_trial,dist_items,qkpkxw,2.0,info,,6.1999999999970905,0.0,6.1999999999970905,6.1999999999970905,0.0,6.1999999999970905,1.0,0.0,0.0,,Slider,Slider,4.0,object-56,temp_dist_trial,20.0,t_m_19_1,travel_Miami,surfboard,10.0,unique,paired,t_m_19_1.jpg,Travel,,,sub-34
Desktop or Laptop,Windows 10,Chrome 138.0.0.0,1920x1080,958x910,Temporal Distance Task,cb_10,20.0,temp_dist_trial,dist_items,qkpkxw,2.0,continue,,1724.0999996185276,1716.6999999999966,1724.0999996185276,1724.0999996185276,1716.6999999999966,1724.0999996185276,1.0,0.0,0.0,,Click To Continue,Next button,7.0,object-60,temp_dist_trial,20.0,t_m_19_1,travel_Miami,surfboard,10.0,unique,paired,t_m_19_1.jpg,Travel,,,sub-34
Desktop or Laptop,Windows 10,Chrome 138.0.0.0,1920x1080,958x910,Temporal Distance Task,cb_10,20.0,temp_dist_trial,dist_items,qkpkxw,2.0,response,68,816.5999999999913,1716.6999999999966,1724.8999998092625,816.5999999999913,1716.6999999999966,1724.8999998092625,1.0,908.299999809271,0.0,,Slider,Slider,4.0,object-56,temp_dist_trial,20.0,t_m_19_1,travel_Miami,surfboard,10.0,unique,paired,t_m_19_1.jpg,Travel,,,sub-34
Desktop or Laptop,Windows 10,Chrome 138.0.0.0,1920x1080,958x910,Temporal Distance Task,cb_10,21.0,temp_dist_trial,num_items,zn7si1,1.0,response,1_ITEM,1768.0999999046326,1766.6999999999966,1768.0999999046326,1768.0999999046326,1766.6999999999966,1768.0999999046326,1.0,0.0,0.0,,Click Response,1_count,3.0,object-46,temp_dist_trial,21.0,t_m_05_1,travel_Miami,sunscreen,10.0,unique,single,t_m_05_1.jpg,Travel,,,sub-34
Desktop or Laptop,Windows 10,Chrome 138.0.0.0,1920x1080,958x910,Temporal Distance Task,cb_10,22.0,temp_dist_trial,num_items,zn7si1,1.0,response,2_ITEM,1364.3999998092622,1349.8000000000031,1364.3999998092622,1364.3999998092622,1349.8000000000031,1364.3999998092622,1.0,0.0,0.0,,Click Response,2_count,5.0,object-49,temp_dist_trial,22.0,t_s_16_1,travel_shared,chapstick,10.0,competing,paired,t_s_16_1.jpg,Travel,,,sub-34
Desktop or Laptop,Windows 10,Chrome 138.0.0.0,1920x1080,958x910,Temporal Distance Task,cb_10,22.0,temp_dist_trial,dist_items,qkpkxw,2.0,info,,5.699999713891884,0.0,5.699999713891884,5.699999713891884,0.0,5.699999713891884,1.0,0.0,0.0,,Slider,Slider,4.0,object-56,temp_dist_trial,22.0,t_s_16_1,travel_shared,chapstick,10.0,competing,paired,t_s_16_1.jpg,Travel,,,sub-34
Desktop or Laptop,Windows 10,Chrome 138.0.0.0,1920x1080,958x910,Temporal Distance Task,cb_10,22.0,temp_dist_trial,dist_items,qkpkxw,2.0,continue,,1121.4999999046267,1116.8999999999942,1121.4999999046267,1121.4999999046267,1116.8999999999942,1121.4999999046267,1.0,0.0,0.0,,Click To Continue,Next button,7.0,object-60,temp_dist_trial,22.0,t_s_16_1,travel_shared,chapstick,10.0,competing,paired,t_s_16_1.jpg,Travel,,,sub-34
Desktop or Laptop,Windows 10,Chrome 138.0.0.0,1920x1080,958x910,Temporal Distance Task,cb_10,22.0,temp_dist_trial,dist_items,qkpkxw,2.0,response,,1122.099999809259,1116.8999999999942,1122.099999809259,1122.099999809259,1116.8999999999942,1122.099999809259,1.0,0.0,0.0,,Slider,Slider,4.0,object-56,temp_dist_trial,22.0,t_s_16_1,travel_shared,chapstick,10.0,competing,paired,t_s_16_1.jpg,Travel,,,sub-34
Desktop or Laptop,Windows 10,Chrome 138.0.0.0,1920x1080,958x910,Temporal Distance Task,cb_10,23.0,temp_dist_trial,num_items,zn7si1,1.0,response,2_ITEM,1564.0,1549.8000000000034,1564.0,1564.0,1549.8000000000034,1564.0,1.0,0.0,0.0,,Click Response,2_count,5.0,object-49,temp_dist_trial,23.0,t_s_05_1,travel_shared,neck pillow,10.0,competing,paired,t_s_05_1.jpg,Travel,,,sub-34
Desktop or Laptop,Windows 10,Chrome 138.0.0.0,1920x1080,958x910,Temporal Distance Task,cb_10,23.0,temp_dist_trial,dist_items,qkpkxw,2.0,info,,5.9999997138947965,0.0,5.9999997138947965,5.9999997138947965,0.0,5.9999997138947965,1.0,0.0,0.0,,Slider,Slider,4.0,object-56,temp_dist_trial,23.0,t_s_05_1,travel_shared,neck pillow,10.0,competing,paired,t_s_05_1.jpg,Travel,,,sub-34
Desktop or Laptop,Windows 10,Chrome 138.0.0.0,1920x1080,958x910,Temporal Distance Task,cb_10,23.0,temp_dist_trial,dist_items,qkpkxw,2.0,continue,,1726.1999999999966,1716.599999999991,1726.1999999999966,1726.1999999999966,1716.599999999991,1726.1999999999966,1.0,0.0,0.0,,Click To Continue,Next button,7.0,object-60,temp_dist_trial,23.0,t_s_05_1,travel_shared,neck pillow,10.0,competing,paired,t_s_05_1.jpg,Travel,,,sub-34
Desktop or Laptop,Windows 10,Chrome 138.0.0.0,1920x1080,958x910,Temporal Distance Task,cb_10,23.0,temp_dist_trial,dist_items,qkpkxw,2.0,response,62,950.0999999999913,1716.599999999991,1726.8999998092625,950.0999999999913,1716.599999999991,1726.8999998092625,1.0,776.799999809271,0.0,,Slider,Slider,4.0,object-56,temp_dist_trial,23.0,t_s_05_1,travel_shared,neck pillow,10.0,competing,paired,t_s_05_1.jpg,Travel,,,sub-34
Desktop or Laptop,Windows 10,Chrome 138.0.0.0,1920x1080,958x910,Temporal Distance Task,cb_10,24.0,temp_dist_trial,num_items,zn7si1,1.0,response,2_ITEM,956.9999996185361,950.2000000000116,956.9999996185361,956.9999996185361,950.2000000000116,956.9999996185361,1.0,0.0,0.0,,Click Response,2_count,5.0,object-49,temp_dist_trial,24.0,t_s_02_1,travel_shared,water bottle,10.0,competing,paired,t_s_02_1.jpg,Travel,,,sub-34
Desktop or Laptop,Windows 10,Chrome 138.0.0.0,1920x1080,958x910,Temporal Distance Task,cb_10,24.0,temp_dist_trial,dist_items,qkpkxw,2.0,info,,6.099999809259317,0.0,6.099999809259317,6.099999809259317,0.0,6.099999809259317,1.0,0.0,0.0,,Slider,Slider,4.0,object-56,temp_dist_trial,24.0,t_s_02_1,travel_shared,water bottle,10.0,competing,paired,t_s_02_1.jpg,Travel,,,sub-34
Desktop or Laptop,Windows 10,Chrome 138.0.0.0,1920x1080,958x910,Temporal Distance Task,cb_10,24.0,temp_dist_trial,dist_items,qkpkxw,2.0,continue,,1934.2999996185245,1933.1999999999966,1934.2999996185245,1934.2999996185245,1933.1999999999966,1934.2999996185245,1.0,0.0,0.0,,Click To Continue,Next button,7.0,object-60,temp_dist_trial,24.0,t_s_02_1,travel_shared,water bottle,10.0,competing,paired,t_s_02_1.jpg,Travel,,,sub-34
Desktop or Laptop,Windows 10,Chrome 138.0.0.0,1920x1080,958x910,Temporal Distance Task,cb_10,24.0,temp_dist_trial,dist_items,qkpkxw,2.0,response,51,1116.5999999999913,1933.1999999999966,1934.6999997138919,1116.5999999999913,1933.1999999999966,1934.6999997138919,1.0,818.0999997139006,0.0,,Slider,Slider,4.0,object-56,temp_dist_trial,24.0,t_s_02_1,travel_shared,water bottle,10.0,competing,paired,t_s_02_1.jpg,Travel,,,sub-34
Desktop or Laptop,Windows 10,Chrome 138.0.0.0,1920x1080,958x910,Temporal Distance Task,cb_10,25.0,temp_dist_trial,num_items,zn7si1,1.0,response,1_ITEM,1444.3999998092625,1433.3999999999942,1444.3999998092625,1444.3999998092625,1433.3999999999942,1444.3999998092625,1.0,0.0,0.0,,Click Response,1_count,3.0,object-46,temp_dist_trial,25.0,t_m_08_1,travel_Miami,flipflops,10.0,unique,paired,t_m_08_1.jpg,Travel,,,sub-34
Desktop or Laptop,Windows 10,Chrome 138.0.0.0,1920x1080,958x910,Temporal Distance Task,cb_10,26.0,temp_dist_trial,num_items,zn7si1,1.0,response,2_ITEM,887.5999998092592,883.5,887.5999998092592,887.5999998092592,883.5,887.5999998092592,1.0,0.0,0.0,,Click Response,2_count,5.0,object-49,temp_dist_trial,26.0,t_s_06_1,travel_shared,luggage,10.0,competing,paired,t_s_06_1.jpg,Travel,,,sub-34
Desktop or Laptop,Windows 10,Chrome 138.0.0.0,1920x1080,958x910,Temporal Distance Task,cb_10,26.0,temp_dist_trial,dist_items,qkpkxw,2.0,info,,6.499999904626748,0.0,6.499999904626748,6.499999904626748,0.0,6.499999904626748,1.0,0.0,0.0,,Slider,Slider,4.0,object-56,temp_dist_trial,26.0,t_s_06_1,travel_shared,luggage,10.0,competing,paired,t_s_06_1.jpg,Travel,,,sub-34
Desktop or Laptop,Windows 10,Chrome 138.0.0.0,1920x1080,958x910,Temporal Distance Task,cb_10,26.0,temp_dist_trial,dist_items,qkpkxw,2.0,continue,,1609.7999996185245,1600.099999999991,1609.7999996185245,1609.7999996185245,1600.099999999991,1609.7999996185245,1.0,0.0,0.0,,Click To Continue,Next button,7.0,object-60,temp_dist_trial,26.0,t_s_06_1,travel_shared,luggage,10.0,competing,paired,t_s_06_1.jpg,Travel,,,sub-34
Desktop or Laptop,Windows 10,Chrome 138.0.0.0,1920x1080,958x910,Temporal Distance Task,cb_10,26.0,temp_dist_trial,dist_items,qkpkxw,2.0,response,74,816.5999999999913,1600.099999999991,1610.2999996185245,816.5999999999913,1600.099999999991,1610.2999996185245,1.0,793.6999996185333,0.0,,Slider,Slider,4.0,object-56,temp_dist_trial,26.0,t_s_06_1,travel_shared,luggage,10.0,competing,paired,t_s_06_1.jpg,Travel,,,sub-34
Desktop or Laptop,Windows 10,Chrome 138.0.0.0,1920x1080,958x910,Temporal Distance Task,cb_10,27.0,temp_dist_trial,num_items,zn7si1,1.0,response,1_ITEM,1712.0999997139004,1699.6999999999966,1712.0999997139004,1712.0999997139004,1699.6999999999966,1712.0999997139004,1.0,0.0,0.0,,Click Response,1_count,3.0,object-46,temp_dist_trial,27.0,t_s_20_1,travel_shared,travel pill case,10.0,competing,paired,t_s_20_1.jpg,Travel,,,sub-34
Desktop or Laptop,Windows 10,Chrome 138.0.0.0,1920x1080,958x910,Temporal Distance Task,cb_10,28.0,temp_dist_trial,num_items,zn7si1,1.0,response,2_ITEM,1085.8999996185305,1083.1999999999969,1085.8999996185305,1085.8999996185305,1083.1999999999969,1085.8999996185305,1.0,0.0,0.0,,Click Response,2_count,5.0,object-49,temp_dist_trial,28.0,t_i_08_1,travel_Iceland,thick socks,10.0,unique,paired,t_i_08_1.jpg,Travel,,,sub-34
Desktop or Laptop,Windows 10,Chrome 138.0.0.0,1920x1080,958x910,Temporal Distance Task,cb_10,28.0,temp_dist_trial,dist_items,qkpkxw,2.0,info,,5.9999997138947965,0.0,5.9999997138947965,5.9999997138947965,0.0,5.9999997138947965,1.0,0.0,0.0,,Slider,Slider,4.0,object-56,temp_dist_trial,28.0,t_i_08_1,travel_Iceland,thick socks,10.0,unique,paired,t_i_08_1.jpg,Travel,,,sub-34
Desktop or Laptop,Windows 10,Chrome 138.0.0.0,1920x1080,958x910,Temporal Distance Task,cb_10,28.0,temp_dist_trial,dist_items,qkpkxw,2.0,continue,,1966.3999998092625,1950.0,1966.3999998092625,1966.3999998092625,1950.0,1966.3999998092625,1.0,0.0,0.0,,Click To Continue,Next button,7.0,object-60,temp_dist_trial,28.0,t_i_08_1,travel_Iceland,thick socks,10.0,unique,paired,t_i_08_1.jpg,Travel,,,sub-34
Desktop or Laptop,Windows 10,Chrome 138.0.0.0,1920x1080,958x910,Temporal Distance Task,cb_10,28.0,temp_dist_trial,dist_items,qkpkxw,2.0,response,67,866.6999999999971,1950.0,1966.6000000000056,866.6999999999971,1950.0,1966.6000000000056,1.0,1099.9000000000087,0.0,,Slider,Slider,4.0,object-56,temp_dist_trial,28.0,t_i_08_1,travel_Iceland,thick socks,10.0,unique,paired,t_i_08_1.jpg,Travel,,,sub-34
Desktop or Laptop,Windows 10,Chrome 138.0.0.0,1920x1080,958x910,Temporal Distance Task,cb_10,29.0,temp_dist_trial,num_items,zn7si1,1.0,response,2_ITEM,1242.5999996185276,1233.3999999999942,1242.5999996185276,1242.5999996185276,1233.3999999999942,1242.5999996185276,1.0,0.0,0.0,,Click Response,2_count,5.0,object-49,temp_dist_trial,29.0,t_s_11_1,travel_shared,eye mask,10.0,competing,paired,t_s_11_1.jpg,Travel,,,sub-34
Desktop or Laptop,Windows 10,Chrome 138.0.0.0,1920x1080,958x910,Temporal Distance Task,cb_10,29.0,temp_dist_trial,dist_items,qkpkxw,2.0,info,,5.999999904626748,0.0,5.999999904626748,5.999999904626748,0.0,5.999999904626748,1.0,0.0,0.0,,Slider,Slider,4.0,object-56,temp_dist_trial,29.0,t_s_11_1,travel_shared,eye mask,10.0,competing,paired,t_s_11_1.jpg,Travel,,,sub-34
Desktop or Laptop,Windows 10,Chrome 138.0.0.0,1920x1080,958x910,Temporal Distance Task,cb_10,29.0,temp_dist_trial,dist_items,qkpkxw,2.0,continue,,1627.8999999999942,1616.7999999999884,1627.8999999999942,1627.8999999999942,1616.7999999999884,1627.8999999999942,1.0,0.0,0.0,,Click To Continue,Next button,7.0,object-60,temp_dist_trial,29.0,t_s_11_1,travel_shared,eye mask,10.0,competing,paired,t_s_11_1.jpg,Travel,,,sub-34
Desktop or Laptop,Windows 10,Chrome 138.0.0.0,1920x1080,958x910,Temporal Distance Task,cb_10,29.0,temp_dist_trial,dist_items,qkpkxw,2.0,response,16,850.0999999999913,1616.7999999999884,1630.3999999999942,850.0999999999913,1616.7999999999884,1630.3999999999942,1.0,780.3000000000029,0.0,,Slider,Slider,4.0,object-56,temp_dist_trial,29.0,t_s_11_1,travel_shared,eye mask,10.0,competing,paired,t_s_11_1.jpg,Travel,,,sub-34
Desktop or Laptop,Windows 10,Chrome 138.0.0.0,1920x1080,958x910,Temporal Distance Task,cb_10,30.0,temp_dist_trial,num_items,zn7si1,1.0,response,2_ITEM,946.1000000000058,933.3000000000028,946.1000000000058,946.1000000000058,933.3000000000028,946.1000000000058,1.0,0.0,0.0,,Click Response,2_count,5.0,object-49,temp_dist_trial,30.0,t_s_14_1,travel_shared,hand sanitizer,10.0,competing,paired,t_s_14_1.jpg,Travel,,,sub-34
Desktop or Laptop,Windows 10,Chrome 138.0.0.0,1920x1080,958x910,Temporal Distance Task,cb_10,30.0,temp_dist_trial,dist_items,qkpkxw,2.0,info,,5.8000000000029095,0.0,5.8000000000029095,5.8000000000029095,0.0,5.8000000000029095,1.0,0.0,0.0,,Slider,Slider,4.0,object-56,temp_dist_trial,30.0,t_s_14_1,travel_shared,hand sanitizer,10.0,competing,paired,t_s_14_1.jpg,Travel,,,sub-34
Desktop or Laptop,Windows 10,Chrome 138.0.0.0,1920x1080,958x910,Temporal Distance Task,cb_10,30.0,temp_dist_trial,dist_items,qkpkxw,2.0,continue,,2294.999999809268,2283.300000000003,2294.999999809268,2294.999999809268,2283.300000000003,2294.999999809268,1.0,0.0,0.0,,Click To Continue,Next button,7.0,object-60,temp_dist_trial,30.0,t_s_14_1,travel_shared,hand sanitizer,10.0,competing,paired,t_s_14_1.jpg,Travel,,,sub-34
Desktop or Laptop,Windows 10,Chrome 138.0.0.0,1920x1080,958x910,Temporal Distance Task,cb_10,30.0,temp_dist_trial,dist_items,qkpkxw,2.0,response,18,1450.0,2283.300000000003,2295.599999713901,1450.0,2283.300000000003,2295.599999713901,1.0,845.5999997139006,0.0,,Slider,Slider,4.0,object-56,temp_dist_trial,30.0,t_s_14_1,travel_shared,hand sanitizer,10.0,competing,paired,t_s_14_1.jpg,Travel,,,sub-34
Desktop or Laptop,Windows 10,Chrome 138.0.0.0,1920x1080,958x910,Temporal Distance Task,cb_10,31.0,temp_dist_trial,num_items,zn7si1,1.0,response,2_ITEM,1363.7999997138975,1350.1000000000058,1363.7999997138975,1363.7999997138975,1350.1000000000058,1363.7999997138975,1.0,0.0,0.0,,Click Response,2_count,5.0,object-49,temp_dist_trial,31.0,t_s_22_1,travel_shared,belt,10.0,competing,paired,t_s_22_1.jpg,Travel,,,sub-34
Desktop or Laptop,Windows 10,Chrome 138.0.0.0,1920x1080,958x910,Temporal Distance Task,cb_10,31.0,temp_dist_trial,dist_items,qkpkxw,2.0,info,,5.8999996185302725,0.0,5.8999996185302725,5.8999996185302725,0.0,5.8999996185302725,1.0,0.0,0.0,,Slider,Slider,4.0,object-56,temp_dist_trial,31.0,t_s_22_1,travel_shared,belt,10.0,competing,paired,t_s_22_1.jpg,Travel,,,sub-34
Desktop or Laptop,Windows 10,Chrome 138.0.0.0,1920x1080,958x910,Temporal Distance Task,cb_10,31.0,temp_dist_trial,dist_items,qkpkxw,2.0,continue,,1971.7999997138975,1966.6000000000056,1971.7999997138975,1971.7999997138975,1966.6000000000056,1971.7999997138975,1.0,0.0,0.0,,Click To Continue,Next button,7.0,object-60,temp_dist_trial,31.0,t_s_22_1,travel_shared,belt,10.0,competing,paired,t_s_22_1.jpg,Travel,,,sub-34
Desktop or Laptop,Windows 10,Chrome 138.0.0.0,1920x1080,958x910,Temporal Distance Task,cb_10,31.0,temp_dist_trial,dist_items,qkpkxw,2.0,response,51,1133.3999999999942,1966.6000000000056,1972.6999998092651,1133.3999999999942,1966.6000000000056,1972.6999998092651,1.0,839.299999809271,0.0,,Slider,Slider,4.0,object-56,temp_dist_trial,31.0,t_s_22_1,travel_shared,belt,10.0,competing,paired,t_s_22_1.jpg,Travel,,,sub-34
Desktop or Laptop,Windows 10,Chrome 138.0.0.0,1920x1080,958x910,Temporal Distance Task,cb_10,32.0,temp_dist_trial,num_items,zn7si1,1.0,response,2_ITEM,1049.2999996185242,1033.6999999999969,1049.2999996185242,1049.2999996185242,1033.6999999999969,1049.2999996185242,1.0,0.0,0.0,,Click Response,2_count,5.0,object-49,temp_dist_trial,32.0,t_i_20_1,travel_Iceland,lantern,10.0,unique,paired,t_i_20_1.jpg,Travel,,,sub-34
Desktop or Laptop,Windows 10,Chrome 138.0.0.0,1920x1080,958x910,Temporal Distance Task,cb_10,32.0,temp_dist_trial,dist_items,qkpkxw,2.0,info,,6.0,0.0,6.0,6.0,0.0,6.0,1.0,0.0,0.0,,Slider,Slider,4.0,object-56,temp_dist_trial,32.0,t_i_20_1,travel_Iceland,lantern,10.0,unique,paired,t_i_20_1.jpg,Travel,,,sub-34
Desktop or Laptop,Windows 10,Chrome 138.0.0.0,1920x1080,958x910,Temporal Distance Task,cb_10,32.0,temp_dist_trial,dist_items,qkpkxw,2.0,continue,,1905.3999996185305,1899.8999999999944,1905.3999996185305,1905.3999996185305,1899.8999999999944,1905.3999996185305,1.0,0.0,0.0,,Click To Continue,Next button,7.0,object-60,temp_dist_trial,32.0,t_i_20_1,travel_Iceland,lantern,10.0,unique,paired,t_i_20_1.jpg,Travel,,,sub-34
Desktop or Laptop,Windows 10,Chrome 138.0.0.0,1920x1080,958x910,Temporal Distance Task,cb_10,32.0,temp_dist_trial,dist_items,qkpkxw,2.0,response,59,1100.0,1899.8999999999944,1912.3999996185305,1100.0,1899.8999999999944,1912.3999996185305,1.0,812.3999996185303,0.0,,Slider,Slider,4.0,object-56,temp_dist_trial,32.0,t_i_20_1,travel_Iceland,lantern,10.0,unique,paired,t_i_20_1.jpg,Travel,,,sub-34
Desktop or Laptop,Windows 10,Chrome 138.0.0.0,1920x1080,958x910,Temporal Distance Task,cb_10,33.0,temp_dist_trial,num_items,zn7si1,1.0,response,2_ITEM,967.9999996185361,966.8000000000028,967.9999996185361,967.9999996185361,966.8000000000028,967.9999996185361,1.0,0.0,0.0,,Click Response,2_count,5.0,object-49,temp_dist_trial,33.0,t_s_10_1,travel_shared,luggage lock,10.0,competing,single,t_s_10_1.jpg,Travel,,,sub-34
Desktop or Laptop,Windows 10,Chrome 138.0.0.0,1920x1080,958x910,Temporal Distance Task,cb_10,33.0,temp_dist_trial,dist_items,qkpkxw,2.0,info,,5.8000000000029095,0.0,5.8000000000029095,5.8000000000029095,0.0,5.8000000000029095,1.0,0.0,0.0,,Slider,Slider,4.0,object-56,temp_dist_trial,33.0,t_s_10_1,travel_shared,luggage lock,10.0,competing,single,t_s_10_1.jpg,Travel,,,sub-34
Desktop or Laptop,Windows 10,Chrome 138.0.0.0,1920x1080,958x910,Temporal Distance Task,cb_10,33.0,temp_dist_trial,dist_items,qkpkxw,2.0,continue,,1406.6999996185336,1399.900000000009,1406.6999996185336,1406.6999996185336,1399.900000000009,1406.6999996185336,1.0,0.0,0.0,,Click To Continue,Next button,7.0,object-60,temp_dist_trial,33.0,t_s_10_1,travel_shared,luggage lock,10.0,competing,single,t_s_10_1.jpg,Travel,,,sub-34
Desktop or Laptop,Windows 10,Chrome 138.0.0.0,1920x1080,958x910,Temporal Distance Task,cb_10,33.0,temp_dist_trial,dist_items,qkpkxw,2.0,response,72,700.0,1399.900000000009,1407.8000000000034,700.0,1399.900000000009,1407.8000000000034,1.0,707.8000000000029,0.0,,Slider,Slider,4.0,object-56,temp_dist_trial,33.0,t_s_10_1,travel_shared,luggage lock,10.0,competing,single,t_s_10_1.jpg,Travel,,,sub-34
Desktop or Laptop,Windows 10,Chrome 138.0.0.0,1920x1080,958x910,Temporal Distance Task,cb_10,34.0,temp_dist_trial,num_items,zn7si1,1.0,response,2_ITEM,2689.0999998092598,2683.5,2689.0999998092598,2689.0999998092598,2683.5,2689.0999998092598,1.0,0.0,0.0,,Click Response,2_count,5.0,object-49,temp_dist_trial,34.0,t_s_13_1,travel_shared,contact lens case,10.0,competing,single,t_s_13_1.jpg,Travel,,,sub-34
Desktop or Laptop,Windows 10,Chrome 138.0.0.0,1920x1080,958x910,Temporal Distance Task,cb_10,34.0,temp_dist_trial,dist_items,qkpkxw,2.0,info,,5.699999809265138,0.0,5.699999809265138,5.699999809265138,0.0,5.699999809265138,1.0,0.0,0.0,,Slider,Slider,4.0,object-56,temp_dist_trial,34.0,t_s_13_1,travel_shared,contact lens case,10.0,competing,single,t_s_13_1.jpg,Travel,,,sub-34
Desktop or Laptop,Windows 10,Chrome 138.0.0.0,1920x1080,958x910,Temporal Distance Task,cb_10,34.0,temp_dist_trial,dist_items,qkpkxw,2.0,continue,,1893.6999998092651,1883.3999999999944,1893.6999998092651,1893.6999998092651,1883.3999999999944,1893.6999998092651,1.0,0.0,0.0,,Click To Continue,Next button,7.0,object-60,temp_dist_trial,34.0,t_s_13_1,travel_shared,contact lens case,10.0,competing,single,t_s_13_1.jpg,Travel,,,sub-34
Desktop or Laptop,Windows 10,Chrome 138.0.0.0,1920x1080,958x910,Temporal Distance Task,cb_10,34.0,temp_dist_trial,dist_items,qkpkxw,2.0,response,86,950.0,1883.3999999999944,1894.5999999046328,950.0,1883.3999999999944,1894.5999999046328,1.0,944.5999999046326,0.0,,Slider,Slider,4.0,object-56,temp_dist_trial,34.0,t_s_13_1,travel_shared,contact lens case,10.0,competing,single,t_s_13_1.jpg,Travel,,,sub-34
Desktop or Laptop,Windows 10,Chrome 138.0.0.0,1920x1080,958x910,Temporal Distance Task,cb_10,35.0,temp_dist_trial,num_items,zn7si1,1.0,response,1_ITEM,1942.6999999046384,1933.3000000000175,1942.6999999046384,1942.6999999046384,1933.3000000000175,1942.6999999046384,1.0,0.0,0.0,,Click Response,1_count,3.0,object-46,temp_dist_trial,35.0,t_s_08_1,travel_shared,hand lotion,10.0,competing,paired,t_s_08_1.jpg,Travel,,,sub-34
Desktop or Laptop,Windows 10,Chrome 138.0.0.0,1920x1080,958x910,Temporal Distance Task,cb_10,36.0,temp_dist_trial,num_items,zn7si1,1.0,response,2_ITEM,1676.099999713886,1666.5999999999767,1676.099999713886,1676.099999713886,1666.5999999999767,1676.099999713886,1.0,0.0,0.0,,Click Response,2_count,5.0,object-49,temp_dist_trial,36.0,t_s_07_1,travel_shared,phone charger cable,10.0,competing,paired,t_s_07_1.jpg,Travel,,,sub-34
Desktop or Laptop,Windows 10,Chrome 138.0.0.0,1920x1080,958x910,Temporal Distance Task,cb_10,36.0,temp_dist_trial,dist_items,qkpkxw,2.0,info,,6.299999904644212,0.0,6.299999904644212,6.299999904644212,0.0,6.299999904644212,1.0,0.0,0.0,,Slider,Slider,4.0,object-56,temp_dist_trial,36.0,t_s_07_1,travel_shared,phone charger cable,10.0,competing,paired,t_s_07_1.jpg,Travel,,,sub-34
Desktop or Laptop,Windows 10,Chrome 138.0.0.0,1920x1080,958x910,Temporal Distance Task,cb_10,36.0,temp_dist_trial,dist_items,qkpkxw,2.0,continue,,2684.3999998092772,2683.300000000017,2684.3999998092772,2684.3999998092772,2683.300000000017,2684.3999998092772,1.0,0.0,0.0,,Click To Continue,Next button,7.0,object-60,temp_dist_trial,36.0,t_s_07_1,travel_shared,phone charger cable,10.0,competing,paired,t_s_07_1.jpg,Travel,,,sub-34
Desktop or Laptop,Windows 10,Chrome 138.0.0.0,1920x1080,958x910,Temporal Distance Task,cb_10,36.0,temp_dist_trial,dist_items,qkpkxw,2.0,response,82,1016.7000000000116,2683.300000000017,2684.8999998092772,1016.7000000000116,2683.300000000017,2684.8999998092772,1.0,1668.1999998092651,0.0,,Slider,Slider,4.0,object-56,temp_dist_trial,36.0,t_s_07_1,travel_shared,phone charger cable,10.0,competing,paired,t_s_07_1.jpg,Travel,,,sub-34
Desktop or Laptop,Windows 10,Chrome 138.0.0.0,1920x1080,958x910,Temporal Distance Task,cb_10,37.0,temp_dist_trial,num_items,zn7si1,1.0,response,2_ITEM,1246.099999809259,1233.5,1246.099999809259,1246.099999809259,1233.5,1246.099999809259,1.0,0.0,0.0,,Click Response,2_count,5.0,object-49,temp_dist_trial,37.0,t_m_06_1,travel_Miami,handheld fan,10.0,unique,paired,t_m_06_1.jpg,Travel,,,sub-34
Desktop or Laptop,Windows 10,Chrome 138.0.0.0,1920x1080,958x910,Temporal Distance Task,cb_10,37.0,temp_dist_trial,dist_items,qkpkxw,2.0,info,,6.299999618524453,0.0,6.299999618524453,6.299999618524453,0.0,6.299999618524453,1.0,0.0,0.0,,Slider,Slider,4.0,object-56,temp_dist_trial,37.0,t_m_06_1,travel_Miami,handheld fan,10.0,unique,paired,t_m_06_1.jpg,Travel,,,sub-34
Desktop or Laptop,Windows 10,Chrome 138.0.0.0,1920x1080,958x910,Temporal Distance Task,cb_10,37.0,temp_dist_trial,dist_items,qkpkxw,2.0,continue,,2847.299999618525,2833.3999999999933,2847.299999618525,2847.299999618525,2833.3999999999933,2847.299999618525,1.0,0.0,0.0,,Click To Continue,Next button,7.0,object-60,temp_dist_trial,37.0,t_m_06_1,travel_Miami,handheld fan,10.0,unique,paired,t_m_06_1.jpg,Travel,,,sub-34
Desktop or Laptop,Windows 10,Chrome 138.0.0.0,1920x1080,958x910,Temporal Distance Task,cb_10,37.0,temp_dist_trial,dist_items,qkpkxw,2.0,response,52,2049.8999999999937,2833.3999999999933,2847.799999618525,2049.8999999999937,2833.3999999999933,2847.799999618525,1.0,797.8999996185303,0.0,,Slider,Slider,4.0,object-56,temp_dist_trial,37.0,t_m_06_1,travel_Miami,handheld fan,10.0,unique,paired,t_m_06_1.jpg,Travel,,,sub-34
Desktop or Laptop,Windows 10,Chrome 138.0.0.0,1920x1080,958x910,Temporal Distance Task,cb_10,38.0,temp_dist_trial,num_items,zn7si1,1.0,response,2_ITEM,1277.3999996185305,1266.5,1277.3999996185305,1277.3999996185305,1266.5,1277.3999996185305,1.0,0.0,0.0,,Click Response,2_count,5.0,object-49,temp_dist_trial,38.0,t_s_18_1,travel_shared,first aid kit,10.0,competing,paired,t_s_18_1.jpg,Travel,,,sub-34
Desktop or Laptop,Windows 10,Chrome 138.0.0.0,1920x1080,958x910,Temporal Distance Task,cb_10,38.0,temp_dist_trial,dist_items,qkpkxw,2.0,info,,5.599999809259317,0.0,5.599999809259317,5.599999809259317,0.0,5.599999809259317,1.0,0.0,0.0,,Slider,Slider,4.0,object-56,temp_dist_trial,38.0,t_s_18_1,travel_shared,first aid kit,10.0,competing,paired,t_s_18_1.jpg,Travel,,,sub-34
Desktop or Laptop,Windows 10,Chrome 138.0.0.0,1920x1080,958x910,Temporal Distance Task,cb_10,38.0,temp_dist_trial,dist_items,qkpkxw,2.0,continue,,2531.5999998092598,2516.6000000000063,2531.5999998092598,2531.5999998092598,2516.6000000000063,2531.5999998092598,1.0,0.0,0.0,,Click To Continue,Next button,7.0,object-60,temp_dist_trial,38.0,t_s_18_1,travel_shared,first aid kit,10.0,competing,paired,t_s_18_1.jpg,Travel,,,sub-34
Desktop or Laptop,Windows 10,Chrome 138.0.0.0,1920x1080,958x910,Temporal Distance Task,cb_10,38.0,temp_dist_trial,dist_items,qkpkxw,2.0,response,87,750.0,2516.6000000000063,2533.300000000017,750.0,2516.6000000000063,2533.300000000017,1.0,1783.3000000000175,0.0,,Slider,Slider,4.0,object-56,temp_dist_trial,38.0,t_s_18_1,travel_shared,first aid kit,10.0,competing,paired,t_s_18_1.jpg,Travel,,,sub-34
Desktop or Laptop,Windows 10,Chrome 138.0.0.0,1920x1080,958x910,Temporal Distance Task,cb_10,39.0,temp_dist_trial,num_items,zn7si1,1.0,response,2_ITEM,1016.7999999999593,1000.0999999999768,1016.7999999999593,1016.7999999999593,1000.0999999999768,1016.7999999999593,1.0,0.0,0.0,,Click Response,2_count,5.0,object-49,temp_dist_trial,39.0,t_s_09_1,travel_shared,wallet,10.0,competing,paired,t_s_09_1.jpg,Travel,,,sub-34
Desktop or Laptop,Windows 10,Chrome 138.0.0.0,1920x1080,958x910,Temporal Distance Task,cb_10,39.0,temp_dist_trial,dist_items,qkpkxw,2.0,info,,6.099999618541917,0.0,6.099999618541917,6.099999618541917,0.0,6.099999618541917,1.0,0.0,0.0,,Slider,Slider,4.0,object-56,temp_dist_trial,39.0,t_s_09_1,travel_shared,wallet,10.0,competing,paired,t_s_09_1.jpg,Travel,,,sub-34
Desktop or Laptop,Windows 10,Chrome 138.0.0.0,1920x1080,958x910,Temporal Distance Task,cb_10,39.0,temp_dist_trial,dist_items,qkpkxw,2.0,continue,,1787.099999618542,1783.3000000000175,1787.099999618542,1787.099999618542,1783.3000000000175,1787.099999618542,1.0,0.0,0.0,,Click To Continue,Next button,7.0,object-60,temp_dist_trial,39.0,t_s_09_1,travel_shared,wallet,10.0,competing,paired,t_s_09_1.jpg,Travel,,,sub-34
Desktop or Laptop,Windows 10,Chrome 138.0.0.0,1920x1080,958x910,Temporal Distance Task,cb_10,39.0,temp_dist_trial,dist_items,qkpkxw,2.0,response,85,850.0,1783.3000000000175,1787.7000000000116,850.0,1783.3000000000175,1787.7000000000116,1.0,937.7000000000116,0.0,,Slider,Slider,4.0,object-56,temp_dist_trial,39.0,t_s_09_1,travel_shared,wallet,10.0,competing,paired,t_s_09_1.jpg,Travel,,,sub-34
Desktop or Laptop,Windows 10,Chrome 138.0.0.0,1920x1080,958x910,Temporal Distance Task,cb_10,40.0,temp_dist_trial,num_items,zn7si1,1.0,response,2_ITEM,1653.9999999046267,1650.0,1653.9999999046267,1653.9999999046267,1650.0,1653.9999999046267,1.0,0.0,0.0,,Click Response,2_count,5.0,object-49,temp_dist_trial,40.0,t_s_03_1,travel_shared,portable charger,10.0,competing,paired,t_s_03_1.jpg,Travel,,,sub-34
Desktop or Laptop,Windows 10,Chrome 138.0.0.0,1920x1080,958x910,Temporal Distance Task,cb_10,40.0,temp_dist_trial,dist_items,qkpkxw,2.0,info,,6.0,0.0,6.0,6.0,0.0,6.0,1.0,0.0,0.0,,Slider,Slider,4.0,object-56,temp_dist_trial,40.0,t_s_03_1,travel_shared,portable charger,10.0,competing,paired,t_s_03_1.jpg,Travel,,,sub-34
Desktop or Laptop,Windows 10,Chrome 138.0.0.0,1920x1080,958x910,Temporal Distance Task,cb_10,40.0,temp_dist_trial,dist_items,qkpkxw,2.0,continue,,1707.7999997138975,1700.0,1707.7999997138975,1707.7999997138975,1700.0,1707.7999997138975,1.0,0.0,0.0,,Click To Continue,Next button,7.0,object-60,temp_dist_trial,40.0,t_s_03_1,travel_shared,portable charger,10.0,competing,paired,t_s_03_1.jpg,Travel,,,sub-34
Desktop or Laptop,Windows 10,Chrome 138.0.0.0,1920x1080,958x910,Temporal Distance Task,cb_10,40.0,temp_dist_trial,dist_items,qkpkxw,2.0,response,39,883.3999999999942,1700.0,1708.5999999046326,883.3999999999942,1700.0,1708.5999999046326,1.0,825.1999999046384,0.0,,Slider,Slider,4.0,object-56,temp_dist_trial,40.0,t_s_03_1,travel_shared,portable charger,10.0,competing,paired,t_s_03_1.jpg,Travel,,,sub-34
Desktop or Laptop,Windows 10,Chrome 138.0.0.0,1920x1080,958x910,Temporal Distance Task,cb_10,41.0,temp_dist_trial,num_items,zn7si1,1.0,response,1_ITEM,2702.099999904633,2700.1000000000063,2702.099999904633,2702.099999904633,2700.1000000000063,2702.099999904633,1.0,0.0,0.0,,Click Response,1_count,3.0,object-46,temp_dist_trial,41.0,t_s_23_1,travel_shared,ball cap,10.0,competing,single,t_s_23_1.jpg,Travel,,,sub-34
Desktop or Laptop,Windows 10,Chrome 138.0.0.0,1920x1080,958x910,Temporal Distance Task,cb_10,42.0,temp_dist_trial,num_items,zn7si1,1.0,response,2_ITEM,1170.7999997138975,1166.7000000000114,1170.7999997138975,1170.7999997138975,1166.7000000000114,1170.7999997138975,1.0,0.0,0.0,,Click Response,2_count,5.0,object-49,temp_dist_trial,42.0,t_m_03_1,travel_Miami,wetsuit,10.0,unique,paired,t_m_03_1.jpg,Travel,,,sub-34
Desktop or Laptop,Windows 10,Chrome 138.0.0.0,1920x1080,958x910,Temporal Distance Task,cb_10,42.0,temp_dist_trial,dist_items,qkpkxw,2.0,info,,7.099999713886063,0.0,7.099999713886063,7.099999713886063,0.0,7.099999713886063,1.0,0.0,0.0,,Slider,Slider,4.0,object-56,temp_dist_trial,42.0,t_m_03_1,travel_Miami,wetsuit,10.0,unique,paired,t_m_03_1.jpg,Travel,,,sub-34
Desktop or Laptop,Windows 10,Chrome 138.0.0.0,1920x1080,958x910,Temporal Distance Task,cb_10,42.0,temp_dist_trial,dist_items,qkpkxw,2.0,continue,,2030.9999998092533,2016.7999999999884,2030.9999998092533,2030.9999998092533,2016.7999999999884,2030.9999998092533,1.0,0.0,0.0,,Click To Continue,Next button,7.0,object-60,temp_dist_trial,42.0,t_m_03_1,travel_Miami,wetsuit,10.0,unique,paired,t_m_03_1.jpg,Travel,,,sub-34
Desktop or Laptop,Windows 10,Chrome 138.0.0.0,1920x1080,958x910,Temporal Distance Task,cb_10,42.0,temp_dist_trial,dist_items,qkpkxw,2.0,response,57,900.0,2016.7999999999884,2031.599999713886,900.0,2016.7999999999884,2031.599999713886,1.0,1131.599999713886,0.0,,Slider,Slider,4.0,object-56,temp_dist_trial,42.0,t_m_03_1,travel_Miami,wetsuit,10.0,unique,paired,t_m_03_1.jpg,Travel,,,sub-34
Desktop or Laptop,Windows 10,Chrome 138.0.0.0,1920x1080,958x910,Temporal Distance Task,cb_10,43.0,temp_dist_trial,num_items,zn7si1,1.0,response,2_ITEM,1103.0999999046326,1099.7999999999884,1103.0999999046326,1103.0999999046326,1099.7999999999884,1103.0999999046326,1.0,0.0,0.0,,Click Response,2_count,5.0,object-49,temp_dist_trial,43.0,t_s_15_1,travel_shared,luggage tag,10.0,competing,single,t_s_15_1.jpg,Travel,,,sub-34
Desktop or Laptop,Windows 10,Chrome 138.0.0.0,1920x1080,958x910,Temporal Distance Task,cb_10,43.0,temp_dist_trial,dist_items,qkpkxw,2.0,info,,6.099999618541917,0.0,6.099999618541917,6.099999618541917,0.0,6.099999618541917,1.0,0.0,0.0,,Slider,Slider,4.0,object-56,temp_dist_trial,43.0,t_s_15_1,travel_shared,luggage tag,10.0,competing,single,t_s_15_1.jpg,Travel,,,sub-34
Desktop or Laptop,Windows 10,Chrome 138.0.0.0,1920x1080,958x910,Temporal Distance Task,cb_10,43.0,temp_dist_trial,dist_items,qkpkxw,2.0,continue,,2831.299999904644,2816.800000000017,2831.299999904644,2831.299999904644,2816.800000000017,2831.299999904644,1.0,0.0,0.0,,Click To Continue,Next button,7.0,object-60,temp_dist_trial,43.0,t_s_15_1,travel_shared,luggage tag,10.0,competing,single,t_s_15_1.jpg,Travel,,,sub-34
Desktop or Laptop,Windows 10,Chrome 138.0.0.0,1920x1080,958x910,Temporal Distance Task,cb_10,43.0,temp_dist_trial,dist_items,qkpkxw,2.0,response,31,866.8000000000177,2816.800000000017,2831.599999618542,866.8000000000177,2816.800000000017,2831.599999618542,1.0,1964.7999996185245,0.0,,Slider,Slider,4.0,object-56,temp_dist_trial,43.0,t_s_15_1,travel_shared,luggage tag,10.0,competing,single,t_s_15_1.jpg,Travel,,,sub-34
Desktop or Laptop,Windows 10,Chrome 138.0.0.0,1920x1080,958x910,Temporal Distance Task,cb_10,44.0,temp_dist_trial,num_items,zn7si1,1.0,response,1_ITEM,1612.8999999999942,1599.8999999999942,1612.8999999999942,1612.8999999999942,1599.8999999999942,1612.8999999999942,1.0,0.0,0.0,,Click Response,1_count,3.0,object-46,temp_dist_trial,44.0,t_m_09_1,travel_Miami,beach towel,10.0,unique,single,t_m_09_1.jpg,Travel,,,sub-34
Desktop or Laptop,Windows 10,Chrome 138.0.0.0,1920x1080,958x910,Temporal Distance Task,cb_10,45.0,temp_dist_trial,num_items,zn7si1,1.0,response,2_ITEM,1055.0,1050.0,1055.0,1055.0,1050.0,1055.0,1.0,0.0,0.0,,Click Response,2_count,5.0,object-49,temp_dist_trial,45.0,t_i_11_1,travel_Iceland,headlamp,10.0,unique,single,t_i_11_1.jpg,Travel,,,sub-34
Desktop or Laptop,Windows 10,Chrome 138.0.0.0,1920x1080,958x910,Temporal Distance Task,cb_10,45.0,temp_dist_trial,dist_items,qkpkxw,2.0,info,,2.599999809259316,0.0,2.599999809259316,2.599999809259316,0.0,2.599999809259316,1.0,0.0,0.0,,Slider,Slider,4.0,object-56,temp_dist_trial,45.0,t_i_11_1,travel_Iceland,headlamp,10.0,unique,single,t_i_11_1.jpg,Travel,,,sub-34
Desktop or Laptop,Windows 10,Chrome 138.0.0.0,1920x1080,958x910,Temporal Distance Task,cb_10,45.0,temp_dist_trial,dist_items,qkpkxw,2.0,continue,,3941.4999999046254,3933.299999999989,3941.4999999046254,3941.4999999046254,3933.299999999989,3941.4999999046254,1.0,0.0,0.0,,Click To Continue,Next button,7.0,object-60,temp_dist_trial,45.0,t_i_11_1,travel_Iceland,headlamp,10.0,unique,single,t_i_11_1.jpg,Travel,,,sub-34
Desktop or Laptop,Windows 10,Chrome 138.0.0.0,1920x1080,958x910,Temporal Distance Task,cb_10,45.0,temp_dist_trial,dist_items,qkpkxw,2.0,response,37,1199.8999999999942,3933.299999999989,3949.1999997138923,1199.8999999999942,3933.299999999989,3949.1999997138923,1.0,2749.2999997138977,0.0,,Slider,Slider,4.0,object-56,temp_dist_trial,45.0,t_i_11_1,travel_Iceland,headlamp,10.0,unique,single,t_i_11_1.jpg,Travel,,,sub-34
Desktop or Laptop,Windows 10,Chrome 138.0.0.0,1920x1080,958x910,Temporal Distance Task,cb_10,46.0,temp_dist_trial,num_items,zn7si1,1.0,response,2_ITEM,1020.9999996185361,1016.7000000000116,1020.9999996185361,1020.9999996185361,1016.7000000000116,1020.9999996185361,1.0,0.0,0.0,,Click Response,2_count,5.0,object-49,temp_dist_trial,46.0,t_m_16_1,travel_Miami,flippers,10.0,unique,paired,t_m_16_1.jpg,Travel,,,sub-34
Desktop or Laptop,Windows 10,Chrome 138.0.0.0,1920x1080,958x910,Temporal Distance Task,cb_10,46.0,temp_dist_trial,dist_items,qkpkxw,2.0,info,,5.799999713897705,0.0,5.799999713897705,5.799999713897705,0.0,5.799999713897705,1.0,0.0,0.0,,Slider,Slider,4.0,object-56,temp_dist_trial,46.0,t_m_16_1,travel_Miami,flippers,10.0,unique,paired,t_m_16_1.jpg,Travel,,,sub-34
Desktop or Laptop,Windows 10,Chrome 138.0.0.0,1920x1080,958x910,Temporal Distance Task,cb_10,46.0,temp_dist_trial,dist_items,qkpkxw,2.0,continue,,3027.2999997138977,3016.6000000000067,3027.2999997138977,3027.2999997138977,3016.6000000000067,3027.2999997138977,1.0,0.0,0.0,,Click To Continue,Next button,7.0,object-60,temp_dist_trial,46.0,t_m_16_1,travel_Miami,flippers,10.0,unique,paired,t_m_16_1.jpg,Travel,,,sub-34
Desktop or Laptop,Windows 10,Chrome 138.0.0.0,1920x1080,958x910,Temporal Distance Task,cb_10,46.0,temp_dist_trial,dist_items,qkpkxw,2.0,response,74,1716.7000000000116,3016.6000000000067,3027.8999996185303,1716.7000000000116,3016.6000000000067,3027.8999996185303,1.0,1311.1999996185186,0.0,,Slider,Slider,4.0,object-56,temp_dist_trial,46.0,t_m_16_1,travel_Miami,flippers,10.0,unique,paired,t_m_16_1.jpg,Travel,,,sub-34
Desktop or Laptop,Windows 10,Chrome 138.0.0.0,1920x1080,958x910,Temporal Distance Task,cb_10,47.0,temp_dist_trial,num_items,zn7si1,1.0,response,2_ITEM,1766.8000000000175,1750.1000000000058,1766.8000000000175,1766.8000000000175,1750.1000000000058,1766.8000000000175,1.0,0.0,0.0,,Click Response,2_count,5.0,object-49,temp_dist_trial,47.0,t_i_01_1,travel_Iceland,gloves,10.0,unique,single,t_i_01_1.jpg,Travel,,,sub-34
Desktop or Laptop,Windows 10,Chrome 138.0.0.0,1920x1080,958x910,Temporal Distance Task,cb_10,47.0,temp_dist_trial,dist_items,qkpkxw,2.0,info,,2.899999904620927,0.0,2.899999904620927,2.899999904620927,0.0,2.899999904620927,1.0,0.0,0.0,,Slider,Slider,4.0,object-56,temp_dist_trial,47.0,t_i_01_1,travel_Iceland,gloves,10.0,unique,single,t_i_01_1.jpg,Travel,,,sub-34
Desktop or Laptop,Windows 10,Chrome 138.0.0.0,1920x1080,958x910,Temporal Distance Task,cb_10,47.0,temp_dist_trial,dist_items,qkpkxw,2.0,continue,,1868.9999998092533,1866.5999999999767,1868.9999998092533,1868.9999998092533,1866.5999999999767,1868.9999998092533,1.0,0.0,0.0,,Click To Continue,Next button,7.0,object-60,temp_dist_trial,47.0,t_i_01_1,travel_Iceland,gloves,10.0,unique,single,t_i_01_1.jpg,Travel,,,sub-34
Desktop or Laptop,Windows 10,Chrome 138.0.0.0,1920x1080,958x910,Temporal Distance Task,cb_10,47.0,temp_dist_trial,dist_items,qkpkxw,2.0,response,33,566.6999999999825,1866.5999999999767,1870.099999713886,566.6999999999825,1866.5999999999767,1870.099999713886,1.0,1303.3999997139035,0.0,,Slider,Slider,4.0,object-56,temp_dist_trial,47.0,t_i_01_1,travel_Iceland,gloves,10.0,unique,single,t_i_01_1.jpg,Travel,,,sub-34
Desktop or Laptop,Windows 10,Chrome 138.0.0.0,1920x1080,958x910,Temporal Distance Task,cb_10,48.0,temp_dist_trial,num_items,zn7si1,1.0,response,2_ITEM,1264.2999999046442,1250.1000000000058,1264.2999999046442,1264.2999999046442,1250.1000000000058,1264.2999999046442,1.0,0.0,0.0,,Click Response,2_count,5.0,object-49,temp_dist_trial,48.0,t_m_07_1,travel_Miami,sunglasses,10.0,unique,paired,t_m_07_1.jpg,Travel,,,sub-34
Desktop or Laptop,Windows 10,Chrome 138.0.0.0,1920x1080,958x910,Temporal Distance Task,cb_10,48.0,temp_dist_trial,dist_items,qkpkxw,2.0,info,,6.399999713903526,0.0,6.399999713903526,6.399999713903526,0.0,6.399999713903526,1.0,0.0,0.0,,Slider,Slider,4.0,object-56,temp_dist_trial,48.0,t_m_07_1,travel_Miami,sunglasses,10.0,unique,paired,t_m_07_1.jpg,Travel,,,sub-34
Desktop or Laptop,Windows 10,Chrome 138.0.0.0,1920x1080,958x910,Temporal Distance Task,cb_10,48.0,temp_dist_trial,dist_items,qkpkxw,2.0,continue,,2104.299999809271,2100.0,2104.299999809271,2104.299999809271,2100.0,2104.299999809271,1.0,0.0,0.0,,Click To Continue,Next button,7.0,object-60,temp_dist_trial,48.0,t_m_07_1,travel_Miami,sunglasses,10.0,unique,paired,t_m_07_1.jpg,Travel,,,sub-34
Desktop or Laptop,Windows 10,Chrome 138.0.0.0,1920x1080,958x910,Temporal Distance Task,cb_10,48.0,temp_dist_trial,dist_items,qkpkxw,2.0,response,27,950.0,2100.0,2111.6999999046384,950.0,2100.0,2111.6999999046384,1.0,1161.6999999046386,0.0,,Slider,Slider,4.0,object-56,temp_dist_trial,48.0,t_m_07_1,travel_Miami,sunglasses,10.0,unique,paired,t_m_07_1.jpg,Travel,,,sub-34
Desktop or Laptop,Windows 10,Chrome 138.0.0.0,1920x1080,958x910,Temporal Distance Task,cb_10,2.0,temp_eventStart,Screen 1,dgtyxe,1.0,continue,,902.1999999046384,900.0,902.1999999046384,902.1999999046384,900.0,902.1999999046384,1.0,0.0,0.0,,Click To Continue,Next Button,3.0,object-43,temp_eventStart,,,Student,,,,,,,,,sub-34
Desktop or Laptop,Windows 10,Chrome 138.0.0.0,1920x1080,958x910,Temporal Distance Task,cb_10,49.0,temp_dist_trial,num_items,zn7si1,1.0,response,2_ITEM,1363.999999618536,1349.8999999999942,1363.999999618536,1363.999999618536,1349.8999999999942,1363.999999618536,1.0,0.0,0.0,,Click Response,2_count,5.0,object-49,temp_dist_trial,1.0,s_sh_14_1,student_shared,printer,10.0,competing,paired,s_sh_14_1.jpg,Student,,,sub-34
Desktop or Laptop,Windows 10,Chrome 138.0.0.0,1920x1080,958x910,Temporal Distance Task,cb_10,49.0,temp_dist_trial,dist_items,qkpkxw,2.0,info,,6.2000000000116415,0.0,6.2000000000116415,6.2000000000116415,0.0,6.2000000000116415,1.0,0.0,0.0,,Slider,Slider,4.0,object-56,temp_dist_trial,1.0,s_sh_14_1,student_shared,printer,10.0,competing,paired,s_sh_14_1.jpg,Student,,,sub-34
Desktop or Laptop,Windows 10,Chrome 138.0.0.0,1920x1080,958x910,Temporal Distance Task,cb_10,49.0,temp_dist_trial,dist_items,qkpkxw,2.0,continue,,3069.099999618542,3066.800000000017,3069.099999618542,3069.099999618542,3066.800000000017,3069.099999618542,1.0,0.0,0.0,,Click To Continue,Next button,7.0,object-60,temp_dist_trial,1.0,s_sh_14_1,student_shared,printer,10.0,competing,paired,s_sh_14_1.jpg,Student,,,sub-34
Desktop or Laptop,Windows 10,Chrome 138.0.0.0,1920x1080,958x910,Temporal Distance Task,cb_10,49.0,temp_dist_trial,dist_items,qkpkxw,2.0,response,33,1500.2000000000116,3066.800000000017,3069.799999904644,1500.2000000000116,3066.800000000017,3069.799999904644,1.0,1569.5999999046326,0.0,,Slider,Slider,4.0,object-56,temp_dist_trial,1.0,s_sh_14_1,student_shared,printer,10.0,competing,paired,s_sh_14_1.jpg,Student,,,sub-34
Desktop or Laptop,Windows 10,Chrome 138.0.0.0,1920x1080,958x910,Temporal Distance Task,cb_10,50.0,temp_dist_trial,num_items,zn7si1,1.0,response,2_ITEM,1438.1999997138919,1433.2999999999884,1438.1999997138919,1438.1999997138919,1433.2999999999884,1438.1999997138919,1.0,0.0,0.0,,Click Response,2_count,5.0,object-49,temp_dist_trial,2.0,s_sh_13_1,student_shared,index cards,10.0,competing,paired,s_sh_13_1.jpg,Student,,,sub-34
Desktop or Laptop,Windows 10,Chrome 138.0.0.0,1920x1080,958x910,Temporal Distance Task,cb_10,50.0,temp_dist_trial,dist_items,qkpkxw,2.0,info,,5.600000000005821,0.0,5.600000000005821,5.600000000005821,0.0,5.600000000005821,1.0,0.0,0.0,,Slider,Slider,4.0,object-56,temp_dist_trial,2.0,s_sh_13_1,student_shared,index cards,10.0,competing,paired,s_sh_13_1.jpg,Student,,,sub-34
Desktop or Laptop,Windows 10,Chrome 138.0.0.0,1920x1080,958x910,Temporal Distance Task,cb_10,50.0,temp_dist_trial,dist_items,qkpkxw,2.0,continue,,1999.999999999971,1983.3999999999944,1999.999999999971,1999.999999999971,1983.3999999999944,1999.999999999971,1.0,0.0,0.0,,Click To Continue,Next button,7.0,object-60,temp_dist_trial,2.0,s_sh_13_1,student_shared,index cards,10.0,competing,paired,s_sh_13_1.jpg,Student,,,sub-34
Desktop or Laptop,Windows 10,Chrome 138.0.0.0,1920x1080,958x910,Temporal Distance Task,cb_10,50.0,temp_dist_trial,dist_items,qkpkxw,2.0,response,50,833.3000000000177,1983.3999999999944,1999.999999999971,833.3000000000177,1983.3999999999944,1999.999999999971,1.0,1166.6999999999534,0.0,,Slider,Slider,4.0,object-56,temp_dist_trial,2.0,s_sh_13_1,student_shared,index cards,10.0,competing,paired,s_sh_13_1.jpg,Student,,,sub-34
Desktop or Laptop,Windows 10,Chrome 138.0.0.0,1920x1080,958x910,Temporal Distance Task,cb_10,51.0,temp_dist_trial,num_items,zn7si1,1.0,response,2_ITEM,1750.8999998092768,1749.9000000000233,1750.8999998092768,1750.8999998092768,1749.9000000000233,1750.8999998092768,1.0,0.0,0.0,,Click Response,2_count,5.0,object-49,temp_dist_trial,3.0,s_sh_01_1,student_shared,notebook,10.0,competing,single,s_sh_01_1.jpg,Student,,,sub-34
Desktop or Laptop,Windows 10,Chrome 138.0.0.0,1920x1080,958x910,Temporal Distance Task,cb_10,51.0,temp_dist_trial,dist_items,qkpkxw,2.0,info,,2.0999997138860635,0.0,2.0999997138860635,2.0999997138860635,0.0,2.0999997138860635,1.0,0.0,0.0,,Slider,Slider,4.0,object-56,temp_dist_trial,3.0,s_sh_01_1,student_shared,notebook,10.0,competing,single,s_sh_01_1.jpg,Student,,,sub-34
Desktop or Laptop,Windows 10,Chrome 138.0.0.0,1920x1080,958x910,Temporal Distance Task,cb_10,51.0,temp_dist_trial,dist_items,qkpkxw,2.0,continue,,1990.7999999999884,1983.3999999999944,1990.7999999999884,1990.7999999999884,1983.3999999999944,1990.7999999999884,1.0,0.0,0.0,,Click To Continue,Next button,7.0,object-60,temp_dist_trial,3.0,s_sh_01_1,student_shared,notebook,10.0,competing,single,s_sh_01_1.jpg,Student,,,sub-34
Desktop or Laptop,Windows 10,Chrome 138.0.0.0,1920x1080,958x910,Temporal Distance Task,cb_10,51.0,temp_dist_trial,dist_items,qkpkxw,2.0,response,65,1050.0,1983.3999999999944,1991.399999904621,1050.0,1983.3999999999944,1991.399999904621,1.0,941.3999999046208,0.0,,Slider,Slider,4.0,object-56,temp_dist_trial,3.0,s_sh_01_1,student_shared,notebook,10.0,competing,single,s_sh_01_1.jpg,Student,,,sub-34
Desktop or Laptop,Windows 10,Chrome 138.0.0.0,1920x1080,958x910,Temporal Distance Task,cb_10,52.0,temp_dist_trial,num_items,zn7si1,1.0,response,1_ITEM,1266.7000000000114,1250.0,1266.7000000000114,1266.7000000000114,1250.0,1266.7000000000114,1.0,0.0,0.0,,Click Response,1_count,3.0,object-46,temp_dist_trial,4.0,s_s_15_1,student_stem,jumper cables,10.0,unique,paired,s_s_15_1.jpg,Student,,,sub-34
Desktop or Laptop,Windows 10,Chrome 138.0.0.0,1920x1080,958x910,Temporal Distance Task,cb_10,53.0,temp_dist_trial,num_items,zn7si1,1.0,response,2_ITEM,1517.2999996185245,1516.6000000000058,1517.2999996185245,1517.2999996185245,1516.6000000000058,1517.2999996185245,1.0,0.0,0.0,,Click Response,2_count,5.0,object-49,temp_dist_trial,5.0,s_s_08_1,student_stem,soldering iron,10.0,unique,paired,s_s_08_1.jpg,Student,,,sub-34
Desktop or Laptop,Windows 10,Chrome 138.0.0.0,1920x1080,958x910,Temporal Distance Task,cb_10,53.0,temp_dist_trial,dist_items,qkpkxw,2.0,info,,4.999999809253495,0.0,4.999999809253495,4.999999809253495,0.0,4.999999809253495,1.0,0.0,0.0,,Slider,Slider,4.0,object-56,temp_dist_trial,5.0,s_s_08_1,student_stem,soldering iron,10.0,unique,paired,s_s_08_1.jpg,Student,,,sub-34
Desktop or Laptop,Windows 10,Chrome 138.0.0.0,1920x1080,958x910,Temporal Distance Task,cb_10,53.0,temp_dist_trial,dist_items,qkpkxw,2.0,continue,,3594.6999996185186,3583.3999999999933,3594.6999996185186,3594.6999996185186,3583.3999999999933,3594.6999996185186,1.0,0.0,0.0,,Click To Continue,Next button,7.0,object-60,temp_dist_trial,5.0,s_s_08_1,student_stem,soldering iron,10.0,unique,paired,s_s_08_1.jpg,Student,,,sub-34
Desktop or Laptop,Windows 10,Chrome 138.0.0.0,1920x1080,958x910,Temporal Distance Task,cb_10,53.0,temp_dist_trial,dist_items,qkpkxw,2.0,response,65,1900.1999999999825,3583.3999999999933,3595.599999713886,1900.1999999999825,3583.3999999999933,3595.599999713886,1.0,1695.3999997139035,0.0,,Slider,Slider,4.0,object-56,temp_dist_trial,5.0,s_s_08_1,student_stem,soldering iron,10.0,unique,paired,s_s_08_1.jpg,Student,,,sub-34
Desktop or Laptop,Windows 10,Chrome 138.0.0.0,1920x1080,958x910,Temporal Distance Task,cb_10,54.0,temp_dist_trial,num_items,zn7si1,1.0,response,2_ITEM,1180.3999999999942,1166.6000000000058,1180.3999999999942,1180.3999999999942,1166.6000000000058,1180.3999999999942,1.0,0.0,0.0,,Click Response,2_count,5.0,object-49,temp_dist_trial,6.0,s_s_09_1,student_stem,multimeter,10.0,unique,paired,s_s_09_1.jpg,Student,,,sub-34
Desktop or Laptop,Windows 10,Chrome 138.0.0.0,1920x1080,958x910,Temporal Distance Task,cb_10,54.0,temp_dist_trial,dist_items,qkpkxw,2.0,info,,5.999999809253493,0.0,5.999999809253493,5.999999809253493,0.0,5.999999809253493,1.0,0.0,0.0,,Slider,Slider,4.0,object-56,temp_dist_trial,6.0,s_s_09_1,student_stem,multimeter,10.0,unique,paired,s_s_09_1.jpg,Student,,,sub-34
Desktop or Laptop,Windows 10,Chrome 138.0.0.0,1920x1080,958x910,Temporal Distance Task,cb_10,54.0,temp_dist_trial,dist_items,qkpkxw,2.0,continue,,2210.999999809253,2200.0,2210.999999809253,2210.999999809253,2200.0,2210.999999809253,1.0,0.0,0.0,,Click To Continue,Next button,7.0,object-60,temp_dist_trial,6.0,s_s_09_1,student_stem,multimeter,10.0,unique,paired,s_s_09_1.jpg,Student,,,sub-34
Desktop or Laptop,Windows 10,Chrome 138.0.0.0,1920x1080,958x910,Temporal Distance Task,cb_10,54.0,temp_dist_trial,dist_items,qkpkxw,2.0,response,62,1066.7999999999884,2200.0,2211.499999809253,1066.7999999999884,2200.0,2211.499999809253,1.0,1144.6999998092654,0.0,,Slider,Slider,4.0,object-56,temp_dist_trial,6.0,s_s_09_1,student_stem,multimeter,10.0,unique,paired,s_s_09_1.jpg,Student,,,sub-34
Desktop or Laptop,Windows 10,Chrome 138.0.0.0,1920x1080,958x910,Temporal Distance Task,cb_10,55.0,temp_dist_trial,num_items,zn7si1,1.0,response,2_ITEM,1948.899999904621,1933.5,1948.899999904621,1948.899999904621,1933.5,1948.899999904621,1.0,0.0,0.0,,Click Response,2_count,5.0,object-49,temp_dist_trial,7.0,s_sh_04_1,student_shared,laptop stand,10.0,competing,single,s_sh_04_1.jpg,Student,,,sub-34
Desktop or Laptop,Windows 10,Chrome 138.0.0.0,1920x1080,958x910,Temporal Distance Task,cb_10,55.0,temp_dist_trial,dist_items,qkpkxw,2.0,info,,5.4999999046267485,0.0,5.4999999046267485,5.4999999046267485,0.0,5.4999999046267485,1.0,0.0,0.0,,Slider,Slider,4.0,object-56,temp_dist_trial,7.0,s_sh_04_1,student_shared,laptop stand,10.0,competing,single,s_sh_04_1.jpg,Student,,,sub-34
Desktop or Laptop,Windows 10,Chrome 138.0.0.0,1920x1080,958x910,Temporal Distance Task,cb_10,55.0,temp_dist_trial,dist_items,qkpkxw,2.0,continue,,1833.6999999999825,1816.8999999999944,1833.6999999999825,1833.6999999999825,1816.8999999999944,1833.6999999999825,1.0,0.0,0.0,,Click To Continue,Next button,7.0,object-60,temp_dist_trial,7.0,s_sh_04_1,student_shared,laptop stand,10.0,competing,single,s_sh_04_1.jpg,Student,,,sub-34
Desktop or Laptop,Windows 10,Chrome 138.0.0.0,1920x1080,958x910,Temporal Distance Task,cb_10,55.0,temp_dist_trial,dist_items,qkpkxw,2.0,response,37,1033.5,1816.8999999999944,1833.6999999999825,1033.5,1816.8999999999944,1833.6999999999825,1.0,800.1999999999823,0.0,,Slider,Slider,4.0,object-56,temp_dist_trial,7.0,s_sh_04_1,student_shared,laptop stand,10.0,competing,single,s_sh_04_1.jpg,Student,,,sub-34
Desktop or Laptop,Windows 10,Chrome 138.0.0.0,1920x1080,958x910,Temporal Distance Task,cb_10,56.0,temp_dist_trial,num_items,zn7si1,1.0,response,2_ITEM,912.8999996185304,899.8999999999942,912.8999996185304,912.8999996185304,899.8999999999942,912.8999996185304,1.0,0.0,0.0,,Click Response,2_count,5.0,object-49,temp_dist_trial,8.0,s_sh_06_1,student_shared,clipboard,10.0,competing,paired,s_sh_06_1.jpg,Student,,,sub-34
Desktop or Laptop,Windows 10,Chrome 138.0.0.0,1920x1080,958x910,Temporal Distance Task,cb_10,56.0,temp_dist_trial,dist_items,qkpkxw,2.0,info,,5.799999999988358,0.0,5.799999999988358,5.799999999988358,0.0,5.799999999988358,1.0,0.0,0.0,,Slider,Slider,4.0,object-56,temp_dist_trial,8.0,s_sh_06_1,student_shared,clipboard,10.0,competing,paired,s_sh_06_1.jpg,Student,,,sub-34
Desktop or Laptop,Windows 10,Chrome 138.0.0.0,1920x1080,958x910,Temporal Distance Task,cb_10,56.0,temp_dist_trial,dist_items,qkpkxw,2.0,continue,,2062.899999904621,2050.1999999999825,2062.899999904621,2062.899999904621,2050.1999999999825,2062.899999904621,1.0,0.0,0.0,,Click To Continue,Next button,7.0,object-60,temp_dist_trial,8.0,s_sh_06_1,student_shared,clipboard,10.0,competing,paired,s_sh_06_1.jpg,Student,,,sub-34
Desktop or Laptop,Windows 10,Chrome 138.0.0.0,1920x1080,958x910,Temporal Distance Task,cb_10,56.0,temp_dist_trial,dist_items,qkpkxw,2.0,response,63,983.3999999999942,2050.1999999999825,2063.7999999999884,983.3999999999942,2050.1999999999825,2063.7999999999884,1.0,1080.3999999999942,0.0,,Slider,Slider,4.0,object-56,temp_dist_trial,8.0,s_sh_06_1,student_shared,clipboard,10.0,competing,paired,s_sh_06_1.jpg,Student,,,sub-34
Desktop or Laptop,Windows 10,Chrome 138.0.0.0,1920x1080,958x910,Temporal Distance Task,cb_10,57.0,temp_dist_trial,num_items,zn7si1,1.0,response,2_ITEM,1113.299999809271,1100.0,1113.299999809271,1113.299999809271,1100.0,1113.299999809271,1.0,0.0,0.0,,Click Response,2_count,5.0,object-49,temp_dist_trial,9.0,s_sh_07_1,student_shared,ruler,10.0,competing,paired,s_sh_07_1.jpg,Student,,,sub-34
Desktop or Laptop,Windows 10,Chrome 138.0.0.0,1920x1080,958x910,Temporal Distance Task,cb_10,57.0,temp_dist_trial,dist_items,qkpkxw,2.0,info,,5.999999809253493,0.0,5.999999809253493,5.999999809253493,0.0,5.999999809253493,1.0,0.0,0.0,,Slider,Slider,4.0,object-56,temp_dist_trial,9.0,s_sh_07_1,student_shared,ruler,10.0,competing,paired,s_sh_07_1.jpg,Student,,,sub-34
Desktop or Laptop,Windows 10,Chrome 138.0.0.0,1920x1080,958x910,Temporal Distance Task,cb_10,57.0,temp_dist_trial,dist_items,qkpkxw,2.0,continue,,1927.2999999999884,1916.7999999999884,1927.2999999999884,1927.2999999999884,1916.7999999999884,1927.2999999999884,1.0,0.0,0.0,,Click To Continue,Next button,7.0,object-60,temp_dist_trial,9.0,s_sh_07_1,student_shared,ruler,10.0,competing,paired,s_sh_07_1.jpg,Student,,,sub-34
Desktop or Laptop,Windows 10,Chrome 138.0.0.0,1920x1080,958x910,Temporal Distance Task,cb_10,57.0,temp_dist_trial,dist_items,qkpkxw,2.0,response,25,833.5,1916.7999999999884,1927.7999999999884,833.5,1916.7999999999884,1927.7999999999884,1.0,1094.2999999999884,0.0,,Slider,Slider,4.0,object-56,temp_dist_trial,9.0,s_sh_07_1,student_shared,ruler,10.0,competing,paired,s_sh_07_1.jpg,Student,,,sub-34
Desktop or Laptop,Windows 10,Chrome 138.0.0.0,1920x1080,958x910,Temporal Distance Task,cb_10,58.0,temp_dist_trial,num_items,zn7si1,1.0,response,2_ITEM,868.6999998092651,866.7999999999884,868.6999998092651,868.6999998092651,866.7999999999884,868.6999998092651,1.0,0.0,0.0,,Click Response,2_count,5.0,object-49,temp_dist_trial,10.0,s_a_12_1,student_art,saxophone,10.0,unique,paired,s_a_12_1.jpg,Student,,,sub-34
Desktop or Laptop,Windows 10,Chrome 138.0.0.0,1920x1080,958x910,Temporal Distance Task,cb_10,58.0,temp_dist_trial,dist_items,qkpkxw,2.0,info,,5.999999809253493,0.0,5.999999809253493,5.999999809253493,0.0,5.999999809253493,1.0,0.0,0.0,,Slider,Slider,4.0,object-56,temp_dist_trial,10.0,s_a_12_1,student_art,saxophone,10.0,unique,paired,s_a_12_1.jpg,Student,,,sub-34
Desktop or Laptop,Windows 10,Chrome 138.0.0.0,1920x1080,958x910,Temporal Distance Task,cb_10,58.0,temp_dist_trial,dist_items,qkpkxw,2.0,continue,,1819.7999999999884,1816.5999999999767,1819.7999999999884,1819.7999999999884,1816.5999999999767,1819.7999999999884,1.0,0.0,0.0,,Click To Continue,Next button,7.0,object-60,temp_dist_trial,10.0,s_a_12_1,student_art,saxophone,10.0,unique,paired,s_a_12_1.jpg,Student,,,sub-34
Desktop or Laptop,Windows 10,Chrome 138.0.0.0,1920x1080,958x910,Temporal Distance Task,cb_10,58.0,temp_dist_trial,dist_items,qkpkxw,2.0,response,30,966.8999999999942,1816.5999999999767,1820.4999998092533,966.8999999999942,1816.5999999999767,1820.4999998092533,1.0,853.5999998092592,0.0,,Slider,Slider,4.0,object-56,temp_dist_trial,10.0,s_a_12_1,student_art,saxophone,10.0,unique,paired,s_a_12_1.jpg,Student,,,sub-34
Desktop or Laptop,Windows 10,Chrome 138.0.0.0,1920x1080,958x910,Temporal Distance Task,cb_10,59.0,temp_dist_trial,num_items,zn7si1,1.0,response,2_ITEM,1308.8999998092768,1300.1000000000058,1308.8999998092768,1308.8999998092768,1300.1000000000058,1308.8999998092768,1.0,0.0,0.0,,Click Response,2_count,5.0,object-49,temp_dist_trial,11.0,s_sh_05_1,student_shared,laptop,10.0,competing,paired,s_sh_05_1.jpg,Student,,,sub-34
Desktop or Laptop,Windows 10,Chrome 138.0.0.0,1920x1080,958x910,Temporal Distance Task,cb_10,59.0,temp_dist_trial,dist_items,qkpkxw,2.0,info,,5.999999713909348,0.0,5.999999713909348,5.999999713909348,0.0,5.999999713909348,1.0,0.0,0.0,,Slider,Slider,4.0,object-56,temp_dist_trial,11.0,s_sh_05_1,student_shared,laptop,10.0,competing,paired,s_sh_05_1.jpg,Student,,,sub-34
Desktop or Laptop,Windows 10,Chrome 138.0.0.0,1920x1080,958x910,Temporal Distance Task,cb_10,59.0,temp_dist_trial,dist_items,qkpkxw,2.0,continue,,1776.8999998092768,1766.6000000000058,1776.8999998092768,1776.8999998092768,1766.6000000000058,1776.8999998092768,1.0,0.0,0.0,,Click To Continue,Next button,7.0,object-60,temp_dist_trial,11.0,s_sh_05_1,student_shared,laptop,10.0,competing,paired,s_sh_05_1.jpg,Student,,,sub-34
Desktop or Laptop,Windows 10,Chrome 138.0.0.0,1920x1080,958x910,Temporal Distance Task,cb_10,59.0,temp_dist_trial,dist_items,qkpkxw,2.0,response,49,833.5,1766.6000000000058,1777.9999997139093,833.5,1766.6000000000058,1777.9999997139093,1.0,944.4999997139093,0.0,,Slider,Slider,4.0,object-56,temp_dist_trial,11.0,s_sh_05_1,student_shared,laptop,10.0,competing,paired,s_sh_05_1.jpg,Student,,,sub-34
Desktop or Laptop,Windows 10,Chrome 138.0.0.0,1920x1080,958x910,Temporal Distance Task,cb_10,60.0,temp_dist_trial,num_items,zn7si1,1.0,response,2_ITEM,1008.1000000000058,1000.1000000000058,1008.1000000000058,1008.1000000000058,1000.1000000000058,1008.1000000000058,1.0,0.0,0.0,,Click Response,2_count,5.0,object-49,temp_dist_trial,12.0,s_a_18_1,student_art,tutu,10.0,unique,paired,s_a_18_1.jpg,Student,,,sub-34
Desktop or Laptop,Windows 10,Chrome 138.0.0.0,1920x1080,958x910,Temporal Distance Task,cb_10,60.0,temp_dist_trial,dist_items,qkpkxw,2.0,info,,3.6000000000058208,0.0,3.6000000000058208,3.6000000000058208,0.0,3.6000000000058208,1.0,0.0,0.0,,Slider,Slider,4.0,object-56,temp_dist_trial,12.0,s_a_18_1,student_art,tutu,10.0,unique,paired,s_a_18_1.jpg,Student,,,sub-34
Desktop or Laptop,Windows 10,Chrome 138.0.0.0,1920x1080,958x910,Temporal Distance Task,cb_10,60.0,temp_dist_trial,dist_items,qkpkxw,2.0,continue,,1775.1999999046384,1766.8000000000175,1775.1999999046384,1775.1999999046384,1766.8000000000175,1775.1999999046384,1.0,0.0,0.0,,Click To Continue,Next button,7.0,object-60,temp_dist_trial,12.0,s_a_18_1,student_art,tutu,10.0,unique,paired,s_a_18_1.jpg,Student,,,sub-34
Desktop or Laptop,Windows 10,Chrome 138.0.0.0,1920x1080,958x910,Temporal Distance Task,cb_10,60.0,temp_dist_trial,dist_items,qkpkxw,2.0,response,42,833.5,1766.8000000000175,1778.499999618536,833.5,1766.8000000000175,1778.499999618536,1.0,944.9999996185361,0.0,,Slider,Slider,4.0,object-56,temp_dist_trial,12.0,s_a_18_1,student_art,tutu,10.0,unique,paired,s_a_18_1.jpg,Student,,,sub-34
Desktop or Laptop,Windows 10,Chrome 138.0.0.0,1920x1080,958x910,Temporal Distance Task,cb_10,61.0,temp_dist_trial,num_items,zn7si1,1.0,response,1_ITEM,1189.4999998092535,1183.2999999999886,1189.4999998092535,1189.4999998092535,1183.2999999999886,1189.4999998092535,1.0,0.0,0.0,,Click Response,1_count,3.0,object-46,temp_dist_trial,13.0,s_s_02_1,student_stem,flask,10.0,unique,paired,s_s_02_1.jpg,Student,,,sub-34
Desktop or Laptop,Windows 10,Chrome 138.0.0.0,1920x1080,958x910,Temporal Distance Task,cb_10,62.0,temp_dist_trial,num_items,zn7si1,1.0,response,2_ITEM,1562.3999997139035,1550.3000000000175,1562.3999997139035,1562.3999997139035,1550.3000000000175,1562.3999997139035,1.0,0.0,0.0,,Click Response,2_count,5.0,object-49,temp_dist_trial,14.0,s_sh_17_1,student_shared,wireless mouse,10.0,competing,single,s_sh_17_1.jpg,Student,,,sub-34
Desktop or Laptop,Windows 10,Chrome 138.0.0.0,1920x1080,958x910,Temporal Distance Task,cb_10,62.0,temp_dist_trial,dist_items,qkpkxw,2.0,info,,5.199999904638389,0.0,5.199999904638389,5.199999904638389,0.0,5.199999904638389,1.0,0.0,0.0,,Slider,Slider,4.0,object-56,temp_dist_trial,14.0,s_sh_17_1,student_shared,wireless mouse,10.0,competing,single,s_sh_17_1.jpg,Student,,,sub-34
Desktop or Laptop,Windows 10,Chrome 138.0.0.0,1920x1080,958x910,Temporal Distance Task,cb_10,62.0,temp_dist_trial,dist_items,qkpkxw,2.0,continue,,1744.1999999046384,1733.5,1744.1999999046384,1744.1999999046384,1733.5,1744.1999999046384,1.0,0.0,0.0,,Click To Continue,Next button,7.0,object-60,temp_dist_trial,14.0,s_sh_17_1,student_shared,wireless mouse,10.0,competing,single,s_sh_17_1.jpg,Student,,,sub-34
Desktop or Laptop,Windows 10,Chrome 138.0.0.0,1920x1080,958x910,Temporal Distance Task,cb_10,62.0,temp_dist_trial,dist_items,qkpkxw,2.0,response,51,750.1000000000058,1733.5,1744.8999997139035,750.1000000000058,1733.5,1744.8999997139035,1.0,994.7999997138976,0.0,,Slider,Slider,4.0,object-56,temp_dist_trial,14.0,s_sh_17_1,student_shared,wireless mouse,10.0,competing,single,s_sh_17_1.jpg,Student,,,sub-34
Desktop or Laptop,Windows 10,Chrome 138.0.0.0,1920x1080,958x910,Temporal Distance Task,cb_10,63.0,temp_dist_trial,num_items,zn7si1,1.0,response,2_ITEM,1287.1000000000058,1283.2000000000114,1287.1000000000058,1287.1000000000058,1283.2000000000114,1287.1000000000058,1.0,0.0,0.0,,Click Response,2_count,5.0,object-49,temp_dist_trial,15.0,s_sh_24_1,student_shared,desk organizer,10.0,competing,paired,s_sh_24_1.jpg,Student,,,sub-34
Desktop or Laptop,Windows 10,Chrome 138.0.0.0,1920x1080,958x910,Temporal Distance Task,cb_10,63.0,temp_dist_trial,dist_items,qkpkxw,2.0,info,,5.799999999988358,0.0,5.799999999988358,5.799999999988358,0.0,5.799999999988358,1.0,0.0,0.0,,Slider,Slider,4.0,object-56,temp_dist_trial,15.0,s_sh_24_1,student_shared,desk organizer,10.0,competing,paired,s_sh_24_1.jpg,Student,,,sub-34
Desktop or Laptop,Windows 10,Chrome 138.0.0.0,1920x1080,958x910,Temporal Distance Task,cb_10,63.0,temp_dist_trial,dist_items,qkpkxw,2.0,continue,,1649.2999999999884,1633.2999999999884,1649.2999999999884,1649.2999999999884,1633.2999999999884,1649.2999999999884,1.0,0.0,0.0,,Click To Continue,Next button,7.0,object-60,temp_dist_trial,15.0,s_sh_24_1,student_shared,desk organizer,10.0,competing,paired,s_sh_24_1.jpg,Student,,,sub-34
Desktop or Laptop,Windows 10,Chrome 138.0.0.0,1920x1080,958x910,Temporal Distance Task,cb_10,63.0,temp_dist_trial,dist_items,qkpkxw,2.0,response,35,883.6999999999823,1633.2999999999884,1649.899999904621,883.6999999999823,1633.2999999999884,1649.899999904621,1.0,766.1999999046384,0.0,,Slider,Slider,4.0,object-56,temp_dist_trial,15.0,s_sh_24_1,student_shared,desk organizer,10.0,competing,paired,s_sh_24_1.jpg,Student,,,sub-34
Desktop or Laptop,Windows 10,Chrome 138.0.0.0,1920x1080,958x910,Temporal Distance Task,cb_10,64.0,temp_dist_trial,num_items,zn7si1,1.0,response,1_ITEM,1050.1999999999823,1033.3999999999942,1050.1999999999823,1050.1999999999823,1033.3999999999942,1050.1999999999823,1.0,0.0,0.0,,Click Response,1_count,3.0,object-46,temp_dist_trial,16.0,s_s_19_1,student_stem,circuit board,10.0,unique,paired,s_s_19_1.jpg,Student,,,sub-34
Desktop or Laptop,Windows 10,Chrome 138.0.0.0,1920x1080,958x910,Temporal Distance Task,cb_10,65.0,temp_dist_trial,num_items,zn7si1,1.0,response,2_ITEM,1818.7999997138975,1816.6000000000056,1818.7999997138975,1818.7999997138975,1816.6000000000056,1818.7999997138975,1.0,0.0,0.0,,Click Response,2_count,5.0,object-49,temp_dist_trial,17.0,s_sh_02_1,student_shared,eraser,10.0,competing,paired,s_sh_02_1.jpg,Student,,,sub-34
Desktop or Laptop,Windows 10,Chrome 138.0.0.0,1920x1080,958x910,Temporal Distance Task,cb_10,65.0,temp_dist_trial,dist_items,qkpkxw,2.0,info,,5.799999618524453,0.0,5.799999618524453,5.799999618524453,0.0,5.799999618524453,1.0,0.0,0.0,,Slider,Slider,4.0,object-56,temp_dist_trial,17.0,s_sh_02_1,student_shared,eraser,10.0,competing,paired,s_sh_02_1.jpg,Student,,,sub-34
Desktop or Laptop,Windows 10,Chrome 138.0.0.0,1920x1080,958x910,Temporal Distance Task,cb_10,65.0,temp_dist_trial,dist_items,qkpkxw,2.0,continue,,2229.8999999999937,2216.5,2229.8999999999937,2229.8999999999937,2216.5,2229.8999999999937,1.0,0.0,0.0,,Click To Continue,Next button,7.0,object-60,temp_dist_trial,17.0,s_sh_02_1,student_shared,eraser,10.0,competing,paired,s_sh_02_1.jpg,Student,,,sub-34
Desktop or Laptop,Windows 10,Chrome 138.0.0.0,1920x1080,958x910,Temporal Distance Task,cb_10,65.0,temp_dist_trial,dist_items,qkpkxw,2.0,response,73,899.8999999999942,2216.5,2230.4999999046267,899.8999999999942,2216.5,2230.4999999046267,1.0,1330.5999999046326,0.0,,Slider,Slider,4.0,object-56,temp_dist_trial,17.0,s_sh_02_1,student_shared,eraser,10.0,competing,paired,s_sh_02_1.jpg,Student,,,sub-34
Desktop or Laptop,Windows 10,Chrome 138.0.0.0,1920x1080,958x910,Temporal Distance Task,cb_10,66.0,temp_dist_trial,num_items,zn7si1,1.0,response,1_ITEM,1975.3999999999944,1966.6999999999825,1975.3999999999944,1975.3999999999944,1966.6999999999825,1975.3999999999944,1.0,0.0,0.0,,Click Response,1_count,3.0,object-46,temp_dist_trial,18.0,s_sh_03_1,student_shared,highlighter,10.0,competing,paired,s_sh_03_1.jpg,Student,,,sub-34
Desktop or Laptop,Windows 10,Chrome 138.0.0.0,1920x1080,958x910,Temporal Distance Task,cb_10,67.0,temp_dist_trial,num_items,zn7si1,1.0,response,1_ITEM,1654.299999809271,1649.8999999999942,1654.299999809271,1654.299999809271,1649.8999999999942,1654.299999809271,1.0,0.0,0.0,,Click Response,1_count,3.0,object-46,temp_dist_trial,19.0,s_a_07_1,student_art,yarn,10.0,unique,single,s_a_07_1.jpg,Student,,,sub-34
Desktop or Laptop,Windows 10,Chrome 138.0.0.0,1920x1080,958x910,Temporal Distance Task,cb_10,68.0,temp_dist_trial,num_items,zn7si1,1.0,response,2_ITEM,1024.6999996185186,1016.7999999999884,1024.6999996185186,1024.6999996185186,1016.7999999999884,1024.6999996185186,1.0,0.0,0.0,,Click Response,2_count,5.0,object-49,temp_dist_trial,20.0,s_sh_15_1,student_shared,usb drive,10.0,competing,paired,s_sh_15_1.jpg,Student,,,sub-34
Desktop or Laptop,Windows 10,Chrome 138.0.0.0,1920x1080,958x910,Temporal Distance Task,cb_10,68.0,temp_dist_trial,dist_items,qkpkxw,2.0,info,,6.099999809259317,0.0,6.099999809259317,6.099999809259317,0.0,6.099999809259317,1.0,0.0,0.0,,Slider,Slider,4.0,object-56,temp_dist_trial,20.0,s_sh_15_1,student_shared,usb drive,10.0,competing,paired,s_sh_15_1.jpg,Student,,,sub-34
Desktop or Laptop,Windows 10,Chrome 138.0.0.0,1920x1080,958x910,Temporal Distance Task,cb_10,68.0,temp_dist_trial,dist_items,qkpkxw,2.0,continue,,1184.7999996185245,1183.1999999999825,1184.7999996185245,1184.7999996185245,1183.1999999999825,1184.7999996185245,1.0,0.0,0.0,,Click To Continue,Next button,7.0,object-60,temp_dist_trial,20.0,s_sh_15_1,student_shared,usb drive,10.0,competing,paired,s_sh_15_1.jpg,Student,,,sub-34
Desktop or Laptop,Windows 10,Chrome 138.0.0.0,1920x1080,958x910,Temporal Distance Task,cb_10,68.0,temp_dist_trial,dist_items,qkpkxw,2.0,response,,1185.099999809259,1183.1999999999825,1185.099999809259,1185.099999809259,1183.1999999999825,1185.099999809259,1.0,0.0,0.0,,Slider,Slider,4.0,object-56,temp_dist_trial,20.0,s_sh_15_1,student_shared,usb drive,10.0,competing,paired,s_sh_15_1.jpg,Student,,,sub-34
Desktop or Laptop,Windows 10,Chrome 138.0.0.0,1920x1080,958x910,Temporal Distance Task,cb_10,69.0,temp_dist_trial,num_items,zn7si1,1.0,response,1_ITEM,1577.2999999046442,1566.8000000000175,1577.2999999046442,1577.2999999046442,1566.8000000000175,1577.2999999046442,1.0,0.0,0.0,,Click Response,1_count,3.0,object-46,temp_dist_trial,21.0,s_sh_09_1,student_shared,paper clips,10.0,competing,single,s_sh_09_1.jpg,Student,,,sub-34
Desktop or Laptop,Windows 10,Chrome 138.0.0.0,1920x1080,958x910,Temporal Distance Task,cb_10,70.0,temp_dist_trial,num_items,zn7si1,1.0,response,1_ITEM,1238.5,1233.2999999999886,1238.5,1238.5,1233.2999999999886,1238.5,1.0,0.0,0.0,,Click Response,1_count,3.0,object-46,temp_dist_trial,22.0,s_s_01_1,student_stem,microscope,10.0,unique,paired,s_s_01_1.jpg,Student,,,sub-34
Desktop or Laptop,Windows 10,Chrome 138.0.0.0,1920x1080,958x910,Temporal Distance Task,cb_10,71.0,temp_dist_trial,num_items,zn7si1,1.0,response,1_ITEM,1319.3999996185305,1316.7000000000114,1319.3999996185305,1319.3999996185305,1316.7000000000114,1319.3999996185305,1.0,0.0,0.0,,Click Response,1_count,3.0,object-46,temp_dist_trial,23.0,s_s_06_1,student_stem,calculator,10.0,unique,single,s_s_06_1.jpg,Student,,,sub-34
Desktop or Laptop,Windows 10,Chrome 138.0.0.0,1920x1080,958x910,Temporal Distance Task,cb_10,72.0,temp_dist_trial,num_items,zn7si1,1.0,response,1_ITEM,1582.3999996185305,1566.7000000000116,1582.3999996185305,1582.3999996185305,1566.7000000000116,1582.3999996185305,1.0,0.0,0.0,,Click Response,1_count,3.0,object-46,temp_dist_trial,24.0,s_a_15_1,student_art,drum kit,10.0,unique,single,s_a_15_1.jpg,Student,,,sub-34
Desktop or Laptop,Windows 10,Chrome 138.0.0.0,1920x1080,958x910,Temporal Distance Task,cb_10,73.0,temp_dist_trial,num_items,zn7si1,1.0,response,1_ITEM,1823.1999996185184,1816.5999999999767,1823.1999996185184,1823.1999996185184,1816.5999999999767,1823.1999996185184,1.0,0.0,0.0,,Click Response,1_count,3.0,object-46,temp_dist_trial,25.0,s_a_01_1,student_art,paintbrush,10.0,unique,single,s_a_01_1.jpg,Student,,,sub-34
Desktop or Laptop,Windows 10,Chrome 138.0.0.0,1920x1080,958x910,Temporal Distance Task,cb_10,74.0,temp_dist_trial,num_items,zn7si1,1.0,response,2_ITEM,1380.6000000000058,1366.6000000000058,1380.6000000000058,1380.6000000000058,1366.6000000000058,1380.6000000000058,1.0,0.0,0.0,,Click Response,2_count,5.0,object-49,temp_dist_trial,26.0,s_a_17_1,student_art,microphone,10.0,unique,paired,s_a_17_1.jpg,Student,,,sub-34
Desktop or Laptop,Windows 10,Chrome 138.0.0.0,1920x1080,958x910,Temporal Distance Task,cb_10,74.0,temp_dist_trial,dist_items,qkpkxw,2.0,info,,5.5,0.0,5.5,5.5,0.0,5.5,1.0,0.0,0.0,,Slider,Slider,4.0,object-56,temp_dist_trial,26.0,s_a_17_1,student_art,microphone,10.0,unique,paired,s_a_17_1.jpg,Student,,,sub-34
Desktop or Laptop,Windows 10,Chrome 138.0.0.0,1920x1080,958x910,Temporal Distance Task,cb_10,74.0,temp_dist_trial,dist_items,qkpkxw,2.0,continue,,1928.2999997138975,1916.7000000000119,1928.2999997138975,1928.2999997138975,1916.7000000000119,1928.2999997138975,1.0,0.0,0.0,,Click To Continue,Next button,7.0,object-60,temp_dist_trial,26.0,s_a_17_1,student_art,microphone,10.0,unique,paired,s_a_17_1.jpg,Student,,,sub-34
Desktop or Laptop,Windows 10,Chrome 138.0.0.0,1920x1080,958x910,Temporal Distance Task,cb_10,74.0,temp_dist_trial,dist_items,qkpkxw,2.0,response,79,783.2999999999884,1916.7000000000119,1932.8999996185305,783.2999999999884,1916.7000000000119,1932.8999996185305,1.0,1149.599999618542,0.0,,Slider,Slider,4.0,object-56,temp_dist_trial,26.0,s_a_17_1,student_art,microphone,10.0,unique,paired,s_a_17_1.jpg,Student,,,sub-34
Desktop or Laptop,Windows 10,Chrome 138.0.0.0,1920x1080,958x910,Temporal Distance Task,cb_10,75.0,temp_dist_trial,num_items,zn7si1,1.0,response,2_ITEM,1211.6999996185186,1200.0,1211.6999996185186,1211.6999996185186,1200.0,1211.6999996185186,1.0,0.0,0.0,,Click Response,2_count,5.0,object-49,temp_dist_trial,27.0,s_a_05_1,student_art,clay,10.0,unique,paired,s_a_05_1.jpg,Student,,,sub-34
Desktop or Laptop,Windows 10,Chrome 138.0.0.0,1920x1080,958x910,Temporal Distance Task,cb_10,75.0,temp_dist_trial,dist_items,qkpkxw,2.0,info,,5.399999999994179,0.0,5.399999999994179,5.399999999994179,0.0,5.399999999994179,1.0,0.0,0.0,,Slider,Slider,4.0,object-56,temp_dist_trial,27.0,s_a_05_1,student_art,clay,10.0,unique,paired,s_a_05_1.jpg,Student,,,sub-34
Desktop or Laptop,Windows 10,Chrome 138.0.0.0,1920x1080,958x910,Temporal Distance Task,cb_10,75.0,temp_dist_trial,dist_items,qkpkxw,2.0,continue,,1623.7999996185245,1616.6999999999825,1623.7999996185245,1623.7999996185245,1616.6999999999825,1623.7999996185245,1.0,0.0,0.0,,Click To Continue,Next button,7.0,object-60,temp_dist_trial,27.0,s_a_05_1,student_art,clay,10.0,unique,paired,s_a_05_1.jpg,Student,,,sub-34
Desktop or Laptop,Windows 10,Chrome 138.0.0.0,1920x1080,958x910,Temporal Distance Task,cb_10,75.0,temp_dist_trial,dist_items,qkpkxw,2.0,response,51,850.0,1616.6999999999825,1624.4999999046267,850.0,1616.6999999999825,1624.4999999046267,1.0,774.4999999046267,0.0,,Slider,Slider,4.0,object-56,temp_dist_trial,27.0,s_a_05_1,student_art,clay,10.0,unique,paired,s_a_05_1.jpg,Student,,,sub-34
Desktop or Laptop,Windows 10,Chrome 138.0.0.0,1920x1080,958x910,Temporal Distance Task,cb_10,76.0,temp_dist_trial,num_items,zn7si1,1.0,response,2_ITEM,1585.099999618542,1583.4000000000233,1585.099999618542,1585.099999618542,1583.4000000000233,1585.099999618542,1.0,0.0,0.0,,Click Response,2_count,5.0,object-49,temp_dist_trial,28.0,s_sh_21_1,student_shared,file holder,10.0,competing,paired,s_sh_21_1.jpg,Student,,,sub-34
Desktop or Laptop,Windows 10,Chrome 138.0.0.0,1920x1080,958x910,Temporal Distance Task,cb_10,76.0,temp_dist_trial,dist_items,qkpkxw,2.0,info,,6.299999999988358,0.0,6.299999999988358,6.299999999988358,0.0,6.299999999988358,1.0,0.0,0.0,,Slider,Slider,4.0,object-56,temp_dist_trial,28.0,s_sh_21_1,student_shared,file holder,10.0,competing,paired,s_sh_21_1.jpg,Student,,,sub-34
Desktop or Laptop,Windows 10,Chrome 138.0.0.0,1920x1080,958x910,Temporal Distance Task,cb_10,76.0,temp_dist_trial,dist_items,qkpkxw,2.0,continue,,1918.6999996185184,1916.2000000000119,1918.6999996185184,1918.6999996185184,1916.2000000000119,1918.6999996185184,1.0,0.0,0.0,,Click To Continue,Next button,7.0,object-60,temp_dist_trial,28.0,s_sh_21_1,student_shared,file holder,10.0,competing,paired,s_sh_21_1.jpg,Student,,,sub-34
Desktop or Laptop,Windows 10,Chrome 138.0.0.0,1920x1080,958x910,Temporal Distance Task,cb_10,76.0,temp_dist_trial,dist_items,qkpkxw,2.0,response,34,732.7999999999884,1916.2000000000119,1919.599999713886,732.7999999999884,1916.2000000000119,1919.599999713886,1.0,1186.7999997138975,0.0,,Slider,Slider,4.0,object-56,temp_dist_trial,28.0,s_sh_21_1,student_shared,file holder,10.0,competing,paired,s_sh_21_1.jpg,Student,,,sub-34
Desktop or Laptop,Windows 10,Chrome 138.0.0.0,1920x1080,958x910,Temporal Distance Task,cb_10,77.0,temp_dist_trial,num_items,zn7si1,1.0,response,2_ITEM,1218.8999997138744,1216.5,1218.8999997138744,1218.8999997138744,1216.5,1218.8999997138744,1.0,0.0,0.0,,Click Response,2_count,5.0,object-49,temp_dist_trial,29.0,s_a_02_1,student_art,canvas,10.0,unique,paired,s_a_02_1.jpg,Student,,,sub-34
Desktop or Laptop,Windows 10,Chrome 138.0.0.0,1920x1080,958x910,Temporal Distance Task,cb_10,77.0,temp_dist_trial,dist_items,qkpkxw,2.0,info,,5.2999996185535565,0.0,5.2999996185535565,5.2999996185535565,0.0,5.2999996185535565,1.0,0.0,0.0,,Slider,Slider,4.0,object-56,temp_dist_trial,29.0,s_a_02_1,student_art,canvas,10.0,unique,paired,s_a_02_1.jpg,Student,,,sub-34
Desktop or Laptop,Windows 10,Chrome 138.0.0.0,1920x1080,958x910,Temporal Distance Task,cb_10,77.0,temp_dist_trial,dist_items,qkpkxw,2.0,continue,,2859.9000000000237,2850.0,2859.9000000000237,2859.9000000000237,2850.0,2859.9000000000237,1.0,0.0,0.0,,Click To Continue,Next button,7.0,object-60,temp_dist_trial,29.0,s_a_02_1,student_art,canvas,10.0,unique,paired,s_a_02_1.jpg,Student,,,sub-34
Desktop or Laptop,Windows 10,Chrome 138.0.0.0,1920x1080,958x910,Temporal Distance Task,cb_10,77.0,temp_dist_trial,dist_items,qkpkxw,2.0,response,64,1949.9000000000235,2850.0,2865.0999998092884,1949.9000000000235,2850.0,2865.0999998092884,1.0,915.1999998092653,0.0,,Slider,Slider,4.0,object-56,temp_dist_trial,29.0,s_a_02_1,student_art,canvas,10.0,unique,paired,s_a_02_1.jpg,Student,,,sub-34
Desktop or Laptop,Windows 10,Chrome 138.0.0.0,1920x1080,958x910,Temporal Distance Task,cb_10,78.0,temp_dist_trial,num_items,zn7si1,1.0,response,1_ITEM,2314.0999998092884,2300.0,2314.0999998092884,2314.0999998092884,2300.0,2314.0999998092884,1.0,0.0,0.0,,Click Response,1_count,3.0,object-46,temp_dist_trial,30.0,s_s_11_1,student_stem,scientific scale,10.0,unique,single,s_s_11_1.jpg,Student,,,sub-34
Desktop or Laptop,Windows 10,Chrome 138.0.0.0,1920x1080,958x910,Temporal Distance Task,cb_10,79.0,temp_dist_trial,num_items,zn7si1,1.0,response,2_ITEM,1225.5,1216.7000000000114,1225.5,1225.5,1216.7000000000114,1225.5,1.0,0.0,0.0,,Click Response,2_count,5.0,object-49,temp_dist_trial,31.0,s_a_14_1,student_art,guitar pick,10.0,unique,paired,s_a_14_1.jpg,Student,,,sub-34
