Participant Device,Participant OS,Participant Browser,Participant Monitor Size,Participant Viewport Size,Task Name,Current Spreadsheet,Trial Number,Display,Screen,Screen ID,Screen Counter,Response Type,Response,Onset Time,Clock Time,Reaction Time,Absolute Onset Time,Absolute Clock Time,Absolute Reaction Time,Correct,Response Duration,Proportion,Tag,Component Name,Object Name,Object Number,Object ID,Spreadsheet: display,Spreadsheet: trial,Spreadsheet: stimulus_id,Spreadsheet: expected_goal,Spreadsheet: stimulus_name,Spreadsheet: c_group,Spreadsheet: condition,Spreadsheet: paired_status,Spreadsheet: stimulus_path,Spreadsheet: block_type,Manipulation: Spreadsheet,Store: enc_test_acc,sub_label
Desktop or Laptop,Windows 10,Edge 138.0.0.0,1920x1080,1912x924,Temporal Distance Task,$${counterbalance_group},,,,,,info,BEGIN,,,,,,,0.0,,,,,,,,,,,,,,,,,,,,sub-56
Desktop or Laptop,Windows 10,Edge 138.0.0.0,1920x1080,1912x924,Temporal Distance Task,cb_06,1.0,temp_instructions,intro_screen,3tnme7,1.0,continue,,8665.699999999999,8649.099999999999,8665.699999999999,8665.699999999999,8649.099999999999,8665.699999999999,1.0,0.0,0.0,,Click To Continue,Continue Button,4.0,object-29,temp_instructions,,,Travel,,,,,,,,,sub-56
Desktop or Laptop,Windows 10,Edge 138.0.0.0,1920x1080,1912x924,Temporal Distance Task,cb_06,1.0,temp_instructions,intro_screen_2,52v7ur,2.0,continue,,6735.300000002981,6732.500000000003,6735.300000002981,6735.300000002981,6732.500000000003,6735.300000002981,1.0,0.0,0.0,,Click To Continue,Continue Button,4.0,object-39,temp_instructions,,,Travel,,,,,,,,,sub-56
Desktop or Laptop,Windows 10,Edge 138.0.0.0,1920x1080,1912x924,Temporal Distance Task,cb_06,1.0,temp_instructions,intro_screen_3,i7lvwx,3.0,continue,,12032.1,12015.399999999998,12032.1,12032.1,12015.399999999998,12032.1,1.0,0.0,0.0,,Click To Continue,Continue Button,4.0,object-67,temp_instructions,,,Travel,,,,,,,,,sub-56
Desktop or Laptop,Windows 10,Edge 138.0.0.0,1920x1080,1912x924,Temporal Distance Task,cb_06,1.0,temp_instructions,test_q1,5ieqx1,4.0,response,choice_3,4226.4999999970205,4216.299999999998,4226.4999999970205,4226.4999999970205,4216.299999999998,4226.4999999970205,1.0,0.0,0.0,,Click Response,choice_3,5.0,object-345,temp_instructions,,,Travel,,,,,,,,,sub-56
Desktop or Laptop,Windows 10,Edge 138.0.0.0,1920x1080,1912x924,Temporal Distance Task,cb_06,1.0,temp_instructions,score_corr,7ilvjr,5.0,continue,,1054.1000000029815,1049.5999999999983,1054.1000000029815,1054.1000000029815,1049.5999999999983,1054.1000000029815,1.0,0.0,0.0,,Click To Continue,Continue Button,3.0,object-23,temp_instructions,,,Travel,,,,,,,,,sub-56
Desktop or Laptop,Windows 10,Edge 138.0.0.0,1920x1080,1912x924,Temporal Distance Task,cb_06,1.0,temp_eventStart,Screen 1,dgtyxe,1.0,continue,,1336.5000000029831,1333.2000000000044,1336.5000000029831,1336.5000000029831,1333.2000000000044,1336.5000000029831,1.0,0.0,0.0,,Click To Continue,Next Button,3.0,object-43,temp_eventStart,,,Travel,,,,,,,,,sub-56
Desktop or Laptop,Windows 10,Edge 138.0.0.0,1920x1080,1912x924,Temporal Distance Task,cb_06,1.0,temp_dist_trial,num_items,zn7si1,1.0,response,2_ITEM,1366.8999999999942,1350.1999999999969,1366.8999999999942,1366.8999999999942,1350.1999999999969,1366.8999999999942,1.0,0.0,0.0,,Click Response,2_count,5.0,object-49,temp_dist_trial,1.0,t_i_05_1,travel_Iceland,hiking boots,6.0,unique,single,t_i_05_1.jpg,Travel,,,sub-56
Desktop or Laptop,Windows 10,Edge 138.0.0.0,1920x1080,1912x924,Temporal Distance Task,cb_06,1.0,temp_dist_trial,dist_items,qkpkxw,2.0,info,,14.799999994036625,0.0,14.799999994036625,14.799999994036625,0.0,14.799999994036625,1.0,0.0,0.0,,Slider,Slider,4.0,object-56,temp_dist_trial,1.0,t_i_05_1,travel_Iceland,hiking boots,6.0,unique,single,t_i_05_1.jpg,Travel,,,sub-56
Desktop or Laptop,Windows 10,Edge 138.0.0.0,1920x1080,1912x924,Temporal Distance Task,cb_06,1.0,temp_dist_trial,dist_items,qkpkxw,2.0,continue,,2601.499999997017,2599.5999999999985,2601.499999997017,2601.499999997017,2599.5999999999985,2601.499999997017,1.0,0.0,0.0,,Click To Continue,Next button,7.0,object-60,temp_dist_trial,1.0,t_i_05_1,travel_Iceland,hiking boots,6.0,unique,single,t_i_05_1.jpg,Travel,,,sub-56
Desktop or Laptop,Windows 10,Edge 138.0.0.0,1920x1080,1912x924,Temporal Distance Task,cb_06,1.0,temp_dist_trial,dist_items,qkpkxw,2.0,response,73,1583.3999999999942,2599.5999999999985,2609.799999994037,1583.3999999999942,2599.5999999999985,2609.799999994037,1.0,1026.3999999940424,0.0,,Slider,Slider,4.0,object-56,temp_dist_trial,1.0,t_i_05_1,travel_Iceland,hiking boots,6.0,unique,single,t_i_05_1.jpg,Travel,,,sub-56
Desktop or Laptop,Windows 10,Edge 138.0.0.0,1920x1080,1912x924,Temporal Distance Task,cb_06,2.0,temp_dist_trial,num_items,zn7si1,1.0,response,2_ITEM,1536.199999994038,1533.1999999999966,1536.199999994038,1536.199999994038,1533.1999999999966,1536.199999994038,1.0,0.0,0.0,,Click Response,2_count,5.0,object-49,temp_dist_trial,2.0,t_s_18_1,travel_shared,first aid kit,6.0,competing,single,t_s_18_1.jpg,Travel,,,sub-56
Desktop or Laptop,Windows 10,Edge 138.0.0.0,1920x1080,1912x924,Temporal Distance Task,cb_06,2.0,temp_dist_trial,dist_items,qkpkxw,2.0,info,,13.19999999999709,0.0,13.19999999999709,13.19999999999709,0.0,13.19999999999709,1.0,0.0,0.0,,Slider,Slider,4.0,object-56,temp_dist_trial,2.0,t_s_18_1,travel_shared,first aid kit,6.0,competing,single,t_s_18_1.jpg,Travel,,,sub-56
Desktop or Laptop,Windows 10,Edge 138.0.0.0,1920x1080,1912x924,Temporal Distance Task,cb_06,2.0,temp_dist_trial,dist_items,qkpkxw,2.0,continue,,3568.699999999997,3566.0,3568.699999999997,3568.699999999997,3566.0,3568.699999999997,1.0,0.0,0.0,,Click To Continue,Next button,7.0,object-60,temp_dist_trial,2.0,t_s_18_1,travel_shared,first aid kit,6.0,competing,single,t_s_18_1.jpg,Travel,,,sub-56
Desktop or Laptop,Windows 10,Edge 138.0.0.0,1920x1080,1912x924,Temporal Distance Task,cb_06,2.0,temp_dist_trial,dist_items,qkpkxw,2.0,response,60,1399.8999999999942,3566.0,3569.699999999997,1399.8999999999942,3566.0,3569.699999999997,1.0,2169.800000000003,0.0,,Slider,Slider,4.0,object-56,temp_dist_trial,2.0,t_s_18_1,travel_shared,first aid kit,6.0,competing,single,t_s_18_1.jpg,Travel,,,sub-56
Desktop or Laptop,Windows 10,Edge 138.0.0.0,1920x1080,1912x924,Temporal Distance Task,cb_06,3.0,temp_dist_trial,num_items,zn7si1,1.0,response,2_ITEM,1214.4000000029773,1200.1999999999969,1214.4000000029773,1214.4000000029773,1200.1999999999969,1214.4000000029773,1.0,0.0,0.0,,Click Response,2_count,5.0,object-49,temp_dist_trial,3.0,t_s_13_1,travel_shared,contact lens case,6.0,competing,paired,t_s_13_1.jpg,Travel,,,sub-56
Desktop or Laptop,Windows 10,Edge 138.0.0.0,1920x1080,1912x924,Temporal Distance Task,cb_06,3.0,temp_dist_trial,dist_items,qkpkxw,2.0,info,,13.19999999403808,0.0,13.19999999403808,13.19999999403808,0.0,13.19999999403808,1.0,0.0,0.0,,Slider,Slider,4.0,object-56,temp_dist_trial,3.0,t_s_13_1,travel_shared,contact lens case,6.0,competing,paired,t_s_13_1.jpg,Travel,,,sub-56
Desktop or Laptop,Windows 10,Edge 138.0.0.0,1920x1080,1912x924,Temporal Distance Task,cb_06,3.0,temp_dist_trial,dist_items,qkpkxw,2.0,continue,,5372.399999997017,5366.199999999997,5372.399999997017,5372.399999997017,5366.199999999997,5372.399999997017,1.0,0.0,0.0,,Click To Continue,Next button,7.0,object-60,temp_dist_trial,3.0,t_s_13_1,travel_shared,contact lens case,6.0,competing,paired,t_s_13_1.jpg,Travel,,,sub-56
Desktop or Laptop,Windows 10,Edge 138.0.0.0,1920x1080,1912x924,Temporal Distance Task,cb_06,3.0,temp_dist_trial,dist_items,qkpkxw,2.0,response,30,1816.5,5366.199999999997,5383.199999999997,1816.5,5366.199999999997,5383.199999999997,1.0,3566.699999999997,0.0,,Slider,Slider,4.0,object-56,temp_dist_trial,3.0,t_s_13_1,travel_shared,contact lens case,6.0,competing,paired,t_s_13_1.jpg,Travel,,,sub-56
Desktop or Laptop,Windows 10,Edge 138.0.0.0,1920x1080,1912x924,Temporal Distance Task,cb_06,4.0,temp_dist_trial,num_items,zn7si1,1.0,response,2_ITEM,2145.999999994041,2132.7000000000044,2145.999999994041,2145.999999994041,2132.7000000000044,2145.999999994041,1.0,0.0,0.0,,Click Response,2_count,5.0,object-49,temp_dist_trial,4.0,t_i_11_1,travel_Iceland,headlamp,6.0,unique,paired,t_i_11_1.jpg,Travel,,,sub-56
Desktop or Laptop,Windows 10,Edge 138.0.0.0,1920x1080,1912x924,Temporal Distance Task,cb_06,4.0,temp_dist_trial,dist_items,qkpkxw,2.0,info,,12.299999994036625,0.0,12.299999994036625,12.299999994036625,0.0,12.299999994036625,1.0,0.0,0.0,,Slider,Slider,4.0,object-56,temp_dist_trial,4.0,t_i_11_1,travel_Iceland,headlamp,6.0,unique,paired,t_i_11_1.jpg,Travel,,,sub-56
Desktop or Laptop,Windows 10,Edge 138.0.0.0,1920x1080,1912x924,Temporal Distance Task,cb_06,4.0,temp_dist_trial,dist_items,qkpkxw,2.0,continue,,3620.099999991056,3616.199999999997,3620.099999991056,3620.099999991056,3616.199999999997,3620.099999991056,1.0,0.0,0.0,,Click To Continue,Next button,7.0,object-60,temp_dist_trial,4.0,t_i_11_1,travel_Iceland,headlamp,6.0,unique,paired,t_i_11_1.jpg,Travel,,,sub-56
Desktop or Laptop,Windows 10,Edge 138.0.0.0,1920x1080,1912x924,Temporal Distance Task,cb_06,4.0,temp_dist_trial,dist_items,qkpkxw,2.0,response,40,2033.0,3616.199999999997,3621.099999991056,2033.0,3616.199999999997,3621.099999991056,1.0,1588.0999999910566,0.0,,Slider,Slider,4.0,object-56,temp_dist_trial,4.0,t_i_11_1,travel_Iceland,headlamp,6.0,unique,paired,t_i_11_1.jpg,Travel,,,sub-56
Desktop or Laptop,Windows 10,Edge 138.0.0.0,1920x1080,1912x924,Temporal Distance Task,cb_06,5.0,temp_dist_trial,num_items,zn7si1,1.0,response,2_ITEM,1147.0999999940395,1133.3000000000031,1147.0999999940395,1147.0999999940395,1133.3000000000031,1147.0999999940395,1.0,0.0,0.0,,Click Response,2_count,5.0,object-49,temp_dist_trial,5.0,t_s_07_1,travel_shared,phone charger cable,6.0,competing,single,t_s_07_1.jpg,Travel,,,sub-56
Desktop or Laptop,Windows 10,Edge 138.0.0.0,1920x1080,1912x924,Temporal Distance Task,cb_06,5.0,temp_dist_trial,dist_items,qkpkxw,2.0,info,,12.899999994042444,0.0,12.899999994042444,12.899999994042444,0.0,12.899999994042444,1.0,0.0,0.0,,Slider,Slider,4.0,object-56,temp_dist_trial,5.0,t_s_07_1,travel_shared,phone charger cable,6.0,competing,single,t_s_07_1.jpg,Travel,,,sub-56
Desktop or Laptop,Windows 10,Edge 138.0.0.0,1920x1080,1912x924,Temporal Distance Task,cb_06,5.0,temp_dist_trial,dist_items,qkpkxw,2.0,continue,,2959.8999999940424,2949.5,2959.8999999940424,2959.8999999940424,2949.5,2959.8999999940424,1.0,0.0,0.0,,Click To Continue,Next button,7.0,object-60,temp_dist_trial,5.0,t_s_07_1,travel_shared,phone charger cable,6.0,competing,single,t_s_07_1.jpg,Travel,,,sub-56
Desktop or Laptop,Windows 10,Edge 138.0.0.0,1920x1080,1912x924,Temporal Distance Task,cb_06,5.0,temp_dist_trial,dist_items,qkpkxw,2.0,response,81,1450.0,2949.5,2965.7999999999956,1450.0,2949.5,2965.7999999999956,1.0,1515.7999999999954,0.0,,Slider,Slider,4.0,object-56,temp_dist_trial,5.0,t_s_07_1,travel_shared,phone charger cable,6.0,competing,single,t_s_07_1.jpg,Travel,,,sub-56
Desktop or Laptop,Windows 10,Edge 138.0.0.0,1920x1080,1912x924,Temporal Distance Task,cb_06,6.0,temp_dist_trial,num_items,zn7si1,1.0,response,1_ITEM,1786.3999999940424,1783.5,1786.3999999940424,1786.3999999940424,1783.5,1786.3999999940424,1.0,0.0,0.0,,Click Response,1_count,3.0,object-46,temp_dist_trial,6.0,t_i_12_1,travel_Iceland,tent,6.0,unique,paired,t_i_12_1.jpg,Travel,,,sub-56
Desktop or Laptop,Windows 10,Edge 138.0.0.0,1920x1080,1912x924,Temporal Distance Task,cb_06,7.0,temp_dist_trial,num_items,zn7si1,1.0,response,num_miss,2999.699999999997,2999.699999999997,2999.699999999997,2999.699999999997,2999.699999999997,2999.699999999997,1.0,0.0,0.0,num_miss_tag,Time Limit,screen,0.0,screen,temp_dist_trial,7.0,t_m_02_1,travel_Miami,t-shirt,6.0,unique,single,t_m_02_1.jpg,Travel,,,sub-56
Desktop or Laptop,Windows 10,Edge 138.0.0.0,1920x1080,1912x924,Temporal Distance Task,cb_06,8.0,temp_dist_trial,num_items,zn7si1,1.0,response,2_ITEM,1385.3999999999942,1382.8999999999942,1385.3999999999942,1385.3999999999942,1382.8999999999942,1385.3999999999942,1.0,0.0,0.0,,Click Response,2_count,5.0,object-49,temp_dist_trial,8.0,t_s_19_1,travel_shared,pajamas,6.0,competing,paired,t_s_19_1.jpg,Travel,,,sub-56
Desktop or Laptop,Windows 10,Edge 138.0.0.0,1920x1080,1912x924,Temporal Distance Task,cb_06,8.0,temp_dist_trial,dist_items,qkpkxw,2.0,info,,12.199999994045355,0.0,12.199999994045355,12.199999994045355,0.0,12.199999994045355,1.0,0.0,0.0,,Slider,Slider,4.0,object-56,temp_dist_trial,8.0,t_s_19_1,travel_shared,pajamas,6.0,competing,paired,t_s_19_1.jpg,Travel,,,sub-56
Desktop or Laptop,Windows 10,Edge 138.0.0.0,1920x1080,1912x924,Temporal Distance Task,cb_06,8.0,temp_dist_trial,dist_items,qkpkxw,2.0,continue,,2053.8999999970256,2049.300000000003,2053.8999999970256,2053.8999999970256,2049.300000000003,2053.8999999970256,1.0,0.0,0.0,,Click To Continue,Next button,7.0,object-60,temp_dist_trial,8.0,t_s_19_1,travel_shared,pajamas,6.0,competing,paired,t_s_19_1.jpg,Travel,,,sub-56
Desktop or Laptop,Windows 10,Edge 138.0.0.0,1920x1080,1912x924,Temporal Distance Task,cb_06,8.0,temp_dist_trial,dist_items,qkpkxw,2.0,response,19,699.5,2049.300000000003,2055.3999999970256,699.5,2049.300000000003,2055.3999999970256,1.0,1355.8999999970254,0.0,,Slider,Slider,4.0,object-56,temp_dist_trial,8.0,t_s_19_1,travel_shared,pajamas,6.0,competing,paired,t_s_19_1.jpg,Travel,,,sub-56
Desktop or Laptop,Windows 10,Edge 138.0.0.0,1920x1080,1912x924,Temporal Distance Task,cb_06,9.0,temp_dist_trial,num_items,zn7si1,1.0,response,1_ITEM,1270.1999999910622,1266.9000000000087,1270.1999999910622,1270.1999999910622,1266.9000000000087,1270.1999999910622,1.0,0.0,0.0,,Click Response,1_count,3.0,object-46,temp_dist_trial,9.0,t_s_11_1,travel_shared,eye mask,6.0,competing,single,t_s_11_1.jpg,Travel,,,sub-56
Desktop or Laptop,Windows 10,Edge 138.0.0.0,1920x1080,1912x924,Temporal Distance Task,cb_06,10.0,temp_dist_trial,num_items,zn7si1,1.0,response,2_ITEM,1672.7999999940366,1666.6999999999966,1672.7999999940366,1672.7999999940366,1666.6999999999966,1672.7999999940366,1.0,0.0,0.0,,Click Response,2_count,5.0,object-49,temp_dist_trial,10.0,t_s_04_1,travel_shared,instant camera,6.0,competing,paired,t_s_04_1.jpg,Travel,,,sub-56
Desktop or Laptop,Windows 10,Edge 138.0.0.0,1920x1080,1912x924,Temporal Distance Task,cb_06,10.0,temp_dist_trial,dist_items,qkpkxw,2.0,info,,12.30000000000291,0.0,12.30000000000291,12.30000000000291,0.0,12.30000000000291,1.0,0.0,0.0,,Slider,Slider,4.0,object-56,temp_dist_trial,10.0,t_s_04_1,travel_shared,instant camera,6.0,competing,paired,t_s_04_1.jpg,Travel,,,sub-56
Desktop or Laptop,Windows 10,Edge 138.0.0.0,1920x1080,1912x924,Temporal Distance Task,cb_06,10.0,temp_dist_trial,dist_items,qkpkxw,2.0,continue,,2168.300000000003,2166.4000000000087,2168.300000000003,2168.300000000003,2166.4000000000087,2168.300000000003,1.0,0.0,0.0,,Click To Continue,Next button,7.0,object-60,temp_dist_trial,10.0,t_s_04_1,travel_shared,instant camera,6.0,competing,paired,t_s_04_1.jpg,Travel,,,sub-56
Desktop or Laptop,Windows 10,Edge 138.0.0.0,1920x1080,1912x924,Temporal Distance Task,cb_06,10.0,temp_dist_trial,dist_items,qkpkxw,2.0,response,70,983.1999999999972,2166.4000000000087,2168.8999999940424,983.1999999999972,2166.4000000000087,2168.8999999940424,1.0,1185.6999999940456,0.0,,Slider,Slider,4.0,object-56,temp_dist_trial,10.0,t_s_04_1,travel_shared,instant camera,6.0,competing,paired,t_s_04_1.jpg,Travel,,,sub-56
Desktop or Laptop,Windows 10,Edge 138.0.0.0,1920x1080,1912x924,Temporal Distance Task,cb_06,11.0,temp_dist_trial,num_items,zn7si1,1.0,response,2_ITEM,1469.9999999940335,1466.7999999999884,1469.9999999940335,1469.9999999940335,1466.7999999999884,1469.9999999940335,1.0,0.0,0.0,,Click Response,2_count,5.0,object-49,temp_dist_trial,11.0,t_m_20_1,travel_Miami,inflatable beachball,6.0,unique,paired,t_m_20_1.jpg,Travel,,,sub-56
Desktop or Laptop,Windows 10,Edge 138.0.0.0,1920x1080,1912x924,Temporal Distance Task,cb_06,11.0,temp_dist_trial,dist_items,qkpkxw,2.0,info,,11.900000002977322,0.0,11.900000002977322,11.900000002977322,0.0,11.900000002977322,1.0,0.0,0.0,,Slider,Slider,4.0,object-56,temp_dist_trial,11.0,t_m_20_1,travel_Miami,inflatable beachball,6.0,unique,paired,t_m_20_1.jpg,Travel,,,sub-56
Desktop or Laptop,Windows 10,Edge 138.0.0.0,1920x1080,1912x924,Temporal Distance Task,cb_06,11.0,temp_dist_trial,dist_items,qkpkxw,2.0,continue,,3440.4999999970173,3432.699999999997,3440.4999999970173,3440.4999999970173,3432.699999999997,3440.4999999970173,1.0,0.0,0.0,,Click To Continue,Next button,7.0,object-60,temp_dist_trial,11.0,t_m_20_1,travel_Miami,inflatable beachball,6.0,unique,paired,t_m_20_1.jpg,Travel,,,sub-56
Desktop or Laptop,Windows 10,Edge 138.0.0.0,1920x1080,1912x924,Temporal Distance Task,cb_06,11.0,temp_dist_trial,dist_items,qkpkxw,2.0,response,74,2416.199999999997,3432.699999999997,3441.9000000029773,2416.199999999997,3432.699999999997,3441.9000000029773,1.0,1025.7000000029802,0.0,,Slider,Slider,4.0,object-56,temp_dist_trial,11.0,t_m_20_1,travel_Miami,inflatable beachball,6.0,unique,paired,t_m_20_1.jpg,Travel,,,sub-56
Desktop or Laptop,Windows 10,Edge 138.0.0.0,1920x1080,1912x924,Temporal Distance Task,cb_06,12.0,temp_dist_trial,num_items,zn7si1,1.0,response,1_ITEM,1912.70000000298,1900.1999999999966,1912.70000000298,1912.70000000298,1900.1999999999966,1912.70000000298,1.0,0.0,0.0,,Click Response,1_count,3.0,object-46,temp_dist_trial,12.0,t_m_11_1,travel_Miami,collapsible beach chair,6.0,unique,paired,t_m_11_1.jpg,Travel,,,sub-56
Desktop or Laptop,Windows 10,Edge 138.0.0.0,1920x1080,1912x924,Temporal Distance Task,cb_06,13.0,temp_dist_trial,num_items,zn7si1,1.0,response,1_ITEM,1782.2000000029807,1766.3999999999942,1782.2000000029807,1782.2000000029807,1766.3999999999942,1782.2000000029807,1.0,0.0,0.0,,Click Response,1_count,3.0,object-46,temp_dist_trial,13.0,t_s_22_1,travel_shared,belt,6.0,competing,single,t_s_22_1.jpg,Travel,,,sub-56
Desktop or Laptop,Windows 10,Edge 138.0.0.0,1920x1080,1912x924,Temporal Distance Task,cb_06,14.0,temp_dist_trial,num_items,zn7si1,1.0,response,1_ITEM,1226.5999999970227,1216.9000000000087,1226.5999999970227,1226.5999999970227,1216.9000000000087,1226.5999999970227,1.0,0.0,0.0,,Click Response,1_count,3.0,object-46,temp_dist_trial,14.0,t_i_13_1,travel_Iceland,sleeping bag,6.0,unique,single,t_i_13_1.jpg,Travel,,,sub-56
Desktop or Laptop,Windows 10,Edge 138.0.0.0,1920x1080,1912x924,Temporal Distance Task,cb_06,15.0,temp_dist_trial,num_items,zn7si1,1.0,response,2_ITEM,1082.9999999999854,1066.5999999999913,1082.9999999999854,1082.9999999999854,1066.5999999999913,1082.9999999999854,1.0,0.0,0.0,,Click Response,2_count,5.0,object-49,temp_dist_trial,15.0,t_s_06_1,travel_shared,luggage,6.0,competing,paired,t_s_06_1.jpg,Travel,,,sub-56
Desktop or Laptop,Windows 10,Edge 138.0.0.0,1920x1080,1912x924,Temporal Distance Task,cb_06,15.0,temp_dist_trial,dist_items,qkpkxw,2.0,info,,4.799999994036625,0.0,4.799999994036625,4.799999994036625,0.0,4.799999994036625,1.0,0.0,0.0,,Slider,Slider,4.0,object-56,temp_dist_trial,15.0,t_s_06_1,travel_shared,luggage,6.0,competing,paired,t_s_06_1.jpg,Travel,,,sub-56
Desktop or Laptop,Windows 10,Edge 138.0.0.0,1920x1080,1912x924,Temporal Distance Task,cb_06,15.0,temp_dist_trial,dist_items,qkpkxw,2.0,continue,,4166.099999999991,4149.599999999991,4166.099999999991,4166.099999999991,4149.599999999991,4166.099999999991,1.0,0.0,0.0,,Click To Continue,Next button,7.0,object-60,temp_dist_trial,15.0,t_s_06_1,travel_shared,luggage,6.0,competing,paired,t_s_06_1.jpg,Travel,,,sub-56
Desktop or Laptop,Windows 10,Edge 138.0.0.0,1920x1080,1912x924,Temporal Distance Task,cb_06,15.0,temp_dist_trial,dist_items,qkpkxw,2.0,response,72,833.0999999999913,4149.599999999991,4166.099999999991,833.0999999999913,4149.599999999991,4166.099999999991,1.0,3333.0,0.0,,Slider,Slider,4.0,object-56,temp_dist_trial,15.0,t_s_06_1,travel_shared,luggage,6.0,competing,paired,t_s_06_1.jpg,Travel,,,sub-56
Desktop or Laptop,Windows 10,Edge 138.0.0.0,1920x1080,1912x924,Temporal Distance Task,cb_06,16.0,temp_dist_trial,num_items,zn7si1,1.0,response,1_ITEM,1877.699999994045,1866.3000000000034,1877.699999994045,1877.699999994045,1866.3000000000034,1877.699999994045,1.0,0.0,0.0,,Click Response,1_count,3.0,object-46,temp_dist_trial,16.0,t_i_09_1,travel_Iceland,ear muffs,6.0,unique,single,t_i_09_1.jpg,Travel,,,sub-56
Desktop or Laptop,Windows 10,Edge 138.0.0.0,1920x1080,1912x924,Temporal Distance Task,cb_06,17.0,temp_dist_trial,num_items,zn7si1,1.0,response,2_ITEM,1597.1999999910622,1583.1999999999966,1597.1999999910622,1597.1999999910622,1583.1999999999966,1597.1999999910622,1.0,0.0,0.0,,Click Response,2_count,5.0,object-49,temp_dist_trial,17.0,t_i_03_1,travel_Iceland,winter jacket,6.0,unique,paired,t_i_03_1.jpg,Travel,,,sub-56
Desktop or Laptop,Windows 10,Edge 138.0.0.0,1920x1080,1912x924,Temporal Distance Task,cb_06,17.0,temp_dist_trial,dist_items,qkpkxw,2.0,info,,7.999999997016858,0.0,7.999999997016858,7.999999997016858,0.0,7.999999997016858,1.0,0.0,0.0,,Slider,Slider,4.0,object-56,temp_dist_trial,17.0,t_i_03_1,travel_Iceland,winter jacket,6.0,unique,paired,t_i_03_1.jpg,Travel,,,sub-56
Desktop or Laptop,Windows 10,Edge 138.0.0.0,1920x1080,1912x924,Temporal Distance Task,cb_06,17.0,temp_dist_trial,dist_items,qkpkxw,2.0,continue,,2392.400000002977,2382.8999999999937,2392.400000002977,2392.400000002977,2382.8999999999937,2392.400000002977,1.0,0.0,0.0,,Click To Continue,Next button,7.0,object-60,temp_dist_trial,17.0,t_i_03_1,travel_Iceland,winter jacket,6.0,unique,paired,t_i_03_1.jpg,Travel,,,sub-56
Desktop or Laptop,Windows 10,Edge 138.0.0.0,1920x1080,1912x924,Temporal Distance Task,cb_06,17.0,temp_dist_trial,dist_items,qkpkxw,2.0,response,37,949.8000000000028,2382.8999999999937,2393.400000002977,949.8000000000028,2382.8999999999937,2393.400000002977,1.0,1443.6000000029746,0.0,,Slider,Slider,4.0,object-56,temp_dist_trial,17.0,t_i_03_1,travel_Iceland,winter jacket,6.0,unique,paired,t_i_03_1.jpg,Travel,,,sub-56
Desktop or Laptop,Windows 10,Edge 138.0.0.0,1920x1080,1912x924,Temporal Distance Task,cb_06,18.0,temp_dist_trial,num_items,zn7si1,1.0,response,1_ITEM,1961.3999999940424,1950.1000000000056,1961.3999999940424,1961.3999999940424,1950.1000000000056,1961.3999999940424,1.0,0.0,0.0,,Click Response,1_count,3.0,object-46,temp_dist_trial,18.0,t_i_15_1,travel_Iceland,compass,6.0,unique,single,t_i_15_1.jpg,Travel,,,sub-56
Desktop or Laptop,Windows 10,Edge 138.0.0.0,1920x1080,1912x924,Temporal Distance Task,cb_06,19.0,temp_dist_trial,num_items,zn7si1,1.0,response,2_ITEM,2189.299999991053,2183.0,2189.299999991053,2189.299999991053,2183.0,2189.299999991053,1.0,0.0,0.0,,Click Response,2_count,5.0,object-49,temp_dist_trial,19.0,t_i_06_1,travel_Iceland,knit hat,6.0,unique,paired,t_i_06_1.jpg,Travel,,,sub-56
Desktop or Laptop,Windows 10,Edge 138.0.0.0,1920x1080,1912x924,Temporal Distance Task,cb_06,19.0,temp_dist_trial,dist_items,qkpkxw,2.0,info,,11.399999999994181,0.0,11.399999999994181,11.399999999994181,0.0,11.399999999994181,1.0,0.0,0.0,,Slider,Slider,4.0,object-56,temp_dist_trial,19.0,t_i_06_1,travel_Iceland,knit hat,6.0,unique,paired,t_i_06_1.jpg,Travel,,,sub-56
Desktop or Laptop,Windows 10,Edge 138.0.0.0,1920x1080,1912x924,Temporal Distance Task,cb_06,19.0,temp_dist_trial,dist_items,qkpkxw,2.0,continue,,2212.3999999999937,2199.699999999997,2212.3999999999937,2212.3999999999937,2199.699999999997,2212.3999999999937,1.0,0.0,0.0,,Click To Continue,Next button,7.0,object-60,temp_dist_trial,19.0,t_i_06_1,travel_Iceland,knit hat,6.0,unique,paired,t_i_06_1.jpg,Travel,,,sub-56
Desktop or Laptop,Windows 10,Edge 138.0.0.0,1920x1080,1912x924,Temporal Distance Task,cb_06,19.0,temp_dist_trial,dist_items,qkpkxw,2.0,response,87,766.8999999999942,2199.699999999997,2216.1000000000063,766.8999999999942,2199.699999999997,2216.1000000000063,1.0,1449.2000000000116,0.0,,Slider,Slider,4.0,object-56,temp_dist_trial,19.0,t_i_06_1,travel_Iceland,knit hat,6.0,unique,paired,t_i_06_1.jpg,Travel,,,sub-56
Desktop or Laptop,Windows 10,Edge 138.0.0.0,1920x1080,1912x924,Temporal Distance Task,cb_06,20.0,temp_dist_trial,num_items,zn7si1,1.0,response,2_ITEM,1172.1999999999969,1166.5,1172.1999999999969,1172.1999999999969,1166.5,1172.1999999999969,1.0,0.0,0.0,,Click Response,2_count,5.0,object-49,temp_dist_trial,20.0,t_s_03_1,travel_shared,portable charger,6.0,competing,paired,t_s_03_1.jpg,Travel,,,sub-56
Desktop or Laptop,Windows 10,Edge 138.0.0.0,1920x1080,1912x924,Temporal Distance Task,cb_06,20.0,temp_dist_trial,dist_items,qkpkxw,2.0,info,,10.399999997025587,0.0,10.399999997025587,10.399999997025587,0.0,10.399999997025587,1.0,0.0,0.0,,Slider,Slider,4.0,object-56,temp_dist_trial,20.0,t_s_03_1,travel_shared,portable charger,6.0,competing,paired,t_s_03_1.jpg,Travel,,,sub-56
Desktop or Laptop,Windows 10,Edge 138.0.0.0,1920x1080,1912x924,Temporal Distance Task,cb_06,20.0,temp_dist_trial,dist_items,qkpkxw,2.0,continue,,1783.7000000000116,1766.7000000000116,1783.7000000000116,1783.7000000000116,1766.7000000000116,1783.7000000000116,1.0,0.0,0.0,,Click To Continue,Next button,7.0,object-60,temp_dist_trial,20.0,t_s_03_1,travel_shared,portable charger,6.0,competing,paired,t_s_03_1.jpg,Travel,,,sub-56
Desktop or Laptop,Windows 10,Edge 138.0.0.0,1920x1080,1912x924,Temporal Distance Task,cb_06,20.0,temp_dist_trial,dist_items,qkpkxw,2.0,response,42,883.3000000000029,1766.7000000000116,1783.7000000000116,883.3000000000029,1766.7000000000116,1783.7000000000116,1.0,900.4000000000087,0.0,,Slider,Slider,4.0,object-56,temp_dist_trial,20.0,t_s_03_1,travel_shared,portable charger,6.0,competing,paired,t_s_03_1.jpg,Travel,,,sub-56
Desktop or Laptop,Windows 10,Edge 138.0.0.0,1920x1080,1912x924,Temporal Distance Task,cb_06,21.0,temp_dist_trial,num_items,zn7si1,1.0,response,2_ITEM,949.4999999940337,933.1999999999972,949.4999999940337,949.4999999940337,933.1999999999972,949.4999999940337,1.0,0.0,0.0,,Click Response,2_count,5.0,object-49,temp_dist_trial,21.0,t_s_24_1,travel_shared,ear plugs,6.0,competing,paired,t_s_24_1.jpg,Travel,,,sub-56
Desktop or Laptop,Windows 10,Edge 138.0.0.0,1920x1080,1912x924,Temporal Distance Task,cb_06,21.0,temp_dist_trial,dist_items,qkpkxw,2.0,info,,11.199999997013949,0.0,11.199999997013949,11.199999997013949,0.0,11.199999997013949,1.0,0.0,0.0,,Slider,Slider,4.0,object-56,temp_dist_trial,21.0,t_s_24_1,travel_shared,ear plugs,6.0,competing,paired,t_s_24_1.jpg,Travel,,,sub-56
Desktop or Laptop,Windows 10,Edge 138.0.0.0,1920x1080,1912x924,Temporal Distance Task,cb_06,21.0,temp_dist_trial,dist_items,qkpkxw,2.0,continue,,2390.3999999999937,2383.0,2390.3999999999937,2390.3999999999937,2383.0,2390.3999999999937,1.0,0.0,0.0,,Click To Continue,Next button,7.0,object-60,temp_dist_trial,21.0,t_s_24_1,travel_shared,ear plugs,6.0,competing,paired,t_s_24_1.jpg,Travel,,,sub-56
Desktop or Laptop,Windows 10,Edge 138.0.0.0,1920x1080,1912x924,Temporal Distance Task,cb_06,21.0,temp_dist_trial,dist_items,qkpkxw,2.0,response,33,983.3999999999942,2383.0,2392.1000000029744,983.3999999999942,2383.0,2392.1000000029744,1.0,1408.7000000029807,0.0,,Slider,Slider,4.0,object-56,temp_dist_trial,21.0,t_s_24_1,travel_shared,ear plugs,6.0,competing,paired,t_s_24_1.jpg,Travel,,,sub-56
Desktop or Laptop,Windows 10,Edge 138.0.0.0,1920x1080,1912x924,Temporal Distance Task,cb_06,22.0,temp_dist_trial,num_items,zn7si1,1.0,response,1_ITEM,1445.9999999940335,1433.099999999991,1445.9999999940335,1445.9999999940335,1433.099999999991,1445.9999999940335,1.0,0.0,0.0,,Click Response,1_count,3.0,object-46,temp_dist_trial,22.0,t_m_09_1,travel_Miami,beach towel,6.0,unique,paired,t_m_09_1.jpg,Travel,,,sub-56
Desktop or Laptop,Windows 10,Edge 138.0.0.0,1920x1080,1912x924,Temporal Distance Task,cb_06,23.0,temp_dist_trial,num_items,zn7si1,1.0,response,1_ITEM,1595.8999999910593,1583.0,1595.8999999910593,1595.8999999910593,1583.0,1595.8999999910593,1.0,0.0,0.0,,Click Response,1_count,3.0,object-46,temp_dist_trial,23.0,t_s_20_1,travel_shared,travel pill case,6.0,competing,single,t_s_20_1.jpg,Travel,,,sub-56
Desktop or Laptop,Windows 10,Edge 138.0.0.0,1920x1080,1912x924,Temporal Distance Task,cb_06,24.0,temp_dist_trial,num_items,zn7si1,1.0,response,1_ITEM,2563.400000002977,2549.5999999999913,2563.400000002977,2563.400000002977,2549.5999999999913,2563.400000002977,1.0,0.0,0.0,,Click Response,1_count,3.0,object-46,temp_dist_trial,24.0,t_m_12_1,travel_Miami,foldable pail and shovel,6.0,unique,single,t_m_12_1.jpg,Travel,,,sub-56
Desktop or Laptop,Windows 10,Edge 138.0.0.0,1920x1080,1912x924,Temporal Distance Task,cb_06,25.0,temp_dist_trial,num_items,zn7si1,1.0,response,2_ITEM,1303.0999999910566,1299.5,1303.0999999910566,1303.0999999910566,1299.5,1303.0999999910566,1.0,0.0,0.0,,Click Response,2_count,5.0,object-49,temp_dist_trial,25.0,t_i_07_1,travel_Iceland,hiking backpack,6.0,unique,paired,t_i_07_1.jpg,Travel,,,sub-56
Desktop or Laptop,Windows 10,Edge 138.0.0.0,1920x1080,1912x924,Temporal Distance Task,cb_06,25.0,temp_dist_trial,dist_items,qkpkxw,2.0,info,,10.400000002977322,0.0,10.400000002977322,10.400000002977322,0.0,10.400000002977322,1.0,0.0,0.0,,Slider,Slider,4.0,object-56,temp_dist_trial,25.0,t_i_07_1,travel_Iceland,hiking backpack,6.0,unique,paired,t_i_07_1.jpg,Travel,,,sub-56
Desktop or Laptop,Windows 10,Edge 138.0.0.0,1920x1080,1912x924,Temporal Distance Task,cb_06,25.0,temp_dist_trial,dist_items,qkpkxw,2.0,continue,,3013.299999994037,2999.699999999997,3013.299999994037,3013.299999994037,2999.699999999997,3013.299999994037,1.0,0.0,0.0,,Click To Continue,Next button,7.0,object-60,temp_dist_trial,25.0,t_i_07_1,travel_Iceland,hiking backpack,6.0,unique,paired,t_i_07_1.jpg,Travel,,,sub-56
Desktop or Laptop,Windows 10,Edge 138.0.0.0,1920x1080,1912x924,Temporal Distance Task,cb_06,25.0,temp_dist_trial,dist_items,qkpkxw,2.0,response,70,950.0999999999913,2999.699999999997,3014.4999999970173,950.0999999999913,2999.699999999997,3014.4999999970173,1.0,2064.3999999970256,0.0,,Slider,Slider,4.0,object-56,temp_dist_trial,25.0,t_i_07_1,travel_Iceland,hiking backpack,6.0,unique,paired,t_i_07_1.jpg,Travel,,,sub-56
Desktop or Laptop,Windows 10,Edge 138.0.0.0,1920x1080,1912x924,Temporal Distance Task,cb_06,26.0,temp_dist_trial,num_items,zn7si1,1.0,response,2_ITEM,1092.7000000029802,1083.5,1092.7000000029802,1092.7000000029802,1083.5,1092.7000000029802,1.0,0.0,0.0,,Click Response,2_count,5.0,object-49,temp_dist_trial,26.0,t_m_04_1,travel_Miami,UV jacket,6.0,unique,paired,t_m_04_1.jpg,Travel,,,sub-56
Desktop or Laptop,Windows 10,Edge 138.0.0.0,1920x1080,1912x924,Temporal Distance Task,cb_06,26.0,temp_dist_trial,dist_items,qkpkxw,2.0,info,,7.200000002980232,0.0,7.200000002980232,7.200000002980232,0.0,7.200000002980232,1.0,0.0,0.0,,Slider,Slider,4.0,object-56,temp_dist_trial,26.0,t_m_04_1,travel_Miami,UV jacket,6.0,unique,paired,t_m_04_1.jpg,Travel,,,sub-56
Desktop or Laptop,Windows 10,Edge 138.0.0.0,1920x1080,1912x924,Temporal Distance Task,cb_06,26.0,temp_dist_trial,dist_items,qkpkxw,2.0,continue,,3316.800000000017,3300.1000000000067,3316.800000000017,3316.800000000017,3300.1000000000067,3316.800000000017,1.0,0.0,0.0,,Click To Continue,Next button,7.0,object-60,temp_dist_trial,26.0,t_m_04_1,travel_Miami,UV jacket,6.0,unique,paired,t_m_04_1.jpg,Travel,,,sub-56
Desktop or Laptop,Windows 10,Edge 138.0.0.0,1920x1080,1912x924,Temporal Distance Task,cb_06,26.0,temp_dist_trial,dist_items,qkpkxw,2.0,response,21,900.1000000000058,3300.1000000000067,3316.800000000017,900.1000000000058,3300.1000000000067,3316.800000000017,1.0,2416.700000000012,0.0,,Slider,Slider,4.0,object-56,temp_dist_trial,26.0,t_m_04_1,travel_Miami,UV jacket,6.0,unique,paired,t_m_04_1.jpg,Travel,,,sub-56
Desktop or Laptop,Windows 10,Edge 138.0.0.0,1920x1080,1912x924,Temporal Distance Task,cb_06,27.0,temp_dist_trial,num_items,zn7si1,1.0,response,2_ITEM,1724.8999999999942,1716.1999999999825,1724.8999999999942,1724.8999999999942,1716.1999999999825,1724.8999999999942,1.0,0.0,0.0,,Click Response,2_count,5.0,object-49,temp_dist_trial,27.0,t_i_02_1,travel_Iceland,scarf,6.0,unique,paired,t_i_02_1.jpg,Travel,,,sub-56
Desktop or Laptop,Windows 10,Edge 138.0.0.0,1920x1080,1912x924,Temporal Distance Task,cb_06,27.0,temp_dist_trial,dist_items,qkpkxw,2.0,info,,10.599999994039537,0.0,10.599999994039537,10.599999994039537,0.0,10.599999994039537,1.0,0.0,0.0,,Slider,Slider,4.0,object-56,temp_dist_trial,27.0,t_i_02_1,travel_Iceland,scarf,6.0,unique,paired,t_i_02_1.jpg,Travel,,,sub-56
Desktop or Laptop,Windows 10,Edge 138.0.0.0,1920x1080,1912x924,Temporal Distance Task,cb_06,27.0,temp_dist_trial,dist_items,qkpkxw,2.0,continue,,1934.5999999940395,1932.7999999999884,1934.5999999940395,1934.5999999940395,1932.7999999999884,1934.5999999940395,1.0,0.0,0.0,,Click To Continue,Next button,7.0,object-60,temp_dist_trial,27.0,t_i_02_1,travel_Iceland,scarf,6.0,unique,paired,t_i_02_1.jpg,Travel,,,sub-56
Desktop or Laptop,Windows 10,Edge 138.0.0.0,1920x1080,1912x924,Temporal Distance Task,cb_06,27.0,temp_dist_trial,dist_items,qkpkxw,2.0,response,83,966.3999999999942,1932.7999999999884,1935.5,966.3999999999942,1932.7999999999884,1935.5,1.0,969.1000000000058,0.0,,Slider,Slider,4.0,object-56,temp_dist_trial,27.0,t_i_02_1,travel_Iceland,scarf,6.0,unique,paired,t_i_02_1.jpg,Travel,,,sub-56
Desktop or Laptop,Windows 10,Edge 138.0.0.0,1920x1080,1912x924,Temporal Distance Task,cb_06,28.0,temp_dist_trial,num_items,zn7si1,1.0,response,2_ITEM,953.2999999940512,949.8000000000177,953.2999999940512,953.2999999940512,949.8000000000177,953.2999999940512,1.0,0.0,0.0,,Click Response,2_count,5.0,object-49,temp_dist_trial,28.0,t_s_01_1,travel_shared,fanny pack,6.0,competing,paired,t_s_01_1.jpg,Travel,,,sub-56
Desktop or Laptop,Windows 10,Edge 138.0.0.0,1920x1080,1912x924,Temporal Distance Task,cb_06,28.0,temp_dist_trial,dist_items,qkpkxw,2.0,info,,10.00000000296859,0.0,10.00000000296859,10.00000000296859,0.0,10.00000000296859,1.0,0.0,0.0,,Slider,Slider,4.0,object-56,temp_dist_trial,28.0,t_s_01_1,travel_shared,fanny pack,6.0,competing,paired,t_s_01_1.jpg,Travel,,,sub-56
Desktop or Laptop,Windows 10,Edge 138.0.0.0,1920x1080,1912x924,Temporal Distance Task,cb_06,28.0,temp_dist_trial,dist_items,qkpkxw,2.0,continue,,1813.199999991048,1799.7999999999884,1813.199999991048,1813.199999991048,1799.7999999999884,1813.199999991048,1.0,0.0,0.0,,Click To Continue,Next button,7.0,object-60,temp_dist_trial,28.0,t_s_01_1,travel_shared,fanny pack,6.0,competing,paired,t_s_01_1.jpg,Travel,,,sub-56
Desktop or Laptop,Windows 10,Edge 138.0.0.0,1920x1080,1912x924,Temporal Distance Task,cb_06,28.0,temp_dist_trial,dist_items,qkpkxw,2.0,response,61,900.0,1799.7999999999884,1814.5999999970081,900.0,1799.7999999999884,1814.5999999970081,1.0,914.599999997008,0.0,,Slider,Slider,4.0,object-56,temp_dist_trial,28.0,t_s_01_1,travel_shared,fanny pack,6.0,competing,paired,t_s_01_1.jpg,Travel,,,sub-56
Desktop or Laptop,Windows 10,Edge 138.0.0.0,1920x1080,1912x924,Temporal Distance Task,cb_06,29.0,temp_dist_trial,num_items,zn7si1,1.0,response,1_ITEM,1409.8999999910593,1399.7999999999884,1409.8999999910593,1409.8999999910593,1399.7999999999884,1409.8999999910593,1.0,0.0,0.0,,Click Response,1_count,3.0,object-46,temp_dist_trial,29.0,t_s_21_1,travel_shared,umbrella,6.0,competing,paired,t_s_21_1.jpg,Travel,,,sub-56
Desktop or Laptop,Windows 10,Edge 138.0.0.0,1920x1080,1912x924,Temporal Distance Task,cb_06,30.0,temp_dist_trial,num_items,zn7si1,1.0,response,1_ITEM,816.1999999940454,800.0,816.1999999940454,816.1999999940454,800.0,816.1999999940454,1.0,0.0,0.0,,Click Response,1_count,3.0,object-46,temp_dist_trial,30.0,t_m_01_1,travel_Miami,sandals,6.0,unique,single,t_m_01_1.jpg,Travel,,,sub-56
Desktop or Laptop,Windows 10,Edge 138.0.0.0,1920x1080,1912x924,Temporal Distance Task,cb_06,31.0,temp_dist_trial,num_items,zn7si1,1.0,response,2_ITEM,1174.1000000000058,1166.5,1174.1000000000058,1174.1000000000058,1166.5,1174.1000000000058,1.0,0.0,0.0,,Click Response,2_count,5.0,object-49,temp_dist_trial,31.0,t_s_10_1,travel_shared,luggage lock,6.0,competing,paired,t_s_10_1.jpg,Travel,,,sub-56
Desktop or Laptop,Windows 10,Edge 138.0.0.0,1920x1080,1912x924,Temporal Distance Task,cb_06,31.0,temp_dist_trial,dist_items,qkpkxw,2.0,info,,6.0,0.0,6.0,6.0,0.0,6.0,1.0,0.0,0.0,,Slider,Slider,4.0,object-56,temp_dist_trial,31.0,t_s_10_1,travel_shared,luggage lock,6.0,competing,paired,t_s_10_1.jpg,Travel,,,sub-56
Desktop or Laptop,Windows 10,Edge 138.0.0.0,1920x1080,1912x924,Temporal Distance Task,cb_06,31.0,temp_dist_trial,dist_items,qkpkxw,2.0,continue,,1925.8999999910595,1916.7000000000119,1925.8999999910595,1925.8999999910595,1916.7000000000119,1925.8999999910595,1.0,0.0,0.0,,Click To Continue,Next button,7.0,object-60,temp_dist_trial,31.0,t_s_10_1,travel_shared,luggage lock,6.0,competing,paired,t_s_10_1.jpg,Travel,,,sub-56
Desktop or Laptop,Windows 10,Edge 138.0.0.0,1920x1080,1912x924,Temporal Distance Task,cb_06,31.0,temp_dist_trial,dist_items,qkpkxw,2.0,response,81,733.3999999999942,1916.7000000000119,1926.70000000298,733.3999999999942,1916.7000000000119,1926.70000000298,1.0,1193.300000002986,0.0,,Slider,Slider,4.0,object-56,temp_dist_trial,31.0,t_s_10_1,travel_shared,luggage lock,6.0,competing,paired,t_s_10_1.jpg,Travel,,,sub-56
Desktop or Laptop,Windows 10,Edge 138.0.0.0,1920x1080,1912x924,Temporal Distance Task,cb_06,32.0,temp_dist_trial,num_items,zn7si1,1.0,response,2_ITEM,1197.0000000029684,1183.0999999999767,1197.0000000029684,1197.0000000029684,1183.0999999999767,1197.0000000029684,1.0,0.0,0.0,,Click Response,2_count,5.0,object-49,temp_dist_trial,32.0,t_s_12_1,travel_shared,clear toiletry bag,6.0,competing,paired,t_s_12_1.jpg,Travel,,,sub-56
Desktop or Laptop,Windows 10,Edge 138.0.0.0,1920x1080,1912x924,Temporal Distance Task,cb_06,32.0,temp_dist_trial,dist_items,qkpkxw,2.0,info,,11.499999991065126,0.0,11.499999991065126,11.499999991065126,0.0,11.499999991065126,1.0,0.0,0.0,,Slider,Slider,4.0,object-56,temp_dist_trial,32.0,t_s_12_1,travel_shared,clear toiletry bag,6.0,competing,paired,t_s_12_1.jpg,Travel,,,sub-56
Desktop or Laptop,Windows 10,Edge 138.0.0.0,1920x1080,1912x924,Temporal Distance Task,cb_06,32.0,temp_dist_trial,dist_items,qkpkxw,2.0,continue,,3126.8999999970256,3116.200000000012,3126.8999999970256,3126.8999999970256,3116.200000000012,3126.8999999970256,1.0,0.0,0.0,,Click To Continue,Next button,7.0,object-60,temp_dist_trial,32.0,t_s_12_1,travel_shared,clear toiletry bag,6.0,competing,paired,t_s_12_1.jpg,Travel,,,sub-56
Desktop or Laptop,Windows 10,Edge 138.0.0.0,1920x1080,1912x924,Temporal Distance Task,cb_06,32.0,temp_dist_trial,dist_items,qkpkxw,2.0,response,89,666.7000000000116,3116.200000000012,3127.8999999970256,666.7000000000116,3116.200000000012,3127.8999999970256,1.0,2461.199999997014,0.0,,Slider,Slider,4.0,object-56,temp_dist_trial,32.0,t_s_12_1,travel_shared,clear toiletry bag,6.0,competing,paired,t_s_12_1.jpg,Travel,,,sub-56
Desktop or Laptop,Windows 10,Edge 138.0.0.0,1920x1080,1912x924,Temporal Distance Task,cb_06,33.0,temp_dist_trial,num_items,zn7si1,1.0,response,2_ITEM,1111.8999999999942,1100.0,1111.8999999999942,1111.8999999999942,1100.0,1111.8999999999942,1.0,0.0,0.0,,Click Response,2_count,5.0,object-49,temp_dist_trial,33.0,t_s_02_1,travel_shared,water bottle,6.0,competing,paired,t_s_02_1.jpg,Travel,,,sub-56
Desktop or Laptop,Windows 10,Edge 138.0.0.0,1920x1080,1912x924,Temporal Distance Task,cb_06,33.0,temp_dist_trial,dist_items,qkpkxw,2.0,info,,10.299999994051177,0.0,10.299999994051177,10.299999994051177,0.0,10.299999994051177,1.0,0.0,0.0,,Slider,Slider,4.0,object-56,temp_dist_trial,33.0,t_s_02_1,travel_shared,water bottle,6.0,competing,paired,t_s_02_1.jpg,Travel,,,sub-56
Desktop or Laptop,Windows 10,Edge 138.0.0.0,1920x1080,1912x924,Temporal Distance Task,cb_06,33.0,temp_dist_trial,dist_items,qkpkxw,2.0,continue,,1726.599999991071,1716.5,1726.599999991071,1726.599999991071,1716.5,1726.599999991071,1.0,0.0,0.0,,Click To Continue,Next button,7.0,object-60,temp_dist_trial,33.0,t_s_02_1,travel_shared,water bottle,6.0,competing,paired,t_s_02_1.jpg,Travel,,,sub-56
Desktop or Laptop,Windows 10,Edge 138.0.0.0,1920x1080,1912x924,Temporal Distance Task,cb_06,33.0,temp_dist_trial,dist_items,qkpkxw,2.0,response,87,883.3000000000177,1716.5,1728.2999999940512,883.3000000000177,1716.5,1728.2999999940512,1.0,844.9999999940338,0.0,,Slider,Slider,4.0,object-56,temp_dist_trial,33.0,t_s_02_1,travel_shared,water bottle,6.0,competing,paired,t_s_02_1.jpg,Travel,,,sub-56
Desktop or Laptop,Windows 10,Edge 138.0.0.0,1920x1080,1912x924,Temporal Distance Task,cb_06,34.0,temp_dist_trial,num_items,zn7si1,1.0,response,2_ITEM,1637.2000000000116,1633.5,1637.2000000000116,1637.2000000000116,1633.5,1637.2000000000116,1.0,0.0,0.0,,Click Response,2_count,5.0,object-49,temp_dist_trial,34.0,t_s_17_1,travel_shared,toothbrush,6.0,competing,single,t_s_17_1.jpg,Travel,,,sub-56
Desktop or Laptop,Windows 10,Edge 138.0.0.0,1920x1080,1912x924,Temporal Distance Task,cb_06,34.0,temp_dist_trial,dist_items,qkpkxw,2.0,info,,3.4000000029918738,0.0,3.4000000029918738,3.4000000029918738,0.0,3.4000000029918738,1.0,0.0,0.0,,Slider,Slider,4.0,object-56,temp_dist_trial,34.0,t_s_17_1,travel_shared,toothbrush,6.0,competing,single,t_s_17_1.jpg,Travel,,,sub-56
Desktop or Laptop,Windows 10,Edge 138.0.0.0,1920x1080,1912x924,Temporal Distance Task,cb_06,34.0,temp_dist_trial,dist_items,qkpkxw,2.0,continue,,3674.900000002992,3666.4000000000233,3674.900000002992,3674.900000002992,3666.4000000000233,3674.900000002992,1.0,0.0,0.0,,Click To Continue,Next button,7.0,object-60,temp_dist_trial,34.0,t_s_17_1,travel_shared,toothbrush,6.0,competing,single,t_s_17_1.jpg,Travel,,,sub-56
Desktop or Laptop,Windows 10,Edge 138.0.0.0,1920x1080,1912x924,Temporal Distance Task,cb_06,34.0,temp_dist_trial,dist_items,qkpkxw,2.0,response,43,2166.6000000000063,3666.4000000000233,3675.700000000012,2166.6000000000063,3666.4000000000233,3675.700000000012,1.0,1509.1000000000058,0.0,,Slider,Slider,4.0,object-56,temp_dist_trial,34.0,t_s_17_1,travel_shared,toothbrush,6.0,competing,single,t_s_17_1.jpg,Travel,,,sub-56
Desktop or Laptop,Windows 10,Edge 138.0.0.0,1920x1080,1912x924,Temporal Distance Task,cb_06,35.0,temp_dist_trial,num_items,zn7si1,1.0,response,1_ITEM,1863.0999999970081,1849.7999999999884,1863.0999999970081,1863.0999999970081,1849.7999999999884,1863.0999999970081,1.0,0.0,0.0,,Click Response,1_count,3.0,object-46,temp_dist_trial,35.0,t_m_10_1,travel_Miami,tanktop,6.0,unique,paired,t_m_10_1.jpg,Travel,,,sub-56
Desktop or Laptop,Windows 10,Edge 138.0.0.0,1920x1080,1912x924,Temporal Distance Task,cb_06,36.0,temp_dist_trial,num_items,zn7si1,1.0,response,2_ITEM,983.6000000000348,966.7000000000116,983.6000000000348,983.6000000000348,966.7000000000116,983.6000000000348,1.0,0.0,0.0,,Click Response,2_count,5.0,object-49,temp_dist_trial,36.0,t_s_16_1,travel_shared,chapstick,6.0,competing,paired,t_s_16_1.jpg,Travel,,,sub-56
Desktop or Laptop,Windows 10,Edge 138.0.0.0,1920x1080,1912x924,Temporal Distance Task,cb_06,36.0,temp_dist_trial,dist_items,qkpkxw,2.0,info,,9.899999994027894,0.0,9.899999994027894,9.899999994027894,0.0,9.899999994027894,1.0,0.0,0.0,,Slider,Slider,4.0,object-56,temp_dist_trial,36.0,t_s_16_1,travel_shared,chapstick,6.0,competing,paired,t_s_16_1.jpg,Travel,,,sub-56
Desktop or Laptop,Windows 10,Edge 138.0.0.0,1920x1080,1912x924,Temporal Distance Task,cb_06,36.0,temp_dist_trial,dist_items,qkpkxw,2.0,continue,,3387.899999994028,3382.7999999999884,3387.899999994028,3387.899999994028,3382.7999999999884,3387.899999994028,1.0,0.0,0.0,,Click To Continue,Next button,7.0,object-60,temp_dist_trial,36.0,t_s_16_1,travel_shared,chapstick,6.0,competing,paired,t_s_16_1.jpg,Travel,,,sub-56
Desktop or Laptop,Windows 10,Edge 138.0.0.0,1920x1080,1912x924,Temporal Distance Task,cb_06,36.0,temp_dist_trial,dist_items,qkpkxw,2.0,response,71,833.0999999999768,3382.7999999999884,3397.199999991048,833.0999999999768,3382.7999999999884,3397.199999991048,1.0,2564.099999991071,0.0,,Slider,Slider,4.0,object-56,temp_dist_trial,36.0,t_s_16_1,travel_shared,chapstick,6.0,competing,paired,t_s_16_1.jpg,Travel,,,sub-56
Desktop or Laptop,Windows 10,Edge 138.0.0.0,1920x1080,1912x924,Temporal Distance Task,cb_06,37.0,temp_dist_trial,num_items,zn7si1,1.0,response,2_ITEM,933.0,916.5,933.0,933.0,916.5,933.0,1.0,0.0,0.0,,Click Response,2_count,5.0,object-49,temp_dist_trial,37.0,t_s_08_1,travel_shared,hand lotion,6.0,competing,single,t_s_08_1.jpg,Travel,,,sub-56
Desktop or Laptop,Windows 10,Edge 138.0.0.0,1920x1080,1912x924,Temporal Distance Task,cb_06,37.0,temp_dist_trial,dist_items,qkpkxw,2.0,info,,11.499999994033717,0.0,11.499999994033717,11.499999994033717,0.0,11.499999994033717,1.0,0.0,0.0,,Slider,Slider,4.0,object-56,temp_dist_trial,37.0,t_s_08_1,travel_shared,hand lotion,6.0,competing,single,t_s_08_1.jpg,Travel,,,sub-56
Desktop or Laptop,Windows 10,Edge 138.0.0.0,1920x1080,1912x924,Temporal Distance Task,cb_06,37.0,temp_dist_trial,dist_items,qkpkxw,2.0,continue,,3225.3999999999933,3216.2999999999884,3225.3999999999933,3225.3999999999933,3216.2999999999884,3225.3999999999933,1.0,0.0,0.0,,Click To Continue,Next button,7.0,object-60,temp_dist_trial,37.0,t_s_08_1,travel_shared,hand lotion,6.0,competing,single,t_s_08_1.jpg,Travel,,,sub-56
Desktop or Laptop,Windows 10,Edge 138.0.0.0,1920x1080,1912x924,Temporal Distance Task,cb_06,37.0,temp_dist_trial,dist_items,qkpkxw,2.0,response,86,916.2999999999884,3216.2999999999884,3225.799999991053,916.2999999999884,3216.2999999999884,3225.799999991053,1.0,2309.499999991065,0.0,,Slider,Slider,4.0,object-56,temp_dist_trial,37.0,t_s_08_1,travel_shared,hand lotion,6.0,competing,single,t_s_08_1.jpg,Travel,,,sub-56
Desktop or Laptop,Windows 10,Edge 138.0.0.0,1920x1080,1912x924,Temporal Distance Task,cb_06,38.0,temp_dist_trial,num_items,zn7si1,1.0,response,1_ITEM,1840.4999999910647,1833.0,1840.4999999910647,1840.4999999910647,1833.0,1840.4999999910647,1.0,0.0,0.0,,Click Response,1_count,3.0,object-46,temp_dist_trial,38.0,t_m_17_1,travel_Miami,water gun,6.0,unique,single,t_m_17_1.jpg,Travel,,,sub-56
Desktop or Laptop,Windows 10,Edge 138.0.0.0,1920x1080,1912x924,Temporal Distance Task,cb_06,39.0,temp_dist_trial,num_items,zn7si1,1.0,response,2_ITEM,1254.2999999940512,1249.5,1254.2999999940512,1254.2999999940512,1249.5,1254.2999999940512,1.0,0.0,0.0,,Click Response,2_count,5.0,object-49,temp_dist_trial,39.0,t_m_05_1,travel_Miami,sunscreen,6.0,unique,paired,t_m_05_1.jpg,Travel,,,sub-56
Desktop or Laptop,Windows 10,Edge 138.0.0.0,1920x1080,1912x924,Temporal Distance Task,cb_06,39.0,temp_dist_trial,dist_items,qkpkxw,2.0,info,,9.599999994039537,0.0,9.599999994039537,9.599999994039537,0.0,9.599999994039537,1.0,0.0,0.0,,Slider,Slider,4.0,object-56,temp_dist_trial,39.0,t_m_05_1,travel_Miami,sunscreen,6.0,unique,paired,t_m_05_1.jpg,Travel,,,sub-56
Desktop or Laptop,Windows 10,Edge 138.0.0.0,1920x1080,1912x924,Temporal Distance Task,cb_06,39.0,temp_dist_trial,dist_items,qkpkxw,2.0,continue,,2862.5999999940386,2850.1000000000067,2862.5999999940386,2862.5999999940386,2850.1000000000067,2862.5999999940386,1.0,0.0,0.0,,Click To Continue,Next button,7.0,object-60,temp_dist_trial,39.0,t_m_05_1,travel_Miami,sunscreen,6.0,unique,paired,t_m_05_1.jpg,Travel,,,sub-56
Desktop or Laptop,Windows 10,Edge 138.0.0.0,1920x1080,1912x924,Temporal Distance Task,cb_06,39.0,temp_dist_trial,dist_items,qkpkxw,2.0,response,43,1433.2999999999884,2850.1000000000067,2866.9000000000237,1433.2999999999884,2850.1000000000067,2866.9000000000237,1.0,1433.6000000000354,0.0,,Slider,Slider,4.0,object-56,temp_dist_trial,39.0,t_m_05_1,travel_Miami,sunscreen,6.0,unique,paired,t_m_05_1.jpg,Travel,,,sub-56
Desktop or Laptop,Windows 10,Edge 138.0.0.0,1920x1080,1912x924,Temporal Distance Task,cb_06,40.0,temp_dist_trial,num_items,zn7si1,1.0,response,2_ITEM,1765.2999999910535,1749.7999999999884,1765.2999999910535,1765.2999999910535,1749.7999999999884,1765.2999999910535,1.0,0.0,0.0,,Click Response,2_count,5.0,object-49,temp_dist_trial,40.0,t_i_17_1,travel_Iceland,binoculars,6.0,unique,paired,t_i_17_1.jpg,Travel,,,sub-56
Desktop or Laptop,Windows 10,Edge 138.0.0.0,1920x1080,1912x924,Temporal Distance Task,cb_06,40.0,temp_dist_trial,dist_items,qkpkxw,2.0,info,,10.300000002986053,0.0,10.300000002986053,10.300000002986053,0.0,10.300000002986053,1.0,0.0,0.0,,Slider,Slider,4.0,object-56,temp_dist_trial,40.0,t_i_17_1,travel_Iceland,binoculars,6.0,unique,paired,t_i_17_1.jpg,Travel,,,sub-56
Desktop or Laptop,Windows 10,Edge 138.0.0.0,1920x1080,1912x924,Temporal Distance Task,cb_06,40.0,temp_dist_trial,dist_items,qkpkxw,2.0,continue,,3261.699999994045,3249.300000000017,3261.699999994045,3261.699999994045,3249.300000000017,3261.699999994045,1.0,0.0,0.0,,Click To Continue,Next button,7.0,object-60,temp_dist_trial,40.0,t_i_17_1,travel_Iceland,binoculars,6.0,unique,paired,t_i_17_1.jpg,Travel,,,sub-56
Desktop or Laptop,Windows 10,Edge 138.0.0.0,1920x1080,1912x924,Temporal Distance Task,cb_06,40.0,temp_dist_trial,dist_items,qkpkxw,2.0,response,40,982.8999999999942,3249.300000000017,3262.699999994045,982.8999999999942,3249.300000000017,3262.699999994045,1.0,2279.7999999940507,0.0,,Slider,Slider,4.0,object-56,temp_dist_trial,40.0,t_i_17_1,travel_Iceland,binoculars,6.0,unique,paired,t_i_17_1.jpg,Travel,,,sub-56
Desktop or Laptop,Windows 10,Edge 138.0.0.0,1920x1080,1912x924,Temporal Distance Task,cb_06,41.0,temp_dist_trial,num_items,zn7si1,1.0,response,2_ITEM,1283.2999999999886,1266.6999999999825,1283.2999999999886,1283.2999999999886,1266.6999999999825,1283.2999999999886,1.0,0.0,0.0,,Click Response,2_count,5.0,object-49,temp_dist_trial,41.0,t_i_01_1,travel_Iceland,gloves,6.0,unique,paired,t_i_01_1.jpg,Travel,,,sub-56
Desktop or Laptop,Windows 10,Edge 138.0.0.0,1920x1080,1912x924,Temporal Distance Task,cb_06,41.0,temp_dist_trial,dist_items,qkpkxw,2.0,info,,11.499999991065126,0.0,11.499999991065126,11.499999991065126,0.0,11.499999991065126,1.0,0.0,0.0,,Slider,Slider,4.0,object-56,temp_dist_trial,41.0,t_i_01_1,travel_Iceland,gloves,6.0,unique,paired,t_i_01_1.jpg,Travel,,,sub-56
Desktop or Laptop,Windows 10,Edge 138.0.0.0,1920x1080,1912x924,Temporal Distance Task,cb_06,41.0,temp_dist_trial,dist_items,qkpkxw,2.0,continue,,3459.3999999970256,3449.700000000012,3459.3999999970256,3459.3999999970256,3449.700000000012,3459.3999999970256,1.0,0.0,0.0,,Click To Continue,Next button,7.0,object-60,temp_dist_trial,41.0,t_i_01_1,travel_Iceland,gloves,6.0,unique,paired,t_i_01_1.jpg,Travel,,,sub-56
Desktop or Laptop,Windows 10,Edge 138.0.0.0,1920x1080,1912x924,Temporal Distance Task,cb_06,41.0,temp_dist_trial,dist_items,qkpkxw,2.0,response,82,1350.0,3449.700000000012,3466.500000000029,1350.0,3449.700000000012,3466.500000000029,1.0,2116.500000000029,0.0,,Slider,Slider,4.0,object-56,temp_dist_trial,41.0,t_i_01_1,travel_Iceland,gloves,6.0,unique,paired,t_i_01_1.jpg,Travel,,,sub-56
Desktop or Laptop,Windows 10,Edge 138.0.0.0,1920x1080,1912x924,Temporal Distance Task,cb_06,42.0,temp_dist_trial,num_items,zn7si1,1.0,response,1_ITEM,917.6999999970141,916.1999999999823,917.6999999970141,917.6999999970141,916.1999999999823,917.6999999970141,1.0,0.0,0.0,,Click Response,1_count,3.0,object-46,temp_dist_trial,42.0,t_s_05_1,travel_shared,neck pillow,6.0,competing,single,t_s_05_1.jpg,Travel,,,sub-56
Desktop or Laptop,Windows 10,Edge 138.0.0.0,1920x1080,1912x924,Temporal Distance Task,cb_06,43.0,temp_dist_trial,num_items,zn7si1,1.0,response,2_ITEM,1031.7000000000116,1016.8000000000177,1031.7000000000116,1031.7000000000116,1016.8000000000177,1031.7000000000116,1.0,0.0,0.0,,Click Response,2_count,5.0,object-49,temp_dist_trial,43.0,t_s_23_1,travel_shared,ball cap,6.0,competing,paired,t_s_23_1.jpg,Travel,,,sub-56
Desktop or Laptop,Windows 10,Edge 138.0.0.0,1920x1080,1912x924,Temporal Distance Task,cb_06,43.0,temp_dist_trial,dist_items,qkpkxw,2.0,info,,8.00000000296859,0.0,8.00000000296859,8.00000000296859,0.0,8.00000000296859,1.0,0.0,0.0,,Slider,Slider,4.0,object-56,temp_dist_trial,43.0,t_s_23_1,travel_shared,ball cap,6.0,competing,paired,t_s_23_1.jpg,Travel,,,sub-56
Desktop or Laptop,Windows 10,Edge 138.0.0.0,1920x1080,1912x924,Temporal Distance Task,cb_06,43.0,temp_dist_trial,dist_items,qkpkxw,2.0,continue,,1972.7999999999884,1966.5999999999767,1972.7999999999884,1972.7999999999884,1966.5999999999767,1972.7999999999884,1.0,0.0,0.0,,Click To Continue,Next button,7.0,object-60,temp_dist_trial,43.0,t_s_23_1,travel_shared,ball cap,6.0,competing,paired,t_s_23_1.jpg,Travel,,,sub-56
Desktop or Laptop,Windows 10,Edge 138.0.0.0,1920x1080,1912x924,Temporal Distance Task,cb_06,43.0,temp_dist_trial,dist_items,qkpkxw,2.0,response,86,833.5999999999768,1966.5999999999767,1973.7999999999884,833.5999999999768,1966.5999999999767,1973.7999999999884,1.0,1140.2000000000114,0.0,,Slider,Slider,4.0,object-56,temp_dist_trial,43.0,t_s_23_1,travel_shared,ball cap,6.0,competing,paired,t_s_23_1.jpg,Travel,,,sub-56
Desktop or Laptop,Windows 10,Edge 138.0.0.0,1920x1080,1912x924,Temporal Distance Task,cb_06,44.0,temp_dist_trial,num_items,zn7si1,1.0,response,2_ITEM,2145.599999991071,2133.3000000000175,2145.599999991071,2145.599999991071,2133.3000000000175,2145.599999991071,1.0,0.0,0.0,,Click Response,2_count,5.0,object-49,temp_dist_trial,44.0,t_s_15_1,travel_shared,luggage tag,6.0,competing,paired,t_s_15_1.jpg,Travel,,,sub-56
Desktop or Laptop,Windows 10,Edge 138.0.0.0,1920x1080,1912x924,Temporal Distance Task,cb_06,44.0,temp_dist_trial,dist_items,qkpkxw,2.0,info,,10.299999994051177,0.0,10.299999994051177,10.299999994051177,0.0,10.299999994051177,1.0,0.0,0.0,,Slider,Slider,4.0,object-56,temp_dist_trial,44.0,t_s_15_1,travel_shared,luggage tag,6.0,competing,paired,t_s_15_1.jpg,Travel,,,sub-56
Desktop or Laptop,Windows 10,Edge 138.0.0.0,1920x1080,1912x924,Temporal Distance Task,cb_06,44.0,temp_dist_trial,dist_items,qkpkxw,2.0,continue,,2843.099999991071,2833.200000000012,2843.099999991071,2843.099999991071,2833.200000000012,2843.099999991071,1.0,0.0,0.0,,Click To Continue,Next button,7.0,object-60,temp_dist_trial,44.0,t_s_15_1,travel_shared,luggage tag,6.0,competing,paired,t_s_15_1.jpg,Travel,,,sub-56
Desktop or Laptop,Windows 10,Edge 138.0.0.0,1920x1080,1912x924,Temporal Distance Task,cb_06,44.0,temp_dist_trial,dist_items,qkpkxw,2.0,response,85,1383.2000000000116,2833.200000000012,2844.700000000012,1383.2000000000116,2833.200000000012,2844.700000000012,1.0,1461.5,0.0,,Slider,Slider,4.0,object-56,temp_dist_trial,44.0,t_s_15_1,travel_shared,luggage tag,6.0,competing,paired,t_s_15_1.jpg,Travel,,,sub-56
Desktop or Laptop,Windows 10,Edge 138.0.0.0,1920x1080,1912x924,Temporal Distance Task,cb_06,45.0,temp_dist_trial,num_items,zn7si1,1.0,response,2_ITEM,1534.7999999970193,1533.0,1534.7999999970193,1534.7999999970193,1533.0,1534.7999999970193,1.0,0.0,0.0,,Click Response,2_count,5.0,object-49,temp_dist_trial,45.0,t_s_09_1,travel_shared,wallet,6.0,competing,paired,t_s_09_1.jpg,Travel,,,sub-56
Desktop or Laptop,Windows 10,Edge 138.0.0.0,1920x1080,1912x924,Temporal Distance Task,cb_06,45.0,temp_dist_trial,dist_items,qkpkxw,2.0,info,,10.399999999994181,0.0,10.399999999994181,10.399999999994181,0.0,10.399999999994181,1.0,0.0,0.0,,Slider,Slider,4.0,object-56,temp_dist_trial,45.0,t_s_09_1,travel_shared,wallet,6.0,competing,paired,t_s_09_1.jpg,Travel,,,sub-56
Desktop or Laptop,Windows 10,Edge 138.0.0.0,1920x1080,1912x924,Temporal Distance Task,cb_06,45.0,temp_dist_trial,dist_items,qkpkxw,2.0,continue,,3039.199999997014,3033.0,3039.199999997014,3039.199999997014,3033.0,3039.199999997014,1.0,0.0,0.0,,Click To Continue,Next button,7.0,object-60,temp_dist_trial,45.0,t_s_09_1,travel_shared,wallet,6.0,competing,paired,t_s_09_1.jpg,Travel,,,sub-56
Desktop or Laptop,Windows 10,Edge 138.0.0.0,1920x1080,1912x924,Temporal Distance Task,cb_06,45.0,temp_dist_trial,dist_items,qkpkxw,2.0,response,86,1483.2999999999884,3033.0,3039.699999997014,1483.2999999999884,3033.0,3039.699999997014,1.0,1556.3999999970254,0.0,,Slider,Slider,4.0,object-56,temp_dist_trial,45.0,t_s_09_1,travel_shared,wallet,6.0,competing,paired,t_s_09_1.jpg,Travel,,,sub-56
Desktop or Laptop,Windows 10,Edge 138.0.0.0,1920x1080,1912x924,Temporal Distance Task,cb_06,46.0,temp_dist_trial,num_items,zn7si1,1.0,response,1_ITEM,974.2999999910536,966.3999999999942,974.2999999910536,974.2999999910536,966.3999999999942,974.2999999910536,1.0,0.0,0.0,,Click Response,1_count,3.0,object-46,temp_dist_trial,46.0,t_m_13_1,travel_Miami,floatie,6.0,unique,paired,t_m_13_1.jpg,Travel,,,sub-56
Desktop or Laptop,Windows 10,Edge 138.0.0.0,1920x1080,1912x924,Temporal Distance Task,cb_06,47.0,temp_dist_trial,num_items,zn7si1,1.0,response,1_ITEM,1448.6000000000058,1433.2000000000116,1448.6000000000058,1448.6000000000058,1433.2000000000116,1448.6000000000058,1.0,0.0,0.0,,Click Response,1_count,3.0,object-46,temp_dist_trial,47.0,t_m_14_1,travel_Miami,swim goggles,6.0,unique,paired,t_m_14_1.jpg,Travel,,,sub-56
Desktop or Laptop,Windows 10,Edge 138.0.0.0,1920x1080,1912x924,Temporal Distance Task,cb_06,48.0,temp_dist_trial,num_items,zn7si1,1.0,response,2_ITEM,1286.5000000029684,1283.2999999999886,1286.5000000029684,1286.5000000029684,1283.2999999999886,1286.5000000029684,1.0,0.0,0.0,,Click Response,2_count,5.0,object-49,temp_dist_trial,48.0,t_s_14_1,travel_shared,hand sanitizer,6.0,competing,paired,t_s_14_1.jpg,Travel,,,sub-56
Desktop or Laptop,Windows 10,Edge 138.0.0.0,1920x1080,1912x924,Temporal Distance Task,cb_06,48.0,temp_dist_trial,dist_items,qkpkxw,2.0,info,,12.200000000011642,0.0,12.200000000011642,12.200000000011642,0.0,12.200000000011642,1.0,0.0,0.0,,Slider,Slider,4.0,object-56,temp_dist_trial,48.0,t_s_14_1,travel_shared,hand sanitizer,6.0,competing,paired,t_s_14_1.jpg,Travel,,,sub-56
Desktop or Laptop,Windows 10,Edge 138.0.0.0,1920x1080,1912x924,Temporal Distance Task,cb_06,48.0,temp_dist_trial,dist_items,qkpkxw,2.0,continue,,1897.7000000000119,1883.0,1897.7000000000119,1897.7000000000119,1883.0,1897.7000000000119,1.0,0.0,0.0,,Click To Continue,Next button,7.0,object-60,temp_dist_trial,48.0,t_s_14_1,travel_shared,hand sanitizer,6.0,competing,paired,t_s_14_1.jpg,Travel,,,sub-56
Desktop or Laptop,Windows 10,Edge 138.0.0.0,1920x1080,1912x924,Temporal Distance Task,cb_06,48.0,temp_dist_trial,dist_items,qkpkxw,2.0,response,86,733.3000000000177,1883.0,1899.099999991071,733.3000000000177,1883.0,1899.099999991071,1.0,1165.7999999910535,0.0,,Slider,Slider,4.0,object-56,temp_dist_trial,48.0,t_s_14_1,travel_shared,hand sanitizer,6.0,competing,paired,t_s_14_1.jpg,Travel,,,sub-56
Desktop or Laptop,Windows 10,Edge 138.0.0.0,1920x1080,1912x924,Temporal Distance Task,cb_06,2.0,temp_eventStart,Screen 1,dgtyxe,1.0,continue,,1390.4000000029919,1383.3000000000175,1390.4000000029919,1390.4000000029919,1383.3000000000175,1390.4000000029919,1.0,0.0,0.0,,Click To Continue,Next Button,3.0,object-43,temp_eventStart,,,Student,,,,,,,,,sub-56
Desktop or Laptop,Windows 10,Edge 138.0.0.0,1920x1080,1912x924,Temporal Distance Task,cb_06,49.0,temp_dist_trial,num_items,zn7si1,1.0,response,2_ITEM,1487.199999997014,1483.3999999999942,1487.199999997014,1487.199999997014,1483.3999999999942,1487.199999997014,1.0,0.0,0.0,,Click Response,2_count,5.0,object-49,temp_dist_trial,1.0,s_a_03_1,student_art,palette,6.0,unique,paired,s_a_03_1.jpg,Student,,,sub-56
Desktop or Laptop,Windows 10,Edge 138.0.0.0,1920x1080,1912x924,Temporal Distance Task,cb_06,49.0,temp_dist_trial,dist_items,qkpkxw,2.0,info,,11.499999991065126,0.0,11.499999991065126,11.499999991065126,0.0,11.499999991065126,1.0,0.0,0.0,,Slider,Slider,4.0,object-56,temp_dist_trial,1.0,s_a_03_1,student_art,palette,6.0,unique,paired,s_a_03_1.jpg,Student,,,sub-56
Desktop or Laptop,Windows 10,Edge 138.0.0.0,1920x1080,1912x924,Temporal Distance Task,cb_06,49.0,temp_dist_trial,dist_items,qkpkxw,2.0,continue,,1626.1000000000058,1616.5,1626.1000000000058,1626.1000000000058,1616.5,1626.1000000000058,1.0,0.0,0.0,,Click To Continue,Next button,7.0,object-60,temp_dist_trial,1.0,s_a_03_1,student_art,palette,6.0,unique,paired,s_a_03_1.jpg,Student,,,sub-56
Desktop or Laptop,Windows 10,Edge 138.0.0.0,1920x1080,1912x924,Temporal Distance Task,cb_06,49.0,temp_dist_trial,dist_items,qkpkxw,2.0,response,36,799.8999999999942,1616.5,1626.800000002986,799.8999999999942,1616.5,1626.800000002986,1.0,826.900000002992,0.0,,Slider,Slider,4.0,object-56,temp_dist_trial,1.0,s_a_03_1,student_art,palette,6.0,unique,paired,s_a_03_1.jpg,Student,,,sub-56
Desktop or Laptop,Windows 10,Edge 138.0.0.0,1920x1080,1912x924,Temporal Distance Task,cb_06,50.0,temp_dist_trial,num_items,zn7si1,1.0,response,2_ITEM,1569.300000002986,1566.3000000000175,1569.300000002986,1569.300000002986,1566.3000000000175,1569.300000002986,1.0,0.0,0.0,,Click Response,2_count,5.0,object-49,temp_dist_trial,2.0,s_sh_03_1,student_shared,highlighter,6.0,competing,single,s_sh_03_1.jpg,Student,,,sub-56
Desktop or Laptop,Windows 10,Edge 138.0.0.0,1920x1080,1912x924,Temporal Distance Task,cb_06,50.0,temp_dist_trial,dist_items,qkpkxw,2.0,info,,10.900000002991874,0.0,10.900000002991874,10.900000002991874,0.0,10.900000002991874,1.0,0.0,0.0,,Slider,Slider,4.0,object-56,temp_dist_trial,2.0,s_sh_03_1,student_shared,highlighter,6.0,competing,single,s_sh_03_1.jpg,Student,,,sub-56
Desktop or Laptop,Windows 10,Edge 138.0.0.0,1920x1080,1912x924,Temporal Distance Task,cb_06,50.0,temp_dist_trial,dist_items,qkpkxw,2.0,continue,,1865.2000000000119,1849.6000000000056,1865.2000000000119,1865.2000000000119,1849.6000000000056,1865.2000000000119,1.0,0.0,0.0,,Click To Continue,Next button,7.0,object-60,temp_dist_trial,2.0,s_sh_03_1,student_shared,highlighter,6.0,competing,single,s_sh_03_1.jpg,Student,,,sub-56
Desktop or Laptop,Windows 10,Edge 138.0.0.0,1920x1080,1912x924,Temporal Distance Task,cb_06,50.0,temp_dist_trial,dist_items,qkpkxw,2.0,response,80,1116.6000000000058,1849.6000000000056,1866.2000000000119,1116.6000000000058,1849.6000000000056,1866.2000000000119,1.0,749.6000000000058,0.0,,Slider,Slider,4.0,object-56,temp_dist_trial,2.0,s_sh_03_1,student_shared,highlighter,6.0,competing,single,s_sh_03_1.jpg,Student,,,sub-56
Desktop or Laptop,Windows 10,Edge 138.0.0.0,1920x1080,1912x924,Temporal Distance Task,cb_06,51.0,temp_dist_trial,num_items,zn7si1,1.0,response,1_ITEM,1315.3999999970254,1300.0,1315.3999999970254,1315.3999999970254,1300.0,1315.3999999970254,1.0,0.0,0.0,,Click Response,1_count,3.0,object-46,temp_dist_trial,3.0,s_s_14_1,student_stem,funnel,6.0,unique,paired,s_s_14_1.jpg,Student,,,sub-56
Desktop or Laptop,Windows 10,Edge 138.0.0.0,1920x1080,1912x924,Temporal Distance Task,cb_06,52.0,temp_dist_trial,num_items,zn7si1,1.0,response,1_ITEM,1725.7999999910535,1716.3999999999942,1725.7999999910535,1725.7999999910535,1716.3999999999942,1725.7999999910535,1.0,0.0,0.0,,Click Response,1_count,3.0,object-46,temp_dist_trial,4.0,s_sh_07_1,student_shared,ruler,6.0,competing,single,s_sh_07_1.jpg,Student,,,sub-56
Desktop or Laptop,Windows 10,Edge 138.0.0.0,1920x1080,1912x924,Temporal Distance Task,cb_06,53.0,temp_dist_trial,num_items,zn7si1,1.0,response,2_ITEM,1839.199999997014,1833.2999999999884,1839.199999997014,1839.199999997014,1833.2999999999884,1839.199999997014,1.0,0.0,0.0,,Click Response,2_count,5.0,object-49,temp_dist_trial,5.0,s_s_11_1,student_stem,scientific scale,6.0,unique,paired,s_s_11_1.jpg,Student,,,sub-56
Desktop or Laptop,Windows 10,Edge 138.0.0.0,1920x1080,1912x924,Temporal Distance Task,cb_06,53.0,temp_dist_trial,dist_items,qkpkxw,2.0,info,,5.300000002986053,0.0,5.300000002986053,5.300000002986053,0.0,5.300000002986053,1.0,0.0,0.0,,Slider,Slider,4.0,object-56,temp_dist_trial,5.0,s_s_11_1,student_stem,scientific scale,6.0,unique,paired,s_s_11_1.jpg,Student,,,sub-56
Desktop or Laptop,Windows 10,Edge 138.0.0.0,1920x1080,1912x924,Temporal Distance Task,cb_06,53.0,temp_dist_trial,dist_items,qkpkxw,2.0,continue,,1923.8999999970251,1916.3000000000175,1923.8999999970251,1923.8999999970251,1916.3000000000175,1923.8999999970251,1.0,0.0,0.0,,Click To Continue,Next button,7.0,object-60,temp_dist_trial,5.0,s_s_11_1,student_stem,scientific scale,6.0,unique,paired,s_s_11_1.jpg,Student,,,sub-56
Desktop or Laptop,Windows 10,Edge 138.0.0.0,1920x1080,1912x924,Temporal Distance Task,cb_06,53.0,temp_dist_trial,dist_items,qkpkxw,2.0,response,73,1083.2000000000116,1916.3000000000175,1924.6000000000056,1083.2000000000116,1916.3000000000175,1924.6000000000056,1.0,841.3999999999942,0.0,,Slider,Slider,4.0,object-56,temp_dist_trial,5.0,s_s_11_1,student_stem,scientific scale,6.0,unique,paired,s_s_11_1.jpg,Student,,,sub-56
Desktop or Laptop,Windows 10,Edge 138.0.0.0,1920x1080,1912x924,Temporal Distance Task,cb_06,54.0,temp_dist_trial,num_items,zn7si1,1.0,response,2_ITEM,995.5000000029686,983.3999999999942,995.5000000029686,995.5000000029686,983.3999999999942,995.5000000029686,1.0,0.0,0.0,,Click Response,2_count,5.0,object-49,temp_dist_trial,6.0,s_sh_09_1,student_shared,paper clips,6.0,competing,paired,s_sh_09_1.jpg,Student,,,sub-56
Desktop or Laptop,Windows 10,Edge 138.0.0.0,1920x1080,1912x924,Temporal Distance Task,cb_06,54.0,temp_dist_trial,dist_items,qkpkxw,2.0,info,,5.4000000029918755,0.0,5.4000000029918755,5.4000000029918755,0.0,5.4000000029918755,1.0,0.0,0.0,,Slider,Slider,4.0,object-56,temp_dist_trial,6.0,s_sh_09_1,student_shared,paper clips,6.0,competing,paired,s_sh_09_1.jpg,Student,,,sub-56
Desktop or Laptop,Windows 10,Edge 138.0.0.0,1920x1080,1912x924,Temporal Distance Task,cb_06,54.0,temp_dist_trial,dist_items,qkpkxw,2.0,continue,,1642.4000000029919,1633.2000000000116,1642.4000000029919,1642.4000000029919,1633.2000000000116,1642.4000000029919,1.0,0.0,0.0,,Click To Continue,Next button,7.0,object-60,temp_dist_trial,6.0,s_sh_09_1,student_shared,paper clips,6.0,competing,paired,s_sh_09_1.jpg,Student,,,sub-56
Desktop or Laptop,Windows 10,Edge 138.0.0.0,1920x1080,1912x924,Temporal Distance Task,cb_06,54.0,temp_dist_trial,dist_items,qkpkxw,2.0,response,65,666.9000000000233,1633.2000000000116,1643.4999999970316,666.9000000000233,1633.2000000000116,1643.4999999970316,1.0,976.599999997008,0.0,,Slider,Slider,4.0,object-56,temp_dist_trial,6.0,s_sh_09_1,student_shared,paper clips,6.0,competing,paired,s_sh_09_1.jpg,Student,,,sub-56
Desktop or Laptop,Windows 10,Edge 138.0.0.0,1920x1080,1912x924,Temporal Distance Task,cb_06,55.0,temp_dist_trial,num_items,zn7si1,1.0,response,2_ITEM,933.3999999910593,916.7999999999884,933.3999999910593,933.3999999910593,916.7999999999884,933.3999999910593,1.0,0.0,0.0,,Click Response,2_count,5.0,object-49,temp_dist_trial,7.0,s_a_07_1,student_art,yarn,6.0,unique,paired,s_a_07_1.jpg,Student,,,sub-56
Desktop or Laptop,Windows 10,Edge 138.0.0.0,1920x1080,1912x924,Temporal Distance Task,cb_06,55.0,temp_dist_trial,dist_items,qkpkxw,2.0,info,,3.5000000029685907,0.0,3.5000000029685907,3.5000000029685907,0.0,3.5000000029685907,1.0,0.0,0.0,,Slider,Slider,4.0,object-56,temp_dist_trial,7.0,s_a_07_1,student_art,yarn,6.0,unique,paired,s_a_07_1.jpg,Student,,,sub-56
Desktop or Laptop,Windows 10,Edge 138.0.0.0,1920x1080,1912x924,Temporal Distance Task,cb_06,55.0,temp_dist_trial,dist_items,qkpkxw,2.0,continue,,2246.699999991048,2233.0999999999767,2246.699999991048,2246.699999991048,2233.0999999999767,2246.699999991048,1.0,0.0,0.0,,Click To Continue,Next button,7.0,object-60,temp_dist_trial,7.0,s_a_07_1,student_art,yarn,6.0,unique,paired,s_a_07_1.jpg,Student,,,sub-56
Desktop or Laptop,Windows 10,Edge 138.0.0.0,1920x1080,1912x924,Temporal Distance Task,cb_06,55.0,temp_dist_trial,dist_items,qkpkxw,2.0,response,36,1166.3999999999942,2233.0999999999767,2249.6999999999534,1166.3999999999942,2233.0999999999767,2249.6999999999534,1.0,1083.2999999999593,0.0,,Slider,Slider,4.0,object-56,temp_dist_trial,7.0,s_a_07_1,student_art,yarn,6.0,unique,paired,s_a_07_1.jpg,Student,,,sub-56
Desktop or Laptop,Windows 10,Edge 138.0.0.0,1920x1080,1912x924,Temporal Distance Task,cb_06,56.0,temp_dist_trial,num_items,zn7si1,1.0,response,2_ITEM,1725.4999999970316,1716.5,1725.4999999970316,1725.4999999970316,1716.5,1725.4999999970316,1.0,0.0,0.0,,Click Response,2_count,5.0,object-49,temp_dist_trial,8.0,s_sh_11_1,student_shared,pencil case,6.0,competing,paired,s_sh_11_1.jpg,Student,,,sub-56
Desktop or Laptop,Windows 10,Edge 138.0.0.0,1920x1080,1912x924,Temporal Distance Task,cb_06,56.0,temp_dist_trial,dist_items,qkpkxw,2.0,info,,11.799999999988358,0.0,11.799999999988358,11.799999999988358,0.0,11.799999999988358,1.0,0.0,0.0,,Slider,Slider,4.0,object-56,temp_dist_trial,8.0,s_sh_11_1,student_shared,pencil case,6.0,competing,paired,s_sh_11_1.jpg,Student,,,sub-56
Desktop or Laptop,Windows 10,Edge 138.0.0.0,1920x1080,1912x924,Temporal Distance Task,cb_06,56.0,temp_dist_trial,dist_items,qkpkxw,2.0,continue,,2015.199999991048,1999.8999999999944,2015.199999991048,2015.199999991048,1999.8999999999944,2015.199999991048,1.0,0.0,0.0,,Click To Continue,Next button,7.0,object-60,temp_dist_trial,8.0,s_sh_11_1,student_shared,pencil case,6.0,competing,paired,s_sh_11_1.jpg,Student,,,sub-56
Desktop or Laptop,Windows 10,Edge 138.0.0.0,1920x1080,1912x924,Temporal Distance Task,cb_06,56.0,temp_dist_trial,dist_items,qkpkxw,2.0,response,86,666.5999999999767,1999.8999999999944,2016.0999999970081,666.5999999999767,1999.8999999999944,2016.0999999970081,1.0,1349.4999999970316,0.0,,Slider,Slider,4.0,object-56,temp_dist_trial,8.0,s_sh_11_1,student_shared,pencil case,6.0,competing,paired,s_sh_11_1.jpg,Student,,,sub-56
Desktop or Laptop,Windows 10,Edge 138.0.0.0,1920x1080,1912x924,Temporal Distance Task,cb_06,57.0,temp_dist_trial,num_items,zn7si1,1.0,response,2_ITEM,1355.1000000029746,1349.6999999999825,1355.1000000029746,1355.1000000029746,1349.6999999999825,1355.1000000029746,1.0,0.0,0.0,,Click Response,2_count,5.0,object-49,temp_dist_trial,9.0,s_sh_12_1,student_shared,binder,6.0,competing,paired,s_sh_12_1.jpg,Student,,,sub-56
Desktop or Laptop,Windows 10,Edge 138.0.0.0,1920x1080,1912x924,Temporal Distance Task,cb_06,57.0,temp_dist_trial,dist_items,qkpkxw,2.0,info,,5.5999999970081245,0.0,5.5999999970081245,5.5999999970081245,0.0,5.5999999970081245,1.0,0.0,0.0,,Slider,Slider,4.0,object-56,temp_dist_trial,9.0,s_sh_12_1,student_shared,binder,6.0,competing,paired,s_sh_12_1.jpg,Student,,,sub-56
Desktop or Laptop,Windows 10,Edge 138.0.0.0,1920x1080,1912x924,Temporal Distance Task,cb_06,57.0,temp_dist_trial,dist_items,qkpkxw,2.0,continue,,2963.599999997008,2949.5,2963.599999997008,2963.599999997008,2949.5,2963.599999997008,1.0,0.0,0.0,,Click To Continue,Next button,7.0,object-60,temp_dist_trial,9.0,s_sh_12_1,student_shared,binder,6.0,competing,paired,s_sh_12_1.jpg,Student,,,sub-56
Desktop or Laptop,Windows 10,Edge 138.0.0.0,1920x1080,1912x924,Temporal Distance Task,cb_06,57.0,temp_dist_trial,dist_items,qkpkxw,2.0,response,46,816.5999999999768,2949.5,2965.0000000029686,816.5999999999768,2949.5,2965.0000000029686,1.0,2148.400000002992,0.0,,Slider,Slider,4.0,object-56,temp_dist_trial,9.0,s_sh_12_1,student_shared,binder,6.0,competing,paired,s_sh_12_1.jpg,Student,,,sub-56
Desktop or Laptop,Windows 10,Edge 138.0.0.0,1920x1080,1912x924,Temporal Distance Task,cb_06,58.0,temp_dist_trial,num_items,zn7si1,1.0,response,2_ITEM,998.0000000029686,983.3999999999942,998.0000000029686,998.0000000029686,983.3999999999942,998.0000000029686,1.0,0.0,0.0,,Click Response,2_count,5.0,object-49,temp_dist_trial,10.0,s_sh_13_1,student_shared,index cards,6.0,competing,paired,s_sh_13_1.jpg,Student,,,sub-56
Desktop or Laptop,Windows 10,Edge 138.0.0.0,1920x1080,1912x924,Temporal Distance Task,cb_06,58.0,temp_dist_trial,dist_items,qkpkxw,2.0,info,,5.49999999703141,0.0,5.49999999703141,5.49999999703141,0.0,5.49999999703141,1.0,0.0,0.0,,Slider,Slider,4.0,object-56,temp_dist_trial,10.0,s_sh_13_1,student_shared,index cards,6.0,competing,paired,s_sh_13_1.jpg,Student,,,sub-56
Desktop or Laptop,Windows 10,Edge 138.0.0.0,1920x1080,1912x924,Temporal Distance Task,cb_06,58.0,temp_dist_trial,dist_items,qkpkxw,2.0,continue,,1537.2000000000116,1533.2000000000116,1537.2000000000116,1537.2000000000116,1533.2000000000116,1537.2000000000116,1.0,0.0,0.0,,Click To Continue,Next button,7.0,object-60,temp_dist_trial,10.0,s_sh_13_1,student_shared,index cards,6.0,competing,paired,s_sh_13_1.jpg,Student,,,sub-56
Desktop or Laptop,Windows 10,Edge 138.0.0.0,1920x1080,1912x924,Temporal Distance Task,cb_06,58.0,temp_dist_trial,dist_items,qkpkxw,2.0,response,17,516.7000000000116,1533.2000000000116,1549.8000000000175,516.7000000000116,1533.2000000000116,1549.8000000000175,1.0,1033.1000000000058,0.0,,Slider,Slider,4.0,object-56,temp_dist_trial,10.0,s_sh_13_1,student_shared,index cards,6.0,competing,paired,s_sh_13_1.jpg,Student,,,sub-56
Desktop or Laptop,Windows 10,Edge 138.0.0.0,1920x1080,1912x924,Temporal Distance Task,cb_06,59.0,temp_dist_trial,num_items,zn7si1,1.0,response,2_ITEM,1491.2999999970193,1483.5,1491.2999999970193,1491.2999999970193,1483.5,1491.2999999970193,1.0,0.0,0.0,,Click Response,2_count,5.0,object-49,temp_dist_trial,11.0,s_sh_23_1,student_shared,ballpoint pen,6.0,competing,single,s_sh_23_1.jpg,Student,,,sub-56
Desktop or Laptop,Windows 10,Edge 138.0.0.0,1920x1080,1912x924,Temporal Distance Task,cb_06,59.0,temp_dist_trial,dist_items,qkpkxw,2.0,info,,5.50000000296859,0.0,5.50000000296859,5.50000000296859,0.0,5.50000000296859,1.0,0.0,0.0,,Slider,Slider,4.0,object-56,temp_dist_trial,11.0,s_sh_23_1,student_shared,ballpoint pen,6.0,competing,single,s_sh_23_1.jpg,Student,,,sub-56
Desktop or Laptop,Windows 10,Edge 138.0.0.0,1920x1080,1912x924,Temporal Distance Task,cb_06,59.0,temp_dist_trial,dist_items,qkpkxw,2.0,continue,,1554.6999999910474,1550.1999999999825,1554.6999999910474,1554.6999999910474,1550.1999999999825,1554.6999999910474,1.0,0.0,0.0,,Click To Continue,Next button,7.0,object-60,temp_dist_trial,11.0,s_sh_23_1,student_shared,ballpoint pen,6.0,competing,single,s_sh_23_1.jpg,Student,,,sub-56
Desktop or Laptop,Windows 10,Edge 138.0.0.0,1920x1080,1912x924,Temporal Distance Task,cb_06,59.0,temp_dist_trial,dist_items,qkpkxw,2.0,response,76,616.5999999999767,1550.1999999999825,1555.5999999970081,616.5999999999767,1550.1999999999825,1555.5999999970081,1.0,938.9999999970314,0.0,,Slider,Slider,4.0,object-56,temp_dist_trial,11.0,s_sh_23_1,student_shared,ballpoint pen,6.0,competing,single,s_sh_23_1.jpg,Student,,,sub-56
Desktop or Laptop,Windows 10,Edge 138.0.0.0,1920x1080,1912x924,Temporal Distance Task,cb_06,60.0,temp_dist_trial,num_items,zn7si1,1.0,response,2_ITEM,1424.300000002986,1416.3999999999942,1424.300000002986,1424.300000002986,1416.3999999999942,1424.300000002986,1.0,0.0,0.0,,Click Response,2_count,5.0,object-49,temp_dist_trial,12.0,s_a_09_1,student_art,picture frame,6.0,unique,paired,s_a_09_1.jpg,Student,,,sub-56
Desktop or Laptop,Windows 10,Edge 138.0.0.0,1920x1080,1912x924,Temporal Distance Task,cb_06,60.0,temp_dist_trial,dist_items,qkpkxw,2.0,info,,5.600000000005821,0.0,5.600000000005821,5.600000000005821,0.0,5.600000000005821,1.0,0.0,0.0,,Slider,Slider,4.0,object-56,temp_dist_trial,12.0,s_a_09_1,student_art,picture frame,6.0,unique,paired,s_a_09_1.jpg,Student,,,sub-56
Desktop or Laptop,Windows 10,Edge 138.0.0.0,1920x1080,1912x924,Temporal Distance Task,cb_06,60.0,temp_dist_trial,dist_items,qkpkxw,2.0,continue,,2226.300000002986,2216.8000000000175,2226.300000002986,2226.300000002986,2216.8000000000175,2226.300000002986,1.0,0.0,0.0,,Click To Continue,Next button,7.0,object-60,temp_dist_trial,12.0,s_a_09_1,student_art,picture frame,6.0,unique,paired,s_a_09_1.jpg,Student,,,sub-56
Desktop or Laptop,Windows 10,Edge 138.0.0.0,1920x1080,1912x924,Temporal Distance Task,cb_06,60.0,temp_dist_trial,dist_items,qkpkxw,2.0,response,35,1000.0,2216.8000000000175,2227.800000002986,1000.0,2216.8000000000175,2227.800000002986,1.0,1227.800000002986,0.0,,Slider,Slider,4.0,object-56,temp_dist_trial,12.0,s_a_09_1,student_art,picture frame,6.0,unique,paired,s_a_09_1.jpg,Student,,,sub-56
Desktop or Laptop,Windows 10,Edge 138.0.0.0,1920x1080,1912x924,Temporal Distance Task,cb_06,61.0,temp_dist_trial,num_items,zn7si1,1.0,response,1_ITEM,1097.6999999910477,1082.8999999999942,1097.6999999910477,1097.6999999910477,1082.8999999999942,1097.6999999910477,1.0,0.0,0.0,,Click Response,1_count,3.0,object-46,temp_dist_trial,13.0,s_s_13_1,student_stem,telescope,6.0,unique,paired,s_s_13_1.jpg,Student,,,sub-56
Desktop or Laptop,Windows 10,Edge 138.0.0.0,1920x1080,1912x924,Temporal Distance Task,cb_06,62.0,temp_dist_trial,num_items,zn7si1,1.0,response,1_ITEM,2084.7999999970198,2083.200000000012,2084.7999999970198,2084.7999999970198,2083.200000000012,2084.7999999970198,1.0,0.0,0.0,,Click Response,1_count,3.0,object-46,temp_dist_trial,14.0,s_sh_19_1,student_shared,portable plastic drawer,6.0,competing,single,s_sh_19_1.jpg,Student,,,sub-56
Desktop or Laptop,Windows 10,Edge 138.0.0.0,1920x1080,1912x924,Temporal Distance Task,cb_06,63.0,temp_dist_trial,num_items,zn7si1,1.0,response,1_ITEM,2635.999999991065,2632.8999999999937,2635.999999991065,2635.999999991065,2632.8999999999937,2635.999999991065,1.0,0.0,0.0,,Click Response,1_count,3.0,object-46,temp_dist_trial,15.0,s_a_11_1,student_art,clapperboard,6.0,unique,single,s_a_11_1.jpg,Student,,,sub-56
Desktop or Laptop,Windows 10,Edge 138.0.0.0,1920x1080,1912x924,Temporal Distance Task,cb_06,64.0,temp_dist_trial,num_items,zn7si1,1.0,response,1_ITEM,1784.6999999940454,1782.8999999999942,1784.6999999940454,1784.6999999940454,1782.8999999999942,1784.6999999940454,1.0,0.0,0.0,,Click Response,1_count,3.0,object-46,temp_dist_trial,16.0,s_s_18_1,student_stem,brain model,6.0,unique,single,s_s_18_1.jpg,Student,,,sub-56
Desktop or Laptop,Windows 10,Edge 138.0.0.0,1920x1080,1912x924,Temporal Distance Task,cb_06,65.0,temp_dist_trial,num_items,zn7si1,1.0,response,2_ITEM,1340.0,1333.0,1340.0,1340.0,1333.0,1340.0,1.0,0.0,0.0,,Click Response,2_count,5.0,object-49,temp_dist_trial,17.0,s_a_10_1,student_art,tripod,6.0,unique,single,s_a_10_1.jpg,Student,,,sub-56
Desktop or Laptop,Windows 10,Edge 138.0.0.0,1920x1080,1912x924,Temporal Distance Task,cb_06,65.0,temp_dist_trial,dist_items,qkpkxw,2.0,info,,9.699999997013947,0.0,9.699999997013947,9.699999997013947,0.0,9.699999997013947,1.0,0.0,0.0,,Slider,Slider,4.0,object-56,temp_dist_trial,17.0,s_a_10_1,student_art,tripod,6.0,unique,single,s_a_10_1.jpg,Student,,,sub-56
Desktop or Laptop,Windows 10,Edge 138.0.0.0,1920x1080,1912x924,Temporal Distance Task,cb_06,65.0,temp_dist_trial,dist_items,qkpkxw,2.0,continue,,2087.9999999940337,2082.7999999999884,2087.9999999940337,2087.9999999940337,2082.7999999999884,2087.9999999940337,1.0,0.0,0.0,,Click To Continue,Next button,7.0,object-60,temp_dist_trial,17.0,s_a_10_1,student_art,tripod,6.0,unique,single,s_a_10_1.jpg,Student,,,sub-56
Desktop or Laptop,Windows 10,Edge 138.0.0.0,1920x1080,1912x924,Temporal Distance Task,cb_06,65.0,temp_dist_trial,dist_items,qkpkxw,2.0,response,68,916.3999999999942,2082.7999999999884,2089.199999997014,916.3999999999942,2082.7999999999884,2089.199999997014,1.0,1172.7999999970198,0.0,,Slider,Slider,4.0,object-56,temp_dist_trial,17.0,s_a_10_1,student_art,tripod,6.0,unique,single,s_a_10_1.jpg,Student,,,sub-56
Desktop or Laptop,Windows 10,Edge 138.0.0.0,1920x1080,1912x924,Temporal Distance Task,cb_06,66.0,temp_dist_trial,num_items,zn7si1,1.0,response,2_ITEM,1029.1000000000058,1016.6000000000058,1029.1000000000058,1029.1000000000058,1016.6000000000058,1029.1000000000058,1.0,0.0,0.0,,Click Response,2_count,5.0,object-49,temp_dist_trial,18.0,s_a_13_1,student_art,violin,6.0,unique,paired,s_a_13_1.jpg,Student,,,sub-56
Desktop or Laptop,Windows 10,Edge 138.0.0.0,1920x1080,1912x924,Temporal Distance Task,cb_06,66.0,temp_dist_trial,dist_items,qkpkxw,2.0,info,,5.699999997013947,0.0,5.699999997013947,5.699999997013947,0.0,5.699999997013947,1.0,0.0,0.0,,Slider,Slider,4.0,object-56,temp_dist_trial,18.0,s_a_13_1,student_art,violin,6.0,unique,paired,s_a_13_1.jpg,Student,,,sub-56
Desktop or Laptop,Windows 10,Edge 138.0.0.0,1920x1080,1912x924,Temporal Distance Task,cb_06,66.0,temp_dist_trial,dist_items,qkpkxw,2.0,continue,,1662.4999999940335,1649.6999999999825,1662.4999999940335,1662.4999999940335,1649.6999999999825,1662.4999999940335,1.0,0.0,0.0,,Click To Continue,Next button,7.0,object-60,temp_dist_trial,18.0,s_a_13_1,student_art,violin,6.0,unique,paired,s_a_13_1.jpg,Student,,,sub-56
Desktop or Laptop,Windows 10,Edge 138.0.0.0,1920x1080,1912x924,Temporal Distance Task,cb_06,66.0,temp_dist_trial,dist_items,qkpkxw,2.0,response,23,616.3999999999943,1649.6999999999825,1663.1000000029746,616.3999999999943,1649.6999999999825,1663.1000000029746,1.0,1046.7000000029802,0.0,,Slider,Slider,4.0,object-56,temp_dist_trial,18.0,s_a_13_1,student_art,violin,6.0,unique,paired,s_a_13_1.jpg,Student,,,sub-56
Desktop or Laptop,Windows 10,Edge 138.0.0.0,1920x1080,1912x924,Temporal Distance Task,cb_06,67.0,temp_dist_trial,num_items,zn7si1,1.0,response,2_ITEM,1358.9999999970316,1349.7000000000114,1358.9999999970316,1358.9999999970316,1349.7000000000114,1358.9999999970316,1.0,0.0,0.0,,Click Response,2_count,5.0,object-49,temp_dist_trial,19.0,s_a_15_1,student_art,drum kit,6.0,unique,paired,s_a_15_1.jpg,Student,,,sub-56
Desktop or Laptop,Windows 10,Edge 138.0.0.0,1920x1080,1912x924,Temporal Distance Task,cb_06,67.0,temp_dist_trial,dist_items,qkpkxw,2.0,info,,6.399999991059303,0.0,6.399999991059303,6.399999991059303,0.0,6.399999991059303,1.0,0.0,0.0,,Slider,Slider,4.0,object-56,temp_dist_trial,19.0,s_a_15_1,student_art,drum kit,6.0,unique,paired,s_a_15_1.jpg,Student,,,sub-56
Desktop or Laptop,Windows 10,Edge 138.0.0.0,1920x1080,1912x924,Temporal Distance Task,cb_06,67.0,temp_dist_trial,dist_items,qkpkxw,2.0,continue,,2291.7999999970198,2283.099999999977,2291.7999999970198,2291.7999999970198,2283.099999999977,2291.7999999970198,1.0,0.0,0.0,,Click To Continue,Next button,7.0,object-60,temp_dist_trial,19.0,s_a_15_1,student_art,drum kit,6.0,unique,paired,s_a_15_1.jpg,Student,,,sub-56
Desktop or Laptop,Windows 10,Edge 138.0.0.0,1920x1080,1912x924,Temporal Distance Task,cb_06,67.0,temp_dist_trial,dist_items,qkpkxw,2.0,response,,2292.0999999940395,2283.099999999977,2292.0999999940395,2292.0999999940395,2283.099999999977,2292.0999999940395,1.0,0.0,0.0,,Slider,Slider,4.0,object-56,temp_dist_trial,19.0,s_a_15_1,student_art,drum kit,6.0,unique,paired,s_a_15_1.jpg,Student,,,sub-56
Desktop or Laptop,Windows 10,Edge 138.0.0.0,1920x1080,1912x924,Temporal Distance Task,cb_06,68.0,temp_dist_trial,num_items,zn7si1,1.0,response,1_ITEM,2785.2999999910826,2783.0,2785.2999999910826,2785.2999999910826,2783.0,2785.2999999910826,1.0,0.0,0.0,,Click Response,1_count,3.0,object-46,temp_dist_trial,20.0,s_sh_22_1,student_shared,hole puncher,6.0,competing,paired,s_sh_22_1.jpg,Student,,,sub-56
Desktop or Laptop,Windows 10,Edge 138.0.0.0,1920x1080,1912x924,Temporal Distance Task,cb_06,69.0,temp_dist_trial,num_items,zn7si1,1.0,response,1_ITEM,1523.4000000000233,1516.5,1523.4000000000233,1523.4000000000233,1516.5,1523.4000000000233,1.0,0.0,0.0,,Click Response,1_count,3.0,object-46,temp_dist_trial,21.0,s_s_04_1,student_stem,bunsen burner,6.0,unique,single,s_s_04_1.jpg,Student,,,sub-56
Desktop or Laptop,Windows 10,Edge 138.0.0.0,1920x1080,1912x924,Temporal Distance Task,cb_06,70.0,temp_dist_trial,num_items,zn7si1,1.0,response,1_ITEM,2368.9999999940633,2366.3000000000466,2368.9999999940633,2368.9999999940633,2366.3000000000466,2368.9999999940633,1.0,0.0,0.0,,Click Response,1_count,3.0,object-46,temp_dist_trial,22.0,s_sh_01_1,student_shared,notebook,6.0,competing,paired,s_sh_01_1.jpg,Student,,,sub-56
Desktop or Laptop,Windows 10,Edge 138.0.0.0,1920x1080,1912x924,Temporal Distance Task,cb_06,71.0,temp_dist_trial,num_items,zn7si1,1.0,response,2_ITEM,1552.5999999999767,1549.7999999999884,1552.5999999999767,1552.5999999999767,1549.7999999999884,1552.5999999999767,1.0,0.0,0.0,,Click Response,2_count,5.0,object-49,temp_dist_trial,23.0,s_sh_21_1,student_shared,file holder,6.0,competing,single,s_sh_21_1.jpg,Student,,,sub-56
Desktop or Laptop,Windows 10,Edge 138.0.0.0,1920x1080,1912x924,Temporal Distance Task,cb_06,71.0,temp_dist_trial,dist_items,qkpkxw,2.0,info,,5.099999997008125,0.0,5.099999997008125,5.099999997008125,0.0,5.099999997008125,1.0,0.0,0.0,,Slider,Slider,4.0,object-56,temp_dist_trial,23.0,s_sh_21_1,student_shared,file holder,6.0,competing,single,s_sh_21_1.jpg,Student,,,sub-56
Desktop or Laptop,Windows 10,Edge 138.0.0.0,1920x1080,1912x924,Temporal Distance Task,cb_06,71.0,temp_dist_trial,dist_items,qkpkxw,2.0,continue,,3789.899999994028,3782.899999999965,3789.899999994028,3789.899999994028,3782.899999999965,3789.899999994028,1.0,0.0,0.0,,Click To Continue,Next button,7.0,object-60,temp_dist_trial,23.0,s_sh_21_1,student_shared,file holder,6.0,competing,single,s_sh_21_1.jpg,Student,,,sub-56
Desktop or Laptop,Windows 10,Edge 138.0.0.0,1920x1080,1912x924,Temporal Distance Task,cb_06,71.0,temp_dist_trial,dist_items,qkpkxw,2.0,response,83,2549.700000000012,3782.899999999965,3790.199999991048,2549.700000000012,3782.899999999965,3790.199999991048,1.0,1240.499999991036,0.0,,Slider,Slider,4.0,object-56,temp_dist_trial,23.0,s_sh_21_1,student_shared,file holder,6.0,competing,single,s_sh_21_1.jpg,Student,,,sub-56
Desktop or Laptop,Windows 10,Edge 138.0.0.0,1920x1080,1912x924,Temporal Distance Task,cb_06,72.0,temp_dist_trial,num_items,zn7si1,1.0,response,2_ITEM,1173.9000000000233,1166.8000000000466,1173.9000000000233,1173.9000000000233,1166.8000000000466,1173.9000000000233,1.0,0.0,0.0,,Click Response,2_count,5.0,object-49,temp_dist_trial,24.0,s_sh_02_1,student_shared,eraser,6.0,competing,single,s_sh_02_1.jpg,Student,,,sub-56
Desktop or Laptop,Windows 10,Edge 138.0.0.0,1920x1080,1912x924,Temporal Distance Task,cb_06,72.0,temp_dist_trial,dist_items,qkpkxw,2.0,info,,3.8999999910593033,0.0,3.8999999910593033,3.8999999910593033,0.0,3.8999999910593033,1.0,0.0,0.0,,Slider,Slider,4.0,object-56,temp_dist_trial,24.0,s_sh_02_1,student_shared,eraser,6.0,competing,single,s_sh_02_1.jpg,Student,,,sub-56
Desktop or Laptop,Windows 10,Edge 138.0.0.0,1920x1080,1912x924,Temporal Distance Task,cb_06,72.0,temp_dist_trial,dist_items,qkpkxw,2.0,continue,,2354.5999999940395,2350.0,2354.5999999940395,2354.5999999940395,2350.0,2354.5999999940395,1.0,0.0,0.0,,Click To Continue,Next button,7.0,object-60,temp_dist_trial,24.0,s_sh_02_1,student_shared,eraser,6.0,competing,single,s_sh_02_1.jpg,Student,,,sub-56
Desktop or Laptop,Windows 10,Edge 138.0.0.0,1920x1080,1912x924,Temporal Distance Task,cb_06,72.0,temp_dist_trial,dist_items,qkpkxw,2.0,response,79,1350.0999999999767,2350.0,2362.3999999910598,1350.0999999999767,2350.0,2362.3999999910598,1.0,1012.2999999910826,0.0,,Slider,Slider,4.0,object-56,temp_dist_trial,24.0,s_sh_02_1,student_shared,eraser,6.0,competing,single,s_sh_02_1.jpg,Student,,,sub-56
Desktop or Laptop,Windows 10,Edge 138.0.0.0,1920x1080,1912x924,Temporal Distance Task,cb_06,73.0,temp_dist_trial,num_items,zn7si1,1.0,response,2_ITEM,1572.5,1566.2999999999884,1572.5,1572.5,1566.2999999999884,1572.5,1.0,0.0,0.0,,Click Response,2_count,5.0,object-49,temp_dist_trial,25.0,s_s_20_1,student_stem,dna model,6.0,unique,paired,s_s_20_1.jpg,Student,,,sub-56
Desktop or Laptop,Windows 10,Edge 138.0.0.0,1920x1080,1912x924,Temporal Distance Task,cb_06,73.0,temp_dist_trial,dist_items,qkpkxw,2.0,info,,5.399999994027893,0.0,5.399999994027893,5.399999994027893,0.0,5.399999994027893,1.0,0.0,0.0,,Slider,Slider,4.0,object-56,temp_dist_trial,25.0,s_s_20_1,student_stem,dna model,6.0,unique,paired,s_s_20_1.jpg,Student,,,sub-56
Desktop or Laptop,Windows 10,Edge 138.0.0.0,1920x1080,1912x924,Temporal Distance Task,cb_06,73.0,temp_dist_trial,dist_items,qkpkxw,2.0,continue,,1829.0000000029688,1816.8999999999646,1829.0000000029688,1829.0000000029688,1816.8999999999646,1829.0000000029688,1.0,0.0,0.0,,Click To Continue,Next button,7.0,object-60,temp_dist_trial,25.0,s_s_20_1,student_stem,dna model,6.0,unique,paired,s_s_20_1.jpg,Student,,,sub-56
Desktop or Laptop,Windows 10,Edge 138.0.0.0,1920x1080,1912x924,Temporal Distance Task,cb_06,73.0,temp_dist_trial,dist_items,qkpkxw,2.0,response,24,933.3999999999652,1816.8999999999646,1829.7999999999884,933.3999999999652,1816.8999999999646,1829.7999999999884,1.0,896.4000000000232,0.0,,Slider,Slider,4.0,object-56,temp_dist_trial,25.0,s_s_20_1,student_stem,dna model,6.0,unique,paired,s_s_20_1.jpg,Student,,,sub-56
Desktop or Laptop,Windows 10,Edge 138.0.0.0,1920x1080,1912x924,Temporal Distance Task,cb_06,74.0,temp_dist_trial,num_items,zn7si1,1.0,response,2_ITEM,1860.1000000030035,1849.9000000000235,1860.1000000030035,1860.1000000030035,1849.9000000000235,1860.1000000030035,1.0,0.0,0.0,,Click Response,2_count,5.0,object-49,temp_dist_trial,26.0,s_sh_17_1,student_shared,wireless mouse,6.0,competing,paired,s_sh_17_1.jpg,Student,,,sub-56
Desktop or Laptop,Windows 10,Edge 138.0.0.0,1920x1080,1912x924,Temporal Distance Task,cb_06,74.0,temp_dist_trial,dist_items,qkpkxw,2.0,info,,5.700000002980232,0.0,5.700000002980232,5.700000002980232,0.0,5.700000002980232,1.0,0.0,0.0,,Slider,Slider,4.0,object-56,temp_dist_trial,26.0,s_sh_17_1,student_shared,wireless mouse,6.0,competing,paired,s_sh_17_1.jpg,Student,,,sub-56
Desktop or Laptop,Windows 10,Edge 138.0.0.0,1920x1080,1912x924,Temporal Distance Task,cb_06,74.0,temp_dist_trial,dist_items,qkpkxw,2.0,continue,,1553.2999999970193,1550.2000000000116,1553.2999999970193,1553.2999999970193,1550.2000000000116,1553.2999999970193,1.0,0.0,0.0,,Click To Continue,Next button,7.0,object-60,temp_dist_trial,26.0,s_sh_17_1,student_shared,wireless mouse,6.0,competing,paired,s_sh_17_1.jpg,Student,,,sub-56
Desktop or Laptop,Windows 10,Edge 138.0.0.0,1920x1080,1912x924,Temporal Distance Task,cb_06,74.0,temp_dist_trial,dist_items,qkpkxw,2.0,response,79,700.2999999999884,1550.2000000000116,1554.5999999940395,700.2999999999884,1550.2000000000116,1554.5999999940395,1.0,854.2999999940512,0.0,,Slider,Slider,4.0,object-56,temp_dist_trial,26.0,s_sh_17_1,student_shared,wireless mouse,6.0,competing,paired,s_sh_17_1.jpg,Student,,,sub-56
Desktop or Laptop,Windows 10,Edge 138.0.0.0,1920x1080,1912x924,Temporal Distance Task,cb_06,75.0,temp_dist_trial,num_items,zn7si1,1.0,response,2_ITEM,1082.5000000029686,1066.2999999999884,1082.5000000029686,1082.5000000029686,1066.2999999999884,1082.5000000029686,1.0,0.0,0.0,,Click Response,2_count,5.0,object-49,temp_dist_trial,27.0,s_sh_10_1,student_shared,scissors,6.0,competing,paired,s_sh_10_1.jpg,Student,,,sub-56
Desktop or Laptop,Windows 10,Edge 138.0.0.0,1920x1080,1912x924,Temporal Distance Task,cb_06,75.0,temp_dist_trial,dist_items,qkpkxw,2.0,info,,10.099999999976717,0.0,10.099999999976717,10.099999999976717,0.0,10.099999999976717,1.0,0.0,0.0,,Slider,Slider,4.0,object-56,temp_dist_trial,27.0,s_sh_10_1,student_shared,scissors,6.0,competing,paired,s_sh_10_1.jpg,Student,,,sub-56
Desktop or Laptop,Windows 10,Edge 138.0.0.0,1920x1080,1912x924,Temporal Distance Task,cb_06,75.0,temp_dist_trial,dist_items,qkpkxw,2.0,continue,,1504.5999999999767,1499.8999999999646,1504.5999999999767,1504.5999999999767,1499.8999999999646,1504.5999999999767,1.0,0.0,0.0,,Click To Continue,Next button,7.0,object-60,temp_dist_trial,27.0,s_sh_10_1,student_shared,scissors,6.0,competing,paired,s_sh_10_1.jpg,Student,,,sub-56
Desktop or Laptop,Windows 10,Edge 138.0.0.0,1920x1080,1912x924,Temporal Distance Task,cb_06,75.0,temp_dist_trial,dist_items,qkpkxw,2.0,response,74,600.1999999999534,1499.8999999999646,1516.6999999999537,600.1999999999534,1499.8999999999646,1516.6999999999537,1.0,916.5,0.0,,Slider,Slider,4.0,object-56,temp_dist_trial,27.0,s_sh_10_1,student_shared,scissors,6.0,competing,paired,s_sh_10_1.jpg,Student,,,sub-56
Desktop or Laptop,Windows 10,Edge 138.0.0.0,1920x1080,1912x924,Temporal Distance Task,cb_06,76.0,temp_dist_trial,num_items,zn7si1,1.0,response,1_ITEM,1158.4999999970316,1149.7999999999886,1158.4999999970316,1158.4999999970316,1149.7999999999886,1158.4999999970316,1.0,0.0,0.0,,Click Response,1_count,3.0,object-46,temp_dist_trial,28.0,s_a_08_1,student_art,sewing machine,6.0,unique,paired,s_a_08_1.jpg,Student,,,sub-56
Desktop or Laptop,Windows 10,Edge 138.0.0.0,1920x1080,1912x924,Temporal Distance Task,cb_06,77.0,temp_dist_trial,num_items,zn7si1,1.0,response,2_ITEM,1066.8000000000468,1049.9000000000233,1066.8000000000468,1066.8000000000468,1049.9000000000233,1066.8000000000468,1.0,0.0,0.0,,Click Response,2_count,5.0,object-49,temp_dist_trial,29.0,s_sh_15_1,student_shared,usb drive,6.0,competing,paired,s_sh_15_1.jpg,Student,,,sub-56
Desktop or Laptop,Windows 10,Edge 138.0.0.0,1920x1080,1912x924,Temporal Distance Task,cb_06,77.0,temp_dist_trial,dist_items,qkpkxw,2.0,info,,5.600000003003515,0.0,5.600000003003515,5.600000003003515,0.0,5.600000003003515,1.0,0.0,0.0,,Slider,Slider,4.0,object-56,temp_dist_trial,29.0,s_sh_15_1,student_shared,usb drive,6.0,competing,paired,s_sh_15_1.jpg,Student,,,sub-56
Desktop or Laptop,Windows 10,Edge 138.0.0.0,1920x1080,1912x924,Temporal Distance Task,cb_06,77.0,temp_dist_trial,dist_items,qkpkxw,2.0,continue,,1734.699999997043,1732.9000000000233,1734.699999997043,1734.699999997043,1732.9000000000233,1734.699999997043,1.0,0.0,0.0,,Click To Continue,Next button,7.0,object-60,temp_dist_trial,29.0,s_sh_15_1,student_shared,usb drive,6.0,competing,paired,s_sh_15_1.jpg,Student,,,sub-56
Desktop or Laptop,Windows 10,Edge 138.0.0.0,1920x1080,1912x924,Temporal Distance Task,cb_06,77.0,temp_dist_trial,dist_items,qkpkxw,2.0,response,86,849.8000000000467,1732.9000000000233,1735.6000000030035,849.8000000000467,1732.9000000000233,1735.6000000030035,1.0,885.800000002957,0.0,,Slider,Slider,4.0,object-56,temp_dist_trial,29.0,s_sh_15_1,student_shared,usb drive,6.0,competing,paired,s_sh_15_1.jpg,Student,,,sub-56
Desktop or Laptop,Windows 10,Edge 138.0.0.0,1920x1080,1912x924,Temporal Distance Task,cb_06,78.0,temp_dist_trial,num_items,zn7si1,1.0,response,2_ITEM,1853.3999999910595,1850.0999999999767,1853.3999999910595,1853.3999999910595,1850.0999999999767,1853.3999999910595,1.0,0.0,0.0,,Click Response,2_count,5.0,object-49,temp_dist_trial,30.0,s_a_06_1,student_art,pastels,6.0,unique,paired,s_a_06_1.jpg,Student,,,sub-56
Desktop or Laptop,Windows 10,Edge 138.0.0.0,1920x1080,1912x924,Temporal Distance Task,cb_06,78.0,temp_dist_trial,dist_items,qkpkxw,2.0,info,,6.00000000296859,0.0,6.00000000296859,6.00000000296859,0.0,6.00000000296859,1.0,0.0,0.0,,Slider,Slider,4.0,object-56,temp_dist_trial,30.0,s_a_06_1,student_art,pastels,6.0,unique,paired,s_a_06_1.jpg,Student,,,sub-56
Desktop or Laptop,Windows 10,Edge 138.0.0.0,1920x1080,1912x924,Temporal Distance Task,cb_06,78.0,temp_dist_trial,dist_items,qkpkxw,2.0,continue,,1977.0999999970081,1966.5999999999767,1977.0999999970081,1977.0999999970081,1966.5999999999767,1977.0999999970081,1.0,0.0,0.0,,Click To Continue,Next button,7.0,object-60,temp_dist_trial,30.0,s_a_06_1,student_art,pastels,6.0,unique,paired,s_a_06_1.jpg,Student,,,sub-56
Desktop or Laptop,Windows 10,Edge 138.0.0.0,1920x1080,1912x924,Temporal Distance Task,cb_06,78.0,temp_dist_trial,dist_items,qkpkxw,2.0,response,34,683.3999999999653,1966.5999999999767,1977.5999999970081,683.3999999999653,1966.5999999999767,1977.5999999970081,1.0,1294.199999997043,0.0,,Slider,Slider,4.0,object-56,temp_dist_trial,30.0,s_a_06_1,student_art,pastels,6.0,unique,paired,s_a_06_1.jpg,Student,,,sub-56
Desktop or Laptop,Windows 10,Edge 138.0.0.0,1920x1080,1912x924,Temporal Distance Task,cb_06,79.0,temp_dist_trial,num_items,zn7si1,1.0,response,1_ITEM,1398.4999999970316,1383.2000000000116,1398.4999999970316,1398.4999999970316,1383.2000000000116,1398.4999999970316,1.0,0.0,0.0,,Click Response,1_count,3.0,object-46,temp_dist_trial,31.0,s_a_20_1,student_art,pin cushion,6.0,unique,single,s_a_20_1.jpg,Student,,,sub-56
Desktop or Laptop,Windows 10,Edge 138.0.0.0,1920x1080,1912x924,Temporal Distance Task,cb_06,80.0,temp_dist_trial,num_items,zn7si1,1.0,response,2_ITEM,1994.499999991036,1983.2999999999884,1994.499999991036,1994.499999991036,1983.2999999999884,1994.499999991036,1.0,0.0,0.0,,Click Response,2_count,5.0,object-49,temp_dist_trial,32.0,s_sh_18_1,student_shared,wall calendar,6.0,competing,paired,s_sh_18_1.jpg,Student,,,sub-56
Desktop or Laptop,Windows 10,Edge 138.0.0.0,1920x1080,1912x924,Temporal Distance Task,cb_06,80.0,temp_dist_trial,dist_items,qkpkxw,2.0,info,,5.5999999970081245,0.0,5.5999999970081245,5.5999999970081245,0.0,5.5999999970081245,1.0,0.0,0.0,,Slider,Slider,4.0,object-56,temp_dist_trial,32.0,s_sh_18_1,student_shared,wall calendar,6.0,competing,paired,s_sh_18_1.jpg,Student,,,sub-56
Desktop or Laptop,Windows 10,Edge 138.0.0.0,1920x1080,1912x924,Temporal Distance Task,cb_06,80.0,temp_dist_trial,dist_items,qkpkxw,2.0,continue,,1929.5000000029688,1916.7999999999884,1929.5000000029688,1929.5000000029688,1916.7999999999884,1929.5000000029688,1.0,0.0,0.0,,Click To Continue,Next button,7.0,object-60,temp_dist_trial,32.0,s_sh_18_1,student_shared,wall calendar,6.0,competing,paired,s_sh_18_1.jpg,Student,,,sub-56
Desktop or Laptop,Windows 10,Edge 138.0.0.0,1920x1080,1912x924,Temporal Distance Task,cb_06,80.0,temp_dist_trial,dist_items,qkpkxw,2.0,response,49,1316.899999999965,1916.7999999999884,1930.0999999970081,1316.899999999965,1916.7999999999884,1930.0999999970081,1.0,613.199999997043,0.0,,Slider,Slider,4.0,object-56,temp_dist_trial,32.0,s_sh_18_1,student_shared,wall calendar,6.0,competing,paired,s_sh_18_1.jpg,Student,,,sub-56
Desktop or Laptop,Windows 10,Edge 138.0.0.0,1920x1080,1912x924,Temporal Distance Task,cb_06,81.0,temp_dist_trial,num_items,zn7si1,1.0,response,1_ITEM,1584.5999999940395,1583.0999999999767,1584.5999999940395,1584.5999999940395,1583.0999999999767,1584.5999999940395,1.0,0.0,0.0,,Click Response,1_count,3.0,object-46,temp_dist_trial,33.0,s_sh_04_1,student_shared,laptop stand,6.0,competing,paired,s_sh_04_1.jpg,Student,,,sub-56
Desktop or Laptop,Windows 10,Edge 138.0.0.0,1920x1080,1912x924,Temporal Distance Task,cb_06,82.0,temp_dist_trial,num_items,zn7si1,1.0,response,2_ITEM,1714.5999999970081,1699.5999999999767,1714.5999999970081,1714.5999999970081,1699.5999999999767,1714.5999999970081,1.0,0.0,0.0,,Click Response,2_count,5.0,object-49,temp_dist_trial,34.0,s_s_06_1,student_stem,calculator,6.0,unique,paired,s_s_06_1.jpg,Student,,,sub-56
Desktop or Laptop,Windows 10,Edge 138.0.0.0,1920x1080,1912x924,Temporal Distance Task,cb_06,82.0,temp_dist_trial,dist_items,qkpkxw,2.0,info,,4.3999999969964865,0.0,4.3999999969964865,4.3999999969964865,0.0,4.3999999969964865,1.0,0.0,0.0,,Slider,Slider,4.0,object-56,temp_dist_trial,34.0,s_s_06_1,student_stem,calculator,6.0,unique,paired,s_s_06_1.jpg,Student,,,sub-56
Desktop or Laptop,Windows 10,Edge 138.0.0.0,1920x1080,1912x924,Temporal Distance Task,cb_06,82.0,temp_dist_trial,dist_items,qkpkxw,2.0,continue,,2803.9999999910356,2799.399999999965,2803.9999999910356,2803.9999999910356,2799.399999999965,2803.9999999910356,1.0,0.0,0.0,,Click To Continue,Next button,7.0,object-60,temp_dist_trial,34.0,s_s_06_1,student_stem,calculator,6.0,unique,paired,s_s_06_1.jpg,Student,,,sub-56
Desktop or Laptop,Windows 10,Edge 138.0.0.0,1920x1080,1912x924,Temporal Distance Task,cb_06,82.0,temp_dist_trial,dist_items,qkpkxw,2.0,response,54,1966.1999999999528,2799.399999999965,2804.4999999910356,1966.1999999999528,2799.399999999965,2804.4999999910356,1.0,838.2999999910826,0.0,,Slider,Slider,4.0,object-56,temp_dist_trial,34.0,s_s_06_1,student_stem,calculator,6.0,unique,paired,s_s_06_1.jpg,Student,,,sub-56
Desktop or Laptop,Windows 10,Edge 138.0.0.0,1920x1080,1912x924,Temporal Distance Task,cb_06,83.0,temp_dist_trial,num_items,zn7si1,1.0,response,2_ITEM,1172.4000000029919,1166.600000000035,1172.4000000029919,1172.4000000029919,1166.600000000035,1172.4000000029919,1.0,0.0,0.0,,Click Response,2_count,5.0,object-49,temp_dist_trial,35.0,s_a_01_1,student_art,paintbrush,6.0,unique,paired,s_a_01_1.jpg,Student,,,sub-56
Desktop or Laptop,Windows 10,Edge 138.0.0.0,1920x1080,1912x924,Temporal Distance Task,cb_06,83.0,temp_dist_trial,dist_items,qkpkxw,2.0,info,,3.7000000000116415,0.0,3.7000000000116415,3.7000000000116415,0.0,3.7000000000116415,1.0,0.0,0.0,,Slider,Slider,4.0,object-56,temp_dist_trial,35.0,s_a_01_1,student_art,paintbrush,6.0,unique,paired,s_a_01_1.jpg,Student,,,sub-56
