Participant Device,Participant OS,Participant Browser,Participant Monitor Size,Participant Viewport Size,Task Name,Current Spreadsheet,Trial Number,Display,Screen,Screen ID,Screen Counter,Response Type,Response,Onset Time,Clock Time,Reaction Time,Absolute Onset Time,Absolute Clock Time,Absolute Reaction Time,Correct,Response Duration,Proportion,Tag,Component Name,Object Name,Object Number,Object ID,Spreadsheet: display,Spreadsheet: trial,Spreadsheet: stimulus_id,Spreadsheet: expected_goal,Spreadsheet: stimulus_name,Spreadsheet: c_group,Spreadsheet: condition,Spreadsheet: paired_status,Spreadsheet: stimulus_path,Spreadsheet: block_type,Manipulation: Spreadsheet,Store: enc_test_acc,sub_label
Desktop or Laptop,Mac OS 10.15.7,Chrome 138.0.0.0,1710x1107,1710x981,Temporal Distance Task,,,,,,,info,BEGIN,,,,,,,,,,,,,,,,,,,,,,,,,$${counterbalance_group},,sub-96
Desktop or Laptop,Mac OS 10.15.7,Chrome 138.0.0.0,1710x1107,1710x981,Temporal Distance Task,cb_09,1.0,temp_instructions,intro_screen,3tnme7,1.0,continue,,9510.800000000188,9500.3,9510.800000000188,9510.800000000188,9500.3,9510.800000000188,1.0,0.0,0.0,,Click To Continue,Continue Button,4.0,object-29,temp_instructions,,,Student,,,,,,,$${counterbalance_group},,sub-96
Desktop or Laptop,Mac OS 10.15.7,Chrome 138.0.0.0,1710x1107,1710x981,Temporal Distance Task,cb_09,1.0,temp_instructions,intro_screen_2,52v7ur,2.0,continue,,14806.200000000372,14799.8,14806.200000000372,14806.200000000372,14799.8,14806.200000000372,1.0,0.0,0.0,,Click To Continue,Continue Button,4.0,object-39,temp_instructions,,,Student,,,,,,,$${counterbalance_group},,sub-96
Desktop or Laptop,Mac OS 10.15.7,Chrome 138.0.0.0,1710x1107,1710x981,Temporal Distance Task,cb_09,1.0,temp_instructions,intro_screen_3,i7lvwx,3.0,continue,,1167.7999999998135,1166.5999999999985,1167.7999999998135,1167.7999999998135,1166.5999999999985,1167.7999999998135,1.0,0.0,0.0,,Click To Continue,Continue Button,4.0,object-67,temp_instructions,,,Student,,,,,,,$${counterbalance_group},,sub-96
Desktop or Laptop,Mac OS 10.15.7,Chrome 138.0.0.0,1710x1107,1710x981,Temporal Distance Task,cb_09,1.0,temp_instructions,test_q1,5ieqx1,4.0,response,choice_3,5407.9000000000015,5400.0,5407.9000000000015,5407.9000000000015,5400.0,5407.9000000000015,1.0,0.0,0.0,,Click Response,choice_3,5.0,object-345,temp_instructions,,,Student,,,,,,,$${counterbalance_group},,sub-96
Desktop or Laptop,Mac OS 10.15.7,Chrome 138.0.0.0,1710x1107,1710x981,Temporal Distance Task,cb_09,1.0,temp_instructions,score_corr,7ilvjr,5.0,continue,,1273.300000000374,1266.5999999999985,1273.300000000374,1273.300000000374,1266.5999999999985,1273.300000000374,1.0,0.0,0.0,,Click To Continue,Continue Button,3.0,object-23,temp_instructions,,,Student,,,,,,,$${counterbalance_group},,sub-96
Desktop or Laptop,Mac OS 10.15.7,Chrome 138.0.0.0,1710x1107,1710x981,Temporal Distance Task,cb_09,1.0,temp_eventStart,Screen 1,dgtyxe,1.0,continue,,2715.0000000001887,2700.1000000000063,2715.0000000001887,2715.0000000001887,2700.1000000000063,2715.0000000001887,1.0,0.0,0.0,,Click To Continue,Next Button,3.0,object-43,temp_eventStart,,,Student,,,,,,,$${counterbalance_group},,sub-96
Desktop or Laptop,Mac OS 10.15.7,Chrome 138.0.0.0,1710x1107,1710x981,Temporal Distance Task,cb_09,1.0,temp_dist_trial,num_items,zn7si1,1.0,response,2_ITEM,1880.4999999998108,1866.5999999999985,1880.4999999998108,1880.4999999998108,1866.5999999999985,1880.4999999998108,1.0,0.0,0.0,,Click Response,2_count,5.0,object-49,temp_dist_trial,1.0,s_a_05_1,student_art,clay,9.0,unique,paired,s_a_05_1.jpg,Student,$${counterbalance_group},,sub-96
Desktop or Laptop,Mac OS 10.15.7,Chrome 138.0.0.0,1710x1107,1710x981,Temporal Distance Task,cb_09,1.0,temp_dist_trial,dist_items,qkpkxw,2.0,info,,9.199999999626016,0.0,9.199999999626016,9.199999999626016,0.0,9.199999999626016,1.0,0.0,0.0,,Slider,Slider,4.0,object-56,temp_dist_trial,1.0,s_a_05_1,student_art,clay,9.0,unique,paired,s_a_05_1.jpg,Student,$${counterbalance_group},,sub-96
Desktop or Laptop,Mac OS 10.15.7,Chrome 138.0.0.0,1710x1107,1710x981,Temporal Distance Task,cb_09,1.0,temp_dist_trial,dist_items,qkpkxw,2.0,continue,,5891.800000000186,5883.299999999997,5891.800000000186,5891.800000000186,5883.299999999997,5891.800000000186,1.0,0.0,0.0,,Click To Continue,Next button,7.0,object-60,temp_dist_trial,1.0,s_a_05_1,student_art,clay,9.0,unique,paired,s_a_05_1.jpg,Student,$${counterbalance_group},,sub-96
Desktop or Laptop,Mac OS 10.15.7,Chrome 138.0.0.0,1710x1107,1710x981,Temporal Distance Task,cb_09,1.0,temp_dist_trial,dist_items,qkpkxw,2.0,response,53,2316.699999999997,5883.299999999997,5892.500000000371,2316.699999999997,5883.299999999997,5892.500000000371,1.0,3575.800000000374,0.0,,Slider,Slider,4.0,object-56,temp_dist_trial,1.0,s_a_05_1,student_art,clay,9.0,unique,paired,s_a_05_1.jpg,Student,$${counterbalance_group},,sub-96
Desktop or Laptop,Mac OS 10.15.7,Chrome 138.0.0.0,1710x1107,1710x981,Temporal Distance Task,cb_09,2.0,temp_dist_trial,num_items,zn7si1,1.0,response,1_ITEM,2260.8999999996304,2250.0,2260.8999999996304,2260.8999999996304,2250.0,2260.8999999996304,1.0,0.0,0.0,,Click Response,1_count,3.0,object-46,temp_dist_trial,2.0,s_sh_23_1,student_shared,ballpoint pen,9.0,competing,single,s_sh_23_1.jpg,Student,$${counterbalance_group},,sub-96
Desktop or Laptop,Mac OS 10.15.7,Chrome 138.0.0.0,1710x1107,1710x981,Temporal Distance Task,cb_09,3.0,temp_dist_trial,num_items,zn7si1,1.0,response,1_ITEM,2365.300000000003,2350.0,2365.300000000003,2365.300000000003,2350.0,2365.300000000003,1.0,0.0,0.0,,Click Response,1_count,3.0,object-46,temp_dist_trial,3.0,s_s_11_1,student_stem,scientific scale,9.0,unique,single,s_s_11_1.jpg,Student,$${counterbalance_group},,sub-96
Desktop or Laptop,Mac OS 10.15.7,Chrome 138.0.0.0,1710x1107,1710x981,Temporal Distance Task,cb_09,4.0,temp_dist_trial,num_items,zn7si1,1.0,response,2_ITEM,2032.4999999998108,2016.5999999999985,2032.4999999998108,2032.4999999998108,2016.5999999999985,2032.4999999998108,1.0,0.0,0.0,,Click Response,2_count,5.0,object-49,temp_dist_trial,4.0,s_sh_16_1,student_shared,stapler,9.0,competing,single,s_sh_16_1.jpg,Student,$${counterbalance_group},,sub-96
Desktop or Laptop,Mac OS 10.15.7,Chrome 138.0.0.0,1710x1107,1710x981,Temporal Distance Task,cb_09,4.0,temp_dist_trial,dist_items,qkpkxw,2.0,info,,10.699999999626016,0.0,10.699999999626016,10.699999999626016,0.0,10.699999999626016,1.0,0.0,0.0,,Slider,Slider,4.0,object-56,temp_dist_trial,4.0,s_sh_16_1,student_shared,stapler,9.0,competing,single,s_sh_16_1.jpg,Student,$${counterbalance_group},,sub-96
Desktop or Laptop,Mac OS 10.15.7,Chrome 138.0.0.0,1710x1107,1710x981,Temporal Distance Task,cb_09,4.0,temp_dist_trial,dist_items,qkpkxw,2.0,continue,,2306.000000000371,2300.0,2306.000000000371,2306.000000000371,2300.0,2306.000000000371,1.0,0.0,0.0,,Click To Continue,Next button,7.0,object-60,temp_dist_trial,4.0,s_sh_16_1,student_shared,stapler,9.0,competing,single,s_sh_16_1.jpg,Student,$${counterbalance_group},,sub-96
Desktop or Laptop,Mac OS 10.15.7,Chrome 138.0.0.0,1710x1107,1710x981,Temporal Distance Task,cb_09,4.0,temp_dist_trial,dist_items,qkpkxw,2.0,response,42,966.6999999999972,2300.0,2306.8999999998127,966.6999999999972,2300.0,2306.8999999998127,1.0,1340.1999999998152,0.0,,Slider,Slider,4.0,object-56,temp_dist_trial,4.0,s_sh_16_1,student_shared,stapler,9.0,competing,single,s_sh_16_1.jpg,Student,$${counterbalance_group},,sub-96
Desktop or Laptop,Mac OS 10.15.7,Chrome 138.0.0.0,1710x1107,1710x981,Temporal Distance Task,cb_09,5.0,temp_dist_trial,num_items,zn7si1,1.0,response,2_ITEM,1416.000000000371,1400.0,1416.000000000371,1416.000000000371,1400.0,1416.000000000371,1.0,0.0,0.0,,Click Response,2_count,5.0,object-49,temp_dist_trial,5.0,s_sh_01_1,student_shared,notebook,9.0,competing,paired,s_sh_01_1.jpg,Student,$${counterbalance_group},,sub-96
Desktop or Laptop,Mac OS 10.15.7,Chrome 138.0.0.0,1710x1107,1710x981,Temporal Distance Task,cb_09,5.0,temp_dist_trial,dist_items,qkpkxw,2.0,info,,7.599999999998545,0.0,7.599999999998545,7.599999999998545,0.0,7.599999999998545,1.0,0.0,0.0,,Slider,Slider,4.0,object-56,temp_dist_trial,5.0,s_sh_01_1,student_shared,notebook,9.0,competing,paired,s_sh_01_1.jpg,Student,$${counterbalance_group},,sub-96
Desktop or Laptop,Mac OS 10.15.7,Chrome 138.0.0.0,1710x1107,1710x981,Temporal Distance Task,cb_09,5.0,temp_dist_trial,dist_items,qkpkxw,2.0,continue,,2058.199999999626,2050.0,2058.199999999626,2058.199999999626,2050.0,2058.199999999626,1.0,0.0,0.0,,Click To Continue,Next button,7.0,object-60,temp_dist_trial,5.0,s_sh_01_1,student_shared,notebook,9.0,competing,paired,s_sh_01_1.jpg,Student,$${counterbalance_group},,sub-96
Desktop or Laptop,Mac OS 10.15.7,Chrome 138.0.0.0,1710x1107,1710x981,Temporal Distance Task,cb_09,5.0,temp_dist_trial,dist_items,qkpkxw,2.0,response,41,950.0,2050.0,2061.8999999998127,950.0,2050.0,2061.8999999998127,1.0,1111.8999999998123,0.0,,Slider,Slider,4.0,object-56,temp_dist_trial,5.0,s_sh_01_1,student_shared,notebook,9.0,competing,paired,s_sh_01_1.jpg,Student,$${counterbalance_group},,sub-96
Desktop or Laptop,Mac OS 10.15.7,Chrome 138.0.0.0,1710x1107,1710x981,Temporal Distance Task,cb_09,6.0,temp_dist_trial,num_items,zn7si1,1.0,response,1_ITEM,2377.800000000185,2366.699999999997,2377.800000000185,2377.800000000185,2366.699999999997,2377.800000000185,1.0,0.0,0.0,,Click Response,1_count,3.0,object-46,temp_dist_trial,6.0,s_sh_19_1,student_shared,portable plastic drawer,9.0,competing,single,s_sh_19_1.jpg,Student,$${counterbalance_group},,sub-96
Desktop or Laptop,Mac OS 10.15.7,Chrome 138.0.0.0,1710x1107,1710x981,Temporal Distance Task,cb_09,7.0,temp_dist_trial,num_items,zn7si1,1.0,response,1_ITEM,1259.9000000000015,1249.9000000000015,1259.9000000000015,1259.9000000000015,1249.9000000000015,1259.9000000000015,1.0,0.0,0.0,,Click Response,1_count,3.0,object-46,temp_dist_trial,7.0,s_sh_21_1,student_shared,file holder,9.0,competing,single,s_sh_21_1.jpg,Student,$${counterbalance_group},,sub-96
Desktop or Laptop,Mac OS 10.15.7,Chrome 138.0.0.0,1710x1107,1710x981,Temporal Distance Task,cb_09,8.0,temp_dist_trial,num_items,zn7si1,1.0,response,2_ITEM,1771.2000000001865,1766.8000000000034,1771.2000000001865,1771.2000000001865,1766.8000000000034,1771.2000000001865,1.0,0.0,0.0,,Click Response,2_count,5.0,object-49,temp_dist_trial,8.0,s_a_18_1,student_art,tutu,9.0,unique,paired,s_a_18_1.jpg,Student,$${counterbalance_group},,sub-96
Desktop or Laptop,Mac OS 10.15.7,Chrome 138.0.0.0,1710x1107,1710x981,Temporal Distance Task,cb_09,8.0,temp_dist_trial,dist_items,qkpkxw,2.0,info,,6.099999999816648,0.0,6.099999999816648,6.099999999816648,0.0,6.099999999816648,1.0,0.0,0.0,,Slider,Slider,4.0,object-56,temp_dist_trial,8.0,s_a_18_1,student_art,tutu,9.0,unique,paired,s_a_18_1.jpg,Student,$${counterbalance_group},,sub-96
Desktop or Laptop,Mac OS 10.15.7,Chrome 138.0.0.0,1710x1107,1710x981,Temporal Distance Task,cb_09,8.0,temp_dist_trial,dist_items,qkpkxw,2.0,continue,,2430.7000000003754,2416.699999999997,2430.7000000003754,2430.7000000003754,2416.699999999997,2430.7000000003754,1.0,0.0,0.0,,Click To Continue,Next button,7.0,object-60,temp_dist_trial,8.0,s_a_18_1,student_art,tutu,9.0,unique,paired,s_a_18_1.jpg,Student,$${counterbalance_group},,sub-96
Desktop or Laptop,Mac OS 10.15.7,Chrome 138.0.0.0,1710x1107,1710x981,Temporal Distance Task,cb_09,8.0,temp_dist_trial,dist_items,qkpkxw,2.0,response,42,1066.7000000000044,2416.699999999997,2431.599999999817,1066.7000000000044,2416.699999999997,2431.599999999817,1.0,1364.8999999998125,0.0,,Slider,Slider,4.0,object-56,temp_dist_trial,8.0,s_a_18_1,student_art,tutu,9.0,unique,paired,s_a_18_1.jpg,Student,$${counterbalance_group},,sub-96
Desktop or Laptop,Mac OS 10.15.7,Chrome 138.0.0.0,1710x1107,1710x981,Temporal Distance Task,cb_09,9.0,temp_dist_trial,num_items,zn7si1,1.0,response,2_ITEM,2552.39999999982,2550.0,2552.39999999982,2552.39999999982,2550.0,2552.39999999982,1.0,0.0,0.0,,Click Response,2_count,5.0,object-49,temp_dist_trial,9.0,s_s_07_1,student_stem,periodic table,9.0,unique,paired,s_s_07_1.jpg,Student,$${counterbalance_group},,sub-96
Desktop or Laptop,Mac OS 10.15.7,Chrome 138.0.0.0,1710x1107,1710x981,Temporal Distance Task,cb_09,9.0,temp_dist_trial,dist_items,qkpkxw,2.0,info,,8.399999999819556,0.0,8.399999999819556,8.399999999819556,0.0,8.399999999819556,1.0,0.0,0.0,,Slider,Slider,4.0,object-56,temp_dist_trial,9.0,s_s_07_1,student_stem,periodic table,9.0,unique,paired,s_s_07_1.jpg,Student,$${counterbalance_group},,sub-96
Desktop or Laptop,Mac OS 10.15.7,Chrome 138.0.0.0,1710x1107,1710x981,Temporal Distance Task,cb_09,9.0,temp_dist_trial,dist_items,qkpkxw,2.0,continue,,2188.0000000003783,2183.300000000003,2188.0000000003783,2188.0000000003783,2183.300000000003,2188.0000000003783,1.0,0.0,0.0,,Click To Continue,Next button,7.0,object-60,temp_dist_trial,9.0,s_s_07_1,student_stem,periodic table,9.0,unique,paired,s_s_07_1.jpg,Student,$${counterbalance_group},,sub-96
Desktop or Laptop,Mac OS 10.15.7,Chrome 138.0.0.0,1710x1107,1710x981,Temporal Distance Task,cb_09,9.0,temp_dist_trial,dist_items,qkpkxw,2.0,response,29,1083.3000000000031,2183.300000000003,2188.6999999996333,1083.3000000000031,2183.300000000003,2188.6999999996333,1.0,1105.3999999996304,0.0,,Slider,Slider,4.0,object-56,temp_dist_trial,9.0,s_s_07_1,student_stem,periodic table,9.0,unique,paired,s_s_07_1.jpg,Student,$${counterbalance_group},,sub-96
Desktop or Laptop,Mac OS 10.15.7,Chrome 138.0.0.0,1710x1107,1710x981,Temporal Distance Task,cb_09,10.0,temp_dist_trial,num_items,zn7si1,1.0,response,2_ITEM,1190.8000000000031,1183.3000000000031,1190.8000000000031,1190.8000000000031,1183.3000000000031,1190.8000000000031,1.0,0.0,0.0,,Click Response,2_count,5.0,object-49,temp_dist_trial,10.0,s_sh_02_1,student_shared,eraser,9.0,competing,single,s_sh_02_1.jpg,Student,$${counterbalance_group},,sub-96
Desktop or Laptop,Mac OS 10.15.7,Chrome 138.0.0.0,1710x1107,1710x981,Temporal Distance Task,cb_09,10.0,temp_dist_trial,dist_items,qkpkxw,2.0,info,,8.5,0.0,8.5,8.5,0.0,8.5,1.0,0.0,0.0,,Slider,Slider,4.0,object-56,temp_dist_trial,10.0,s_sh_02_1,student_shared,eraser,9.0,competing,single,s_sh_02_1.jpg,Student,$${counterbalance_group},,sub-96
Desktop or Laptop,Mac OS 10.15.7,Chrome 138.0.0.0,1710x1107,1710x981,Temporal Distance Task,cb_09,10.0,temp_dist_trial,dist_items,qkpkxw,2.0,continue,,1807.0999999996275,1800.0,1807.0999999996275,1807.0999999996275,1800.0,1807.0999999996275,1.0,0.0,0.0,,Click To Continue,Next button,7.0,object-60,temp_dist_trial,10.0,s_sh_02_1,student_shared,eraser,9.0,competing,single,s_sh_02_1.jpg,Student,$${counterbalance_group},,sub-96
Desktop or Laptop,Mac OS 10.15.7,Chrome 138.0.0.0,1710x1107,1710x981,Temporal Distance Task,cb_09,10.0,temp_dist_trial,dist_items,qkpkxw,2.0,response,38,700.0,1800.0,1807.7000000001865,700.0,1800.0,1807.7000000001865,1.0,1107.7000000001863,0.0,,Slider,Slider,4.0,object-56,temp_dist_trial,10.0,s_sh_02_1,student_shared,eraser,9.0,competing,single,s_sh_02_1.jpg,Student,$${counterbalance_group},,sub-96
Desktop or Laptop,Mac OS 10.15.7,Chrome 138.0.0.0,1710x1107,1710x981,Temporal Distance Task,cb_09,11.0,temp_dist_trial,num_items,zn7si1,1.0,response,1_ITEM,1265.0999999996275,1250.0,1265.0999999996275,1265.0999999996275,1250.0,1265.0999999996275,1.0,0.0,0.0,,Click Response,1_count,3.0,object-46,temp_dist_trial,11.0,s_sh_06_1,student_shared,clipboard,9.0,competing,paired,s_sh_06_1.jpg,Student,$${counterbalance_group},,sub-96
Desktop or Laptop,Mac OS 10.15.7,Chrome 138.0.0.0,1710x1107,1710x981,Temporal Distance Task,cb_09,12.0,temp_dist_trial,num_items,zn7si1,1.0,response,1_ITEM,1335.9000000003725,1333.3999999999942,1335.9000000003725,1335.9000000003725,1333.3999999999942,1335.9000000003725,1.0,0.0,0.0,,Click Response,1_count,3.0,object-46,temp_dist_trial,12.0,s_sh_17_1,student_shared,wireless mouse,9.0,competing,paired,s_sh_17_1.jpg,Student,$${counterbalance_group},,sub-96
Desktop or Laptop,Mac OS 10.15.7,Chrome 138.0.0.0,1710x1107,1710x981,Temporal Distance Task,cb_09,13.0,temp_dist_trial,num_items,zn7si1,1.0,response,1_ITEM,2030.6999999996333,2016.6000000000056,2030.6999999996333,2030.6999999996333,2016.6000000000056,2030.6999999996333,1.0,0.0,0.0,,Click Response,1_count,3.0,object-46,temp_dist_trial,13.0,s_s_20_1,student_stem,dna model,9.0,unique,single,s_s_20_1.jpg,Student,$${counterbalance_group},,sub-96
Desktop or Laptop,Mac OS 10.15.7,Chrome 138.0.0.0,1710x1107,1710x981,Temporal Distance Task,cb_09,14.0,temp_dist_trial,num_items,zn7si1,1.0,response,1_ITEM,1133.2999999999886,1116.6999999999969,1133.2999999999886,1133.2999999999886,1116.6999999999969,1133.2999999999886,1.0,0.0,0.0,,Click Response,1_count,3.0,object-46,temp_dist_trial,14.0,s_s_16_1,student_stem,toolbox,9.0,unique,single,s_s_16_1.jpg,Student,$${counterbalance_group},,sub-96
Desktop or Laptop,Mac OS 10.15.7,Chrome 138.0.0.0,1710x1107,1710x981,Temporal Distance Task,cb_09,15.0,temp_dist_trial,num_items,zn7si1,1.0,response,2_ITEM,1424.8000000000034,1416.6999999999966,1424.8000000000034,1424.8000000000034,1416.6999999999966,1424.8000000000034,1.0,0.0,0.0,,Click Response,2_count,5.0,object-49,temp_dist_trial,15.0,s_a_07_1,student_art,yarn,9.0,unique,single,s_a_07_1.jpg,Student,$${counterbalance_group},,sub-96
Desktop or Laptop,Mac OS 10.15.7,Chrome 138.0.0.0,1710x1107,1710x981,Temporal Distance Task,cb_09,15.0,temp_dist_trial,dist_items,qkpkxw,2.0,info,,7.999999999810826,0.0,7.999999999810826,7.999999999810826,0.0,7.999999999810826,1.0,0.0,0.0,,Slider,Slider,4.0,object-56,temp_dist_trial,15.0,s_a_07_1,student_art,yarn,9.0,unique,single,s_a_07_1.jpg,Student,$${counterbalance_group},,sub-96
Desktop or Laptop,Mac OS 10.15.7,Chrome 138.0.0.0,1710x1107,1710x981,Temporal Distance Task,cb_09,15.0,temp_dist_trial,dist_items,qkpkxw,2.0,continue,,3044.2999999996255,3033.3999999999933,3044.2999999996255,3044.2999999996255,3033.3999999999933,3044.2999999996255,1.0,0.0,0.0,,Click To Continue,Next button,7.0,object-60,temp_dist_trial,15.0,s_a_07_1,student_art,yarn,9.0,unique,single,s_a_07_1.jpg,Student,$${counterbalance_group},,sub-96
Desktop or Laptop,Mac OS 10.15.7,Chrome 138.0.0.0,1710x1107,1710x981,Temporal Distance Task,cb_09,15.0,temp_dist_trial,dist_items,qkpkxw,2.0,response,56,1133.3999999999942,3033.3999999999933,3044.900000000184,1133.3999999999942,3033.3999999999933,3044.900000000184,1.0,1911.5000000001885,0.0,,Slider,Slider,4.0,object-56,temp_dist_trial,15.0,s_a_07_1,student_art,yarn,9.0,unique,single,s_a_07_1.jpg,Student,$${counterbalance_group},,sub-96
Desktop or Laptop,Mac OS 10.15.7,Chrome 138.0.0.0,1710x1107,1710x981,Temporal Distance Task,cb_09,16.0,temp_dist_trial,num_items,zn7si1,1.0,response,2_ITEM,1668.7000000003754,1666.6999999999966,1668.7000000003754,1668.7000000003754,1666.6999999999966,1668.7000000003754,1.0,0.0,0.0,,Click Response,2_count,5.0,object-49,temp_dist_trial,16.0,s_sh_13_1,student_shared,index cards,9.0,competing,paired,s_sh_13_1.jpg,Student,$${counterbalance_group},,sub-96
Desktop or Laptop,Mac OS 10.15.7,Chrome 138.0.0.0,1710x1107,1710x981,Temporal Distance Task,cb_09,16.0,temp_dist_trial,dist_items,qkpkxw,2.0,info,,9.099999999816646,0.0,9.099999999816646,9.099999999816646,0.0,9.099999999816646,1.0,0.0,0.0,,Slider,Slider,4.0,object-56,temp_dist_trial,16.0,s_sh_13_1,student_shared,index cards,9.0,competing,paired,s_sh_13_1.jpg,Student,$${counterbalance_group},,sub-96
Desktop or Laptop,Mac OS 10.15.7,Chrome 138.0.0.0,1710x1107,1710x981,Temporal Distance Task,cb_09,16.0,temp_dist_trial,dist_items,qkpkxw,2.0,continue,,1835.0999999998169,1834.0,1835.0999999998169,1835.0999999998169,1834.0,1835.0999999998169,1.0,0.0,0.0,,Click To Continue,Next button,7.0,object-60,temp_dist_trial,16.0,s_sh_13_1,student_shared,index cards,9.0,competing,paired,s_sh_13_1.jpg,Student,$${counterbalance_group},,sub-96
Desktop or Laptop,Mac OS 10.15.7,Chrome 138.0.0.0,1710x1107,1710x981,Temporal Distance Task,cb_09,16.0,temp_dist_trial,dist_items,qkpkxw,2.0,response,42,834.0,1834.0,1839.0000000001885,834.0,1834.0,1839.0000000001885,1.0,1005.0000000001892,0.0,,Slider,Slider,4.0,object-56,temp_dist_trial,16.0,s_sh_13_1,student_shared,index cards,9.0,competing,paired,s_sh_13_1.jpg,Student,$${counterbalance_group},,sub-96
Desktop or Laptop,Mac OS 10.15.7,Chrome 138.0.0.0,1710x1107,1710x981,Temporal Distance Task,cb_09,17.0,temp_dist_trial,num_items,zn7si1,1.0,response,1_ITEM,986.8000000000028,983.3000000000028,986.8000000000028,986.8000000000028,983.3000000000028,986.8000000000028,1.0,0.0,0.0,,Click Response,1_count,3.0,object-46,temp_dist_trial,17.0,s_a_17_1,student_art,microphone,9.0,unique,paired,s_a_17_1.jpg,Student,$${counterbalance_group},,sub-96
Desktop or Laptop,Mac OS 10.15.7,Chrome 138.0.0.0,1710x1107,1710x981,Temporal Distance Task,cb_09,18.0,temp_dist_trial,num_items,zn7si1,1.0,response,2_ITEM,1195.2999999998135,1183.3999999999942,1195.2999999998135,1195.2999999998135,1183.3999999999942,1195.2999999998135,1.0,0.0,0.0,,Click Response,2_count,5.0,object-49,temp_dist_trial,18.0,s_s_02_1,student_stem,flask,9.0,unique,paired,s_s_02_1.jpg,Student,$${counterbalance_group},,sub-96
Desktop or Laptop,Mac OS 10.15.7,Chrome 138.0.0.0,1710x1107,1710x981,Temporal Distance Task,cb_09,18.0,temp_dist_trial,dist_items,qkpkxw,2.0,info,,9.100000000005819,0.0,9.100000000005819,9.100000000005819,0.0,9.100000000005819,1.0,0.0,0.0,,Slider,Slider,4.0,object-56,temp_dist_trial,18.0,s_s_02_1,student_stem,flask,9.0,unique,paired,s_s_02_1.jpg,Student,$${counterbalance_group},,sub-96
Desktop or Laptop,Mac OS 10.15.7,Chrome 138.0.0.0,1710x1107,1710x981,Temporal Distance Task,cb_09,18.0,temp_dist_trial,dist_items,qkpkxw,2.0,continue,,1788.1000000000058,1783.3000000000034,1788.1000000000058,1788.1000000000058,1783.3000000000034,1788.1000000000058,1.0,0.0,0.0,,Click To Continue,Next button,7.0,object-60,temp_dist_trial,18.0,s_s_02_1,student_stem,flask,9.0,unique,paired,s_s_02_1.jpg,Student,$${counterbalance_group},,sub-96
Desktop or Laptop,Mac OS 10.15.7,Chrome 138.0.0.0,1710x1107,1710x981,Temporal Distance Task,cb_09,18.0,temp_dist_trial,dist_items,qkpkxw,2.0,response,42,800.0,1783.3000000000034,1788.6999999996333,800.0,1783.3000000000034,1788.6999999996333,1.0,988.6999999996332,0.0,,Slider,Slider,4.0,object-56,temp_dist_trial,18.0,s_s_02_1,student_stem,flask,9.0,unique,paired,s_s_02_1.jpg,Student,$${counterbalance_group},,sub-96
Desktop or Laptop,Mac OS 10.15.7,Chrome 138.0.0.0,1710x1107,1710x981,Temporal Distance Task,cb_09,19.0,temp_dist_trial,num_items,zn7si1,1.0,response,2_ITEM,1966.5999999998169,1950.0,1966.5999999998169,1966.5999999998169,1950.0,1966.5999999998169,1.0,0.0,0.0,,Click Response,2_count,5.0,object-49,temp_dist_trial,19.0,s_a_19_1,student_art,ballet shoes,9.0,unique,paired,s_a_19_1.jpg,Student,$${counterbalance_group},,sub-96
Desktop or Laptop,Mac OS 10.15.7,Chrome 138.0.0.0,1710x1107,1710x981,Temporal Distance Task,cb_09,19.0,temp_dist_trial,dist_items,qkpkxw,2.0,info,,8.000000000189175,0.0,8.000000000189175,8.000000000189175,0.0,8.000000000189175,1.0,0.0,0.0,,Slider,Slider,4.0,object-56,temp_dist_trial,19.0,s_a_19_1,student_art,ballet shoes,9.0,unique,paired,s_a_19_1.jpg,Student,$${counterbalance_group},,sub-96
Desktop or Laptop,Mac OS 10.15.7,Chrome 138.0.0.0,1710x1107,1710x981,Temporal Distance Task,cb_09,19.0,temp_dist_trial,dist_items,qkpkxw,2.0,continue,,2362.800000000003,2350.0,2362.800000000003,2362.800000000003,2350.0,2362.800000000003,1.0,0.0,0.0,,Click To Continue,Next button,7.0,object-60,temp_dist_trial,19.0,s_a_19_1,student_art,ballet shoes,9.0,unique,paired,s_a_19_1.jpg,Student,$${counterbalance_group},,sub-96
Desktop or Laptop,Mac OS 10.15.7,Chrome 138.0.0.0,1710x1107,1710x981,Temporal Distance Task,cb_09,19.0,temp_dist_trial,dist_items,qkpkxw,2.0,response,37,1000.0,2350.0,2363.800000000003,1000.0,2350.0,2363.800000000003,1.0,1363.8000000000031,0.0,,Slider,Slider,4.0,object-56,temp_dist_trial,19.0,s_a_19_1,student_art,ballet shoes,9.0,unique,paired,s_a_19_1.jpg,Student,$${counterbalance_group},,sub-96
Desktop or Laptop,Mac OS 10.15.7,Chrome 138.0.0.0,1710x1107,1710x981,Temporal Distance Task,cb_09,20.0,temp_dist_trial,num_items,zn7si1,1.0,response,2_ITEM,1510.8999999996304,1500.0,1510.8999999996304,1510.8999999996304,1500.0,1510.8999999996304,1.0,0.0,0.0,,Click Response,2_count,5.0,object-49,temp_dist_trial,20.0,s_sh_12_1,student_shared,binder,9.0,competing,paired,s_sh_12_1.jpg,Student,$${counterbalance_group},,sub-96
Desktop or Laptop,Mac OS 10.15.7,Chrome 138.0.0.0,1710x1107,1710x981,Temporal Distance Task,cb_09,20.0,temp_dist_trial,dist_items,qkpkxw,2.0,info,,7.599999999816648,0.0,7.599999999816648,7.599999999816648,0.0,7.599999999816648,1.0,0.0,0.0,,Slider,Slider,4.0,object-56,temp_dist_trial,20.0,s_sh_12_1,student_shared,binder,9.0,competing,paired,s_sh_12_1.jpg,Student,$${counterbalance_group},,sub-96
Desktop or Laptop,Mac OS 10.15.7,Chrome 138.0.0.0,1710x1107,1710x981,Temporal Distance Task,cb_09,20.0,temp_dist_trial,dist_items,qkpkxw,2.0,continue,,1940.7000000003754,1933.3000000000034,1940.7000000003754,1940.7000000003754,1933.3000000000034,1940.7000000003754,1.0,0.0,0.0,,Click To Continue,Next button,7.0,object-60,temp_dist_trial,20.0,s_sh_12_1,student_shared,binder,9.0,competing,paired,s_sh_12_1.jpg,Student,$${counterbalance_group},,sub-96
Desktop or Laptop,Mac OS 10.15.7,Chrome 138.0.0.0,1710x1107,1710x981,Temporal Distance Task,cb_09,20.0,temp_dist_trial,dist_items,qkpkxw,2.0,response,41,1049.9000000000087,1933.3000000000034,1941.3000000000034,1049.9000000000087,1933.3000000000034,1941.3000000000034,1.0,891.3999999999942,0.0,,Slider,Slider,4.0,object-56,temp_dist_trial,20.0,s_sh_12_1,student_shared,binder,9.0,competing,paired,s_sh_12_1.jpg,Student,$${counterbalance_group},,sub-96
Desktop or Laptop,Mac OS 10.15.7,Chrome 138.0.0.0,1710x1107,1710x981,Temporal Distance Task,cb_09,21.0,temp_dist_trial,num_items,zn7si1,1.0,response,1_ITEM,966.6999999999972,950.0,966.6999999999972,966.6999999999972,950.0,966.6999999999972,1.0,0.0,0.0,,Click Response,1_count,3.0,object-46,temp_dist_trial,21.0,s_a_12_1,student_art,saxophone,9.0,unique,paired,s_a_12_1.jpg,Student,$${counterbalance_group},,sub-96
Desktop or Laptop,Mac OS 10.15.7,Chrome 138.0.0.0,1710x1107,1710x981,Temporal Distance Task,cb_09,22.0,temp_dist_trial,num_items,zn7si1,1.0,response,1_ITEM,2085.2999999998137,2083.300000000003,2085.2999999998137,2085.2999999998137,2083.300000000003,2085.2999999998137,1.0,0.0,0.0,,Click Response,1_count,3.0,object-46,temp_dist_trial,22.0,s_sh_22_1,student_shared,hole puncher,9.0,competing,paired,s_sh_22_1.jpg,Student,$${counterbalance_group},,sub-96
Desktop or Laptop,Mac OS 10.15.7,Chrome 138.0.0.0,1710x1107,1710x981,Temporal Distance Task,cb_09,23.0,temp_dist_trial,num_items,zn7si1,1.0,response,1_ITEM,1154.4000000001836,1150.0999999999913,1154.4000000001836,1154.4000000001836,1150.0999999999913,1154.4000000001836,1.0,0.0,0.0,,Click Response,1_count,3.0,object-46,temp_dist_trial,23.0,s_s_06_1,student_stem,calculator,9.0,unique,single,s_s_06_1.jpg,Student,$${counterbalance_group},,sub-96
Desktop or Laptop,Mac OS 10.15.7,Chrome 138.0.0.0,1710x1107,1710x981,Temporal Distance Task,cb_09,24.0,temp_dist_trial,num_items,zn7si1,1.0,response,1_ITEM,1886.6000000003696,1883.3000000000034,1886.6000000003696,1886.6000000003696,1883.3000000000034,1886.6000000003696,1.0,0.0,0.0,,Click Response,1_count,3.0,object-46,temp_dist_trial,24.0,s_s_19_1,student_stem,circuit board,9.0,unique,paired,s_s_19_1.jpg,Student,$${counterbalance_group},,sub-96
Desktop or Laptop,Mac OS 10.15.7,Chrome 138.0.0.0,1710x1107,1710x981,Temporal Distance Task,cb_09,25.0,temp_dist_trial,num_items,zn7si1,1.0,response,1_ITEM,1509.4999999996217,1500.099999999991,1509.4999999996217,1509.4999999996217,1500.099999999991,1509.4999999996217,1.0,0.0,0.0,,Click Response,1_count,3.0,object-46,temp_dist_trial,25.0,s_a_06_1,student_art,pastels,9.0,unique,single,s_a_06_1.jpg,Student,$${counterbalance_group},,sub-96
Desktop or Laptop,Mac OS 10.15.7,Chrome 138.0.0.0,1710x1107,1710x981,Temporal Distance Task,cb_09,26.0,temp_dist_trial,num_items,zn7si1,1.0,response,1_ITEM,801.0999999998166,800.0,801.0999999998166,801.0999999998166,800.0,801.0999999998166,1.0,0.0,0.0,,Click Response,1_count,3.0,object-46,temp_dist_trial,26.0,s_a_01_1,student_art,paintbrush,9.0,unique,single,s_a_01_1.jpg,Student,$${counterbalance_group},,sub-96
Desktop or Laptop,Mac OS 10.15.7,Chrome 138.0.0.0,1710x1107,1710x981,Temporal Distance Task,cb_09,27.0,temp_dist_trial,num_items,zn7si1,1.0,response,1_ITEM,937.3000000000028,933.4000000000087,937.3000000000028,937.3000000000028,933.4000000000087,937.3000000000028,1.0,0.0,0.0,,Click Response,1_count,3.0,object-46,temp_dist_trial,27.0,s_s_09_1,student_stem,multimeter,9.0,unique,paired,s_s_09_1.jpg,Student,$${counterbalance_group},,sub-96
Desktop or Laptop,Mac OS 10.15.7,Chrome 138.0.0.0,1710x1107,1710x981,Temporal Distance Task,cb_09,28.0,temp_dist_trial,num_items,zn7si1,1.0,response,1_ITEM,1091.2999999998137,1083.3999999999942,1091.2999999998137,1091.2999999998137,1083.3999999999942,1091.2999999998137,1.0,0.0,0.0,,Click Response,1_count,3.0,object-46,temp_dist_trial,28.0,s_sh_03_1,student_shared,highlighter,9.0,competing,single,s_sh_03_1.jpg,Student,$${counterbalance_group},,sub-96
Desktop or Laptop,Mac OS 10.15.7,Chrome 138.0.0.0,1710x1107,1710x981,Temporal Distance Task,cb_09,29.0,temp_dist_trial,num_items,zn7si1,1.0,response,2_ITEM,1519.9999999998108,1516.6999999999966,1519.9999999998108,1519.9999999998108,1516.6999999999966,1519.9999999998108,1.0,0.0,0.0,,Click Response,2_count,5.0,object-49,temp_dist_trial,29.0,s_sh_24_1,student_shared,desk organizer,9.0,competing,paired,s_sh_24_1.jpg,Student,$${counterbalance_group},,sub-96
Desktop or Laptop,Mac OS 10.15.7,Chrome 138.0.0.0,1710x1107,1710x981,Temporal Distance Task,cb_09,29.0,temp_dist_trial,dist_items,qkpkxw,2.0,info,,7.7999999998137355,0.0,7.7999999998137355,7.7999999998137355,0.0,7.7999999998137355,1.0,0.0,0.0,,Slider,Slider,4.0,object-56,temp_dist_trial,29.0,s_sh_24_1,student_shared,desk organizer,9.0,competing,paired,s_sh_24_1.jpg,Student,$${counterbalance_group},,sub-96
Desktop or Laptop,Mac OS 10.15.7,Chrome 138.0.0.0,1710x1107,1710x981,Temporal Distance Task,cb_09,29.0,temp_dist_trial,dist_items,qkpkxw,2.0,continue,,2035.5999999996275,2033.3000000000034,2035.5999999996275,2035.5999999996275,2033.3000000000034,2035.5999999996275,1.0,0.0,0.0,,Click To Continue,Next button,7.0,object-60,temp_dist_trial,29.0,s_sh_24_1,student_shared,desk organizer,9.0,competing,paired,s_sh_24_1.jpg,Student,$${counterbalance_group},,sub-96
Desktop or Laptop,Mac OS 10.15.7,Chrome 138.0.0.0,1710x1107,1710x981,Temporal Distance Task,cb_09,29.0,temp_dist_trial,dist_items,qkpkxw,2.0,response,44,966.6999999999972,2033.3000000000034,2036.2999999998133,966.6999999999972,2033.3000000000034,2036.2999999998133,1.0,1069.5999999998166,0.0,,Slider,Slider,4.0,object-56,temp_dist_trial,29.0,s_sh_24_1,student_shared,desk organizer,9.0,competing,paired,s_sh_24_1.jpg,Student,$${counterbalance_group},,sub-96
Desktop or Laptop,Mac OS 10.15.7,Chrome 138.0.0.0,1710x1107,1710x981,Temporal Distance Task,cb_09,30.0,temp_dist_trial,num_items,zn7si1,1.0,response,1_ITEM,2061.6000000003696,2050.0,2061.6000000003696,2061.6000000003696,2050.0,2061.6000000003696,1.0,0.0,0.0,,Click Response,1_count,3.0,object-46,temp_dist_trial,30.0,s_a_15_1,student_art,drum kit,9.0,unique,single,s_a_15_1.jpg,Student,$${counterbalance_group},,sub-96
Desktop or Laptop,Mac OS 10.15.7,Chrome 138.0.0.0,1710x1107,1710x981,Temporal Distance Task,cb_09,31.0,temp_dist_trial,num_items,zn7si1,1.0,response,1_ITEM,706.4999999998108,700.0,706.4999999998108,706.4999999998108,700.0,706.4999999998108,1.0,0.0,0.0,,Click Response,1_count,3.0,object-46,temp_dist_trial,31.0,s_s_10_1,student_stem,3d molecule,9.0,unique,paired,s_s_10_1.jpg,Student,$${counterbalance_group},,sub-96
Desktop or Laptop,Mac OS 10.15.7,Chrome 138.0.0.0,1710x1107,1710x981,Temporal Distance Task,cb_09,32.0,temp_dist_trial,num_items,zn7si1,1.0,response,2_ITEM,1392.1000000003696,1383.3000000000034,1392.1000000003696,1392.1000000003696,1383.3000000000034,1392.1000000003696,1.0,0.0,0.0,,Click Response,2_count,5.0,object-49,temp_dist_trial,32.0,s_sh_14_1,student_shared,printer,9.0,competing,paired,s_sh_14_1.jpg,Student,$${counterbalance_group},,sub-96
Desktop or Laptop,Mac OS 10.15.7,Chrome 138.0.0.0,1710x1107,1710x981,Temporal Distance Task,cb_09,32.0,temp_dist_trial,dist_items,qkpkxw,2.0,info,,7.49999999962165,0.0,7.49999999962165,7.49999999962165,0.0,7.49999999962165,1.0,0.0,0.0,,Slider,Slider,4.0,object-56,temp_dist_trial,32.0,s_sh_14_1,student_shared,printer,9.0,competing,paired,s_sh_14_1.jpg,Student,$${counterbalance_group},,sub-96
Desktop or Laptop,Mac OS 10.15.7,Chrome 138.0.0.0,1710x1107,1710x981,Temporal Distance Task,cb_09,32.0,temp_dist_trial,dist_items,qkpkxw,2.0,continue,,2250.0999999999913,2233.3999999999937,2250.0999999999913,2250.0999999999913,2233.3999999999937,2250.0999999999913,1.0,0.0,0.0,,Click To Continue,Next button,7.0,object-60,temp_dist_trial,32.0,s_sh_14_1,student_shared,printer,9.0,competing,paired,s_sh_14_1.jpg,Student,$${counterbalance_group},,sub-96
Desktop or Laptop,Mac OS 10.15.7,Chrome 138.0.0.0,1710x1107,1710x981,Temporal Distance Task,cb_09,32.0,temp_dist_trial,dist_items,qkpkxw,2.0,response,42,766.7999999999884,2233.3999999999937,2250.0999999999913,766.7999999999884,2233.3999999999937,2250.0999999999913,1.0,1483.3000000000034,0.0,,Slider,Slider,4.0,object-56,temp_dist_trial,32.0,s_sh_14_1,student_shared,printer,9.0,competing,paired,s_sh_14_1.jpg,Student,$${counterbalance_group},,sub-96
Desktop or Laptop,Mac OS 10.15.7,Chrome 138.0.0.0,1710x1107,1710x981,Temporal Distance Task,cb_09,33.0,temp_dist_trial,num_items,zn7si1,1.0,response,1_ITEM,2427.0,2416.6000000000063,2427.0,2427.0,2416.6000000000063,2427.0,1.0,0.0,0.0,,Click Response,1_count,3.0,object-46,temp_dist_trial,33.0,s_s_15_1,student_stem,jumper cables,9.0,unique,paired,s_s_15_1.jpg,Student,$${counterbalance_group},,sub-96
Desktop or Laptop,Mac OS 10.15.7,Chrome 138.0.0.0,1710x1107,1710x981,Temporal Distance Task,cb_09,34.0,temp_dist_trial,num_items,zn7si1,1.0,response,2_ITEM,1522.6999999998081,1516.7999999999884,1522.6999999998081,1522.6999999998081,1516.7999999999884,1522.6999999998081,1.0,0.0,0.0,,Click Response,2_count,5.0,object-49,temp_dist_trial,34.0,s_sh_10_1,student_shared,scissors,9.0,competing,paired,s_sh_10_1.jpg,Student,$${counterbalance_group},,sub-96
Desktop or Laptop,Mac OS 10.15.7,Chrome 138.0.0.0,1710x1107,1710x981,Temporal Distance Task,cb_09,34.0,temp_dist_trial,dist_items,qkpkxw,2.0,info,,9.000000000189175,0.0,9.000000000189175,9.000000000189175,0.0,9.000000000189175,1.0,0.0,0.0,,Slider,Slider,4.0,object-56,temp_dist_trial,34.0,s_sh_10_1,student_shared,scissors,9.0,competing,paired,s_sh_10_1.jpg,Student,$${counterbalance_group},,sub-96
Desktop or Laptop,Mac OS 10.15.7,Chrome 138.0.0.0,1710x1107,1710x981,Temporal Distance Task,cb_09,34.0,temp_dist_trial,dist_items,qkpkxw,2.0,continue,,2121.2000000003754,2117.300000000003,2121.2000000003754,2121.2000000003754,2117.300000000003,2121.2000000003754,1.0,0.0,0.0,,Click To Continue,Next button,7.0,object-60,temp_dist_trial,34.0,s_sh_10_1,student_shared,scissors,9.0,competing,paired,s_sh_10_1.jpg,Student,$${counterbalance_group},,sub-96
Desktop or Laptop,Mac OS 10.15.7,Chrome 138.0.0.0,1710x1107,1710x981,Temporal Distance Task,cb_09,34.0,temp_dist_trial,dist_items,qkpkxw,2.0,response,53,1100.5999999999913,2117.300000000003,2125.0000000001887,1100.5999999999913,2117.300000000003,2125.0000000001887,1.0,1024.4000000001981,0.0,,Slider,Slider,4.0,object-56,temp_dist_trial,34.0,s_sh_10_1,student_shared,scissors,9.0,competing,paired,s_sh_10_1.jpg,Student,$${counterbalance_group},,sub-96
Desktop or Laptop,Mac OS 10.15.7,Chrome 138.0.0.0,1710x1107,1710x981,Temporal Distance Task,cb_09,35.0,temp_dist_trial,num_items,zn7si1,1.0,response,1_ITEM,989.0999999996277,983.2999999999884,989.0999999996277,989.0999999996277,983.2999999999884,989.0999999996277,1.0,0.0,0.0,,Click Response,1_count,3.0,object-46,temp_dist_trial,35.0,s_sh_09_1,student_shared,paper clips,9.0,competing,paired,s_sh_09_1.jpg,Student,$${counterbalance_group},,sub-96
Desktop or Laptop,Mac OS 10.15.7,Chrome 138.0.0.0,1710x1107,1710x981,Temporal Distance Task,cb_09,36.0,temp_dist_trial,num_items,zn7si1,1.0,response,2_ITEM,1309.9999999998254,1300.0,1309.9999999998254,1309.9999999998254,1300.0,1309.9999999998254,1.0,0.0,0.0,,Click Response,2_count,5.0,object-49,temp_dist_trial,36.0,s_a_14_1,student_art,guitar pick,9.0,unique,paired,s_a_14_1.jpg,Student,$${counterbalance_group},,sub-96
Desktop or Laptop,Mac OS 10.15.7,Chrome 138.0.0.0,1710x1107,1710x981,Temporal Distance Task,cb_09,36.0,temp_dist_trial,dist_items,qkpkxw,2.0,info,,7.699999999633293,0.0,7.699999999633293,7.699999999633293,0.0,7.699999999633293,1.0,0.0,0.0,,Slider,Slider,4.0,object-56,temp_dist_trial,36.0,s_a_14_1,student_art,guitar pick,9.0,unique,paired,s_a_14_1.jpg,Student,$${counterbalance_group},,sub-96
Desktop or Laptop,Mac OS 10.15.7,Chrome 138.0.0.0,1710x1107,1710x981,Temporal Distance Task,cb_09,36.0,temp_dist_trial,dist_items,qkpkxw,2.0,continue,,2892.1000000000067,2883.300000000017,2892.1000000000067,2892.1000000000067,2883.300000000017,2892.1000000000067,1.0,0.0,0.0,,Click To Continue,Next button,7.0,object-60,temp_dist_trial,36.0,s_a_14_1,student_art,guitar pick,9.0,unique,paired,s_a_14_1.jpg,Student,$${counterbalance_group},,sub-96
Desktop or Laptop,Mac OS 10.15.7,Chrome 138.0.0.0,1710x1107,1710x981,Temporal Distance Task,cb_09,36.0,temp_dist_trial,dist_items,qkpkxw,2.0,response,36,1199.8999999999942,2883.300000000017,2893.0000000003783,1199.8999999999942,2883.300000000017,2893.0000000003783,1.0,1693.1000000003842,0.0,,Slider,Slider,4.0,object-56,temp_dist_trial,36.0,s_a_14_1,student_art,guitar pick,9.0,unique,paired,s_a_14_1.jpg,Student,$${counterbalance_group},,sub-96
Desktop or Laptop,Mac OS 10.15.7,Chrome 138.0.0.0,1710x1107,1710x981,Temporal Distance Task,cb_09,37.0,temp_dist_trial,num_items,zn7si1,1.0,response,2_ITEM,1120.5999999998019,1116.6999999999823,1120.5999999998019,1120.5999999998019,1116.6999999999823,1120.5999999998019,1.0,0.0,0.0,,Click Response,2_count,5.0,object-49,temp_dist_trial,37.0,s_a_02_1,student_art,canvas,9.0,unique,paired,s_a_02_1.jpg,Student,$${counterbalance_group},,sub-96
Desktop or Laptop,Mac OS 10.15.7,Chrome 138.0.0.0,1710x1107,1710x981,Temporal Distance Task,cb_09,37.0,temp_dist_trial,dist_items,qkpkxw,2.0,info,,8.200000000011643,0.0,8.200000000011643,8.200000000011643,0.0,8.200000000011643,1.0,0.0,0.0,,Slider,Slider,4.0,object-56,temp_dist_trial,37.0,s_a_02_1,student_art,canvas,9.0,unique,paired,s_a_02_1.jpg,Student,$${counterbalance_group},,sub-96
Desktop or Laptop,Mac OS 10.15.7,Chrome 138.0.0.0,1710x1107,1710x981,Temporal Distance Task,cb_09,37.0,temp_dist_trial,dist_items,qkpkxw,2.0,continue,,2046.2999999996387,2033.3000000000175,2046.2999999996387,2046.2999999996387,2033.3000000000175,2046.2999999996387,1.0,0.0,0.0,,Click To Continue,Next button,7.0,object-60,temp_dist_trial,37.0,s_a_02_1,student_art,canvas,9.0,unique,paired,s_a_02_1.jpg,Student,$${counterbalance_group},,sub-96
Desktop or Laptop,Mac OS 10.15.7,Chrome 138.0.0.0,1710x1107,1710x981,Temporal Distance Task,cb_09,37.0,temp_dist_trial,dist_items,qkpkxw,2.0,response,44,1100.0,2033.3000000000175,2047.100000000384,1100.0,2033.3000000000175,2047.100000000384,1.0,947.1000000003842,0.0,,Slider,Slider,4.0,object-56,temp_dist_trial,37.0,s_a_02_1,student_art,canvas,9.0,unique,paired,s_a_02_1.jpg,Student,$${counterbalance_group},,sub-96
Desktop or Laptop,Mac OS 10.15.7,Chrome 138.0.0.0,1710x1107,1710x981,Temporal Distance Task,cb_09,38.0,temp_dist_trial,num_items,zn7si1,1.0,response,num_miss,3000.0,3000.0,3000.0,3000.0,3000.0,3000.0,1.0,0.0,0.0,num_miss_tag,Time Limit,screen,0.0,screen,temp_dist_trial,38.0,s_s_01_1,student_stem,microscope,9.0,unique,paired,s_s_01_1.jpg,Student,$${counterbalance_group},,sub-96
Desktop or Laptop,Mac OS 10.15.7,Chrome 138.0.0.0,1710x1107,1710x981,Temporal Distance Task,cb_09,39.0,temp_dist_trial,num_items,zn7si1,1.0,response,1_ITEM,1401.6999999996333,1400.0,1401.6999999996333,1401.6999999996333,1400.0,1401.6999999996333,1.0,0.0,0.0,,Click Response,1_count,3.0,object-46,temp_dist_trial,39.0,s_sh_20_1,student_shared,tape,9.0,competing,paired,s_sh_20_1.jpg,Student,$${counterbalance_group},,sub-96
Desktop or Laptop,Mac OS 10.15.7,Chrome 138.0.0.0,1710x1107,1710x981,Temporal Distance Task,cb_09,40.0,temp_dist_trial,num_items,zn7si1,1.0,response,2_ITEM,1779.3999999998196,1766.7000000000116,1779.3999999998196,1779.3999999998196,1766.7000000000116,1779.3999999998196,1.0,0.0,0.0,,Click Response,2_count,5.0,object-49,temp_dist_trial,40.0,s_sh_18_1,student_shared,wall calendar,9.0,competing,paired,s_sh_18_1.jpg,Student,$${counterbalance_group},,sub-96
Desktop or Laptop,Mac OS 10.15.7,Chrome 138.0.0.0,1710x1107,1710x981,Temporal Distance Task,cb_09,40.0,temp_dist_trial,dist_items,qkpkxw,2.0,info,,7.399999999615827,0.0,7.399999999615827,7.399999999615827,0.0,7.399999999615827,1.0,0.0,0.0,,Slider,Slider,4.0,object-56,temp_dist_trial,40.0,s_sh_18_1,student_shared,wall calendar,9.0,competing,paired,s_sh_18_1.jpg,Student,$${counterbalance_group},,sub-96
Desktop or Laptop,Mac OS 10.15.7,Chrome 138.0.0.0,1710x1107,1710x981,Temporal Distance Task,cb_09,40.0,temp_dist_trial,dist_items,qkpkxw,2.0,continue,,3633.000000000175,3616.5999999999767,3633.000000000175,3633.000000000175,3616.5999999999767,3633.000000000175,1.0,0.0,0.0,,Click To Continue,Next button,7.0,object-60,temp_dist_trial,40.0,s_sh_18_1,student_shared,wall calendar,9.0,competing,paired,s_sh_18_1.jpg,Student,$${counterbalance_group},,sub-96
Desktop or Laptop,Mac OS 10.15.7,Chrome 138.0.0.0,1710x1107,1710x981,Temporal Distance Task,cb_09,40.0,temp_dist_trial,dist_items,qkpkxw,2.0,response,73,2000.0,3616.5999999999767,3633.1999999999534,2000.0,3616.5999999999767,3633.1999999999534,1.0,1633.1999999999537,0.0,,Slider,Slider,4.0,object-56,temp_dist_trial,40.0,s_sh_18_1,student_shared,wall calendar,9.0,competing,paired,s_sh_18_1.jpg,Student,$${counterbalance_group},,sub-96
Desktop or Laptop,Mac OS 10.15.7,Chrome 138.0.0.0,1710x1107,1710x981,Temporal Distance Task,cb_09,41.0,temp_dist_trial,num_items,zn7si1,1.0,response,1_ITEM,1433.2000000000116,1416.6000000000058,1433.2000000000116,1433.2000000000116,1416.6000000000058,1433.2000000000116,1.0,0.0,0.0,,Click Response,1_count,3.0,object-46,temp_dist_trial,41.0,s_sh_11_1,student_shared,pencil case,9.0,competing,paired,s_sh_11_1.jpg,Student,$${counterbalance_group},,sub-96
Desktop or Laptop,Mac OS 10.15.7,Chrome 138.0.0.0,1710x1107,1710x981,Temporal Distance Task,cb_09,42.0,temp_dist_trial,num_items,zn7si1,1.0,response,2_ITEM,1211.0000000003786,1200.0,1211.0000000003786,1211.0000000003786,1200.0,1211.0000000003786,1.0,0.0,0.0,,Click Response,2_count,5.0,object-49,temp_dist_trial,42.0,s_sh_04_1,student_shared,laptop stand,9.0,competing,paired,s_sh_04_1.jpg,Student,$${counterbalance_group},,sub-96
Desktop or Laptop,Mac OS 10.15.7,Chrome 138.0.0.0,1710x1107,1710x981,Temporal Distance Task,cb_09,42.0,temp_dist_trial,dist_items,qkpkxw,2.0,info,,8.00000000037835,0.0,8.00000000037835,8.00000000037835,0.0,8.00000000037835,1.0,0.0,0.0,,Slider,Slider,4.0,object-56,temp_dist_trial,42.0,s_sh_04_1,student_shared,laptop stand,9.0,competing,paired,s_sh_04_1.jpg,Student,$${counterbalance_group},,sub-96
Desktop or Laptop,Mac OS 10.15.7,Chrome 138.0.0.0,1710x1107,1710x981,Temporal Distance Task,cb_09,42.0,temp_dist_trial,dist_items,qkpkxw,2.0,continue,,3020.1000000000067,3016.700000000012,3020.1000000000067,3020.1000000000067,3016.700000000012,3020.1000000000067,1.0,0.0,0.0,,Click To Continue,Next button,7.0,object-60,temp_dist_trial,42.0,s_sh_04_1,student_shared,laptop stand,9.0,competing,paired,s_sh_04_1.jpg,Student,$${counterbalance_group},,sub-96
Desktop or Laptop,Mac OS 10.15.7,Chrome 138.0.0.0,1710x1107,1710x981,Temporal Distance Task,cb_09,42.0,temp_dist_trial,dist_items,qkpkxw,2.0,response,43,850.1000000000058,3016.700000000012,3020.5000000003783,850.1000000000058,3016.700000000012,3020.5000000003783,1.0,2170.4000000003725,0.0,,Slider,Slider,4.0,object-56,temp_dist_trial,42.0,s_sh_04_1,student_shared,laptop stand,9.0,competing,paired,s_sh_04_1.jpg,Student,$${counterbalance_group},,sub-96
Desktop or Laptop,Mac OS 10.15.7,Chrome 138.0.0.0,1710x1107,1710x981,Temporal Distance Task,cb_09,43.0,temp_dist_trial,num_items,zn7si1,1.0,response,1_ITEM,1323.8000000003667,1316.6999999999825,1323.8000000003667,1323.8000000003667,1316.6999999999825,1323.8000000003667,1.0,0.0,0.0,,Click Response,1_count,3.0,object-46,temp_dist_trial,43.0,s_s_08_1,student_stem,soldering iron,9.0,unique,paired,s_s_08_1.jpg,Student,$${counterbalance_group},,sub-96
Desktop or Laptop,Mac OS 10.15.7,Chrome 138.0.0.0,1710x1107,1710x981,Temporal Distance Task,cb_09,44.0,temp_dist_trial,num_items,zn7si1,1.0,response,1_ITEM,686.9999999998254,683.3000000000175,686.9999999998254,686.9999999998254,683.3000000000175,686.9999999998254,1.0,0.0,0.0,,Click Response,1_count,3.0,object-46,temp_dist_trial,44.0,s_sh_15_1,student_shared,usb drive,9.0,competing,paired,s_sh_15_1.jpg,Student,$${counterbalance_group},,sub-96
Desktop or Laptop,Mac OS 10.15.7,Chrome 138.0.0.0,1710x1107,1710x981,Temporal Distance Task,cb_09,45.0,temp_dist_trial,num_items,zn7si1,1.0,response,1_ITEM,1085.1999999998081,1083.3999999999942,1085.1999999998081,1085.1999999998081,1083.3999999999942,1085.1999999998081,1.0,0.0,0.0,,Click Response,1_count,3.0,object-46,temp_dist_trial,45.0,s_a_16_1,student_art,piano,9.0,unique,paired,s_a_16_1.jpg,Student,$${counterbalance_group},,sub-96
Desktop or Laptop,Mac OS 10.15.7,Chrome 138.0.0.0,1710x1107,1710x981,Temporal Distance Task,cb_09,46.0,temp_dist_trial,num_items,zn7si1,1.0,response,2_ITEM,2075.6000000000063,2066.8000000000175,2075.6000000000063,2075.6000000000063,2066.8000000000175,2075.6000000000063,1.0,0.0,0.0,,Click Response,2_count,5.0,object-49,temp_dist_trial,46.0,s_sh_08_1,student_shared,post-its,9.0,competing,paired,s_sh_08_1.jpg,Student,$${counterbalance_group},,sub-96
Desktop or Laptop,Mac OS 10.15.7,Chrome 138.0.0.0,1710x1107,1710x981,Temporal Distance Task,cb_09,46.0,temp_dist_trial,dist_items,qkpkxw,2.0,info,,5.699999999807915,0.0,5.699999999807915,5.699999999807915,0.0,5.699999999807915,1.0,0.0,0.0,,Slider,Slider,4.0,object-56,temp_dist_trial,46.0,s_sh_08_1,student_shared,post-its,9.0,competing,paired,s_sh_08_1.jpg,Student,$${counterbalance_group},,sub-96
Desktop or Laptop,Mac OS 10.15.7,Chrome 138.0.0.0,1710x1107,1710x981,Temporal Distance Task,cb_09,46.0,temp_dist_trial,dist_items,qkpkxw,2.0,continue,,1825.1000000001804,1816.6999999999825,1825.1000000001804,1825.1000000001804,1816.6999999999825,1825.1000000001804,1.0,0.0,0.0,,Click To Continue,Next button,7.0,object-60,temp_dist_trial,46.0,s_sh_08_1,student_shared,post-its,9.0,competing,paired,s_sh_08_1.jpg,Student,$${counterbalance_group},,sub-96
Desktop or Laptop,Mac OS 10.15.7,Chrome 138.0.0.0,1710x1107,1710x981,Temporal Distance Task,cb_09,46.0,temp_dist_trial,dist_items,qkpkxw,2.0,response,41,800.0,1816.6999999999825,1829.4999999996217,800.0,1816.6999999999825,1829.4999999996217,1.0,1029.4999999996217,0.0,,Slider,Slider,4.0,object-56,temp_dist_trial,46.0,s_sh_08_1,student_shared,post-its,9.0,competing,paired,s_sh_08_1.jpg,Student,$${counterbalance_group},,sub-96
Desktop or Laptop,Mac OS 10.15.7,Chrome 138.0.0.0,1710x1107,1710x981,Temporal Distance Task,cb_09,47.0,temp_dist_trial,num_items,zn7si1,1.0,response,1_ITEM,874.7999999996391,866.7000000000116,874.7999999996391,874.7999999996391,866.7000000000116,874.7999999996391,1.0,0.0,0.0,,Click Response,1_count,3.0,object-46,temp_dist_trial,47.0,s_sh_07_1,student_shared,ruler,9.0,competing,single,s_sh_07_1.jpg,Student,$${counterbalance_group},,sub-96
Desktop or Laptop,Mac OS 10.15.7,Chrome 138.0.0.0,1710x1107,1710x981,Temporal Distance Task,cb_09,48.0,temp_dist_trial,num_items,zn7si1,1.0,response,1_ITEM,1104.1999999996333,1100.1000000000058,1104.1999999996333,1104.1999999996333,1100.1000000000058,1104.1999999996333,1.0,0.0,0.0,,Click Response,1_count,3.0,object-46,temp_dist_trial,48.0,s_sh_05_1,student_shared,laptop,9.0,competing,single,s_sh_05_1.jpg,Student,$${counterbalance_group},,sub-96
Desktop or Laptop,Mac OS 10.15.7,Chrome 138.0.0.0,1710x1107,1710x981,Temporal Distance Task,cb_09,2.0,temp_eventStart,Screen 1,dgtyxe,1.0,continue,,1340.3000000001919,1333.3999999999942,1340.3000000001919,1340.3000000001919,1333.3999999999942,1340.3000000001919,1.0,0.0,0.0,,Click To Continue,Next Button,3.0,object-43,temp_eventStart,,,Travel,,,,,,,$${counterbalance_group},,sub-96
Desktop or Laptop,Mac OS 10.15.7,Chrome 138.0.0.0,1710x1107,1710x981,Temporal Distance Task,cb_09,49.0,temp_dist_trial,num_items,zn7si1,1.0,response,1_ITEM,1504.7999999996387,1500.0,1504.7999999996387,1504.7999999996387,1500.0,1504.7999999996387,1.0,0.0,0.0,,Click Response,1_count,3.0,object-46,temp_dist_trial,1.0,t_i_01_1,travel_Iceland,gloves,9.0,unique,single,t_i_01_1.jpg,Travel,$${counterbalance_group},,sub-96
Desktop or Laptop,Mac OS 10.15.7,Chrome 138.0.0.0,1710x1107,1710x981,Temporal Distance Task,cb_09,50.0,temp_dist_trial,num_items,zn7si1,1.0,response,2_ITEM,1342.1000000003842,1333.3000000000175,1342.1000000003842,1342.1000000003842,1333.3000000000175,1342.1000000003842,1.0,0.0,0.0,,Click Response,2_count,5.0,object-49,temp_dist_trial,2.0,t_s_08_1,travel_shared,hand lotion,9.0,competing,single,t_s_08_1.jpg,Travel,$${counterbalance_group},,sub-96
Desktop or Laptop,Mac OS 10.15.7,Chrome 138.0.0.0,1710x1107,1710x981,Temporal Distance Task,cb_09,50.0,temp_dist_trial,dist_items,qkpkxw,2.0,info,,7.599999999627472,0.0,7.599999999627472,7.599999999627472,0.0,7.599999999627472,1.0,0.0,0.0,,Slider,Slider,4.0,object-56,temp_dist_trial,2.0,t_s_08_1,travel_shared,hand lotion,9.0,competing,single,t_s_08_1.jpg,Travel,$${counterbalance_group},,sub-96
Desktop or Laptop,Mac OS 10.15.7,Chrome 138.0.0.0,1710x1107,1710x981,Temporal Distance Task,cb_09,50.0,temp_dist_trial,dist_items,qkpkxw,2.0,continue,,2089.2000000001863,2083.3999999999937,2089.2000000001863,2089.2000000001863,2083.3999999999937,2089.2000000001863,1.0,0.0,0.0,,Click To Continue,Next button,7.0,object-60,temp_dist_trial,2.0,t_s_08_1,travel_shared,hand lotion,9.0,competing,single,t_s_08_1.jpg,Travel,$${counterbalance_group},,sub-96
Desktop or Laptop,Mac OS 10.15.7,Chrome 138.0.0.0,1710x1107,1710x981,Temporal Distance Task,cb_09,50.0,temp_dist_trial,dist_items,qkpkxw,2.0,response,41,933.3999999999942,2083.3999999999937,2090.0999999996275,933.3999999999942,2083.3999999999937,2090.0999999996275,1.0,1156.6999999996333,0.0,,Slider,Slider,4.0,object-56,temp_dist_trial,2.0,t_s_08_1,travel_shared,hand lotion,9.0,competing,single,t_s_08_1.jpg,Travel,$${counterbalance_group},,sub-96
Desktop or Laptop,Mac OS 10.15.7,Chrome 138.0.0.0,1710x1107,1710x981,Temporal Distance Task,cb_09,51.0,temp_dist_trial,num_items,zn7si1,1.0,response,2_ITEM,1655.3000000001919,1650.0,1655.3000000001919,1655.3000000001919,1650.0,1655.3000000001919,1.0,0.0,0.0,,Click Response,2_count,5.0,object-49,temp_dist_trial,3.0,t_s_24_1,travel_shared,ear plugs,9.0,competing,paired,t_s_24_1.jpg,Travel,$${counterbalance_group},,sub-96
Desktop or Laptop,Mac OS 10.15.7,Chrome 138.0.0.0,1710x1107,1710x981,Temporal Distance Task,cb_09,51.0,temp_dist_trial,dist_items,qkpkxw,2.0,info,,7.599999999627472,0.0,7.599999999627472,7.599999999627472,0.0,7.599999999627472,1.0,0.0,0.0,,Slider,Slider,4.0,object-56,temp_dist_trial,3.0,t_s_24_1,travel_shared,ear plugs,9.0,competing,paired,t_s_24_1.jpg,Travel,$${counterbalance_group},,sub-96
Desktop or Laptop,Mac OS 10.15.7,Chrome 138.0.0.0,1710x1107,1710x981,Temporal Distance Task,cb_09,51.0,temp_dist_trial,dist_items,qkpkxw,2.0,continue,,2431.5,2416.6000000000063,2431.5,2431.5,2416.6000000000063,2431.5,1.0,0.0,0.0,,Click To Continue,Next button,7.0,object-60,temp_dist_trial,3.0,t_s_24_1,travel_shared,ear plugs,9.0,competing,paired,t_s_24_1.jpg,Travel,$${counterbalance_group},,sub-96
Desktop or Laptop,Mac OS 10.15.7,Chrome 138.0.0.0,1710x1107,1710x981,Temporal Distance Task,cb_09,51.0,temp_dist_trial,dist_items,qkpkxw,2.0,response,63,816.7000000000116,2416.6000000000063,2432.0999999996275,816.7000000000116,2416.6000000000063,2432.0999999996275,1.0,1615.3999999996158,0.0,,Slider,Slider,4.0,object-56,temp_dist_trial,3.0,t_s_24_1,travel_shared,ear plugs,9.0,competing,paired,t_s_24_1.jpg,Travel,$${counterbalance_group},,sub-96
Desktop or Laptop,Mac OS 10.15.7,Chrome 138.0.0.0,1710x1107,1710x981,Temporal Distance Task,cb_09,52.0,temp_dist_trial,num_items,zn7si1,1.0,response,1_ITEM,2602.6000000001804,2600.0,2602.6000000001804,2602.6000000001804,2600.0,2602.6000000001804,1.0,0.0,0.0,,Click Response,1_count,3.0,object-46,temp_dist_trial,4.0,t_m_13_1,travel_Miami,floatie,9.0,unique,single,t_m_13_1.jpg,Travel,$${counterbalance_group},,sub-96
Desktop or Laptop,Mac OS 10.15.7,Chrome 138.0.0.0,1710x1107,1710x981,Temporal Distance Task,cb_09,53.0,temp_dist_trial,num_items,zn7si1,1.0,response,1_ITEM,1459.1999999998081,1450.0,1459.1999999998081,1459.1999999998081,1450.0,1459.1999999998081,1.0,0.0,0.0,,Click Response,1_count,3.0,object-46,temp_dist_trial,5.0,t_i_20_1,travel_Iceland,lantern,9.0,unique,paired,t_i_20_1.jpg,Travel,$${counterbalance_group},,sub-96
Desktop or Laptop,Mac OS 10.15.7,Chrome 138.0.0.0,1710x1107,1710x981,Temporal Distance Task,cb_09,54.0,temp_dist_trial,num_items,zn7si1,1.0,response,2_ITEM,1371.7000000001865,1366.7999999999886,1371.7000000001865,1371.7000000001865,1366.7999999999886,1371.7000000001865,1.0,0.0,0.0,,Click Response,2_count,5.0,object-49,temp_dist_trial,6.0,t_s_12_1,travel_shared,clear toiletry bag,9.0,competing,paired,t_s_12_1.jpg,Travel,$${counterbalance_group},,sub-96
Desktop or Laptop,Mac OS 10.15.7,Chrome 138.0.0.0,1710x1107,1710x981,Temporal Distance Task,cb_09,54.0,temp_dist_trial,dist_items,qkpkxw,2.0,info,,7.6000000003841715,0.0,7.6000000003841715,7.6000000003841715,0.0,7.6000000003841715,1.0,0.0,0.0,,Slider,Slider,4.0,object-56,temp_dist_trial,6.0,t_s_12_1,travel_shared,clear toiletry bag,9.0,competing,paired,t_s_12_1.jpg,Travel,$${counterbalance_group},,sub-96
Desktop or Laptop,Mac OS 10.15.7,Chrome 138.0.0.0,1710x1107,1710x981,Temporal Distance Task,cb_09,54.0,temp_dist_trial,dist_items,qkpkxw,2.0,continue,,4959.9999999998245,4949.900000000023,4959.9999999998245,4959.9999999998245,4949.900000000023,4959.9999999998245,1.0,0.0,0.0,,Click To Continue,Next button,7.0,object-60,temp_dist_trial,6.0,t_s_12_1,travel_shared,clear toiletry bag,9.0,competing,paired,t_s_12_1.jpg,Travel,$${counterbalance_group},,sub-96
Desktop or Laptop,Mac OS 10.15.7,Chrome 138.0.0.0,1710x1107,1710x981,Temporal Distance Task,cb_09,54.0,temp_dist_trial,dist_items,qkpkxw,2.0,response,11,766.7000000000116,4949.900000000023,4963.9999999998245,766.7000000000116,4949.900000000023,4963.9999999998245,1.0,4197.299999999814,0.0,,Slider,Slider,4.0,object-56,temp_dist_trial,6.0,t_s_12_1,travel_shared,clear toiletry bag,9.0,competing,paired,t_s_12_1.jpg,Travel,$${counterbalance_group},,sub-96
Desktop or Laptop,Mac OS 10.15.7,Chrome 138.0.0.0,1710x1107,1710x981,Temporal Distance Task,cb_09,55.0,temp_dist_trial,num_items,zn7si1,1.0,response,1_ITEM,1950.0000000001746,1933.3999999999944,1950.0000000001746,1950.0000000001746,1933.3999999999944,1950.0000000001746,1.0,0.0,0.0,,Click Response,1_count,3.0,object-46,temp_dist_trial,7.0,t_m_11_1,travel_Miami,collapsible beach chair,9.0,unique,single,t_m_11_1.jpg,Travel,$${counterbalance_group},,sub-96
Desktop or Laptop,Mac OS 10.15.7,Chrome 138.0.0.0,1710x1107,1710x981,Temporal Distance Task,cb_09,56.0,temp_dist_trial,num_items,zn7si1,1.0,response,1_ITEM,2653.6000000001804,2650.0,2653.6000000001804,2653.6000000001804,2650.0,2653.6000000001804,1.0,0.0,0.0,,Click Response,1_count,3.0,object-46,temp_dist_trial,8.0,t_m_18_1,travel_Miami,waterproof tote,9.0,unique,paired,t_m_18_1.jpg,Travel,$${counterbalance_group},,sub-96
Desktop or Laptop,Mac OS 10.15.7,Chrome 138.0.0.0,1710x1107,1710x981,Temporal Distance Task,cb_09,57.0,temp_dist_trial,num_items,zn7si1,1.0,response,2_ITEM,1714.8000000003667,1700.0,1714.8000000003667,1714.8000000003667,1700.0,1714.8000000003667,1.0,0.0,0.0,,Click Response,2_count,5.0,object-49,temp_dist_trial,9.0,t_s_15_1,travel_shared,luggage tag,9.0,competing,paired,t_s_15_1.jpg,Travel,$${counterbalance_group},,sub-96
Desktop or Laptop,Mac OS 10.15.7,Chrome 138.0.0.0,1710x1107,1710x981,Temporal Distance Task,cb_09,57.0,temp_dist_trial,dist_items,qkpkxw,2.0,info,,7.2000000001862645,0.0,7.2000000001862645,7.2000000001862645,0.0,7.2000000001862645,1.0,0.0,0.0,,Slider,Slider,4.0,object-56,temp_dist_trial,9.0,t_s_15_1,travel_shared,luggage tag,9.0,competing,paired,t_s_15_1.jpg,Travel,$${counterbalance_group},,sub-96
Desktop or Laptop,Mac OS 10.15.7,Chrome 138.0.0.0,1710x1107,1710x981,Temporal Distance Task,cb_09,57.0,temp_dist_trial,dist_items,qkpkxw,2.0,continue,,1849.0,1833.3999999999944,1849.0,1849.0,1833.3999999999944,1849.0,1.0,0.0,0.0,,Click To Continue,Next button,7.0,object-60,temp_dist_trial,9.0,t_s_15_1,travel_shared,luggage tag,9.0,competing,paired,t_s_15_1.jpg,Travel,$${counterbalance_group},,sub-96
Desktop or Laptop,Mac OS 10.15.7,Chrome 138.0.0.0,1710x1107,1710x981,Temporal Distance Task,cb_09,57.0,temp_dist_trial,dist_items,qkpkxw,2.0,response,31,716.7000000000116,1833.3999999999944,1849.7000000001865,716.7000000000116,1833.3999999999944,1849.7000000001865,1.0,1133.0000000001746,0.0,,Slider,Slider,4.0,object-56,temp_dist_trial,9.0,t_s_15_1,travel_shared,luggage tag,9.0,competing,paired,t_s_15_1.jpg,Travel,$${counterbalance_group},,sub-96
Desktop or Laptop,Mac OS 10.15.7,Chrome 138.0.0.0,1710x1107,1710x981,Temporal Distance Task,cb_09,58.0,temp_dist_trial,num_items,zn7si1,1.0,response,2_ITEM,2779.1999999996333,2766.700000000012,2779.1999999996333,2779.1999999996333,2766.700000000012,2779.1999999996333,1.0,0.0,0.0,,Click Response,2_count,5.0,object-49,temp_dist_trial,10.0,t_i_04_1,travel_Iceland,portable camping stove,9.0,unique,paired,t_i_04_1.jpg,Travel,$${counterbalance_group},,sub-96
Desktop or Laptop,Mac OS 10.15.7,Chrome 138.0.0.0,1710x1107,1710x981,Temporal Distance Task,cb_09,58.0,temp_dist_trial,dist_items,qkpkxw,2.0,info,,5.100000000180444,0.0,5.100000000180444,5.100000000180444,0.0,5.100000000180444,1.0,0.0,0.0,,Slider,Slider,4.0,object-56,temp_dist_trial,10.0,t_i_04_1,travel_Iceland,portable camping stove,9.0,unique,paired,t_i_04_1.jpg,Travel,$${counterbalance_group},,sub-96
Desktop or Laptop,Mac OS 10.15.7,Chrome 138.0.0.0,1710x1107,1710x981,Temporal Distance Task,cb_09,58.0,temp_dist_trial,dist_items,qkpkxw,2.0,continue,,1868.6999999998081,1866.6000000000056,1868.6999999998081,1868.6999999998081,1866.6000000000056,1868.6999999998081,1.0,0.0,0.0,,Click To Continue,Next button,7.0,object-60,temp_dist_trial,10.0,t_i_04_1,travel_Iceland,portable camping stove,9.0,unique,paired,t_i_04_1.jpg,Travel,$${counterbalance_group},,sub-96
Desktop or Laptop,Mac OS 10.15.7,Chrome 138.0.0.0,1710x1107,1710x981,Temporal Distance Task,cb_09,58.0,temp_dist_trial,dist_items,qkpkxw,2.0,response,35,733.2999999999884,1866.6000000000056,1869.1999999998081,733.2999999999884,1866.6000000000056,1869.1999999998081,1.0,1135.8999999998196,0.0,,Slider,Slider,4.0,object-56,temp_dist_trial,10.0,t_i_04_1,travel_Iceland,portable camping stove,9.0,unique,paired,t_i_04_1.jpg,Travel,$${counterbalance_group},,sub-96
Desktop or Laptop,Mac OS 10.15.7,Chrome 138.0.0.0,1710x1107,1710x981,Temporal Distance Task,cb_09,59.0,temp_dist_trial,num_items,zn7si1,1.0,response,2_ITEM,2230.7999999999884,2216.6999999999825,2230.7999999999884,2230.7999999999884,2216.6999999999825,2230.7999999999884,1.0,0.0,0.0,,Click Response,2_count,5.0,object-49,temp_dist_trial,11.0,t_m_05_1,travel_Miami,sunscreen,9.0,unique,single,t_m_05_1.jpg,Travel,$${counterbalance_group},,sub-96
Desktop or Laptop,Mac OS 10.15.7,Chrome 138.0.0.0,1710x1107,1710x981,Temporal Distance Task,cb_09,59.0,temp_dist_trial,dist_items,qkpkxw,2.0,info,,7.600000000005821,0.0,7.600000000005821,7.600000000005821,0.0,7.600000000005821,1.0,0.0,0.0,,Slider,Slider,4.0,object-56,temp_dist_trial,11.0,t_m_05_1,travel_Miami,sunscreen,9.0,unique,single,t_m_05_1.jpg,Travel,$${counterbalance_group},,sub-96
Desktop or Laptop,Mac OS 10.15.7,Chrome 138.0.0.0,1710x1107,1710x981,Temporal Distance Task,cb_09,59.0,temp_dist_trial,dist_items,qkpkxw,2.0,continue,,1901.6000000000056,1900.0,1901.6000000000056,1901.6000000000056,1900.0,1901.6000000000056,1.0,0.0,0.0,,Click To Continue,Next button,7.0,object-60,temp_dist_trial,11.0,t_m_05_1,travel_Miami,sunscreen,9.0,unique,single,t_m_05_1.jpg,Travel,$${counterbalance_group},,sub-96
Desktop or Laptop,Mac OS 10.15.7,Chrome 138.0.0.0,1710x1107,1710x981,Temporal Distance Task,cb_09,59.0,temp_dist_trial,dist_items,qkpkxw,2.0,response,39,833.3000000000177,1900.0,1902.1000000000056,833.3000000000177,1900.0,1902.1000000000056,1.0,1068.7999999999884,0.0,,Slider,Slider,4.0,object-56,temp_dist_trial,11.0,t_m_05_1,travel_Miami,sunscreen,9.0,unique,single,t_m_05_1.jpg,Travel,$${counterbalance_group},,sub-96
Desktop or Laptop,Mac OS 10.15.7,Chrome 138.0.0.0,1710x1107,1710x981,Temporal Distance Task,cb_09,60.0,temp_dist_trial,num_items,zn7si1,1.0,response,2_ITEM,2005.3000000001919,2000.0,2005.3000000001919,2005.3000000001919,2000.0,2005.3000000001919,1.0,0.0,0.0,,Click Response,2_count,5.0,object-49,temp_dist_trial,12.0,t_s_17_1,travel_shared,toothbrush,9.0,competing,single,t_s_17_1.jpg,Travel,$${counterbalance_group},,sub-96
Desktop or Laptop,Mac OS 10.15.7,Chrome 138.0.0.0,1710x1107,1710x981,Temporal Distance Task,cb_09,60.0,temp_dist_trial,dist_items,qkpkxw,2.0,info,,5.899999999819556,0.0,5.899999999819556,5.899999999819556,0.0,5.899999999819556,1.0,0.0,0.0,,Slider,Slider,4.0,object-56,temp_dist_trial,12.0,t_s_17_1,travel_shared,toothbrush,9.0,competing,single,t_s_17_1.jpg,Travel,$${counterbalance_group},,sub-96
Desktop or Laptop,Mac OS 10.15.7,Chrome 138.0.0.0,1710x1107,1710x981,Temporal Distance Task,cb_09,60.0,temp_dist_trial,dist_items,qkpkxw,2.0,continue,,1741.8000000001919,1733.3999999999942,1741.8000000001919,1741.8000000001919,1733.3999999999942,1741.8000000001919,1.0,0.0,0.0,,Click To Continue,Next button,7.0,object-60,temp_dist_trial,12.0,t_s_17_1,travel_shared,toothbrush,9.0,competing,single,t_s_17_1.jpg,Travel,$${counterbalance_group},,sub-96
Desktop or Laptop,Mac OS 10.15.7,Chrome 138.0.0.0,1710x1107,1710x981,Temporal Distance Task,cb_09,60.0,temp_dist_trial,dist_items,qkpkxw,2.0,response,41,766.6000000000058,1733.3999999999942,1746.3000000001919,766.6000000000058,1733.3999999999942,1746.3000000001919,1.0,979.7000000001863,0.0,,Slider,Slider,4.0,object-56,temp_dist_trial,12.0,t_s_17_1,travel_shared,toothbrush,9.0,competing,single,t_s_17_1.jpg,Travel,$${counterbalance_group},,sub-96
Desktop or Laptop,Mac OS 10.15.7,Chrome 138.0.0.0,1710x1107,1710x981,Temporal Distance Task,cb_09,61.0,temp_dist_trial,num_items,zn7si1,1.0,response,1_ITEM,1979.9000000001981,1966.6000000000056,1979.9000000001981,1979.9000000001981,1966.6000000000056,1979.9000000001981,1.0,0.0,0.0,,Click Response,1_count,3.0,object-46,temp_dist_trial,13.0,t_s_18_1,travel_shared,first aid kit,9.0,competing,single,t_s_18_1.jpg,Travel,$${counterbalance_group},,sub-96
Desktop or Laptop,Mac OS 10.15.7,Chrome 138.0.0.0,1710x1107,1710x981,Temporal Distance Task,cb_09,62.0,temp_dist_trial,num_items,zn7si1,1.0,response,1_ITEM,1061.0000000003783,1050.0,1061.0000000003783,1061.0000000003783,1050.0,1061.0000000003783,1.0,0.0,0.0,,Click Response,1_count,3.0,object-46,temp_dist_trial,14.0,t_s_10_1,travel_shared,luggage lock,9.0,competing,paired,t_s_10_1.jpg,Travel,$${counterbalance_group},,sub-96
Desktop or Laptop,Mac OS 10.15.7,Chrome 138.0.0.0,1710x1107,1710x981,Temporal Distance Task,cb_09,63.0,temp_dist_trial,num_items,zn7si1,1.0,response,1_ITEM,1629.4000000003725,1617.0,1629.4000000003725,1629.4000000003725,1617.0,1629.4000000003725,1.0,0.0,0.0,,Click Response,1_count,3.0,object-46,temp_dist_trial,15.0,t_i_08_1,travel_Iceland,thick socks,9.0,unique,paired,t_i_08_1.jpg,Travel,$${counterbalance_group},,sub-96
Desktop or Laptop,Mac OS 10.15.7,Chrome 138.0.0.0,1710x1107,1710x981,Temporal Distance Task,cb_09,64.0,temp_dist_trial,num_items,zn7si1,1.0,response,2_ITEM,1605.9000000003725,1601.1000000000058,1605.9000000003725,1605.9000000003725,1601.1000000000058,1605.9000000003725,1.0,0.0,0.0,,Click Response,2_count,5.0,object-49,temp_dist_trial,16.0,t_s_04_1,travel_shared,instant camera,9.0,competing,paired,t_s_04_1.jpg,Travel,$${counterbalance_group},,sub-96
Desktop or Laptop,Mac OS 10.15.7,Chrome 138.0.0.0,1710x1107,1710x981,Temporal Distance Task,cb_09,64.0,temp_dist_trial,dist_items,qkpkxw,2.0,info,,7.900000000372528,0.0,7.900000000372528,7.900000000372528,0.0,7.900000000372528,1.0,0.0,0.0,,Slider,Slider,4.0,object-56,temp_dist_trial,16.0,t_s_04_1,travel_shared,instant camera,9.0,competing,paired,t_s_04_1.jpg,Travel,$${counterbalance_group},,sub-96
Desktop or Laptop,Mac OS 10.15.7,Chrome 138.0.0.0,1710x1107,1710x981,Temporal Distance Task,cb_09,64.0,temp_dist_trial,dist_items,qkpkxw,2.0,continue,,1757.4000000003725,1750.0,1757.4000000003725,1757.4000000003725,1750.0,1757.4000000003725,1.0,0.0,0.0,,Click To Continue,Next button,7.0,object-60,temp_dist_trial,16.0,t_s_04_1,travel_shared,instant camera,9.0,competing,paired,t_s_04_1.jpg,Travel,$${counterbalance_group},,sub-96
Desktop or Laptop,Mac OS 10.15.7,Chrome 138.0.0.0,1710x1107,1710x981,Temporal Distance Task,cb_09,64.0,temp_dist_trial,dist_items,qkpkxw,2.0,response,32,716.7000000000116,1750.0,1757.9000000003725,716.7000000000116,1750.0,1757.9000000003725,1.0,1041.2000000003611,0.0,,Slider,Slider,4.0,object-56,temp_dist_trial,16.0,t_s_04_1,travel_shared,instant camera,9.0,competing,paired,t_s_04_1.jpg,Travel,$${counterbalance_group},,sub-96
Desktop or Laptop,Mac OS 10.15.7,Chrome 138.0.0.0,1710x1107,1710x981,Temporal Distance Task,cb_09,65.0,temp_dist_trial,num_items,zn7si1,1.0,response,1_ITEM,1384.9000000003725,1383.3999999999942,1384.9000000003725,1384.9000000003725,1383.3999999999942,1384.9000000003725,1.0,0.0,0.0,,Click Response,1_count,3.0,object-46,temp_dist_trial,17.0,t_m_15_1,travel_Miami,shorts,9.0,unique,paired,t_m_15_1.jpg,Travel,$${counterbalance_group},,sub-96
Desktop or Laptop,Mac OS 10.15.7,Chrome 138.0.0.0,1710x1107,1710x981,Temporal Distance Task,cb_09,66.0,temp_dist_trial,num_items,zn7si1,1.0,response,1_ITEM,1297.6000000000058,1283.3000000000175,1297.6000000000058,1297.6000000000058,1283.3000000000175,1297.6000000000058,1.0,0.0,0.0,,Click Response,1_count,3.0,object-46,temp_dist_trial,18.0,t_m_09_1,travel_Miami,beach towel,9.0,unique,single,t_m_09_1.jpg,Travel,$${counterbalance_group},,sub-96
Desktop or Laptop,Mac OS 10.15.7,Chrome 138.0.0.0,1710x1107,1710x981,Temporal Distance Task,cb_09,67.0,temp_dist_trial,num_items,zn7si1,1.0,response,1_ITEM,2234.700000000361,2233.2999999999884,2234.700000000361,2234.700000000361,2233.2999999999884,2234.700000000361,1.0,0.0,0.0,,Click Response,1_count,3.0,object-46,temp_dist_trial,19.0,t_i_18_1,travel_Iceland,ski mask,9.0,unique,paired,t_i_18_1.jpg,Travel,$${counterbalance_group},,sub-96
Desktop or Laptop,Mac OS 10.15.7,Chrome 138.0.0.0,1710x1107,1710x981,Temporal Distance Task,cb_09,68.0,temp_dist_trial,num_items,zn7si1,1.0,response,num_miss,2999.8999999999933,2999.8999999999933,2999.8999999999933,2999.8999999999933,2999.8999999999933,2999.8999999999933,1.0,0.0,0.0,num_miss_tag,Time Limit,screen,0.0,screen,temp_dist_trial,20.0,t_s_06_1,travel_shared,luggage,9.0,competing,paired,t_s_06_1.jpg,Travel,$${counterbalance_group},,sub-96
Desktop or Laptop,Mac OS 10.15.7,Chrome 138.0.0.0,1710x1107,1710x981,Temporal Distance Task,cb_09,69.0,temp_dist_trial,num_items,zn7si1,1.0,response,2_ITEM,2622.5000000003783,2617.5,2622.5000000003783,2622.5000000003783,2617.5,2622.5000000003783,1.0,0.0,0.0,,Click Response,2_count,5.0,object-49,temp_dist_trial,21.0,t_s_19_1,travel_shared,pajamas,9.0,competing,paired,t_s_19_1.jpg,Travel,$${counterbalance_group},,sub-96
Desktop or Laptop,Mac OS 10.15.7,Chrome 138.0.0.0,1710x1107,1710x981,Temporal Distance Task,cb_09,69.0,temp_dist_trial,dist_items,qkpkxw,2.0,info,,7.0,0.0,7.0,7.0,0.0,7.0,1.0,0.0,0.0,,Slider,Slider,4.0,object-56,temp_dist_trial,21.0,t_s_19_1,travel_shared,pajamas,9.0,competing,paired,t_s_19_1.jpg,Travel,$${counterbalance_group},,sub-96
Desktop or Laptop,Mac OS 10.15.7,Chrome 138.0.0.0,1710x1107,1710x981,Temporal Distance Task,cb_09,69.0,temp_dist_trial,dist_items,qkpkxw,2.0,continue,,2816.6000000000067,2800.0,2816.6000000000067,2816.6000000000067,2800.0,2816.6000000000067,1.0,0.0,0.0,,Click To Continue,Next button,7.0,object-60,temp_dist_trial,21.0,t_s_19_1,travel_shared,pajamas,9.0,competing,paired,t_s_19_1.jpg,Travel,$${counterbalance_group},,sub-96
Desktop or Laptop,Mac OS 10.15.7,Chrome 138.0.0.0,1710x1107,1710x981,Temporal Distance Task,cb_09,69.0,temp_dist_trial,dist_items,qkpkxw,2.0,response,32,1215.7000000000114,2800.0,2816.6000000000067,1215.7000000000114,2800.0,2816.6000000000067,1.0,1600.8999999999942,0.0,,Slider,Slider,4.0,object-56,temp_dist_trial,21.0,t_s_19_1,travel_shared,pajamas,9.0,competing,paired,t_s_19_1.jpg,Travel,$${counterbalance_group},,sub-96
Desktop or Laptop,Mac OS 10.15.7,Chrome 138.0.0.0,1710x1107,1710x981,Temporal Distance Task,cb_09,70.0,temp_dist_trial,num_items,zn7si1,1.0,response,1_ITEM,1649.8999999999646,1633.2999999999884,1649.8999999999646,1649.8999999999646,1633.2999999999884,1649.8999999999646,1.0,0.0,0.0,,Click Response,1_count,3.0,object-46,temp_dist_trial,22.0,t_s_01_1,travel_shared,fanny pack,9.0,competing,paired,t_s_01_1.jpg,Travel,$${counterbalance_group},,sub-96
Desktop or Laptop,Mac OS 10.15.7,Chrome 138.0.0.0,1710x1107,1710x981,Temporal Distance Task,cb_09,71.0,temp_dist_trial,num_items,zn7si1,1.0,response,1_ITEM,1194.0000000003786,1183.3000000000175,1194.0000000003786,1194.0000000003786,1183.3000000000175,1194.0000000003786,1.0,0.0,0.0,,Click Response,1_count,3.0,object-46,temp_dist_trial,23.0,t_s_23_1,travel_shared,ball cap,9.0,competing,paired,t_s_23_1.jpg,Travel,$${counterbalance_group},,sub-96
Desktop or Laptop,Mac OS 10.15.7,Chrome 138.0.0.0,1710x1107,1710x981,Temporal Distance Task,cb_09,72.0,temp_dist_trial,num_items,zn7si1,1.0,response,2_ITEM,1466.2999999999884,1449.8999999999942,1466.2999999999884,1466.2999999999884,1449.8999999999942,1466.2999999999884,1.0,0.0,0.0,,Click Response,2_count,5.0,object-49,temp_dist_trial,24.0,t_s_16_1,travel_shared,chapstick,9.0,competing,paired,t_s_16_1.jpg,Travel,$${counterbalance_group},,sub-96
Desktop or Laptop,Mac OS 10.15.7,Chrome 138.0.0.0,1710x1107,1710x981,Temporal Distance Task,cb_09,72.0,temp_dist_trial,dist_items,qkpkxw,2.0,info,,9.39999999961583,0.0,9.39999999961583,9.39999999961583,0.0,9.39999999961583,1.0,0.0,0.0,,Slider,Slider,4.0,object-56,temp_dist_trial,24.0,t_s_16_1,travel_shared,chapstick,9.0,competing,paired,t_s_16_1.jpg,Travel,$${counterbalance_group},,sub-96
Desktop or Laptop,Mac OS 10.15.7,Chrome 138.0.0.0,1710x1107,1710x981,Temporal Distance Task,cb_09,72.0,temp_dist_trial,dist_items,qkpkxw,2.0,continue,,1850.8999999999944,1834.2999999999884,1850.8999999999944,1850.8999999999944,1834.2999999999884,1850.8999999999944,1.0,0.0,0.0,,Click To Continue,Next button,7.0,object-60,temp_dist_trial,24.0,t_s_16_1,travel_shared,chapstick,9.0,competing,paired,t_s_16_1.jpg,Travel,$${counterbalance_group},,sub-96
Desktop or Laptop,Mac OS 10.15.7,Chrome 138.0.0.0,1710x1107,1710x981,Temporal Distance Task,cb_09,72.0,temp_dist_trial,dist_items,qkpkxw,2.0,response,34,767.5999999999768,1834.2999999999884,1850.8999999999944,767.5999999999768,1834.2999999999884,1850.8999999999944,1.0,1083.3000000000177,0.0,,Slider,Slider,4.0,object-56,temp_dist_trial,24.0,t_s_16_1,travel_shared,chapstick,9.0,competing,paired,t_s_16_1.jpg,Travel,$${counterbalance_group},,sub-96
Desktop or Laptop,Mac OS 10.15.7,Chrome 138.0.0.0,1710x1107,1710x981,Temporal Distance Task,cb_09,73.0,temp_dist_trial,num_items,zn7si1,1.0,response,1_ITEM,1866.7000000001865,1850.0,1866.7000000001865,1866.7000000001865,1850.0,1866.7000000001865,1.0,0.0,0.0,,Click Response,1_count,3.0,object-46,temp_dist_trial,25.0,t_m_16_1,travel_Miami,flippers,9.0,unique,paired,t_m_16_1.jpg,Travel,$${counterbalance_group},,sub-96
Desktop or Laptop,Mac OS 10.15.7,Chrome 138.0.0.0,1710x1107,1710x981,Temporal Distance Task,cb_09,74.0,temp_dist_trial,num_items,zn7si1,1.0,response,1_ITEM,841.4000000003723,833.2999999999884,841.4000000003723,841.4000000003723,833.2999999999884,841.4000000003723,1.0,0.0,0.0,,Click Response,1_count,3.0,object-46,temp_dist_trial,26.0,t_i_14_1,travel_Iceland,snow pants,9.0,unique,paired,t_i_14_1.jpg,Travel,$${counterbalance_group},,sub-96
Desktop or Laptop,Mac OS 10.15.7,Chrome 138.0.0.0,1710x1107,1710x981,Temporal Distance Task,cb_09,75.0,temp_dist_trial,num_items,zn7si1,1.0,response,1_ITEM,1794.1000000003842,1783.4000000000233,1794.1000000003842,1794.1000000003842,1783.4000000000233,1794.1000000003842,1.0,0.0,0.0,,Click Response,1_count,3.0,object-46,temp_dist_trial,27.0,t_s_20_1,travel_shared,travel pill case,9.0,competing,single,t_s_20_1.jpg,Travel,$${counterbalance_group},,sub-96
Desktop or Laptop,Mac OS 10.15.7,Chrome 138.0.0.0,1710x1107,1710x981,Temporal Distance Task,cb_09,76.0,temp_dist_trial,num_items,zn7si1,1.0,response,1_ITEM,946.7000000003608,933.2999999999884,946.7000000003608,946.7000000003608,933.2999999999884,946.7000000003608,1.0,0.0,0.0,,Click Response,1_count,3.0,object-46,temp_dist_trial,28.0,t_s_07_1,travel_shared,phone charger cable,9.0,competing,single,t_s_07_1.jpg,Travel,$${counterbalance_group},,sub-96
Desktop or Laptop,Mac OS 10.15.7,Chrome 138.0.0.0,1710x1107,1710x981,Temporal Distance Task,cb_09,77.0,temp_dist_trial,num_items,zn7si1,1.0,response,1_ITEM,813.7000000001863,800.0,813.7000000001863,813.7000000001863,800.0,813.7000000001863,1.0,0.0,0.0,,Click Response,1_count,3.0,object-46,temp_dist_trial,29.0,t_i_10_1,travel_Iceland,trekking poles,9.0,unique,paired,t_i_10_1.jpg,Travel,$${counterbalance_group},,sub-96
Desktop or Laptop,Mac OS 10.15.7,Chrome 138.0.0.0,1710x1107,1710x981,Temporal Distance Task,cb_09,78.0,temp_dist_trial,num_items,zn7si1,1.0,response,1_ITEM,1125.7999999998137,1116.6000000000058,1125.7999999998137,1125.7999999998137,1116.6000000000058,1125.7999999998137,1.0,0.0,0.0,,Click Response,1_count,3.0,object-46,temp_dist_trial,30.0,t_s_03_1,travel_shared,portable charger,9.0,competing,paired,t_s_03_1.jpg,Travel,$${counterbalance_group},,sub-96
Desktop or Laptop,Mac OS 10.15.7,Chrome 138.0.0.0,1710x1107,1710x981,Temporal Distance Task,cb_09,79.0,temp_dist_trial,num_items,zn7si1,1.0,response,1_ITEM,784.8000000003668,783.3999999999942,784.8000000003668,784.8000000003668,783.3999999999942,784.8000000003668,1.0,0.0,0.0,,Click Response,1_count,3.0,object-46,temp_dist_trial,31.0,t_s_09_1,travel_shared,wallet,9.0,competing,paired,t_s_09_1.jpg,Travel,$${counterbalance_group},,sub-96
Desktop or Laptop,Mac OS 10.15.7,Chrome 138.0.0.0,1710x1107,1710x981,Temporal Distance Task,cb_09,80.0,temp_dist_trial,num_items,zn7si1,1.0,response,1_ITEM,1115.7000000001863,1100.0,1115.7000000001863,1115.7000000001863,1100.0,1115.7000000001863,1.0,0.0,0.0,,Click Response,1_count,3.0,object-46,temp_dist_trial,32.0,t_m_19_1,travel_Miami,surfboard,9.0,unique,paired,t_m_19_1.jpg,Travel,$${counterbalance_group},,sub-96
Desktop or Laptop,Mac OS 10.15.7,Chrome 138.0.0.0,1710x1107,1710x981,Temporal Distance Task,cb_09,81.0,temp_dist_trial,num_items,zn7si1,1.0,response,1_ITEM,1415.2999999998135,1399.8999999999942,1415.2999999998135,1415.2999999998135,1399.8999999999942,1415.2999999998135,1.0,0.0,0.0,,Click Response,1_count,3.0,object-46,temp_dist_trial,33.0,t_m_06_1,travel_Miami,handheld fan,9.0,unique,paired,t_m_06_1.jpg,Travel,$${counterbalance_group},,sub-96
Desktop or Laptop,Mac OS 10.15.7,Chrome 138.0.0.0,1710x1107,1710x981,Temporal Distance Task,cb_09,82.0,temp_dist_trial,num_items,zn7si1,1.0,response,1_ITEM,1089.5999999996277,1083.2999999999884,1089.5999999996277,1089.5999999996277,1083.2999999999884,1089.5999999996277,1.0,0.0,0.0,,Click Response,1_count,3.0,object-46,temp_dist_trial,34.0,t_i_11_1,travel_Iceland,headlamp,9.0,unique,single,t_i_11_1.jpg,Travel,$${counterbalance_group},,sub-96
Desktop or Laptop,Mac OS 10.15.7,Chrome 138.0.0.0,1710x1107,1710x981,Temporal Distance Task,cb_09,83.0,temp_dist_trial,num_items,zn7si1,1.0,response,1_ITEM,1526.1999999996333,1516.6000000000058,1526.1999999996333,1526.1999999996333,1516.6000000000058,1526.1999999996333,1.0,0.0,0.0,,Click Response,1_count,3.0,object-46,temp_dist_trial,35.0,t_m_08_1,travel_Miami,flipflops,9.0,unique,paired,t_m_08_1.jpg,Travel,$${counterbalance_group},,sub-96
Desktop or Laptop,Mac OS 10.15.7,Chrome 138.0.0.0,1710x1107,1710x981,Temporal Distance Task,cb_09,84.0,temp_dist_trial,num_items,zn7si1,1.0,response,2_ITEM,1699.0000000003783,1683.3999999999942,1699.0000000003783,1699.0000000003783,1683.3999999999942,1699.0000000003783,1.0,0.0,0.0,,Click Response,2_count,5.0,object-49,temp_dist_trial,36.0,t_i_19_1,travel_Iceland,rope,9.0,unique,paired,t_i_19_1.jpg,Travel,$${counterbalance_group},,sub-96
Desktop or Laptop,Mac OS 10.15.7,Chrome 138.0.0.0,1710x1107,1710x981,Temporal Distance Task,cb_09,84.0,temp_dist_trial,dist_items,qkpkxw,2.0,info,,7.400000000197908,0.0,7.400000000197908,7.400000000197908,0.0,7.400000000197908,1.0,0.0,0.0,,Slider,Slider,4.0,object-56,temp_dist_trial,36.0,t_i_19_1,travel_Iceland,rope,9.0,unique,paired,t_i_19_1.jpg,Travel,$${counterbalance_group},,sub-96
Desktop or Laptop,Mac OS 10.15.7,Chrome 138.0.0.0,1710x1107,1710x981,Temporal Distance Task,cb_09,84.0,temp_dist_trial,dist_items,qkpkxw,2.0,continue,,1751.4999999998254,1750.1000000000354,1751.4999999998254,1751.4999999998254,1750.1000000000354,1751.4999999998254,1.0,0.0,0.0,,Click To Continue,Next button,7.0,object-60,temp_dist_trial,36.0,t_i_19_1,travel_Iceland,rope,9.0,unique,paired,t_i_19_1.jpg,Travel,$${counterbalance_group},,sub-96
Desktop or Laptop,Mac OS 10.15.7,Chrome 138.0.0.0,1710x1107,1710x981,Temporal Distance Task,cb_09,84.0,temp_dist_trial,dist_items,qkpkxw,2.0,response,39,749.5,1750.1000000000354,1752.1000000003842,749.5,1750.1000000000354,1752.1000000003842,1.0,1002.6000000003842,0.0,,Slider,Slider,4.0,object-56,temp_dist_trial,36.0,t_i_19_1,travel_Iceland,rope,9.0,unique,paired,t_i_19_1.jpg,Travel,$${counterbalance_group},,sub-96
Desktop or Laptop,Mac OS 10.15.7,Chrome 138.0.0.0,1710x1107,1710x981,Temporal Distance Task,cb_09,85.0,temp_dist_trial,num_items,zn7si1,1.0,response,1_ITEM,931.5000000003492,916.5999999999768,931.5000000003492,931.5000000003492,916.5999999999768,931.5000000003492,1.0,0.0,0.0,,Click Response,1_count,3.0,object-46,temp_dist_trial,37.0,t_s_05_1,travel_shared,neck pillow,9.0,competing,single,t_s_05_1.jpg,Travel,$${counterbalance_group},,sub-96
Desktop or Laptop,Mac OS 10.15.7,Chrome 138.0.0.0,1710x1107,1710x981,Temporal Distance Task,cb_09,86.0,temp_dist_trial,num_items,zn7si1,1.0,response,2_ITEM,1414.7000000001865,1400.0,1414.7000000001865,1414.7000000001865,1400.0,1414.7000000001865,1.0,0.0,0.0,,Click Response,2_count,5.0,object-49,temp_dist_trial,38.0,t_s_13_1,travel_shared,contact lens case,9.0,competing,paired,t_s_13_1.jpg,Travel,$${counterbalance_group},,sub-96
Desktop or Laptop,Mac OS 10.15.7,Chrome 138.0.0.0,1710x1107,1710x981,Temporal Distance Task,cb_09,86.0,temp_dist_trial,dist_items,qkpkxw,2.0,info,,8.199999999604186,0.0,8.199999999604186,8.199999999604186,0.0,8.199999999604186,1.0,0.0,0.0,,Slider,Slider,4.0,object-56,temp_dist_trial,38.0,t_s_13_1,travel_shared,contact lens case,9.0,competing,paired,t_s_13_1.jpg,Travel,$${counterbalance_group},,sub-96
Desktop or Laptop,Mac OS 10.15.7,Chrome 138.0.0.0,1710x1107,1710x981,Temporal Distance Task,cb_09,86.0,temp_dist_trial,dist_items,qkpkxw,2.0,continue,,1872.699999999604,1866.6999999999528,1872.699999999604,1872.699999999604,1866.6999999999528,1872.699999999604,1.0,0.0,0.0,,Click To Continue,Next button,7.0,object-60,temp_dist_trial,38.0,t_s_13_1,travel_shared,contact lens case,9.0,competing,paired,t_s_13_1.jpg,Travel,$${counterbalance_group},,sub-96
Desktop or Laptop,Mac OS 10.15.7,Chrome 138.0.0.0,1710x1107,1710x981,Temporal Distance Task,cb_09,86.0,temp_dist_trial,dist_items,qkpkxw,2.0,response,39,766.6999999999533,1866.6999999999528,1877.199999999604,766.6999999999533,1866.6999999999528,1877.199999999604,1.0,1110.4999999996508,0.0,,Slider,Slider,4.0,object-56,temp_dist_trial,38.0,t_s_13_1,travel_shared,contact lens case,9.0,competing,paired,t_s_13_1.jpg,Travel,$${counterbalance_group},,sub-96
Desktop or Laptop,Mac OS 10.15.7,Chrome 138.0.0.0,1710x1107,1710x981,Temporal Distance Task,cb_09,87.0,temp_dist_trial,num_items,zn7si1,1.0,response,1_ITEM,1752.1000000002093,1750.0,1752.1000000002093,1752.1000000002093,1750.0,1752.1000000002093,1.0,0.0,0.0,,Click Response,1_count,3.0,object-46,temp_dist_trial,39.0,t_s_21_1,travel_shared,umbrella,9.0,competing,paired,t_s_21_1.jpg,Travel,$${counterbalance_group},,sub-96
Desktop or Laptop,Mac OS 10.15.7,Chrome 138.0.0.0,1710x1107,1710x981,Temporal Distance Task,cb_09,88.0,temp_dist_trial,num_items,zn7si1,1.0,response,1_ITEM,930.5000000001744,915.5999999999768,930.5000000001744,930.5000000001744,915.5999999999768,930.5000000001744,1.0,0.0,0.0,,Click Response,1_count,3.0,object-46,temp_dist_trial,40.0,t_i_12_1,travel_Iceland,tent,9.0,unique,single,t_i_12_1.jpg,Travel,$${counterbalance_group},,sub-96
Desktop or Laptop,Mac OS 10.15.7,Chrome 138.0.0.0,1710x1107,1710x981,Temporal Distance Task,cb_09,89.0,temp_dist_trial,num_items,zn7si1,1.0,response,1_ITEM,1077.9999999998254,1066.600000000035,1077.9999999998254,1077.9999999998254,1066.600000000035,1077.9999999998254,1.0,0.0,0.0,,Click Response,1_count,3.0,object-46,temp_dist_trial,41.0,t_s_02_1,travel_shared,water bottle,9.0,competing,paired,t_s_02_1.jpg,Travel,$${counterbalance_group},,sub-96
Desktop or Laptop,Mac OS 10.15.7,Chrome 138.0.0.0,1710x1107,1710x981,Temporal Distance Task,cb_09,90.0,temp_dist_trial,num_items,zn7si1,1.0,response,2_ITEM,1491.000000000349,1483.3999999999646,1491.000000000349,1491.000000000349,1483.3999999999646,1491.000000000349,1.0,0.0,0.0,,Click Response,2_count,5.0,object-49,temp_dist_trial,42.0,t_s_14_1,travel_shared,hand sanitizer,9.0,competing,paired,t_s_14_1.jpg,Travel,$${counterbalance_group},,sub-96
Desktop or Laptop,Mac OS 10.15.7,Chrome 138.0.0.0,1710x1107,1710x981,Temporal Distance Task,cb_09,90.0,temp_dist_trial,dist_items,qkpkxw,2.0,info,,7.599999999976717,0.0,7.599999999976717,7.599999999976717,0.0,7.599999999976717,1.0,0.0,0.0,,Slider,Slider,4.0,object-56,temp_dist_trial,42.0,t_s_14_1,travel_shared,hand sanitizer,9.0,competing,paired,t_s_14_1.jpg,Travel,$${counterbalance_group},,sub-96
Desktop or Laptop,Mac OS 10.15.7,Chrome 138.0.0.0,1710x1107,1710x981,Temporal Distance Task,cb_09,90.0,temp_dist_trial,dist_items,qkpkxw,2.0,continue,,2377.3999999997905,2366.599999999977,2377.3999999997905,2377.3999999997905,2366.599999999977,2377.3999999997905,1.0,0.0,0.0,,Click To Continue,Next button,7.0,object-60,temp_dist_trial,42.0,t_s_14_1,travel_shared,hand sanitizer,9.0,competing,paired,t_s_14_1.jpg,Travel,$${counterbalance_group},,sub-96
Desktop or Laptop,Mac OS 10.15.7,Chrome 138.0.0.0,1710x1107,1710x981,Temporal Distance Task,cb_09,90.0,temp_dist_trial,dist_items,qkpkxw,2.0,response,35,1133.1999999999534,2366.599999999977,2378.1999999996037,1133.1999999999534,2366.599999999977,2378.1999999996037,1.0,1244.9999999996508,0.0,,Slider,Slider,4.0,object-56,temp_dist_trial,42.0,t_s_14_1,travel_shared,hand sanitizer,9.0,competing,paired,t_s_14_1.jpg,Travel,$${counterbalance_group},,sub-96
Desktop or Laptop,Mac OS 10.15.7,Chrome 138.0.0.0,1710x1107,1710x981,Temporal Distance Task,cb_09,91.0,temp_dist_trial,num_items,zn7si1,1.0,response,1_ITEM,979.0999999996277,966.7000000000116,979.0999999996277,979.0999999996277,966.7000000000116,979.0999999996277,1.0,0.0,0.0,,Click Response,1_count,3.0,object-46,temp_dist_trial,43.0,t_m_07_1,travel_Miami,sunglasses,9.0,unique,paired,t_m_07_1.jpg,Travel,$${counterbalance_group},,sub-96
Desktop or Laptop,Mac OS 10.15.7,Chrome 138.0.0.0,1710x1107,1710x981,Temporal Distance Task,cb_09,92.0,temp_dist_trial,num_items,zn7si1,1.0,response,1_ITEM,1142.7000000003611,1133.2999999999886,1142.7000000003611,1142.7000000003611,1133.2999999999886,1142.7000000003611,1.0,0.0,0.0,,Click Response,1_count,3.0,object-46,temp_dist_trial,44.0,t_i_16_1,travel_Iceland,skis,9.0,unique,paired,t_i_16_1.jpg,Travel,$${counterbalance_group},,sub-96
Desktop or Laptop,Mac OS 10.15.7,Chrome 138.0.0.0,1710x1107,1710x981,Temporal Distance Task,cb_09,93.0,temp_dist_trial,num_items,zn7si1,1.0,response,1_ITEM,800.0,783.2999999999884,800.0,800.0,783.2999999999884,800.0,1.0,0.0,0.0,,Click Response,1_count,3.0,object-46,temp_dist_trial,45.0,t_i_06_1,travel_Iceland,knit hat,9.0,unique,single,t_i_06_1.jpg,Travel,$${counterbalance_group},,sub-96
Desktop or Laptop,Mac OS 10.15.7,Chrome 138.0.0.0,1710x1107,1710x981,Temporal Distance Task,cb_09,94.0,temp_dist_trial,num_items,zn7si1,1.0,response,1_ITEM,847.8999999997905,833.2999999999884,847.8999999997905,847.8999999997905,833.2999999999884,847.8999999997905,1.0,0.0,0.0,,Click Response,1_count,3.0,object-46,temp_dist_trial,46.0,t_s_22_1,travel_shared,belt,9.0,competing,single,t_s_22_1.jpg,Travel,$${counterbalance_group},,sub-96
Desktop or Laptop,Mac OS 10.15.7,Chrome 138.0.0.0,1710x1107,1710x981,Temporal Distance Task,cb_09,95.0,temp_dist_trial,num_items,zn7si1,1.0,response,1_ITEM,806.6000000002095,800.0,806.6000000002095,806.6000000002095,800.0,806.6000000002095,1.0,0.0,0.0,,Click Response,1_count,3.0,object-46,temp_dist_trial,47.0,t_m_03_1,travel_Miami,wetsuit,9.0,unique,paired,t_m_03_1.jpg,Travel,$${counterbalance_group},,sub-96
Desktop or Laptop,Mac OS 10.15.7,Chrome 138.0.0.0,1710x1107,1710x981,Temporal Distance Task,cb_09,96.0,temp_dist_trial,num_items,zn7si1,1.0,response,1_ITEM,1006.7999999999884,1000.0,1006.7999999999884,1006.7999999999884,1000.0,1006.7999999999884,1.0,0.0,0.0,,Click Response,1_count,3.0,object-46,temp_dist_trial,48.0,t_s_11_1,travel_shared,eye mask,9.0,competing,single,t_s_11_1.jpg,Travel,$${counterbalance_group},,sub-96
Desktop or Laptop,Mac OS 10.15.7,Chrome 138.0.0.0,1710x1107,1710x981,Temporal Distance Task,,,,,,,info,END,,,281360.0,,,,,,,,,,,,,,,,,,,,,,$${counterbalance_group},,sub-96
