Participant Device,Participant OS,Participant Browser,Participant Monitor Size,Participant Viewport Size,Task Name,Current Spreadsheet,Trial Number,Display,Screen,Screen ID,Screen Counter,Response Type,Response,Onset Time,Clock Time,Reaction Time,Absolute Onset Time,Absolute Clock Time,Absolute Reaction Time,Correct,Response Duration,Proportion,Tag,Component Name,Object Name,Object Number,Object ID,Spreadsheet: display,Spreadsheet: trial,Spreadsheet: stimulus_id,Spreadsheet: expected_goal,Spreadsheet: stimulus_name,Spreadsheet: c_group,Spreadsheet: condition,Spreadsheet: paired_status,Spreadsheet: stimulus_path,Spreadsheet: block_type,Manipulation: Spreadsheet,Store: enc_test_acc,sub_label
Desktop or Laptop,Mac OS 10.15,Firefox 140.0,1440x900,1391x788,Temporal Distance Task,$${counterbalance_group},,,,,,info,BEGIN,,,,,,,0.0,,,,,,,,,,,,,,,,,,,,sub-08
Desktop or Laptop,Mac OS 10.15,Firefox 140.0,1440x900,1391x788,Temporal Distance Task,cb_02,1.0,temp_instructions,intro_screen,3tnme7,1.0,continue,,4170.8,4166.8200000000015,4170.8,4170.8,4166.8200000000015,4170.8,1.0,0.0,0.0,,Click To Continue,Continue Button,4.0,object-29,temp_instructions,,,Travel,,,,,,,,,sub-08
Desktop or Laptop,Mac OS 10.15,Firefox 140.0,1440x900,1391x788,Temporal Distance Task,cb_02,1.0,temp_instructions,intro_screen_2,52v7ur,2.0,continue,,2254.98,2250.100000000001,2254.98,2254.98,2250.100000000001,2254.98,1.0,0.0,0.0,,Click To Continue,Continue Button,4.0,object-39,temp_instructions,,,Travel,,,,,,,,,sub-08
Desktop or Laptop,Mac OS 10.15,Firefox 140.0,1440x900,1391x788,Temporal Distance Task,cb_02,1.0,temp_instructions,intro_screen_3,i7lvwx,3.0,continue,,1637.8799999999994,1633.3799999999994,1637.8799999999994,1637.8799999999994,1633.3799999999994,1637.8799999999994,1.0,0.0,0.0,,Click To Continue,Continue Button,4.0,object-67,temp_instructions,,,Travel,,,,,,,,,sub-08
Desktop or Laptop,Mac OS 10.15,Firefox 140.0,1440x900,1391x788,Temporal Distance Task,cb_02,1.0,temp_instructions,test_q1,5ieqx1,4.0,response,choice_3,7470.5,7466.959999999999,7470.5,7470.5,7466.959999999999,7470.5,1.0,0.0,0.0,,Click Response,choice_3,5.0,object-345,temp_instructions,,,Travel,,,,,,,,,sub-08
Desktop or Laptop,Mac OS 10.15,Firefox 140.0,1440x900,1391x788,Temporal Distance Task,cb_02,1.0,temp_instructions,score_corr,7ilvjr,5.0,continue,,1186.5400000000009,1183.380000000001,1186.5400000000009,1186.5400000000009,1183.380000000001,1186.5400000000009,1.0,0.0,0.0,,Click To Continue,Continue Button,3.0,object-23,temp_instructions,,,Travel,,,,,,,,,sub-08
Desktop or Laptop,Mac OS 10.15,Firefox 140.0,1440x900,1391x788,Temporal Distance Task,cb_02,1.0,temp_eventStart,Screen 1,dgtyxe,1.0,continue,,1320.16,1316.7000000000007,1320.16,1320.16,1316.7000000000007,1320.16,1.0,0.0,0.0,,Click To Continue,Next Button,3.0,object-43,temp_eventStart,,,Travel,,,,,,,,,sub-08
Desktop or Laptop,Mac OS 10.15,Firefox 140.0,1440x900,1391x788,Temporal Distance Task,cb_02,1.0,temp_dist_trial,num_items,zn7si1,1.0,response,1_ITEM,2838.4599999999987,2833.259999999999,2838.4599999999987,2838.4599999999987,2833.259999999999,2838.4599999999987,1.0,0.0,0.0,,Click Response,1_count,3.0,object-46,temp_dist_trial,1.0,t_s_02_1,travel_shared,water bottle,2.0,competing,single,t_s_02_1.jpg,Travel,,,sub-08
Desktop or Laptop,Mac OS 10.15,Firefox 140.0,1440x900,1391x788,Temporal Distance Task,cb_02,2.0,temp_dist_trial,num_items,zn7si1,1.0,response,2_ITEM,1171.0,1166.7000000000007,1171.0,1171.0,1166.7000000000007,1171.0,1.0,0.0,0.0,,Click Response,2_count,5.0,object-49,temp_dist_trial,2.0,t_s_11_1,travel_shared,eye mask,2.0,competing,paired,t_s_11_1.jpg,Travel,,,sub-08
Desktop or Laptop,Mac OS 10.15,Firefox 140.0,1440x900,1391x788,Temporal Distance Task,cb_02,2.0,temp_dist_trial,dist_items,qkpkxw,2.0,info,,12.279999999998836,0.0,12.279999999998836,12.279999999998836,0.0,12.279999999998836,1.0,0.0,0.0,,Slider,Slider,4.0,object-56,temp_dist_trial,2.0,t_s_11_1,travel_shared,eye mask,2.0,competing,paired,t_s_11_1.jpg,Travel,,,sub-08
Desktop or Laptop,Mac OS 10.15,Firefox 140.0,1440x900,1391x788,Temporal Distance Task,cb_02,2.0,temp_dist_trial,dist_items,qkpkxw,2.0,continue,,3554.279999999999,3550.16,3554.279999999999,3554.279999999999,3550.16,3554.279999999999,1.0,0.0,0.0,,Click To Continue,Next button,7.0,object-60,temp_dist_trial,2.0,t_s_11_1,travel_shared,eye mask,2.0,competing,paired,t_s_11_1.jpg,Travel,,,sub-08
Desktop or Laptop,Mac OS 10.15,Firefox 140.0,1440x900,1391x788,Temporal Distance Task,cb_02,2.0,temp_dist_trial,dist_items,qkpkxw,2.0,response,34,2233.4199999999983,3550.16,3556.279999999999,2233.4199999999983,3550.16,3556.279999999999,1.0,1322.8600000000004,0.0,,Slider,Slider,4.0,object-56,temp_dist_trial,2.0,t_s_11_1,travel_shared,eye mask,2.0,competing,paired,t_s_11_1.jpg,Travel,,,sub-08
Desktop or Laptop,Mac OS 10.15,Firefox 140.0,1440x900,1391x788,Temporal Distance Task,cb_02,3.0,temp_dist_trial,num_items,zn7si1,1.0,response,2_ITEM,1972.119999999999,1966.2999999999995,1972.119999999999,1972.119999999999,1966.2999999999995,1972.119999999999,1.0,0.0,0.0,,Click Response,2_count,5.0,object-49,temp_dist_trial,3.0,t_s_21_1,travel_shared,umbrella,2.0,competing,single,t_s_21_1.jpg,Travel,,,sub-08
Desktop or Laptop,Mac OS 10.15,Firefox 140.0,1440x900,1391x788,Temporal Distance Task,cb_02,3.0,temp_dist_trial,dist_items,qkpkxw,2.0,info,,10.400000000001457,0.0,10.400000000001457,10.400000000001457,0.0,10.400000000001457,1.0,0.0,0.0,,Slider,Slider,4.0,object-56,temp_dist_trial,3.0,t_s_21_1,travel_shared,umbrella,2.0,competing,single,t_s_21_1.jpg,Travel,,,sub-08
Desktop or Laptop,Mac OS 10.15,Firefox 140.0,1440x900,1391x788,Temporal Distance Task,cb_02,3.0,temp_dist_trial,dist_items,qkpkxw,2.0,continue,,2087.400000000001,2083.4200000000023,2087.400000000001,2087.400000000001,2083.4200000000023,2087.400000000001,1.0,0.0,0.0,,Click To Continue,Next button,7.0,object-60,temp_dist_trial,3.0,t_s_21_1,travel_shared,umbrella,2.0,competing,single,t_s_21_1.jpg,Travel,,,sub-08
Desktop or Laptop,Mac OS 10.15,Firefox 140.0,1440x900,1391x788,Temporal Distance Task,cb_02,3.0,temp_dist_trial,dist_items,qkpkxw,2.0,response,34,933.380000000001,2083.4200000000023,2088.400000000001,933.380000000001,2083.4200000000023,2088.400000000001,1.0,1155.0200000000004,0.0,,Slider,Slider,4.0,object-56,temp_dist_trial,3.0,t_s_21_1,travel_shared,umbrella,2.0,competing,single,t_s_21_1.jpg,Travel,,,sub-08
Desktop or Laptop,Mac OS 10.15,Firefox 140.0,1440x900,1391x788,Temporal Distance Task,cb_02,4.0,temp_dist_trial,num_items,zn7si1,1.0,response,2_ITEM,2685.98,2682.499999999997,2685.98,2685.98,2682.499999999997,2685.98,1.0,0.0,0.0,,Click Response,2_count,5.0,object-49,temp_dist_trial,4.0,t_m_18_1,travel_Miami,waterproof tote,2.0,unique,paired,t_m_18_1.jpg,Travel,,,sub-08
Desktop or Laptop,Mac OS 10.15,Firefox 140.0,1440x900,1391x788,Temporal Distance Task,cb_02,4.0,temp_dist_trial,dist_items,qkpkxw,2.0,info,,10.540000000000873,0.0,10.540000000000873,10.540000000000873,0.0,10.540000000000873,1.0,0.0,0.0,,Slider,Slider,4.0,object-56,temp_dist_trial,4.0,t_m_18_1,travel_Miami,waterproof tote,2.0,unique,paired,t_m_18_1.jpg,Travel,,,sub-08
Desktop or Laptop,Mac OS 10.15,Firefox 140.0,1440x900,1391x788,Temporal Distance Task,cb_02,4.0,temp_dist_trial,dist_items,qkpkxw,2.0,continue,,2038.5400000000006,2033.4199999999985,2038.5400000000006,2038.5400000000006,2033.4199999999985,2038.5400000000006,1.0,0.0,0.0,,Click To Continue,Next button,7.0,object-60,temp_dist_trial,4.0,t_m_18_1,travel_Miami,waterproof tote,2.0,unique,paired,t_m_18_1.jpg,Travel,,,sub-08
Desktop or Laptop,Mac OS 10.15,Firefox 140.0,1440x900,1391x788,Temporal Distance Task,cb_02,4.0,temp_dist_trial,dist_items,qkpkxw,2.0,response,23,1100.0599999999977,2033.4199999999985,2038.5400000000006,1100.0599999999977,2033.4199999999985,2038.5400000000006,1.0,938.4800000000032,0.0,,Slider,Slider,4.0,object-56,temp_dist_trial,4.0,t_m_18_1,travel_Miami,waterproof tote,2.0,unique,paired,t_m_18_1.jpg,Travel,,,sub-08
Desktop or Laptop,Mac OS 10.15,Firefox 140.0,1440x900,1391x788,Temporal Distance Task,cb_02,5.0,temp_dist_trial,num_items,zn7si1,1.0,response,num_miss,3000.1000000000067,3000.1000000000067,3000.1000000000067,3000.1000000000067,3000.1000000000067,3000.1000000000067,1.0,0.0,0.0,num_miss_tag,Time Limit,screen,0.0,screen,temp_dist_trial,5.0,t_i_15_1,travel_Iceland,compass,2.0,unique,paired,t_i_15_1.jpg,Travel,,,sub-08
Desktop or Laptop,Mac OS 10.15,Firefox 140.0,1440x900,1391x788,Temporal Distance Task,cb_02,6.0,temp_dist_trial,num_items,zn7si1,1.0,response,1_ITEM,1354.6800000000005,1349.260000000002,1354.6800000000005,1354.6800000000005,1349.260000000002,1354.6800000000005,1.0,0.0,0.0,,Click Response,1_count,3.0,object-46,temp_dist_trial,6.0,t_s_09_1,travel_shared,wallet,2.0,competing,single,t_s_09_1.jpg,Travel,,,sub-08
Desktop or Laptop,Mac OS 10.15,Firefox 140.0,1440x900,1391x788,Temporal Distance Task,cb_02,7.0,temp_dist_trial,num_items,zn7si1,1.0,response,1_ITEM,1987.6200000000024,1983.4200000000048,1987.6200000000024,1987.6200000000024,1983.4200000000048,1987.6200000000024,1.0,0.0,0.0,,Click Response,1_count,3.0,object-46,temp_dist_trial,7.0,t_s_18_1,travel_shared,first aid kit,2.0,competing,paired,t_s_18_1.jpg,Travel,,,sub-08
Desktop or Laptop,Mac OS 10.15,Firefox 140.0,1440x900,1391x788,Temporal Distance Task,cb_02,8.0,temp_dist_trial,num_items,zn7si1,1.0,response,1_ITEM,904.1999999999972,900.0599999999977,904.1999999999972,904.1999999999972,900.0599999999977,904.1999999999972,1.0,0.0,0.0,,Click Response,1_count,3.0,object-46,temp_dist_trial,8.0,t_s_16_1,travel_shared,chapstick,2.0,competing,single,t_s_16_1.jpg,Travel,,,sub-08
Desktop or Laptop,Mac OS 10.15,Firefox 140.0,1440x900,1391x788,Temporal Distance Task,cb_02,9.0,temp_dist_trial,num_items,zn7si1,1.0,response,2_ITEM,1621.1600000000033,1616.0400000000006,1621.1600000000033,1621.1600000000033,1616.0400000000006,1621.1600000000033,1.0,0.0,0.0,,Click Response,2_count,5.0,object-49,temp_dist_trial,9.0,t_m_01_1,travel_Miami,sandals,2.0,unique,paired,t_m_01_1.jpg,Travel,,,sub-08
Desktop or Laptop,Mac OS 10.15,Firefox 140.0,1440x900,1391x788,Temporal Distance Task,cb_02,9.0,temp_dist_trial,dist_items,qkpkxw,2.0,info,,9.419999999998254,0.0,9.419999999998254,9.419999999998254,0.0,9.419999999998254,1.0,0.0,0.0,,Slider,Slider,4.0,object-56,temp_dist_trial,9.0,t_m_01_1,travel_Miami,sandals,2.0,unique,paired,t_m_01_1.jpg,Travel,,,sub-08
Desktop or Laptop,Mac OS 10.15,Firefox 140.0,1440x900,1391x788,Temporal Distance Task,cb_02,9.0,temp_dist_trial,dist_items,qkpkxw,2.0,continue,,2153.4199999999983,2150.0800000000017,2153.4199999999983,2153.4199999999983,2150.0800000000017,2153.4199999999983,1.0,0.0,0.0,,Click To Continue,Next button,7.0,object-60,temp_dist_trial,9.0,t_m_01_1,travel_Miami,sandals,2.0,unique,paired,t_m_01_1.jpg,Travel,,,sub-08
Desktop or Laptop,Mac OS 10.15,Firefox 140.0,1440x900,1391x788,Temporal Distance Task,cb_02,9.0,temp_dist_trial,dist_items,qkpkxw,2.0,response,44,1200.0599999999977,2150.0800000000017,2153.4199999999983,1200.0599999999977,2150.0800000000017,2153.4199999999983,1.0,953.3600000000006,0.0,,Slider,Slider,4.0,object-56,temp_dist_trial,9.0,t_m_01_1,travel_Miami,sandals,2.0,unique,paired,t_m_01_1.jpg,Travel,,,sub-08
Desktop or Laptop,Mac OS 10.15,Firefox 140.0,1440x900,1391x788,Temporal Distance Task,cb_02,10.0,temp_dist_trial,num_items,zn7si1,1.0,response,num_miss,3000.1399999999994,3000.1399999999994,3000.1399999999994,3000.1399999999994,3000.1399999999994,3000.1399999999994,1.0,0.0,0.0,num_miss_tag,Time Limit,screen,0.0,screen,temp_dist_trial,10.0,t_i_20_1,travel_Iceland,lantern,2.0,unique,paired,t_i_20_1.jpg,Travel,,,sub-08
Desktop or Laptop,Mac OS 10.15,Firefox 140.0,1440x900,1391x788,Temporal Distance Task,cb_02,11.0,temp_dist_trial,num_items,zn7si1,1.0,response,2_ITEM,369.8600000000006,366.4199999999983,369.8600000000006,369.8600000000006,366.4199999999983,369.8600000000006,1.0,0.0,0.0,,Click Response,2_count,5.0,object-49,temp_dist_trial,11.0,t_s_07_1,travel_shared,phone charger cable,2.0,competing,paired,t_s_07_1.jpg,Travel,,,sub-08
Desktop or Laptop,Mac OS 10.15,Firefox 140.0,1440x900,1391x788,Temporal Distance Task,cb_02,11.0,temp_dist_trial,dist_items,qkpkxw,2.0,info,,10.180000000000293,0.0,10.180000000000293,10.180000000000293,0.0,10.180000000000293,1.0,0.0,0.0,,Slider,Slider,4.0,object-56,temp_dist_trial,11.0,t_s_07_1,travel_shared,phone charger cable,2.0,competing,paired,t_s_07_1.jpg,Travel,,,sub-08
Desktop or Laptop,Mac OS 10.15,Firefox 140.0,1440x900,1391x788,Temporal Distance Task,cb_02,11.0,temp_dist_trial,dist_items,qkpkxw,2.0,continue,,3205.180000000001,3200.1200000000026,3205.180000000001,3205.180000000001,3200.1200000000026,3205.180000000001,1.0,0.0,0.0,,Click To Continue,Next button,7.0,object-60,temp_dist_trial,11.0,t_s_07_1,travel_shared,phone charger cable,2.0,competing,paired,t_s_07_1.jpg,Travel,,,sub-08
Desktop or Laptop,Mac OS 10.15,Firefox 140.0,1440x900,1391x788,Temporal Distance Task,cb_02,11.0,temp_dist_trial,dist_items,qkpkxw,2.0,response,46,2516.7200000000007,3200.1200000000026,3205.180000000001,2516.7200000000007,3200.1200000000026,3205.180000000001,1.0,688.4599999999991,0.0,,Slider,Slider,4.0,object-56,temp_dist_trial,11.0,t_s_07_1,travel_shared,phone charger cable,2.0,competing,paired,t_s_07_1.jpg,Travel,,,sub-08
Desktop or Laptop,Mac OS 10.15,Firefox 140.0,1440x900,1391x788,Temporal Distance Task,cb_02,12.0,temp_dist_trial,num_items,zn7si1,1.0,response,2_ITEM,1304.0599999999977,1300.0400000000009,1304.0599999999977,1304.0599999999977,1300.0400000000009,1304.0599999999977,1.0,0.0,0.0,,Click Response,2_count,5.0,object-49,temp_dist_trial,12.0,t_s_01_1,travel_shared,fanny pack,2.0,competing,paired,t_s_01_1.jpg,Travel,,,sub-08
Desktop or Laptop,Mac OS 10.15,Firefox 140.0,1440x900,1391x788,Temporal Distance Task,cb_02,12.0,temp_dist_trial,dist_items,qkpkxw,2.0,info,,10.779999999998836,0.0,10.779999999998836,10.779999999998836,0.0,10.779999999998836,1.0,0.0,0.0,,Slider,Slider,4.0,object-56,temp_dist_trial,12.0,t_s_01_1,travel_shared,fanny pack,2.0,competing,paired,t_s_01_1.jpg,Travel,,,sub-08
Desktop or Laptop,Mac OS 10.15,Firefox 140.0,1440x900,1391x788,Temporal Distance Task,cb_02,12.0,temp_dist_trial,dist_items,qkpkxw,2.0,continue,,2070.7799999999993,2067.519999999997,2070.7799999999993,2070.7799999999993,2067.519999999997,2070.7799999999993,1.0,0.0,0.0,,Click To Continue,Next button,7.0,object-60,temp_dist_trial,12.0,t_s_01_1,travel_shared,fanny pack,2.0,competing,paired,t_s_01_1.jpg,Travel,,,sub-08
Desktop or Laptop,Mac OS 10.15,Firefox 140.0,1440x900,1391x788,Temporal Distance Task,cb_02,12.0,temp_dist_trial,dist_items,qkpkxw,2.0,response,40,1084.1399999999994,2067.519999999997,2071.7799999999993,1084.1399999999994,2067.519999999997,2071.7799999999993,1.0,987.6399999999994,0.0,,Slider,Slider,4.0,object-56,temp_dist_trial,12.0,t_s_01_1,travel_shared,fanny pack,2.0,competing,paired,t_s_01_1.jpg,Travel,,,sub-08
Desktop or Laptop,Mac OS 10.15,Firefox 140.0,1440x900,1391x788,Temporal Distance Task,cb_02,13.0,temp_dist_trial,num_items,zn7si1,1.0,response,2_ITEM,1121.260000000002,1116.7000000000044,1121.260000000002,1121.260000000002,1116.7000000000044,1121.260000000002,1.0,0.0,0.0,,Click Response,2_count,5.0,object-49,temp_dist_trial,13.0,t_m_12_1,travel_Miami,foldable pail and shovel,2.0,unique,paired,t_m_12_1.jpg,Travel,,,sub-08
Desktop or Laptop,Mac OS 10.15,Firefox 140.0,1440x900,1391x788,Temporal Distance Task,cb_02,13.0,temp_dist_trial,dist_items,qkpkxw,2.0,info,,12.5199999999968,0.0,12.5199999999968,12.5199999999968,0.0,12.5199999999968,1.0,0.0,0.0,,Slider,Slider,4.0,object-56,temp_dist_trial,13.0,t_m_12_1,travel_Miami,foldable pail and shovel,2.0,unique,paired,t_m_12_1.jpg,Travel,,,sub-08
Desktop or Laptop,Mac OS 10.15,Firefox 140.0,1440x900,1391x788,Temporal Distance Task,cb_02,13.0,temp_dist_trial,dist_items,qkpkxw,2.0,continue,,2254.519999999997,2251.0599999999977,2254.519999999997,2254.519999999997,2251.0599999999977,2254.519999999997,1.0,0.0,0.0,,Click To Continue,Next button,7.0,object-60,temp_dist_trial,13.0,t_m_12_1,travel_Miami,foldable pail and shovel,2.0,unique,paired,t_m_12_1.jpg,Travel,,,sub-08
Desktop or Laptop,Mac OS 10.15,Firefox 140.0,1440x900,1391x788,Temporal Distance Task,cb_02,13.0,temp_dist_trial,dist_items,qkpkxw,2.0,response,41,951.0199999999968,2251.0599999999977,2256.519999999997,951.0199999999968,2251.0599999999977,2256.519999999997,1.0,1305.5,0.0,,Slider,Slider,4.0,object-56,temp_dist_trial,13.0,t_m_12_1,travel_Miami,foldable pail and shovel,2.0,unique,paired,t_m_12_1.jpg,Travel,,,sub-08
Desktop or Laptop,Mac OS 10.15,Firefox 140.0,1440x900,1391x788,Temporal Distance Task,cb_02,14.0,temp_dist_trial,num_items,zn7si1,1.0,response,1_ITEM,1536.4599999999994,1533.4000000000015,1536.4599999999994,1536.4599999999994,1533.4000000000015,1536.4599999999994,1.0,0.0,0.0,,Click Response,1_count,3.0,object-46,temp_dist_trial,14.0,t_i_14_1,travel_Iceland,snow pants,2.0,unique,single,t_i_14_1.jpg,Travel,,,sub-08
Desktop or Laptop,Mac OS 10.15,Firefox 140.0,1440x900,1391x788,Temporal Distance Task,cb_02,15.0,temp_dist_trial,num_items,zn7si1,1.0,response,2_ITEM,1971.0599999999977,1966.7399999999911,1971.0599999999977,1971.0599999999977,1966.7399999999911,1971.0599999999977,1.0,0.0,0.0,,Click Response,2_count,5.0,object-49,temp_dist_trial,15.0,t_s_04_1,travel_shared,instant camera,2.0,competing,paired,t_s_04_1.jpg,Travel,,,sub-08
Desktop or Laptop,Mac OS 10.15,Firefox 140.0,1440x900,1391x788,Temporal Distance Task,cb_02,15.0,temp_dist_trial,dist_items,qkpkxw,2.0,info,,9.30000000000291,0.0,9.30000000000291,9.30000000000291,0.0,9.30000000000291,1.0,0.0,0.0,,Slider,Slider,4.0,object-56,temp_dist_trial,15.0,t_s_04_1,travel_shared,instant camera,2.0,competing,paired,t_s_04_1.jpg,Travel,,,sub-08
Desktop or Laptop,Mac OS 10.15,Firefox 140.0,1440x900,1391x788,Temporal Distance Task,cb_02,15.0,temp_dist_trial,dist_items,qkpkxw,2.0,continue,,2236.300000000003,2233.4199999999983,2236.300000000003,2236.300000000003,2233.4199999999983,2236.300000000003,1.0,0.0,0.0,,Click To Continue,Next button,7.0,object-60,temp_dist_trial,15.0,t_s_04_1,travel_shared,instant camera,2.0,competing,paired,t_s_04_1.jpg,Travel,,,sub-08
Desktop or Laptop,Mac OS 10.15,Firefox 140.0,1440x900,1391x788,Temporal Distance Task,cb_02,15.0,temp_dist_trial,dist_items,qkpkxw,2.0,response,51,1383.400000000009,2233.4199999999983,2237.300000000003,1383.400000000009,2233.4199999999983,2237.300000000003,1.0,853.8999999999942,0.0,,Slider,Slider,4.0,object-56,temp_dist_trial,15.0,t_s_04_1,travel_shared,instant camera,2.0,competing,paired,t_s_04_1.jpg,Travel,,,sub-08
Desktop or Laptop,Mac OS 10.15,Firefox 140.0,1440x900,1391x788,Temporal Distance Task,cb_02,16.0,temp_dist_trial,num_items,zn7si1,1.0,response,1_ITEM,1409.8800000000049,1400.040000000008,1409.8800000000049,1409.8800000000049,1400.040000000008,1409.8800000000049,1.0,0.0,0.0,,Click Response,1_count,3.0,object-46,temp_dist_trial,16.0,t_i_16_1,travel_Iceland,skis,2.0,unique,single,t_i_16_1.jpg,Travel,,,sub-08
Desktop or Laptop,Mac OS 10.15,Firefox 140.0,1440x900,1391x788,Temporal Distance Task,cb_02,17.0,temp_dist_trial,num_items,zn7si1,1.0,response,2_ITEM,986.820000000007,983.3600000000006,986.820000000007,986.820000000007,983.3600000000006,986.820000000007,1.0,0.0,0.0,,Click Response,2_count,5.0,object-49,temp_dist_trial,17.0,t_m_08_1,travel_Miami,flipflops,2.0,unique,single,t_m_08_1.jpg,Travel,,,sub-08
Desktop or Laptop,Mac OS 10.15,Firefox 140.0,1440x900,1391x788,Temporal Distance Task,cb_02,17.0,temp_dist_trial,dist_items,qkpkxw,2.0,info,,12.419999999998256,0.0,12.419999999998256,12.419999999998256,0.0,12.419999999998256,1.0,0.0,0.0,,Slider,Slider,4.0,object-56,temp_dist_trial,17.0,t_m_08_1,travel_Miami,flipflops,2.0,unique,single,t_m_08_1.jpg,Travel,,,sub-08
Desktop or Laptop,Mac OS 10.15,Firefox 140.0,1440x900,1391x788,Temporal Distance Task,cb_02,17.0,temp_dist_trial,dist_items,qkpkxw,2.0,continue,,2270.4199999999983,2266.7200000000007,2270.4199999999983,2270.4199999999983,2266.7200000000007,2270.4199999999983,1.0,0.0,0.0,,Click To Continue,Next button,7.0,object-60,temp_dist_trial,17.0,t_m_08_1,travel_Miami,flipflops,2.0,unique,single,t_m_08_1.jpg,Travel,,,sub-08
Desktop or Laptop,Mac OS 10.15,Firefox 140.0,1440x900,1391x788,Temporal Distance Task,cb_02,17.0,temp_dist_trial,dist_items,qkpkxw,2.0,response,41,1233.3600000000004,2266.7200000000007,2272.4199999999983,1233.3600000000004,2266.7200000000007,2272.4199999999983,1.0,1039.0599999999977,0.0,,Slider,Slider,4.0,object-56,temp_dist_trial,17.0,t_m_08_1,travel_Miami,flipflops,2.0,unique,single,t_m_08_1.jpg,Travel,,,sub-08
Desktop or Laptop,Mac OS 10.15,Firefox 140.0,1440x900,1391x788,Temporal Distance Task,cb_02,18.0,temp_dist_trial,num_items,zn7si1,1.0,response,1_ITEM,1418.6999999999966,1416.7200000000012,1418.6999999999966,1418.6999999999966,1416.7200000000012,1418.6999999999966,1.0,0.0,0.0,,Click Response,1_count,3.0,object-46,temp_dist_trial,18.0,t_i_19_1,travel_Iceland,rope,2.0,unique,paired,t_i_19_1.jpg,Travel,,,sub-08
Desktop or Laptop,Mac OS 10.15,Firefox 140.0,1440x900,1391x788,Temporal Distance Task,cb_02,19.0,temp_dist_trial,num_items,zn7si1,1.0,response,1_ITEM,1102.979999999996,1100.0399999999936,1102.979999999996,1102.979999999996,1100.0399999999936,1102.979999999996,1.0,0.0,0.0,,Click Response,1_count,3.0,object-46,temp_dist_trial,19.0,t_i_04_1,travel_Iceland,portable camping stove,2.0,unique,single,t_i_04_1.jpg,Travel,,,sub-08
Desktop or Laptop,Mac OS 10.15,Firefox 140.0,1440x900,1391x788,Temporal Distance Task,cb_02,20.0,temp_dist_trial,num_items,zn7si1,1.0,response,1_ITEM,1637.9199999999985,1633.3999999999942,1637.9199999999985,1637.9199999999985,1633.3999999999942,1637.9199999999985,1.0,0.0,0.0,,Click Response,1_count,3.0,object-46,temp_dist_trial,20.0,t_s_06_1,travel_shared,luggage,2.0,competing,single,t_s_06_1.jpg,Travel,,,sub-08
Desktop or Laptop,Mac OS 10.15,Firefox 140.0,1440x900,1391x788,Temporal Distance Task,cb_02,21.0,temp_dist_trial,num_items,zn7si1,1.0,response,2_ITEM,1304.520000000004,1299.9600000000066,1304.520000000004,1304.520000000004,1299.9600000000066,1304.520000000004,1.0,0.0,0.0,,Click Response,2_count,5.0,object-49,temp_dist_trial,21.0,t_s_17_1,travel_shared,toothbrush,2.0,competing,paired,t_s_17_1.jpg,Travel,,,sub-08
Desktop or Laptop,Mac OS 10.15,Firefox 140.0,1440x900,1391x788,Temporal Distance Task,cb_02,21.0,temp_dist_trial,dist_items,qkpkxw,2.0,info,,16.69999999999709,0.0,16.69999999999709,16.69999999999709,0.0,16.69999999999709,1.0,0.0,0.0,,Slider,Slider,4.0,object-56,temp_dist_trial,21.0,t_s_17_1,travel_shared,toothbrush,2.0,competing,paired,t_s_17_1.jpg,Travel,,,sub-08
Desktop or Laptop,Mac OS 10.15,Firefox 140.0,1440x900,1391x788,Temporal Distance Task,cb_02,21.0,temp_dist_trial,dist_items,qkpkxw,2.0,continue,,1738.4199999999985,1732.9199999999985,1738.4199999999985,1738.4199999999985,1732.9199999999985,1738.4199999999985,1.0,0.0,0.0,,Click To Continue,Next button,7.0,object-60,temp_dist_trial,21.0,t_s_17_1,travel_shared,toothbrush,2.0,competing,paired,t_s_17_1.jpg,Travel,,,sub-08
Desktop or Laptop,Mac OS 10.15,Firefox 140.0,1440x900,1391x788,Temporal Distance Task,cb_02,21.0,temp_dist_trial,dist_items,qkpkxw,2.0,response,44,700.0,1732.9199999999985,1739.4199999999985,700.0,1732.9199999999985,1739.4199999999985,1.0,1039.4199999999983,0.0,,Slider,Slider,4.0,object-56,temp_dist_trial,21.0,t_s_17_1,travel_shared,toothbrush,2.0,competing,paired,t_s_17_1.jpg,Travel,,,sub-08
Desktop or Laptop,Mac OS 10.15,Firefox 140.0,1440x900,1391x788,Temporal Distance Task,cb_02,22.0,temp_dist_trial,num_items,zn7si1,1.0,response,2_ITEM,1437.5,1433.8399999999967,1437.5,1437.5,1433.8399999999967,1437.5,1.0,0.0,0.0,,Click Response,2_count,5.0,object-49,temp_dist_trial,22.0,t_i_09_1,travel_Iceland,ear muffs,2.0,unique,paired,t_i_09_1.jpg,Travel,,,sub-08
Desktop or Laptop,Mac OS 10.15,Firefox 140.0,1440x900,1391x788,Temporal Distance Task,cb_02,22.0,temp_dist_trial,dist_items,qkpkxw,2.0,info,,9.660000000003492,0.0,9.660000000003492,9.660000000003492,0.0,9.660000000003492,1.0,0.0,0.0,,Slider,Slider,4.0,object-56,temp_dist_trial,22.0,t_i_09_1,travel_Iceland,ear muffs,2.0,unique,paired,t_i_09_1.jpg,Travel,,,sub-08
Desktop or Laptop,Mac OS 10.15,Firefox 140.0,1440x900,1391x788,Temporal Distance Task,cb_02,22.0,temp_dist_trial,dist_items,qkpkxw,2.0,continue,,1987.6600000000033,1983.4199999999985,1987.6600000000033,1987.6600000000033,1983.4199999999985,1987.6600000000033,1.0,0.0,0.0,,Click To Continue,Next button,7.0,object-60,temp_dist_trial,22.0,t_i_09_1,travel_Iceland,ear muffs,2.0,unique,paired,t_i_09_1.jpg,Travel,,,sub-08
Desktop or Laptop,Mac OS 10.15,Firefox 140.0,1440x900,1391x788,Temporal Distance Task,cb_02,22.0,temp_dist_trial,dist_items,qkpkxw,2.0,response,51,1200.0599999999977,1983.4199999999985,1990.6600000000033,1200.0599999999977,1983.4199999999985,1990.6600000000033,1.0,790.6000000000058,0.0,,Slider,Slider,4.0,object-56,temp_dist_trial,22.0,t_i_09_1,travel_Iceland,ear muffs,2.0,unique,paired,t_i_09_1.jpg,Travel,,,sub-08
Desktop or Laptop,Mac OS 10.15,Firefox 140.0,1440x900,1391x788,Temporal Distance Task,cb_02,23.0,temp_dist_trial,num_items,zn7si1,1.0,response,2_ITEM,1020.2400000000052,1016.7000000000116,1020.2400000000052,1020.2400000000052,1016.7000000000116,1020.2400000000052,1.0,0.0,0.0,,Click Response,2_count,5.0,object-49,temp_dist_trial,23.0,t_m_17_1,travel_Miami,water gun,2.0,unique,paired,t_m_17_1.jpg,Travel,,,sub-08
Desktop or Laptop,Mac OS 10.15,Firefox 140.0,1440x900,1391x788,Temporal Distance Task,cb_02,23.0,temp_dist_trial,dist_items,qkpkxw,2.0,info,,11.539999999993595,0.0,11.539999999993595,11.539999999993595,0.0,11.539999999993595,1.0,0.0,0.0,,Slider,Slider,4.0,object-56,temp_dist_trial,23.0,t_m_17_1,travel_Miami,water gun,2.0,unique,paired,t_m_17_1.jpg,Travel,,,sub-08
Desktop or Laptop,Mac OS 10.15,Firefox 140.0,1440x900,1391x788,Temporal Distance Task,cb_02,23.0,temp_dist_trial,dist_items,qkpkxw,2.0,continue,,1754.5399999999936,1750.099999999991,1754.5399999999936,1754.5399999999936,1750.099999999991,1754.5399999999936,1.0,0.0,0.0,,Click To Continue,Next button,7.0,object-60,temp_dist_trial,23.0,t_m_17_1,travel_Miami,water gun,2.0,unique,paired,t_m_17_1.jpg,Travel,,,sub-08
Desktop or Laptop,Mac OS 10.15,Firefox 140.0,1440x900,1391x788,Temporal Distance Task,cb_02,23.0,temp_dist_trial,dist_items,qkpkxw,2.0,response,44,916.6999999999972,1750.099999999991,1755.5399999999936,916.6999999999972,1750.099999999991,1755.5399999999936,1.0,838.8399999999965,0.0,,Slider,Slider,4.0,object-56,temp_dist_trial,23.0,t_m_17_1,travel_Miami,water gun,2.0,unique,paired,t_m_17_1.jpg,Travel,,,sub-08
Desktop or Laptop,Mac OS 10.15,Firefox 140.0,1440x900,1391x788,Temporal Distance Task,cb_02,24.0,temp_dist_trial,num_items,zn7si1,1.0,response,1_ITEM,1603.4400000000023,1600.040000000008,1603.4400000000023,1603.4400000000023,1600.040000000008,1603.4400000000023,1.0,0.0,0.0,,Click Response,1_count,3.0,object-46,temp_dist_trial,24.0,t_s_23_1,travel_shared,ball cap,2.0,competing,paired,t_s_23_1.jpg,Travel,,,sub-08
Desktop or Laptop,Mac OS 10.15,Firefox 140.0,1440x900,1391x788,Temporal Distance Task,cb_02,25.0,temp_dist_trial,num_items,zn7si1,1.0,response,1_ITEM,1320.3999999999942,1316.5799999999872,1320.3999999999942,1320.3999999999942,1316.5799999999872,1320.3999999999942,1.0,0.0,0.0,,Click Response,1_count,3.0,object-46,temp_dist_trial,25.0,t_m_02_1,travel_Miami,t-shirt,2.0,unique,paired,t_m_02_1.jpg,Travel,,,sub-08
Desktop or Laptop,Mac OS 10.15,Firefox 140.0,1440x900,1391x788,Temporal Distance Task,cb_02,26.0,temp_dist_trial,num_items,zn7si1,1.0,response,1_ITEM,1236.6000000000058,1233.3000000000031,1236.6000000000058,1236.6000000000058,1233.3000000000031,1236.6000000000058,1.0,0.0,0.0,,Click Response,1_count,3.0,object-46,temp_dist_trial,26.0,t_m_06_1,travel_Miami,handheld fan,2.0,unique,single,t_m_06_1.jpg,Travel,,,sub-08
Desktop or Laptop,Mac OS 10.15,Firefox 140.0,1440x900,1391x788,Temporal Distance Task,cb_02,27.0,temp_dist_trial,num_items,zn7si1,1.0,response,1_ITEM,987.0399999999936,984.1199999999952,987.0399999999936,987.0399999999936,984.1199999999952,987.0399999999936,1.0,0.0,0.0,,Click Response,1_count,3.0,object-46,temp_dist_trial,27.0,t_s_13_1,travel_shared,contact lens case,2.0,competing,paired,t_s_13_1.jpg,Travel,,,sub-08
Desktop or Laptop,Mac OS 10.15,Firefox 140.0,1440x900,1391x788,Temporal Distance Task,cb_02,28.0,temp_dist_trial,num_items,zn7si1,1.0,response,2_ITEM,1037.8800000000047,1032.9400000000023,1037.8800000000047,1037.8800000000047,1032.9400000000023,1037.8800000000047,1.0,0.0,0.0,,Click Response,2_count,5.0,object-49,temp_dist_trial,28.0,t_s_03_1,travel_shared,portable charger,2.0,competing,single,t_s_03_1.jpg,Travel,,,sub-08
Desktop or Laptop,Mac OS 10.15,Firefox 140.0,1440x900,1391x788,Temporal Distance Task,cb_02,28.0,temp_dist_trial,dist_items,qkpkxw,2.0,info,,8.5,0.0,8.5,8.5,0.0,8.5,1.0,0.0,0.0,,Slider,Slider,4.0,object-56,temp_dist_trial,28.0,t_s_03_1,travel_shared,portable charger,2.0,competing,single,t_s_03_1.jpg,Travel,,,sub-08
Desktop or Laptop,Mac OS 10.15,Firefox 140.0,1440x900,1391x788,Temporal Distance Task,cb_02,28.0,temp_dist_trial,dist_items,qkpkxw,2.0,continue,,2586.5,2583.3999999999937,2586.5,2586.5,2583.3999999999937,2586.5,1.0,0.0,0.0,,Click To Continue,Next button,7.0,object-60,temp_dist_trial,28.0,t_s_03_1,travel_shared,portable charger,2.0,competing,single,t_s_03_1.jpg,Travel,,,sub-08
Desktop or Laptop,Mac OS 10.15,Firefox 140.0,1440x900,1391x788,Temporal Distance Task,cb_02,28.0,temp_dist_trial,dist_items,qkpkxw,2.0,response,59,1116.679999999993,2583.3999999999937,2587.5,1116.679999999993,2583.3999999999937,2587.5,1.0,1470.820000000007,0.0,,Slider,Slider,4.0,object-56,temp_dist_trial,28.0,t_s_03_1,travel_shared,portable charger,2.0,competing,single,t_s_03_1.jpg,Travel,,,sub-08
Desktop or Laptop,Mac OS 10.15,Firefox 140.0,1440x900,1391x788,Temporal Distance Task,cb_02,29.0,temp_dist_trial,num_items,zn7si1,1.0,response,2_ITEM,1104.1000000000058,1100.040000000008,1104.1000000000058,1104.1000000000058,1100.040000000008,1104.1000000000058,1.0,0.0,0.0,,Click Response,2_count,5.0,object-49,temp_dist_trial,29.0,t_s_24_1,travel_shared,ear plugs,2.0,competing,paired,t_s_24_1.jpg,Travel,,,sub-08
Desktop or Laptop,Mac OS 10.15,Firefox 140.0,1440x900,1391x788,Temporal Distance Task,cb_02,29.0,temp_dist_trial,dist_items,qkpkxw,2.0,info,,11.039999999993595,0.0,11.039999999993595,11.039999999993595,0.0,11.039999999993595,1.0,0.0,0.0,,Slider,Slider,4.0,object-56,temp_dist_trial,29.0,t_s_24_1,travel_shared,ear plugs,2.0,competing,paired,t_s_24_1.jpg,Travel,,,sub-08
Desktop or Laptop,Mac OS 10.15,Firefox 140.0,1440x900,1391x788,Temporal Distance Task,cb_02,29.0,temp_dist_trial,dist_items,qkpkxw,2.0,continue,,2221.0399999999936,2216.7599999999948,2221.0399999999936,2221.0399999999936,2216.7599999999948,2221.0399999999936,1.0,0.0,0.0,,Click To Continue,Next button,7.0,object-60,temp_dist_trial,29.0,t_s_24_1,travel_shared,ear plugs,2.0,competing,paired,t_s_24_1.jpg,Travel,,,sub-08
Desktop or Laptop,Mac OS 10.15,Firefox 140.0,1440x900,1391x788,Temporal Distance Task,cb_02,29.0,temp_dist_trial,dist_items,qkpkxw,2.0,response,58,1266.7199999999866,2216.7599999999948,2221.0399999999936,1266.7199999999866,2216.7599999999948,2221.0399999999936,1.0,954.320000000007,0.0,,Slider,Slider,4.0,object-56,temp_dist_trial,29.0,t_s_24_1,travel_shared,ear plugs,2.0,competing,paired,t_s_24_1.jpg,Travel,,,sub-08
Desktop or Laptop,Mac OS 10.15,Firefox 140.0,1440x900,1391x788,Temporal Distance Task,cb_02,30.0,temp_dist_trial,num_items,zn7si1,1.0,response,2_ITEM,1087.2799999999988,1083.3600000000006,1087.2799999999988,1087.2799999999988,1083.3600000000006,1087.2799999999988,1.0,0.0,0.0,,Click Response,2_count,5.0,object-49,temp_dist_trial,30.0,t_m_19_1,travel_Miami,surfboard,2.0,unique,paired,t_m_19_1.jpg,Travel,,,sub-08
Desktop or Laptop,Mac OS 10.15,Firefox 140.0,1440x900,1391x788,Temporal Distance Task,cb_02,30.0,temp_dist_trial,dist_items,qkpkxw,2.0,info,,7.860000000000582,0.0,7.860000000000582,7.860000000000582,0.0,7.860000000000582,1.0,0.0,0.0,,Slider,Slider,4.0,object-56,temp_dist_trial,30.0,t_m_19_1,travel_Miami,surfboard,2.0,unique,paired,t_m_19_1.jpg,Travel,,,sub-08
Desktop or Laptop,Mac OS 10.15,Firefox 140.0,1440x900,1391x788,Temporal Distance Task,cb_02,30.0,temp_dist_trial,dist_items,qkpkxw,2.0,continue,,2203.8600000000006,2200.0399999999936,2203.8600000000006,2203.8600000000006,2200.0399999999936,2203.8600000000006,1.0,0.0,0.0,,Click To Continue,Next button,7.0,object-60,temp_dist_trial,30.0,t_m_19_1,travel_Miami,surfboard,2.0,unique,paired,t_m_19_1.jpg,Travel,,,sub-08
Desktop or Laptop,Mac OS 10.15,Firefox 140.0,1440x900,1391x788,Temporal Distance Task,cb_02,30.0,temp_dist_trial,dist_items,qkpkxw,2.0,response,34,1000.0,2200.0399999999936,2204.8600000000006,1000.0,2200.0399999999936,2204.8600000000006,1.0,1204.8600000000004,0.0,,Slider,Slider,4.0,object-56,temp_dist_trial,30.0,t_m_19_1,travel_Miami,surfboard,2.0,unique,paired,t_m_19_1.jpg,Travel,,,sub-08
Desktop or Laptop,Mac OS 10.15,Firefox 140.0,1440x900,1391x788,Temporal Distance Task,cb_02,31.0,temp_dist_trial,num_items,zn7si1,1.0,response,2_ITEM,1004.820000000007,1000.0600000000122,1004.820000000007,1004.820000000007,1000.0600000000122,1004.820000000007,1.0,0.0,0.0,,Click Response,2_count,5.0,object-49,temp_dist_trial,31.0,t_s_15_1,travel_shared,luggage tag,2.0,competing,paired,t_s_15_1.jpg,Travel,,,sub-08
Desktop or Laptop,Mac OS 10.15,Firefox 140.0,1440x900,1391x788,Temporal Distance Task,cb_02,31.0,temp_dist_trial,dist_items,qkpkxw,2.0,info,,8.779999999998836,0.0,8.779999999998836,8.779999999998836,0.0,8.779999999998836,1.0,0.0,0.0,,Slider,Slider,4.0,object-56,temp_dist_trial,31.0,t_s_15_1,travel_shared,luggage tag,2.0,competing,paired,t_s_15_1.jpg,Travel,,,sub-08
Desktop or Laptop,Mac OS 10.15,Firefox 140.0,1440x900,1391x788,Temporal Distance Task,cb_02,31.0,temp_dist_trial,dist_items,qkpkxw,2.0,continue,,1770.7799999999988,1766.7400000000052,1770.7799999999988,1770.7799999999988,1766.7400000000052,1770.7799999999988,1.0,0.0,0.0,,Click To Continue,Next button,7.0,object-60,temp_dist_trial,31.0,t_s_15_1,travel_shared,luggage tag,2.0,competing,paired,t_s_15_1.jpg,Travel,,,sub-08
Desktop or Laptop,Mac OS 10.15,Firefox 140.0,1440x900,1391x788,Temporal Distance Task,cb_02,31.0,temp_dist_trial,dist_items,qkpkxw,2.0,response,44,1033.3600000000006,1766.7400000000052,1770.7799999999988,1033.3600000000006,1766.7400000000052,1770.7799999999988,1.0,737.4199999999984,0.0,,Slider,Slider,4.0,object-56,temp_dist_trial,31.0,t_s_15_1,travel_shared,luggage tag,2.0,competing,paired,t_s_15_1.jpg,Travel,,,sub-08
Desktop or Laptop,Mac OS 10.15,Firefox 140.0,1440x900,1391x788,Temporal Distance Task,cb_02,32.0,temp_dist_trial,num_items,zn7si1,1.0,response,1_ITEM,920.0399999999936,916.679999999993,920.0399999999936,920.0399999999936,916.679999999993,920.0399999999936,1.0,0.0,0.0,,Click Response,1_count,3.0,object-46,temp_dist_trial,32.0,t_i_18_1,travel_Iceland,ski mask,2.0,unique,single,t_i_18_1.jpg,Travel,,,sub-08
Desktop or Laptop,Mac OS 10.15,Firefox 140.0,1440x900,1391x788,Temporal Distance Task,cb_02,33.0,temp_dist_trial,num_items,zn7si1,1.0,response,2_ITEM,1237.3399999999965,1233.3999999999942,1237.3399999999965,1237.3399999999965,1233.3999999999942,1237.3399999999965,1.0,0.0,0.0,,Click Response,2_count,5.0,object-49,temp_dist_trial,33.0,t_s_05_1,travel_shared,neck pillow,2.0,competing,paired,t_s_05_1.jpg,Travel,,,sub-08
Desktop or Laptop,Mac OS 10.15,Firefox 140.0,1440x900,1391x788,Temporal Distance Task,cb_02,33.0,temp_dist_trial,dist_items,qkpkxw,2.0,info,,9.919999999998254,0.0,9.919999999998254,9.919999999998254,0.0,9.919999999998254,1.0,0.0,0.0,,Slider,Slider,4.0,object-56,temp_dist_trial,33.0,t_s_05_1,travel_shared,neck pillow,2.0,competing,paired,t_s_05_1.jpg,Travel,,,sub-08
Desktop or Laptop,Mac OS 10.15,Firefox 140.0,1440x900,1391x788,Temporal Distance Task,cb_02,33.0,temp_dist_trial,dist_items,qkpkxw,2.0,continue,,1669.9199999999985,1666.6999999999966,1669.9199999999985,1669.9199999999985,1666.6999999999966,1669.9199999999985,1.0,0.0,0.0,,Click To Continue,Next button,7.0,object-60,temp_dist_trial,33.0,t_s_05_1,travel_shared,neck pillow,2.0,competing,paired,t_s_05_1.jpg,Travel,,,sub-08
Desktop or Laptop,Mac OS 10.15,Firefox 140.0,1440x900,1391x788,Temporal Distance Task,cb_02,33.0,temp_dist_trial,dist_items,qkpkxw,2.0,response,41,750.0,1666.6999999999966,1670.9199999999985,750.0,1666.6999999999966,1670.9199999999985,1.0,920.9199999999984,0.0,,Slider,Slider,4.0,object-56,temp_dist_trial,33.0,t_s_05_1,travel_shared,neck pillow,2.0,competing,paired,t_s_05_1.jpg,Travel,,,sub-08
Desktop or Laptop,Mac OS 10.15,Firefox 140.0,1440x900,1391x788,Temporal Distance Task,cb_02,34.0,temp_dist_trial,num_items,zn7si1,1.0,response,1_ITEM,1404.2200000000012,1400.0599999999977,1404.2200000000012,1404.2200000000012,1400.0599999999977,1404.2200000000012,1.0,0.0,0.0,,Click Response,1_count,3.0,object-46,temp_dist_trial,34.0,t_s_20_1,travel_shared,travel pill case,2.0,competing,paired,t_s_20_1.jpg,Travel,,,sub-08
Desktop or Laptop,Mac OS 10.15,Firefox 140.0,1440x900,1391x788,Temporal Distance Task,cb_02,35.0,temp_dist_trial,num_items,zn7si1,1.0,response,1_ITEM,1019.1600000000036,1015.8399999999964,1019.1600000000036,1019.1600000000036,1015.8399999999964,1019.1600000000036,1.0,0.0,0.0,,Click Response,1_count,3.0,object-46,temp_dist_trial,35.0,t_i_10_1,travel_Iceland,trekking poles,2.0,unique,paired,t_i_10_1.jpg,Travel,,,sub-08
Desktop or Laptop,Mac OS 10.15,Firefox 140.0,1440x900,1391x788,Temporal Distance Task,cb_02,36.0,temp_dist_trial,num_items,zn7si1,1.0,response,2_ITEM,1120.4400000000023,1116.6999999999969,1120.4400000000023,1120.4400000000023,1116.6999999999969,1120.4400000000023,1.0,0.0,0.0,,Click Response,2_count,5.0,object-49,temp_dist_trial,36.0,t_s_08_1,travel_shared,hand lotion,2.0,competing,paired,t_s_08_1.jpg,Travel,,,sub-08
Desktop or Laptop,Mac OS 10.15,Firefox 140.0,1440x900,1391x788,Temporal Distance Task,cb_02,36.0,temp_dist_trial,dist_items,qkpkxw,2.0,info,,10.720000000001164,0.0,10.720000000001164,10.720000000001164,0.0,10.720000000001164,1.0,0.0,0.0,,Slider,Slider,4.0,object-56,temp_dist_trial,36.0,t_s_08_1,travel_shared,hand lotion,2.0,competing,paired,t_s_08_1.jpg,Travel,,,sub-08
Desktop or Laptop,Mac OS 10.15,Firefox 140.0,1440x900,1391x788,Temporal Distance Task,cb_02,36.0,temp_dist_trial,dist_items,qkpkxw,2.0,continue,,1753.7200000000012,1750.0800000000015,1753.7200000000012,1753.7200000000012,1750.0800000000015,1753.7200000000012,1.0,0.0,0.0,,Click To Continue,Next button,7.0,object-60,temp_dist_trial,36.0,t_s_08_1,travel_shared,hand lotion,2.0,competing,paired,t_s_08_1.jpg,Travel,,,sub-08
Desktop or Laptop,Mac OS 10.15,Firefox 140.0,1440x900,1391x788,Temporal Distance Task,cb_02,36.0,temp_dist_trial,dist_items,qkpkxw,2.0,response,65,800.0200000000041,1750.0800000000015,1753.7200000000012,800.0200000000041,1750.0800000000015,1753.7200000000012,1.0,953.6999999999972,0.0,,Slider,Slider,4.0,object-56,temp_dist_trial,36.0,t_s_08_1,travel_shared,hand lotion,2.0,competing,paired,t_s_08_1.jpg,Travel,,,sub-08
Desktop or Laptop,Mac OS 10.15,Firefox 140.0,1440x900,1391x788,Temporal Distance Task,cb_02,37.0,temp_dist_trial,num_items,zn7si1,1.0,response,1_ITEM,1153.6399999999996,1150.020000000004,1153.6399999999996,1153.6399999999996,1150.020000000004,1153.6399999999996,1.0,0.0,0.0,,Click Response,1_count,3.0,object-46,temp_dist_trial,37.0,t_m_03_1,travel_Miami,wetsuit,2.0,unique,single,t_m_03_1.jpg,Travel,,,sub-08
Desktop or Laptop,Mac OS 10.15,Firefox 140.0,1440x900,1391x788,Temporal Distance Task,cb_02,38.0,temp_dist_trial,num_items,zn7si1,1.0,response,1_ITEM,987.5800000000016,983.3600000000006,987.5800000000016,987.5800000000016,983.3600000000006,987.5800000000016,1.0,0.0,0.0,,Click Response,1_count,3.0,object-46,temp_dist_trial,38.0,t_s_22_1,travel_shared,belt,2.0,competing,paired,t_s_22_1.jpg,Travel,,,sub-08
Desktop or Laptop,Mac OS 10.15,Firefox 140.0,1440x900,1391x788,Temporal Distance Task,cb_02,39.0,temp_dist_trial,num_items,zn7si1,1.0,response,1_ITEM,1086.2200000000012,1083.3600000000006,1086.2200000000012,1086.2200000000012,1083.3600000000006,1086.2200000000012,1.0,0.0,0.0,,Click Response,1_count,3.0,object-46,temp_dist_trial,39.0,t_m_07_1,travel_Miami,sunglasses,2.0,unique,single,t_m_07_1.jpg,Travel,,,sub-08
Desktop or Laptop,Mac OS 10.15,Firefox 140.0,1440x900,1391x788,Temporal Distance Task,cb_02,40.0,temp_dist_trial,num_items,zn7si1,1.0,response,2_ITEM,853.8399999999965,849.1600000000035,853.8399999999965,853.8399999999965,849.1600000000035,853.8399999999965,1.0,0.0,0.0,,Click Response,2_count,5.0,object-49,temp_dist_trial,40.0,t_s_19_1,travel_shared,pajamas,2.0,competing,paired,t_s_19_1.jpg,Travel,,,sub-08
Desktop or Laptop,Mac OS 10.15,Firefox 140.0,1440x900,1391x788,Temporal Distance Task,cb_02,40.0,temp_dist_trial,dist_items,qkpkxw,2.0,info,,8.80000000000291,0.0,8.80000000000291,8.80000000000291,0.0,8.80000000000291,1.0,0.0,0.0,,Slider,Slider,4.0,object-56,temp_dist_trial,40.0,t_s_19_1,travel_shared,pajamas,2.0,competing,paired,t_s_19_1.jpg,Travel,,,sub-08
Desktop or Laptop,Mac OS 10.15,Firefox 140.0,1440x900,1391x788,Temporal Distance Task,cb_02,40.0,temp_dist_trial,dist_items,qkpkxw,2.0,continue,,1552.8000000000034,1549.9600000000064,1552.8000000000034,1552.8000000000034,1549.9600000000064,1552.8000000000034,1.0,0.0,0.0,,Click To Continue,Next button,7.0,object-60,temp_dist_trial,40.0,t_s_19_1,travel_shared,pajamas,2.0,competing,paired,t_s_19_1.jpg,Travel,,,sub-08
Desktop or Laptop,Mac OS 10.15,Firefox 140.0,1440x900,1391x788,Temporal Distance Task,cb_02,40.0,temp_dist_trial,dist_items,qkpkxw,2.0,response,41,833.4000000000087,1549.9600000000064,1553.8000000000034,833.4000000000087,1549.9600000000064,1553.8000000000034,1.0,720.3999999999942,0.0,,Slider,Slider,4.0,object-56,temp_dist_trial,40.0,t_s_19_1,travel_shared,pajamas,2.0,competing,paired,t_s_19_1.jpg,Travel,,,sub-08
Desktop or Laptop,Mac OS 10.15,Firefox 140.0,1440x900,1391x788,Temporal Distance Task,cb_02,41.0,temp_dist_trial,num_items,zn7si1,1.0,response,2_ITEM,1286.8399999999965,1283.479999999996,1286.8399999999965,1286.8399999999965,1283.479999999996,1286.8399999999965,1.0,0.0,0.0,,Click Response,2_count,5.0,object-49,temp_dist_trial,41.0,t_i_05_1,travel_Iceland,hiking boots,2.0,unique,paired,t_i_05_1.jpg,Travel,,,sub-08
Desktop or Laptop,Mac OS 10.15,Firefox 140.0,1440x900,1391x788,Temporal Distance Task,cb_02,41.0,temp_dist_trial,dist_items,qkpkxw,2.0,info,,10.360000000000582,0.0,10.360000000000582,10.360000000000582,0.0,10.360000000000582,1.0,0.0,0.0,,Slider,Slider,4.0,object-56,temp_dist_trial,41.0,t_i_05_1,travel_Iceland,hiking boots,2.0,unique,paired,t_i_05_1.jpg,Travel,,,sub-08
Desktop or Laptop,Mac OS 10.15,Firefox 140.0,1440x900,1391x788,Temporal Distance Task,cb_02,41.0,temp_dist_trial,dist_items,qkpkxw,2.0,continue,,1538.3600000000006,1533.3999999999942,1538.3600000000006,1538.3600000000006,1533.3999999999942,1538.3600000000006,1.0,0.0,0.0,,Click To Continue,Next button,7.0,object-60,temp_dist_trial,41.0,t_i_05_1,travel_Iceland,hiking boots,2.0,unique,paired,t_i_05_1.jpg,Travel,,,sub-08
Desktop or Laptop,Mac OS 10.15,Firefox 140.0,1440x900,1391x788,Temporal Distance Task,cb_02,41.0,temp_dist_trial,dist_items,qkpkxw,2.0,response,41,700.0399999999936,1533.3999999999942,1538.3600000000006,700.0399999999936,1533.3999999999942,1538.3600000000006,1.0,838.320000000007,0.0,,Slider,Slider,4.0,object-56,temp_dist_trial,41.0,t_i_05_1,travel_Iceland,hiking boots,2.0,unique,paired,t_i_05_1.jpg,Travel,,,sub-08
Desktop or Laptop,Mac OS 10.15,Firefox 140.0,1440x900,1391x788,Temporal Distance Task,cb_02,42.0,temp_dist_trial,num_items,zn7si1,1.0,response,2_ITEM,1187.9600000000066,1183.3800000000192,1187.9600000000066,1187.9600000000066,1183.3800000000192,1187.9600000000066,1.0,0.0,0.0,,Click Response,2_count,5.0,object-49,temp_dist_trial,42.0,t_i_08_1,travel_Iceland,thick socks,2.0,unique,paired,t_i_08_1.jpg,Travel,,,sub-08
Desktop or Laptop,Mac OS 10.15,Firefox 140.0,1440x900,1391x788,Temporal Distance Task,cb_02,42.0,temp_dist_trial,dist_items,qkpkxw,2.0,info,,4.579999999987193,0.0,4.579999999987193,4.579999999987193,0.0,4.579999999987193,1.0,0.0,0.0,,Slider,Slider,4.0,object-56,temp_dist_trial,42.0,t_i_08_1,travel_Iceland,thick socks,2.0,unique,paired,t_i_08_1.jpg,Travel,,,sub-08
Desktop or Laptop,Mac OS 10.15,Firefox 140.0,1440x900,1391x788,Temporal Distance Task,cb_02,42.0,temp_dist_trial,dist_items,qkpkxw,2.0,continue,,2287.5799999999867,2283.359999999986,2287.5799999999867,2287.5799999999867,2283.359999999986,2287.5799999999867,1.0,0.0,0.0,,Click To Continue,Next button,7.0,object-60,temp_dist_trial,42.0,t_i_08_1,travel_Iceland,thick socks,2.0,unique,paired,t_i_08_1.jpg,Travel,,,sub-08
Desktop or Laptop,Mac OS 10.15,Firefox 140.0,1440x900,1391x788,Temporal Distance Task,cb_02,42.0,temp_dist_trial,dist_items,qkpkxw,2.0,response,32,783.3799999999756,2283.359999999986,2287.5799999999867,783.3799999999756,2283.359999999986,2287.5799999999867,1.0,1504.2000000000116,0.0,,Slider,Slider,4.0,object-56,temp_dist_trial,42.0,t_i_08_1,travel_Iceland,thick socks,2.0,unique,paired,t_i_08_1.jpg,Travel,,,sub-08
Desktop or Laptop,Mac OS 10.15,Firefox 140.0,1440x900,1391x788,Temporal Distance Task,cb_02,43.0,temp_dist_trial,num_items,zn7si1,1.0,response,2_ITEM,1019.2200000000012,1016.7600000000093,1019.2200000000012,1019.2200000000012,1016.7600000000093,1019.2200000000012,1.0,0.0,0.0,,Click Response,2_count,5.0,object-49,temp_dist_trial,43.0,t_m_15_1,travel_Miami,shorts,2.0,unique,paired,t_m_15_1.jpg,Travel,,,sub-08
Desktop or Laptop,Mac OS 10.15,Firefox 140.0,1440x900,1391x788,Temporal Distance Task,cb_02,43.0,temp_dist_trial,dist_items,qkpkxw,2.0,info,,9.440000000002328,0.0,9.440000000002328,9.440000000002328,0.0,9.440000000002328,1.0,0.0,0.0,,Slider,Slider,4.0,object-56,temp_dist_trial,43.0,t_m_15_1,travel_Miami,shorts,2.0,unique,paired,t_m_15_1.jpg,Travel,,,sub-08
Desktop or Laptop,Mac OS 10.15,Firefox 140.0,1440x900,1391x788,Temporal Distance Task,cb_02,43.0,temp_dist_trial,dist_items,qkpkxw,2.0,continue,,2037.4400000000023,2033.0599999999977,2037.4400000000023,2037.4400000000023,2033.0599999999977,2037.4400000000023,1.0,0.0,0.0,,Click To Continue,Next button,7.0,object-60,temp_dist_trial,43.0,t_m_15_1,travel_Miami,shorts,2.0,unique,paired,t_m_15_1.jpg,Travel,,,sub-08
Desktop or Laptop,Mac OS 10.15,Firefox 140.0,1440x900,1391x788,Temporal Distance Task,cb_02,43.0,temp_dist_trial,dist_items,qkpkxw,2.0,response,58,816.7000000000116,2033.0599999999977,2037.4400000000023,816.7000000000116,2033.0599999999977,2037.4400000000023,1.0,1220.7399999999907,0.0,,Slider,Slider,4.0,object-56,temp_dist_trial,43.0,t_m_15_1,travel_Miami,shorts,2.0,unique,paired,t_m_15_1.jpg,Travel,,,sub-08
Desktop or Laptop,Mac OS 10.15,Firefox 140.0,1440x900,1391x788,Temporal Distance Task,cb_02,44.0,temp_dist_trial,num_items,zn7si1,1.0,response,2_ITEM,1021.3800000000048,1016.5200000000186,1021.3800000000048,1021.3800000000048,1016.5200000000186,1021.3800000000048,1.0,0.0,0.0,,Click Response,2_count,5.0,object-49,temp_dist_trial,44.0,t_s_14_1,travel_shared,hand sanitizer,2.0,competing,single,t_s_14_1.jpg,Travel,,,sub-08
Desktop or Laptop,Mac OS 10.15,Firefox 140.0,1440x900,1391x788,Temporal Distance Task,cb_02,44.0,temp_dist_trial,dist_items,qkpkxw,2.0,info,,11.320000000006983,0.0,11.320000000006983,11.320000000006983,0.0,11.320000000006983,1.0,0.0,0.0,,Slider,Slider,4.0,object-56,temp_dist_trial,44.0,t_s_14_1,travel_shared,hand sanitizer,2.0,competing,single,t_s_14_1.jpg,Travel,,,sub-08
Desktop or Laptop,Mac OS 10.15,Firefox 140.0,1440x900,1391x788,Temporal Distance Task,cb_02,44.0,temp_dist_trial,dist_items,qkpkxw,2.0,continue,,2220.320000000007,2216.7600000000093,2220.320000000007,2220.320000000007,2216.7600000000093,2220.320000000007,1.0,0.0,0.0,,Click To Continue,Next button,7.0,object-60,temp_dist_trial,44.0,t_s_14_1,travel_shared,hand sanitizer,2.0,competing,single,t_s_14_1.jpg,Travel,,,sub-08
Desktop or Laptop,Mac OS 10.15,Firefox 140.0,1440x900,1391x788,Temporal Distance Task,cb_02,44.0,temp_dist_trial,dist_items,qkpkxw,2.0,response,56,1083.3800000000047,2216.7600000000093,2223.320000000007,1083.3800000000047,2216.7600000000093,2223.320000000007,1.0,1139.9400000000023,0.0,,Slider,Slider,4.0,object-56,temp_dist_trial,44.0,t_s_14_1,travel_shared,hand sanitizer,2.0,competing,single,t_s_14_1.jpg,Travel,,,sub-08
Desktop or Laptop,Mac OS 10.15,Firefox 140.0,1440x900,1391x788,Temporal Distance Task,cb_02,45.0,temp_dist_trial,num_items,zn7si1,1.0,response,2_ITEM,1154.5599999999977,1150.040000000008,1154.5599999999977,1154.5599999999977,1150.040000000008,1154.5599999999977,1.0,0.0,0.0,,Click Response,2_count,5.0,object-49,temp_dist_trial,45.0,t_s_10_1,travel_shared,luggage lock,2.0,competing,paired,t_s_10_1.jpg,Travel,,,sub-08
Desktop or Laptop,Mac OS 10.15,Firefox 140.0,1440x900,1391x788,Temporal Distance Task,cb_02,45.0,temp_dist_trial,dist_items,qkpkxw,2.0,info,,9.480000000010476,0.0,9.480000000010476,9.480000000010476,0.0,9.480000000010476,1.0,0.0,0.0,,Slider,Slider,4.0,object-56,temp_dist_trial,45.0,t_s_10_1,travel_shared,luggage lock,2.0,competing,paired,t_s_10_1.jpg,Travel,,,sub-08
Desktop or Laptop,Mac OS 10.15,Firefox 140.0,1440x900,1391x788,Temporal Distance Task,cb_02,45.0,temp_dist_trial,dist_items,qkpkxw,2.0,continue,,2253.4800000000105,2250.0599999999977,2253.4800000000105,2253.4800000000105,2250.0599999999977,2253.4800000000105,1.0,0.0,0.0,,Click To Continue,Next button,7.0,object-60,temp_dist_trial,45.0,t_s_10_1,travel_shared,luggage lock,2.0,competing,paired,t_s_10_1.jpg,Travel,,,sub-08
Desktop or Laptop,Mac OS 10.15,Firefox 140.0,1440x900,1391x788,Temporal Distance Task,cb_02,45.0,temp_dist_trial,dist_items,qkpkxw,2.0,response,48,1516.7400000000198,2250.0599999999977,2254.4800000000105,1516.7400000000198,2250.0599999999977,2254.4800000000105,1.0,737.7399999999907,0.0,,Slider,Slider,4.0,object-56,temp_dist_trial,45.0,t_s_10_1,travel_shared,luggage lock,2.0,competing,paired,t_s_10_1.jpg,Travel,,,sub-08
Desktop or Laptop,Mac OS 10.15,Firefox 140.0,1440x900,1391x788,Temporal Distance Task,cb_02,46.0,temp_dist_trial,num_items,zn7si1,1.0,response,1_ITEM,1336.4200000000128,1333.3800000000047,1336.4200000000128,1336.4200000000128,1333.3800000000047,1336.4200000000128,1.0,0.0,0.0,,Click Response,1_count,3.0,object-46,temp_dist_trial,46.0,t_s_12_1,travel_shared,clear toiletry bag,2.0,competing,single,t_s_12_1.jpg,Travel,,,sub-08
Desktop or Laptop,Mac OS 10.15,Firefox 140.0,1440x900,1391x788,Temporal Distance Task,cb_02,47.0,temp_dist_trial,num_items,zn7si1,1.0,response,1_ITEM,1191.0199999999895,1183.359999999986,1191.0199999999895,1191.0199999999895,1183.359999999986,1191.0199999999895,1.0,0.0,0.0,,Click Response,1_count,3.0,object-46,temp_dist_trial,47.0,t_i_13_1,travel_Iceland,sleeping bag,2.0,unique,paired,t_i_13_1.jpg,Travel,,,sub-08
Desktop or Laptop,Mac OS 10.15,Firefox 140.0,1440x900,1391x788,Temporal Distance Task,cb_02,48.0,temp_dist_trial,num_items,zn7si1,1.0,response,1_ITEM,1770.640000000014,1766.7400000000198,1770.640000000014,1770.640000000014,1766.7400000000198,1770.640000000014,1.0,0.0,0.0,,Click Response,1_count,3.0,object-46,temp_dist_trial,48.0,t_m_16_1,travel_Miami,flippers,2.0,unique,paired,t_m_16_1.jpg,Travel,,,sub-08
Desktop or Laptop,Mac OS 10.15,Firefox 140.0,1440x900,1391x788,Temporal Distance Task,cb_02,2.0,temp_eventStart,Screen 1,dgtyxe,1.0,continue,,1204.8999999999942,1199.1999999999825,1204.8999999999942,1204.8999999999942,1199.1999999999825,1204.8999999999942,1.0,0.0,0.0,,Click To Continue,Next Button,3.0,object-43,temp_eventStart,,,Student,,,,,,,,,sub-08
Desktop or Laptop,Mac OS 10.15,Firefox 140.0,1440x900,1391x788,Temporal Distance Task,cb_02,49.0,temp_dist_trial,num_items,zn7si1,1.0,response,1_ITEM,1621.7000000000116,1617.5800000000165,1621.7000000000116,1621.7000000000116,1617.5800000000165,1621.7000000000116,1.0,0.0,0.0,,Click Response,1_count,3.0,object-46,temp_dist_trial,1.0,s_sh_24_1,student_shared,desk organizer,2.0,competing,single,s_sh_24_1.jpg,Student,,,sub-08
Desktop or Laptop,Mac OS 10.15,Firefox 140.0,1440x900,1391x788,Temporal Distance Task,cb_02,50.0,temp_dist_trial,num_items,zn7si1,1.0,response,1_ITEM,1537.1199999999951,1533.3999999999942,1537.1199999999951,1537.1199999999951,1533.3999999999942,1537.1199999999951,1.0,0.0,0.0,,Click Response,1_count,3.0,object-46,temp_dist_trial,2.0,s_sh_12_1,student_shared,binder,2.0,competing,single,s_sh_12_1.jpg,Student,,,sub-08
Desktop or Laptop,Mac OS 10.15,Firefox 140.0,1440x900,1391x788,Temporal Distance Task,cb_02,51.0,temp_dist_trial,num_items,zn7si1,1.0,response,1_ITEM,1288.4800000000105,1284.1600000000035,1288.4800000000105,1288.4800000000105,1284.1600000000035,1288.4800000000105,1.0,0.0,0.0,,Click Response,1_count,3.0,object-46,temp_dist_trial,3.0,s_sh_13_1,student_shared,index cards,2.0,competing,single,s_sh_13_1.jpg,Student,,,sub-08
Desktop or Laptop,Mac OS 10.15,Firefox 140.0,1440x900,1391x788,Temporal Distance Task,cb_02,52.0,temp_dist_trial,num_items,zn7si1,1.0,response,1_ITEM,1303.320000000007,1300.040000000008,1303.320000000007,1303.320000000007,1300.040000000008,1303.320000000007,1.0,0.0,0.0,,Click Response,1_count,3.0,object-46,temp_dist_trial,4.0,s_s_05_1,student_stem,lab goggles,2.0,unique,paired,s_s_05_1.jpg,Student,,,sub-08
Desktop or Laptop,Mac OS 10.15,Firefox 140.0,1440x900,1391x788,Temporal Distance Task,cb_02,53.0,temp_dist_trial,num_items,zn7si1,1.0,response,1_ITEM,1321.2600000000093,1316.7200000000012,1321.2600000000093,1321.2600000000093,1316.7200000000012,1321.2600000000093,1.0,0.0,0.0,,Click Response,1_count,3.0,object-46,temp_dist_trial,5.0,s_a_05_1,student_art,clay,2.0,unique,single,s_a_05_1.jpg,Student,,,sub-08
Desktop or Laptop,Mac OS 10.15,Firefox 140.0,1440x900,1391x788,Temporal Distance Task,cb_02,54.0,temp_dist_trial,num_items,zn7si1,1.0,response,2_ITEM,1021.5199999999896,1016.6999999999823,1021.5199999999896,1021.5199999999896,1016.6999999999823,1021.5199999999896,1.0,0.0,0.0,,Click Response,2_count,5.0,object-49,temp_dist_trial,6.0,s_sh_18_1,student_shared,wall calendar,2.0,competing,paired,s_sh_18_1.jpg,Student,,,sub-08
Desktop or Laptop,Mac OS 10.15,Firefox 140.0,1440x900,1391x788,Temporal Distance Task,cb_02,54.0,temp_dist_trial,dist_items,qkpkxw,2.0,info,,10.820000000006983,0.0,10.820000000006983,10.820000000006983,0.0,10.820000000006983,1.0,0.0,0.0,,Slider,Slider,4.0,object-56,temp_dist_trial,6.0,s_sh_18_1,student_shared,wall calendar,2.0,competing,paired,s_sh_18_1.jpg,Student,,,sub-08
Desktop or Laptop,Mac OS 10.15,Firefox 140.0,1440x900,1391x788,Temporal Distance Task,cb_02,54.0,temp_dist_trial,dist_items,qkpkxw,2.0,continue,,1403.820000000007,1399.0800000000165,1403.820000000007,1403.820000000007,1399.0800000000165,1403.820000000007,1.0,0.0,0.0,,Click To Continue,Next button,7.0,object-60,temp_dist_trial,6.0,s_sh_18_1,student_shared,wall calendar,2.0,competing,paired,s_sh_18_1.jpg,Student,,,sub-08
Desktop or Laptop,Mac OS 10.15,Firefox 140.0,1440x900,1391x788,Temporal Distance Task,cb_02,54.0,temp_dist_trial,dist_items,qkpkxw,2.0,response,58,550.040000000008,1399.0800000000165,1404.820000000007,550.040000000008,1399.0800000000165,1404.820000000007,1.0,854.7799999999988,0.0,,Slider,Slider,4.0,object-56,temp_dist_trial,6.0,s_sh_18_1,student_shared,wall calendar,2.0,competing,paired,s_sh_18_1.jpg,Student,,,sub-08
Desktop or Laptop,Mac OS 10.15,Firefox 140.0,1440x900,1391x788,Temporal Distance Task,cb_02,55.0,temp_dist_trial,num_items,zn7si1,1.0,response,2_ITEM,1221.7399999999907,1217.679999999993,1221.7399999999907,1221.7399999999907,1217.679999999993,1221.7399999999907,1.0,0.0,0.0,,Click Response,2_count,5.0,object-49,temp_dist_trial,7.0,s_a_17_1,student_art,microphone,2.0,unique,paired,s_a_17_1.jpg,Student,,,sub-08
Desktop or Laptop,Mac OS 10.15,Firefox 140.0,1440x900,1391x788,Temporal Distance Task,cb_02,55.0,temp_dist_trial,dist_items,qkpkxw,2.0,info,,9.040000000008147,0.0,9.040000000008147,9.040000000008147,0.0,9.040000000008147,1.0,0.0,0.0,,Slider,Slider,4.0,object-56,temp_dist_trial,7.0,s_a_17_1,student_art,microphone,2.0,unique,paired,s_a_17_1.jpg,Student,,,sub-08
Desktop or Laptop,Mac OS 10.15,Firefox 140.0,1440x900,1391x788,Temporal Distance Task,cb_02,55.0,temp_dist_trial,dist_items,qkpkxw,2.0,continue,,1786.040000000008,1783.3999999999942,1786.040000000008,1786.040000000008,1783.3999999999942,1786.040000000008,1.0,0.0,0.0,,Click To Continue,Next button,7.0,object-60,temp_dist_trial,7.0,s_a_17_1,student_art,microphone,2.0,unique,paired,s_a_17_1.jpg,Student,,,sub-08
Desktop or Laptop,Mac OS 10.15,Firefox 140.0,1440x900,1391x788,Temporal Distance Task,cb_02,55.0,temp_dist_trial,dist_items,qkpkxw,2.0,response,44,766.7000000000116,1783.3999999999942,1788.040000000008,766.7000000000116,1783.3999999999942,1788.040000000008,1.0,1021.3399999999964,0.0,,Slider,Slider,4.0,object-56,temp_dist_trial,7.0,s_a_17_1,student_art,microphone,2.0,unique,paired,s_a_17_1.jpg,Student,,,sub-08
Desktop or Laptop,Mac OS 10.15,Firefox 140.0,1440x900,1391x788,Temporal Distance Task,cb_02,56.0,temp_dist_trial,num_items,zn7si1,1.0,response,1_ITEM,1121.640000000014,1116.7000000000116,1121.640000000014,1121.640000000014,1116.7000000000116,1121.640000000014,1.0,0.0,0.0,,Click Response,1_count,3.0,object-46,temp_dist_trial,8.0,s_sh_02_1,student_shared,eraser,2.0,competing,paired,s_sh_02_1.jpg,Student,,,sub-08
Desktop or Laptop,Mac OS 10.15,Firefox 140.0,1440x900,1391x788,Temporal Distance Task,cb_02,57.0,temp_dist_trial,num_items,zn7si1,1.0,response,2_ITEM,1420.9200000000128,1416.1200000000244,1420.9200000000128,1420.9200000000128,1416.1200000000244,1420.9200000000128,1.0,0.0,0.0,,Click Response,2_count,5.0,object-49,temp_dist_trial,9.0,s_a_10_1,student_art,tripod,2.0,unique,paired,s_a_10_1.jpg,Student,,,sub-08
Desktop or Laptop,Mac OS 10.15,Firefox 140.0,1440x900,1391x788,Temporal Distance Task,cb_02,57.0,temp_dist_trial,dist_items,qkpkxw,2.0,info,,9.200000000011645,0.0,9.200000000011645,9.200000000011645,0.0,9.200000000011645,1.0,0.0,0.0,,Slider,Slider,4.0,object-56,temp_dist_trial,9.0,s_a_10_1,student_art,tripod,2.0,unique,paired,s_a_10_1.jpg,Student,,,sub-08
Desktop or Laptop,Mac OS 10.15,Firefox 140.0,1440x900,1391x788,Temporal Distance Task,cb_02,57.0,temp_dist_trial,dist_items,qkpkxw,2.0,continue,,2236.200000000012,2233.4200000000133,2236.200000000012,2236.200000000012,2233.4200000000133,2236.200000000012,1.0,0.0,0.0,,Click To Continue,Next button,7.0,object-60,temp_dist_trial,9.0,s_a_10_1,student_art,tripod,2.0,unique,paired,s_a_10_1.jpg,Student,,,sub-08
Desktop or Laptop,Mac OS 10.15,Firefox 140.0,1440x900,1391x788,Temporal Distance Task,cb_02,57.0,temp_dist_trial,dist_items,qkpkxw,2.0,response,52,933.3800000000048,2233.4200000000133,2238.200000000012,933.3800000000048,2233.4200000000133,2238.200000000012,1.0,1304.820000000007,0.0,,Slider,Slider,4.0,object-56,temp_dist_trial,9.0,s_a_10_1,student_art,tripod,2.0,unique,paired,s_a_10_1.jpg,Student,,,sub-08
Desktop or Laptop,Mac OS 10.15,Firefox 140.0,1440x900,1391x788,Temporal Distance Task,cb_02,58.0,temp_dist_trial,num_items,zn7si1,1.0,response,1_ITEM,1453.7799999999988,1450.0599999999977,1453.7799999999988,1453.7799999999988,1450.0599999999977,1453.7799999999988,1.0,0.0,0.0,,Click Response,1_count,3.0,object-46,temp_dist_trial,10.0,s_sh_09_1,student_shared,paper clips,2.0,competing,paired,s_sh_09_1.jpg,Student,,,sub-08
Desktop or Laptop,Mac OS 10.15,Firefox 140.0,1440x900,1391x788,Temporal Distance Task,cb_02,59.0,temp_dist_trial,num_items,zn7si1,1.0,response,2_ITEM,1320.7200000000012,1316.7200000000012,1320.7200000000012,1320.7200000000012,1316.7200000000012,1320.7200000000012,1.0,0.0,0.0,,Click Response,2_count,5.0,object-49,temp_dist_trial,11.0,s_sh_19_1,student_shared,portable plastic drawer,2.0,competing,paired,s_sh_19_1.jpg,Student,,,sub-08
Desktop or Laptop,Mac OS 10.15,Firefox 140.0,1440x900,1391x788,Temporal Distance Task,cb_02,59.0,temp_dist_trial,dist_items,qkpkxw,2.0,info,,8.940000000002328,0.0,8.940000000002328,8.940000000002328,0.0,8.940000000002328,1.0,0.0,0.0,,Slider,Slider,4.0,object-56,temp_dist_trial,11.0,s_sh_19_1,student_shared,portable plastic drawer,2.0,competing,paired,s_sh_19_1.jpg,Student,,,sub-08
Desktop or Laptop,Mac OS 10.15,Firefox 140.0,1440x900,1391x788,Temporal Distance Task,cb_02,59.0,temp_dist_trial,dist_items,qkpkxw,2.0,continue,,1721.9400000000023,1717.679999999993,1721.9400000000023,1721.9400000000023,1717.679999999993,1721.9400000000023,1.0,0.0,0.0,,Click To Continue,Next button,7.0,object-60,temp_dist_trial,11.0,s_sh_19_1,student_shared,portable plastic drawer,2.0,competing,paired,s_sh_19_1.jpg,Student,,,sub-08
Desktop or Laptop,Mac OS 10.15,Firefox 140.0,1440x900,1391x788,Temporal Distance Task,cb_02,59.0,temp_dist_trial,dist_items,qkpkxw,2.0,response,52,967.5199999999896,1717.679999999993,1722.9400000000023,967.5199999999896,1717.679999999993,1722.9400000000023,1.0,755.4200000000128,0.0,,Slider,Slider,4.0,object-56,temp_dist_trial,11.0,s_sh_19_1,student_shared,portable plastic drawer,2.0,competing,paired,s_sh_19_1.jpg,Student,,,sub-08
Desktop or Laptop,Mac OS 10.15,Firefox 140.0,1440x900,1391x788,Temporal Distance Task,cb_02,60.0,temp_dist_trial,num_items,zn7si1,1.0,response,2_ITEM,1270.2600000000093,1266.7200000000012,1270.2600000000093,1270.2600000000093,1266.7200000000012,1270.2600000000093,1.0,0.0,0.0,,Click Response,2_count,5.0,object-49,temp_dist_trial,12.0,s_s_18_1,student_stem,brain model,2.0,unique,paired,s_s_18_1.jpg,Student,,,sub-08
Desktop or Laptop,Mac OS 10.15,Firefox 140.0,1440x900,1391x788,Temporal Distance Task,cb_02,60.0,temp_dist_trial,dist_items,qkpkxw,2.0,info,,9.540000000008147,0.0,9.540000000008147,9.540000000008147,0.0,9.540000000008147,1.0,0.0,0.0,,Slider,Slider,4.0,object-56,temp_dist_trial,12.0,s_s_18_1,student_stem,brain model,2.0,unique,paired,s_s_18_1.jpg,Student,,,sub-08
Desktop or Laptop,Mac OS 10.15,Firefox 140.0,1440x900,1391x788,Temporal Distance Task,cb_02,60.0,temp_dist_trial,dist_items,qkpkxw,2.0,continue,,1687.540000000008,1683.3999999999942,1687.540000000008,1687.540000000008,1683.3999999999942,1687.540000000008,1.0,0.0,0.0,,Click To Continue,Next button,7.0,object-60,temp_dist_trial,12.0,s_s_18_1,student_stem,brain model,2.0,unique,paired,s_s_18_1.jpg,Student,,,sub-08
Desktop or Laptop,Mac OS 10.15,Firefox 140.0,1440x900,1391x788,Temporal Distance Task,cb_02,60.0,temp_dist_trial,dist_items,qkpkxw,2.0,response,40,883.3600000000151,1683.3999999999942,1687.540000000008,883.3600000000151,1683.3999999999942,1687.540000000008,1.0,804.179999999993,0.0,,Slider,Slider,4.0,object-56,temp_dist_trial,12.0,s_s_18_1,student_stem,brain model,2.0,unique,paired,s_s_18_1.jpg,Student,,,sub-08
Desktop or Laptop,Mac OS 10.15,Firefox 140.0,1440x900,1391x788,Temporal Distance Task,cb_02,61.0,temp_dist_trial,num_items,zn7si1,1.0,response,2_ITEM,1705.140000000014,1700.0800000000165,1705.140000000014,1705.140000000014,1700.0800000000165,1705.140000000014,1.0,0.0,0.0,,Click Response,2_count,5.0,object-49,temp_dist_trial,13.0,s_a_11_1,student_art,clapperboard,2.0,unique,paired,s_a_11_1.jpg,Student,,,sub-08
Desktop or Laptop,Mac OS 10.15,Firefox 140.0,1440x900,1391x788,Temporal Distance Task,cb_02,61.0,temp_dist_trial,dist_items,qkpkxw,2.0,info,,10.059999999997672,0.0,10.059999999997672,10.059999999997672,0.0,10.059999999997672,1.0,0.0,0.0,,Slider,Slider,4.0,object-56,temp_dist_trial,13.0,s_a_11_1,student_art,clapperboard,2.0,unique,paired,s_a_11_1.jpg,Student,,,sub-08
Desktop or Laptop,Mac OS 10.15,Firefox 140.0,1440x900,1391x788,Temporal Distance Task,cb_02,61.0,temp_dist_trial,dist_items,qkpkxw,2.0,continue,,2904.0599999999977,2899.139999999985,2904.0599999999977,2904.0599999999977,2899.139999999985,2904.0599999999977,1.0,0.0,0.0,,Click To Continue,Next button,7.0,object-60,temp_dist_trial,13.0,s_a_11_1,student_art,clapperboard,2.0,unique,paired,s_a_11_1.jpg,Student,,,sub-08
Desktop or Laptop,Mac OS 10.15,Firefox 140.0,1440x900,1391x788,Temporal Distance Task,cb_02,61.0,temp_dist_trial,dist_items,qkpkxw,2.0,response,40,582.5799999999873,2899.139999999985,2907.0599999999977,582.5799999999873,2899.139999999985,2907.0599999999977,1.0,2324.4800000000105,0.0,,Slider,Slider,4.0,object-56,temp_dist_trial,13.0,s_a_11_1,student_art,clapperboard,2.0,unique,paired,s_a_11_1.jpg,Student,,,sub-08
Desktop or Laptop,Mac OS 10.15,Firefox 140.0,1440x900,1391x788,Temporal Distance Task,cb_02,62.0,temp_dist_trial,num_items,zn7si1,1.0,response,1_ITEM,1937.9200000000128,1934.3600000000156,1937.9200000000128,1937.9200000000128,1934.3600000000156,1937.9200000000128,1.0,0.0,0.0,,Click Response,1_count,3.0,object-46,temp_dist_trial,14.0,s_sh_22_1,student_shared,hole puncher,2.0,competing,paired,s_sh_22_1.jpg,Student,,,sub-08
Desktop or Laptop,Mac OS 10.15,Firefox 140.0,1440x900,1391x788,Temporal Distance Task,cb_02,63.0,temp_dist_trial,num_items,zn7si1,1.0,response,2_ITEM,1135.540000000008,1133.3999999999942,1135.540000000008,1135.540000000008,1133.3999999999942,1135.540000000008,1.0,0.0,0.0,,Click Response,2_count,5.0,object-49,temp_dist_trial,15.0,s_sh_21_1,student_shared,file holder,2.0,competing,paired,s_sh_21_1.jpg,Student,,,sub-08
Desktop or Laptop,Mac OS 10.15,Firefox 140.0,1440x900,1391x788,Temporal Distance Task,cb_02,63.0,temp_dist_trial,dist_items,qkpkxw,2.0,info,,9.14000000001397,0.0,9.14000000001397,9.14000000001397,0.0,9.14000000001397,1.0,0.0,0.0,,Slider,Slider,4.0,object-56,temp_dist_trial,15.0,s_sh_21_1,student_shared,file holder,2.0,competing,paired,s_sh_21_1.jpg,Student,,,sub-08
Desktop or Laptop,Mac OS 10.15,Firefox 140.0,1440x900,1391x788,Temporal Distance Task,cb_02,63.0,temp_dist_trial,dist_items,qkpkxw,2.0,continue,,1387.140000000014,1383.3800000000049,1387.140000000014,1387.140000000014,1383.3800000000049,1387.140000000014,1.0,0.0,0.0,,Click To Continue,Next button,7.0,object-60,temp_dist_trial,15.0,s_sh_21_1,student_shared,file holder,2.0,competing,paired,s_sh_21_1.jpg,Student,,,sub-08
Desktop or Laptop,Mac OS 10.15,Firefox 140.0,1440x900,1391x788,Temporal Distance Task,cb_02,63.0,temp_dist_trial,dist_items,qkpkxw,2.0,response,45,716.5800000000162,1383.3800000000049,1387.140000000014,716.5800000000162,1383.3800000000049,1387.140000000014,1.0,670.5599999999978,0.0,,Slider,Slider,4.0,object-56,temp_dist_trial,15.0,s_sh_21_1,student_shared,file holder,2.0,competing,paired,s_sh_21_1.jpg,Student,,,sub-08
Desktop or Laptop,Mac OS 10.15,Firefox 140.0,1440x900,1391x788,Temporal Distance Task,cb_02,64.0,temp_dist_trial,num_items,zn7si1,1.0,response,1_ITEM,1320.7600000000093,1316.7000000000114,1320.7600000000093,1320.7600000000093,1316.7000000000114,1320.7600000000093,1.0,0.0,0.0,,Click Response,1_count,3.0,object-46,temp_dist_trial,16.0,s_s_15_1,student_stem,jumper cables,2.0,unique,single,s_s_15_1.jpg,Student,,,sub-08
Desktop or Laptop,Mac OS 10.15,Firefox 140.0,1440x900,1391x788,Temporal Distance Task,cb_02,65.0,temp_dist_trial,num_items,zn7si1,1.0,response,1_ITEM,1122.0199999999895,1116.6999999999823,1122.0199999999895,1122.0199999999895,1116.6999999999823,1122.0199999999895,1.0,0.0,0.0,,Click Response,1_count,3.0,object-46,temp_dist_trial,17.0,s_sh_14_1,student_shared,printer,2.0,competing,single,s_sh_14_1.jpg,Student,,,sub-08
Desktop or Laptop,Mac OS 10.15,Firefox 140.0,1440x900,1391x788,Temporal Distance Task,cb_02,66.0,temp_dist_trial,num_items,zn7si1,1.0,response,1_ITEM,1054.320000000007,1049.8600000000154,1054.320000000007,1054.320000000007,1049.8600000000154,1054.320000000007,1.0,0.0,0.0,,Click Response,1_count,3.0,object-46,temp_dist_trial,18.0,s_sh_20_1,student_shared,tape,2.0,competing,paired,s_sh_20_1.jpg,Student,,,sub-08
Desktop or Laptop,Mac OS 10.15,Firefox 140.0,1440x900,1391x788,Temporal Distance Task,cb_02,67.0,temp_dist_trial,num_items,zn7si1,1.0,response,1_ITEM,1121.2799999999988,1116.7200000000012,1121.2799999999988,1121.2799999999988,1116.7200000000012,1121.2799999999988,1.0,0.0,0.0,,Click Response,1_count,3.0,object-46,temp_dist_trial,19.0,s_s_09_1,student_stem,multimeter,2.0,unique,paired,s_s_09_1.jpg,Student,,,sub-08
Desktop or Laptop,Mac OS 10.15,Firefox 140.0,1440x900,1391x788,Temporal Distance Task,cb_02,68.0,temp_dist_trial,num_items,zn7si1,1.0,response,1_ITEM,1253.5599999999977,1250.0599999999977,1253.5599999999977,1253.5599999999977,1250.0599999999977,1253.5599999999977,1.0,0.0,0.0,,Click Response,1_count,3.0,object-46,temp_dist_trial,20.0,s_sh_05_1,student_shared,laptop,2.0,competing,paired,s_sh_05_1.jpg,Student,,,sub-08
Desktop or Laptop,Mac OS 10.15,Firefox 140.0,1440x900,1391x788,Temporal Distance Task,cb_02,69.0,temp_dist_trial,num_items,zn7si1,1.0,response,1_ITEM,921.5,916.7000000000116,921.5,921.5,916.7000000000116,921.5,1.0,0.0,0.0,,Click Response,1_count,3.0,object-46,temp_dist_trial,21.0,s_s_19_1,student_stem,circuit board,2.0,unique,single,s_s_19_1.jpg,Student,,,sub-08
Desktop or Laptop,Mac OS 10.15,Firefox 140.0,1440x900,1391x788,Temporal Distance Task,cb_02,70.0,temp_dist_trial,num_items,zn7si1,1.0,response,1_ITEM,1586.7999999999884,1583.3999999999942,1586.7999999999884,1586.7999999999884,1583.3999999999942,1586.7999999999884,1.0,0.0,0.0,,Click Response,1_count,3.0,object-46,temp_dist_trial,22.0,s_a_14_1,student_art,guitar pick,2.0,unique,single,s_a_14_1.jpg,Student,,,sub-08
Desktop or Laptop,Mac OS 10.15,Firefox 140.0,1440x900,1391x788,Temporal Distance Task,cb_02,71.0,temp_dist_trial,num_items,zn7si1,1.0,response,1_ITEM,2036.3999999999944,2033.4400000000023,2036.3999999999944,2036.3999999999944,2033.4400000000023,2036.3999999999944,1.0,0.0,0.0,,Click Response,1_count,3.0,object-46,temp_dist_trial,23.0,s_sh_04_1,student_shared,laptop stand,2.0,competing,paired,s_sh_04_1.jpg,Student,,,sub-08
Desktop or Laptop,Mac OS 10.15,Firefox 140.0,1440x900,1391x788,Temporal Distance Task,cb_02,72.0,temp_dist_trial,num_items,zn7si1,1.0,response,1_ITEM,1403.959999999992,1400.0799999999872,1403.959999999992,1403.959999999992,1400.0799999999872,1403.959999999992,1.0,0.0,0.0,,Click Response,1_count,3.0,object-46,temp_dist_trial,24.0,s_sh_15_1,student_shared,usb drive,2.0,competing,single,s_sh_15_1.jpg,Student,,,sub-08
Desktop or Laptop,Mac OS 10.15,Firefox 140.0,1440x900,1391x788,Temporal Distance Task,cb_02,73.0,temp_dist_trial,num_items,zn7si1,1.0,response,1_ITEM,971.4800000000104,967.3000000000177,971.4800000000104,971.4800000000104,967.3000000000177,971.4800000000104,1.0,0.0,0.0,,Click Response,1_count,3.0,object-46,temp_dist_trial,25.0,s_s_12_1,student_stem,robotic arm,2.0,unique,paired,s_s_12_1.jpg,Student,,,sub-08
Desktop or Laptop,Mac OS 10.15,Firefox 140.0,1440x900,1391x788,Temporal Distance Task,cb_02,74.0,temp_dist_trial,num_items,zn7si1,1.0,response,2_ITEM,1271.2000000000114,1266.7200000000012,1271.2000000000114,1271.2000000000114,1266.7200000000012,1271.2000000000114,1.0,0.0,0.0,,Click Response,2_count,5.0,object-49,temp_dist_trial,26.0,s_sh_23_1,student_shared,ballpoint pen,2.0,competing,paired,s_sh_23_1.jpg,Student,,,sub-08
Desktop or Laptop,Mac OS 10.15,Firefox 140.0,1440x900,1391x788,Temporal Distance Task,cb_02,74.0,temp_dist_trial,dist_items,qkpkxw,2.0,info,,7.480000000010477,0.0,7.480000000010477,7.480000000010477,0.0,7.480000000010477,1.0,0.0,0.0,,Slider,Slider,4.0,object-56,temp_dist_trial,26.0,s_sh_23_1,student_shared,ballpoint pen,2.0,competing,paired,s_sh_23_1.jpg,Student,,,sub-08
Desktop or Laptop,Mac OS 10.15,Firefox 140.0,1440x900,1391x788,Temporal Distance Task,cb_02,74.0,temp_dist_trial,dist_items,qkpkxw,2.0,continue,,1787.4800000000105,1783.4200000000128,1787.4800000000105,1787.4800000000105,1783.4200000000128,1787.4800000000105,1.0,0.0,0.0,,Click To Continue,Next button,7.0,object-60,temp_dist_trial,26.0,s_sh_23_1,student_shared,ballpoint pen,2.0,competing,paired,s_sh_23_1.jpg,Student,,,sub-08
Desktop or Laptop,Mac OS 10.15,Firefox 140.0,1440x900,1391x788,Temporal Distance Task,cb_02,74.0,temp_dist_trial,dist_items,qkpkxw,2.0,response,47,700.0200000000186,1783.4200000000128,1788.4800000000105,700.0200000000186,1783.4200000000128,1788.4800000000105,1.0,1088.459999999992,0.0,,Slider,Slider,4.0,object-56,temp_dist_trial,26.0,s_sh_23_1,student_shared,ballpoint pen,2.0,competing,paired,s_sh_23_1.jpg,Student,,,sub-08
Desktop or Laptop,Mac OS 10.15,Firefox 140.0,1440x900,1391x788,Temporal Distance Task,cb_02,75.0,temp_dist_trial,num_items,zn7si1,1.0,response,1_ITEM,1738.0599999999977,1733.3800000000049,1738.0599999999977,1738.0599999999977,1733.3800000000049,1738.0599999999977,1.0,0.0,0.0,,Click Response,1_count,3.0,object-46,temp_dist_trial,27.0,s_sh_11_1,student_shared,pencil case,2.0,competing,single,s_sh_11_1.jpg,Student,,,sub-08
Desktop or Laptop,Mac OS 10.15,Firefox 140.0,1440x900,1391x788,Temporal Distance Task,cb_02,76.0,temp_dist_trial,num_items,zn7si1,1.0,response,1_ITEM,1686.640000000014,1683.3800000000049,1686.640000000014,1686.640000000014,1683.3800000000049,1686.640000000014,1.0,0.0,0.0,,Click Response,1_count,3.0,object-46,temp_dist_trial,28.0,s_a_12_1,student_art,saxophone,2.0,unique,single,s_a_12_1.jpg,Student,,,sub-08
Desktop or Laptop,Mac OS 10.15,Firefox 140.0,1440x900,1391x788,Temporal Distance Task,cb_02,77.0,temp_dist_trial,num_items,zn7si1,1.0,response,1_ITEM,1072.2600000000093,1066.7200000000012,1072.2600000000093,1072.2600000000093,1066.7200000000012,1072.2600000000093,1.0,0.0,0.0,,Click Response,1_count,3.0,object-46,temp_dist_trial,29.0,s_a_18_1,student_art,tutu,2.0,unique,single,s_a_18_1.jpg,Student,,,sub-08
Desktop or Laptop,Mac OS 10.15,Firefox 140.0,1440x900,1391x788,Temporal Distance Task,cb_02,78.0,temp_dist_trial,num_items,zn7si1,1.0,response,2_ITEM,2070.540000000008,2066.74000000002,2070.540000000008,2070.540000000008,2066.74000000002,2070.540000000008,1.0,0.0,0.0,,Click Response,2_count,5.0,object-49,temp_dist_trial,30.0,s_s_02_1,student_stem,flask,2.0,unique,paired,s_s_02_1.jpg,Student,,,sub-08
Desktop or Laptop,Mac OS 10.15,Firefox 140.0,1440x900,1391x788,Temporal Distance Task,cb_02,78.0,temp_dist_trial,dist_items,qkpkxw,2.0,info,,11.779999999998836,0.0,11.779999999998836,11.779999999998836,0.0,11.779999999998836,1.0,0.0,0.0,,Slider,Slider,4.0,object-56,temp_dist_trial,30.0,s_s_02_1,student_stem,flask,2.0,unique,paired,s_s_02_1.jpg,Student,,,sub-08
Desktop or Laptop,Mac OS 10.15,Firefox 140.0,1440x900,1391x788,Temporal Distance Task,cb_02,78.0,temp_dist_trial,dist_items,qkpkxw,2.0,continue,,1987.7799999999988,1983.4200000000128,1987.7799999999988,1987.7799999999988,1983.4200000000128,1987.7799999999988,1.0,0.0,0.0,,Click To Continue,Next button,7.0,object-60,temp_dist_trial,30.0,s_s_02_1,student_stem,flask,2.0,unique,paired,s_s_02_1.jpg,Student,,,sub-08
Desktop or Laptop,Mac OS 10.15,Firefox 140.0,1440x900,1391x788,Temporal Distance Task,cb_02,78.0,temp_dist_trial,dist_items,qkpkxw,2.0,response,42,782.7799999999988,1983.4200000000128,1990.7799999999988,782.7799999999988,1983.4200000000128,1990.7799999999988,1.0,1208.0,0.0,,Slider,Slider,4.0,object-56,temp_dist_trial,30.0,s_s_02_1,student_stem,flask,2.0,unique,paired,s_s_02_1.jpg,Student,,,sub-08
Desktop or Laptop,Mac OS 10.15,Firefox 140.0,1440x900,1391x788,Temporal Distance Task,cb_02,79.0,temp_dist_trial,num_items,zn7si1,1.0,response,1_ITEM,1354.359999999986,1350.039999999979,1354.359999999986,1354.359999999986,1350.039999999979,1354.359999999986,1.0,0.0,0.0,,Click Response,1_count,3.0,object-46,temp_dist_trial,31.0,s_sh_03_1,student_shared,highlighter,2.0,competing,paired,s_sh_03_1.jpg,Student,,,sub-08
Desktop or Laptop,Mac OS 10.15,Firefox 140.0,1440x900,1391x788,Temporal Distance Task,cb_02,80.0,temp_dist_trial,num_items,zn7si1,1.0,response,2_ITEM,1054.2999999999884,1049.679999999993,1054.2999999999884,1054.2999999999884,1049.679999999993,1054.2999999999884,1.0,0.0,0.0,,Click Response,2_count,5.0,object-49,temp_dist_trial,32.0,s_sh_06_1,student_shared,clipboard,2.0,competing,single,s_sh_06_1.jpg,Student,,,sub-08
Desktop or Laptop,Mac OS 10.15,Firefox 140.0,1440x900,1391x788,Temporal Distance Task,cb_02,80.0,temp_dist_trial,dist_items,qkpkxw,2.0,info,,10.260000000009313,0.0,10.260000000009313,10.260000000009313,0.0,10.260000000009313,1.0,0.0,0.0,,Slider,Slider,4.0,object-56,temp_dist_trial,32.0,s_sh_06_1,student_shared,clipboard,2.0,competing,single,s_sh_06_1.jpg,Student,,,sub-08
Desktop or Laptop,Mac OS 10.15,Firefox 140.0,1440x900,1391x788,Temporal Distance Task,cb_02,80.0,temp_dist_trial,dist_items,qkpkxw,2.0,continue,,1870.2600000000089,1866.7400000000202,1870.2600000000089,1870.2600000000089,1866.7400000000202,1870.2600000000089,1.0,0.0,0.0,,Click To Continue,Next button,7.0,object-60,temp_dist_trial,32.0,s_sh_06_1,student_shared,clipboard,2.0,competing,single,s_sh_06_1.jpg,Student,,,sub-08
Desktop or Laptop,Mac OS 10.15,Firefox 140.0,1440x900,1391x788,Temporal Distance Task,cb_02,80.0,temp_dist_trial,dist_items,qkpkxw,2.0,response,45,1099.3000000000177,1866.7400000000202,1871.2600000000089,1099.3000000000177,1866.7400000000202,1871.2600000000089,1.0,771.9599999999921,0.0,,Slider,Slider,4.0,object-56,temp_dist_trial,32.0,s_sh_06_1,student_shared,clipboard,2.0,competing,single,s_sh_06_1.jpg,Student,,,sub-08
Desktop or Laptop,Mac OS 10.15,Firefox 140.0,1440x900,1391x788,Temporal Distance Task,cb_02,81.0,temp_dist_trial,num_items,zn7si1,1.0,response,2_ITEM,1304.5199999999895,1299.179999999993,1304.5199999999895,1304.5199999999895,1299.179999999993,1304.5199999999895,1.0,0.0,0.0,,Click Response,2_count,5.0,object-49,temp_dist_trial,33.0,s_s_01_1,student_stem,microscope,2.0,unique,paired,s_s_01_1.jpg,Student,,,sub-08
Desktop or Laptop,Mac OS 10.15,Firefox 140.0,1440x900,1391x788,Temporal Distance Task,cb_02,81.0,temp_dist_trial,dist_items,qkpkxw,2.0,info,,14.299999999988358,0.0,14.299999999988358,14.299999999988358,0.0,14.299999999988358,1.0,0.0,0.0,,Slider,Slider,4.0,object-56,temp_dist_trial,33.0,s_s_01_1,student_stem,microscope,2.0,unique,paired,s_s_01_1.jpg,Student,,,sub-08
Desktop or Laptop,Mac OS 10.15,Firefox 140.0,1440x900,1391x788,Temporal Distance Task,cb_02,81.0,temp_dist_trial,dist_items,qkpkxw,2.0,continue,,1670.2999999999884,1667.5599999999977,1670.2999999999884,1670.2999999999884,1667.5599999999977,1670.2999999999884,1.0,0.0,0.0,,Click To Continue,Next button,7.0,object-60,temp_dist_trial,33.0,s_s_01_1,student_stem,microscope,2.0,unique,paired,s_s_01_1.jpg,Student,,,sub-08
Desktop or Laptop,Mac OS 10.15,Firefox 140.0,1440x900,1391x788,Temporal Distance Task,cb_02,81.0,temp_dist_trial,dist_items,qkpkxw,2.0,response,46,617.539999999979,1667.5599999999977,1671.2999999999884,617.539999999979,1667.5599999999977,1671.2999999999884,1.0,1053.7600000000093,0.0,,Slider,Slider,4.0,object-56,temp_dist_trial,33.0,s_s_01_1,student_stem,microscope,2.0,unique,paired,s_s_01_1.jpg,Student,,,sub-08
Desktop or Laptop,Mac OS 10.15,Firefox 140.0,1440x900,1391x788,Temporal Distance Task,cb_02,82.0,temp_dist_trial,num_items,zn7si1,1.0,response,2_ITEM,1204.7399999999907,1200.0599999999977,1204.7399999999907,1204.7399999999907,1200.0599999999977,1204.7399999999907,1.0,0.0,0.0,,Click Response,2_count,5.0,object-49,temp_dist_trial,34.0,s_a_20_1,student_art,pin cushion,2.0,unique,paired,s_a_20_1.jpg,Student,,,sub-08
Desktop or Laptop,Mac OS 10.15,Firefox 140.0,1440x900,1391x788,Temporal Distance Task,cb_02,82.0,temp_dist_trial,dist_items,qkpkxw,2.0,info,,9.700000000011645,0.0,9.700000000011645,9.700000000011645,0.0,9.700000000011645,1.0,0.0,0.0,,Slider,Slider,4.0,object-56,temp_dist_trial,34.0,s_a_20_1,student_art,pin cushion,2.0,unique,paired,s_a_20_1.jpg,Student,,,sub-08
Desktop or Laptop,Mac OS 10.15,Firefox 140.0,1440x900,1391x788,Temporal Distance Task,cb_02,82.0,temp_dist_trial,dist_items,qkpkxw,2.0,continue,,1586.7000000000116,1583.4200000000128,1586.7000000000116,1586.7000000000116,1583.4200000000128,1586.7000000000116,1.0,0.0,0.0,,Click To Continue,Next button,7.0,object-60,temp_dist_trial,34.0,s_a_20_1,student_art,pin cushion,2.0,unique,paired,s_a_20_1.jpg,Student,,,sub-08
Desktop or Laptop,Mac OS 10.15,Firefox 140.0,1440x900,1391x788,Temporal Distance Task,cb_02,82.0,temp_dist_trial,dist_items,qkpkxw,2.0,response,60,533.3800000000047,1583.4200000000128,1589.7000000000116,533.3800000000047,1583.4200000000128,1589.7000000000116,1.0,1056.320000000007,0.0,,Slider,Slider,4.0,object-56,temp_dist_trial,34.0,s_a_20_1,student_art,pin cushion,2.0,unique,paired,s_a_20_1.jpg,Student,,,sub-08
Desktop or Laptop,Mac OS 10.15,Firefox 140.0,1440x900,1391x788,Temporal Distance Task,cb_02,83.0,temp_dist_trial,num_items,zn7si1,1.0,response,2_ITEM,971.2799999999988,966.7000000000116,971.2799999999988,971.2799999999988,966.7000000000116,971.2799999999988,1.0,0.0,0.0,,Click Response,2_count,5.0,object-49,temp_dist_trial,35.0,s_s_04_1,student_stem,bunsen burner,2.0,unique,paired,s_s_04_1.jpg,Student,,,sub-08
Desktop or Laptop,Mac OS 10.15,Firefox 140.0,1440x900,1391x788,Temporal Distance Task,cb_02,83.0,temp_dist_trial,dist_items,qkpkxw,2.0,info,,10.579999999987193,0.0,10.579999999987193,10.579999999987193,0.0,10.579999999987193,1.0,0.0,0.0,,Slider,Slider,4.0,object-56,temp_dist_trial,35.0,s_s_04_1,student_stem,bunsen burner,2.0,unique,paired,s_s_04_1.jpg,Student,,,sub-08
Desktop or Laptop,Mac OS 10.15,Firefox 140.0,1440x900,1391x788,Temporal Distance Task,cb_02,83.0,temp_dist_trial,dist_items,qkpkxw,2.0,continue,,2286.5799999999867,2283.419999999984,2286.5799999999867,2286.5799999999867,2283.419999999984,2286.5799999999867,1.0,0.0,0.0,,Click To Continue,Next button,7.0,object-60,temp_dist_trial,35.0,s_s_04_1,student_stem,bunsen burner,2.0,unique,paired,s_s_04_1.jpg,Student,,,sub-08
Desktop or Laptop,Mac OS 10.15,Firefox 140.0,1440x900,1391x788,Temporal Distance Task,cb_02,83.0,temp_dist_trial,dist_items,qkpkxw,2.0,response,51,1133.3799999999753,2283.419999999984,2287.5799999999867,1133.3799999999753,2283.419999999984,2287.5799999999867,1.0,1154.2000000000114,0.0,,Slider,Slider,4.0,object-56,temp_dist_trial,35.0,s_s_04_1,student_stem,bunsen burner,2.0,unique,paired,s_s_04_1.jpg,Student,,,sub-08
Desktop or Laptop,Mac OS 10.15,Firefox 140.0,1440x900,1391x788,Temporal Distance Task,cb_02,84.0,temp_dist_trial,num_items,zn7si1,1.0,response,1_ITEM,1520.1600000000033,1516.7200000000012,1520.1600000000033,1520.1600000000033,1516.7200000000012,1520.1600000000033,1.0,0.0,0.0,,Click Response,1_count,3.0,object-46,temp_dist_trial,36.0,s_s_08_1,student_stem,soldering iron,2.0,unique,single,s_s_08_1.jpg,Student,,,sub-08
Desktop or Laptop,Mac OS 10.15,Firefox 140.0,1440x900,1391x788,Temporal Distance Task,cb_02,85.0,temp_dist_trial,num_items,zn7si1,1.0,response,1_ITEM,1137.4400000000023,1133.3800000000047,1137.4400000000023,1137.4400000000023,1133.3800000000047,1137.4400000000023,1.0,0.0,0.0,,Click Response,1_count,3.0,object-46,temp_dist_trial,37.0,s_sh_16_1,student_shared,stapler,2.0,competing,paired,s_sh_16_1.jpg,Student,,,sub-08
Desktop or Laptop,Mac OS 10.15,Firefox 140.0,1440x900,1391x788,Temporal Distance Task,cb_02,86.0,temp_dist_trial,num_items,zn7si1,1.0,response,1_ITEM,1237.040000000008,1233.3800000000047,1237.040000000008,1237.040000000008,1233.3800000000047,1237.040000000008,1.0,0.0,0.0,,Click Response,1_count,3.0,object-46,temp_dist_trial,38.0,s_sh_17_1,student_shared,wireless mouse,2.0,competing,paired,s_sh_17_1.jpg,Student,,,sub-08
Desktop or Laptop,Mac OS 10.15,Firefox 140.0,1440x900,1391x788,Temporal Distance Task,cb_02,87.0,temp_dist_trial,num_items,zn7si1,1.0,response,2_ITEM,1104.640000000014,1100.040000000008,1104.640000000014,1104.640000000014,1100.040000000008,1104.640000000014,1.0,0.0,0.0,,Click Response,2_count,5.0,object-49,temp_dist_trial,39.0,s_a_16_1,student_art,piano,2.0,unique,paired,s_a_16_1.jpg,Student,,,sub-08
Desktop or Laptop,Mac OS 10.15,Firefox 140.0,1440x900,1391x788,Temporal Distance Task,cb_02,87.0,temp_dist_trial,dist_items,qkpkxw,2.0,info,,9.600000000005819,0.0,9.600000000005819,9.600000000005819,0.0,9.600000000005819,1.0,0.0,0.0,,Slider,Slider,4.0,object-56,temp_dist_trial,39.0,s_a_16_1,student_art,piano,2.0,unique,paired,s_a_16_1.jpg,Student,,,sub-08
Desktop or Laptop,Mac OS 10.15,Firefox 140.0,1440x900,1391x788,Temporal Distance Task,cb_02,87.0,temp_dist_trial,dist_items,qkpkxw,2.0,continue,,1587.6000000000058,1583.3999999999942,1587.6000000000058,1587.6000000000058,1583.3999999999942,1587.6000000000058,1.0,0.0,0.0,,Click To Continue,Next button,7.0,object-60,temp_dist_trial,39.0,s_a_16_1,student_art,piano,2.0,unique,paired,s_a_16_1.jpg,Student,,,sub-08
Desktop or Laptop,Mac OS 10.15,Firefox 140.0,1440x900,1391x788,Temporal Distance Task,cb_02,87.0,temp_dist_trial,dist_items,qkpkxw,2.0,response,44,700.0200000000186,1583.3999999999942,1589.6000000000058,700.0200000000186,1583.3999999999942,1589.6000000000058,1.0,889.5799999999872,0.0,,Slider,Slider,4.0,object-56,temp_dist_trial,39.0,s_a_16_1,student_art,piano,2.0,unique,paired,s_a_16_1.jpg,Student,,,sub-08
Desktop or Laptop,Mac OS 10.15,Firefox 140.0,1440x900,1391x788,Temporal Distance Task,cb_02,88.0,temp_dist_trial,num_items,zn7si1,1.0,response,1_ITEM,1604.2000000000116,1600.0599999999977,1604.2000000000116,1604.2000000000116,1600.0599999999977,1604.2000000000116,1.0,0.0,0.0,,Click Response,1_count,3.0,object-46,temp_dist_trial,40.0,s_sh_01_1,student_shared,notebook,2.0,competing,paired,s_sh_01_1.jpg,Student,,,sub-08
Desktop or Laptop,Mac OS 10.15,Firefox 140.0,1440x900,1391x788,Temporal Distance Task,cb_02,89.0,temp_dist_trial,num_items,zn7si1,1.0,response,1_ITEM,1354.140000000014,1350.0600000000268,1354.140000000014,1354.140000000014,1350.0600000000268,1354.140000000014,1.0,0.0,0.0,,Click Response,1_count,3.0,object-46,temp_dist_trial,41.0,s_a_19_1,student_art,ballet shoes,2.0,unique,paired,s_a_19_1.jpg,Student,,,sub-08
Desktop or Laptop,Mac OS 10.15,Firefox 140.0,1440x900,1391x788,Temporal Distance Task,cb_02,90.0,temp_dist_trial,num_items,zn7si1,1.0,response,2_ITEM,1936.0799999999872,1933.4199999999842,1936.0799999999872,1936.0799999999872,1933.4199999999842,1936.0799999999872,1.0,0.0,0.0,,Click Response,2_count,5.0,object-49,temp_dist_trial,42.0,s_sh_08_1,student_shared,post-its,2.0,competing,paired,s_sh_08_1.jpg,Student,,,sub-08
Desktop or Laptop,Mac OS 10.15,Firefox 140.0,1440x900,1391x788,Temporal Distance Task,cb_02,90.0,temp_dist_trial,dist_items,qkpkxw,2.0,info,,10.660000000003492,0.0,10.660000000003492,10.660000000003492,0.0,10.660000000003492,1.0,0.0,0.0,,Slider,Slider,4.0,object-56,temp_dist_trial,42.0,s_sh_08_1,student_shared,post-its,2.0,competing,paired,s_sh_08_1.jpg,Student,,,sub-08
Desktop or Laptop,Mac OS 10.15,Firefox 140.0,1440x900,1391x788,Temporal Distance Task,cb_02,90.0,temp_dist_trial,dist_items,qkpkxw,2.0,continue,,1920.6600000000033,1916.7399999999911,1920.6600000000033,1920.6600000000033,1916.7399999999911,1920.6600000000033,1.0,0.0,0.0,,Click To Continue,Next button,7.0,object-60,temp_dist_trial,42.0,s_sh_08_1,student_shared,post-its,2.0,competing,paired,s_sh_08_1.jpg,Student,,,sub-08
Desktop or Laptop,Mac OS 10.15,Firefox 140.0,1440x900,1391x788,Temporal Distance Task,cb_02,90.0,temp_dist_trial,dist_items,qkpkxw,2.0,response,53,833.3600000000151,1916.7399999999911,1920.6600000000033,833.3600000000151,1916.7399999999911,1920.6600000000033,1.0,1087.2999999999884,0.0,,Slider,Slider,4.0,object-56,temp_dist_trial,42.0,s_sh_08_1,student_shared,post-its,2.0,competing,paired,s_sh_08_1.jpg,Student,,,sub-08
Desktop or Laptop,Mac OS 10.15,Firefox 140.0,1440x900,1391x788,Temporal Distance Task,cb_02,91.0,temp_dist_trial,num_items,zn7si1,1.0,response,2_ITEM,2353.9200000000133,2350.1000000000063,2353.9200000000133,2353.9200000000133,2350.1000000000063,2353.9200000000133,1.0,0.0,0.0,,Click Response,2_count,5.0,object-49,temp_dist_trial,43.0,s_a_02_1,student_art,canvas,2.0,unique,paired,s_a_02_1.jpg,Student,,,sub-08
Desktop or Laptop,Mac OS 10.15,Firefox 140.0,1440x900,1391x788,Temporal Distance Task,cb_02,91.0,temp_dist_trial,dist_items,qkpkxw,2.0,info,,10.820000000006983,0.0,10.820000000006983,10.820000000006983,0.0,10.820000000006983,1.0,0.0,0.0,,Slider,Slider,4.0,object-56,temp_dist_trial,43.0,s_a_02_1,student_art,canvas,2.0,unique,paired,s_a_02_1.jpg,Student,,,sub-08
Desktop or Laptop,Mac OS 10.15,Firefox 140.0,1440x900,1391x788,Temporal Distance Task,cb_02,91.0,temp_dist_trial,dist_items,qkpkxw,2.0,continue,,1704.820000000007,1700.0599999999977,1704.820000000007,1704.820000000007,1700.0599999999977,1704.820000000007,1.0,0.0,0.0,,Click To Continue,Next button,7.0,object-60,temp_dist_trial,43.0,s_a_02_1,student_art,canvas,2.0,unique,paired,s_a_02_1.jpg,Student,,,sub-08
Desktop or Laptop,Mac OS 10.15,Firefox 140.0,1440x900,1391x788,Temporal Distance Task,cb_02,91.0,temp_dist_trial,dist_items,qkpkxw,2.0,response,41,966.7000000000116,1700.0599999999977,1705.820000000007,966.7000000000116,1700.0599999999977,1705.820000000007,1.0,739.1199999999952,0.0,,Slider,Slider,4.0,object-56,temp_dist_trial,43.0,s_a_02_1,student_art,canvas,2.0,unique,paired,s_a_02_1.jpg,Student,,,sub-08
Desktop or Laptop,Mac OS 10.15,Firefox 140.0,1440x900,1391x788,Temporal Distance Task,cb_02,92.0,temp_dist_trial,num_items,zn7si1,1.0,response,1_ITEM,1004.7600000000093,999.680000000022,1004.7600000000093,1004.7600000000093,999.680000000022,1004.7600000000093,1.0,0.0,0.0,,Click Response,1_count,3.0,object-46,temp_dist_trial,44.0,s_sh_07_1,student_shared,ruler,2.0,competing,paired,s_sh_07_1.jpg,Student,,,sub-08
Desktop or Laptop,Mac OS 10.15,Firefox 140.0,1440x900,1391x788,Temporal Distance Task,cb_02,93.0,temp_dist_trial,num_items,zn7si1,1.0,response,1_ITEM,954.7000000000116,950.0400000000079,954.7000000000116,954.7000000000116,950.0400000000079,954.7000000000116,1.0,0.0,0.0,,Click Response,1_count,3.0,object-46,temp_dist_trial,45.0,s_sh_10_1,student_shared,scissors,2.0,competing,single,s_sh_10_1.jpg,Student,,,sub-08
Desktop or Laptop,Mac OS 10.15,Firefox 140.0,1440x900,1391x788,Temporal Distance Task,cb_02,94.0,temp_dist_trial,num_items,zn7si1,1.0,response,1_ITEM,1837.6600000000033,1833.3999999999944,1837.6600000000033,1837.6600000000033,1833.3999999999944,1837.6600000000033,1.0,0.0,0.0,,Click Response,1_count,3.0,object-46,temp_dist_trial,46.0,s_s_10_1,student_stem,3d molecule,2.0,unique,single,s_s_10_1.jpg,Student,,,sub-08
Desktop or Laptop,Mac OS 10.15,Firefox 140.0,1440x900,1391x788,Temporal Distance Task,cb_02,95.0,temp_dist_trial,num_items,zn7si1,1.0,response,2_ITEM,1120.2600000000093,1116.0599999999977,1120.2600000000093,1120.2600000000093,1116.0599999999977,1120.2600000000093,1.0,0.0,0.0,,Click Response,2_count,5.0,object-49,temp_dist_trial,47.0,s_a_04_1,student_art,easel,2.0,unique,paired,s_a_04_1.jpg,Student,,,sub-08
Desktop or Laptop,Mac OS 10.15,Firefox 140.0,1440x900,1391x788,Temporal Distance Task,cb_02,95.0,temp_dist_trial,dist_items,qkpkxw,2.0,info,,8.920000000012807,0.0,8.920000000012807,8.920000000012807,0.0,8.920000000012807,1.0,0.0,0.0,,Slider,Slider,4.0,object-56,temp_dist_trial,47.0,s_a_04_1,student_art,easel,2.0,unique,paired,s_a_04_1.jpg,Student,,,sub-08
Desktop or Laptop,Mac OS 10.15,Firefox 140.0,1440x900,1391x788,Temporal Distance Task,cb_02,95.0,temp_dist_trial,dist_items,qkpkxw,2.0,continue,,1704.9200000000128,1700.3000000000175,1704.9200000000128,1704.9200000000128,1700.3000000000175,1704.9200000000128,1.0,0.0,0.0,,Click To Continue,Next button,7.0,object-60,temp_dist_trial,47.0,s_a_04_1,student_art,easel,2.0,unique,paired,s_a_04_1.jpg,Student,,,sub-08
Desktop or Laptop,Mac OS 10.15,Firefox 140.0,1440x900,1391x788,Temporal Distance Task,cb_02,95.0,temp_dist_trial,dist_items,qkpkxw,2.0,response,37,667.0800000000163,1700.3000000000175,1705.9200000000128,667.0800000000163,1700.3000000000175,1705.9200000000128,1.0,1038.8399999999963,0.0,,Slider,Slider,4.0,object-56,temp_dist_trial,47.0,s_a_04_1,student_art,easel,2.0,unique,paired,s_a_04_1.jpg,Student,,,sub-08
Desktop or Laptop,Mac OS 10.15,Firefox 140.0,1440x900,1391x788,Temporal Distance Task,cb_02,96.0,temp_dist_trial,num_items,zn7si1,1.0,response,2_ITEM,1419.6199999999951,1416.8800000000049,1419.6199999999951,1419.6199999999951,1416.8800000000049,1419.6199999999951,1.0,0.0,0.0,,Click Response,2_count,5.0,object-49,temp_dist_trial,48.0,s_s_07_1,student_stem,periodic table,2.0,unique,paired,s_s_07_1.jpg,Student,,,sub-08
Desktop or Laptop,Mac OS 10.15,Firefox 140.0,1440x900,1391x788,Temporal Distance Task,cb_02,96.0,temp_dist_trial,dist_items,qkpkxw,2.0,info,,11.739999999990687,0.0,11.739999999990687,11.739999999990687,0.0,11.739999999990687,1.0,0.0,0.0,,Slider,Slider,4.0,object-56,temp_dist_trial,48.0,s_s_07_1,student_stem,periodic table,2.0,unique,paired,s_s_07_1.jpg,Student,,,sub-08
Desktop or Laptop,Mac OS 10.15,Firefox 140.0,1440x900,1391x788,Temporal Distance Task,cb_02,96.0,temp_dist_trial,dist_items,qkpkxw,2.0,continue,,1786.7399999999911,1783.3999999999942,1786.7399999999911,1786.7399999999911,1783.3999999999942,1786.7399999999911,1.0,0.0,0.0,,Click To Continue,Next button,7.0,object-60,temp_dist_trial,48.0,s_s_07_1,student_stem,periodic table,2.0,unique,paired,s_s_07_1.jpg,Student,,,sub-08
Desktop or Laptop,Mac OS 10.15,Firefox 140.0,1440x900,1391x788,Temporal Distance Task,cb_02,96.0,temp_dist_trial,dist_items,qkpkxw,2.0,response,47,566.6999999999825,1783.3999999999942,1787.7399999999911,566.6999999999825,1783.3999999999942,1787.7399999999911,1.0,1221.040000000008,0.0,,Slider,Slider,4.0,object-56,temp_dist_trial,48.0,s_s_07_1,student_stem,periodic table,2.0,unique,paired,s_s_07_1.jpg,Student,,,sub-08
Desktop or Laptop,Mac OS 10.15,Firefox 140.0,1440x900,1391x788,Temporal Distance Task,$${counterbalance_group},,,,,,info,END,,,259214.0,,,,0.0,,,,,,,,,,,,,,,,,,,,sub-08
