Participant Device,Participant OS,Participant Browser,Participant Monitor Size,Participant Viewport Size,Task Name,Current Spreadsheet,Trial Number,Display,Screen,Screen ID,Screen Counter,Response Type,Response,Onset Time,Clock Time,Reaction Time,Absolute Onset Time,Absolute Clock Time,Absolute Reaction Time,Correct,Response Duration,Proportion,Tag,Component Name,Object Name,Object Number,Object ID,Spreadsheet: display,Spreadsheet: trial,Spreadsheet: stimulus_id,Spreadsheet: expected_goal,Spreadsheet: stimulus_name,Spreadsheet: c_group,Spreadsheet: condition,Spreadsheet: paired_status,Spreadsheet: stimulus_path,Spreadsheet: block_type,Manipulation: Spreadsheet,Store: enc_test_acc,sub_label
Desktop or Laptop,Windows 10,Firefox 140.0,3440x1440,3440x1279,Temporal Distance Task,$${counterbalance_group},,,,,,info,BEGIN,,,,,,,0.0,,,,,,,,,,,,,,,,,,,,sub-26
Desktop or Laptop,Windows 10,Firefox 140.0,3440x1440,3440x1279,Temporal Distance Task,cb_09,1.0,temp_instructions,intro_screen,3tnme7,1.0,continue,,10997.64,10992.54,10997.64,10997.64,10992.54,10997.64,1.0,0.0,0.0,,Click To Continue,Continue Button,4.0,object-29,temp_instructions,,,Student,,,,,,,,,sub-26
Desktop or Laptop,Windows 10,Firefox 140.0,3440x1440,3440x1279,Temporal Distance Task,cb_09,1.0,temp_instructions,intro_screen_2,52v7ur,2.0,continue,,22077.1,22072.22,22077.1,22077.1,22072.22,22077.1,1.0,0.0,0.0,,Click To Continue,Continue Button,4.0,object-39,temp_instructions,,,Student,,,,,,,,,sub-26
Desktop or Laptop,Windows 10,Firefox 140.0,3440x1440,3440x1279,Temporal Distance Task,cb_09,1.0,temp_instructions,intro_screen_3,i7lvwx,3.0,continue,,8448.879999999997,8444.059999999998,8448.879999999997,8448.879999999997,8444.059999999998,8448.879999999997,1.0,0.0,0.0,,Click To Continue,Continue Button,4.0,object-67,temp_instructions,,,Student,,,,,,,,,sub-26
Desktop or Laptop,Windows 10,Firefox 140.0,3440x1440,3440x1279,Temporal Distance Task,cb_09,1.0,temp_instructions,test_q1,5ieqx1,4.0,response,choice_3,4650.82,4645.5999999999985,4650.82,4650.82,4645.5999999999985,4650.82,1.0,0.0,0.0,,Click Response,choice_3,5.0,object-345,temp_instructions,,,Student,,,,,,,,,sub-26
Desktop or Laptop,Windows 10,Firefox 140.0,3440x1440,3440x1279,Temporal Distance Task,cb_09,1.0,temp_instructions,score_corr,7ilvjr,5.0,continue,,997.2200000000012,993.9199999999984,997.2200000000012,997.2200000000012,993.9199999999984,997.2200000000012,1.0,0.0,0.0,,Click To Continue,Continue Button,3.0,object-23,temp_instructions,,,Student,,,,,,,,,sub-26
Desktop or Laptop,Windows 10,Firefox 140.0,3440x1440,3440x1279,Temporal Distance Task,cb_09,1.0,temp_eventStart,Screen 1,dgtyxe,1.0,continue,,1325.3000000000031,1319.9400000000023,1325.3000000000031,1325.3000000000031,1319.9400000000023,1325.3000000000031,1.0,0.0,0.0,,Click To Continue,Next Button,3.0,object-43,temp_eventStart,,,Student,,,,,,,,,sub-26
Desktop or Laptop,Windows 10,Firefox 140.0,3440x1440,3440x1279,Temporal Distance Task,cb_09,1.0,temp_dist_trial,num_items,zn7si1,1.0,response,2_ITEM,1944.3600000000006,1943.9800000000034,1944.3600000000006,1944.3600000000006,1943.9800000000034,1944.3600000000006,1.0,0.0,0.0,,Click Response,2_count,5.0,object-49,temp_dist_trial,1.0,s_a_05_1,student_art,clay,9.0,unique,paired,s_a_05_1.jpg,Student,,,sub-26
Desktop or Laptop,Windows 10,Firefox 140.0,3440x1440,3440x1279,Temporal Distance Task,cb_09,1.0,temp_dist_trial,dist_items,qkpkxw,2.0,info,,6.57999999999447,0.0,6.57999999999447,6.57999999999447,0.0,6.57999999999447,1.0,0.0,0.0,,Slider,Slider,4.0,object-56,temp_dist_trial,1.0,s_a_05_1,student_art,clay,9.0,unique,paired,s_a_05_1.jpg,Student,,,sub-26
Desktop or Laptop,Windows 10,Firefox 140.0,3440x1440,3440x1279,Temporal Distance Task,cb_09,1.0,temp_dist_trial,dist_items,qkpkxw,2.0,continue,,4589.760000000002,4586.260000000002,4589.760000000002,4589.760000000002,4586.260000000002,4589.760000000002,1.0,0.0,0.0,,Click To Continue,Next button,7.0,object-60,temp_dist_trial,1.0,s_a_05_1,student_art,clay,9.0,unique,paired,s_a_05_1.jpg,Student,,,sub-26
Desktop or Laptop,Windows 10,Firefox 140.0,3440x1440,3440x1279,Temporal Distance Task,cb_09,1.0,temp_dist_trial,dist_items,qkpkxw,2.0,response,87,3303.420000000005,4586.260000000002,4590.760000000002,3303.420000000005,4586.260000000002,4590.760000000002,1.0,1287.3399999999965,0.0,,Slider,Slider,4.0,object-56,temp_dist_trial,1.0,s_a_05_1,student_art,clay,9.0,unique,paired,s_a_05_1.jpg,Student,,,sub-26
Desktop or Laptop,Windows 10,Firefox 140.0,3440x1440,3440x1279,Temporal Distance Task,cb_09,2.0,temp_dist_trial,num_items,zn7si1,1.0,response,1_ITEM,2232.5,2231.260000000002,2232.5,2232.5,2231.260000000002,2232.5,1.0,0.0,0.0,,Click Response,1_count,3.0,object-46,temp_dist_trial,2.0,s_sh_23_1,student_shared,ballpoint pen,9.0,competing,single,s_sh_23_1.jpg,Student,,,sub-26
Desktop or Laptop,Windows 10,Firefox 140.0,3440x1440,3440x1279,Temporal Distance Task,cb_09,3.0,temp_dist_trial,num_items,zn7si1,1.0,response,num_miss,3001.879999999997,3001.879999999997,3001.879999999997,3001.879999999997,3001.879999999997,3001.879999999997,1.0,0.0,0.0,num_miss_tag,Time Limit,screen,0.0,screen,temp_dist_trial,3.0,s_s_11_1,student_stem,scientific scale,9.0,unique,single,s_s_11_1.jpg,Student,,,sub-26
Desktop or Laptop,Windows 10,Firefox 140.0,3440x1440,3440x1279,Temporal Distance Task,cb_09,4.0,temp_dist_trial,num_items,zn7si1,1.0,response,1_ITEM,7.5599999999976735,0.0,7.5599999999976735,7.5599999999976735,0.0,7.5599999999976735,1.0,0.0,0.0,,Click Response,1_count,3.0,object-46,temp_dist_trial,4.0,s_sh_16_1,student_shared,stapler,9.0,competing,single,s_sh_16_1.jpg,Student,,,sub-26
Desktop or Laptop,Windows 10,Firefox 140.0,3440x1440,3440x1279,Temporal Distance Task,cb_09,5.0,temp_dist_trial,num_items,zn7si1,1.0,response,2_ITEM,1896.8399999999967,1893.1399999999994,1896.8399999999967,1896.8399999999967,1893.1399999999994,1896.8399999999967,1.0,0.0,0.0,,Click Response,2_count,5.0,object-49,temp_dist_trial,5.0,s_sh_01_1,student_shared,notebook,9.0,competing,paired,s_sh_01_1.jpg,Student,,,sub-26
Desktop or Laptop,Windows 10,Firefox 140.0,3440x1440,3440x1279,Temporal Distance Task,cb_09,5.0,temp_dist_trial,dist_items,qkpkxw,2.0,info,,7.240000000005237,0.0,7.240000000005237,7.240000000005237,0.0,7.240000000005237,1.0,0.0,0.0,,Slider,Slider,4.0,object-56,temp_dist_trial,5.0,s_sh_01_1,student_shared,notebook,9.0,competing,paired,s_sh_01_1.jpg,Student,,,sub-26
Desktop or Laptop,Windows 10,Firefox 140.0,3440x1440,3440x1279,Temporal Distance Task,cb_09,5.0,temp_dist_trial,dist_items,qkpkxw,2.0,continue,,2820.240000000005,2813.9400000000023,2820.240000000005,2820.240000000005,2813.9400000000023,2820.240000000005,1.0,0.0,0.0,,Click To Continue,Next button,7.0,object-60,temp_dist_trial,5.0,s_sh_01_1,student_shared,notebook,9.0,competing,paired,s_sh_01_1.jpg,Student,,,sub-26
Desktop or Laptop,Windows 10,Firefox 140.0,3440x1440,3440x1279,Temporal Distance Task,cb_09,5.0,temp_dist_trial,dist_items,qkpkxw,2.0,response,78,1422.6600000000033,2813.9400000000023,2821.240000000005,1422.6600000000033,2813.9400000000023,2821.240000000005,1.0,1398.5800000000015,0.0,,Slider,Slider,4.0,object-56,temp_dist_trial,5.0,s_sh_01_1,student_shared,notebook,9.0,competing,paired,s_sh_01_1.jpg,Student,,,sub-26
Desktop or Laptop,Windows 10,Firefox 140.0,3440x1440,3440x1279,Temporal Distance Task,cb_09,6.0,temp_dist_trial,num_items,zn7si1,1.0,response,1_ITEM,2326.300000000003,2320.180000000008,2326.300000000003,2326.300000000003,2320.180000000008,2326.300000000003,1.0,0.0,0.0,,Click Response,1_count,3.0,object-46,temp_dist_trial,6.0,s_sh_19_1,student_shared,portable plastic drawer,9.0,competing,single,s_sh_19_1.jpg,Student,,,sub-26
Desktop or Laptop,Windows 10,Firefox 140.0,3440x1440,3440x1279,Temporal Distance Task,cb_09,7.0,temp_dist_trial,num_items,zn7si1,1.0,response,2_ITEM,1281.1999999999969,1275.979999999996,1281.1999999999969,1281.1999999999969,1275.979999999996,1281.1999999999969,1.0,0.0,0.0,,Click Response,2_count,5.0,object-49,temp_dist_trial,7.0,s_sh_21_1,student_shared,file holder,9.0,competing,single,s_sh_21_1.jpg,Student,,,sub-26
Desktop or Laptop,Windows 10,Firefox 140.0,3440x1440,3440x1279,Temporal Distance Task,cb_09,7.0,temp_dist_trial,dist_items,qkpkxw,2.0,info,,6.5,0.0,6.5,6.5,0.0,6.5,1.0,0.0,0.0,,Slider,Slider,4.0,object-56,temp_dist_trial,7.0,s_sh_21_1,student_shared,file holder,9.0,competing,single,s_sh_21_1.jpg,Student,,,sub-26
Desktop or Laptop,Windows 10,Firefox 140.0,3440x1440,3440x1279,Temporal Distance Task,cb_09,7.0,temp_dist_trial,dist_items,qkpkxw,2.0,continue,,2805.199999999997,2799.4199999999987,2805.199999999997,2805.199999999997,2799.4199999999987,2805.199999999997,1.0,0.0,0.0,,Click To Continue,Next button,7.0,object-60,temp_dist_trial,7.0,s_sh_21_1,student_shared,file holder,9.0,competing,single,s_sh_21_1.jpg,Student,,,sub-26
Desktop or Laptop,Windows 10,Firefox 140.0,3440x1440,3440x1279,Temporal Distance Task,cb_09,7.0,temp_dist_trial,dist_items,qkpkxw,2.0,response,26,1894.959999999992,2799.4199999999987,2805.539999999993,1894.959999999992,2799.4199999999987,2805.539999999993,1.0,910.5800000000016,0.0,,Slider,Slider,4.0,object-56,temp_dist_trial,7.0,s_sh_21_1,student_shared,file holder,9.0,competing,single,s_sh_21_1.jpg,Student,,,sub-26
Desktop or Laptop,Windows 10,Firefox 140.0,3440x1440,3440x1279,Temporal Distance Task,cb_09,8.0,temp_dist_trial,num_items,zn7si1,1.0,response,2_ITEM,1280.7799999999988,1277.0800000000015,1280.7799999999988,1280.7799999999988,1277.0800000000015,1280.7799999999988,1.0,0.0,0.0,,Click Response,2_count,5.0,object-49,temp_dist_trial,8.0,s_a_18_1,student_art,tutu,9.0,unique,paired,s_a_18_1.jpg,Student,,,sub-26
Desktop or Laptop,Windows 10,Firefox 140.0,3440x1440,3440x1279,Temporal Distance Task,cb_09,8.0,temp_dist_trial,dist_items,qkpkxw,2.0,info,,2.3800000000046566,0.0,2.3800000000046566,2.3800000000046566,0.0,2.3800000000046566,1.0,0.0,0.0,,Slider,Slider,4.0,object-56,temp_dist_trial,8.0,s_a_18_1,student_art,tutu,9.0,unique,paired,s_a_18_1.jpg,Student,,,sub-26
Desktop or Laptop,Windows 10,Firefox 140.0,3440x1440,3440x1279,Temporal Distance Task,cb_09,8.0,temp_dist_trial,dist_items,qkpkxw,2.0,continue,,1479.820000000007,1473.7600000000089,1479.820000000007,1479.820000000007,1473.7600000000089,1479.820000000007,1.0,0.0,0.0,,Click To Continue,Next button,7.0,object-60,temp_dist_trial,8.0,s_a_18_1,student_art,tutu,9.0,unique,paired,s_a_18_1.jpg,Student,,,sub-26
Desktop or Laptop,Windows 10,Firefox 140.0,3440x1440,3440x1279,Temporal Distance Task,cb_09,8.0,temp_dist_trial,dist_items,qkpkxw,2.0,response,76,748.3800000000048,1473.7600000000089,1479.820000000007,748.3800000000048,1473.7600000000089,1479.820000000007,1.0,731.4400000000023,0.0,,Slider,Slider,4.0,object-56,temp_dist_trial,8.0,s_a_18_1,student_art,tutu,9.0,unique,paired,s_a_18_1.jpg,Student,,,sub-26
Desktop or Laptop,Windows 10,Firefox 140.0,3440x1440,3440x1279,Temporal Distance Task,cb_09,9.0,temp_dist_trial,num_items,zn7si1,1.0,response,2_ITEM,1357.479999999996,1351.479999999996,1357.479999999996,1357.479999999996,1351.479999999996,1357.479999999996,1.0,0.0,0.0,,Click Response,2_count,5.0,object-49,temp_dist_trial,9.0,s_s_07_1,student_stem,periodic table,9.0,unique,paired,s_s_07_1.jpg,Student,,,sub-26
Desktop or Laptop,Windows 10,Firefox 140.0,3440x1440,3440x1279,Temporal Distance Task,cb_09,9.0,temp_dist_trial,dist_items,qkpkxw,2.0,info,,6.060000000012224,0.0,6.060000000012224,6.060000000012224,0.0,6.060000000012224,1.0,0.0,0.0,,Slider,Slider,4.0,object-56,temp_dist_trial,9.0,s_s_07_1,student_stem,periodic table,9.0,unique,paired,s_s_07_1.jpg,Student,,,sub-26
Desktop or Laptop,Windows 10,Firefox 140.0,3440x1440,3440x1279,Temporal Distance Task,cb_09,9.0,temp_dist_trial,dist_items,qkpkxw,2.0,continue,,4440.179999999993,4437.099999999991,4440.179999999993,4440.179999999993,4437.099999999991,4440.179999999993,1.0,0.0,0.0,,Click To Continue,Next button,7.0,object-60,temp_dist_trial,9.0,s_s_07_1,student_stem,periodic table,9.0,unique,paired,s_s_07_1.jpg,Student,,,sub-26
Desktop or Laptop,Windows 10,Firefox 140.0,3440x1440,3440x1279,Temporal Distance Task,cb_09,9.0,temp_dist_trial,dist_items,qkpkxw,2.0,response,88,3188.1799999999935,4437.099999999991,4441.179999999993,3188.1799999999935,4437.099999999991,4441.179999999993,1.0,1253.0,0.0,,Slider,Slider,4.0,object-56,temp_dist_trial,9.0,s_s_07_1,student_stem,periodic table,9.0,unique,paired,s_s_07_1.jpg,Student,,,sub-26
Desktop or Laptop,Windows 10,Firefox 140.0,3440x1440,3440x1279,Temporal Distance Task,cb_09,10.0,temp_dist_trial,num_items,zn7si1,1.0,response,1_ITEM,1125.9199999999985,1119.8600000000006,1125.9199999999985,1125.9199999999985,1119.8600000000006,1125.9199999999985,1.0,0.0,0.0,,Click Response,1_count,3.0,object-46,temp_dist_trial,10.0,s_sh_02_1,student_shared,eraser,9.0,competing,single,s_sh_02_1.jpg,Student,,,sub-26
Desktop or Laptop,Windows 10,Firefox 140.0,3440x1440,3440x1279,Temporal Distance Task,cb_09,11.0,temp_dist_trial,num_items,zn7si1,1.0,response,2_ITEM,1392.0399999999936,1386.0599999999977,1392.0399999999936,1392.0399999999936,1386.0599999999977,1392.0399999999936,1.0,0.0,0.0,,Click Response,2_count,5.0,object-49,temp_dist_trial,11.0,s_sh_06_1,student_shared,clipboard,9.0,competing,paired,s_sh_06_1.jpg,Student,,,sub-26
Desktop or Laptop,Windows 10,Firefox 140.0,3440x1440,3440x1279,Temporal Distance Task,cb_09,11.0,temp_dist_trial,dist_items,qkpkxw,2.0,info,,6.099999999991269,0.0,6.099999999991269,6.099999999991269,0.0,6.099999999991269,1.0,0.0,0.0,,Slider,Slider,4.0,object-56,temp_dist_trial,11.0,s_sh_06_1,student_shared,clipboard,9.0,competing,paired,s_sh_06_1.jpg,Student,,,sub-26
Desktop or Laptop,Windows 10,Firefox 140.0,3440x1440,3440x1279,Temporal Distance Task,cb_09,11.0,temp_dist_trial,dist_items,qkpkxw,2.0,continue,,2223.8800000000047,2217.7799999999993,2223.8800000000047,2223.8800000000047,2217.7799999999993,2223.8800000000047,1.0,0.0,0.0,,Click To Continue,Next button,7.0,object-60,temp_dist_trial,11.0,s_sh_06_1,student_shared,clipboard,9.0,competing,paired,s_sh_06_1.jpg,Student,,,sub-26
Desktop or Laptop,Windows 10,Firefox 140.0,3440x1440,3440x1279,Temporal Distance Task,cb_09,11.0,temp_dist_trial,dist_items,qkpkxw,2.0,response,24,1463.5,2217.7799999999993,2223.8800000000047,1463.5,2217.7799999999993,2223.8800000000047,1.0,760.3800000000048,0.0,,Slider,Slider,4.0,object-56,temp_dist_trial,11.0,s_sh_06_1,student_shared,clipboard,9.0,competing,paired,s_sh_06_1.jpg,Student,,,sub-26
Desktop or Laptop,Windows 10,Firefox 140.0,3440x1440,3440x1279,Temporal Distance Task,cb_09,12.0,temp_dist_trial,num_items,zn7si1,1.0,response,2_ITEM,1105.1000000000058,1102.12000000001,1105.1000000000058,1105.1000000000058,1102.12000000001,1105.1000000000058,1.0,0.0,0.0,,Click Response,2_count,5.0,object-49,temp_dist_trial,12.0,s_sh_17_1,student_shared,wireless mouse,9.0,competing,paired,s_sh_17_1.jpg,Student,,,sub-26
Desktop or Laptop,Windows 10,Firefox 140.0,3440x1440,3440x1279,Temporal Distance Task,cb_09,12.0,temp_dist_trial,dist_items,qkpkxw,2.0,info,,6.0200000000040745,0.0,6.0200000000040745,6.0200000000040745,0.0,6.0200000000040745,1.0,0.0,0.0,,Slider,Slider,4.0,object-56,temp_dist_trial,12.0,s_sh_17_1,student_shared,wireless mouse,9.0,competing,paired,s_sh_17_1.jpg,Student,,,sub-26
Desktop or Laptop,Windows 10,Firefox 140.0,3440x1440,3440x1279,Temporal Distance Task,cb_09,12.0,temp_dist_trial,dist_items,qkpkxw,2.0,continue,,1834.2200000000007,1828.4199999999985,1834.2200000000007,1834.2200000000007,1828.4199999999985,1834.2200000000007,1.0,0.0,0.0,,Click To Continue,Next button,7.0,object-60,temp_dist_trial,12.0,s_sh_17_1,student_shared,wireless mouse,9.0,competing,paired,s_sh_17_1.jpg,Student,,,sub-26
Desktop or Laptop,Windows 10,Firefox 140.0,3440x1440,3440x1279,Temporal Distance Task,cb_09,12.0,temp_dist_trial,dist_items,qkpkxw,2.0,response,81,883.8800000000048,1828.4199999999985,1834.2200000000007,883.8800000000048,1828.4199999999985,1834.2200000000007,1.0,950.3399999999964,0.0,,Slider,Slider,4.0,object-56,temp_dist_trial,12.0,s_sh_17_1,student_shared,wireless mouse,9.0,competing,paired,s_sh_17_1.jpg,Student,,,sub-26
Desktop or Laptop,Windows 10,Firefox 140.0,3440x1440,3440x1279,Temporal Distance Task,cb_09,13.0,temp_dist_trial,num_items,zn7si1,1.0,response,1_ITEM,1293.8000000000031,1292.1000000000058,1293.8000000000031,1293.8000000000031,1292.1000000000058,1293.8000000000031,1.0,0.0,0.0,,Click Response,1_count,3.0,object-46,temp_dist_trial,13.0,s_s_20_1,student_stem,dna model,9.0,unique,single,s_s_20_1.jpg,Student,,,sub-26
Desktop or Laptop,Windows 10,Firefox 140.0,3440x1440,3440x1279,Temporal Distance Task,cb_09,14.0,temp_dist_trial,num_items,zn7si1,1.0,response,1_ITEM,1297.3600000000004,1292.7200000000012,1297.3600000000004,1297.3600000000004,1292.7200000000012,1297.3600000000004,1.0,0.0,0.0,,Click Response,1_count,3.0,object-46,temp_dist_trial,14.0,s_s_16_1,student_stem,toolbox,9.0,unique,single,s_s_16_1.jpg,Student,,,sub-26
Desktop or Laptop,Windows 10,Firefox 140.0,3440x1440,3440x1279,Temporal Distance Task,cb_09,15.0,temp_dist_trial,num_items,zn7si1,1.0,response,1_ITEM,1164.1000000000058,1160.320000000007,1164.1000000000058,1164.1000000000058,1160.320000000007,1164.1000000000058,1.0,0.0,0.0,,Click Response,1_count,3.0,object-46,temp_dist_trial,15.0,s_a_07_1,student_art,yarn,9.0,unique,single,s_a_07_1.jpg,Student,,,sub-26
Desktop or Laptop,Windows 10,Firefox 140.0,3440x1440,3440x1279,Temporal Distance Task,cb_09,16.0,temp_dist_trial,num_items,zn7si1,1.0,response,2_ITEM,966.3399999999964,960.0199999999896,966.3399999999964,966.3399999999964,960.0199999999896,966.3399999999964,1.0,0.0,0.0,,Click Response,2_count,5.0,object-49,temp_dist_trial,16.0,s_sh_13_1,student_shared,index cards,9.0,competing,paired,s_sh_13_1.jpg,Student,,,sub-26
Desktop or Laptop,Windows 10,Firefox 140.0,3440x1440,3440x1279,Temporal Distance Task,cb_09,16.0,temp_dist_trial,dist_items,qkpkxw,2.0,info,,5.220000000001164,0.0,5.220000000001164,5.220000000001164,0.0,5.220000000001164,1.0,0.0,0.0,,Slider,Slider,4.0,object-56,temp_dist_trial,16.0,s_sh_13_1,student_shared,index cards,9.0,competing,paired,s_sh_13_1.jpg,Student,,,sub-26
Desktop or Laptop,Windows 10,Firefox 140.0,3440x1440,3440x1279,Temporal Distance Task,cb_09,16.0,temp_dist_trial,dist_items,qkpkxw,2.0,continue,,1866.3999999999944,1860.2200000000007,1866.3999999999944,1866.3999999999944,1860.2200000000007,1866.3999999999944,1.0,0.0,0.0,,Click To Continue,Next button,7.0,object-60,temp_dist_trial,16.0,s_sh_13_1,student_shared,index cards,9.0,competing,paired,s_sh_13_1.jpg,Student,,,sub-26
Desktop or Laptop,Windows 10,Firefox 140.0,3440x1440,3440x1279,Temporal Distance Task,cb_09,16.0,temp_dist_trial,dist_items,qkpkxw,2.0,response,32,1165.8399999999965,1860.2200000000007,1866.3999999999944,1165.8399999999965,1860.2200000000007,1866.3999999999944,1.0,700.5599999999977,0.0,,Slider,Slider,4.0,object-56,temp_dist_trial,16.0,s_sh_13_1,student_shared,index cards,9.0,competing,paired,s_sh_13_1.jpg,Student,,,sub-26
Desktop or Laptop,Windows 10,Firefox 140.0,3440x1440,3440x1279,Temporal Distance Task,cb_09,17.0,temp_dist_trial,num_items,zn7si1,1.0,response,2_ITEM,1896.0,1889.6999999999966,1896.0,1896.0,1889.6999999999966,1896.0,1.0,0.0,0.0,,Click Response,2_count,5.0,object-49,temp_dist_trial,17.0,s_a_17_1,student_art,microphone,9.0,unique,paired,s_a_17_1.jpg,Student,,,sub-26
Desktop or Laptop,Windows 10,Firefox 140.0,3440x1440,3440x1279,Temporal Distance Task,cb_09,17.0,temp_dist_trial,dist_items,qkpkxw,2.0,info,,4.9799999999959255,0.0,4.9799999999959255,4.9799999999959255,0.0,4.9799999999959255,1.0,0.0,0.0,,Slider,Slider,4.0,object-56,temp_dist_trial,17.0,s_a_17_1,student_art,microphone,9.0,unique,paired,s_a_17_1.jpg,Student,,,sub-26
Desktop or Laptop,Windows 10,Firefox 140.0,3440x1440,3440x1279,Temporal Distance Task,cb_09,17.0,temp_dist_trial,dist_items,qkpkxw,2.0,continue,,3700.240000000005,3694.220000000001,3700.240000000005,3700.240000000005,3694.220000000001,3700.240000000005,1.0,0.0,0.0,,Click To Continue,Next button,7.0,object-60,temp_dist_trial,17.0,s_a_17_1,student_art,microphone,9.0,unique,paired,s_a_17_1.jpg,Student,,,sub-26
Desktop or Laptop,Windows 10,Firefox 140.0,3440x1440,3440x1279,Temporal Distance Task,cb_09,17.0,temp_dist_trial,dist_items,qkpkxw,2.0,response,87,2295.6399999999994,3694.220000000001,3700.240000000005,2295.6399999999994,3694.220000000001,3700.240000000005,1.0,1404.6000000000058,0.0,,Slider,Slider,4.0,object-56,temp_dist_trial,17.0,s_a_17_1,student_art,microphone,9.0,unique,paired,s_a_17_1.jpg,Student,,,sub-26
Desktop or Laptop,Windows 10,Firefox 140.0,3440x1440,3440x1279,Temporal Distance Task,cb_09,18.0,temp_dist_trial,num_items,zn7si1,1.0,response,2_ITEM,1236.7599999999948,1232.459999999992,1236.7599999999948,1236.7599999999948,1232.459999999992,1236.7599999999948,1.0,0.0,0.0,,Click Response,2_count,5.0,object-49,temp_dist_trial,18.0,s_s_02_1,student_stem,flask,9.0,unique,paired,s_s_02_1.jpg,Student,,,sub-26
Desktop or Laptop,Windows 10,Firefox 140.0,3440x1440,3440x1279,Temporal Distance Task,cb_09,18.0,temp_dist_trial,dist_items,qkpkxw,2.0,info,,4.100000000005822,0.0,4.100000000005822,4.100000000005822,0.0,4.100000000005822,1.0,0.0,0.0,,Slider,Slider,4.0,object-56,temp_dist_trial,18.0,s_s_02_1,student_stem,flask,9.0,unique,paired,s_s_02_1.jpg,Student,,,sub-26
Desktop or Laptop,Windows 10,Firefox 140.0,3440x1440,3440x1279,Temporal Distance Task,cb_09,18.0,temp_dist_trial,dist_items,qkpkxw,2.0,continue,,1371.1000000000058,1369.320000000007,1371.1000000000058,1371.1000000000058,1369.320000000007,1371.1000000000058,1.0,0.0,0.0,,Click To Continue,Next button,7.0,object-60,temp_dist_trial,18.0,s_s_02_1,student_stem,flask,9.0,unique,paired,s_s_02_1.jpg,Student,,,sub-26
Desktop or Laptop,Windows 10,Firefox 140.0,3440x1440,3440x1279,Temporal Distance Task,cb_09,18.0,temp_dist_trial,dist_items,qkpkxw,2.0,response,26,726.7799999999988,1369.320000000007,1372.1000000000058,726.7799999999988,1369.320000000007,1372.1000000000058,1.0,645.320000000007,0.0,,Slider,Slider,4.0,object-56,temp_dist_trial,18.0,s_s_02_1,student_stem,flask,9.0,unique,paired,s_s_02_1.jpg,Student,,,sub-26
Desktop or Laptop,Windows 10,Firefox 140.0,3440x1440,3440x1279,Temporal Distance Task,cb_09,19.0,temp_dist_trial,num_items,zn7si1,1.0,response,2_ITEM,1131.6999999999969,1125.6999999999969,1131.6999999999969,1131.6999999999969,1125.6999999999969,1131.6999999999969,1.0,0.0,0.0,,Click Response,2_count,5.0,object-49,temp_dist_trial,19.0,s_a_19_1,student_art,ballet shoes,9.0,unique,paired,s_a_19_1.jpg,Student,,,sub-26
Desktop or Laptop,Windows 10,Firefox 140.0,3440x1440,3440x1279,Temporal Distance Task,cb_09,19.0,temp_dist_trial,dist_items,qkpkxw,2.0,info,,5.240000000005238,0.0,5.240000000005238,5.240000000005238,0.0,5.240000000005238,1.0,0.0,0.0,,Slider,Slider,4.0,object-56,temp_dist_trial,19.0,s_a_19_1,student_art,ballet shoes,9.0,unique,paired,s_a_19_1.jpg,Student,,,sub-26
Desktop or Laptop,Windows 10,Firefox 140.0,3440x1440,3440x1279,Temporal Distance Task,cb_09,19.0,temp_dist_trial,dist_items,qkpkxw,2.0,continue,,4756.140000000014,4750.120000000011,4756.140000000014,4756.140000000014,4750.120000000011,4756.140000000014,1.0,0.0,0.0,,Click To Continue,Next button,7.0,object-60,temp_dist_trial,19.0,s_a_19_1,student_art,ballet shoes,9.0,unique,paired,s_a_19_1.jpg,Student,,,sub-26
Desktop or Laptop,Windows 10,Firefox 140.0,3440x1440,3440x1279,Temporal Distance Task,cb_09,19.0,temp_dist_trial,dist_items,qkpkxw,2.0,response,89,2357.4400000000023,4750.120000000011,4756.140000000014,2357.4400000000023,4750.120000000011,4756.140000000014,1.0,2398.700000000012,0.0,,Slider,Slider,4.0,object-56,temp_dist_trial,19.0,s_a_19_1,student_art,ballet shoes,9.0,unique,paired,s_a_19_1.jpg,Student,,,sub-26
Desktop or Laptop,Windows 10,Firefox 140.0,3440x1440,3440x1279,Temporal Distance Task,cb_09,20.0,temp_dist_trial,num_items,zn7si1,1.0,response,2_ITEM,993.1199999999952,991.5399999999936,993.1199999999952,993.1199999999952,991.5399999999936,993.1199999999952,1.0,0.0,0.0,,Click Response,2_count,5.0,object-49,temp_dist_trial,20.0,s_sh_12_1,student_shared,binder,9.0,competing,paired,s_sh_12_1.jpg,Student,,,sub-26
Desktop or Laptop,Windows 10,Firefox 140.0,3440x1440,3440x1279,Temporal Distance Task,cb_09,20.0,temp_dist_trial,dist_items,qkpkxw,2.0,info,,4.3999999999941775,0.0,4.3999999999941775,4.3999999999941775,0.0,4.3999999999941775,1.0,0.0,0.0,,Slider,Slider,4.0,object-56,temp_dist_trial,20.0,s_sh_12_1,student_shared,binder,9.0,competing,paired,s_sh_12_1.jpg,Student,,,sub-26
Desktop or Laptop,Windows 10,Firefox 140.0,3440x1440,3440x1279,Temporal Distance Task,cb_09,20.0,temp_dist_trial,dist_items,qkpkxw,2.0,continue,,1904.3999999999944,1902.0399999999936,1904.3999999999944,1904.3999999999944,1902.0399999999936,1904.3999999999944,1.0,0.0,0.0,,Click To Continue,Next button,7.0,object-60,temp_dist_trial,20.0,s_sh_12_1,student_shared,binder,9.0,competing,paired,s_sh_12_1.jpg,Student,,,sub-26
Desktop or Laptop,Windows 10,Firefox 140.0,3440x1440,3440x1279,Temporal Distance Task,cb_09,20.0,temp_dist_trial,dist_items,qkpkxw,2.0,response,14,981.2200000000012,1902.0399999999936,1905.3999999999944,981.2200000000012,1902.0399999999936,1905.3999999999944,1.0,924.179999999993,0.0,,Slider,Slider,4.0,object-56,temp_dist_trial,20.0,s_sh_12_1,student_shared,binder,9.0,competing,paired,s_sh_12_1.jpg,Student,,,sub-26
Desktop or Laptop,Windows 10,Firefox 140.0,3440x1440,3440x1279,Temporal Distance Task,cb_09,21.0,temp_dist_trial,num_items,zn7si1,1.0,response,1_ITEM,1559.3600000000006,1554.1399999999994,1559.3600000000006,1559.3600000000006,1554.1399999999994,1559.3600000000006,1.0,0.0,0.0,,Click Response,1_count,3.0,object-46,temp_dist_trial,21.0,s_a_12_1,student_art,saxophone,9.0,unique,paired,s_a_12_1.jpg,Student,,,sub-26
Desktop or Laptop,Windows 10,Firefox 140.0,3440x1440,3440x1279,Temporal Distance Task,cb_09,22.0,temp_dist_trial,num_items,zn7si1,1.0,response,2_ITEM,1265.2200000000012,1262.4199999999985,1265.2200000000012,1265.2200000000012,1262.4199999999985,1265.2200000000012,1.0,0.0,0.0,,Click Response,2_count,5.0,object-49,temp_dist_trial,22.0,s_sh_22_1,student_shared,hole puncher,9.0,competing,paired,s_sh_22_1.jpg,Student,,,sub-26
Desktop or Laptop,Windows 10,Firefox 140.0,3440x1440,3440x1279,Temporal Distance Task,cb_09,22.0,temp_dist_trial,dist_items,qkpkxw,2.0,info,,4.039999999993596,0.0,4.039999999993596,4.039999999993596,0.0,4.039999999993596,1.0,0.0,0.0,,Slider,Slider,4.0,object-56,temp_dist_trial,22.0,s_sh_22_1,student_shared,hole puncher,9.0,competing,paired,s_sh_22_1.jpg,Student,,,sub-26
Desktop or Laptop,Windows 10,Firefox 140.0,3440x1440,3440x1279,Temporal Distance Task,cb_09,22.0,temp_dist_trial,dist_items,qkpkxw,2.0,continue,,1768.0399999999936,1763.0399999999936,1768.0399999999936,1768.0399999999936,1763.0399999999936,1768.0399999999936,1.0,0.0,0.0,,Click To Continue,Next button,7.0,object-60,temp_dist_trial,22.0,s_sh_22_1,student_shared,hole puncher,9.0,competing,paired,s_sh_22_1.jpg,Student,,,sub-26
Desktop or Laptop,Windows 10,Firefox 140.0,3440x1440,3440x1279,Temporal Distance Task,cb_09,22.0,temp_dist_trial,dist_items,qkpkxw,2.0,response,22,786.1399999999994,1763.0399999999936,1769.0399999999936,786.1399999999994,1763.0399999999936,1769.0399999999936,1.0,982.8999999999942,0.0,,Slider,Slider,4.0,object-56,temp_dist_trial,22.0,s_sh_22_1,student_shared,hole puncher,9.0,competing,paired,s_sh_22_1.jpg,Student,,,sub-26
Desktop or Laptop,Windows 10,Firefox 140.0,3440x1440,3440x1279,Temporal Distance Task,cb_09,23.0,temp_dist_trial,num_items,zn7si1,1.0,response,1_ITEM,1033.0,1027.1399999999994,1033.0,1033.0,1027.1399999999994,1033.0,1.0,0.0,0.0,,Click Response,1_count,3.0,object-46,temp_dist_trial,23.0,s_s_06_1,student_stem,calculator,9.0,unique,single,s_s_06_1.jpg,Student,,,sub-26
Desktop or Laptop,Windows 10,Firefox 140.0,3440x1440,3440x1279,Temporal Distance Task,cb_09,24.0,temp_dist_trial,num_items,zn7si1,1.0,response,1_ITEM,1013.0399999999936,1007.8399999999964,1013.0399999999936,1013.0399999999936,1007.8399999999964,1013.0399999999936,1.0,0.0,0.0,,Click Response,1_count,3.0,object-46,temp_dist_trial,24.0,s_s_19_1,student_stem,circuit board,9.0,unique,paired,s_s_19_1.jpg,Student,,,sub-26
Desktop or Laptop,Windows 10,Firefox 140.0,3440x1440,3440x1279,Temporal Distance Task,cb_09,25.0,temp_dist_trial,num_items,zn7si1,1.0,response,1_ITEM,1083.1199999999953,1082.1999999999969,1083.1199999999953,1083.1199999999953,1082.1999999999969,1083.1199999999953,1.0,0.0,0.0,,Click Response,1_count,3.0,object-46,temp_dist_trial,25.0,s_a_06_1,student_art,pastels,9.0,unique,single,s_a_06_1.jpg,Student,,,sub-26
Desktop or Laptop,Windows 10,Firefox 140.0,3440x1440,3440x1279,Temporal Distance Task,cb_09,26.0,temp_dist_trial,num_items,zn7si1,1.0,response,1_ITEM,715.2599999999948,710.7999999999884,715.2599999999948,715.2599999999948,710.7999999999884,715.2599999999948,1.0,0.0,0.0,,Click Response,1_count,3.0,object-46,temp_dist_trial,26.0,s_a_01_1,student_art,paintbrush,9.0,unique,single,s_a_01_1.jpg,Student,,,sub-26
Desktop or Laptop,Windows 10,Firefox 140.0,3440x1440,3440x1279,Temporal Distance Task,cb_09,27.0,temp_dist_trial,num_items,zn7si1,1.0,response,1_ITEM,1474.0599999999977,1466.7399999999911,1474.0599999999977,1474.0599999999977,1466.7399999999911,1474.0599999999977,1.0,0.0,0.0,,Click Response,1_count,3.0,object-46,temp_dist_trial,27.0,s_s_09_1,student_stem,multimeter,9.0,unique,paired,s_s_09_1.jpg,Student,,,sub-26
Desktop or Laptop,Windows 10,Firefox 140.0,3440x1440,3440x1279,Temporal Distance Task,cb_09,28.0,temp_dist_trial,num_items,zn7si1,1.0,response,1_ITEM,979.9199999999984,976.020000000004,979.9199999999984,979.9199999999984,976.020000000004,979.9199999999984,1.0,0.0,0.0,,Click Response,1_count,3.0,object-46,temp_dist_trial,28.0,s_sh_03_1,student_shared,highlighter,9.0,competing,single,s_sh_03_1.jpg,Student,,,sub-26
Desktop or Laptop,Windows 10,Firefox 140.0,3440x1440,3440x1279,Temporal Distance Task,cb_09,29.0,temp_dist_trial,num_items,zn7si1,1.0,response,2_ITEM,1663.140000000014,1658.320000000007,1663.140000000014,1663.140000000014,1658.320000000007,1663.140000000014,1.0,0.0,0.0,,Click Response,2_count,5.0,object-49,temp_dist_trial,29.0,s_sh_24_1,student_shared,desk organizer,9.0,competing,paired,s_sh_24_1.jpg,Student,,,sub-26
Desktop or Laptop,Windows 10,Firefox 140.0,3440x1440,3440x1279,Temporal Distance Task,cb_09,29.0,temp_dist_trial,dist_items,qkpkxw,2.0,info,,4.820000000006985,0.0,4.820000000006985,4.820000000006985,0.0,4.820000000006985,1.0,0.0,0.0,,Slider,Slider,4.0,object-56,temp_dist_trial,29.0,s_sh_24_1,student_shared,desk organizer,9.0,competing,paired,s_sh_24_1.jpg,Student,,,sub-26
Desktop or Laptop,Windows 10,Firefox 140.0,3440x1440,3440x1279,Temporal Distance Task,cb_09,29.0,temp_dist_trial,dist_items,qkpkxw,2.0,continue,,1951.859999999986,1945.7200000000007,1951.859999999986,1951.859999999986,1945.7200000000007,1951.859999999986,1.0,0.0,0.0,,Click To Continue,Next button,7.0,object-60,temp_dist_trial,29.0,s_sh_24_1,student_shared,desk organizer,9.0,competing,paired,s_sh_24_1.jpg,Student,,,sub-26
Desktop or Laptop,Windows 10,Firefox 140.0,3440x1440,3440x1279,Temporal Distance Task,cb_09,29.0,temp_dist_trial,dist_items,qkpkxw,2.0,response,85,775.5200000000186,1945.7200000000007,1951.859999999986,775.5200000000186,1945.7200000000007,1951.859999999986,1.0,1176.3399999999674,0.0,,Slider,Slider,4.0,object-56,temp_dist_trial,29.0,s_sh_24_1,student_shared,desk organizer,9.0,competing,paired,s_sh_24_1.jpg,Student,,,sub-26
Desktop or Laptop,Windows 10,Firefox 140.0,3440x1440,3440x1279,Temporal Distance Task,cb_09,30.0,temp_dist_trial,num_items,zn7si1,1.0,response,1_ITEM,1115.1000000000058,1110.179999999993,1115.1000000000058,1115.1000000000058,1110.179999999993,1115.1000000000058,1.0,0.0,0.0,,Click Response,1_count,3.0,object-46,temp_dist_trial,30.0,s_a_15_1,student_art,drum kit,9.0,unique,single,s_a_15_1.jpg,Student,,,sub-26
Desktop or Laptop,Windows 10,Firefox 140.0,3440x1440,3440x1279,Temporal Distance Task,cb_09,31.0,temp_dist_trial,num_items,zn7si1,1.0,response,1_ITEM,1150.0599999999977,1149.2399999999907,1150.0599999999977,1150.0599999999977,1149.2399999999907,1150.0599999999977,1.0,0.0,0.0,,Click Response,1_count,3.0,object-46,temp_dist_trial,31.0,s_s_10_1,student_stem,3d molecule,9.0,unique,paired,s_s_10_1.jpg,Student,,,sub-26
Desktop or Laptop,Windows 10,Firefox 140.0,3440x1440,3440x1279,Temporal Distance Task,cb_09,32.0,temp_dist_trial,num_items,zn7si1,1.0,response,2_ITEM,894.179999999993,892.0399999999789,894.179999999993,894.179999999993,892.0399999999789,894.179999999993,1.0,0.0,0.0,,Click Response,2_count,5.0,object-49,temp_dist_trial,32.0,s_sh_14_1,student_shared,printer,9.0,competing,paired,s_sh_14_1.jpg,Student,,,sub-26
Desktop or Laptop,Windows 10,Firefox 140.0,3440x1440,3440x1279,Temporal Distance Task,cb_09,32.0,temp_dist_trial,dist_items,qkpkxw,2.0,info,,5.320000000006985,0.0,5.320000000006985,5.320000000006985,0.0,5.320000000006985,1.0,0.0,0.0,,Slider,Slider,4.0,object-56,temp_dist_trial,32.0,s_sh_14_1,student_shared,printer,9.0,competing,paired,s_sh_14_1.jpg,Student,,,sub-26
Desktop or Laptop,Windows 10,Firefox 140.0,3440x1440,3440x1279,Temporal Distance Task,cb_09,32.0,temp_dist_trial,dist_items,qkpkxw,2.0,continue,,1506.320000000007,1500.3399999999967,1506.320000000007,1506.320000000007,1500.3399999999967,1506.320000000007,1.0,0.0,0.0,,Click To Continue,Next button,7.0,object-60,temp_dist_trial,32.0,s_sh_14_1,student_shared,printer,9.0,competing,paired,s_sh_14_1.jpg,Student,,,sub-26
Desktop or Laptop,Windows 10,Firefox 140.0,3440x1440,3440x1279,Temporal Distance Task,cb_09,32.0,temp_dist_trial,dist_items,qkpkxw,2.0,response,25,891.9400000000023,1500.3399999999967,1506.5799999999872,891.9400000000023,1500.3399999999967,1506.5799999999872,1.0,614.6399999999849,0.0,,Slider,Slider,4.0,object-56,temp_dist_trial,32.0,s_sh_14_1,student_shared,printer,9.0,competing,paired,s_sh_14_1.jpg,Student,,,sub-26
Desktop or Laptop,Windows 10,Firefox 140.0,3440x1440,3440x1279,Temporal Distance Task,cb_09,33.0,temp_dist_trial,num_items,zn7si1,1.0,response,2_ITEM,1062.9800000000105,1059.6600000000037,1062.9800000000105,1062.9800000000105,1059.6600000000037,1062.9800000000105,1.0,0.0,0.0,,Click Response,2_count,5.0,object-49,temp_dist_trial,33.0,s_s_15_1,student_stem,jumper cables,9.0,unique,paired,s_s_15_1.jpg,Student,,,sub-26
Desktop or Laptop,Windows 10,Firefox 140.0,3440x1440,3440x1279,Temporal Distance Task,cb_09,33.0,temp_dist_trial,dist_items,qkpkxw,2.0,info,,2.14000000001397,0.0,2.14000000001397,2.14000000001397,0.0,2.14000000001397,1.0,0.0,0.0,,Slider,Slider,4.0,object-56,temp_dist_trial,33.0,s_s_15_1,student_stem,jumper cables,9.0,unique,paired,s_s_15_1.jpg,Student,,,sub-26
Desktop or Laptop,Windows 10,Firefox 140.0,3440x1440,3440x1279,Temporal Distance Task,cb_09,33.0,temp_dist_trial,dist_items,qkpkxw,2.0,continue,,4420.700000000013,4414.820000000007,4420.700000000013,4420.700000000013,4414.820000000007,4420.700000000013,1.0,0.0,0.0,,Click To Continue,Next button,7.0,object-60,temp_dist_trial,33.0,s_s_15_1,student_stem,jumper cables,9.0,unique,paired,s_s_15_1.jpg,Student,,,sub-26
Desktop or Laptop,Windows 10,Firefox 140.0,3440x1440,3440x1279,Temporal Distance Task,cb_09,33.0,temp_dist_trial,dist_items,qkpkxw,2.0,response,88,1017.3600000000152,4414.820000000007,4420.700000000013,1017.3600000000152,4414.820000000007,4420.700000000013,1.0,3403.3399999999965,0.0,,Slider,Slider,4.0,object-56,temp_dist_trial,33.0,s_s_15_1,student_stem,jumper cables,9.0,unique,paired,s_s_15_1.jpg,Student,,,sub-26
Desktop or Laptop,Windows 10,Firefox 140.0,3440x1440,3440x1279,Temporal Distance Task,cb_09,34.0,temp_dist_trial,num_items,zn7si1,1.0,response,2_ITEM,926.9400000000024,920.9400000000024,926.9400000000024,926.9400000000024,920.9400000000024,926.9400000000024,1.0,0.0,0.0,,Click Response,2_count,5.0,object-49,temp_dist_trial,34.0,s_sh_10_1,student_shared,scissors,9.0,competing,paired,s_sh_10_1.jpg,Student,,,sub-26
Desktop or Laptop,Windows 10,Firefox 140.0,3440x1440,3440x1279,Temporal Distance Task,cb_09,34.0,temp_dist_trial,dist_items,qkpkxw,2.0,info,,3.2799999999988367,0.0,3.2799999999988367,3.2799999999988367,0.0,3.2799999999988367,1.0,0.0,0.0,,Slider,Slider,4.0,object-56,temp_dist_trial,34.0,s_sh_10_1,student_shared,scissors,9.0,competing,paired,s_sh_10_1.jpg,Student,,,sub-26
Desktop or Laptop,Windows 10,Firefox 140.0,3440x1440,3440x1279,Temporal Distance Task,cb_09,34.0,temp_dist_trial,dist_items,qkpkxw,2.0,continue,,1984.2799999999988,1982.0,1984.2799999999988,1984.2799999999988,1982.0,1984.2799999999988,1.0,0.0,0.0,,Click To Continue,Next button,7.0,object-60,temp_dist_trial,34.0,s_sh_10_1,student_shared,scissors,9.0,competing,paired,s_sh_10_1.jpg,Student,,,sub-26
Desktop or Laptop,Windows 10,Firefox 140.0,3440x1440,3440x1279,Temporal Distance Task,cb_09,34.0,temp_dist_trial,dist_items,qkpkxw,2.0,response,63,1192.540000000008,1982.0,1985.2799999999988,1192.540000000008,1982.0,1985.2799999999988,1.0,792.7399999999907,0.0,,Slider,Slider,4.0,object-56,temp_dist_trial,34.0,s_sh_10_1,student_shared,scissors,9.0,competing,paired,s_sh_10_1.jpg,Student,,,sub-26
Desktop or Laptop,Windows 10,Firefox 140.0,3440x1440,3440x1279,Temporal Distance Task,cb_09,35.0,temp_dist_trial,num_items,zn7si1,1.0,response,2_ITEM,1043.2799999999988,1037.820000000007,1043.2799999999988,1043.2799999999988,1037.820000000007,1043.2799999999988,1.0,0.0,0.0,,Click Response,2_count,5.0,object-49,temp_dist_trial,35.0,s_sh_09_1,student_shared,paper clips,9.0,competing,paired,s_sh_09_1.jpg,Student,,,sub-26
Desktop or Laptop,Windows 10,Firefox 140.0,3440x1440,3440x1279,Temporal Distance Task,cb_09,35.0,temp_dist_trial,dist_items,qkpkxw,2.0,info,,6.279999999998838,0.0,6.279999999998838,6.279999999998838,0.0,6.279999999998838,1.0,0.0,0.0,,Slider,Slider,4.0,object-56,temp_dist_trial,35.0,s_sh_09_1,student_shared,paper clips,9.0,competing,paired,s_sh_09_1.jpg,Student,,,sub-26
Desktop or Laptop,Windows 10,Firefox 140.0,3440x1440,3440x1279,Temporal Distance Task,cb_09,35.0,temp_dist_trial,dist_items,qkpkxw,2.0,continue,,1826.4800000000105,1820.2799999999988,1826.4800000000105,1826.4800000000105,1820.2799999999988,1826.4800000000105,1.0,0.0,0.0,,Click To Continue,Next button,7.0,object-60,temp_dist_trial,35.0,s_sh_09_1,student_shared,paper clips,9.0,competing,paired,s_sh_09_1.jpg,Student,,,sub-26
Desktop or Laptop,Windows 10,Firefox 140.0,3440x1440,3440x1279,Temporal Distance Task,cb_09,35.0,temp_dist_trial,dist_items,qkpkxw,2.0,response,28,1192.459999999992,1820.2799999999988,1826.4800000000105,1192.459999999992,1820.2799999999988,1826.4800000000105,1.0,634.0200000000186,0.0,,Slider,Slider,4.0,object-56,temp_dist_trial,35.0,s_sh_09_1,student_shared,paper clips,9.0,competing,paired,s_sh_09_1.jpg,Student,,,sub-26
Desktop or Laptop,Windows 10,Firefox 140.0,3440x1440,3440x1279,Temporal Distance Task,cb_09,36.0,temp_dist_trial,num_items,zn7si1,1.0,response,2_ITEM,972.0,967.9800000000104,972.0,972.0,967.9800000000104,972.0,1.0,0.0,0.0,,Click Response,2_count,5.0,object-49,temp_dist_trial,36.0,s_a_14_1,student_art,guitar pick,9.0,unique,paired,s_a_14_1.jpg,Student,,,sub-26
Desktop or Laptop,Windows 10,Firefox 140.0,3440x1440,3440x1279,Temporal Distance Task,cb_09,36.0,temp_dist_trial,dist_items,qkpkxw,2.0,info,,5.019999999989524,0.0,5.019999999989524,5.019999999989524,0.0,5.019999999989524,1.0,0.0,0.0,,Slider,Slider,4.0,object-56,temp_dist_trial,36.0,s_a_14_1,student_art,guitar pick,9.0,unique,paired,s_a_14_1.jpg,Student,,,sub-26
Desktop or Laptop,Windows 10,Firefox 140.0,3440x1440,3440x1279,Temporal Distance Task,cb_09,36.0,temp_dist_trial,dist_items,qkpkxw,2.0,continue,,2433.019999999989,2429.679999999993,2433.019999999989,2433.019999999989,2429.679999999993,2433.019999999989,1.0,0.0,0.0,,Click To Continue,Next button,7.0,object-60,temp_dist_trial,36.0,s_a_14_1,student_art,guitar pick,9.0,unique,paired,s_a_14_1.jpg,Student,,,sub-26
Desktop or Laptop,Windows 10,Firefox 140.0,3440x1440,3440x1279,Temporal Distance Task,cb_09,36.0,temp_dist_trial,dist_items,qkpkxw,2.0,response,70,1083.6399999999846,2429.679999999993,2434.019999999989,1083.6399999999846,2429.679999999993,2434.019999999989,1.0,1350.3800000000047,0.0,,Slider,Slider,4.0,object-56,temp_dist_trial,36.0,s_a_14_1,student_art,guitar pick,9.0,unique,paired,s_a_14_1.jpg,Student,,,sub-26
Desktop or Laptop,Windows 10,Firefox 140.0,3440x1440,3440x1279,Temporal Distance Task,cb_09,37.0,temp_dist_trial,num_items,zn7si1,1.0,response,2_ITEM,1642.3399999999967,1640.320000000007,1642.3399999999967,1642.3399999999967,1640.320000000007,1642.3399999999967,1.0,0.0,0.0,,Click Response,2_count,5.0,object-49,temp_dist_trial,37.0,s_a_02_1,student_art,canvas,9.0,unique,paired,s_a_02_1.jpg,Student,,,sub-26
Desktop or Laptop,Windows 10,Firefox 140.0,3440x1440,3440x1279,Temporal Distance Task,cb_09,37.0,temp_dist_trial,dist_items,qkpkxw,2.0,info,,3.320000000006985,0.0,3.320000000006985,3.320000000006985,0.0,3.320000000006985,1.0,0.0,0.0,,Slider,Slider,4.0,object-56,temp_dist_trial,37.0,s_a_02_1,student_art,canvas,9.0,unique,paired,s_a_02_1.jpg,Student,,,sub-26
Desktop or Laptop,Windows 10,Firefox 140.0,3440x1440,3440x1279,Temporal Distance Task,cb_09,37.0,temp_dist_trial,dist_items,qkpkxw,2.0,continue,,3863.3200000000065,3862.080000000016,3863.3200000000065,3863.3200000000065,3862.080000000016,3863.3200000000065,1.0,0.0,0.0,,Click To Continue,Next button,7.0,object-60,temp_dist_trial,37.0,s_a_02_1,student_art,canvas,9.0,unique,paired,s_a_02_1.jpg,Student,,,sub-26
Desktop or Laptop,Windows 10,Firefox 140.0,3440x1440,3440x1279,Temporal Distance Task,cb_09,37.0,temp_dist_trial,dist_items,qkpkxw,2.0,response,8,2636.320000000007,3862.080000000016,3864.3200000000065,2636.320000000007,3862.080000000016,3864.3200000000065,1.0,1228.0,0.0,,Slider,Slider,4.0,object-56,temp_dist_trial,37.0,s_a_02_1,student_art,canvas,9.0,unique,paired,s_a_02_1.jpg,Student,,,sub-26
Desktop or Laptop,Windows 10,Firefox 140.0,3440x1440,3440x1279,Temporal Distance Task,cb_09,38.0,temp_dist_trial,num_items,zn7si1,1.0,response,1_ITEM,1844.1999999999528,1838.0999999999767,1844.1999999999528,1844.1999999999528,1838.0999999999767,1844.1999999999528,1.0,0.0,0.0,,Click Response,1_count,3.0,object-46,temp_dist_trial,38.0,s_s_01_1,student_stem,microscope,9.0,unique,paired,s_s_01_1.jpg,Student,,,sub-26
Desktop or Laptop,Windows 10,Firefox 140.0,3440x1440,3440x1279,Temporal Distance Task,cb_09,39.0,temp_dist_trial,num_items,zn7si1,1.0,response,2_ITEM,1126.640000000014,1120.3800000000047,1126.640000000014,1126.640000000014,1120.3800000000047,1126.640000000014,1.0,0.0,0.0,,Click Response,2_count,5.0,object-49,temp_dist_trial,39.0,s_sh_20_1,student_shared,tape,9.0,competing,paired,s_sh_20_1.jpg,Student,,,sub-26
Desktop or Laptop,Windows 10,Firefox 140.0,3440x1440,3440x1279,Temporal Distance Task,cb_09,39.0,temp_dist_trial,dist_items,qkpkxw,2.0,info,,2.14000000001397,0.0,2.14000000001397,2.14000000001397,0.0,2.14000000001397,1.0,0.0,0.0,,Slider,Slider,4.0,object-56,temp_dist_trial,39.0,s_sh_20_1,student_shared,tape,9.0,competing,paired,s_sh_20_1.jpg,Student,,,sub-26
Desktop or Laptop,Windows 10,Firefox 140.0,3440x1440,3440x1279,Temporal Distance Task,cb_09,39.0,temp_dist_trial,dist_items,qkpkxw,2.0,continue,,2545.800000000017,2539.760000000009,2545.800000000017,2545.800000000017,2539.760000000009,2545.800000000017,1.0,0.0,0.0,,Click To Continue,Next button,7.0,object-60,temp_dist_trial,39.0,s_sh_20_1,student_shared,tape,9.0,competing,paired,s_sh_20_1.jpg,Student,,,sub-26
Desktop or Laptop,Windows 10,Firefox 140.0,3440x1440,3440x1279,Temporal Distance Task,cb_09,39.0,temp_dist_trial,dist_items,qkpkxw,2.0,response,79,1844.040000000008,2539.760000000009,2545.800000000017,1844.040000000008,2539.760000000009,2545.800000000017,1.0,701.7600000000093,0.0,,Slider,Slider,4.0,object-56,temp_dist_trial,39.0,s_sh_20_1,student_shared,tape,9.0,competing,paired,s_sh_20_1.jpg,Student,,,sub-26
Desktop or Laptop,Windows 10,Firefox 140.0,3440x1440,3440x1279,Temporal Distance Task,cb_09,40.0,temp_dist_trial,num_items,zn7si1,1.0,response,1_ITEM,2260.3800000000047,2254.5,2260.3800000000047,2260.3800000000047,2254.5,2260.3800000000047,1.0,0.0,0.0,,Click Response,1_count,3.0,object-46,temp_dist_trial,40.0,s_sh_18_1,student_shared,wall calendar,9.0,competing,paired,s_sh_18_1.jpg,Student,,,sub-26
Desktop or Laptop,Windows 10,Firefox 140.0,3440x1440,3440x1279,Temporal Distance Task,cb_09,41.0,temp_dist_trial,num_items,zn7si1,1.0,response,1_ITEM,1062.9400000000023,1057.679999999993,1062.9400000000023,1062.9400000000023,1057.679999999993,1062.9400000000023,1.0,0.0,0.0,,Click Response,1_count,3.0,object-46,temp_dist_trial,41.0,s_sh_11_1,student_shared,pencil case,9.0,competing,paired,s_sh_11_1.jpg,Student,,,sub-26
Desktop or Laptop,Windows 10,Firefox 140.0,3440x1440,3440x1279,Temporal Distance Task,cb_09,42.0,temp_dist_trial,num_items,zn7si1,1.0,response,2_ITEM,1717.5199999999606,1711.4799999999814,1717.5199999999606,1717.5199999999606,1711.4799999999814,1717.5199999999606,1.0,0.0,0.0,,Click Response,2_count,5.0,object-49,temp_dist_trial,42.0,s_sh_04_1,student_shared,laptop stand,9.0,competing,paired,s_sh_04_1.jpg,Student,,,sub-26
Desktop or Laptop,Windows 10,Firefox 140.0,3440x1440,3440x1279,Temporal Distance Task,cb_09,42.0,temp_dist_trial,dist_items,qkpkxw,2.0,info,,2.220000000001164,0.0,2.220000000001164,2.220000000001164,0.0,2.220000000001164,1.0,0.0,0.0,,Slider,Slider,4.0,object-56,temp_dist_trial,42.0,s_sh_04_1,student_shared,laptop stand,9.0,competing,paired,s_sh_04_1.jpg,Student,,,sub-26
Desktop or Laptop,Windows 10,Firefox 140.0,3440x1440,3440x1279,Temporal Distance Task,cb_09,42.0,temp_dist_trial,dist_items,qkpkxw,2.0,continue,,3584.220000000001,3578.3999999999933,3584.220000000001,3584.220000000001,3578.3999999999933,3584.220000000001,1.0,0.0,0.0,,Click To Continue,Next button,7.0,object-60,temp_dist_trial,42.0,s_sh_04_1,student_shared,laptop stand,9.0,competing,paired,s_sh_04_1.jpg,Student,,,sub-26
Desktop or Laptop,Windows 10,Firefox 140.0,3440x1440,3440x1279,Temporal Distance Task,cb_09,42.0,temp_dist_trial,dist_items,qkpkxw,2.0,response,76,1922.2000000000119,3578.3999999999933,3584.220000000001,1922.2000000000119,3578.3999999999933,3584.220000000001,1.0,1662.0199999999895,0.0,,Slider,Slider,4.0,object-56,temp_dist_trial,42.0,s_sh_04_1,student_shared,laptop stand,9.0,competing,paired,s_sh_04_1.jpg,Student,,,sub-26
Desktop or Laptop,Windows 10,Firefox 140.0,3440x1440,3440x1279,Temporal Distance Task,cb_09,43.0,temp_dist_trial,num_items,zn7si1,1.0,response,2_ITEM,1887.820000000007,1882.7000000000119,1887.820000000007,1887.820000000007,1882.7000000000119,1887.820000000007,1.0,0.0,0.0,,Click Response,2_count,5.0,object-49,temp_dist_trial,43.0,s_s_08_1,student_stem,soldering iron,9.0,unique,paired,s_s_08_1.jpg,Student,,,sub-26
Desktop or Laptop,Windows 10,Firefox 140.0,3440x1440,3440x1279,Temporal Distance Task,cb_09,43.0,temp_dist_trial,dist_items,qkpkxw,2.0,info,,4.279999999998837,0.0,4.279999999998837,4.279999999998837,0.0,4.279999999998837,1.0,0.0,0.0,,Slider,Slider,4.0,object-56,temp_dist_trial,43.0,s_s_08_1,student_stem,soldering iron,9.0,unique,paired,s_s_08_1.jpg,Student,,,sub-26
Desktop or Laptop,Windows 10,Firefox 140.0,3440x1440,3440x1279,Temporal Distance Task,cb_09,43.0,temp_dist_trial,dist_items,qkpkxw,2.0,continue,,3060.279999999999,3053.5,3060.279999999999,3060.279999999999,3053.5,3060.279999999999,1.0,0.0,0.0,,Click To Continue,Next button,7.0,object-60,temp_dist_trial,43.0,s_s_08_1,student_stem,soldering iron,9.0,unique,paired,s_s_08_1.jpg,Student,,,sub-26
Desktop or Laptop,Windows 10,Firefox 140.0,3440x1440,3440x1279,Temporal Distance Task,cb_09,43.0,temp_dist_trial,dist_items,qkpkxw,2.0,response,86,1892.5199999999893,3053.5,3061.140000000014,1892.5199999999893,3053.5,3061.140000000014,1.0,1168.6200000000247,0.0,,Slider,Slider,4.0,object-56,temp_dist_trial,43.0,s_s_08_1,student_stem,soldering iron,9.0,unique,paired,s_s_08_1.jpg,Student,,,sub-26
Desktop or Laptop,Windows 10,Firefox 140.0,3440x1440,3440x1279,Temporal Distance Task,cb_09,44.0,temp_dist_trial,num_items,zn7si1,1.0,response,2_ITEM,1560.7799999999988,1557.679999999993,1560.7799999999988,1560.7799999999988,1557.679999999993,1560.7799999999988,1.0,0.0,0.0,,Click Response,2_count,5.0,object-49,temp_dist_trial,44.0,s_sh_15_1,student_shared,usb drive,9.0,competing,paired,s_sh_15_1.jpg,Student,,,sub-26
Desktop or Laptop,Windows 10,Firefox 140.0,3440x1440,3440x1279,Temporal Distance Task,cb_09,44.0,temp_dist_trial,dist_items,qkpkxw,2.0,info,,4.1600000000034925,0.0,4.1600000000034925,4.1600000000034925,0.0,4.1600000000034925,1.0,0.0,0.0,,Slider,Slider,4.0,object-56,temp_dist_trial,44.0,s_sh_15_1,student_shared,usb drive,9.0,competing,paired,s_sh_15_1.jpg,Student,,,sub-26
Desktop or Laptop,Windows 10,Firefox 140.0,3440x1440,3440x1279,Temporal Distance Task,cb_09,44.0,temp_dist_trial,dist_items,qkpkxw,2.0,continue,,2586.1600000000035,2580.9400000000023,2586.1600000000035,2586.1600000000035,2580.9400000000023,2586.1600000000035,1.0,0.0,0.0,,Click To Continue,Next button,7.0,object-60,temp_dist_trial,44.0,s_sh_15_1,student_shared,usb drive,9.0,competing,paired,s_sh_15_1.jpg,Student,,,sub-26
Desktop or Laptop,Windows 10,Firefox 140.0,3440x1440,3440x1279,Temporal Distance Task,cb_09,44.0,temp_dist_trial,dist_items,qkpkxw,2.0,response,22,1391.8999999999942,2580.9400000000023,2586.1600000000035,1391.8999999999942,2580.9400000000023,2586.1600000000035,1.0,1194.2600000000093,0.0,,Slider,Slider,4.0,object-56,temp_dist_trial,44.0,s_sh_15_1,student_shared,usb drive,9.0,competing,paired,s_sh_15_1.jpg,Student,,,sub-26
Desktop or Laptop,Windows 10,Firefox 140.0,3440x1440,3440x1279,Temporal Distance Task,cb_09,45.0,temp_dist_trial,num_items,zn7si1,1.0,response,2_ITEM,929.2200000000012,926.2399999999907,929.2200000000012,929.2200000000012,926.2399999999907,929.2200000000012,1.0,0.0,0.0,,Click Response,2_count,5.0,object-49,temp_dist_trial,45.0,s_a_16_1,student_art,piano,9.0,unique,paired,s_a_16_1.jpg,Student,,,sub-26
Desktop or Laptop,Windows 10,Firefox 140.0,3440x1440,3440x1279,Temporal Distance Task,cb_09,45.0,temp_dist_trial,dist_items,qkpkxw,2.0,info,,7.400000000023283,0.0,7.400000000023283,7.400000000023283,0.0,7.400000000023283,1.0,0.0,0.0,,Slider,Slider,4.0,object-56,temp_dist_trial,45.0,s_a_16_1,student_art,piano,9.0,unique,paired,s_a_16_1.jpg,Student,,,sub-26
Desktop or Laptop,Windows 10,Firefox 140.0,3440x1440,3440x1279,Temporal Distance Task,cb_09,45.0,temp_dist_trial,dist_items,qkpkxw,2.0,continue,,3117.2999999999884,3116.019999999989,3117.2999999999884,3117.2999999999884,3116.019999999989,3117.2999999999884,1.0,0.0,0.0,,Click To Continue,Next button,7.0,object-60,temp_dist_trial,45.0,s_a_16_1,student_art,piano,9.0,unique,paired,s_a_16_1.jpg,Student,,,sub-26
Desktop or Laptop,Windows 10,Firefox 140.0,3440x1440,3440x1279,Temporal Distance Task,cb_09,45.0,temp_dist_trial,dist_items,qkpkxw,2.0,response,55,2158.4400000000023,3116.019999999989,3118.2999999999884,2158.4400000000023,3116.019999999989,3118.2999999999884,1.0,959.8599999999859,0.0,,Slider,Slider,4.0,object-56,temp_dist_trial,45.0,s_a_16_1,student_art,piano,9.0,unique,paired,s_a_16_1.jpg,Student,,,sub-26
Desktop or Laptop,Windows 10,Firefox 140.0,3440x1440,3440x1279,Temporal Distance Task,cb_09,46.0,temp_dist_trial,num_items,zn7si1,1.0,response,2_ITEM,1430.2799999999988,1427.0199999999895,1430.2799999999988,1430.2799999999988,1427.0199999999895,1430.2799999999988,1.0,0.0,0.0,,Click Response,2_count,5.0,object-49,temp_dist_trial,46.0,s_sh_08_1,student_shared,post-its,9.0,competing,paired,s_sh_08_1.jpg,Student,,,sub-26
Desktop or Laptop,Windows 10,Firefox 140.0,3440x1440,3440x1279,Temporal Distance Task,cb_09,46.0,temp_dist_trial,dist_items,qkpkxw,2.0,info,,6.139999999984866,0.0,6.139999999984866,6.139999999984866,0.0,6.139999999984866,1.0,0.0,0.0,,Slider,Slider,4.0,object-56,temp_dist_trial,46.0,s_sh_08_1,student_shared,post-its,9.0,competing,paired,s_sh_08_1.jpg,Student,,,sub-26
Desktop or Laptop,Windows 10,Firefox 140.0,3440x1440,3440x1279,Temporal Distance Task,cb_09,46.0,temp_dist_trial,dist_items,qkpkxw,2.0,continue,,1647.2600000000089,1641.9800000000105,1647.2600000000089,1647.2600000000089,1641.9800000000105,1647.2600000000089,1.0,0.0,0.0,,Click To Continue,Next button,7.0,object-60,temp_dist_trial,46.0,s_sh_08_1,student_shared,post-its,9.0,competing,paired,s_sh_08_1.jpg,Student,,,sub-26
Desktop or Laptop,Windows 10,Firefox 140.0,3440x1440,3440x1279,Temporal Distance Task,cb_09,46.0,temp_dist_trial,dist_items,qkpkxw,2.0,response,67,840.320000000007,1641.9800000000105,1649.2600000000089,840.320000000007,1641.9800000000105,1649.2600000000089,1.0,808.9400000000023,0.0,,Slider,Slider,4.0,object-56,temp_dist_trial,46.0,s_sh_08_1,student_shared,post-its,9.0,competing,paired,s_sh_08_1.jpg,Student,,,sub-26
Desktop or Laptop,Windows 10,Firefox 140.0,3440x1440,3440x1279,Temporal Distance Task,cb_09,47.0,temp_dist_trial,num_items,zn7si1,1.0,response,1_ITEM,1053.2799999999988,1048.5599999999977,1053.2799999999988,1053.2799999999988,1048.5599999999977,1053.2799999999988,1.0,0.0,0.0,,Click Response,1_count,3.0,object-46,temp_dist_trial,47.0,s_sh_07_1,student_shared,ruler,9.0,competing,single,s_sh_07_1.jpg,Student,,,sub-26
Desktop or Laptop,Windows 10,Firefox 140.0,3440x1440,3440x1279,Temporal Distance Task,cb_09,48.0,temp_dist_trial,num_items,zn7si1,1.0,response,1_ITEM,1271.2000000000114,1269.8400000000254,1271.2000000000114,1271.2000000000114,1269.8400000000254,1271.2000000000114,1.0,0.0,0.0,,Click Response,1_count,3.0,object-46,temp_dist_trial,48.0,s_sh_05_1,student_shared,laptop,9.0,competing,single,s_sh_05_1.jpg,Student,,,sub-26
Desktop or Laptop,Windows 10,Firefox 140.0,3440x1440,3440x1279,Temporal Distance Task,cb_09,2.0,temp_eventStart,Screen 1,dgtyxe,1.0,continue,,4357.820000000007,4356.399999999994,4357.820000000007,4357.820000000007,4356.399999999994,4357.820000000007,1.0,0.0,0.0,,Click To Continue,Next Button,3.0,object-43,temp_eventStart,,,Travel,,,,,,,,,sub-26
Desktop or Laptop,Windows 10,Firefox 140.0,3440x1440,3440x1279,Temporal Distance Task,cb_09,49.0,temp_dist_trial,num_items,zn7si1,1.0,response,1_ITEM,2260.4200000000133,2255.5200000000186,2260.4200000000133,2260.4200000000133,2255.5200000000186,2260.4200000000133,1.0,0.0,0.0,,Click Response,1_count,3.0,object-46,temp_dist_trial,1.0,t_i_01_1,travel_Iceland,gloves,9.0,unique,single,t_i_01_1.jpg,Travel,,,sub-26
Desktop or Laptop,Windows 10,Firefox 140.0,3440x1440,3440x1279,Temporal Distance Task,cb_09,50.0,temp_dist_trial,num_items,zn7si1,1.0,response,2_ITEM,1404.140000000014,1402.7000000000116,1404.140000000014,1404.140000000014,1402.7000000000116,1404.140000000014,1.0,0.0,0.0,,Click Response,2_count,5.0,object-49,temp_dist_trial,2.0,t_s_08_1,travel_shared,hand lotion,9.0,competing,single,t_s_08_1.jpg,Travel,,,sub-26
Desktop or Laptop,Windows 10,Firefox 140.0,3440x1440,3440x1279,Temporal Distance Task,cb_09,50.0,temp_dist_trial,dist_items,qkpkxw,2.0,info,,5.320000000006985,0.0,5.320000000006985,5.320000000006985,0.0,5.320000000006985,1.0,0.0,0.0,,Slider,Slider,4.0,object-56,temp_dist_trial,2.0,t_s_08_1,travel_shared,hand lotion,9.0,competing,single,t_s_08_1.jpg,Travel,,,sub-26
Desktop or Laptop,Windows 10,Firefox 140.0,3440x1440,3440x1279,Temporal Distance Task,cb_09,50.0,temp_dist_trial,dist_items,qkpkxw,2.0,continue,,4595.320000000007,4592.3000000000175,4595.320000000007,4595.320000000007,4592.3000000000175,4595.320000000007,1.0,0.0,0.0,,Click To Continue,Next button,7.0,object-60,temp_dist_trial,2.0,t_s_08_1,travel_shared,hand lotion,9.0,competing,single,t_s_08_1.jpg,Travel,,,sub-26
Desktop or Laptop,Windows 10,Firefox 140.0,3440x1440,3440x1279,Temporal Distance Task,cb_09,50.0,temp_dist_trial,dist_items,qkpkxw,2.0,response,87,3656.1199999999953,4592.3000000000175,4595.320000000007,3656.1199999999953,4592.3000000000175,4595.320000000007,1.0,939.2000000000116,0.0,,Slider,Slider,4.0,object-56,temp_dist_trial,2.0,t_s_08_1,travel_shared,hand lotion,9.0,competing,single,t_s_08_1.jpg,Travel,,,sub-26
Desktop or Laptop,Windows 10,Firefox 140.0,3440x1440,3440x1279,Temporal Distance Task,cb_09,51.0,temp_dist_trial,num_items,zn7si1,1.0,response,1_ITEM,1025.959999999992,1019.8399999999964,1025.959999999992,1025.959999999992,1019.8399999999964,1025.959999999992,1.0,0.0,0.0,,Click Response,1_count,3.0,object-46,temp_dist_trial,3.0,t_s_24_1,travel_shared,ear plugs,9.0,competing,paired,t_s_24_1.jpg,Travel,,,sub-26
Desktop or Laptop,Windows 10,Firefox 140.0,3440x1440,3440x1279,Temporal Distance Task,cb_09,52.0,temp_dist_trial,num_items,zn7si1,1.0,response,1_ITEM,1752.7999999999884,1746.5,1752.7999999999884,1752.7999999999884,1746.5,1752.7999999999884,1.0,0.0,0.0,,Click Response,1_count,3.0,object-46,temp_dist_trial,4.0,t_m_13_1,travel_Miami,floatie,9.0,unique,single,t_m_13_1.jpg,Travel,,,sub-26
Desktop or Laptop,Windows 10,Firefox 140.0,3440x1440,3440x1279,Temporal Distance Task,cb_09,53.0,temp_dist_trial,num_items,zn7si1,1.0,response,2_ITEM,1073.2999999999884,1072.039999999979,1073.2999999999884,1073.2999999999884,1072.039999999979,1073.2999999999884,1.0,0.0,0.0,,Click Response,2_count,5.0,object-49,temp_dist_trial,5.0,t_i_20_1,travel_Iceland,lantern,9.0,unique,paired,t_i_20_1.jpg,Travel,,,sub-26
Desktop or Laptop,Windows 10,Firefox 140.0,3440x1440,3440x1279,Temporal Distance Task,cb_09,53.0,temp_dist_trial,dist_items,qkpkxw,2.0,info,,7.3800000000046575,0.0,7.3800000000046575,7.3800000000046575,0.0,7.3800000000046575,1.0,0.0,0.0,,Slider,Slider,4.0,object-56,temp_dist_trial,5.0,t_i_20_1,travel_Iceland,lantern,9.0,unique,paired,t_i_20_1.jpg,Travel,,,sub-26
Desktop or Laptop,Windows 10,Firefox 140.0,3440x1440,3440x1279,Temporal Distance Task,cb_09,53.0,temp_dist_trial,dist_items,qkpkxw,2.0,continue,,2635.3800000000047,2633.320000000007,2635.3800000000047,2635.3800000000047,2633.320000000007,2635.3800000000047,1.0,0.0,0.0,,Click To Continue,Next button,7.0,object-60,temp_dist_trial,5.0,t_i_20_1,travel_Iceland,lantern,9.0,unique,paired,t_i_20_1.jpg,Travel,,,sub-26
Desktop or Laptop,Windows 10,Firefox 140.0,3440x1440,3440x1279,Temporal Distance Task,cb_09,53.0,temp_dist_trial,dist_items,qkpkxw,2.0,response,26,1839.4400000000023,2633.320000000007,2636.3800000000047,1839.4400000000023,2633.320000000007,2636.3800000000047,1.0,796.9400000000023,0.0,,Slider,Slider,4.0,object-56,temp_dist_trial,5.0,t_i_20_1,travel_Iceland,lantern,9.0,unique,paired,t_i_20_1.jpg,Travel,,,sub-26
Desktop or Laptop,Windows 10,Firefox 140.0,3440x1440,3440x1279,Temporal Distance Task,cb_09,54.0,temp_dist_trial,num_items,zn7si1,1.0,response,1_ITEM,2003.6000000000056,1997.6000000000056,2003.6000000000056,2003.6000000000056,1997.6000000000056,2003.6000000000056,1.0,0.0,0.0,,Click Response,1_count,3.0,object-46,temp_dist_trial,6.0,t_s_12_1,travel_shared,clear toiletry bag,9.0,competing,paired,t_s_12_1.jpg,Travel,,,sub-26
Desktop or Laptop,Windows 10,Firefox 140.0,3440x1440,3440x1279,Temporal Distance Task,cb_09,55.0,temp_dist_trial,num_items,zn7si1,1.0,response,1_ITEM,1276.9799999999816,1270.5199999999895,1276.9799999999816,1276.9799999999816,1270.5199999999895,1276.9799999999816,1.0,0.0,0.0,,Click Response,1_count,3.0,object-46,temp_dist_trial,7.0,t_m_11_1,travel_Miami,collapsible beach chair,9.0,unique,single,t_m_11_1.jpg,Travel,,,sub-26
Desktop or Laptop,Windows 10,Firefox 140.0,3440x1440,3440x1279,Temporal Distance Task,cb_09,56.0,temp_dist_trial,num_items,zn7si1,1.0,response,2_ITEM,1599.7999999999884,1594.819999999978,1599.7999999999884,1599.7999999999884,1594.819999999978,1599.7999999999884,1.0,0.0,0.0,,Click Response,2_count,5.0,object-49,temp_dist_trial,8.0,t_m_18_1,travel_Miami,waterproof tote,9.0,unique,paired,t_m_18_1.jpg,Travel,,,sub-26
Desktop or Laptop,Windows 10,Firefox 140.0,3440x1440,3440x1279,Temporal Distance Task,cb_09,56.0,temp_dist_trial,dist_items,qkpkxw,2.0,info,,7.5,0.0,7.5,7.5,0.0,7.5,1.0,0.0,0.0,,Slider,Slider,4.0,object-56,temp_dist_trial,8.0,t_m_18_1,travel_Miami,waterproof tote,9.0,unique,paired,t_m_18_1.jpg,Travel,,,sub-26
Desktop or Laptop,Windows 10,Firefox 140.0,3440x1440,3440x1279,Temporal Distance Task,cb_09,56.0,temp_dist_trial,dist_items,qkpkxw,2.0,continue,,2133.5,2129.4800000000105,2133.5,2133.5,2129.4800000000105,2133.5,1.0,0.0,0.0,,Click To Continue,Next button,7.0,object-60,temp_dist_trial,8.0,t_m_18_1,travel_Miami,waterproof tote,9.0,unique,paired,t_m_18_1.jpg,Travel,,,sub-26
Desktop or Laptop,Windows 10,Firefox 140.0,3440x1440,3440x1279,Temporal Distance Task,cb_09,56.0,temp_dist_trial,dist_items,qkpkxw,2.0,response,85,877.4400000000023,2129.4800000000105,2133.5,877.4400000000023,2129.4800000000105,2133.5,1.0,1256.0599999999977,0.0,,Slider,Slider,4.0,object-56,temp_dist_trial,8.0,t_m_18_1,travel_Miami,waterproof tote,9.0,unique,paired,t_m_18_1.jpg,Travel,,,sub-26
Desktop or Laptop,Windows 10,Firefox 140.0,3440x1440,3440x1279,Temporal Distance Task,cb_09,57.0,temp_dist_trial,num_items,zn7si1,1.0,response,2_ITEM,1768.0199999999895,1764.7599999999802,1768.0199999999895,1768.0199999999895,1764.7599999999802,1768.0199999999895,1.0,0.0,0.0,,Click Response,2_count,5.0,object-49,temp_dist_trial,9.0,t_s_15_1,travel_shared,luggage tag,9.0,competing,paired,t_s_15_1.jpg,Travel,,,sub-26
Desktop or Laptop,Windows 10,Firefox 140.0,3440x1440,3440x1279,Temporal Distance Task,cb_09,57.0,temp_dist_trial,dist_items,qkpkxw,2.0,info,,3.6400000000139694,0.0,3.6400000000139694,3.6400000000139694,0.0,3.6400000000139694,1.0,0.0,0.0,,Slider,Slider,4.0,object-56,temp_dist_trial,9.0,t_s_15_1,travel_shared,luggage tag,9.0,competing,paired,t_s_15_1.jpg,Travel,,,sub-26
Desktop or Laptop,Windows 10,Firefox 140.0,3440x1440,3440x1279,Temporal Distance Task,cb_09,57.0,temp_dist_trial,dist_items,qkpkxw,2.0,continue,,2721.640000000014,2717.3800000000047,2721.640000000014,2721.640000000014,2717.3800000000047,2721.640000000014,1.0,0.0,0.0,,Click To Continue,Next button,7.0,object-60,temp_dist_trial,9.0,t_s_15_1,travel_shared,luggage tag,9.0,competing,paired,t_s_15_1.jpg,Travel,,,sub-26
Desktop or Laptop,Windows 10,Firefox 140.0,3440x1440,3440x1279,Temporal Distance Task,cb_09,57.0,temp_dist_trial,dist_items,qkpkxw,2.0,response,84,1919.7000000000119,2717.3800000000047,2722.640000000014,1919.7000000000119,2717.3800000000047,2722.640000000014,1.0,802.9400000000023,0.0,,Slider,Slider,4.0,object-56,temp_dist_trial,9.0,t_s_15_1,travel_shared,luggage tag,9.0,competing,paired,t_s_15_1.jpg,Travel,,,sub-26
Desktop or Laptop,Windows 10,Firefox 140.0,3440x1440,3440x1279,Temporal Distance Task,cb_09,58.0,temp_dist_trial,num_items,zn7si1,1.0,response,2_ITEM,1556.2600000000089,1552.640000000014,1556.2600000000089,1556.2600000000089,1552.640000000014,1556.2600000000089,1.0,0.0,0.0,,Click Response,2_count,5.0,object-49,temp_dist_trial,10.0,t_i_04_1,travel_Iceland,portable camping stove,9.0,unique,paired,t_i_04_1.jpg,Travel,,,sub-26
Desktop or Laptop,Windows 10,Firefox 140.0,3440x1440,3440x1279,Temporal Distance Task,cb_09,58.0,temp_dist_trial,dist_items,qkpkxw,2.0,info,,6.699999999982537,0.0,6.699999999982537,6.699999999982537,0.0,6.699999999982537,1.0,0.0,0.0,,Slider,Slider,4.0,object-56,temp_dist_trial,10.0,t_i_04_1,travel_Iceland,portable camping stove,9.0,unique,paired,t_i_04_1.jpg,Travel,,,sub-26
Desktop or Laptop,Windows 10,Firefox 140.0,3440x1440,3440x1279,Temporal Distance Task,cb_09,58.0,temp_dist_trial,dist_items,qkpkxw,2.0,continue,,3031.0599999999977,3025.0599999999977,3031.0599999999977,3031.0599999999977,3025.0599999999977,3031.0599999999977,1.0,0.0,0.0,,Click To Continue,Next button,7.0,object-60,temp_dist_trial,10.0,t_i_04_1,travel_Iceland,portable camping stove,9.0,unique,paired,t_i_04_1.jpg,Travel,,,sub-26
Desktop or Laptop,Windows 10,Firefox 140.0,3440x1440,3440x1279,Temporal Distance Task,cb_09,58.0,temp_dist_trial,dist_items,qkpkxw,2.0,response,85,2221.1600000000035,3025.0599999999977,3031.0599999999977,2221.1600000000035,3025.0599999999977,3031.0599999999977,1.0,809.8999999999942,0.0,,Slider,Slider,4.0,object-56,temp_dist_trial,10.0,t_i_04_1,travel_Iceland,portable camping stove,9.0,unique,paired,t_i_04_1.jpg,Travel,,,sub-26
Desktop or Laptop,Windows 10,Firefox 140.0,3440x1440,3440x1279,Temporal Distance Task,cb_09,59.0,temp_dist_trial,num_items,zn7si1,1.0,response,1_ITEM,1136.1000000000058,1131.4800000000105,1136.1000000000058,1136.1000000000058,1131.4800000000105,1136.1000000000058,1.0,0.0,0.0,,Click Response,1_count,3.0,object-46,temp_dist_trial,11.0,t_m_05_1,travel_Miami,sunscreen,9.0,unique,single,t_m_05_1.jpg,Travel,,,sub-26
Desktop or Laptop,Windows 10,Firefox 140.0,3440x1440,3440x1279,Temporal Distance Task,cb_09,60.0,temp_dist_trial,num_items,zn7si1,1.0,response,1_ITEM,1221.459999999992,1220.5,1221.459999999992,1221.459999999992,1220.5,1221.459999999992,1.0,0.0,0.0,,Click Response,1_count,3.0,object-46,temp_dist_trial,12.0,t_s_17_1,travel_shared,toothbrush,9.0,competing,single,t_s_17_1.jpg,Travel,,,sub-26
Desktop or Laptop,Windows 10,Firefox 140.0,3440x1440,3440x1279,Temporal Distance Task,cb_09,61.0,temp_dist_trial,num_items,zn7si1,1.0,response,1_ITEM,1237.1000000000058,1229.7400000000198,1237.1000000000058,1237.1000000000058,1229.7400000000198,1237.1000000000058,1.0,0.0,0.0,,Click Response,1_count,3.0,object-46,temp_dist_trial,13.0,t_s_18_1,travel_shared,first aid kit,9.0,competing,single,t_s_18_1.jpg,Travel,,,sub-26
Desktop or Laptop,Windows 10,Firefox 140.0,3440x1440,3440x1279,Temporal Distance Task,cb_09,62.0,temp_dist_trial,num_items,zn7si1,1.0,response,2_ITEM,972.8599999999859,969.8399999999964,972.8599999999859,972.8599999999859,969.8399999999964,972.8599999999859,1.0,0.0,0.0,,Click Response,2_count,5.0,object-49,temp_dist_trial,14.0,t_s_10_1,travel_shared,luggage lock,9.0,competing,paired,t_s_10_1.jpg,Travel,,,sub-26
Desktop or Laptop,Windows 10,Firefox 140.0,3440x1440,3440x1279,Temporal Distance Task,cb_09,62.0,temp_dist_trial,dist_items,qkpkxw,2.0,info,,5.220000000001164,0.0,5.220000000001164,5.220000000001164,0.0,5.220000000001164,1.0,0.0,0.0,,Slider,Slider,4.0,object-56,temp_dist_trial,14.0,t_s_10_1,travel_shared,luggage lock,9.0,competing,paired,t_s_10_1.jpg,Travel,,,sub-26
Desktop or Laptop,Windows 10,Firefox 140.0,3440x1440,3440x1279,Temporal Distance Task,cb_09,62.0,temp_dist_trial,dist_items,qkpkxw,2.0,continue,,1592.2200000000012,1586.640000000014,1592.2200000000012,1592.2200000000012,1586.640000000014,1592.2200000000012,1.0,0.0,0.0,,Click To Continue,Next button,7.0,object-60,temp_dist_trial,14.0,t_s_10_1,travel_shared,luggage lock,9.0,competing,paired,t_s_10_1.jpg,Travel,,,sub-26
Desktop or Laptop,Windows 10,Firefox 140.0,3440x1440,3440x1279,Temporal Distance Task,cb_09,62.0,temp_dist_trial,dist_items,qkpkxw,2.0,response,41,896.0799999999872,1586.640000000014,1593.1000000000354,896.0799999999872,1586.640000000014,1593.1000000000354,1.0,697.0200000000477,0.0,,Slider,Slider,4.0,object-56,temp_dist_trial,14.0,t_s_10_1,travel_shared,luggage lock,9.0,competing,paired,t_s_10_1.jpg,Travel,,,sub-26
Desktop or Laptop,Windows 10,Firefox 140.0,3440x1440,3440x1279,Temporal Distance Task,cb_09,63.0,temp_dist_trial,num_items,zn7si1,1.0,response,2_ITEM,1686.5799999999872,1681.459999999992,1686.5799999999872,1686.5799999999872,1681.459999999992,1686.5799999999872,1.0,0.0,0.0,,Click Response,2_count,5.0,object-49,temp_dist_trial,15.0,t_i_08_1,travel_Iceland,thick socks,9.0,unique,paired,t_i_08_1.jpg,Travel,,,sub-26
Desktop or Laptop,Windows 10,Firefox 140.0,3440x1440,3440x1279,Temporal Distance Task,cb_09,63.0,temp_dist_trial,dist_items,qkpkxw,2.0,info,,2.5400000000081486,0.0,2.5400000000081486,2.5400000000081486,0.0,2.5400000000081486,1.0,0.0,0.0,,Slider,Slider,4.0,object-56,temp_dist_trial,15.0,t_i_08_1,travel_Iceland,thick socks,9.0,unique,paired,t_i_08_1.jpg,Travel,,,sub-26
Desktop or Laptop,Windows 10,Firefox 140.0,3440x1440,3440x1279,Temporal Distance Task,cb_09,63.0,temp_dist_trial,dist_items,qkpkxw,2.0,continue,,1725.540000000008,1723.140000000014,1725.540000000008,1725.540000000008,1723.140000000014,1725.540000000008,1.0,0.0,0.0,,Click To Continue,Next button,7.0,object-60,temp_dist_trial,15.0,t_i_08_1,travel_Iceland,thick socks,9.0,unique,paired,t_i_08_1.jpg,Travel,,,sub-26
Desktop or Laptop,Windows 10,Firefox 140.0,3440x1440,3440x1279,Temporal Distance Task,cb_09,63.0,temp_dist_trial,dist_items,qkpkxw,2.0,response,17,960.180000000022,1723.140000000014,1725.540000000008,960.180000000022,1723.140000000014,1725.540000000008,1.0,765.3599999999858,0.0,,Slider,Slider,4.0,object-56,temp_dist_trial,15.0,t_i_08_1,travel_Iceland,thick socks,9.0,unique,paired,t_i_08_1.jpg,Travel,,,sub-26
Desktop or Laptop,Windows 10,Firefox 140.0,3440x1440,3440x1279,Temporal Distance Task,cb_09,64.0,temp_dist_trial,num_items,zn7si1,1.0,response,2_ITEM,1089.4199999999837,1083.459999999992,1089.4199999999837,1089.4199999999837,1083.459999999992,1089.4199999999837,1.0,0.0,0.0,,Click Response,2_count,5.0,object-49,temp_dist_trial,16.0,t_s_04_1,travel_shared,instant camera,9.0,competing,paired,t_s_04_1.jpg,Travel,,,sub-26
Desktop or Laptop,Windows 10,Firefox 140.0,3440x1440,3440x1279,Temporal Distance Task,cb_09,64.0,temp_dist_trial,dist_items,qkpkxw,2.0,info,,7.8800000000046575,0.0,7.8800000000046575,7.8800000000046575,0.0,7.8800000000046575,1.0,0.0,0.0,,Slider,Slider,4.0,object-56,temp_dist_trial,16.0,t_s_04_1,travel_shared,instant camera,9.0,competing,paired,t_s_04_1.jpg,Travel,,,sub-26
Desktop or Laptop,Windows 10,Firefox 140.0,3440x1440,3440x1279,Temporal Distance Task,cb_09,64.0,temp_dist_trial,dist_items,qkpkxw,2.0,continue,,2069.8800000000047,2067.679999999993,2069.8800000000047,2069.8800000000047,2067.679999999993,2069.8800000000047,1.0,0.0,0.0,,Click To Continue,Next button,7.0,object-60,temp_dist_trial,16.0,t_s_04_1,travel_shared,instant camera,9.0,competing,paired,t_s_04_1.jpg,Travel,,,sub-26
Desktop or Laptop,Windows 10,Firefox 140.0,3440x1440,3440x1279,Temporal Distance Task,cb_09,64.0,temp_dist_trial,dist_items,qkpkxw,2.0,response,76,860.8999999999942,2067.679999999993,2070.8800000000047,860.8999999999942,2067.679999999993,2070.8800000000047,1.0,1209.9800000000105,0.0,,Slider,Slider,4.0,object-56,temp_dist_trial,16.0,t_s_04_1,travel_shared,instant camera,9.0,competing,paired,t_s_04_1.jpg,Travel,,,sub-26
Desktop or Laptop,Windows 10,Firefox 140.0,3440x1440,3440x1279,Temporal Distance Task,cb_09,65.0,temp_dist_trial,num_items,zn7si1,1.0,response,2_ITEM,1140.2000000000114,1135.9000000000233,1140.2000000000114,1140.2000000000114,1135.9000000000233,1140.2000000000114,1.0,0.0,0.0,,Click Response,2_count,5.0,object-49,temp_dist_trial,17.0,t_m_15_1,travel_Miami,shorts,9.0,unique,paired,t_m_15_1.jpg,Travel,,,sub-26
Desktop or Laptop,Windows 10,Firefox 140.0,3440x1440,3440x1279,Temporal Distance Task,cb_09,65.0,temp_dist_trial,dist_items,qkpkxw,2.0,info,,3.8800000000046566,0.0,3.8800000000046566,3.8800000000046566,0.0,3.8800000000046566,1.0,0.0,0.0,,Slider,Slider,4.0,object-56,temp_dist_trial,17.0,t_m_15_1,travel_Miami,shorts,9.0,unique,paired,t_m_15_1.jpg,Travel,,,sub-26
Desktop or Laptop,Windows 10,Firefox 140.0,3440x1440,3440x1279,Temporal Distance Task,cb_09,65.0,temp_dist_trial,dist_items,qkpkxw,2.0,continue,,3275.8800000000047,3272.200000000012,3275.8800000000047,3275.8800000000047,3272.200000000012,3275.8800000000047,1.0,0.0,0.0,,Click To Continue,Next button,7.0,object-60,temp_dist_trial,17.0,t_m_15_1,travel_Miami,shorts,9.0,unique,paired,t_m_15_1.jpg,Travel,,,sub-26
Desktop or Laptop,Windows 10,Firefox 140.0,3440x1440,3440x1279,Temporal Distance Task,cb_09,65.0,temp_dist_trial,dist_items,qkpkxw,2.0,response,10,1801.959999999992,3272.200000000012,3276.8800000000047,1801.959999999992,3272.200000000012,3276.8800000000047,1.0,1474.9200000000128,0.0,,Slider,Slider,4.0,object-56,temp_dist_trial,17.0,t_m_15_1,travel_Miami,shorts,9.0,unique,paired,t_m_15_1.jpg,Travel,,,sub-26
Desktop or Laptop,Windows 10,Firefox 140.0,3440x1440,3440x1279,Temporal Distance Task,cb_09,66.0,temp_dist_trial,num_items,zn7si1,1.0,response,1_ITEM,1913.539999999979,1907.539999999979,1913.539999999979,1913.539999999979,1907.539999999979,1913.539999999979,1.0,0.0,0.0,,Click Response,1_count,3.0,object-46,temp_dist_trial,18.0,t_m_09_1,travel_Miami,beach towel,9.0,unique,single,t_m_09_1.jpg,Travel,,,sub-26
Desktop or Laptop,Windows 10,Firefox 140.0,3440x1440,3440x1279,Temporal Distance Task,cb_09,67.0,temp_dist_trial,num_items,zn7si1,1.0,response,2_ITEM,2923.3200000000065,2922.1600000000035,2923.3200000000065,2923.3200000000065,2922.1600000000035,2923.3200000000065,1.0,0.0,0.0,,Click Response,2_count,5.0,object-49,temp_dist_trial,19.0,t_i_18_1,travel_Iceland,ski mask,9.0,unique,paired,t_i_18_1.jpg,Travel,,,sub-26
Desktop or Laptop,Windows 10,Firefox 140.0,3440x1440,3440x1279,Temporal Distance Task,cb_09,67.0,temp_dist_trial,dist_items,qkpkxw,2.0,info,,5.0,0.0,5.0,5.0,0.0,5.0,1.0,0.0,0.0,,Slider,Slider,4.0,object-56,temp_dist_trial,19.0,t_i_18_1,travel_Iceland,ski mask,9.0,unique,paired,t_i_18_1.jpg,Travel,,,sub-26
Desktop or Laptop,Windows 10,Firefox 140.0,3440x1440,3440x1279,Temporal Distance Task,cb_09,67.0,temp_dist_trial,dist_items,qkpkxw,2.0,continue,,2056.0,2050.1600000000035,2056.0,2056.0,2050.1600000000035,2056.0,1.0,0.0,0.0,,Click To Continue,Next button,7.0,object-60,temp_dist_trial,19.0,t_i_18_1,travel_Iceland,ski mask,9.0,unique,paired,t_i_18_1.jpg,Travel,,,sub-26
Desktop or Laptop,Windows 10,Firefox 140.0,3440x1440,3440x1279,Temporal Distance Task,cb_09,67.0,temp_dist_trial,dist_items,qkpkxw,2.0,response,86,1225.7799999999988,2050.1600000000035,2056.700000000012,1225.7799999999988,2050.1600000000035,2056.700000000012,1.0,830.9200000000128,0.0,,Slider,Slider,4.0,object-56,temp_dist_trial,19.0,t_i_18_1,travel_Iceland,ski mask,9.0,unique,paired,t_i_18_1.jpg,Travel,,,sub-26
Desktop or Laptop,Windows 10,Firefox 140.0,3440x1440,3440x1279,Temporal Distance Task,cb_09,68.0,temp_dist_trial,num_items,zn7si1,1.0,response,num_miss,2997.6600000000035,2997.6600000000035,2997.6600000000035,2997.6600000000035,2997.6600000000035,2997.6600000000035,1.0,0.0,0.0,num_miss_tag,Time Limit,screen,0.0,screen,temp_dist_trial,20.0,t_s_06_1,travel_shared,luggage,9.0,competing,paired,t_s_06_1.jpg,Travel,,,sub-26
Desktop or Laptop,Windows 10,Firefox 140.0,3440x1440,3440x1279,Temporal Distance Task,cb_09,69.0,temp_dist_trial,num_items,zn7si1,1.0,response,1_ITEM,1230.8399999999674,1224.4799999999816,1230.8399999999674,1230.8399999999674,1224.4799999999816,1230.8399999999674,1.0,0.0,0.0,,Click Response,1_count,3.0,object-46,temp_dist_trial,21.0,t_s_19_1,travel_shared,pajamas,9.0,competing,paired,t_s_19_1.jpg,Travel,,,sub-26
Desktop or Laptop,Windows 10,Firefox 140.0,3440x1440,3440x1279,Temporal Distance Task,cb_09,70.0,temp_dist_trial,num_items,zn7si1,1.0,response,2_ITEM,940.4000000000232,938.0800000000163,940.4000000000232,940.4000000000232,938.0800000000163,940.4000000000232,1.0,0.0,0.0,,Click Response,2_count,5.0,object-49,temp_dist_trial,22.0,t_s_01_1,travel_shared,fanny pack,9.0,competing,paired,t_s_01_1.jpg,Travel,,,sub-26
Desktop or Laptop,Windows 10,Firefox 140.0,3440x1440,3440x1279,Temporal Distance Task,cb_09,70.0,temp_dist_trial,dist_items,qkpkxw,2.0,info,,7.900000000023283,0.0,7.900000000023283,7.900000000023283,0.0,7.900000000023283,1.0,0.0,0.0,,Slider,Slider,4.0,object-56,temp_dist_trial,22.0,t_s_01_1,travel_shared,fanny pack,9.0,competing,paired,t_s_01_1.jpg,Travel,,,sub-26
Desktop or Laptop,Windows 10,Firefox 140.0,3440x1440,3440x1279,Temporal Distance Task,cb_09,70.0,temp_dist_trial,dist_items,qkpkxw,2.0,continue,,3011.3000000000466,3003.780000000028,3011.3000000000466,3011.3000000000466,3003.780000000028,3011.3000000000466,1.0,0.0,0.0,,Click To Continue,Next button,7.0,object-60,temp_dist_trial,22.0,t_s_01_1,travel_shared,fanny pack,9.0,competing,paired,t_s_01_1.jpg,Travel,,,sub-26
Desktop or Laptop,Windows 10,Firefox 140.0,3440x1440,3440x1279,Temporal Distance Task,cb_09,70.0,temp_dist_trial,dist_items,qkpkxw,2.0,response,86,1077.8800000000047,3003.780000000028,3011.3000000000466,1077.8800000000047,3003.780000000028,3011.3000000000466,1.0,1933.4200000000421,0.0,,Slider,Slider,4.0,object-56,temp_dist_trial,22.0,t_s_01_1,travel_shared,fanny pack,9.0,competing,paired,t_s_01_1.jpg,Travel,,,sub-26
Desktop or Laptop,Windows 10,Firefox 140.0,3440x1440,3440x1279,Temporal Distance Task,cb_09,71.0,temp_dist_trial,num_items,zn7si1,1.0,response,2_ITEM,972.1199999999952,965.9799999999814,972.1199999999952,972.1199999999952,965.9799999999814,972.1199999999952,1.0,0.0,0.0,,Click Response,2_count,5.0,object-49,temp_dist_trial,23.0,t_s_23_1,travel_shared,ball cap,9.0,competing,paired,t_s_23_1.jpg,Travel,,,sub-26
Desktop or Laptop,Windows 10,Firefox 140.0,3440x1440,3440x1279,Temporal Distance Task,cb_09,71.0,temp_dist_trial,dist_items,qkpkxw,2.0,info,,2.179999999993015,0.0,2.179999999993015,2.179999999993015,0.0,2.179999999993015,1.0,0.0,0.0,,Slider,Slider,4.0,object-56,temp_dist_trial,23.0,t_s_23_1,travel_shared,ball cap,9.0,competing,paired,t_s_23_1.jpg,Travel,,,sub-26
Desktop or Laptop,Windows 10,Firefox 140.0,3440x1440,3440x1279,Temporal Distance Task,cb_09,71.0,temp_dist_trial,dist_items,qkpkxw,2.0,continue,,1948.179999999993,1945.8399999999679,1948.179999999993,1948.179999999993,1945.8399999999679,1948.179999999993,1.0,0.0,0.0,,Click To Continue,Next button,7.0,object-60,temp_dist_trial,23.0,t_s_23_1,travel_shared,ball cap,9.0,competing,paired,t_s_23_1.jpg,Travel,,,sub-26
Desktop or Laptop,Windows 10,Firefox 140.0,3440x1440,3440x1279,Temporal Distance Task,cb_09,71.0,temp_dist_trial,dist_items,qkpkxw,2.0,response,22,1104.0800000000163,1945.8399999999679,1949.179999999993,1104.0800000000163,1945.8399999999679,1949.179999999993,1.0,845.0999999999768,0.0,,Slider,Slider,4.0,object-56,temp_dist_trial,23.0,t_s_23_1,travel_shared,ball cap,9.0,competing,paired,t_s_23_1.jpg,Travel,,,sub-26
Desktop or Laptop,Windows 10,Firefox 140.0,3440x1440,3440x1279,Temporal Distance Task,cb_09,72.0,temp_dist_trial,num_items,zn7si1,1.0,response,2_ITEM,909.3400000000256,904.6000000000348,909.3400000000256,909.3400000000256,904.6000000000348,909.3400000000256,1.0,0.0,0.0,,Click Response,2_count,5.0,object-49,temp_dist_trial,24.0,t_s_16_1,travel_shared,chapstick,9.0,competing,paired,t_s_16_1.jpg,Travel,,,sub-26
Desktop or Laptop,Windows 10,Firefox 140.0,3440x1440,3440x1279,Temporal Distance Task,cb_09,72.0,temp_dist_trial,dist_items,qkpkxw,2.0,info,,5.900000000023283,0.0,5.900000000023283,5.900000000023283,0.0,5.900000000023283,1.0,0.0,0.0,,Slider,Slider,4.0,object-56,temp_dist_trial,24.0,t_s_16_1,travel_shared,chapstick,9.0,competing,paired,t_s_16_1.jpg,Travel,,,sub-26
Desktop or Laptop,Windows 10,Firefox 140.0,3440x1440,3440x1279,Temporal Distance Task,cb_09,72.0,temp_dist_trial,dist_items,qkpkxw,2.0,continue,,2027.9000000000235,2026.7000000000119,2027.9000000000235,2027.9000000000235,2026.7000000000119,2027.9000000000235,1.0,0.0,0.0,,Click To Continue,Next button,7.0,object-60,temp_dist_trial,24.0,t_s_16_1,travel_shared,chapstick,9.0,competing,paired,t_s_16_1.jpg,Travel,,,sub-26
Desktop or Laptop,Windows 10,Firefox 140.0,3440x1440,3440x1279,Temporal Distance Task,cb_09,72.0,temp_dist_trial,dist_items,qkpkxw,2.0,response,16,1054.0599999999977,2026.7000000000119,2027.9000000000235,1054.0599999999977,2026.7000000000119,2027.9000000000235,1.0,973.8400000000256,0.0,,Slider,Slider,4.0,object-56,temp_dist_trial,24.0,t_s_16_1,travel_shared,chapstick,9.0,competing,paired,t_s_16_1.jpg,Travel,,,sub-26
Desktop or Laptop,Windows 10,Firefox 140.0,3440x1440,3440x1279,Temporal Distance Task,cb_09,73.0,temp_dist_trial,num_items,zn7si1,1.0,response,2_ITEM,842.2000000000116,839.6199999999952,842.2000000000116,842.2000000000116,839.6199999999952,842.2000000000116,1.0,0.0,0.0,,Click Response,2_count,5.0,object-49,temp_dist_trial,25.0,t_m_16_1,travel_Miami,flippers,9.0,unique,paired,t_m_16_1.jpg,Travel,,,sub-26
Desktop or Laptop,Windows 10,Firefox 140.0,3440x1440,3440x1279,Temporal Distance Task,cb_09,73.0,temp_dist_trial,dist_items,qkpkxw,2.0,info,,4.080000000016298,0.0,4.080000000016298,4.080000000016298,0.0,4.080000000016298,1.0,0.0,0.0,,Slider,Slider,4.0,object-56,temp_dist_trial,25.0,t_m_16_1,travel_Miami,flippers,9.0,unique,paired,t_m_16_1.jpg,Travel,,,sub-26
Desktop or Laptop,Windows 10,Firefox 140.0,3440x1440,3440x1279,Temporal Distance Task,cb_09,73.0,temp_dist_trial,dist_items,qkpkxw,2.0,continue,,3284.0800000000163,3279.920000000042,3284.0800000000163,3284.0800000000163,3279.920000000042,3284.0800000000163,1.0,0.0,0.0,,Click To Continue,Next button,7.0,object-60,temp_dist_trial,25.0,t_m_16_1,travel_Miami,flippers,9.0,unique,paired,t_m_16_1.jpg,Travel,,,sub-26
Desktop or Laptop,Windows 10,Firefox 140.0,3440x1440,3440x1279,Temporal Distance Task,cb_09,73.0,temp_dist_trial,dist_items,qkpkxw,2.0,response,68,1032.2000000000116,3279.920000000042,3285.0800000000163,1032.2000000000116,3279.920000000042,3285.0800000000163,1.0,2252.8800000000047,0.0,,Slider,Slider,4.0,object-56,temp_dist_trial,25.0,t_m_16_1,travel_Miami,flippers,9.0,unique,paired,t_m_16_1.jpg,Travel,,,sub-26
Desktop or Laptop,Windows 10,Firefox 140.0,3440x1440,3440x1279,Temporal Distance Task,cb_09,74.0,temp_dist_trial,num_items,zn7si1,1.0,response,2_ITEM,1083.1599999999744,1079.9400000000023,1083.1599999999744,1083.1599999999744,1079.9400000000023,1083.1599999999744,1.0,0.0,0.0,,Click Response,2_count,5.0,object-49,temp_dist_trial,26.0,t_i_14_1,travel_Iceland,snow pants,9.0,unique,paired,t_i_14_1.jpg,Travel,,,sub-26
Desktop or Laptop,Windows 10,Firefox 140.0,3440x1440,3440x1279,Temporal Distance Task,cb_09,74.0,temp_dist_trial,dist_items,qkpkxw,2.0,info,,4.320000000006985,0.0,4.320000000006985,4.320000000006985,0.0,4.320000000006985,1.0,0.0,0.0,,Slider,Slider,4.0,object-56,temp_dist_trial,26.0,t_i_14_1,travel_Iceland,snow pants,9.0,unique,paired,t_i_14_1.jpg,Travel,,,sub-26
Desktop or Laptop,Windows 10,Firefox 140.0,3440x1440,3440x1279,Temporal Distance Task,cb_09,74.0,temp_dist_trial,dist_items,qkpkxw,2.0,continue,,3638.860000000044,3631.640000000014,3638.860000000044,3638.860000000044,3631.640000000014,3638.860000000044,1.0,0.0,0.0,,Click To Continue,Next button,7.0,object-60,temp_dist_trial,26.0,t_i_14_1,travel_Iceland,snow pants,9.0,unique,paired,t_i_14_1.jpg,Travel,,,sub-26
Desktop or Laptop,Windows 10,Firefox 140.0,3440x1440,3440x1279,Temporal Distance Task,cb_09,74.0,temp_dist_trial,dist_items,qkpkxw,2.0,response,86,2178.2600000000093,3631.640000000014,3638.860000000044,2178.2600000000093,3631.640000000014,3638.860000000044,1.0,1460.6000000000354,0.0,,Slider,Slider,4.0,object-56,temp_dist_trial,26.0,t_i_14_1,travel_Iceland,snow pants,9.0,unique,paired,t_i_14_1.jpg,Travel,,,sub-26
Desktop or Laptop,Windows 10,Firefox 140.0,3440x1440,3440x1279,Temporal Distance Task,cb_09,75.0,temp_dist_trial,num_items,zn7si1,1.0,response,1_ITEM,1798.679999999993,1795.320000000007,1798.679999999993,1798.679999999993,1795.320000000007,1798.679999999993,1.0,0.0,0.0,,Click Response,1_count,3.0,object-46,temp_dist_trial,27.0,t_s_20_1,travel_shared,travel pill case,9.0,competing,single,t_s_20_1.jpg,Travel,,,sub-26
Desktop or Laptop,Windows 10,Firefox 140.0,3440x1440,3440x1279,Temporal Distance Task,cb_09,76.0,temp_dist_trial,num_items,zn7si1,1.0,response,1_ITEM,1640.039999999979,1632.4199999999835,1640.039999999979,1640.039999999979,1632.4199999999835,1640.039999999979,1.0,0.0,0.0,,Click Response,1_count,3.0,object-46,temp_dist_trial,28.0,t_s_07_1,travel_shared,phone charger cable,9.0,competing,single,t_s_07_1.jpg,Travel,,,sub-26
Desktop or Laptop,Windows 10,Firefox 140.0,3440x1440,3440x1279,Temporal Distance Task,cb_09,77.0,temp_dist_trial,num_items,zn7si1,1.0,response,2_ITEM,1365.0999999999767,1360.1199999999953,1365.0999999999767,1365.0999999999767,1360.1199999999953,1365.0999999999767,1.0,0.0,0.0,,Click Response,2_count,5.0,object-49,temp_dist_trial,29.0,t_i_10_1,travel_Iceland,trekking poles,9.0,unique,paired,t_i_10_1.jpg,Travel,,,sub-26
Desktop or Laptop,Windows 10,Firefox 140.0,3440x1440,3440x1279,Temporal Distance Task,cb_09,77.0,temp_dist_trial,dist_items,qkpkxw,2.0,info,,2.4600000000209548,0.0,2.4600000000209548,2.4600000000209548,0.0,2.4600000000209548,1.0,0.0,0.0,,Slider,Slider,4.0,object-56,temp_dist_trial,29.0,t_i_10_1,travel_Iceland,trekking poles,9.0,unique,paired,t_i_10_1.jpg,Travel,,,sub-26
Desktop or Laptop,Windows 10,Firefox 140.0,3440x1440,3440x1279,Temporal Distance Task,cb_09,77.0,temp_dist_trial,dist_items,qkpkxw,2.0,continue,,1866.460000000021,1861.1199999999953,1866.460000000021,1866.460000000021,1861.1199999999953,1866.460000000021,1.0,0.0,0.0,,Click To Continue,Next button,7.0,object-60,temp_dist_trial,29.0,t_i_10_1,travel_Iceland,trekking poles,9.0,unique,paired,t_i_10_1.jpg,Travel,,,sub-26
Desktop or Laptop,Windows 10,Firefox 140.0,3440x1440,3440x1279,Temporal Distance Task,cb_09,77.0,temp_dist_trial,dist_items,qkpkxw,2.0,response,77,877.179999999993,1861.1199999999953,1867.460000000021,877.179999999993,1861.1199999999953,1867.460000000021,1.0,990.280000000028,0.0,,Slider,Slider,4.0,object-56,temp_dist_trial,29.0,t_i_10_1,travel_Iceland,trekking poles,9.0,unique,paired,t_i_10_1.jpg,Travel,,,sub-26
Desktop or Laptop,Windows 10,Firefox 140.0,3440x1440,3440x1279,Temporal Distance Task,cb_09,78.0,temp_dist_trial,num_items,zn7si1,1.0,response,2_ITEM,1470.3400000000256,1466.5599999999977,1470.3400000000256,1470.3400000000256,1466.5599999999977,1470.3400000000256,1.0,0.0,0.0,,Click Response,2_count,5.0,object-49,temp_dist_trial,30.0,t_s_03_1,travel_shared,portable charger,9.0,competing,paired,t_s_03_1.jpg,Travel,,,sub-26
Desktop or Laptop,Windows 10,Firefox 140.0,3440x1440,3440x1279,Temporal Distance Task,cb_09,78.0,temp_dist_trial,dist_items,qkpkxw,2.0,info,,2.7999999999883585,0.0,2.7999999999883585,2.7999999999883585,0.0,2.7999999999883585,1.0,0.0,0.0,,Slider,Slider,4.0,object-56,temp_dist_trial,30.0,t_s_03_1,travel_shared,portable charger,9.0,competing,paired,t_s_03_1.jpg,Travel,,,sub-26
Desktop or Laptop,Windows 10,Firefox 140.0,3440x1440,3440x1279,Temporal Distance Task,cb_09,78.0,temp_dist_trial,dist_items,qkpkxw,2.0,continue,,2398.960000000021,2391.4400000000023,2398.960000000021,2398.960000000021,2391.4400000000023,2398.960000000021,1.0,0.0,0.0,,Click To Continue,Next button,7.0,object-60,temp_dist_trial,30.0,t_s_03_1,travel_shared,portable charger,9.0,competing,paired,t_s_03_1.jpg,Travel,,,sub-26
Desktop or Laptop,Windows 10,Firefox 140.0,3440x1440,3440x1279,Temporal Distance Task,cb_09,78.0,temp_dist_trial,dist_items,qkpkxw,2.0,response,66,949.320000000007,2391.4400000000023,2398.960000000021,949.320000000007,2391.4400000000023,2398.960000000021,1.0,1449.640000000014,0.0,,Slider,Slider,4.0,object-56,temp_dist_trial,30.0,t_s_03_1,travel_shared,portable charger,9.0,competing,paired,t_s_03_1.jpg,Travel,,,sub-26
Desktop or Laptop,Windows 10,Firefox 140.0,3440x1440,3440x1279,Temporal Distance Task,cb_09,79.0,temp_dist_trial,num_items,zn7si1,1.0,response,2_ITEM,1247.359999999986,1242.1599999999746,1247.359999999986,1247.359999999986,1242.1599999999746,1247.359999999986,1.0,0.0,0.0,,Click Response,2_count,5.0,object-49,temp_dist_trial,31.0,t_s_09_1,travel_shared,wallet,9.0,competing,paired,t_s_09_1.jpg,Travel,,,sub-26
Desktop or Laptop,Windows 10,Firefox 140.0,3440x1440,3440x1279,Temporal Distance Task,cb_09,79.0,temp_dist_trial,dist_items,qkpkxw,2.0,info,,2.340000000025612,0.0,2.340000000025612,2.340000000025612,0.0,2.340000000025612,1.0,0.0,0.0,,Slider,Slider,4.0,object-56,temp_dist_trial,31.0,t_s_09_1,travel_shared,wallet,9.0,competing,paired,t_s_09_1.jpg,Travel,,,sub-26
Desktop or Laptop,Windows 10,Firefox 140.0,3440x1440,3440x1279,Temporal Distance Task,cb_09,79.0,temp_dist_trial,dist_items,qkpkxw,2.0,continue,,1766.3400000000256,1762.0200000000186,1766.3400000000256,1766.3400000000256,1762.0200000000186,1766.3400000000256,1.0,0.0,0.0,,Click To Continue,Next button,7.0,object-60,temp_dist_trial,31.0,t_s_09_1,travel_shared,wallet,9.0,competing,paired,t_s_09_1.jpg,Travel,,,sub-26
Desktop or Laptop,Windows 10,Firefox 140.0,3440x1440,3440x1279,Temporal Distance Task,cb_09,79.0,temp_dist_trial,dist_items,qkpkxw,2.0,response,24,896.0,1762.0200000000186,1767.3400000000256,896.0,1762.0200000000186,1767.3400000000256,1.0,871.3400000000256,0.0,,Slider,Slider,4.0,object-56,temp_dist_trial,31.0,t_s_09_1,travel_shared,wallet,9.0,competing,paired,t_s_09_1.jpg,Travel,,,sub-26
Desktop or Laptop,Windows 10,Firefox 140.0,3440x1440,3440x1279,Temporal Distance Task,cb_09,80.0,temp_dist_trial,num_items,zn7si1,1.0,response,2_ITEM,1133.320000000007,1130.0800000000165,1133.320000000007,1133.320000000007,1130.0800000000165,1133.320000000007,1.0,0.0,0.0,,Click Response,2_count,5.0,object-49,temp_dist_trial,32.0,t_m_19_1,travel_Miami,surfboard,9.0,unique,paired,t_m_19_1.jpg,Travel,,,sub-26
Desktop or Laptop,Windows 10,Firefox 140.0,3440x1440,3440x1279,Temporal Distance Task,cb_09,80.0,temp_dist_trial,dist_items,qkpkxw,2.0,info,,5.419999999983702,0.0,5.419999999983702,5.419999999983702,0.0,5.419999999983702,1.0,0.0,0.0,,Slider,Slider,4.0,object-56,temp_dist_trial,32.0,t_m_19_1,travel_Miami,surfboard,9.0,unique,paired,t_m_19_1.jpg,Travel,,,sub-26
Desktop or Laptop,Windows 10,Firefox 140.0,3440x1440,3440x1279,Temporal Distance Task,cb_09,80.0,temp_dist_trial,dist_items,qkpkxw,2.0,continue,,2019.4199999999842,2018.2399999999911,2019.4199999999842,2019.4199999999842,2018.2399999999911,2019.4199999999842,1.0,0.0,0.0,,Click To Continue,Next button,7.0,object-60,temp_dist_trial,32.0,t_m_19_1,travel_Miami,surfboard,9.0,unique,paired,t_m_19_1.jpg,Travel,,,sub-26
Desktop or Laptop,Windows 10,Firefox 140.0,3440x1440,3440x1279,Temporal Distance Task,cb_09,80.0,temp_dist_trial,dist_items,qkpkxw,2.0,response,80,1226.320000000007,2018.2399999999911,2021.4199999999842,1226.320000000007,2018.2399999999911,2021.4199999999842,1.0,795.0999999999768,0.0,,Slider,Slider,4.0,object-56,temp_dist_trial,32.0,t_m_19_1,travel_Miami,surfboard,9.0,unique,paired,t_m_19_1.jpg,Travel,,,sub-26
Desktop or Laptop,Windows 10,Firefox 140.0,3440x1440,3440x1279,Temporal Distance Task,cb_09,81.0,temp_dist_trial,num_items,zn7si1,1.0,response,1_ITEM,1571.1199999999951,1564.4400000000023,1571.1199999999951,1571.1199999999951,1564.4400000000023,1571.1199999999951,1.0,0.0,0.0,,Click Response,1_count,3.0,object-46,temp_dist_trial,33.0,t_m_06_1,travel_Miami,handheld fan,9.0,unique,paired,t_m_06_1.jpg,Travel,,,sub-26
Desktop or Laptop,Windows 10,Firefox 140.0,3440x1440,3440x1279,Temporal Distance Task,cb_09,82.0,temp_dist_trial,num_items,zn7si1,1.0,response,1_ITEM,1088.2600000000093,1082.2399999999907,1088.2600000000093,1088.2600000000093,1082.2399999999907,1088.2600000000093,1.0,0.0,0.0,,Click Response,1_count,3.0,object-46,temp_dist_trial,34.0,t_i_11_1,travel_Iceland,headlamp,9.0,unique,single,t_i_11_1.jpg,Travel,,,sub-26
Desktop or Laptop,Windows 10,Firefox 140.0,3440x1440,3440x1279,Temporal Distance Task,cb_09,83.0,temp_dist_trial,num_items,zn7si1,1.0,response,2_ITEM,1076.359999999986,1072.5,1076.359999999986,1076.359999999986,1072.5,1076.359999999986,1.0,0.0,0.0,,Click Response,2_count,5.0,object-49,temp_dist_trial,35.0,t_m_08_1,travel_Miami,flipflops,9.0,unique,paired,t_m_08_1.jpg,Travel,,,sub-26
Desktop or Laptop,Windows 10,Firefox 140.0,3440x1440,3440x1279,Temporal Distance Task,cb_09,83.0,temp_dist_trial,dist_items,qkpkxw,2.0,info,,2.099999999976717,0.0,2.099999999976717,2.099999999976717,0.0,2.099999999976717,1.0,0.0,0.0,,Slider,Slider,4.0,object-56,temp_dist_trial,35.0,t_m_08_1,travel_Miami,flipflops,9.0,unique,paired,t_m_08_1.jpg,Travel,,,sub-26
Desktop or Laptop,Windows 10,Firefox 140.0,3440x1440,3440x1279,Temporal Distance Task,cb_09,83.0,temp_dist_trial,dist_items,qkpkxw,2.0,continue,,1916.0999999999767,1914.2199999999718,1916.0999999999767,1916.0999999999767,1914.2199999999718,1916.0999999999767,1.0,0.0,0.0,,Click To Continue,Next button,7.0,object-60,temp_dist_trial,35.0,t_m_08_1,travel_Miami,flipflops,9.0,unique,paired,t_m_08_1.jpg,Travel,,,sub-26
Desktop or Laptop,Windows 10,Firefox 140.0,3440x1440,3440x1279,Temporal Distance Task,cb_09,83.0,temp_dist_trial,dist_items,qkpkxw,2.0,response,84,1068.039999999979,1914.2199999999718,1916.0999999999767,1068.039999999979,1914.2199999999718,1916.0999999999767,1.0,848.0599999999977,0.0,,Slider,Slider,4.0,object-56,temp_dist_trial,35.0,t_m_08_1,travel_Miami,flipflops,9.0,unique,paired,t_m_08_1.jpg,Travel,,,sub-26
Desktop or Laptop,Windows 10,Firefox 140.0,3440x1440,3440x1279,Temporal Distance Task,cb_09,84.0,temp_dist_trial,num_items,zn7si1,1.0,response,2_ITEM,1303.8800000000047,1297.9000000000233,1303.8800000000047,1303.8800000000047,1297.9000000000233,1303.8800000000047,1.0,0.0,0.0,,Click Response,2_count,5.0,object-49,temp_dist_trial,36.0,t_i_19_1,travel_Iceland,rope,9.0,unique,paired,t_i_19_1.jpg,Travel,,,sub-26
Desktop or Laptop,Windows 10,Firefox 140.0,3440x1440,3440x1279,Temporal Distance Task,cb_09,84.0,temp_dist_trial,dist_items,qkpkxw,2.0,info,,4.0200000000186265,0.0,4.0200000000186265,4.0200000000186265,0.0,4.0200000000186265,1.0,0.0,0.0,,Slider,Slider,4.0,object-56,temp_dist_trial,36.0,t_i_19_1,travel_Iceland,rope,9.0,unique,paired,t_i_19_1.jpg,Travel,,,sub-26
Desktop or Laptop,Windows 10,Firefox 140.0,3440x1440,3440x1279,Temporal Distance Task,cb_09,84.0,temp_dist_trial,dist_items,qkpkxw,2.0,continue,,1715.7400000000491,1709.7200000000305,1715.7400000000491,1715.7400000000491,1709.7200000000305,1715.7400000000491,1.0,0.0,0.0,,Click To Continue,Next button,7.0,object-60,temp_dist_trial,36.0,t_i_19_1,travel_Iceland,rope,9.0,unique,paired,t_i_19_1.jpg,Travel,,,sub-26
Desktop or Laptop,Windows 10,Firefox 140.0,3440x1440,3440x1279,Temporal Distance Task,cb_09,84.0,temp_dist_trial,dist_items,qkpkxw,2.0,response,32,833.7000000000116,1709.7200000000305,1715.7400000000491,833.7000000000116,1709.7200000000305,1715.7400000000491,1.0,882.0400000000373,0.0,,Slider,Slider,4.0,object-56,temp_dist_trial,36.0,t_i_19_1,travel_Iceland,rope,9.0,unique,paired,t_i_19_1.jpg,Travel,,,sub-26
Desktop or Laptop,Windows 10,Firefox 140.0,3440x1440,3440x1279,Temporal Distance Task,cb_09,85.0,temp_dist_trial,num_items,zn7si1,1.0,response,1_ITEM,1157.2999999999886,1151.8800000000047,1157.2999999999886,1157.2999999999886,1151.8800000000047,1157.2999999999886,1.0,0.0,0.0,,Click Response,1_count,3.0,object-46,temp_dist_trial,37.0,t_s_05_1,travel_shared,neck pillow,9.0,competing,single,t_s_05_1.jpg,Travel,,,sub-26
Desktop or Laptop,Windows 10,Firefox 140.0,3440x1440,3440x1279,Temporal Distance Task,cb_09,86.0,temp_dist_trial,num_items,zn7si1,1.0,response,1_ITEM,1193.140000000014,1187.960000000021,1193.140000000014,1193.140000000014,1187.960000000021,1193.140000000014,1.0,0.0,0.0,,Click Response,1_count,3.0,object-46,temp_dist_trial,38.0,t_s_13_1,travel_shared,contact lens case,9.0,competing,paired,t_s_13_1.jpg,Travel,,,sub-26
Desktop or Laptop,Windows 10,Firefox 140.0,3440x1440,3440x1279,Temporal Distance Task,cb_09,87.0,temp_dist_trial,num_items,zn7si1,1.0,response,1_ITEM,1130.3800000000047,1130.0999999999767,1130.3800000000047,1130.3800000000047,1130.0999999999767,1130.3800000000047,1.0,0.0,0.0,,Click Response,1_count,3.0,object-46,temp_dist_trial,39.0,t_s_21_1,travel_shared,umbrella,9.0,competing,paired,t_s_21_1.jpg,Travel,,,sub-26
Desktop or Laptop,Windows 10,Firefox 140.0,3440x1440,3440x1279,Temporal Distance Task,cb_09,88.0,temp_dist_trial,num_items,zn7si1,1.0,response,1_ITEM,1024.4000000000233,1018.4200000000419,1024.4000000000233,1024.4000000000233,1018.4200000000419,1024.4000000000233,1.0,0.0,0.0,,Click Response,1_count,3.0,object-46,temp_dist_trial,40.0,t_i_12_1,travel_Iceland,tent,9.0,unique,single,t_i_12_1.jpg,Travel,,,sub-26
Desktop or Laptop,Windows 10,Firefox 140.0,3440x1440,3440x1279,Temporal Distance Task,cb_09,89.0,temp_dist_trial,num_items,zn7si1,1.0,response,2_ITEM,987.3400000000256,982.5599999999976,987.3400000000256,987.3400000000256,982.5599999999976,987.3400000000256,1.0,0.0,0.0,,Click Response,2_count,5.0,object-49,temp_dist_trial,41.0,t_s_02_1,travel_shared,water bottle,9.0,competing,paired,t_s_02_1.jpg,Travel,,,sub-26
Desktop or Laptop,Windows 10,Firefox 140.0,3440x1440,3440x1279,Temporal Distance Task,cb_09,89.0,temp_dist_trial,dist_items,qkpkxw,2.0,info,,6.419999999983702,0.0,6.419999999983702,6.419999999983702,0.0,6.419999999983702,1.0,0.0,0.0,,Slider,Slider,4.0,object-56,temp_dist_trial,41.0,t_s_02_1,travel_shared,water bottle,9.0,competing,paired,t_s_02_1.jpg,Travel,,,sub-26
Desktop or Laptop,Windows 10,Firefox 140.0,3440x1440,3440x1279,Temporal Distance Task,cb_09,89.0,temp_dist_trial,dist_items,qkpkxw,2.0,continue,,3149.419999999984,3146.9400000000023,3149.419999999984,3149.419999999984,3146.9400000000023,3149.419999999984,1.0,0.0,0.0,,Click To Continue,Next button,7.0,object-60,temp_dist_trial,41.0,t_s_02_1,travel_shared,water bottle,9.0,competing,paired,t_s_02_1.jpg,Travel,,,sub-26
Desktop or Laptop,Windows 10,Firefox 140.0,3440x1440,3440x1279,Temporal Distance Task,cb_09,89.0,temp_dist_trial,dist_items,qkpkxw,2.0,response,89,1250.5999999999767,3146.9400000000023,3149.419999999984,1250.5999999999767,3146.9400000000023,3149.419999999984,1.0,1898.820000000007,0.0,,Slider,Slider,4.0,object-56,temp_dist_trial,41.0,t_s_02_1,travel_shared,water bottle,9.0,competing,paired,t_s_02_1.jpg,Travel,,,sub-26
Desktop or Laptop,Windows 10,Firefox 140.0,3440x1440,3440x1279,Temporal Distance Task,cb_09,90.0,temp_dist_trial,num_items,zn7si1,1.0,response,1_ITEM,1270.4799999999816,1265.4799999999816,1270.4799999999816,1270.4799999999816,1265.4799999999816,1270.4799999999816,1.0,0.0,0.0,,Click Response,1_count,3.0,object-46,temp_dist_trial,42.0,t_s_14_1,travel_shared,hand sanitizer,9.0,competing,paired,t_s_14_1.jpg,Travel,,,sub-26
Desktop or Laptop,Windows 10,Firefox 140.0,3440x1440,3440x1279,Temporal Distance Task,cb_09,91.0,temp_dist_trial,num_items,zn7si1,1.0,response,1_ITEM,1826.8800000000049,1825.7800000000282,1826.8800000000049,1826.8800000000049,1825.7800000000282,1826.8800000000049,1.0,0.0,0.0,,Click Response,1_count,3.0,object-46,temp_dist_trial,43.0,t_m_07_1,travel_Miami,sunglasses,9.0,unique,paired,t_m_07_1.jpg,Travel,,,sub-26
Desktop or Laptop,Windows 10,Firefox 140.0,3440x1440,3440x1279,Temporal Distance Task,cb_09,92.0,temp_dist_trial,num_items,zn7si1,1.0,response,2_ITEM,1499.320000000007,1493.9799999999814,1499.320000000007,1499.320000000007,1493.9799999999814,1499.320000000007,1.0,0.0,0.0,,Click Response,2_count,5.0,object-49,temp_dist_trial,44.0,t_i_16_1,travel_Iceland,skis,9.0,unique,paired,t_i_16_1.jpg,Travel,,,sub-26
Desktop or Laptop,Windows 10,Firefox 140.0,3440x1440,3440x1279,Temporal Distance Task,cb_09,92.0,temp_dist_trial,dist_items,qkpkxw,2.0,info,,4.820000000006985,0.0,4.820000000006985,4.820000000006985,0.0,4.820000000006985,1.0,0.0,0.0,,Slider,Slider,4.0,object-56,temp_dist_trial,44.0,t_i_16_1,travel_Iceland,skis,9.0,unique,paired,t_i_16_1.jpg,Travel,,,sub-26
Desktop or Laptop,Windows 10,Firefox 140.0,3440x1440,3440x1279,Temporal Distance Task,cb_09,92.0,temp_dist_trial,dist_items,qkpkxw,2.0,continue,,2646.2400000000493,2640.220000000031,2646.2400000000493,2646.2400000000493,2640.220000000031,2646.2400000000493,1.0,0.0,0.0,,Click To Continue,Next button,7.0,object-60,temp_dist_trial,44.0,t_i_16_1,travel_Iceland,skis,9.0,unique,paired,t_i_16_1.jpg,Travel,,,sub-26
Desktop or Laptop,Windows 10,Firefox 140.0,3440x1440,3440x1279,Temporal Distance Task,cb_09,92.0,temp_dist_trial,dist_items,qkpkxw,2.0,response,23,1329.4799999999816,2640.220000000031,2646.2400000000493,1329.4799999999816,2640.220000000031,2646.2400000000493,1.0,1316.7600000000675,0.0,,Slider,Slider,4.0,object-56,temp_dist_trial,44.0,t_i_16_1,travel_Iceland,skis,9.0,unique,paired,t_i_16_1.jpg,Travel,,,sub-26
