Participant Device,Participant OS,Participant Browser,Participant Monitor Size,Participant Viewport Size,Task Name,Current Spreadsheet,Trial Number,Display,Screen,Screen ID,Screen Counter,Response Type,Response,Onset Time,Clock Time,Reaction Time,Absolute Onset Time,Absolute Clock Time,Absolute Reaction Time,Correct,Response Duration,Proportion,Tag,Component Name,Object Name,Object Number,Object ID,Spreadsheet: display,Spreadsheet: trial,Spreadsheet: stimulus_id,Spreadsheet: expected_goal,Spreadsheet: stimulus_name,Spreadsheet: c_group,Spreadsheet: condition,Spreadsheet: paired_status,Spreadsheet: stimulus_path,Spreadsheet: block_type,Manipulation: Spreadsheet,Store: enc_test_acc,sub_label
Desktop or Laptop,Windows 10,Chrome 138.0.0.0,1536x864,1536x730,Temporal Distance Task,$${counterbalance_group},,,,,,info,BEGIN,,,,,,,0.0,,,,,,,,,,,,,,,,,,,,sub-42
Desktop or Laptop,Windows 10,Chrome 138.0.0.0,1536x864,1536x730,Temporal Distance Task,cb_03,1.0,temp_instructions,intro_screen,3tnme7,1.0,continue,,5500.200000000003,5483.6,5500.200000000003,5500.200000000003,5483.6,5500.200000000003,1.0,0.0,0.0,,Click To Continue,Continue Button,4.0,object-29,temp_instructions,,,Student,,,,,,,,,sub-42
Desktop or Laptop,Windows 10,Chrome 138.0.0.0,1536x864,1536x730,Temporal Distance Task,cb_03,1.0,temp_instructions,intro_screen_2,52v7ur,2.0,continue,,10859.29999999702,10849.3,10859.29999999702,10859.29999999702,10849.3,10859.29999999702,1.0,0.0,0.0,,Click To Continue,Continue Button,4.0,object-39,temp_instructions,,,Student,,,,,,,,,sub-42
Desktop or Laptop,Windows 10,Chrome 138.0.0.0,1536x864,1536x730,Temporal Distance Task,cb_03,1.0,temp_instructions,intro_screen_3,i7lvwx,3.0,continue,,6672.400000002981,6667.0,6672.400000002981,6672.400000002981,6667.0,6672.400000002981,1.0,0.0,0.0,,Click To Continue,Continue Button,4.0,object-67,temp_instructions,,,Student,,,,,,,,,sub-42
Desktop or Laptop,Windows 10,Chrome 138.0.0.0,1536x864,1536x730,Temporal Distance Task,cb_03,1.0,temp_instructions,test_q1,5ieqx1,4.0,response,choice_3,6705.400000002981,6699.700000000003,6705.400000002981,6705.400000002981,6699.700000000003,6705.400000002981,1.0,0.0,0.0,,Click Response,choice_3,5.0,object-345,temp_instructions,,,Student,,,,,,,,,sub-42
Desktop or Laptop,Windows 10,Chrome 138.0.0.0,1536x864,1536x730,Temporal Distance Task,cb_03,1.0,temp_instructions,score_corr,7ilvjr,5.0,continue,,893.7000000029802,883.4000000000017,893.7000000029802,893.7000000029802,883.4000000000017,893.7000000029802,1.0,0.0,0.0,,Click To Continue,Continue Button,3.0,object-23,temp_instructions,,,Student,,,,,,,,,sub-42
Desktop or Laptop,Windows 10,Chrome 138.0.0.0,1536x864,1536x730,Temporal Distance Task,cb_03,1.0,temp_eventStart,Screen 1,dgtyxe,1.0,continue,,2218.8999999970183,2216.5999999999985,2218.8999999970183,2218.8999999970183,2216.5999999999985,2218.8999999970183,1.0,0.0,0.0,,Click To Continue,Next Button,3.0,object-43,temp_eventStart,,,Student,,,,,,,,,sub-42
Desktop or Laptop,Windows 10,Chrome 138.0.0.0,1536x864,1536x730,Temporal Distance Task,cb_03,1.0,temp_dist_trial,num_items,zn7si1,1.0,response,1_ITEM,2325.5,2316.5999999999985,2325.5,2325.5,2316.5999999999985,2325.5,1.0,0.0,0.0,,Click Response,1_count,3.0,object-46,temp_dist_trial,1.0,s_sh_21_1,student_shared,file holder,3.0,competing,single,s_sh_21_1.jpg,Student,,,sub-42
Desktop or Laptop,Windows 10,Chrome 138.0.0.0,1536x864,1536x730,Temporal Distance Task,cb_03,2.0,temp_dist_trial,num_items,zn7si1,1.0,response,2_ITEM,1538.800000005962,1533.3000000000034,1538.800000005962,1538.800000005962,1533.3000000000034,1538.800000005962,1.0,0.0,0.0,,Click Response,2_count,5.0,object-49,temp_dist_trial,2.0,s_a_11_1,student_art,clapperboard,3.0,unique,paired,s_a_11_1.jpg,Student,,,sub-42
Desktop or Laptop,Windows 10,Chrome 138.0.0.0,1536x864,1536x730,Temporal Distance Task,cb_03,2.0,temp_dist_trial,dist_items,qkpkxw,2.0,info,,4.700000002980231,0.0,4.700000002980231,4.700000002980231,0.0,4.700000002980231,1.0,0.0,0.0,,Slider,Slider,4.0,object-56,temp_dist_trial,2.0,s_a_11_1,student_art,clapperboard,3.0,unique,paired,s_a_11_1.jpg,Student,,,sub-42
Desktop or Laptop,Windows 10,Chrome 138.0.0.0,1536x864,1536x730,Temporal Distance Task,cb_03,2.0,temp_dist_trial,dist_items,qkpkxw,2.0,continue,,5010.799999997021,5000.0,5010.799999997021,5010.799999997021,5000.0,5010.799999997021,1.0,0.0,0.0,,Click To Continue,Next button,7.0,object-60,temp_dist_trial,2.0,s_a_11_1,student_art,clapperboard,3.0,unique,paired,s_a_11_1.jpg,Student,,,sub-42
Desktop or Laptop,Windows 10,Chrome 138.0.0.0,1536x864,1536x730,Temporal Distance Task,cb_03,2.0,temp_dist_trial,dist_items,qkpkxw,2.0,response,71,1766.5999999999985,5000.0,5016.799999997021,1766.5999999999985,5000.0,5016.799999997021,1.0,3250.1999999970208,0.0,,Slider,Slider,4.0,object-56,temp_dist_trial,2.0,s_a_11_1,student_art,clapperboard,3.0,unique,paired,s_a_11_1.jpg,Student,,,sub-42
Desktop or Laptop,Windows 10,Chrome 138.0.0.0,1536x864,1536x730,Temporal Distance Task,cb_03,3.0,temp_dist_trial,num_items,zn7si1,1.0,response,2_ITEM,1290.2000000029802,1282.9000000000015,1290.2000000029802,1290.2000000029802,1282.9000000000015,1290.2000000029802,1.0,0.0,0.0,,Click Response,2_count,5.0,object-49,temp_dist_trial,3.0,s_a_08_1,student_art,sewing machine,3.0,unique,paired,s_a_08_1.jpg,Student,,,sub-42
Desktop or Laptop,Windows 10,Chrome 138.0.0.0,1536x864,1536x730,Temporal Distance Task,cb_03,3.0,temp_dist_trial,dist_items,qkpkxw,2.0,info,,2.700000002980232,0.0,2.700000002980232,2.700000002980232,0.0,2.700000002980232,1.0,0.0,0.0,,Slider,Slider,4.0,object-56,temp_dist_trial,3.0,s_a_08_1,student_art,sewing machine,3.0,unique,paired,s_a_08_1.jpg,Student,,,sub-42
Desktop or Laptop,Windows 10,Chrome 138.0.0.0,1536x864,1536x730,Temporal Distance Task,cb_03,3.0,temp_dist_trial,dist_items,qkpkxw,2.0,continue,,1865.29999999702,1849.9000000000005,1865.29999999702,1865.29999999702,1849.9000000000005,1865.29999999702,1.0,0.0,0.0,,Click To Continue,Next button,7.0,object-60,temp_dist_trial,3.0,s_a_08_1,student_art,sewing machine,3.0,unique,paired,s_a_08_1.jpg,Student,,,sub-42
Desktop or Laptop,Windows 10,Chrome 138.0.0.0,1536x864,1536x730,Temporal Distance Task,cb_03,3.0,temp_dist_trial,dist_items,qkpkxw,2.0,response,68,934.0,1849.9000000000005,1865.5,934.0,1849.9000000000005,1865.5,1.0,931.5,0.0,,Slider,Slider,4.0,object-56,temp_dist_trial,3.0,s_a_08_1,student_art,sewing machine,3.0,unique,paired,s_a_08_1.jpg,Student,,,sub-42
Desktop or Laptop,Windows 10,Chrome 138.0.0.0,1536x864,1536x730,Temporal Distance Task,cb_03,4.0,temp_dist_trial,num_items,zn7si1,1.0,response,1_ITEM,1481.3999999970185,1466.7999999999954,1481.3999999970185,1481.3999999970185,1466.7999999999954,1481.3999999970185,1.0,0.0,0.0,,Click Response,1_count,3.0,object-46,temp_dist_trial,4.0,s_sh_23_1,student_shared,ballpoint pen,3.0,competing,single,s_sh_23_1.jpg,Student,,,sub-42
Desktop or Laptop,Windows 10,Chrome 138.0.0.0,1536x864,1536x730,Temporal Distance Task,cb_03,5.0,temp_dist_trial,num_items,zn7si1,1.0,response,1_ITEM,1316.6999999999969,1300.0999999999985,1316.6999999999969,1316.6999999999969,1300.0999999999985,1316.6999999999969,1.0,0.0,0.0,,Click Response,1_count,3.0,object-46,temp_dist_trial,5.0,s_sh_16_1,student_shared,stapler,3.0,competing,single,s_sh_16_1.jpg,Student,,,sub-42
Desktop or Laptop,Windows 10,Chrome 138.0.0.0,1536x864,1536x730,Temporal Distance Task,cb_03,6.0,temp_dist_trial,num_items,zn7si1,1.0,response,2_ITEM,1280.6999999970212,1266.9000000000015,1280.6999999970212,1280.6999999970212,1266.9000000000015,1280.6999999970212,1.0,0.0,0.0,,Click Response,2_count,5.0,object-49,temp_dist_trial,6.0,s_a_10_1,student_art,tripod,3.0,unique,paired,s_a_10_1.jpg,Student,,,sub-42
Desktop or Laptop,Windows 10,Chrome 138.0.0.0,1536x864,1536x730,Temporal Distance Task,cb_03,6.0,temp_dist_trial,dist_items,qkpkxw,2.0,info,,9.100000008940695,0.0,9.100000008940695,9.100000008940695,0.0,9.100000008940695,1.0,0.0,0.0,,Slider,Slider,4.0,object-56,temp_dist_trial,6.0,s_a_10_1,student_art,tripod,3.0,unique,paired,s_a_10_1.jpg,Student,,,sub-42
Desktop or Laptop,Windows 10,Chrome 138.0.0.0,1536x864,1536x730,Temporal Distance Task,cb_03,6.0,temp_dist_trial,dist_items,qkpkxw,2.0,continue,,2001.5,1999.6999999999966,2001.5,2001.5,1999.6999999999966,2001.5,1.0,0.0,0.0,,Click To Continue,Next button,7.0,object-60,temp_dist_trial,6.0,s_a_10_1,student_art,tripod,3.0,unique,paired,s_a_10_1.jpg,Student,,,sub-42
Desktop or Laptop,Windows 10,Chrome 138.0.0.0,1536x864,1536x730,Temporal Distance Task,cb_03,6.0,temp_dist_trial,dist_items,qkpkxw,2.0,response,57,1166.5,1999.6999999999966,2009.0,1166.5,1999.6999999999966,2009.0,1.0,842.5,0.0,,Slider,Slider,4.0,object-56,temp_dist_trial,6.0,s_a_10_1,student_art,tripod,3.0,unique,paired,s_a_10_1.jpg,Student,,,sub-42
Desktop or Laptop,Windows 10,Chrome 138.0.0.0,1536x864,1536x730,Temporal Distance Task,cb_03,7.0,temp_dist_trial,num_items,zn7si1,1.0,response,2_ITEM,1395.0000000029834,1383.3000000000034,1395.0000000029834,1395.0000000029834,1383.3000000000034,1395.0000000029834,1.0,0.0,0.0,,Click Response,2_count,5.0,object-49,temp_dist_trial,7.0,s_sh_20_1,student_shared,tape,3.0,competing,paired,s_sh_20_1.jpg,Student,,,sub-42
Desktop or Laptop,Windows 10,Chrome 138.0.0.0,1536x864,1536x730,Temporal Distance Task,cb_03,7.0,temp_dist_trial,dist_items,qkpkxw,2.0,info,,2.4000000059604645,0.0,2.4000000059604645,2.4000000059604645,0.0,2.4000000059604645,1.0,0.0,0.0,,Slider,Slider,4.0,object-56,temp_dist_trial,7.0,s_sh_20_1,student_shared,tape,3.0,competing,paired,s_sh_20_1.jpg,Student,,,sub-42
Desktop or Laptop,Windows 10,Chrome 138.0.0.0,1536x864,1536x730,Temporal Distance Task,cb_03,7.0,temp_dist_trial,dist_items,qkpkxw,2.0,continue,,1725.9000000059605,1717.0999999999985,1725.9000000059605,1725.9000000059605,1717.0999999999985,1725.9000000059605,1.0,0.0,0.0,,Click To Continue,Next button,7.0,object-60,temp_dist_trial,7.0,s_sh_20_1,student_shared,tape,3.0,competing,paired,s_sh_20_1.jpg,Student,,,sub-42
Desktop or Laptop,Windows 10,Chrome 138.0.0.0,1536x864,1536x730,Temporal Distance Task,cb_03,7.0,temp_dist_trial,dist_items,qkpkxw,2.0,response,67,833.6999999999971,1717.0999999999985,1726.6000000089407,833.6999999999971,1717.0999999999985,1726.6000000089407,1.0,892.9000000089436,0.0,,Slider,Slider,4.0,object-56,temp_dist_trial,7.0,s_sh_20_1,student_shared,tape,3.0,competing,paired,s_sh_20_1.jpg,Student,,,sub-42
Desktop or Laptop,Windows 10,Chrome 138.0.0.0,1536x864,1536x730,Temporal Distance Task,cb_03,8.0,temp_dist_trial,num_items,zn7si1,1.0,response,2_ITEM,1209.1000000029815,1200.0,1209.1000000029815,1209.1000000029815,1200.0,1209.1000000029815,1.0,0.0,0.0,,Click Response,2_count,5.0,object-49,temp_dist_trial,8.0,s_sh_04_1,student_shared,laptop stand,3.0,competing,paired,s_sh_04_1.jpg,Student,,,sub-42
Desktop or Laptop,Windows 10,Chrome 138.0.0.0,1536x864,1536x730,Temporal Distance Task,cb_03,8.0,temp_dist_trial,dist_items,qkpkxw,2.0,info,,4.8000000000029095,0.0,4.8000000000029095,4.8000000000029095,0.0,4.8000000000029095,1.0,0.0,0.0,,Slider,Slider,4.0,object-56,temp_dist_trial,8.0,s_sh_04_1,student_shared,laptop stand,3.0,competing,paired,s_sh_04_1.jpg,Student,,,sub-42
Desktop or Laptop,Windows 10,Chrome 138.0.0.0,1536x864,1536x730,Temporal Distance Task,cb_03,8.0,temp_dist_trial,dist_items,qkpkxw,2.0,continue,,1836.5999999970227,1833.3000000000034,1836.5999999970227,1836.5999999970227,1833.3000000000034,1836.5999999970227,1.0,0.0,0.0,,Click To Continue,Next button,7.0,object-60,temp_dist_trial,8.0,s_sh_04_1,student_shared,laptop stand,3.0,competing,paired,s_sh_04_1.jpg,Student,,,sub-42
Desktop or Laptop,Windows 10,Chrome 138.0.0.0,1536x864,1536x730,Temporal Distance Task,cb_03,8.0,temp_dist_trial,dist_items,qkpkxw,2.0,response,60,1033.2000000000044,1833.3000000000034,1837.400000008944,1033.2000000000044,1833.3000000000034,1837.400000008944,1.0,804.2000000089392,0.0,,Slider,Slider,4.0,object-56,temp_dist_trial,8.0,s_sh_04_1,student_shared,laptop stand,3.0,competing,paired,s_sh_04_1.jpg,Student,,,sub-42
Desktop or Laptop,Windows 10,Chrome 138.0.0.0,1536x864,1536x730,Temporal Distance Task,cb_03,9.0,temp_dist_trial,num_items,zn7si1,1.0,response,1_ITEM,1220.1000000089407,1216.5999999999985,1220.1000000089407,1220.1000000089407,1216.5999999999985,1220.1000000089407,1.0,0.0,0.0,,Click Response,1_count,3.0,object-46,temp_dist_trial,9.0,s_a_17_1,student_art,microphone,3.0,unique,single,s_a_17_1.jpg,Student,,,sub-42
Desktop or Laptop,Windows 10,Chrome 138.0.0.0,1536x864,1536x730,Temporal Distance Task,cb_03,10.0,temp_dist_trial,num_items,zn7si1,1.0,response,1_ITEM,965.1000000089407,949.6999999999972,965.1000000089407,965.1000000089407,949.6999999999972,965.1000000089407,1.0,0.0,0.0,,Click Response,1_count,3.0,object-46,temp_dist_trial,10.0,s_s_03_1,student_stem,petri dish,3.0,unique,paired,s_s_03_1.jpg,Student,,,sub-42
Desktop or Laptop,Windows 10,Chrome 138.0.0.0,1536x864,1536x730,Temporal Distance Task,cb_03,11.0,temp_dist_trial,num_items,zn7si1,1.0,response,1_ITEM,1454.4000000000015,1450.0000000000073,1454.4000000000015,1454.4000000000015,1450.0000000000073,1454.4000000000015,1.0,0.0,0.0,,Click Response,1_count,3.0,object-46,temp_dist_trial,11.0,s_s_02_1,student_stem,flask,3.0,unique,single,s_s_02_1.jpg,Student,,,sub-42
Desktop or Laptop,Windows 10,Chrome 138.0.0.0,1536x864,1536x730,Temporal Distance Task,cb_03,12.0,temp_dist_trial,num_items,zn7si1,1.0,response,2_ITEM,1141.2999999970198,1133.3000000000031,1141.2999999970198,1141.2999999970198,1133.3000000000031,1141.2999999970198,1.0,0.0,0.0,,Click Response,2_count,5.0,object-49,temp_dist_trial,12.0,s_s_05_1,student_stem,lab goggles,3.0,unique,paired,s_s_05_1.jpg,Student,,,sub-42
Desktop or Laptop,Windows 10,Chrome 138.0.0.0,1536x864,1536x730,Temporal Distance Task,cb_03,12.0,temp_dist_trial,dist_items,qkpkxw,2.0,info,,7.3000000089377854,0.0,7.3000000089377854,7.3000000089377854,0.0,7.3000000089377854,1.0,0.0,0.0,,Slider,Slider,4.0,object-56,temp_dist_trial,12.0,s_s_05_1,student_stem,lab goggles,3.0,unique,paired,s_s_05_1.jpg,Student,,,sub-42
Desktop or Laptop,Windows 10,Chrome 138.0.0.0,1536x864,1536x730,Temporal Distance Task,cb_03,12.0,temp_dist_trial,dist_items,qkpkxw,2.0,continue,,1529.8000000089378,1517.0,1529.8000000089378,1529.8000000089378,1517.0,1529.8000000089378,1.0,0.0,0.0,,Click To Continue,Next button,7.0,object-60,temp_dist_trial,12.0,s_s_05_1,student_stem,lab goggles,3.0,unique,paired,s_s_05_1.jpg,Student,,,sub-42
Desktop or Laptop,Windows 10,Chrome 138.0.0.0,1536x864,1536x730,Temporal Distance Task,cb_03,12.0,temp_dist_trial,dist_items,qkpkxw,2.0,response,73,650.0,1517.0,1530.4999999970166,650.0,1517.0,1530.4999999970166,1.0,880.4999999970169,0.0,,Slider,Slider,4.0,object-56,temp_dist_trial,12.0,s_s_05_1,student_stem,lab goggles,3.0,unique,paired,s_s_05_1.jpg,Student,,,sub-42
Desktop or Laptop,Windows 10,Chrome 138.0.0.0,1536x864,1536x730,Temporal Distance Task,cb_03,13.0,temp_dist_trial,num_items,zn7si1,1.0,response,2_ITEM,1535.4999999970166,1532.8999999999942,1535.4999999970166,1535.4999999970166,1532.8999999999942,1535.4999999970166,1.0,0.0,0.0,,Click Response,2_count,5.0,object-49,temp_dist_trial,13.0,s_sh_08_1,student_shared,post-its,3.0,competing,paired,s_sh_08_1.jpg,Student,,,sub-42
Desktop or Laptop,Windows 10,Chrome 138.0.0.0,1536x864,1536x730,Temporal Distance Task,cb_03,13.0,temp_dist_trial,dist_items,qkpkxw,2.0,info,,7.900000002977323,0.0,7.900000002977323,7.900000002977323,0.0,7.900000002977323,1.0,0.0,0.0,,Slider,Slider,4.0,object-56,temp_dist_trial,13.0,s_sh_08_1,student_shared,post-its,3.0,competing,paired,s_sh_08_1.jpg,Student,,,sub-42
Desktop or Laptop,Windows 10,Chrome 138.0.0.0,1536x864,1536x730,Temporal Distance Task,cb_03,13.0,temp_dist_trial,dist_items,qkpkxw,2.0,continue,,1578.8000000089378,1566.599999999991,1578.8000000089378,1578.8000000089378,1566.599999999991,1578.8000000089378,1.0,0.0,0.0,,Click To Continue,Next button,7.0,object-60,temp_dist_trial,13.0,s_sh_08_1,student_shared,post-its,3.0,competing,paired,s_sh_08_1.jpg,Student,,,sub-42
Desktop or Laptop,Windows 10,Chrome 138.0.0.0,1536x864,1536x730,Temporal Distance Task,cb_03,13.0,temp_dist_trial,dist_items,qkpkxw,2.0,response,81,650.0,1566.599999999991,1579.1000000059576,650.0,1566.599999999991,1579.1000000059576,1.0,929.1000000059577,0.0,,Slider,Slider,4.0,object-56,temp_dist_trial,13.0,s_sh_08_1,student_shared,post-its,3.0,competing,paired,s_sh_08_1.jpg,Student,,,sub-42
Desktop or Laptop,Windows 10,Chrome 138.0.0.0,1536x864,1536x730,Temporal Distance Task,cb_03,14.0,temp_dist_trial,num_items,zn7si1,1.0,response,2_ITEM,1642.5000000059665,1633.5,1642.5000000059665,1642.5000000059665,1633.5,1642.5000000059665,1.0,0.0,0.0,,Click Response,2_count,5.0,object-49,temp_dist_trial,14.0,s_a_03_1,student_art,palette,3.0,unique,paired,s_a_03_1.jpg,Student,,,sub-42
Desktop or Laptop,Windows 10,Chrome 138.0.0.0,1536x864,1536x730,Temporal Distance Task,cb_03,14.0,temp_dist_trial,dist_items,qkpkxw,2.0,info,,8.099999997022678,0.0,8.099999997022678,8.099999997022678,0.0,8.099999997022678,1.0,0.0,0.0,,Slider,Slider,4.0,object-56,temp_dist_trial,14.0,s_a_03_1,student_art,palette,3.0,unique,paired,s_a_03_1.jpg,Student,,,sub-42
Desktop or Laptop,Windows 10,Chrome 138.0.0.0,1536x864,1536x730,Temporal Distance Task,cb_03,14.0,temp_dist_trial,dist_items,qkpkxw,2.0,continue,,1587.7000000059634,1583.3000000000034,1587.7000000059634,1587.7000000059634,1583.3000000000034,1587.7000000059634,1.0,0.0,0.0,,Click To Continue,Next button,7.0,object-60,temp_dist_trial,14.0,s_a_03_1,student_art,palette,3.0,unique,paired,s_a_03_1.jpg,Student,,,sub-42
Desktop or Laptop,Windows 10,Chrome 138.0.0.0,1536x864,1536x730,Temporal Distance Task,cb_03,14.0,temp_dist_trial,dist_items,qkpkxw,2.0,response,82,666.6999999999971,1583.3000000000034,1588.0999999970227,666.6999999999971,1583.3000000000034,1588.0999999970227,1.0,921.3999999970256,0.0,,Slider,Slider,4.0,object-56,temp_dist_trial,14.0,s_a_03_1,student_art,palette,3.0,unique,paired,s_a_03_1.jpg,Student,,,sub-42
Desktop or Laptop,Windows 10,Chrome 138.0.0.0,1536x864,1536x730,Temporal Distance Task,cb_03,15.0,temp_dist_trial,num_items,zn7si1,1.0,response,2_ITEM,1604.9000000059605,1600.1999999999966,1604.9000000059605,1604.9000000059605,1600.1999999999966,1604.9000000059605,1.0,0.0,0.0,,Click Response,2_count,5.0,object-49,temp_dist_trial,15.0,s_sh_11_1,student_shared,pencil case,3.0,competing,paired,s_sh_11_1.jpg,Student,,,sub-42
Desktop or Laptop,Windows 10,Chrome 138.0.0.0,1536x864,1536x730,Temporal Distance Task,cb_03,15.0,temp_dist_trial,dist_items,qkpkxw,2.0,info,,3.7000000089465175,0.0,3.7000000089465175,3.7000000089465175,0.0,3.7000000089465175,1.0,0.0,0.0,,Slider,Slider,4.0,object-56,temp_dist_trial,15.0,s_sh_11_1,student_shared,pencil case,3.0,competing,paired,s_sh_11_1.jpg,Student,,,sub-42
Desktop or Laptop,Windows 10,Chrome 138.0.0.0,1536x864,1536x730,Temporal Distance Task,cb_03,15.0,temp_dist_trial,dist_items,qkpkxw,2.0,continue,,1583.3999999999942,1566.8000000000034,1583.3999999999942,1583.3999999999942,1566.8000000000034,1583.3999999999942,1.0,0.0,0.0,,Click To Continue,Next button,7.0,object-60,temp_dist_trial,15.0,s_sh_11_1,student_shared,pencil case,3.0,competing,paired,s_sh_11_1.jpg,Student,,,sub-42
Desktop or Laptop,Windows 10,Chrome 138.0.0.0,1536x864,1536x730,Temporal Distance Task,cb_03,15.0,temp_dist_trial,dist_items,qkpkxw,2.0,response,80,816.9000000000087,1566.8000000000034,1583.3999999999942,816.9000000000087,1566.8000000000034,1583.3999999999942,1.0,766.4999999999852,0.0,,Slider,Slider,4.0,object-56,temp_dist_trial,15.0,s_sh_11_1,student_shared,pencil case,3.0,competing,paired,s_sh_11_1.jpg,Student,,,sub-42
Desktop or Laptop,Windows 10,Chrome 138.0.0.0,1536x864,1536x730,Temporal Distance Task,cb_03,16.0,temp_dist_trial,num_items,zn7si1,1.0,response,1_ITEM,2079.500000002983,2066.6000000000063,2079.500000002983,2079.500000002983,2066.6000000000063,2079.500000002983,1.0,0.0,0.0,,Click Response,1_count,3.0,object-46,temp_dist_trial,16.0,s_s_01_1,student_stem,microscope,3.0,unique,single,s_s_01_1.jpg,Student,,,sub-42
Desktop or Laptop,Windows 10,Chrome 138.0.0.0,1536x864,1536x730,Temporal Distance Task,cb_03,17.0,temp_dist_trial,num_items,zn7si1,1.0,response,2_ITEM,1323.1000000059576,1316.8000000000031,1323.1000000059576,1323.1000000059576,1316.8000000000031,1323.1000000059576,1.0,0.0,0.0,,Click Response,2_count,5.0,object-49,temp_dist_trial,17.0,s_s_12_1,student_stem,robotic arm,3.0,unique,paired,s_s_12_1.jpg,Student,,,sub-42
Desktop or Laptop,Windows 10,Chrome 138.0.0.0,1536x864,1536x730,Temporal Distance Task,cb_03,17.0,temp_dist_trial,dist_items,qkpkxw,2.0,info,,3.900000002977322,0.0,3.900000002977322,3.900000002977322,0.0,3.900000002977322,1.0,0.0,0.0,,Slider,Slider,4.0,object-56,temp_dist_trial,17.0,s_s_12_1,student_stem,robotic arm,3.0,unique,paired,s_s_12_1.jpg,Student,,,sub-42
Desktop or Laptop,Windows 10,Chrome 138.0.0.0,1536x864,1536x730,Temporal Distance Task,cb_03,17.0,temp_dist_trial,dist_items,qkpkxw,2.0,continue,,1811.3000000089373,1800.1999999999966,1811.3000000089373,1811.3000000089373,1800.1999999999966,1811.3000000089373,1.0,0.0,0.0,,Click To Continue,Next button,7.0,object-60,temp_dist_trial,17.0,s_s_12_1,student_stem,robotic arm,3.0,unique,paired,s_s_12_1.jpg,Student,,,sub-42
Desktop or Laptop,Windows 10,Chrome 138.0.0.0,1536x864,1536x730,Temporal Distance Task,cb_03,17.0,temp_dist_trial,dist_items,qkpkxw,2.0,response,66,933.5,1800.1999999999966,1811.8000000089373,933.5,1800.1999999999966,1811.8000000089373,1.0,878.3000000089377,0.0,,Slider,Slider,4.0,object-56,temp_dist_trial,17.0,s_s_12_1,student_stem,robotic arm,3.0,unique,paired,s_s_12_1.jpg,Student,,,sub-42
Desktop or Laptop,Windows 10,Chrome 138.0.0.0,1536x864,1536x730,Temporal Distance Task,cb_03,18.0,temp_dist_trial,num_items,zn7si1,1.0,response,2_ITEM,961.9000000059604,950.0,961.9000000059604,961.9000000059604,950.0,961.9000000059604,1.0,0.0,0.0,,Click Response,2_count,5.0,object-49,temp_dist_trial,18.0,s_s_18_1,student_stem,brain model,3.0,unique,paired,s_s_18_1.jpg,Student,,,sub-42
Desktop or Laptop,Windows 10,Chrome 138.0.0.0,1536x864,1536x730,Temporal Distance Task,cb_03,18.0,temp_dist_trial,dist_items,qkpkxw,2.0,info,,3.8000000000029104,0.0,3.8000000000029104,3.8000000000029104,0.0,3.8000000000029104,1.0,0.0,0.0,,Slider,Slider,4.0,object-56,temp_dist_trial,18.0,s_s_18_1,student_stem,brain model,3.0,unique,paired,s_s_18_1.jpg,Student,,,sub-42
Desktop or Laptop,Windows 10,Chrome 138.0.0.0,1536x864,1536x730,Temporal Distance Task,cb_03,18.0,temp_dist_trial,dist_items,qkpkxw,2.0,continue,,1568.4000000089434,1566.900000000009,1568.4000000089434,1568.4000000089434,1566.900000000009,1568.4000000089434,1.0,0.0,0.0,,Click To Continue,Next button,7.0,object-60,temp_dist_trial,18.0,s_s_18_1,student_stem,brain model,3.0,unique,paired,s_s_18_1.jpg,Student,,,sub-42
Desktop or Laptop,Windows 10,Chrome 138.0.0.0,1536x864,1536x730,Temporal Distance Task,cb_03,18.0,temp_dist_trial,dist_items,qkpkxw,2.0,response,77,567.0,1566.900000000009,1572.3000000000034,567.0,1566.900000000009,1572.3000000000034,1.0,1005.3000000000028,0.0,,Slider,Slider,4.0,object-56,temp_dist_trial,18.0,s_s_18_1,student_stem,brain model,3.0,unique,paired,s_s_18_1.jpg,Student,,,sub-42
Desktop or Laptop,Windows 10,Chrome 138.0.0.0,1536x864,1536x730,Temporal Distance Task,cb_03,19.0,temp_dist_trial,num_items,zn7si1,1.0,response,2_ITEM,1074.3000000059546,1066.5999999999913,1074.3000000059546,1074.3000000059546,1066.5999999999913,1074.3000000059546,1.0,0.0,0.0,,Click Response,2_count,5.0,object-49,temp_dist_trial,19.0,s_sh_09_1,student_shared,paper clips,3.0,competing,paired,s_sh_09_1.jpg,Student,,,sub-42
Desktop or Laptop,Windows 10,Chrome 138.0.0.0,1536x864,1536x730,Temporal Distance Task,cb_03,19.0,temp_dist_trial,dist_items,qkpkxw,2.0,info,,6.8000000000029095,0.0,6.8000000000029095,6.8000000000029095,0.0,6.8000000000029095,1.0,0.0,0.0,,Slider,Slider,4.0,object-56,temp_dist_trial,19.0,s_sh_09_1,student_shared,paper clips,3.0,competing,paired,s_sh_09_1.jpg,Student,,,sub-42
Desktop or Laptop,Windows 10,Chrome 138.0.0.0,1536x864,1536x730,Temporal Distance Task,cb_03,19.0,temp_dist_trial,dist_items,qkpkxw,2.0,continue,,1332.9999999999854,1316.6999999999969,1332.9999999999854,1332.9999999999854,1316.6999999999969,1332.9999999999854,1.0,0.0,0.0,,Click To Continue,Next button,7.0,object-60,temp_dist_trial,19.0,s_sh_09_1,student_shared,paper clips,3.0,competing,paired,s_sh_09_1.jpg,Student,,,sub-42
Desktop or Laptop,Windows 10,Chrome 138.0.0.0,1536x864,1536x730,Temporal Distance Task,cb_03,19.0,temp_dist_trial,dist_items,qkpkxw,2.0,response,77,650.0,1316.6999999999969,1332.9999999999854,650.0,1316.6999999999969,1332.9999999999854,1.0,682.9999999999852,0.0,,Slider,Slider,4.0,object-56,temp_dist_trial,19.0,s_sh_09_1,student_shared,paper clips,3.0,competing,paired,s_sh_09_1.jpg,Student,,,sub-42
Desktop or Laptop,Windows 10,Chrome 138.0.0.0,1536x864,1536x730,Temporal Distance Task,cb_03,20.0,temp_dist_trial,num_items,zn7si1,1.0,response,1_ITEM,1428.5000000059665,1416.8000000000034,1428.5000000059665,1428.5000000059665,1416.8000000000034,1428.5000000059665,1.0,0.0,0.0,,Click Response,1_count,3.0,object-46,temp_dist_trial,20.0,s_s_07_1,student_stem,periodic table,3.0,unique,single,s_s_07_1.jpg,Student,,,sub-42
Desktop or Laptop,Windows 10,Chrome 138.0.0.0,1536x864,1536x730,Temporal Distance Task,cb_03,21.0,temp_dist_trial,num_items,zn7si1,1.0,response,1_ITEM,909.8999999999942,900.1999999999971,909.8999999999942,909.8999999999942,900.1999999999971,909.8999999999942,1.0,0.0,0.0,,Click Response,1_count,3.0,object-46,temp_dist_trial,21.0,s_sh_15_1,student_shared,usb drive,3.0,competing,paired,s_sh_15_1.jpg,Student,,,sub-42
Desktop or Laptop,Windows 10,Chrome 138.0.0.0,1536x864,1536x730,Temporal Distance Task,cb_03,22.0,temp_dist_trial,num_items,zn7si1,1.0,response,1_ITEM,771.0999999970227,766.4000000000087,771.0999999970227,771.0999999970227,766.4000000000087,771.0999999970227,1.0,0.0,0.0,,Click Response,1_count,3.0,object-46,temp_dist_trial,22.0,s_a_16_1,student_art,piano,3.0,unique,single,s_a_16_1.jpg,Student,,,sub-42
Desktop or Laptop,Windows 10,Chrome 138.0.0.0,1536x864,1536x730,Temporal Distance Task,cb_03,23.0,temp_dist_trial,num_items,zn7si1,1.0,response,1_ITEM,752.8000000029858,749.8000000000029,752.8000000029858,752.8000000029858,749.8000000000029,752.8000000029858,1.0,0.0,0.0,,Click Response,1_count,3.0,object-46,temp_dist_trial,23.0,s_a_19_1,student_art,ballet shoes,3.0,unique,single,s_a_19_1.jpg,Student,,,sub-42
Desktop or Laptop,Windows 10,Chrome 138.0.0.0,1536x864,1536x730,Temporal Distance Task,cb_03,24.0,temp_dist_trial,num_items,zn7si1,1.0,response,2_ITEM,1612.4000000059605,1599.6000000000058,1612.4000000059605,1612.4000000059605,1599.6000000000058,1612.4000000059605,1.0,0.0,0.0,,Click Response,2_count,5.0,object-49,temp_dist_trial,24.0,s_sh_06_1,student_shared,clipboard,3.0,competing,paired,s_sh_06_1.jpg,Student,,,sub-42
Desktop or Laptop,Windows 10,Chrome 138.0.0.0,1536x864,1536x730,Temporal Distance Task,cb_03,24.0,temp_dist_trial,dist_items,qkpkxw,2.0,info,,3.300000002986053,0.0,3.300000002986053,3.300000002986053,0.0,3.300000002986053,1.0,0.0,0.0,,Slider,Slider,4.0,object-56,temp_dist_trial,24.0,s_sh_06_1,student_shared,clipboard,3.0,competing,paired,s_sh_06_1.jpg,Student,,,sub-42
Desktop or Laptop,Windows 10,Chrome 138.0.0.0,1536x864,1536x730,Temporal Distance Task,cb_03,24.0,temp_dist_trial,dist_items,qkpkxw,2.0,continue,,1405.0000000059665,1400.2000000000116,1405.0000000059665,1405.0000000059665,1400.2000000000116,1405.0000000059665,1.0,0.0,0.0,,Click To Continue,Next button,7.0,object-60,temp_dist_trial,24.0,s_sh_06_1,student_shared,clipboard,3.0,competing,paired,s_sh_06_1.jpg,Student,,,sub-42
Desktop or Laptop,Windows 10,Chrome 138.0.0.0,1536x864,1536x730,Temporal Distance Task,cb_03,24.0,temp_dist_trial,dist_items,qkpkxw,2.0,response,62,667.1000000000057,1400.2000000000116,1412.3999999970254,667.1000000000057,1400.2000000000116,1412.3999999970254,1.0,745.2999999970198,0.0,,Slider,Slider,4.0,object-56,temp_dist_trial,24.0,s_sh_06_1,student_shared,clipboard,3.0,competing,paired,s_sh_06_1.jpg,Student,,,sub-42
Desktop or Laptop,Windows 10,Chrome 138.0.0.0,1536x864,1536x730,Temporal Distance Task,cb_03,25.0,temp_dist_trial,num_items,zn7si1,1.0,response,2_ITEM,1379.1000000029746,1367.1999999999969,1379.1000000029746,1379.1000000029746,1367.1999999999969,1379.1000000029746,1.0,0.0,0.0,,Click Response,2_count,5.0,object-49,temp_dist_trial,25.0,s_a_20_1,student_art,pin cushion,3.0,unique,paired,s_a_20_1.jpg,Student,,,sub-42
Desktop or Laptop,Windows 10,Chrome 138.0.0.0,1536x864,1536x730,Temporal Distance Task,cb_03,25.0,temp_dist_trial,dist_items,qkpkxw,2.0,info,,2.300000005954644,0.0,2.300000005954644,2.300000005954644,0.0,2.300000005954644,1.0,0.0,0.0,,Slider,Slider,4.0,object-56,temp_dist_trial,25.0,s_a_20_1,student_art,pin cushion,3.0,unique,paired,s_a_20_1.jpg,Student,,,sub-42
Desktop or Laptop,Windows 10,Chrome 138.0.0.0,1536x864,1536x730,Temporal Distance Task,cb_03,25.0,temp_dist_trial,dist_items,qkpkxw,2.0,continue,,1604.8000000059546,1600.099999999991,1604.8000000059546,1604.8000000059546,1600.099999999991,1604.8000000059546,1.0,0.0,0.0,,Click To Continue,Next button,7.0,object-60,temp_dist_trial,25.0,s_a_20_1,student_art,pin cushion,3.0,unique,paired,s_a_20_1.jpg,Student,,,sub-42
Desktop or Laptop,Windows 10,Chrome 138.0.0.0,1536x864,1536x730,Temporal Distance Task,cb_03,25.0,temp_dist_trial,dist_items,qkpkxw,2.0,response,57,683.1999999999971,1600.099999999991,1605.3999999999942,683.1999999999971,1600.099999999991,1605.3999999999942,1.0,922.1999999999972,0.0,,Slider,Slider,4.0,object-56,temp_dist_trial,25.0,s_a_20_1,student_art,pin cushion,3.0,unique,paired,s_a_20_1.jpg,Student,,,sub-42
Desktop or Laptop,Windows 10,Chrome 138.0.0.0,1536x864,1536x730,Temporal Distance Task,cb_03,26.0,temp_dist_trial,num_items,zn7si1,1.0,response,2_ITEM,1887.0000000029834,1883.1000000000056,1887.0000000029834,1887.0000000029834,1883.1000000000056,1887.0000000029834,1.0,0.0,0.0,,Click Response,2_count,5.0,object-49,temp_dist_trial,26.0,s_s_04_1,student_stem,bunsen burner,3.0,unique,paired,s_s_04_1.jpg,Student,,,sub-42
Desktop or Laptop,Windows 10,Chrome 138.0.0.0,1536x864,1536x730,Temporal Distance Task,cb_03,26.0,temp_dist_trial,dist_items,qkpkxw,2.0,info,,9.300000002986053,0.0,9.300000002986053,9.300000002986053,0.0,9.300000002986053,1.0,0.0,0.0,,Slider,Slider,4.0,object-56,temp_dist_trial,26.0,s_s_04_1,student_stem,bunsen burner,3.0,unique,paired,s_s_04_1.jpg,Student,,,sub-42
Desktop or Laptop,Windows 10,Chrome 138.0.0.0,1536x864,1536x730,Temporal Distance Task,cb_03,26.0,temp_dist_trial,dist_items,qkpkxw,2.0,continue,,1614.300000002986,1600.1000000000058,1614.300000002986,1614.300000002986,1600.1000000000058,1614.300000002986,1.0,0.0,0.0,,Click To Continue,Next button,7.0,object-60,temp_dist_trial,26.0,s_s_04_1,student_stem,bunsen burner,3.0,unique,paired,s_s_04_1.jpg,Student,,,sub-42
Desktop or Laptop,Windows 10,Chrome 138.0.0.0,1536x864,1536x730,Temporal Distance Task,cb_03,26.0,temp_dist_trial,dist_items,qkpkxw,2.0,response,61,700.0,1600.1000000000058,1614.6000000000058,700.0,1600.1000000000058,1614.6000000000058,1.0,914.6000000000058,0.0,,Slider,Slider,4.0,object-56,temp_dist_trial,26.0,s_s_04_1,student_stem,bunsen burner,3.0,unique,paired,s_s_04_1.jpg,Student,,,sub-42
Desktop or Laptop,Windows 10,Chrome 138.0.0.0,1536x864,1536x730,Temporal Distance Task,cb_03,27.0,temp_dist_trial,num_items,zn7si1,1.0,response,1_ITEM,1590.9000000059605,1583.3000000000034,1590.9000000059605,1590.9000000059605,1583.3000000000034,1590.9000000059605,1.0,0.0,0.0,,Click Response,1_count,3.0,object-46,temp_dist_trial,27.0,s_sh_01_1,student_shared,notebook,3.0,competing,paired,s_sh_01_1.jpg,Student,,,sub-42
Desktop or Laptop,Windows 10,Chrome 138.0.0.0,1536x864,1536x730,Temporal Distance Task,cb_03,28.0,temp_dist_trial,num_items,zn7si1,1.0,response,1_ITEM,1856.3000000089373,1849.8999999999944,1856.3000000089373,1856.3000000089373,1849.8999999999944,1856.3000000089373,1.0,0.0,0.0,,Click Response,1_count,3.0,object-46,temp_dist_trial,28.0,s_a_04_1,student_art,easel,3.0,unique,paired,s_a_04_1.jpg,Student,,,sub-42
Desktop or Laptop,Windows 10,Chrome 138.0.0.0,1536x864,1536x730,Temporal Distance Task,cb_03,29.0,temp_dist_trial,num_items,zn7si1,1.0,response,1_ITEM,1179.8000000089378,1166.5,1179.8000000089378,1179.8000000089378,1166.5,1179.8000000089378,1.0,0.0,0.0,,Click Response,1_count,3.0,object-46,temp_dist_trial,29.0,s_s_14_1,student_stem,funnel,3.0,unique,paired,s_s_14_1.jpg,Student,,,sub-42
Desktop or Laptop,Windows 10,Chrome 138.0.0.0,1536x864,1536x730,Temporal Distance Task,cb_03,30.0,temp_dist_trial,num_items,zn7si1,1.0,response,2_ITEM,1115.3999999999942,1099.8999999999942,1115.3999999999942,1115.3999999999942,1099.8999999999942,1115.3999999999942,1.0,0.0,0.0,,Click Response,2_count,5.0,object-49,temp_dist_trial,30.0,s_sh_14_1,student_shared,printer,3.0,competing,paired,s_sh_14_1.jpg,Student,,,sub-42
Desktop or Laptop,Windows 10,Chrome 138.0.0.0,1536x864,1536x730,Temporal Distance Task,cb_03,30.0,temp_dist_trial,dist_items,qkpkxw,2.0,info,,8.899999997025587,0.0,8.899999997025587,8.899999997025587,0.0,8.899999997025587,1.0,0.0,0.0,,Slider,Slider,4.0,object-56,temp_dist_trial,30.0,s_sh_14_1,student_shared,printer,3.0,competing,paired,s_sh_14_1.jpg,Student,,,sub-42
Desktop or Laptop,Windows 10,Chrome 138.0.0.0,1536x864,1536x730,Temporal Distance Task,cb_03,30.0,temp_dist_trial,dist_items,qkpkxw,2.0,continue,,1511.300000002986,1500.2000000000116,1511.300000002986,1511.300000002986,1500.2000000000116,1511.300000002986,1.0,0.0,0.0,,Click To Continue,Next button,7.0,object-60,temp_dist_trial,30.0,s_sh_14_1,student_shared,printer,3.0,competing,paired,s_sh_14_1.jpg,Student,,,sub-42
Desktop or Laptop,Windows 10,Chrome 138.0.0.0,1536x864,1536x730,Temporal Distance Task,cb_03,30.0,temp_dist_trial,dist_items,qkpkxw,2.0,response,64,733.2000000000116,1500.2000000000116,1511.6000000000058,733.2000000000116,1500.2000000000116,1511.6000000000058,1.0,778.3999999999942,0.0,,Slider,Slider,4.0,object-56,temp_dist_trial,30.0,s_sh_14_1,student_shared,printer,3.0,competing,paired,s_sh_14_1.jpg,Student,,,sub-42
Desktop or Laptop,Windows 10,Chrome 138.0.0.0,1536x864,1536x730,Temporal Distance Task,cb_03,31.0,temp_dist_trial,num_items,zn7si1,1.0,response,2_ITEM,1632.3999999999942,1616.1999999999966,1632.3999999999942,1632.3999999999942,1616.1999999999966,1632.3999999999942,1.0,0.0,0.0,,Click Response,2_count,5.0,object-49,temp_dist_trial,31.0,s_s_17_1,student_stem,ring stand,3.0,unique,paired,s_s_17_1.jpg,Student,,,sub-42
Desktop or Laptop,Windows 10,Chrome 138.0.0.0,1536x864,1536x730,Temporal Distance Task,cb_03,31.0,temp_dist_trial,dist_items,qkpkxw,2.0,info,,7.399999997025588,0.0,7.399999997025588,7.399999997025588,0.0,7.399999997025588,1.0,0.0,0.0,,Slider,Slider,4.0,object-56,temp_dist_trial,31.0,s_s_17_1,student_stem,ring stand,3.0,unique,paired,s_s_17_1.jpg,Student,,,sub-42
Desktop or Laptop,Windows 10,Chrome 138.0.0.0,1536x864,1536x730,Temporal Distance Task,cb_03,31.0,temp_dist_trial,dist_items,qkpkxw,2.0,continue,,1488.800000002986,1483.5,1488.800000002986,1488.800000002986,1483.5,1488.800000002986,1.0,0.0,0.0,,Click To Continue,Next button,7.0,object-60,temp_dist_trial,31.0,s_s_17_1,student_stem,ring stand,3.0,unique,paired,s_s_17_1.jpg,Student,,,sub-42
Desktop or Laptop,Windows 10,Chrome 138.0.0.0,1536x864,1536x730,Temporal Distance Task,cb_03,31.0,temp_dist_trial,dist_items,qkpkxw,2.0,response,67,666.9000000000087,1483.5,1489.2000000089465,666.9000000000087,1483.5,1489.2000000089465,1.0,822.3000000089377,0.0,,Slider,Slider,4.0,object-56,temp_dist_trial,31.0,s_s_17_1,student_stem,ring stand,3.0,unique,paired,s_s_17_1.jpg,Student,,,sub-42
Desktop or Laptop,Windows 10,Chrome 138.0.0.0,1536x864,1536x730,Temporal Distance Task,cb_03,32.0,temp_dist_trial,num_items,zn7si1,1.0,response,1_ITEM,1227.7000000089465,1216.3000000000031,1227.7000000089465,1227.7000000089465,1216.3000000000031,1227.7000000089465,1.0,0.0,0.0,,Click Response,1_count,3.0,object-46,temp_dist_trial,32.0,s_s_09_1,student_stem,multimeter,3.0,unique,single,s_s_09_1.jpg,Student,,,sub-42
Desktop or Laptop,Windows 10,Chrome 138.0.0.0,1536x864,1536x730,Temporal Distance Task,cb_03,33.0,temp_dist_trial,num_items,zn7si1,1.0,response,1_ITEM,1789.3000000089378,1783.8999999999942,1789.3000000089378,1789.3000000089378,1783.8999999999942,1789.3000000089378,1.0,0.0,0.0,,Click Response,1_count,3.0,object-46,temp_dist_trial,33.0,s_a_02_1,student_art,canvas,3.0,unique,single,s_a_02_1.jpg,Student,,,sub-42
Desktop or Laptop,Windows 10,Chrome 138.0.0.0,1536x864,1536x730,Temporal Distance Task,cb_03,34.0,temp_dist_trial,num_items,zn7si1,1.0,response,1_ITEM,708.2000000029802,699.6999999999971,708.2000000029802,708.2000000029802,699.6999999999971,708.2000000029802,1.0,0.0,0.0,,Click Response,1_count,3.0,object-46,temp_dist_trial,34.0,s_a_13_1,student_art,violin,3.0,unique,paired,s_a_13_1.jpg,Student,,,sub-42
Desktop or Laptop,Windows 10,Chrome 138.0.0.0,1536x864,1536x730,Temporal Distance Task,cb_03,35.0,temp_dist_trial,num_items,zn7si1,1.0,response,1_ITEM,1393.5000000029834,1383.6000000000058,1393.5000000029834,1393.5000000029834,1383.6000000000058,1393.5000000029834,1.0,0.0,0.0,,Click Response,1_count,3.0,object-46,temp_dist_trial,35.0,s_sh_10_1,student_shared,scissors,3.0,competing,paired,s_sh_10_1.jpg,Student,,,sub-42
Desktop or Laptop,Windows 10,Chrome 138.0.0.0,1536x864,1536x730,Temporal Distance Task,cb_03,36.0,temp_dist_trial,num_items,zn7si1,1.0,response,1_ITEM,900.5,883.8000000000029,900.5,900.5,883.8000000000029,900.5,1.0,0.0,0.0,,Click Response,1_count,3.0,object-46,temp_dist_trial,36.0,s_sh_03_1,student_shared,highlighter,3.0,competing,single,s_sh_03_1.jpg,Student,,,sub-42
Desktop or Laptop,Windows 10,Chrome 138.0.0.0,1536x864,1536x730,Temporal Distance Task,cb_03,37.0,temp_dist_trial,num_items,zn7si1,1.0,response,2_ITEM,1259.4999999970169,1250.3000000000031,1259.4999999970169,1259.4999999970169,1250.3000000000031,1259.4999999970169,1.0,0.0,0.0,,Click Response,2_count,5.0,object-49,temp_dist_trial,37.0,s_sh_12_1,student_shared,binder,3.0,competing,paired,s_sh_12_1.jpg,Student,,,sub-42
Desktop or Laptop,Windows 10,Chrome 138.0.0.0,1536x864,1536x730,Temporal Distance Task,cb_03,37.0,temp_dist_trial,dist_items,qkpkxw,2.0,info,,8.700000005963375,0.0,8.700000005963375,8.700000005963375,0.0,8.700000005963375,1.0,0.0,0.0,,Slider,Slider,4.0,object-56,temp_dist_trial,37.0,s_sh_12_1,student_shared,binder,3.0,competing,paired,s_sh_12_1.jpg,Student,,,sub-42
Desktop or Laptop,Windows 10,Chrome 138.0.0.0,1536x864,1536x730,Temporal Distance Task,cb_03,37.0,temp_dist_trial,dist_items,qkpkxw,2.0,continue,,1769.3000000000034,1766.6999999999966,1769.3000000000034,1769.3000000000034,1766.6999999999966,1769.3000000000034,1.0,0.0,0.0,,Click To Continue,Next button,7.0,object-60,temp_dist_trial,37.0,s_sh_12_1,student_shared,binder,3.0,competing,paired,s_sh_12_1.jpg,Student,,,sub-42
Desktop or Laptop,Windows 10,Chrome 138.0.0.0,1536x864,1536x730,Temporal Distance Task,cb_03,37.0,temp_dist_trial,dist_items,qkpkxw,2.0,response,54,1000.8000000000028,1766.6999999999966,1769.9000000089434,1000.8000000000028,1766.6999999999966,1769.9000000089434,1.0,769.1000000089407,0.0,,Slider,Slider,4.0,object-56,temp_dist_trial,37.0,s_sh_12_1,student_shared,binder,3.0,competing,paired,s_sh_12_1.jpg,Student,,,sub-42
Desktop or Laptop,Windows 10,Chrome 138.0.0.0,1536x864,1536x730,Temporal Distance Task,cb_03,38.0,temp_dist_trial,num_items,zn7si1,1.0,response,2_ITEM,1354.300000002986,1350.2000000000114,1354.300000002986,1354.300000002986,1350.2000000000114,1354.300000002986,1.0,0.0,0.0,,Click Response,2_count,5.0,object-49,temp_dist_trial,38.0,s_s_13_1,student_stem,telescope,3.0,unique,paired,s_s_13_1.jpg,Student,,,sub-42
Desktop or Laptop,Windows 10,Chrome 138.0.0.0,1536x864,1536x730,Temporal Distance Task,cb_03,38.0,temp_dist_trial,dist_items,qkpkxw,2.0,info,,6.8000000089377854,0.0,6.8000000089377854,6.8000000089377854,0.0,6.8000000089377854,1.0,0.0,0.0,,Slider,Slider,4.0,object-56,temp_dist_trial,38.0,s_s_13_1,student_stem,telescope,3.0,unique,paired,s_s_13_1.jpg,Student,,,sub-42
Desktop or Laptop,Windows 10,Chrome 138.0.0.0,1536x864,1536x730,Temporal Distance Task,cb_03,38.0,temp_dist_trial,dist_items,qkpkxw,2.0,continue,,1311.6999999999969,1300.0999999999913,1311.6999999999969,1311.6999999999969,1300.0999999999913,1311.6999999999969,1.0,0.0,0.0,,Click To Continue,Next button,7.0,object-60,temp_dist_trial,38.0,s_s_13_1,student_stem,telescope,3.0,unique,paired,s_s_13_1.jpg,Student,,,sub-42
Desktop or Laptop,Windows 10,Chrome 138.0.0.0,1536x864,1536x730,Temporal Distance Task,cb_03,38.0,temp_dist_trial,dist_items,qkpkxw,2.0,response,62,600.0,1300.0999999999913,1316.6999999999825,600.0,1300.0999999999913,1316.6999999999825,1.0,716.6999999999823,0.0,,Slider,Slider,4.0,object-56,temp_dist_trial,38.0,s_s_13_1,student_stem,telescope,3.0,unique,paired,s_s_13_1.jpg,Student,,,sub-42
Desktop or Laptop,Windows 10,Chrome 138.0.0.0,1536x864,1536x730,Temporal Distance Task,cb_03,39.0,temp_dist_trial,num_items,zn7si1,1.0,response,1_ITEM,1415.3999999970254,1400.1000000000058,1415.3999999970254,1415.3999999970254,1400.1000000000058,1415.3999999970254,1.0,0.0,0.0,,Click Response,1_count,3.0,object-46,temp_dist_trial,39.0,s_sh_19_1,student_shared,portable plastic drawer,3.0,competing,single,s_sh_19_1.jpg,Student,,,sub-42
Desktop or Laptop,Windows 10,Chrome 138.0.0.0,1536x864,1536x730,Temporal Distance Task,cb_03,40.0,temp_dist_trial,num_items,zn7si1,1.0,response,2_ITEM,1130.5999999970081,1116.2999999999884,1130.5999999970081,1130.5999999970081,1116.2999999999884,1130.5999999970081,1.0,0.0,0.0,,Click Response,2_count,5.0,object-49,temp_dist_trial,40.0,s_a_09_1,student_art,picture frame,3.0,unique,paired,s_a_09_1.jpg,Student,,,sub-42
Desktop or Laptop,Windows 10,Chrome 138.0.0.0,1536x864,1536x730,Temporal Distance Task,cb_03,40.0,temp_dist_trial,dist_items,qkpkxw,2.0,info,,2.100000005972106,0.0,2.100000005972106,2.100000005972106,0.0,2.100000005972106,1.0,0.0,0.0,,Slider,Slider,4.0,object-56,temp_dist_trial,40.0,s_a_09_1,student_art,picture frame,3.0,unique,paired,s_a_09_1.jpg,Student,,,sub-42
Desktop or Laptop,Windows 10,Chrome 138.0.0.0,1536x864,1536x730,Temporal Distance Task,cb_03,40.0,temp_dist_trial,dist_items,qkpkxw,2.0,continue,,1098.4999999970314,1083.5,1098.4999999970314,1098.4999999970314,1083.5,1098.4999999970314,1.0,0.0,0.0,,Click To Continue,Next button,7.0,object-60,temp_dist_trial,40.0,s_a_09_1,student_art,picture frame,3.0,unique,paired,s_a_09_1.jpg,Student,,,sub-42
Desktop or Laptop,Windows 10,Chrome 138.0.0.0,1536x864,1536x730,Temporal Distance Task,cb_03,40.0,temp_dist_trial,dist_items,qkpkxw,2.0,response,60,433.7000000000117,1083.5,1098.9999999970314,433.7000000000117,1083.5,1098.9999999970314,1.0,665.2999999970198,0.0,,Slider,Slider,4.0,object-56,temp_dist_trial,40.0,s_a_09_1,student_art,picture frame,3.0,unique,paired,s_a_09_1.jpg,Student,,,sub-42
Desktop or Laptop,Windows 10,Chrome 138.0.0.0,1536x864,1536x730,Temporal Distance Task,cb_03,41.0,temp_dist_trial,num_items,zn7si1,1.0,response,1_ITEM,2571.700000000012,2566.9000000000233,2571.700000000012,2571.700000000012,2566.9000000000233,2571.700000000012,1.0,0.0,0.0,,Click Response,1_count,3.0,object-46,temp_dist_trial,41.0,s_sh_22_1,student_shared,hole puncher,3.0,competing,paired,s_sh_22_1.jpg,Student,,,sub-42
Desktop or Laptop,Windows 10,Chrome 138.0.0.0,1536x864,1536x730,Temporal Distance Task,cb_03,42.0,temp_dist_trial,num_items,zn7si1,1.0,response,1_ITEM,1002.2000000000116,999.5,1002.2000000000116,1002.2000000000116,999.5,1002.2000000000116,1.0,0.0,0.0,,Click Response,1_count,3.0,object-46,temp_dist_trial,42.0,s_sh_02_1,student_shared,eraser,3.0,competing,single,s_sh_02_1.jpg,Student,,,sub-42
Desktop or Laptop,Windows 10,Chrome 138.0.0.0,1536x864,1536x730,Temporal Distance Task,cb_03,43.0,temp_dist_trial,num_items,zn7si1,1.0,response,1_ITEM,957.4999999970314,949.9000000000232,957.4999999970314,957.4999999970314,949.9000000000232,957.4999999970314,1.0,0.0,0.0,,Click Response,1_count,3.0,object-46,temp_dist_trial,43.0,s_sh_18_1,student_shared,wall calendar,3.0,competing,paired,s_sh_18_1.jpg,Student,,,sub-42
Desktop or Laptop,Windows 10,Chrome 138.0.0.0,1536x864,1536x730,Temporal Distance Task,cb_03,44.0,temp_dist_trial,num_items,zn7si1,1.0,response,1_ITEM,1353.2999999970198,1349.7999999999886,1353.2999999970198,1353.2999999970198,1349.7999999999886,1353.2999999970198,1.0,0.0,0.0,,Click Response,1_count,3.0,object-46,temp_dist_trial,44.0,s_sh_13_1,student_shared,index cards,3.0,competing,paired,s_sh_13_1.jpg,Student,,,sub-42
Desktop or Laptop,Windows 10,Chrome 138.0.0.0,1536x864,1536x730,Temporal Distance Task,cb_03,45.0,temp_dist_trial,num_items,zn7si1,1.0,response,2_ITEM,1924.2000000089465,1916.8000000000175,1924.2000000089465,1924.2000000089465,1916.8000000000175,1924.2000000089465,1.0,0.0,0.0,,Click Response,2_count,5.0,object-49,temp_dist_trial,45.0,s_sh_24_1,student_shared,desk organizer,3.0,competing,paired,s_sh_24_1.jpg,Student,,,sub-42
Desktop or Laptop,Windows 10,Chrome 138.0.0.0,1536x864,1536x730,Temporal Distance Task,cb_03,45.0,temp_dist_trial,dist_items,qkpkxw,2.0,info,,4.2999999999883585,0.0,4.2999999999883585,4.2999999999883585,0.0,4.2999999999883585,1.0,0.0,0.0,,Slider,Slider,4.0,object-56,temp_dist_trial,45.0,s_sh_24_1,student_shared,desk organizer,3.0,competing,paired,s_sh_24_1.jpg,Student,,,sub-42
Desktop or Laptop,Windows 10,Chrome 138.0.0.0,1536x864,1536x730,Temporal Distance Task,cb_03,45.0,temp_dist_trial,dist_items,qkpkxw,2.0,continue,,1324.5000000029684,1316.6999999999825,1324.5000000029684,1324.5000000029684,1316.6999999999825,1324.5000000029684,1.0,0.0,0.0,,Click To Continue,Next button,7.0,object-60,temp_dist_trial,45.0,s_sh_24_1,student_shared,desk organizer,3.0,competing,paired,s_sh_24_1.jpg,Student,,,sub-42
Desktop or Laptop,Windows 10,Chrome 138.0.0.0,1536x864,1536x730,Temporal Distance Task,cb_03,45.0,temp_dist_trial,dist_items,qkpkxw,2.0,response,55,600.2999999999884,1316.6999999999825,1325.2000000059488,600.2999999999884,1316.6999999999825,1325.2000000059488,1.0,724.9000000059607,0.0,,Slider,Slider,4.0,object-56,temp_dist_trial,45.0,s_sh_24_1,student_shared,desk organizer,3.0,competing,paired,s_sh_24_1.jpg,Student,,,sub-42
Desktop or Laptop,Windows 10,Chrome 138.0.0.0,1536x864,1536x730,Temporal Distance Task,cb_03,46.0,temp_dist_trial,num_items,zn7si1,1.0,response,2_ITEM,1395.3999999970254,1383.3999999999942,1395.3999999970254,1395.3999999970254,1383.3999999999942,1395.3999999970254,1.0,0.0,0.0,,Click Response,2_count,5.0,object-49,temp_dist_trial,46.0,s_sh_07_1,student_shared,ruler,3.0,competing,single,s_sh_07_1.jpg,Student,,,sub-42
Desktop or Laptop,Windows 10,Chrome 138.0.0.0,1536x864,1536x730,Temporal Distance Task,cb_03,46.0,temp_dist_trial,dist_items,qkpkxw,2.0,info,,6.9000000029918755,0.0,6.9000000029918755,6.9000000029918755,0.0,6.9000000029918755,1.0,0.0,0.0,,Slider,Slider,4.0,object-56,temp_dist_trial,46.0,s_sh_07_1,student_shared,ruler,3.0,competing,single,s_sh_07_1.jpg,Student,,,sub-42
Desktop or Laptop,Windows 10,Chrome 138.0.0.0,1536x864,1536x730,Temporal Distance Task,cb_03,46.0,temp_dist_trial,dist_items,qkpkxw,2.0,continue,,1239.8000000089526,1233.4000000000233,1239.8000000089526,1239.8000000089526,1233.4000000000233,1239.8000000089526,1.0,0.0,0.0,,Click To Continue,Next button,7.0,object-60,temp_dist_trial,46.0,s_sh_07_1,student_shared,ruler,3.0,competing,single,s_sh_07_1.jpg,Student,,,sub-42
Desktop or Laptop,Windows 10,Chrome 138.0.0.0,1536x864,1536x730,Temporal Distance Task,cb_03,46.0,temp_dist_trial,dist_items,qkpkxw,2.0,response,57,633.5,1233.4000000000233,1240.4999999970316,633.5,1233.4000000000233,1240.4999999970316,1.0,606.9999999970314,0.0,,Slider,Slider,4.0,object-56,temp_dist_trial,46.0,s_sh_07_1,student_shared,ruler,3.0,competing,single,s_sh_07_1.jpg,Student,,,sub-42
Desktop or Laptop,Windows 10,Chrome 138.0.0.0,1536x864,1536x730,Temporal Distance Task,cb_03,47.0,temp_dist_trial,num_items,zn7si1,1.0,response,2_ITEM,1078.7999999999884,1066.6999999999823,1078.7999999999884,1078.7999999999884,1066.6999999999823,1078.7999999999884,1.0,0.0,0.0,,Click Response,2_count,5.0,object-49,temp_dist_trial,47.0,s_sh_17_1,student_shared,wireless mouse,3.0,competing,paired,s_sh_17_1.jpg,Student,,,sub-42
Desktop or Laptop,Windows 10,Chrome 138.0.0.0,1536x864,1536x730,Temporal Distance Task,cb_03,47.0,temp_dist_trial,dist_items,qkpkxw,2.0,info,,2.2999999999883585,0.0,2.2999999999883585,2.2999999999883585,0.0,2.2999999999883585,1.0,0.0,0.0,,Slider,Slider,4.0,object-56,temp_dist_trial,47.0,s_sh_17_1,student_shared,wireless mouse,3.0,competing,paired,s_sh_17_1.jpg,Student,,,sub-42
Desktop or Laptop,Windows 10,Chrome 138.0.0.0,1536x864,1536x730,Temporal Distance Task,cb_03,47.0,temp_dist_trial,dist_items,qkpkxw,2.0,continue,,1188.0999999970081,1183.6999999999825,1188.0999999970081,1188.0999999970081,1183.6999999999825,1188.0999999970081,1.0,0.0,0.0,,Click To Continue,Next button,7.0,object-60,temp_dist_trial,47.0,s_sh_17_1,student_shared,wireless mouse,3.0,competing,paired,s_sh_17_1.jpg,Student,,,sub-42
Desktop or Laptop,Windows 10,Chrome 138.0.0.0,1536x864,1536x730,Temporal Distance Task,cb_03,47.0,temp_dist_trial,dist_items,qkpkxw,2.0,response,49,666.7999999999884,1183.6999999999825,1189.2000000059488,666.7999999999884,1183.6999999999825,1189.2000000059488,1.0,522.4000000059605,0.0,,Slider,Slider,4.0,object-56,temp_dist_trial,47.0,s_sh_17_1,student_shared,wireless mouse,3.0,competing,paired,s_sh_17_1.jpg,Student,,,sub-42
Desktop or Laptop,Windows 10,Chrome 138.0.0.0,1536x864,1536x730,Temporal Distance Task,cb_03,48.0,temp_dist_trial,num_items,zn7si1,1.0,response,1_ITEM,1990.5000000059665,1983.3000000000175,1990.5000000059665,1990.5000000059665,1983.3000000000175,1990.5000000059665,1.0,0.0,0.0,,Click Response,1_count,3.0,object-46,temp_dist_trial,48.0,s_sh_05_1,student_shared,laptop,3.0,competing,single,s_sh_05_1.jpg,Student,,,sub-42
Desktop or Laptop,Windows 10,Chrome 138.0.0.0,1536x864,1536x730,Temporal Distance Task,cb_03,2.0,temp_eventStart,Screen 1,dgtyxe,1.0,continue,,1405.2000000029807,1399.8999999999942,1405.2000000029807,1405.2000000029807,1399.8999999999942,1405.2000000029807,1.0,0.0,0.0,,Click To Continue,Next Button,3.0,object-43,temp_eventStart,,,Travel,,,,,,,,,sub-42
Desktop or Laptop,Windows 10,Chrome 138.0.0.0,1536x864,1536x730,Temporal Distance Task,cb_03,49.0,temp_dist_trial,num_items,zn7si1,1.0,response,2_ITEM,1072.6000000000058,1066.8999999999942,1072.6000000000058,1072.6000000000058,1066.8999999999942,1072.6000000000058,1.0,0.0,0.0,,Click Response,2_count,5.0,object-49,temp_dist_trial,1.0,t_s_14_1,travel_shared,hand sanitizer,3.0,competing,paired,t_s_14_1.jpg,Travel,,,sub-42
Desktop or Laptop,Windows 10,Chrome 138.0.0.0,1536x864,1536x730,Temporal Distance Task,cb_03,49.0,temp_dist_trial,dist_items,qkpkxw,2.0,info,,9.299999997019768,0.0,9.299999997019768,9.299999997019768,0.0,9.299999997019768,1.0,0.0,0.0,,Slider,Slider,4.0,object-56,temp_dist_trial,1.0,t_s_14_1,travel_shared,hand sanitizer,3.0,competing,paired,t_s_14_1.jpg,Travel,,,sub-42
Desktop or Laptop,Windows 10,Chrome 138.0.0.0,1536x864,1536x730,Temporal Distance Task,cb_03,49.0,temp_dist_trial,dist_items,qkpkxw,2.0,continue,,1434.2999999970193,1432.8999999999942,1434.2999999970193,1434.2999999970193,1432.8999999999942,1434.2999999970193,1.0,0.0,0.0,,Click To Continue,Next button,7.0,object-60,temp_dist_trial,1.0,t_s_14_1,travel_shared,hand sanitizer,3.0,competing,paired,t_s_14_1.jpg,Travel,,,sub-42
Desktop or Laptop,Windows 10,Chrome 138.0.0.0,1536x864,1536x730,Temporal Distance Task,cb_03,49.0,temp_dist_trial,dist_items,qkpkxw,2.0,response,56,716.5,1432.8999999999942,1434.7999999970193,716.5,1432.8999999999942,1434.7999999970193,1.0,718.2999999970198,0.0,,Slider,Slider,4.0,object-56,temp_dist_trial,1.0,t_s_14_1,travel_shared,hand sanitizer,3.0,competing,paired,t_s_14_1.jpg,Travel,,,sub-42
Desktop or Laptop,Windows 10,Chrome 138.0.0.0,1536x864,1536x730,Temporal Distance Task,cb_03,50.0,temp_dist_trial,num_items,zn7si1,1.0,response,2_ITEM,1092.0000000059663,1083.3000000000177,1092.0000000059663,1092.0000000059663,1083.3000000000177,1092.0000000059663,1.0,0.0,0.0,,Click Response,2_count,5.0,object-49,temp_dist_trial,2.0,t_s_01_1,travel_shared,fanny pack,3.0,competing,paired,t_s_01_1.jpg,Travel,,,sub-42
Desktop or Laptop,Windows 10,Chrome 138.0.0.0,1536x864,1536x730,Temporal Distance Task,cb_03,50.0,temp_dist_trial,dist_items,qkpkxw,2.0,info,,7.50000000296859,0.0,7.50000000296859,7.50000000296859,0.0,7.50000000296859,1.0,0.0,0.0,,Slider,Slider,4.0,object-56,temp_dist_trial,2.0,t_s_01_1,travel_shared,fanny pack,3.0,competing,paired,t_s_01_1.jpg,Travel,,,sub-42
Desktop or Laptop,Windows 10,Chrome 138.0.0.0,1536x864,1536x730,Temporal Distance Task,cb_03,50.0,temp_dist_trial,dist_items,qkpkxw,2.0,continue,,1271.7999999999886,1266.7999999999886,1271.7999999999886,1271.7999999999886,1266.7999999999886,1271.7999999999886,1.0,0.0,0.0,,Click To Continue,Next button,7.0,object-60,temp_dist_trial,2.0,t_s_01_1,travel_shared,fanny pack,3.0,competing,paired,t_s_01_1.jpg,Travel,,,sub-42
Desktop or Laptop,Windows 10,Chrome 138.0.0.0,1536x864,1536x730,Temporal Distance Task,cb_03,50.0,temp_dist_trial,dist_items,qkpkxw,2.0,response,58,633.3999999999943,1266.7999999999886,1272.7999999999886,633.3999999999943,1266.7999999999886,1272.7999999999886,1.0,639.3999999999943,0.0,,Slider,Slider,4.0,object-56,temp_dist_trial,2.0,t_s_01_1,travel_shared,fanny pack,3.0,competing,paired,t_s_01_1.jpg,Travel,,,sub-42
Desktop or Laptop,Windows 10,Chrome 138.0.0.0,1536x864,1536x730,Temporal Distance Task,cb_03,51.0,temp_dist_trial,num_items,zn7si1,1.0,response,1_ITEM,1322.7999999970198,1316.3999999999942,1322.7999999970198,1322.7999999970198,1316.3999999999942,1322.7999999970198,1.0,0.0,0.0,,Click Response,1_count,3.0,object-46,temp_dist_trial,3.0,t_m_16_1,travel_Miami,flippers,3.0,unique,single,t_m_16_1.jpg,Travel,,,sub-42
Desktop or Laptop,Windows 10,Chrome 138.0.0.0,1536x864,1536x730,Temporal Distance Task,cb_03,52.0,temp_dist_trial,num_items,zn7si1,1.0,response,2_ITEM,1326.9000000059605,1316.7999999999886,1326.9000000059605,1326.9000000059605,1316.7999999999886,1326.9000000059605,1.0,0.0,0.0,,Click Response,2_count,5.0,object-49,temp_dist_trial,4.0,t_s_06_1,travel_shared,luggage,3.0,competing,paired,t_s_06_1.jpg,Travel,,,sub-42
Desktop or Laptop,Windows 10,Chrome 138.0.0.0,1536x864,1536x730,Temporal Distance Task,cb_03,52.0,temp_dist_trial,dist_items,qkpkxw,2.0,info,,5.199999997013947,0.0,5.199999997013947,5.199999997013947,0.0,5.199999997013947,1.0,0.0,0.0,,Slider,Slider,4.0,object-56,temp_dist_trial,4.0,t_s_06_1,travel_shared,luggage,3.0,competing,paired,t_s_06_1.jpg,Travel,,,sub-42
Desktop or Laptop,Windows 10,Chrome 138.0.0.0,1536x864,1536x730,Temporal Distance Task,cb_03,52.0,temp_dist_trial,dist_items,qkpkxw,2.0,continue,,1287.8999999999942,1283.1999999999825,1287.8999999999942,1287.8999999999942,1283.1999999999825,1287.8999999999942,1.0,0.0,0.0,,Click To Continue,Next button,7.0,object-60,temp_dist_trial,4.0,t_s_06_1,travel_shared,luggage,3.0,competing,paired,t_s_06_1.jpg,Travel,,,sub-42
Desktop or Laptop,Windows 10,Chrome 138.0.0.0,1536x864,1536x730,Temporal Distance Task,cb_03,52.0,temp_dist_trial,dist_items,qkpkxw,2.0,response,46,550.1999999999825,1283.1999999999825,1288.199999997014,550.1999999999825,1283.1999999999825,1288.199999997014,1.0,737.9999999970314,0.0,,Slider,Slider,4.0,object-56,temp_dist_trial,4.0,t_s_06_1,travel_shared,luggage,3.0,competing,paired,t_s_06_1.jpg,Travel,,,sub-42
Desktop or Laptop,Windows 10,Chrome 138.0.0.0,1536x864,1536x730,Temporal Distance Task,cb_03,53.0,temp_dist_trial,num_items,zn7si1,1.0,response,1_ITEM,1423.9000000029919,1417.0,1423.9000000029919,1423.9000000029919,1417.0,1423.9000000029919,1.0,0.0,0.0,,Click Response,1_count,3.0,object-46,temp_dist_trial,5.0,t_i_19_1,travel_Iceland,rope,3.0,unique,single,t_i_19_1.jpg,Travel,,,sub-42
Desktop or Laptop,Windows 10,Chrome 138.0.0.0,1536x864,1536x730,Temporal Distance Task,cb_03,54.0,temp_dist_trial,num_items,zn7si1,1.0,response,2_ITEM,1089.8999999999942,1083.1999999999823,1089.8999999999942,1089.8999999999942,1083.1999999999823,1089.8999999999942,1.0,0.0,0.0,,Click Response,2_count,5.0,object-49,temp_dist_trial,6.0,t_s_19_1,travel_shared,pajamas,3.0,competing,paired,t_s_19_1.jpg,Travel,,,sub-42
Desktop or Laptop,Windows 10,Chrome 138.0.0.0,1536x864,1536x730,Temporal Distance Task,cb_03,54.0,temp_dist_trial,dist_items,qkpkxw,2.0,info,,8.200000008946517,0.0,8.200000008946517,8.200000008946517,0.0,8.200000008946517,1.0,0.0,0.0,,Slider,Slider,4.0,object-56,temp_dist_trial,6.0,t_s_19_1,travel_shared,pajamas,3.0,competing,paired,t_s_19_1.jpg,Travel,,,sub-42
Desktop or Laptop,Windows 10,Chrome 138.0.0.0,1536x864,1536x730,Temporal Distance Task,cb_03,54.0,temp_dist_trial,dist_items,qkpkxw,2.0,continue,,1791.7000000089465,1783.3999999999942,1791.7000000089465,1791.7000000089465,1783.3999999999942,1791.7000000089465,1.0,0.0,0.0,,Click To Continue,Next button,7.0,object-60,temp_dist_trial,6.0,t_s_19_1,travel_shared,pajamas,3.0,competing,paired,t_s_19_1.jpg,Travel,,,sub-42
Desktop or Laptop,Windows 10,Chrome 138.0.0.0,1536x864,1536x730,Temporal Distance Task,cb_03,54.0,temp_dist_trial,dist_items,qkpkxw,2.0,response,50,1266.6000000000058,1783.3999999999942,1792.5000000059665,1266.6000000000058,1783.3999999999942,1792.5000000059665,1.0,525.9000000059605,0.0,,Slider,Slider,4.0,object-56,temp_dist_trial,6.0,t_s_19_1,travel_shared,pajamas,3.0,competing,paired,t_s_19_1.jpg,Travel,,,sub-42
Desktop or Laptop,Windows 10,Chrome 138.0.0.0,1536x864,1536x730,Temporal Distance Task,cb_03,55.0,temp_dist_trial,num_items,zn7si1,1.0,response,1_ITEM,1425.4999999970316,1416.8000000000175,1425.4999999970316,1425.4999999970316,1416.8000000000175,1425.4999999970316,1.0,0.0,0.0,,Click Response,1_count,3.0,object-46,temp_dist_trial,7.0,t_s_17_1,travel_shared,toothbrush,3.0,competing,single,t_s_17_1.jpg,Travel,,,sub-42
Desktop or Laptop,Windows 10,Chrome 138.0.0.0,1536x864,1536x730,Temporal Distance Task,cb_03,56.0,temp_dist_trial,num_items,zn7si1,1.0,response,1_ITEM,1571.3999999999942,1566.1999999999825,1571.3999999999942,1571.3999999999942,1566.1999999999825,1571.3999999999942,1.0,0.0,0.0,,Click Response,1_count,3.0,object-46,temp_dist_trial,8.0,t_s_11_1,travel_shared,eye mask,3.0,competing,single,t_s_11_1.jpg,Travel,,,sub-42
Desktop or Laptop,Windows 10,Chrome 138.0.0.0,1536x864,1536x730,Temporal Distance Task,cb_03,57.0,temp_dist_trial,num_items,zn7si1,1.0,response,1_ITEM,875.099999997008,866.5999999999768,875.099999997008,875.099999997008,866.5999999999768,875.099999997008,1.0,0.0,0.0,,Click Response,1_count,3.0,object-46,temp_dist_trial,9.0,t_s_23_1,travel_shared,ball cap,3.0,competing,paired,t_s_23_1.jpg,Travel,,,sub-42
Desktop or Laptop,Windows 10,Chrome 138.0.0.0,1536x864,1536x730,Temporal Distance Task,cb_03,58.0,temp_dist_trial,num_items,zn7si1,1.0,response,2_ITEM,1393.1000000000058,1383.3999999999942,1393.1000000000058,1393.1000000000058,1383.3999999999942,1393.1000000000058,1.0,0.0,0.0,,Click Response,2_count,5.0,object-49,temp_dist_trial,10.0,t_s_13_1,travel_shared,contact lens case,3.0,competing,paired,t_s_13_1.jpg,Travel,,,sub-42
Desktop or Laptop,Windows 10,Chrome 138.0.0.0,1536x864,1536x730,Temporal Distance Task,cb_03,58.0,temp_dist_trial,dist_items,qkpkxw,2.0,info,,9.50000000296859,0.0,9.50000000296859,9.50000000296859,0.0,9.50000000296859,1.0,0.0,0.0,,Slider,Slider,4.0,object-56,temp_dist_trial,10.0,t_s_13_1,travel_shared,contact lens case,3.0,competing,paired,t_s_13_1.jpg,Travel,,,sub-42
Desktop or Laptop,Windows 10,Chrome 138.0.0.0,1536x864,1536x730,Temporal Distance Task,cb_03,58.0,temp_dist_trial,dist_items,qkpkxw,2.0,continue,,1725.0000000029684,1716.6999999999825,1725.0000000029684,1725.0000000029684,1716.6999999999825,1725.0000000029684,1.0,0.0,0.0,,Click To Continue,Next button,7.0,object-60,temp_dist_trial,10.0,t_s_13_1,travel_shared,contact lens case,3.0,competing,paired,t_s_13_1.jpg,Travel,,,sub-42
Desktop or Laptop,Windows 10,Chrome 138.0.0.0,1536x864,1536x730,Temporal Distance Task,cb_03,58.0,temp_dist_trial,dist_items,qkpkxw,2.0,response,73,749.5999999999768,1716.6999999999825,1725.400000008929,749.5999999999768,1716.6999999999825,1725.400000008929,1.0,975.8000000089523,0.0,,Slider,Slider,4.0,object-56,temp_dist_trial,10.0,t_s_13_1,travel_shared,contact lens case,3.0,competing,paired,t_s_13_1.jpg,Travel,,,sub-42
Desktop or Laptop,Windows 10,Chrome 138.0.0.0,1536x864,1536x730,Temporal Distance Task,cb_03,59.0,temp_dist_trial,num_items,zn7si1,1.0,response,2_ITEM,1403.5000000059665,1399.6000000000058,1403.5000000059665,1403.5000000059665,1399.6000000000058,1403.5000000059665,1.0,0.0,0.0,,Click Response,2_count,5.0,object-49,temp_dist_trial,11.0,t_m_04_1,travel_Miami,UV jacket,3.0,unique,paired,t_m_04_1.jpg,Travel,,,sub-42
Desktop or Laptop,Windows 10,Chrome 138.0.0.0,1536x864,1536x730,Temporal Distance Task,cb_03,59.0,temp_dist_trial,dist_items,qkpkxw,2.0,info,,7.200000002980232,0.0,7.200000002980232,7.200000002980232,0.0,7.200000002980232,1.0,0.0,0.0,,Slider,Slider,4.0,object-56,temp_dist_trial,11.0,t_m_04_1,travel_Miami,UV jacket,3.0,unique,paired,t_m_04_1.jpg,Travel,,,sub-42
Desktop or Laptop,Windows 10,Chrome 138.0.0.0,1536x864,1536x730,Temporal Distance Task,cb_03,59.0,temp_dist_trial,dist_items,qkpkxw,2.0,continue,,1765.2999999970193,1750.1000000000058,1765.2999999970193,1765.2999999970193,1750.1000000000058,1765.2999999970193,1.0,0.0,0.0,,Click To Continue,Next button,7.0,object-60,temp_dist_trial,11.0,t_m_04_1,travel_Miami,UV jacket,3.0,unique,paired,t_m_04_1.jpg,Travel,,,sub-42
Desktop or Laptop,Windows 10,Chrome 138.0.0.0,1536x864,1536x730,Temporal Distance Task,cb_03,59.0,temp_dist_trial,dist_items,qkpkxw,2.0,response,41,666.7000000000116,1750.1000000000058,1765.7999999970193,666.7000000000116,1750.1000000000058,1765.7999999970193,1.0,1099.0999999970081,0.0,,Slider,Slider,4.0,object-56,temp_dist_trial,11.0,t_m_04_1,travel_Miami,UV jacket,3.0,unique,paired,t_m_04_1.jpg,Travel,,,sub-42
Desktop or Laptop,Windows 10,Chrome 138.0.0.0,1536x864,1536x730,Temporal Distance Task,cb_03,60.0,temp_dist_trial,num_items,zn7si1,1.0,response,1_ITEM,1461.5000000089346,1449.8999999999942,1461.5000000089346,1461.5000000089346,1449.8999999999942,1461.5000000089346,1.0,0.0,0.0,,Click Response,1_count,3.0,object-46,temp_dist_trial,12.0,t_s_08_1,travel_shared,hand lotion,3.0,competing,single,t_s_08_1.jpg,Travel,,,sub-42
Desktop or Laptop,Windows 10,Chrome 138.0.0.0,1536x864,1536x730,Temporal Distance Task,cb_03,61.0,temp_dist_trial,num_items,zn7si1,1.0,response,1_ITEM,1665.900000008929,1650.0,1665.900000008929,1665.900000008929,1650.0,1665.900000008929,1.0,0.0,0.0,,Click Response,1_count,3.0,object-46,temp_dist_trial,13.0,t_m_15_1,travel_Miami,shorts,3.0,unique,single,t_m_15_1.jpg,Travel,,,sub-42
Desktop or Laptop,Windows 10,Chrome 138.0.0.0,1536x864,1536x730,Temporal Distance Task,cb_03,62.0,temp_dist_trial,num_items,zn7si1,1.0,response,1_ITEM,956.6000000000058,949.8000000000177,956.6000000000058,956.6000000000058,949.8000000000177,956.6000000000058,1.0,0.0,0.0,,Click Response,1_count,3.0,object-46,temp_dist_trial,14.0,t_s_22_1,travel_shared,belt,3.0,competing,single,t_s_22_1.jpg,Travel,,,sub-42
Desktop or Laptop,Windows 10,Chrome 138.0.0.0,1536x864,1536x730,Temporal Distance Task,cb_03,63.0,temp_dist_trial,num_items,zn7si1,1.0,response,1_ITEM,950.4000000000232,933.5,950.4000000000232,950.4000000000232,933.5,950.4000000000232,1.0,0.0,0.0,,Click Response,1_count,3.0,object-46,temp_dist_trial,15.0,t_m_01_1,travel_Miami,sandals,3.0,unique,paired,t_m_01_1.jpg,Travel,,,sub-42
Desktop or Laptop,Windows 10,Chrome 138.0.0.0,1536x864,1536x730,Temporal Distance Task,cb_03,64.0,temp_dist_trial,num_items,zn7si1,1.0,response,2_ITEM,1071.199999997014,1066.1999999999823,1071.199999997014,1071.199999997014,1066.1999999999823,1071.199999997014,1.0,0.0,0.0,,Click Response,2_count,5.0,object-49,temp_dist_trial,16.0,t_s_15_1,travel_shared,luggage tag,3.0,competing,paired,t_s_15_1.jpg,Travel,,,sub-42
Desktop or Laptop,Windows 10,Chrome 138.0.0.0,1536x864,1536x730,Temporal Distance Task,cb_03,64.0,temp_dist_trial,dist_items,qkpkxw,2.0,info,,9.700000008946516,0.0,9.700000008946516,9.700000008946516,0.0,9.700000008946516,1.0,0.0,0.0,,Slider,Slider,4.0,object-56,temp_dist_trial,16.0,t_s_15_1,travel_shared,luggage tag,3.0,competing,paired,t_s_15_1.jpg,Travel,,,sub-42
Desktop or Laptop,Windows 10,Chrome 138.0.0.0,1536x864,1536x730,Temporal Distance Task,cb_03,64.0,temp_dist_trial,dist_items,qkpkxw,2.0,continue,,1548.7000000089465,1533.6000000000058,1548.7000000089465,1548.7000000089465,1533.6000000000058,1548.7000000089465,1.0,0.0,0.0,,Click To Continue,Next button,7.0,object-60,temp_dist_trial,16.0,t_s_15_1,travel_shared,luggage tag,3.0,competing,paired,t_s_15_1.jpg,Travel,,,sub-42
Desktop or Laptop,Windows 10,Chrome 138.0.0.0,1536x864,1536x730,Temporal Distance Task,cb_03,64.0,temp_dist_trial,dist_items,qkpkxw,2.0,response,63,666.8999999999943,1533.6000000000058,1549.300000002986,666.8999999999943,1533.6000000000058,1549.300000002986,1.0,882.400000002992,0.0,,Slider,Slider,4.0,object-56,temp_dist_trial,16.0,t_s_15_1,travel_shared,luggage tag,3.0,competing,paired,t_s_15_1.jpg,Travel,,,sub-42
Desktop or Laptop,Windows 10,Chrome 138.0.0.0,1536x864,1536x730,Temporal Distance Task,cb_03,65.0,temp_dist_trial,num_items,zn7si1,1.0,response,1_ITEM,1201.9000000059605,1199.6000000000058,1201.9000000059605,1201.9000000059605,1199.6000000000058,1201.9000000059605,1.0,0.0,0.0,,Click Response,1_count,3.0,object-46,temp_dist_trial,17.0,t_s_20_1,travel_shared,travel pill case,3.0,competing,single,t_s_20_1.jpg,Travel,,,sub-42
Desktop or Laptop,Windows 10,Chrome 138.0.0.0,1536x864,1536x730,Temporal Distance Task,cb_03,66.0,temp_dist_trial,num_items,zn7si1,1.0,response,1_ITEM,1249.7999999999886,1233.0,1249.7999999999886,1249.7999999999886,1233.0,1249.7999999999886,1.0,0.0,0.0,,Click Response,1_count,3.0,object-46,temp_dist_trial,18.0,t_i_15_1,travel_Iceland,compass,3.0,unique,paired,t_i_15_1.jpg,Travel,,,sub-42
Desktop or Laptop,Windows 10,Chrome 138.0.0.0,1536x864,1536x730,Temporal Distance Task,cb_03,67.0,temp_dist_trial,num_items,zn7si1,1.0,response,1_ITEM,2083.5,2066.6000000000063,2083.5,2083.5,2066.6000000000063,2083.5,1.0,0.0,0.0,,Click Response,1_count,3.0,object-46,temp_dist_trial,19.0,t_m_10_1,travel_Miami,tanktop,3.0,unique,paired,t_m_10_1.jpg,Travel,,,sub-42
Desktop or Laptop,Windows 10,Chrome 138.0.0.0,1536x864,1536x730,Temporal Distance Task,cb_03,68.0,temp_dist_trial,num_items,zn7si1,1.0,response,2_ITEM,1073.2000000029802,1066.7999999999884,1073.2000000029802,1073.2000000029802,1066.7999999999884,1073.2000000029802,1.0,0.0,0.0,,Click Response,2_count,5.0,object-49,temp_dist_trial,20.0,t_m_17_1,travel_Miami,water gun,3.0,unique,paired,t_m_17_1.jpg,Travel,,,sub-42
Desktop or Laptop,Windows 10,Chrome 138.0.0.0,1536x864,1536x730,Temporal Distance Task,cb_03,68.0,temp_dist_trial,dist_items,qkpkxw,2.0,info,,7.49999999703141,0.0,7.49999999703141,7.49999999703141,0.0,7.49999999703141,1.0,0.0,0.0,,Slider,Slider,4.0,object-56,temp_dist_trial,20.0,t_m_17_1,travel_Miami,water gun,3.0,unique,paired,t_m_17_1.jpg,Travel,,,sub-42
Desktop or Laptop,Windows 10,Chrome 138.0.0.0,1536x864,1536x730,Temporal Distance Task,cb_03,68.0,temp_dist_trial,dist_items,qkpkxw,2.0,continue,,1593.7000000000116,1583.5,1593.7000000000116,1593.7000000000116,1583.5,1593.7000000000116,1.0,0.0,0.0,,Click To Continue,Next button,7.0,object-60,temp_dist_trial,20.0,t_m_17_1,travel_Miami,water gun,3.0,unique,paired,t_m_17_1.jpg,Travel,,,sub-42
Desktop or Laptop,Windows 10,Chrome 138.0.0.0,1536x864,1536x730,Temporal Distance Task,cb_03,68.0,temp_dist_trial,dist_items,qkpkxw,2.0,response,81,783.3000000000177,1583.5,1594.2000000000116,783.3000000000177,1583.5,1594.2000000000116,1.0,810.8999999999942,0.0,,Slider,Slider,4.0,object-56,temp_dist_trial,20.0,t_m_17_1,travel_Miami,water gun,3.0,unique,paired,t_m_17_1.jpg,Travel,,,sub-42
Desktop or Laptop,Windows 10,Chrome 138.0.0.0,1536x864,1536x730,Temporal Distance Task,cb_03,69.0,temp_dist_trial,num_items,zn7si1,1.0,response,2_ITEM,1330.9000000029919,1316.9000000000233,1330.9000000029919,1330.9000000029919,1316.9000000000233,1330.9000000029919,1.0,0.0,0.0,,Click Response,2_count,5.0,object-49,temp_dist_trial,21.0,t_s_16_1,travel_shared,chapstick,3.0,competing,paired,t_s_16_1.jpg,Travel,,,sub-42
Desktop or Laptop,Windows 10,Chrome 138.0.0.0,1536x864,1536x730,Temporal Distance Task,cb_03,69.0,temp_dist_trial,dist_items,qkpkxw,2.0,info,,3.8000000059546433,0.0,3.8000000059546433,3.8000000059546433,0.0,3.8000000059546433,1.0,0.0,0.0,,Slider,Slider,4.0,object-56,temp_dist_trial,21.0,t_s_16_1,travel_shared,chapstick,3.0,competing,paired,t_s_16_1.jpg,Travel,,,sub-42
Desktop or Laptop,Windows 10,Chrome 138.0.0.0,1536x864,1536x730,Temporal Distance Task,cb_03,69.0,temp_dist_trial,dist_items,qkpkxw,2.0,continue,,1765.8999999999942,1750.1000000000058,1765.8999999999942,1765.8999999999942,1750.1000000000058,1765.8999999999942,1.0,0.0,0.0,,Click To Continue,Next button,7.0,object-60,temp_dist_trial,21.0,t_s_16_1,travel_shared,chapstick,3.0,competing,paired,t_s_16_1.jpg,Travel,,,sub-42
Desktop or Laptop,Windows 10,Chrome 138.0.0.0,1536x864,1536x730,Temporal Distance Task,cb_03,69.0,temp_dist_trial,dist_items,qkpkxw,2.0,response,68,900.1999999999823,1750.1000000000058,1766.199999997014,900.1999999999823,1750.1000000000058,1766.199999997014,1.0,865.9999999970314,0.0,,Slider,Slider,4.0,object-56,temp_dist_trial,21.0,t_s_16_1,travel_shared,chapstick,3.0,competing,paired,t_s_16_1.jpg,Travel,,,sub-42
Desktop or Laptop,Windows 10,Chrome 138.0.0.0,1536x864,1536x730,Temporal Distance Task,cb_03,70.0,temp_dist_trial,num_items,zn7si1,1.0,response,2_ITEM,1231.400000008929,1216.6999999999825,1231.400000008929,1231.400000008929,1216.6999999999825,1231.400000008929,1.0,0.0,0.0,,Click Response,2_count,5.0,object-49,temp_dist_trial,22.0,t_i_09_1,travel_Iceland,ear muffs,3.0,unique,paired,t_i_09_1.jpg,Travel,,,sub-42
Desktop or Laptop,Windows 10,Chrome 138.0.0.0,1536x864,1536x730,Temporal Distance Task,cb_03,70.0,temp_dist_trial,dist_items,qkpkxw,2.0,info,,3.4000000029918738,0.0,3.4000000029918738,3.4000000029918738,0.0,3.4000000029918738,1.0,0.0,0.0,,Slider,Slider,4.0,object-56,temp_dist_trial,22.0,t_i_09_1,travel_Iceland,ear muffs,3.0,unique,paired,t_i_09_1.jpg,Travel,,,sub-42
Desktop or Laptop,Windows 10,Chrome 138.0.0.0,1536x864,1536x730,Temporal Distance Task,cb_03,70.0,temp_dist_trial,dist_items,qkpkxw,2.0,continue,,1644.9999999970316,1633.2000000000116,1644.9999999970316,1644.9999999970316,1633.2000000000116,1644.9999999970316,1.0,0.0,0.0,,Click To Continue,Next button,7.0,object-60,temp_dist_trial,22.0,t_i_09_1,travel_Iceland,ear muffs,3.0,unique,paired,t_i_09_1.jpg,Travel,,,sub-42
Desktop or Laptop,Windows 10,Chrome 138.0.0.0,1536x864,1536x730,Temporal Distance Task,cb_03,70.0,temp_dist_trial,dist_items,qkpkxw,2.0,response,38,616.6000000000057,1633.2000000000116,1645.3000000089526,616.6000000000057,1633.2000000000116,1645.3000000089526,1.0,1028.7000000089463,0.0,,Slider,Slider,4.0,object-56,temp_dist_trial,22.0,t_i_09_1,travel_Iceland,ear muffs,3.0,unique,paired,t_i_09_1.jpg,Travel,,,sub-42
Desktop or Laptop,Windows 10,Chrome 138.0.0.0,1536x864,1536x730,Temporal Distance Task,cb_03,71.0,temp_dist_trial,num_items,zn7si1,1.0,response,2_ITEM,1620.2999999970193,1617.2000000000116,1620.2999999970193,1620.2999999970193,1617.2000000000116,1620.2999999970193,1.0,0.0,0.0,,Click Response,2_count,5.0,object-49,temp_dist_trial,23.0,t_s_24_1,travel_shared,ear plugs,3.0,competing,paired,t_s_24_1.jpg,Travel,,,sub-42
Desktop or Laptop,Windows 10,Chrome 138.0.0.0,1536x864,1536x730,Temporal Distance Task,cb_03,71.0,temp_dist_trial,dist_items,qkpkxw,2.0,info,,1.9999999970314093,0.0,1.9999999970314093,1.9999999970314093,0.0,1.9999999970314093,1.0,0.0,0.0,,Slider,Slider,4.0,object-56,temp_dist_trial,23.0,t_s_24_1,travel_shared,ear plugs,3.0,competing,paired,t_s_24_1.jpg,Travel,,,sub-42
Desktop or Laptop,Windows 10,Chrome 138.0.0.0,1536x864,1536x730,Temporal Distance Task,cb_03,71.0,temp_dist_trial,dist_items,qkpkxw,2.0,continue,,1559.4999999970316,1549.9000000000233,1559.4999999970316,1559.4999999970316,1549.9000000000233,1559.4999999970316,1.0,0.0,0.0,,Click To Continue,Next button,7.0,object-60,temp_dist_trial,23.0,t_s_24_1,travel_shared,ear plugs,3.0,competing,paired,t_s_24_1.jpg,Travel,,,sub-42
Desktop or Laptop,Windows 10,Chrome 138.0.0.0,1536x864,1536x730,Temporal Distance Task,cb_03,71.0,temp_dist_trial,dist_items,qkpkxw,2.0,response,88,600.1000000000057,1549.9000000000233,1560.1000000059719,600.1000000000057,1549.9000000000233,1560.1000000059719,1.0,960.0000000059663,0.0,,Slider,Slider,4.0,object-56,temp_dist_trial,23.0,t_s_24_1,travel_shared,ear plugs,3.0,competing,paired,t_s_24_1.jpg,Travel,,,sub-42
Desktop or Laptop,Windows 10,Chrome 138.0.0.0,1536x864,1536x730,Temporal Distance Task,cb_03,72.0,temp_dist_trial,num_items,zn7si1,1.0,response,1_ITEM,1095.2999999999884,1083.2999999999884,1095.2999999999884,1095.2999999999884,1083.2999999999884,1095.2999999999884,1.0,0.0,0.0,,Click Response,1_count,3.0,object-46,temp_dist_trial,24.0,t_s_03_1,travel_shared,portable charger,3.0,competing,paired,t_s_03_1.jpg,Travel,,,sub-42
Desktop or Laptop,Windows 10,Chrome 138.0.0.0,1536x864,1536x730,Temporal Distance Task,cb_03,73.0,temp_dist_trial,num_items,zn7si1,1.0,response,1_ITEM,866.099999997008,849.7999999999884,866.099999997008,866.099999997008,849.7999999999884,866.099999997008,1.0,0.0,0.0,,Click Response,1_count,3.0,object-46,temp_dist_trial,25.0,t_s_07_1,travel_shared,phone charger cable,3.0,competing,single,t_s_07_1.jpg,Travel,,,sub-42
Desktop or Laptop,Windows 10,Chrome 138.0.0.0,1536x864,1536x730,Temporal Distance Task,cb_03,74.0,temp_dist_trial,num_items,zn7si1,1.0,response,1_ITEM,1183.2000000000114,1166.5,1183.2000000000114,1183.2000000000114,1166.5,1183.2000000000114,1.0,0.0,0.0,,Click Response,1_count,3.0,object-46,temp_dist_trial,26.0,t_i_13_1,travel_Iceland,sleeping bag,3.0,unique,paired,t_i_13_1.jpg,Travel,,,sub-42
Desktop or Laptop,Windows 10,Chrome 138.0.0.0,1536x864,1536x730,Temporal Distance Task,cb_03,75.0,temp_dist_trial,num_items,zn7si1,1.0,response,1_ITEM,1191.5000000059665,1183.3000000000175,1191.5000000059665,1191.5000000059665,1183.3000000000175,1191.5000000059665,1.0,0.0,0.0,,Click Response,1_count,3.0,object-46,temp_dist_trial,27.0,t_m_14_1,travel_Miami,swim goggles,3.0,unique,paired,t_m_14_1.jpg,Travel,,,sub-42
Desktop or Laptop,Windows 10,Chrome 138.0.0.0,1536x864,1536x730,Temporal Distance Task,cb_03,76.0,temp_dist_trial,num_items,zn7si1,1.0,response,2_ITEM,1102.4000000029919,1099.7000000000116,1102.4000000029919,1102.4000000029919,1099.7000000000116,1102.4000000029919,1.0,0.0,0.0,,Click Response,2_count,5.0,object-49,temp_dist_trial,28.0,t_i_17_1,travel_Iceland,binoculars,3.0,unique,paired,t_i_17_1.jpg,Travel,,,sub-42
Desktop or Laptop,Windows 10,Chrome 138.0.0.0,1536x864,1536x730,Temporal Distance Task,cb_03,76.0,temp_dist_trial,dist_items,qkpkxw,2.0,info,,7.800000002986053,0.0,7.800000002986053,7.800000002986053,0.0,7.800000002986053,1.0,0.0,0.0,,Slider,Slider,4.0,object-56,temp_dist_trial,28.0,t_i_17_1,travel_Iceland,binoculars,3.0,unique,paired,t_i_17_1.jpg,Travel,,,sub-42
Desktop or Laptop,Windows 10,Chrome 138.0.0.0,1536x864,1536x730,Temporal Distance Task,cb_03,76.0,temp_dist_trial,dist_items,qkpkxw,2.0,continue,,1867.3999999999944,1850.5,1867.3999999999944,1867.3999999999944,1850.5,1867.3999999999944,1.0,0.0,0.0,,Click To Continue,Next button,7.0,object-60,temp_dist_trial,28.0,t_i_17_1,travel_Iceland,binoculars,3.0,unique,paired,t_i_17_1.jpg,Travel,,,sub-42
Desktop or Laptop,Windows 10,Chrome 138.0.0.0,1536x864,1536x730,Temporal Distance Task,cb_03,76.0,temp_dist_trial,dist_items,qkpkxw,2.0,response,74,900.1000000000058,1850.5,1867.3999999999944,900.1000000000058,1850.5,1867.3999999999944,1.0,967.2999999999884,0.0,,Slider,Slider,4.0,object-56,temp_dist_trial,28.0,t_i_17_1,travel_Iceland,binoculars,3.0,unique,paired,t_i_17_1.jpg,Travel,,,sub-42
Desktop or Laptop,Windows 10,Chrome 138.0.0.0,1536x864,1536x730,Temporal Distance Task,cb_03,77.0,temp_dist_trial,num_items,zn7si1,1.0,response,1_ITEM,1605.800000002986,1599.6000000000058,1605.800000002986,1605.800000002986,1599.6000000000058,1605.800000002986,1.0,0.0,0.0,,Click Response,1_count,3.0,object-46,temp_dist_trial,29.0,t_m_18_1,travel_Miami,waterproof tote,3.0,unique,single,t_m_18_1.jpg,Travel,,,sub-42
Desktop or Laptop,Windows 10,Chrome 138.0.0.0,1536x864,1536x730,Temporal Distance Task,cb_03,78.0,temp_dist_trial,num_items,zn7si1,1.0,response,2_ITEM,1143.7000000089465,1133.5,1143.7000000089465,1143.7000000089465,1133.5,1143.7000000089465,1.0,0.0,0.0,,Click Response,2_count,5.0,object-49,temp_dist_trial,30.0,t_m_20_1,travel_Miami,inflatable beachball,3.0,unique,paired,t_m_20_1.jpg,Travel,,,sub-42
Desktop or Laptop,Windows 10,Chrome 138.0.0.0,1536x864,1536x730,Temporal Distance Task,cb_03,78.0,temp_dist_trial,dist_items,qkpkxw,2.0,info,,7.2999999999883585,0.0,7.2999999999883585,7.2999999999883585,0.0,7.2999999999883585,1.0,0.0,0.0,,Slider,Slider,4.0,object-56,temp_dist_trial,30.0,t_m_20_1,travel_Miami,inflatable beachball,3.0,unique,paired,t_m_20_1.jpg,Travel,,,sub-42
Desktop or Laptop,Windows 10,Chrome 138.0.0.0,1536x864,1536x730,Temporal Distance Task,cb_03,78.0,temp_dist_trial,dist_items,qkpkxw,2.0,continue,,1606.0999999970081,1600.1999999999825,1606.0999999970081,1606.0999999970081,1600.1999999999825,1606.0999999970081,1.0,0.0,0.0,,Click To Continue,Next button,7.0,object-60,temp_dist_trial,30.0,t_m_20_1,travel_Miami,inflatable beachball,3.0,unique,paired,t_m_20_1.jpg,Travel,,,sub-42
Desktop or Laptop,Windows 10,Chrome 138.0.0.0,1536x864,1536x730,Temporal Distance Task,cb_03,78.0,temp_dist_trial,dist_items,qkpkxw,2.0,response,78,717.1999999999823,1600.1999999999825,1606.7000000059488,717.1999999999823,1600.1999999999825,1606.7000000059488,1.0,889.5000000059662,0.0,,Slider,Slider,4.0,object-56,temp_dist_trial,30.0,t_m_20_1,travel_Miami,inflatable beachball,3.0,unique,paired,t_m_20_1.jpg,Travel,,,sub-42
Desktop or Laptop,Windows 10,Chrome 138.0.0.0,1536x864,1536x730,Temporal Distance Task,cb_03,79.0,temp_dist_trial,num_items,zn7si1,1.0,response,1_ITEM,1122.1000000000058,1116.7000000000116,1122.1000000000058,1122.1000000000058,1116.7000000000116,1122.1000000000058,1.0,0.0,0.0,,Click Response,1_count,3.0,object-46,temp_dist_trial,31.0,t_s_05_1,travel_shared,neck pillow,3.0,competing,single,t_s_05_1.jpg,Travel,,,sub-42
Desktop or Laptop,Windows 10,Chrome 138.0.0.0,1536x864,1536x730,Temporal Distance Task,cb_03,80.0,temp_dist_trial,num_items,zn7si1,1.0,response,1_ITEM,804.099999997008,799.8999999999942,804.099999997008,804.099999997008,799.8999999999942,804.099999997008,1.0,0.0,0.0,,Click Response,1_count,3.0,object-46,temp_dist_trial,32.0,t_m_19_1,travel_Miami,surfboard,3.0,unique,single,t_m_19_1.jpg,Travel,,,sub-42
Desktop or Laptop,Windows 10,Chrome 138.0.0.0,1536x864,1536x730,Temporal Distance Task,cb_03,81.0,temp_dist_trial,num_items,zn7si1,1.0,response,1_ITEM,883.4000000000232,866.6000000000058,883.4000000000232,883.4000000000232,866.6000000000058,883.4000000000232,1.0,0.0,0.0,,Click Response,1_count,3.0,object-46,temp_dist_trial,33.0,t_i_20_1,travel_Iceland,lantern,3.0,unique,single,t_i_20_1.jpg,Travel,,,sub-42
Desktop or Laptop,Windows 10,Chrome 138.0.0.0,1536x864,1536x730,Temporal Distance Task,cb_03,82.0,temp_dist_trial,num_items,zn7si1,1.0,response,2_ITEM,1232.2000000000114,1216.2000000000114,1232.2000000000114,1232.2000000000114,1216.2000000000114,1232.2000000000114,1.0,0.0,0.0,,Click Response,2_count,5.0,object-49,temp_dist_trial,34.0,t_s_21_1,travel_shared,umbrella,3.0,competing,paired,t_s_21_1.jpg,Travel,,,sub-42
Desktop or Laptop,Windows 10,Chrome 138.0.0.0,1536x864,1536x730,Temporal Distance Task,cb_03,82.0,temp_dist_trial,dist_items,qkpkxw,2.0,info,,3.1999999970139466,0.0,3.1999999970139466,3.1999999970139466,0.0,3.1999999970139466,1.0,0.0,0.0,,Slider,Slider,4.0,object-56,temp_dist_trial,34.0,t_s_21_1,travel_shared,umbrella,3.0,competing,paired,t_s_21_1.jpg,Travel,,,sub-42
Desktop or Laptop,Windows 10,Chrome 138.0.0.0,1536x864,1536x730,Temporal Distance Task,cb_03,82.0,temp_dist_trial,dist_items,qkpkxw,2.0,continue,,1613.8000000059546,1600.3999999999942,1613.8000000059546,1613.8000000059546,1600.3999999999942,1613.8000000059546,1.0,0.0,0.0,,Click To Continue,Next button,7.0,object-60,temp_dist_trial,34.0,t_s_21_1,travel_shared,umbrella,3.0,competing,paired,t_s_21_1.jpg,Travel,,,sub-42
Desktop or Laptop,Windows 10,Chrome 138.0.0.0,1536x864,1536x730,Temporal Distance Task,cb_03,82.0,temp_dist_trial,dist_items,qkpkxw,2.0,response,81,733.6000000000058,1600.3999999999942,1617.1000000000058,733.6000000000058,1600.3999999999942,1617.1000000000058,1.0,883.5,0.0,,Slider,Slider,4.0,object-56,temp_dist_trial,34.0,t_s_21_1,travel_shared,umbrella,3.0,competing,paired,t_s_21_1.jpg,Travel,,,sub-42
Desktop or Laptop,Windows 10,Chrome 138.0.0.0,1536x864,1536x730,Temporal Distance Task,cb_03,83.0,temp_dist_trial,num_items,zn7si1,1.0,response,2_ITEM,1566.2000000000116,1549.5,1566.2000000000116,1566.2000000000116,1549.5,1566.2000000000116,1.0,0.0,0.0,,Click Response,2_count,5.0,object-49,temp_dist_trial,35.0,t_i_03_1,travel_Iceland,winter jacket,3.0,unique,paired,t_i_03_1.jpg,Travel,,,sub-42
Desktop or Laptop,Windows 10,Chrome 138.0.0.0,1536x864,1536x730,Temporal Distance Task,cb_03,83.0,temp_dist_trial,dist_items,qkpkxw,2.0,info,,6.100000000005821,0.0,6.100000000005821,6.100000000005821,0.0,6.100000000005821,1.0,0.0,0.0,,Slider,Slider,4.0,object-56,temp_dist_trial,35.0,t_i_03_1,travel_Iceland,winter jacket,3.0,unique,paired,t_i_03_1.jpg,Travel,,,sub-42
Desktop or Laptop,Windows 10,Chrome 138.0.0.0,1536x864,1536x730,Temporal Distance Task,cb_03,83.0,temp_dist_trial,dist_items,qkpkxw,2.0,continue,,1703.1000000000058,1700.1000000000058,1703.1000000000058,1703.1000000000058,1700.1000000000058,1703.1000000000058,1.0,0.0,0.0,,Click To Continue,Next button,7.0,object-60,temp_dist_trial,35.0,t_i_03_1,travel_Iceland,winter jacket,3.0,unique,paired,t_i_03_1.jpg,Travel,,,sub-42
Desktop or Laptop,Windows 10,Chrome 138.0.0.0,1536x864,1536x730,Temporal Distance Task,cb_03,83.0,temp_dist_trial,dist_items,qkpkxw,2.0,response,31,800.3000000000177,1700.1000000000058,1703.6000000000058,800.3000000000177,1700.1000000000058,1703.6000000000058,1.0,903.2999999999884,0.0,,Slider,Slider,4.0,object-56,temp_dist_trial,35.0,t_i_03_1,travel_Iceland,winter jacket,3.0,unique,paired,t_i_03_1.jpg,Travel,,,sub-42
Desktop or Laptop,Windows 10,Chrome 138.0.0.0,1536x864,1536x730,Temporal Distance Task,cb_03,84.0,temp_dist_trial,num_items,zn7si1,1.0,response,2_ITEM,1650.4000000000233,1633.7000000000116,1650.4000000000233,1650.4000000000233,1633.7000000000116,1650.4000000000233,1.0,0.0,0.0,,Click Response,2_count,5.0,object-49,temp_dist_trial,36.0,t_m_12_1,travel_Miami,foldable pail and shovel,3.0,unique,paired,t_m_12_1.jpg,Travel,,,sub-42
Desktop or Laptop,Windows 10,Chrome 138.0.0.0,1536x864,1536x730,Temporal Distance Task,cb_03,84.0,temp_dist_trial,dist_items,qkpkxw,2.0,info,,6.700000005948822,0.0,6.700000005948822,6.700000005948822,0.0,6.700000005948822,1.0,0.0,0.0,,Slider,Slider,4.0,object-56,temp_dist_trial,36.0,t_m_12_1,travel_Miami,foldable pail and shovel,3.0,unique,paired,t_m_12_1.jpg,Travel,,,sub-42
Desktop or Laptop,Windows 10,Chrome 138.0.0.0,1536x864,1536x730,Temporal Distance Task,cb_03,84.0,temp_dist_trial,dist_items,qkpkxw,2.0,continue,,1491.5000000029684,1483.7999999999884,1491.5000000029684,1491.5000000029684,1483.7999999999884,1491.5000000029684,1.0,0.0,0.0,,Click To Continue,Next button,7.0,object-60,temp_dist_trial,36.0,t_m_12_1,travel_Miami,foldable pail and shovel,3.0,unique,paired,t_m_12_1.jpg,Travel,,,sub-42
Desktop or Laptop,Windows 10,Chrome 138.0.0.0,1536x864,1536x730,Temporal Distance Task,cb_03,84.0,temp_dist_trial,dist_items,qkpkxw,2.0,response,44,650.5999999999767,1483.7999999999884,1491.7999999999884,650.5999999999767,1483.7999999999884,1491.7999999999884,1.0,841.2000000000116,0.0,,Slider,Slider,4.0,object-56,temp_dist_trial,36.0,t_m_12_1,travel_Miami,foldable pail and shovel,3.0,unique,paired,t_m_12_1.jpg,Travel,,,sub-42
Desktop or Laptop,Windows 10,Chrome 138.0.0.0,1536x864,1536x730,Temporal Distance Task,cb_03,85.0,temp_dist_trial,num_items,zn7si1,1.0,response,1_ITEM,1223.6000000089407,1216.6000000000058,1223.6000000089407,1223.6000000089407,1216.6000000000058,1223.6000000089407,1.0,0.0,0.0,,Click Response,1_count,3.0,object-46,temp_dist_trial,37.0,t_i_10_1,travel_Iceland,trekking poles,3.0,unique,single,t_i_10_1.jpg,Travel,,,sub-42
Desktop or Laptop,Windows 10,Chrome 138.0.0.0,1536x864,1536x730,Temporal Distance Task,cb_03,86.0,temp_dist_trial,num_items,zn7si1,1.0,response,2_ITEM,2007.7000000059488,2000.2999999999884,2007.7000000059488,2007.7000000059488,2000.2999999999884,2007.7000000059488,1.0,0.0,0.0,,Click Response,2_count,5.0,object-49,temp_dist_trial,38.0,t_s_10_1,travel_shared,luggage lock,3.0,competing,paired,t_s_10_1.jpg,Travel,,,sub-42
Desktop or Laptop,Windows 10,Chrome 138.0.0.0,1536x864,1536x730,Temporal Distance Task,cb_03,86.0,temp_dist_trial,dist_items,qkpkxw,2.0,info,,4.0000000029685925,0.0,4.0000000029685925,4.0000000029685925,0.0,4.0000000029685925,1.0,0.0,0.0,,Slider,Slider,4.0,object-56,temp_dist_trial,38.0,t_s_10_1,travel_shared,luggage lock,3.0,competing,paired,t_s_10_1.jpg,Travel,,,sub-42
Desktop or Laptop,Windows 10,Chrome 138.0.0.0,1536x864,1536x730,Temporal Distance Task,cb_03,86.0,temp_dist_trial,dist_items,qkpkxw,2.0,continue,,1302.7999999999886,1300.0999999999767,1302.7999999999886,1302.7999999999886,1300.0999999999767,1302.7999999999886,1.0,0.0,0.0,,Click To Continue,Next button,7.0,object-60,temp_dist_trial,38.0,t_s_10_1,travel_shared,luggage lock,3.0,competing,paired,t_s_10_1.jpg,Travel,,,sub-42
Desktop or Laptop,Windows 10,Chrome 138.0.0.0,1536x864,1536x730,Temporal Distance Task,cb_03,86.0,temp_dist_trial,dist_items,qkpkxw,2.0,response,57,633.5999999999767,1300.0999999999767,1303.2000000059488,633.5999999999767,1300.0999999999767,1303.2000000059488,1.0,669.6000000059721,0.0,,Slider,Slider,4.0,object-56,temp_dist_trial,38.0,t_s_10_1,travel_shared,luggage lock,3.0,competing,paired,t_s_10_1.jpg,Travel,,,sub-42
Desktop or Laptop,Windows 10,Chrome 138.0.0.0,1536x864,1536x730,Temporal Distance Task,cb_03,87.0,temp_dist_trial,num_items,zn7si1,1.0,response,2_ITEM,1651.8000000089526,1649.9000000000233,1651.8000000089526,1651.8000000089526,1649.9000000000233,1651.8000000089526,1.0,0.0,0.0,,Click Response,2_count,5.0,object-49,temp_dist_trial,39.0,t_i_02_1,travel_Iceland,scarf,3.0,unique,paired,t_i_02_1.jpg,Travel,,,sub-42
Desktop or Laptop,Windows 10,Chrome 138.0.0.0,1536x864,1536x730,Temporal Distance Task,cb_03,87.0,temp_dist_trial,dist_items,qkpkxw,2.0,info,,2.200000005948823,0.0,2.200000005948823,2.200000005948823,0.0,2.200000005948823,1.0,0.0,0.0,,Slider,Slider,4.0,object-56,temp_dist_trial,39.0,t_i_02_1,travel_Iceland,scarf,3.0,unique,paired,t_i_02_1.jpg,Travel,,,sub-42
Desktop or Laptop,Windows 10,Chrome 138.0.0.0,1536x864,1536x730,Temporal Distance Task,cb_03,87.0,temp_dist_trial,dist_items,qkpkxw,2.0,continue,,2393.7000000059493,2383.5,2393.7000000059493,2393.7000000059493,2383.5,2393.7000000059493,1.0,0.0,0.0,,Click To Continue,Next button,7.0,object-60,temp_dist_trial,39.0,t_i_02_1,travel_Iceland,scarf,3.0,unique,paired,t_i_02_1.jpg,Travel,,,sub-42
Desktop or Laptop,Windows 10,Chrome 138.0.0.0,1536x864,1536x730,Temporal Distance Task,cb_03,87.0,temp_dist_trial,dist_items,qkpkxw,2.0,response,33,716.5999999999768,2383.5,2394.599999997008,716.5999999999768,2383.5,2394.599999997008,1.0,1677.9999999970316,0.0,,Slider,Slider,4.0,object-56,temp_dist_trial,39.0,t_i_02_1,travel_Iceland,scarf,3.0,unique,paired,t_i_02_1.jpg,Travel,,,sub-42
Desktop or Laptop,Windows 10,Chrome 138.0.0.0,1536x864,1536x730,Temporal Distance Task,cb_03,88.0,temp_dist_trial,num_items,zn7si1,1.0,response,1_ITEM,1847.5000000029688,1833.5999999999767,1847.5000000029688,1847.5000000029688,1833.5999999999767,1847.5000000029688,1.0,0.0,0.0,,Click Response,1_count,3.0,object-46,temp_dist_trial,40.0,t_i_07_1,travel_Iceland,hiking backpack,3.0,unique,paired,t_i_07_1.jpg,Travel,,,sub-42
Desktop or Laptop,Windows 10,Chrome 138.0.0.0,1536x864,1536x730,Temporal Distance Task,cb_03,89.0,temp_dist_trial,num_items,zn7si1,1.0,response,2_ITEM,1069.400000008929,1066.1999999999823,1069.400000008929,1069.400000008929,1066.1999999999823,1069.400000008929,1.0,0.0,0.0,,Click Response,2_count,5.0,object-49,temp_dist_trial,41.0,t_i_05_1,travel_Iceland,hiking boots,3.0,unique,paired,t_i_05_1.jpg,Travel,,,sub-42
Desktop or Laptop,Windows 10,Chrome 138.0.0.0,1536x864,1536x730,Temporal Distance Task,cb_03,89.0,temp_dist_trial,dist_items,qkpkxw,2.0,info,,7.99999999703141,0.0,7.99999999703141,7.99999999703141,0.0,7.99999999703141,1.0,0.0,0.0,,Slider,Slider,4.0,object-56,temp_dist_trial,41.0,t_i_05_1,travel_Iceland,hiking boots,3.0,unique,paired,t_i_05_1.jpg,Travel,,,sub-42
Desktop or Laptop,Windows 10,Chrome 138.0.0.0,1536x864,1536x730,Temporal Distance Task,cb_03,89.0,temp_dist_trial,dist_items,qkpkxw,2.0,continue,,1530.9000000029919,1516.8000000000175,1530.9000000029919,1530.9000000029919,1516.8000000000175,1530.9000000029919,1.0,0.0,0.0,,Click To Continue,Next button,7.0,object-60,temp_dist_trial,41.0,t_i_05_1,travel_Iceland,hiking boots,3.0,unique,paired,t_i_05_1.jpg,Travel,,,sub-42
Desktop or Laptop,Windows 10,Chrome 138.0.0.0,1536x864,1536x730,Temporal Distance Task,cb_03,89.0,temp_dist_trial,dist_items,qkpkxw,2.0,response,63,700.0,1516.8000000000175,1533.6000000000354,700.0,1516.8000000000175,1533.6000000000354,1.0,833.6000000000349,0.0,,Slider,Slider,4.0,object-56,temp_dist_trial,41.0,t_i_05_1,travel_Iceland,hiking boots,3.0,unique,paired,t_i_05_1.jpg,Travel,,,sub-42
Desktop or Laptop,Windows 10,Chrome 138.0.0.0,1536x864,1536x730,Temporal Distance Task,cb_03,90.0,temp_dist_trial,num_items,zn7si1,1.0,response,1_ITEM,1190.0000000089349,1183.6999999999825,1190.0000000089349,1190.0000000089349,1183.6999999999825,1190.0000000089349,1.0,0.0,0.0,,Click Response,1_count,3.0,object-46,temp_dist_trial,42.0,t_s_18_1,travel_shared,first aid kit,3.0,competing,single,t_s_18_1.jpg,Travel,,,sub-42
Desktop or Laptop,Windows 10,Chrome 138.0.0.0,1536x864,1536x730,Temporal Distance Task,cb_03,91.0,temp_dist_trial,num_items,zn7si1,1.0,response,2_ITEM,1586.0,1582.6000000000058,1586.0,1586.0,1582.6000000000058,1586.0,1.0,0.0,0.0,,Click Response,2_count,5.0,object-49,temp_dist_trial,43.0,t_s_12_1,travel_shared,clear toiletry bag,3.0,competing,paired,t_s_12_1.jpg,Travel,,,sub-42
Desktop or Laptop,Windows 10,Chrome 138.0.0.0,1536x864,1536x730,Temporal Distance Task,cb_03,91.0,temp_dist_trial,dist_items,qkpkxw,2.0,info,,3.0999999970081262,0.0,3.0999999970081262,3.0999999970081262,0.0,3.0999999970081262,1.0,0.0,0.0,,Slider,Slider,4.0,object-56,temp_dist_trial,43.0,t_s_12_1,travel_shared,clear toiletry bag,3.0,competing,paired,t_s_12_1.jpg,Travel,,,sub-42
Desktop or Laptop,Windows 10,Chrome 138.0.0.0,1536x864,1536x730,Temporal Distance Task,cb_03,91.0,temp_dist_trial,dist_items,qkpkxw,2.0,continue,,1650.400000008929,1633.6999999999825,1650.400000008929,1650.400000008929,1633.6999999999825,1650.400000008929,1.0,0.0,0.0,,Click To Continue,Next button,7.0,object-60,temp_dist_trial,43.0,t_s_12_1,travel_shared,clear toiletry bag,3.0,competing,paired,t_s_12_1.jpg,Travel,,,sub-42
Desktop or Laptop,Windows 10,Chrome 138.0.0.0,1536x864,1536x730,Temporal Distance Task,cb_03,91.0,temp_dist_trial,dist_items,qkpkxw,2.0,response,21,566.8999999999943,1633.6999999999825,1650.5999999999767,566.8999999999943,1633.6999999999825,1650.5999999999767,1.0,1083.6999999999823,0.0,,Slider,Slider,4.0,object-56,temp_dist_trial,43.0,t_s_12_1,travel_shared,clear toiletry bag,3.0,competing,paired,t_s_12_1.jpg,Travel,,,sub-42
Desktop or Laptop,Windows 10,Chrome 138.0.0.0,1536x864,1536x730,Temporal Distance Task,cb_03,92.0,temp_dist_trial,num_items,zn7si1,1.0,response,2_ITEM,1383.2999999999884,1366.5,1383.2999999999884,1383.2999999999884,1366.5,1383.2999999999884,1.0,0.0,0.0,,Click Response,2_count,5.0,object-49,temp_dist_trial,44.0,t_s_09_1,travel_shared,wallet,3.0,competing,paired,t_s_09_1.jpg,Travel,,,sub-42
Desktop or Laptop,Windows 10,Chrome 138.0.0.0,1536x864,1536x730,Temporal Distance Task,cb_03,92.0,temp_dist_trial,dist_items,qkpkxw,2.0,info,,8.200000002980232,0.0,8.200000002980232,8.200000002980232,0.0,8.200000002980232,1.0,0.0,0.0,,Slider,Slider,4.0,object-56,temp_dist_trial,44.0,t_s_09_1,travel_shared,wallet,3.0,competing,paired,t_s_09_1.jpg,Travel,,,sub-42
Desktop or Laptop,Windows 10,Chrome 138.0.0.0,1536x864,1536x730,Temporal Distance Task,cb_03,92.0,temp_dist_trial,dist_items,qkpkxw,2.0,continue,,1850.1000000000056,1833.5,1850.1000000000056,1850.1000000000056,1833.5,1850.1000000000056,1.0,0.0,0.0,,Click To Continue,Next button,7.0,object-60,temp_dist_trial,44.0,t_s_09_1,travel_shared,wallet,3.0,competing,paired,t_s_09_1.jpg,Travel,,,sub-42
Desktop or Laptop,Windows 10,Chrome 138.0.0.0,1536x864,1536x730,Temporal Distance Task,cb_03,92.0,temp_dist_trial,dist_items,qkpkxw,2.0,response,21,617.0,1833.5,1850.1000000000056,617.0,1833.5,1850.1000000000056,1.0,1233.1000000000058,0.0,,Slider,Slider,4.0,object-56,temp_dist_trial,44.0,t_s_09_1,travel_shared,wallet,3.0,competing,paired,t_s_09_1.jpg,Travel,,,sub-42
Desktop or Laptop,Windows 10,Chrome 138.0.0.0,1536x864,1536x730,Temporal Distance Task,cb_03,93.0,temp_dist_trial,num_items,zn7si1,1.0,response,1_ITEM,1294.9000000059605,1283.3999999999942,1294.9000000059605,1294.9000000059605,1283.3999999999942,1294.9000000059605,1.0,0.0,0.0,,Click Response,1_count,3.0,object-46,temp_dist_trial,45.0,t_i_08_1,travel_Iceland,thick socks,3.0,unique,single,t_i_08_1.jpg,Travel,,,sub-42
Desktop or Laptop,Windows 10,Chrome 138.0.0.0,1536x864,1536x730,Temporal Distance Task,cb_03,94.0,temp_dist_trial,num_items,zn7si1,1.0,response,1_ITEM,1342.400000008929,1333.3999999999942,1342.400000008929,1342.400000008929,1333.3999999999942,1342.400000008929,1.0,0.0,0.0,,Click Response,1_count,3.0,object-46,temp_dist_trial,46.0,t_m_02_1,travel_Miami,t-shirt,3.0,unique,paired,t_m_02_1.jpg,Travel,,,sub-42
Desktop or Laptop,Windows 10,Chrome 138.0.0.0,1536x864,1536x730,Temporal Distance Task,cb_03,95.0,temp_dist_trial,num_items,zn7si1,1.0,response,2_ITEM,1252.5,1250.0,1252.5,1252.5,1250.0,1252.5,1.0,0.0,0.0,,Click Response,2_count,5.0,object-49,temp_dist_trial,47.0,t_s_02_1,travel_shared,water bottle,3.0,competing,paired,t_s_02_1.jpg,Travel,,,sub-42
Desktop or Laptop,Windows 10,Chrome 138.0.0.0,1536x864,1536x730,Temporal Distance Task,cb_03,95.0,temp_dist_trial,dist_items,qkpkxw,2.0,info,,8.200000008946517,0.0,8.200000008946517,8.200000008946517,0.0,8.200000008946517,1.0,0.0,0.0,,Slider,Slider,4.0,object-56,temp_dist_trial,47.0,t_s_02_1,travel_shared,water bottle,3.0,competing,paired,t_s_02_1.jpg,Travel,,,sub-42
Desktop or Laptop,Windows 10,Chrome 138.0.0.0,1536x864,1536x730,Temporal Distance Task,cb_03,95.0,temp_dist_trial,dist_items,qkpkxw,2.0,continue,,1526.3999999970254,1516.8999999999942,1526.3999999970254,1526.3999999970254,1516.8999999999942,1526.3999999970254,1.0,0.0,0.0,,Click To Continue,Next button,7.0,object-60,temp_dist_trial,47.0,t_s_02_1,travel_shared,water bottle,3.0,competing,paired,t_s_02_1.jpg,Travel,,,sub-42
Desktop or Laptop,Windows 10,Chrome 138.0.0.0,1536x864,1536x730,Temporal Distance Task,cb_03,95.0,temp_dist_trial,dist_items,qkpkxw,2.0,response,72,633.6000000000057,1516.8999999999942,1526.6000000000058,633.6000000000057,1516.8999999999942,1526.6000000000058,1.0,893.0,0.0,,Slider,Slider,4.0,object-56,temp_dist_trial,47.0,t_s_02_1,travel_shared,water bottle,3.0,competing,paired,t_s_02_1.jpg,Travel,,,sub-42
Desktop or Laptop,Windows 10,Chrome 138.0.0.0,1536x864,1536x730,Temporal Distance Task,cb_03,96.0,temp_dist_trial,num_items,zn7si1,1.0,response,1_ITEM,1120.7000000000116,1116.600000000035,1120.7000000000116,1120.7000000000116,1116.600000000035,1120.7000000000116,1.0,0.0,0.0,,Click Response,1_count,3.0,object-46,temp_dist_trial,48.0,t_s_04_1,travel_shared,instant camera,3.0,competing,paired,t_s_04_1.jpg,Travel,,,sub-42
Desktop or Laptop,Windows 10,Chrome 138.0.0.0,1536x864,1536x730,Temporal Distance Task,$${counterbalance_group},,,,,,info,END,,,260707.0,,,,0.0,,,,,,,,,,,,,,,,,,,,sub-42
