Participant Device,Participant OS,Participant Browser,Participant Monitor Size,Participant Viewport Size,Task Name,Current Spreadsheet,Trial Number,Display,Screen,Screen ID,Screen Counter,Response Type,Response,Onset Time,Clock Time,Reaction Time,Absolute Onset Time,Absolute Clock Time,Absolute Reaction Time,Correct,Response Duration,Proportion,Tag,Component Name,Object Name,Object Number,Object ID,Spreadsheet: display,Spreadsheet: trial,Spreadsheet: stimulus_id,Spreadsheet: expected_goal,Spreadsheet: stimulus_name,Spreadsheet: c_group,Spreadsheet: condition,Spreadsheet: paired_status,Spreadsheet: stimulus_path,Spreadsheet: block_type,Manipulation: Spreadsheet,Store: enc_test_acc,sub_label
Desktop or Laptop,Windows 10,Chrome 137.0.0.0,1280x720,1280x720,Temporal Distance Task,$${counterbalance_group},,,,,,info,BEGIN,,,,,,,0.0,,,,,,,,,,,,,,,,,,,,sub-01
Desktop or Laptop,Windows 10,Chrome 137.0.0.0,1280x720,1280x720,Temporal Distance Task,cb_06,1.0,temp_instructions,intro_screen,3tnme7,1.0,continue,,11847.9,11839.7,11847.9,11847.9,11839.7,11847.9,1.0,0.0,0.0,,Click To Continue,Continue Button,4.0,object-29,temp_instructions,,,Travel,,,,,,,,,sub-01
Desktop or Laptop,Windows 10,Chrome 137.0.0.0,1280x720,1280x720,Temporal Distance Task,cb_06,1.0,temp_instructions,intro_screen_2,52v7ur,2.0,continue,,20646.2,20629.6,20646.2,20646.2,20629.6,20646.2,1.0,0.0,0.0,,Click To Continue,Continue Button,4.0,object-39,temp_instructions,,,Travel,,,,,,,,,sub-01
Desktop or Laptop,Windows 10,Chrome 137.0.0.0,1280x720,1280x720,Temporal Distance Task,cb_06,1.0,temp_instructions,intro_screen_3,i7lvwx,3.0,continue,,5001.5999999999985,4995.5999999999985,5001.5999999999985,5001.5999999999985,4995.5999999999985,5001.5999999999985,1.0,0.0,0.0,,Click To Continue,Continue Button,4.0,object-67,temp_instructions,,,Travel,,,,,,,,,sub-01
Desktop or Laptop,Windows 10,Chrome 137.0.0.0,1280x720,1280x720,Temporal Distance Task,cb_06,1.0,temp_instructions,test_q1,5ieqx1,4.0,response,choice_3,8599.099999994041,8592.5,8599.099999994041,8599.099999994041,8592.5,8599.099999994041,1.0,0.0,0.0,,Click Response,choice_3,5.0,object-345,temp_instructions,,,Travel,,,,,,,,,sub-01
Desktop or Laptop,Windows 10,Chrome 137.0.0.0,1280x720,1280x720,Temporal Distance Task,cb_06,1.0,temp_instructions,score_corr,7ilvjr,5.0,continue,,1316.7000000178814,1314.5999999999985,1316.7000000178814,1316.7000000178814,1314.5999999999985,1316.7000000178814,1.0,0.0,0.0,,Click To Continue,Continue Button,3.0,object-23,temp_instructions,,,Travel,,,,,,,,,sub-01
Desktop or Laptop,Windows 10,Chrome 137.0.0.0,1280x720,1280x720,Temporal Distance Task,cb_06,1.0,temp_eventStart,Screen 1,dgtyxe,1.0,continue,,4531.9000000000015,4529.300000000003,4531.9000000000015,4531.9000000000015,4529.300000000003,4531.9000000000015,1.0,0.0,0.0,,Click To Continue,Next Button,3.0,object-43,temp_eventStart,,,Travel,,,,,,,,,sub-01
Desktop or Laptop,Windows 10,Chrome 137.0.0.0,1280x720,1280x720,Temporal Distance Task,cb_06,1.0,temp_dist_trial,num_items,zn7si1,1.0,response,1_ITEM,1842.0999999999985,1831.6999999999966,1842.0999999999985,1842.0999999999985,1831.6999999999966,1842.0999999999985,1.0,0.0,0.0,,Click Response,1_count,3.0,object-46,temp_dist_trial,1.0,t_i_05_1,travel_Iceland,hiking boots,6.0,unique,single,t_i_05_1.jpg,Travel,,,sub-01
Desktop or Laptop,Windows 10,Chrome 137.0.0.0,1280x720,1280x720,Temporal Distance Task,cb_06,2.0,temp_dist_trial,num_items,zn7si1,1.0,response,num_miss,2997.2999999999956,2997.2999999999956,2997.2999999999956,2997.2999999999956,2997.2999999999956,2997.2999999999956,1.0,0.0,0.0,num_miss_tag,Time Limit,screen,0.0,screen,temp_dist_trial,2.0,t_s_18_1,travel_shared,first aid kit,6.0,competing,single,t_s_18_1.jpg,Travel,,,sub-01
Desktop or Laptop,Windows 10,Chrome 137.0.0.0,1280x720,1280x720,Temporal Distance Task,cb_06,3.0,temp_dist_trial,num_items,zn7si1,1.0,response,2_ITEM,704.5000000059662,699.4000000000087,704.5000000059662,704.5000000059662,699.4000000000087,704.5000000059662,1.0,0.0,0.0,,Click Response,2_count,5.0,object-49,temp_dist_trial,3.0,t_s_13_1,travel_shared,contact lens case,6.0,competing,paired,t_s_13_1.jpg,Travel,,,sub-01
Desktop or Laptop,Windows 10,Chrome 137.0.0.0,1280x720,1280x720,Temporal Distance Task,cb_06,3.0,temp_dist_trial,dist_items,qkpkxw,2.0,info,,11.700000017881393,0.0,11.700000017881393,11.700000017881393,0.0,11.700000017881393,1.0,0.0,0.0,,Slider,Slider,4.0,object-56,temp_dist_trial,3.0,t_s_13_1,travel_shared,contact lens case,6.0,competing,paired,t_s_13_1.jpg,Travel,,,sub-01
Desktop or Laptop,Windows 10,Chrome 137.0.0.0,1280x720,1280x720,Temporal Distance Task,cb_06,3.0,temp_dist_trial,dist_items,qkpkxw,2.0,continue,,5316.300000011921,5311.199999999997,5316.300000011921,5316.300000011921,5311.199999999997,5316.300000011921,1.0,0.0,0.0,,Click To Continue,Next button,7.0,object-60,temp_dist_trial,3.0,t_s_13_1,travel_shared,contact lens case,6.0,competing,paired,t_s_13_1.jpg,Travel,,,sub-01
Desktop or Laptop,Windows 10,Chrome 137.0.0.0,1280x720,1280x720,Temporal Distance Task,cb_06,3.0,temp_dist_trial,dist_items,qkpkxw,2.0,response,63,2181.5,5311.199999999997,5317.2000000178805,2181.5,5311.199999999997,5317.2000000178805,1.0,3135.700000017881,0.0,,Slider,Slider,4.0,object-56,temp_dist_trial,3.0,t_s_13_1,travel_shared,contact lens case,6.0,competing,paired,t_s_13_1.jpg,Travel,,,sub-01
Desktop or Laptop,Windows 10,Chrome 137.0.0.0,1280x720,1280x720,Temporal Distance Task,cb_06,4.0,temp_dist_trial,num_items,zn7si1,1.0,response,2_ITEM,1846.5000000178845,1831.6999999999966,1846.5000000178845,1846.5000000178845,1831.6999999999966,1846.5000000178845,1.0,0.0,0.0,,Click Response,2_count,5.0,object-49,temp_dist_trial,4.0,t_i_11_1,travel_Iceland,headlamp,6.0,unique,paired,t_i_11_1.jpg,Travel,,,sub-01
Desktop or Laptop,Windows 10,Chrome 137.0.0.0,1280x720,1280x720,Temporal Distance Task,cb_06,4.0,temp_dist_trial,dist_items,qkpkxw,2.0,info,,6.6000000119238384,0.0,6.6000000119238384,6.6000000119238384,0.0,6.6000000119238384,1.0,0.0,0.0,,Slider,Slider,4.0,object-56,temp_dist_trial,4.0,t_i_11_1,travel_Iceland,headlamp,6.0,unique,paired,t_i_11_1.jpg,Travel,,,sub-01
Desktop or Laptop,Windows 10,Chrome 137.0.0.0,1280x720,1280x720,Temporal Distance Task,cb_06,4.0,temp_dist_trial,dist_items,qkpkxw,2.0,continue,,3779.8999999940415,3763.400000000009,3779.8999999940415,3779.8999999940415,3763.400000000009,3779.8999999940415,1.0,0.0,0.0,,Click To Continue,Next button,7.0,object-60,temp_dist_trial,4.0,t_i_11_1,travel_Iceland,headlamp,6.0,unique,paired,t_i_11_1.jpg,Travel,,,sub-01
Desktop or Laptop,Windows 10,Chrome 137.0.0.0,1280x720,1280x720,Temporal Distance Task,cb_06,4.0,temp_dist_trial,dist_items,qkpkxw,2.0,response,37,1715.1999999999966,3763.400000000009,3780.100000000021,1715.1999999999966,3763.400000000009,3780.100000000021,1.0,2064.9000000000233,0.0,,Slider,Slider,4.0,object-56,temp_dist_trial,4.0,t_i_11_1,travel_Iceland,headlamp,6.0,unique,paired,t_i_11_1.jpg,Travel,,,sub-01
Desktop or Laptop,Windows 10,Chrome 137.0.0.0,1280x720,1280x720,Temporal Distance Task,cb_06,5.0,temp_dist_trial,num_items,zn7si1,1.0,response,1_ITEM,1352.2000000119149,1348.6999999999969,1352.2000000119149,1352.2000000119149,1348.6999999999969,1352.2000000119149,1.0,0.0,0.0,,Click Response,1_count,3.0,object-46,temp_dist_trial,5.0,t_s_07_1,travel_shared,phone charger cable,6.0,competing,single,t_s_07_1.jpg,Travel,,,sub-01
Desktop or Laptop,Windows 10,Chrome 137.0.0.0,1280x720,1280x720,Temporal Distance Task,cb_06,6.0,temp_dist_trial,num_items,zn7si1,1.0,response,1_ITEM,2064.9999999999854,2048.2999999999884,2064.9999999999854,2064.9999999999854,2048.2999999999884,2064.9999999999854,1.0,0.0,0.0,,Click Response,1_count,3.0,object-46,temp_dist_trial,6.0,t_i_12_1,travel_Iceland,tent,6.0,unique,paired,t_i_12_1.jpg,Travel,,,sub-01
Desktop or Laptop,Windows 10,Chrome 137.0.0.0,1280x720,1280x720,Temporal Distance Task,cb_06,7.0,temp_dist_trial,num_items,zn7si1,1.0,response,2_ITEM,1359.6000000119236,1348.6999999999969,1359.6000000119236,1359.6000000119236,1348.6999999999969,1359.6000000119236,1.0,0.0,0.0,,Click Response,2_count,5.0,object-49,temp_dist_trial,7.0,t_m_02_1,travel_Miami,t-shirt,6.0,unique,single,t_m_02_1.jpg,Travel,,,sub-01
Desktop or Laptop,Windows 10,Chrome 137.0.0.0,1280x720,1280x720,Temporal Distance Task,cb_06,7.0,temp_dist_trial,dist_items,qkpkxw,2.0,info,,7.799999994036624,0.0,7.799999994036624,7.799999994036624,0.0,7.799999994036624,1.0,0.0,0.0,,Slider,Slider,4.0,object-56,temp_dist_trial,7.0,t_m_02_1,travel_Miami,t-shirt,6.0,unique,single,t_m_02_1.jpg,Travel,,,sub-01
Desktop or Laptop,Windows 10,Chrome 137.0.0.0,1280x720,1280x720,Temporal Distance Task,cb_06,7.0,temp_dist_trial,dist_items,qkpkxw,2.0,continue,,4129.6999999999825,4113.099999999991,4129.6999999999825,4129.6999999999825,4113.099999999991,4129.6999999999825,1.0,0.0,0.0,,Click To Continue,Next button,7.0,object-60,temp_dist_trial,7.0,t_m_02_1,travel_Miami,t-shirt,6.0,unique,single,t_m_02_1.jpg,Travel,,,sub-01
Desktop or Laptop,Windows 10,Chrome 137.0.0.0,1280x720,1280x720,Temporal Distance Task,cb_06,7.0,temp_dist_trial,dist_items,qkpkxw,2.0,response,61,1881.6999999999966,4113.099999999991,4129.6999999999825,1881.6999999999966,4113.099999999991,4129.6999999999825,1.0,2247.9999999999854,0.0,,Slider,Slider,4.0,object-56,temp_dist_trial,7.0,t_m_02_1,travel_Miami,t-shirt,6.0,unique,single,t_m_02_1.jpg,Travel,,,sub-01
Desktop or Laptop,Windows 10,Chrome 137.0.0.0,1280x720,1280x720,Temporal Distance Task,cb_06,8.0,temp_dist_trial,num_items,zn7si1,1.0,response,2_ITEM,2010.900000011927,1998.2000000000119,2010.900000011927,2010.900000011927,1998.2000000000119,2010.900000011927,1.0,0.0,0.0,,Click Response,2_count,5.0,object-49,temp_dist_trial,8.0,t_s_19_1,travel_shared,pajamas,6.0,competing,paired,t_s_19_1.jpg,Travel,,,sub-01
Desktop or Laptop,Windows 10,Chrome 137.0.0.0,1280x720,1280x720,Temporal Distance Task,cb_06,8.0,temp_dist_trial,dist_items,qkpkxw,2.0,info,,6.199999994045356,0.0,6.199999994045356,6.199999994045356,0.0,6.199999994045356,1.0,0.0,0.0,,Slider,Slider,4.0,object-56,temp_dist_trial,8.0,t_s_19_1,travel_shared,pajamas,6.0,competing,paired,t_s_19_1.jpg,Travel,,,sub-01
Desktop or Laptop,Windows 10,Chrome 137.0.0.0,1280x720,1280x720,Temporal Distance Task,cb_06,8.0,temp_dist_trial,dist_items,qkpkxw,2.0,continue,,4248.900000011927,4246.300000000003,4248.900000011927,4248.900000011927,4246.300000000003,4248.900000011927,1.0,0.0,0.0,,Click To Continue,Next button,7.0,object-60,temp_dist_trial,8.0,t_s_19_1,travel_shared,pajamas,6.0,competing,paired,t_s_19_1.jpg,Travel,,,sub-01
Desktop or Laptop,Windows 10,Chrome 137.0.0.0,1280x720,1280x720,Temporal Distance Task,cb_06,8.0,temp_dist_trial,dist_items,qkpkxw,2.0,response,36,1348.8000000000031,4246.300000000003,4249.500000005966,1348.8000000000031,4246.300000000003,4249.500000005966,1.0,2900.700000005964,0.0,,Slider,Slider,4.0,object-56,temp_dist_trial,8.0,t_s_19_1,travel_shared,pajamas,6.0,competing,paired,t_s_19_1.jpg,Travel,,,sub-01
Desktop or Laptop,Windows 10,Chrome 137.0.0.0,1280x720,1280x720,Temporal Distance Task,cb_06,9.0,temp_dist_trial,num_items,zn7si1,1.0,response,1_ITEM,2930.600000011924,2914.1000000000067,2930.600000011924,2930.600000011924,2914.1000000000067,2930.600000011924,1.0,0.0,0.0,,Click Response,1_count,3.0,object-46,temp_dist_trial,9.0,t_s_11_1,travel_shared,eye mask,6.0,competing,single,t_s_11_1.jpg,Travel,,,sub-01
Desktop or Laptop,Windows 10,Chrome 137.0.0.0,1280x720,1280x720,Temporal Distance Task,cb_06,10.0,temp_dist_trial,num_items,zn7si1,1.0,response,2_ITEM,1359.3999999940424,1348.8000000000031,1359.3999999940424,1359.3999999940424,1348.8000000000031,1359.3999999940424,1.0,0.0,0.0,,Click Response,2_count,5.0,object-49,temp_dist_trial,10.0,t_s_04_1,travel_shared,instant camera,6.0,competing,paired,t_s_04_1.jpg,Travel,,,sub-01
Desktop or Laptop,Windows 10,Chrome 137.0.0.0,1280x720,1280x720,Temporal Distance Task,cb_06,10.0,temp_dist_trial,dist_items,qkpkxw,2.0,info,,9.100000005957554,0.0,9.100000005957554,9.100000005957554,0.0,9.100000005957554,1.0,0.0,0.0,,Slider,Slider,4.0,object-56,temp_dist_trial,10.0,t_s_04_1,travel_shared,instant camera,6.0,competing,paired,t_s_04_1.jpg,Travel,,,sub-01
Desktop or Laptop,Windows 10,Chrome 137.0.0.0,1280x720,1280x720,Temporal Distance Task,cb_06,10.0,temp_dist_trial,dist_items,qkpkxw,2.0,continue,,5489.199999999997,5478.599999999991,5489.199999999997,5489.199999999997,5478.599999999991,5489.199999999997,1.0,0.0,0.0,,Click To Continue,Next button,7.0,object-60,temp_dist_trial,10.0,t_s_04_1,travel_shared,instant camera,6.0,competing,paired,t_s_04_1.jpg,Travel,,,sub-01
Desktop or Laptop,Windows 10,Chrome 137.0.0.0,1280x720,1280x720,Temporal Distance Task,cb_06,10.0,temp_dist_trial,dist_items,qkpkxw,2.0,response,29,3397.0,5478.599999999991,5493.699999999997,3397.0,5478.599999999991,5493.699999999997,1.0,2096.699999999997,0.0,,Slider,Slider,4.0,object-56,temp_dist_trial,10.0,t_s_04_1,travel_shared,instant camera,6.0,competing,paired,t_s_04_1.jpg,Travel,,,sub-01
Desktop or Laptop,Windows 10,Chrome 137.0.0.0,1280x720,1280x720,Temporal Distance Task,cb_06,11.0,temp_dist_trial,num_items,zn7si1,1.0,response,2_ITEM,2043.1000000000056,2031.5,2043.1000000000056,2043.1000000000056,2031.5,2043.1000000000056,1.0,0.0,0.0,,Click Response,2_count,5.0,object-49,temp_dist_trial,11.0,t_m_20_1,travel_Miami,inflatable beachball,6.0,unique,paired,t_m_20_1.jpg,Travel,,,sub-01
Desktop or Laptop,Windows 10,Chrome 137.0.0.0,1280x720,1280x720,Temporal Distance Task,cb_06,11.0,temp_dist_trial,dist_items,qkpkxw,2.0,info,,5.999999994033715,0.0,5.999999994033715,5.999999994033715,0.0,5.999999994033715,1.0,0.0,0.0,,Slider,Slider,4.0,object-56,temp_dist_trial,11.0,t_m_20_1,travel_Miami,inflatable beachball,6.0,unique,paired,t_m_20_1.jpg,Travel,,,sub-01
Desktop or Laptop,Windows 10,Chrome 137.0.0.0,1280x720,1280x720,Temporal Distance Task,cb_06,11.0,temp_dist_trial,dist_items,qkpkxw,2.0,continue,,3865.8000000059546,3863.299999999989,3865.8000000059546,3865.8000000059546,3863.299999999989,3865.8000000059546,1.0,0.0,0.0,,Click To Continue,Next button,7.0,object-60,temp_dist_trial,11.0,t_m_20_1,travel_Miami,inflatable beachball,6.0,unique,paired,t_m_20_1.jpg,Travel,,,sub-01
Desktop or Laptop,Windows 10,Chrome 137.0.0.0,1280x720,1280x720,Temporal Distance Task,cb_06,11.0,temp_dist_trial,dist_items,qkpkxw,2.0,response,38,2164.7999999999884,3863.299999999989,3866.200000011915,2164.7999999999884,3863.299999999989,3866.200000011915,1.0,1701.400000011927,0.0,,Slider,Slider,4.0,object-56,temp_dist_trial,11.0,t_m_20_1,travel_Miami,inflatable beachball,6.0,unique,paired,t_m_20_1.jpg,Travel,,,sub-01
Desktop or Laptop,Windows 10,Chrome 137.0.0.0,1280x720,1280x720,Temporal Distance Task,cb_06,12.0,temp_dist_trial,num_items,zn7si1,1.0,response,2_ITEM,1634.900000011927,1631.900000000009,1634.900000011927,1634.900000011927,1631.900000000009,1634.900000011927,1.0,0.0,0.0,,Click Response,2_count,5.0,object-49,temp_dist_trial,12.0,t_m_11_1,travel_Miami,collapsible beach chair,6.0,unique,paired,t_m_11_1.jpg,Travel,,,sub-01
Desktop or Laptop,Windows 10,Chrome 137.0.0.0,1280x720,1280x720,Temporal Distance Task,cb_06,12.0,temp_dist_trial,dist_items,qkpkxw,2.0,info,,7.700000011915108,0.0,7.700000011915108,7.700000011915108,0.0,7.700000011915108,1.0,0.0,0.0,,Slider,Slider,4.0,object-56,temp_dist_trial,12.0,t_m_11_1,travel_Miami,collapsible beach chair,6.0,unique,paired,t_m_11_1.jpg,Travel,,,sub-01
Desktop or Laptop,Windows 10,Chrome 137.0.0.0,1280x720,1280x720,Temporal Distance Task,cb_06,12.0,temp_dist_trial,dist_items,qkpkxw,2.0,continue,,2624.100000017876,2613.2999999999884,2624.100000017876,2624.100000017876,2613.2999999999884,2624.100000017876,1.0,0.0,0.0,,Click To Continue,Next button,7.0,object-60,temp_dist_trial,12.0,t_m_11_1,travel_Miami,collapsible beach chair,6.0,unique,paired,t_m_11_1.jpg,Travel,,,sub-01
Desktop or Laptop,Windows 10,Chrome 137.0.0.0,1280x720,1280x720,Temporal Distance Task,cb_06,12.0,temp_dist_trial,dist_items,qkpkxw,2.0,response,38,1347.8999999999942,2613.2999999999884,2628.9999999940337,1347.8999999999942,2613.2999999999884,2628.9999999940337,1.0,1281.0999999940395,0.0,,Slider,Slider,4.0,object-56,temp_dist_trial,12.0,t_m_11_1,travel_Miami,collapsible beach chair,6.0,unique,paired,t_m_11_1.jpg,Travel,,,sub-01
Desktop or Laptop,Windows 10,Chrome 137.0.0.0,1280x720,1280x720,Temporal Distance Task,cb_06,13.0,temp_dist_trial,num_items,zn7si1,1.0,response,1_ITEM,1580.8000000178872,1565.400000000009,1580.8000000178872,1580.8000000178872,1565.400000000009,1580.8000000178872,1.0,0.0,0.0,,Click Response,1_count,3.0,object-46,temp_dist_trial,13.0,t_s_22_1,travel_shared,belt,6.0,competing,single,t_s_22_1.jpg,Travel,,,sub-01
Desktop or Laptop,Windows 10,Chrome 137.0.0.0,1280x720,1280x720,Temporal Distance Task,cb_06,14.0,temp_dist_trial,num_items,zn7si1,1.0,response,2_ITEM,1579.8000000059546,1565.1999999999966,1579.8000000059546,1579.8000000059546,1565.1999999999966,1579.8000000059546,1.0,0.0,0.0,,Click Response,2_count,5.0,object-49,temp_dist_trial,14.0,t_i_13_1,travel_Iceland,sleeping bag,6.0,unique,single,t_i_13_1.jpg,Travel,,,sub-01
Desktop or Laptop,Windows 10,Chrome 137.0.0.0,1280x720,1280x720,Temporal Distance Task,cb_06,14.0,temp_dist_trial,dist_items,qkpkxw,2.0,info,,8.899999999994181,0.0,8.899999999994181,8.899999999994181,0.0,8.899999999994181,1.0,0.0,0.0,,Slider,Slider,4.0,object-56,temp_dist_trial,14.0,t_i_13_1,travel_Iceland,sleeping bag,6.0,unique,single,t_i_13_1.jpg,Travel,,,sub-01
Desktop or Laptop,Windows 10,Chrome 137.0.0.0,1280x720,1280x720,Temporal Distance Task,cb_06,14.0,temp_dist_trial,dist_items,qkpkxw,2.0,continue,,2828.700000011915,2814.199999999997,2828.700000011915,2828.700000011915,2814.199999999997,2828.700000011915,1.0,0.0,0.0,,Click To Continue,Next button,7.0,object-60,temp_dist_trial,14.0,t_i_13_1,travel_Iceland,sleeping bag,6.0,unique,single,t_i_13_1.jpg,Travel,,,sub-01
Desktop or Laptop,Windows 10,Chrome 137.0.0.0,1280x720,1280x720,Temporal Distance Task,cb_06,14.0,temp_dist_trial,dist_items,qkpkxw,2.0,response,40,1332.1999999999969,2814.199999999997,2829.3000000059546,1332.1999999999969,2814.199999999997,2829.3000000059546,1.0,1497.1000000059576,0.0,,Slider,Slider,4.0,object-56,temp_dist_trial,14.0,t_i_13_1,travel_Iceland,sleeping bag,6.0,unique,single,t_i_13_1.jpg,Travel,,,sub-01
Desktop or Laptop,Windows 10,Chrome 137.0.0.0,1280x720,1280x720,Temporal Distance Task,cb_06,15.0,temp_dist_trial,num_items,zn7si1,1.0,response,2_ITEM,1334.500000011918,1332.1999999999969,1334.500000011918,1334.500000011918,1332.1999999999969,1334.500000011918,1.0,0.0,0.0,,Click Response,2_count,5.0,object-49,temp_dist_trial,15.0,t_s_06_1,travel_shared,luggage,6.0,competing,paired,t_s_06_1.jpg,Travel,,,sub-01
Desktop or Laptop,Windows 10,Chrome 137.0.0.0,1280x720,1280x720,Temporal Distance Task,cb_06,15.0,temp_dist_trial,dist_items,qkpkxw,2.0,info,,9.700000005963377,0.0,9.700000005963377,9.700000005963377,0.0,9.700000005963377,1.0,0.0,0.0,,Slider,Slider,4.0,object-56,temp_dist_trial,15.0,t_s_06_1,travel_shared,luggage,6.0,competing,paired,t_s_06_1.jpg,Travel,,,sub-01
Desktop or Laptop,Windows 10,Chrome 137.0.0.0,1280x720,1280x720,Temporal Distance Task,cb_06,15.0,temp_dist_trial,dist_items,qkpkxw,2.0,continue,,3507.100000011924,3497.0,3507.100000011924,3507.100000011924,3497.0,3507.100000011924,1.0,0.0,0.0,,Click To Continue,Next button,7.0,object-60,temp_dist_trial,15.0,t_s_06_1,travel_shared,luggage,6.0,competing,paired,t_s_06_1.jpg,Travel,,,sub-01
Desktop or Laptop,Windows 10,Chrome 137.0.0.0,1280x720,1280x720,Temporal Distance Task,cb_06,15.0,temp_dist_trial,dist_items,qkpkxw,2.0,response,43,1165.6999999999969,3497.0,3513.300000000003,1165.6999999999969,3497.0,3513.300000000003,1.0,2347.6000000000063,0.0,,Slider,Slider,4.0,object-56,temp_dist_trial,15.0,t_s_06_1,travel_shared,luggage,6.0,competing,paired,t_s_06_1.jpg,Travel,,,sub-01
Desktop or Laptop,Windows 10,Chrome 137.0.0.0,1280x720,1280x720,Temporal Distance Task,cb_06,16.0,temp_dist_trial,num_items,zn7si1,1.0,response,1_ITEM,1598.6000000000204,1581.900000000009,1598.6000000000204,1598.6000000000204,1581.900000000009,1598.6000000000204,1.0,0.0,0.0,,Click Response,1_count,3.0,object-46,temp_dist_trial,16.0,t_i_09_1,travel_Iceland,ear muffs,6.0,unique,single,t_i_09_1.jpg,Travel,,,sub-01
Desktop or Laptop,Windows 10,Chrome 137.0.0.0,1280x720,1280x720,Temporal Distance Task,cb_06,17.0,temp_dist_trial,num_items,zn7si1,1.0,response,2_ITEM,2336.5000000059663,2331.3999999999937,2336.5000000059663,2336.5000000059663,2331.3999999999937,2336.5000000059663,1.0,0.0,0.0,,Click Response,2_count,5.0,object-49,temp_dist_trial,17.0,t_i_03_1,travel_Iceland,winter jacket,6.0,unique,paired,t_i_03_1.jpg,Travel,,,sub-01
Desktop or Laptop,Windows 10,Chrome 137.0.0.0,1280x720,1280x720,Temporal Distance Task,cb_06,17.0,temp_dist_trial,dist_items,qkpkxw,2.0,info,,7.5999999940395355,0.0,7.5999999940395355,7.5999999940395355,0.0,7.5999999940395355,1.0,0.0,0.0,,Slider,Slider,4.0,object-56,temp_dist_trial,17.0,t_i_03_1,travel_Iceland,winter jacket,6.0,unique,paired,t_i_03_1.jpg,Travel,,,sub-01
Desktop or Laptop,Windows 10,Chrome 137.0.0.0,1280x720,1280x720,Temporal Distance Task,cb_06,17.0,temp_dist_trial,dist_items,qkpkxw,2.0,continue,,2693.200000017881,2681.1000000000063,2693.200000017881,2693.200000017881,2681.1000000000063,2693.200000017881,1.0,0.0,0.0,,Click To Continue,Next button,7.0,object-60,temp_dist_trial,17.0,t_i_03_1,travel_Iceland,winter jacket,6.0,unique,paired,t_i_03_1.jpg,Travel,,,sub-01
Desktop or Laptop,Windows 10,Chrome 137.0.0.0,1280x720,1280x720,Temporal Distance Task,cb_06,17.0,temp_dist_trial,dist_items,qkpkxw,2.0,response,58,1365.6000000000058,2681.1000000000063,2693.700000017881,1365.6000000000058,2681.1000000000063,2693.700000017881,1.0,1328.1000000178756,0.0,,Slider,Slider,4.0,object-56,temp_dist_trial,17.0,t_i_03_1,travel_Iceland,winter jacket,6.0,unique,paired,t_i_03_1.jpg,Travel,,,sub-01
Desktop or Laptop,Windows 10,Chrome 137.0.0.0,1280x720,1280x720,Temporal Distance Task,cb_06,18.0,temp_dist_trial,num_items,zn7si1,1.0,response,1_ITEM,2219.9999999940337,2214.6000000000063,2219.9999999940337,2219.9999999940337,2214.6000000000063,2219.9999999940337,1.0,0.0,0.0,,Click Response,1_count,3.0,object-46,temp_dist_trial,18.0,t_i_15_1,travel_Iceland,compass,6.0,unique,single,t_i_15_1.jpg,Travel,,,sub-01
Desktop or Laptop,Windows 10,Chrome 137.0.0.0,1280x720,1280x720,Temporal Distance Task,cb_06,19.0,temp_dist_trial,num_items,zn7si1,1.0,response,2_ITEM,1786.7000000178814,1781.7999999999884,1786.7000000178814,1786.7000000178814,1781.7999999999884,1786.7000000178814,1.0,0.0,0.0,,Click Response,2_count,5.0,object-49,temp_dist_trial,19.0,t_i_06_1,travel_Iceland,knit hat,6.0,unique,paired,t_i_06_1.jpg,Travel,,,sub-01
Desktop or Laptop,Windows 10,Chrome 137.0.0.0,1280x720,1280x720,Temporal Distance Task,cb_06,19.0,temp_dist_trial,dist_items,qkpkxw,2.0,info,,5.399999999994179,0.0,5.399999999994179,5.399999999994179,0.0,5.399999999994179,1.0,0.0,0.0,,Slider,Slider,4.0,object-56,temp_dist_trial,19.0,t_i_06_1,travel_Iceland,knit hat,6.0,unique,paired,t_i_06_1.jpg,Travel,,,sub-01
Desktop or Laptop,Windows 10,Chrome 137.0.0.0,1280x720,1280x720,Temporal Distance Task,cb_06,19.0,temp_dist_trial,dist_items,qkpkxw,2.0,continue,,2395.600000017876,2381.1999999999825,2395.600000017876,2395.600000017876,2381.1999999999825,2395.600000017876,1.0,0.0,0.0,,Click To Continue,Next button,7.0,object-60,temp_dist_trial,19.0,t_i_06_1,travel_Iceland,knit hat,6.0,unique,paired,t_i_06_1.jpg,Travel,,,sub-01
Desktop or Laptop,Windows 10,Chrome 137.0.0.0,1280x720,1280x720,Temporal Distance Task,cb_06,19.0,temp_dist_trial,dist_items,qkpkxw,2.0,response,42,1182.2999999999886,2381.1999999999825,2395.9999999940337,1182.2999999999886,2381.1999999999825,2395.9999999940337,1.0,1213.6999999940456,0.0,,Slider,Slider,4.0,object-56,temp_dist_trial,19.0,t_i_06_1,travel_Iceland,knit hat,6.0,unique,paired,t_i_06_1.jpg,Travel,,,sub-01
Desktop or Laptop,Windows 10,Chrome 137.0.0.0,1280x720,1280x720,Temporal Distance Task,cb_06,20.0,temp_dist_trial,num_items,zn7si1,1.0,response,2_ITEM,1717.2999999940512,1714.4000000000233,1717.2999999940512,1717.2999999940512,1714.4000000000233,1717.2999999940512,1.0,0.0,0.0,,Click Response,2_count,5.0,object-49,temp_dist_trial,20.0,t_s_03_1,travel_shared,portable charger,6.0,competing,paired,t_s_03_1.jpg,Travel,,,sub-01
Desktop or Laptop,Windows 10,Chrome 137.0.0.0,1280x720,1280x720,Temporal Distance Task,cb_06,20.0,temp_dist_trial,dist_items,qkpkxw,2.0,info,,5.500000005966285,0.0,5.500000005966285,5.500000005966285,0.0,5.500000005966285,1.0,0.0,0.0,,Slider,Slider,4.0,object-56,temp_dist_trial,20.0,t_s_03_1,travel_shared,portable charger,6.0,competing,paired,t_s_03_1.jpg,Travel,,,sub-01
Desktop or Laptop,Windows 10,Chrome 137.0.0.0,1280x720,1280x720,Temporal Distance Task,cb_06,20.0,temp_dist_trial,dist_items,qkpkxw,2.0,continue,,2618.699999994045,2614.3999999999937,2618.699999994045,2618.699999994045,2614.3999999999937,2618.699999994045,1.0,0.0,0.0,,Click To Continue,Next button,7.0,object-60,temp_dist_trial,20.0,t_s_03_1,travel_shared,portable charger,6.0,competing,paired,t_s_03_1.jpg,Travel,,,sub-01
Desktop or Laptop,Windows 10,Chrome 137.0.0.0,1280x720,1280x720,Temporal Distance Task,cb_06,20.0,temp_dist_trial,dist_items,qkpkxw,2.0,response,41,1182.3000000000175,2614.3999999999937,2620.199999994045,1182.3000000000175,2614.3999999999937,2620.199999994045,1.0,1437.8999999940281,0.0,,Slider,Slider,4.0,object-56,temp_dist_trial,20.0,t_s_03_1,travel_shared,portable charger,6.0,competing,paired,t_s_03_1.jpg,Travel,,,sub-01
Desktop or Laptop,Windows 10,Chrome 137.0.0.0,1280x720,1280x720,Temporal Distance Task,cb_06,21.0,temp_dist_trial,num_items,zn7si1,1.0,response,2_ITEM,1546.6000000059719,1532.0,1546.6000000059719,1546.6000000059719,1532.0,1546.6000000059719,1.0,0.0,0.0,,Click Response,2_count,5.0,object-49,temp_dist_trial,21.0,t_s_24_1,travel_shared,ear plugs,6.0,competing,paired,t_s_24_1.jpg,Travel,,,sub-01
Desktop or Laptop,Windows 10,Chrome 137.0.0.0,1280x720,1280x720,Temporal Distance Task,cb_06,21.0,temp_dist_trial,dist_items,qkpkxw,2.0,info,,6.300000011920929,0.0,6.300000011920929,6.300000011920929,0.0,6.300000011920929,1.0,0.0,0.0,,Slider,Slider,4.0,object-56,temp_dist_trial,21.0,t_s_24_1,travel_shared,ear plugs,6.0,competing,paired,t_s_24_1.jpg,Travel,,,sub-01
Desktop or Laptop,Windows 10,Chrome 137.0.0.0,1280x720,1280x720,Temporal Distance Task,cb_06,21.0,temp_dist_trial,dist_items,qkpkxw,2.0,continue,,2471.300000011921,2464.6000000000063,2471.300000011921,2471.300000011921,2464.6000000000063,2471.300000011921,1.0,0.0,0.0,,Click To Continue,Next button,7.0,object-60,temp_dist_trial,21.0,t_s_24_1,travel_shared,ear plugs,6.0,competing,paired,t_s_24_1.jpg,Travel,,,sub-01
Desktop or Laptop,Windows 10,Chrome 137.0.0.0,1280x720,1280x720,Temporal Distance Task,cb_06,21.0,temp_dist_trial,dist_items,qkpkxw,2.0,response,41,1015.7999999999884,2464.6000000000063,2475.700000017881,1015.7999999999884,2464.6000000000063,2475.700000017881,1.0,1459.900000017893,0.0,,Slider,Slider,4.0,object-56,temp_dist_trial,21.0,t_s_24_1,travel_shared,ear plugs,6.0,competing,paired,t_s_24_1.jpg,Travel,,,sub-01
Desktop or Laptop,Windows 10,Chrome 137.0.0.0,1280x720,1280x720,Temporal Distance Task,cb_06,22.0,temp_dist_trial,num_items,zn7si1,1.0,response,1_ITEM,2292.700000011915,2281.1999999999825,2292.700000011915,2292.700000011915,2281.1999999999825,2292.700000011915,1.0,0.0,0.0,,Click Response,1_count,3.0,object-46,temp_dist_trial,22.0,t_m_09_1,travel_Miami,beach towel,6.0,unique,paired,t_m_09_1.jpg,Travel,,,sub-01
Desktop or Laptop,Windows 10,Chrome 137.0.0.0,1280x720,1280x720,Temporal Distance Task,cb_06,23.0,temp_dist_trial,num_items,zn7si1,1.0,response,2_ITEM,1387.1000000178753,1382.1000000000058,1387.1000000178753,1387.1000000178753,1382.1000000000058,1387.1000000178753,1.0,0.0,0.0,,Click Response,2_count,5.0,object-49,temp_dist_trial,23.0,t_s_20_1,travel_shared,travel pill case,6.0,competing,single,t_s_20_1.jpg,Travel,,,sub-01
Desktop or Laptop,Windows 10,Chrome 137.0.0.0,1280x720,1280x720,Temporal Distance Task,cb_06,23.0,temp_dist_trial,dist_items,qkpkxw,2.0,info,,4.5,0.0,4.5,4.5,0.0,4.5,1.0,0.0,0.0,,Slider,Slider,4.0,object-56,temp_dist_trial,23.0,t_s_20_1,travel_shared,travel pill case,6.0,competing,single,t_s_20_1.jpg,Travel,,,sub-01
Desktop or Laptop,Windows 10,Chrome 137.0.0.0,1280x720,1280x720,Temporal Distance Task,cb_06,23.0,temp_dist_trial,dist_items,qkpkxw,2.0,continue,,2505.5999999940395,2497.0,2505.5999999940395,2505.5999999940395,2497.0,2505.5999999940395,1.0,0.0,0.0,,Click To Continue,Next button,7.0,object-60,temp_dist_trial,23.0,t_s_20_1,travel_shared,travel pill case,6.0,competing,single,t_s_20_1.jpg,Travel,,,sub-01
Desktop or Laptop,Windows 10,Chrome 137.0.0.0,1280x720,1280x720,Temporal Distance Task,cb_06,23.0,temp_dist_trial,dist_items,qkpkxw,2.0,response,36,1315.5,2497.0,2506.200000017881,1315.5,2497.0,2506.200000017881,1.0,1190.7000000178814,0.0,,Slider,Slider,4.0,object-56,temp_dist_trial,23.0,t_s_20_1,travel_shared,travel pill case,6.0,competing,single,t_s_20_1.jpg,Travel,,,sub-01
Desktop or Laptop,Windows 10,Chrome 137.0.0.0,1280x720,1280x720,Temporal Distance Task,cb_06,24.0,temp_dist_trial,num_items,zn7si1,1.0,response,2_ITEM,2940.200000017881,2930.7999999999884,2940.200000017881,2940.200000017881,2930.7999999999884,2940.200000017881,1.0,0.0,0.0,,Click Response,2_count,5.0,object-49,temp_dist_trial,24.0,t_m_12_1,travel_Miami,foldable pail and shovel,6.0,unique,single,t_m_12_1.jpg,Travel,,,sub-01
Desktop or Laptop,Windows 10,Chrome 137.0.0.0,1280x720,1280x720,Temporal Distance Task,cb_06,24.0,temp_dist_trial,dist_items,qkpkxw,2.0,info,,6.7000000178813925,0.0,6.7000000178813925,6.7000000178813925,0.0,6.7000000178813925,1.0,0.0,0.0,,Slider,Slider,4.0,object-56,temp_dist_trial,24.0,t_m_12_1,travel_Miami,foldable pail and shovel,6.0,unique,single,t_m_12_1.jpg,Travel,,,sub-01
Desktop or Laptop,Windows 10,Chrome 137.0.0.0,1280x720,1280x720,Temporal Distance Task,cb_06,24.0,temp_dist_trial,dist_items,qkpkxw,2.0,continue,,3684.5,3680.200000000012,3684.5,3684.5,3680.200000000012,3684.5,1.0,0.0,0.0,,Click To Continue,Next button,7.0,object-60,temp_dist_trial,24.0,t_m_12_1,travel_Miami,foldable pail and shovel,6.0,unique,single,t_m_12_1.jpg,Travel,,,sub-01
Desktop or Laptop,Windows 10,Chrome 137.0.0.0,1280x720,1280x720,Temporal Distance Task,cb_06,24.0,temp_dist_trial,dist_items,qkpkxw,2.0,response,44,1199.0,3680.200000000012,3689.0,1199.0,3680.200000000012,3689.0,1.0,2490.0,0.0,,Slider,Slider,4.0,object-56,temp_dist_trial,24.0,t_m_12_1,travel_Miami,foldable pail and shovel,6.0,unique,single,t_m_12_1.jpg,Travel,,,sub-01
Desktop or Laptop,Windows 10,Chrome 137.0.0.0,1280x720,1280x720,Temporal Distance Task,cb_06,25.0,temp_dist_trial,num_items,zn7si1,1.0,response,2_ITEM,2004.6000000119093,1998.0999999999767,2004.6000000119093,2004.6000000119093,1998.0999999999767,2004.6000000119093,1.0,0.0,0.0,,Click Response,2_count,5.0,object-49,temp_dist_trial,25.0,t_i_07_1,travel_Iceland,hiking backpack,6.0,unique,paired,t_i_07_1.jpg,Travel,,,sub-01
Desktop or Laptop,Windows 10,Chrome 137.0.0.0,1280x720,1280x720,Temporal Distance Task,cb_06,25.0,temp_dist_trial,dist_items,qkpkxw,2.0,info,,6.200000005948822,0.0,6.200000005948822,6.200000005948822,0.0,6.200000005948822,1.0,0.0,0.0,,Slider,Slider,4.0,object-56,temp_dist_trial,25.0,t_i_07_1,travel_Iceland,hiking backpack,6.0,unique,paired,t_i_07_1.jpg,Travel,,,sub-01
Desktop or Laptop,Windows 10,Chrome 137.0.0.0,1280x720,1280x720,Temporal Distance Task,cb_06,25.0,temp_dist_trial,dist_items,qkpkxw,2.0,continue,,3660.5000000178693,3646.699999999983,3660.5000000178693,3660.5000000178693,3646.699999999983,3660.5000000178693,1.0,0.0,0.0,,Click To Continue,Next button,7.0,object-60,temp_dist_trial,25.0,t_i_07_1,travel_Iceland,hiking backpack,6.0,unique,paired,t_i_07_1.jpg,Travel,,,sub-01
Desktop or Laptop,Windows 10,Chrome 137.0.0.0,1280x720,1280x720,Temporal Distance Task,cb_06,25.0,temp_dist_trial,dist_items,qkpkxw,2.0,response,39,1049.0,3646.699999999983,3661.0000000178693,1049.0,3646.699999999983,3661.0000000178693,1.0,2612.0000000178698,0.0,,Slider,Slider,4.0,object-56,temp_dist_trial,25.0,t_i_07_1,travel_Iceland,hiking backpack,6.0,unique,paired,t_i_07_1.jpg,Travel,,,sub-01
Desktop or Laptop,Windows 10,Chrome 137.0.0.0,1280x720,1280x720,Temporal Distance Task,cb_06,26.0,temp_dist_trial,num_items,zn7si1,1.0,response,2_ITEM,1485.900000011927,1481.2000000000116,1485.900000011927,1485.900000011927,1481.2000000000116,1485.900000011927,1.0,0.0,0.0,,Click Response,2_count,5.0,object-49,temp_dist_trial,26.0,t_m_04_1,travel_Miami,UV jacket,6.0,unique,paired,t_m_04_1.jpg,Travel,,,sub-01
Desktop or Laptop,Windows 10,Chrome 137.0.0.0,1280x720,1280x720,Temporal Distance Task,cb_06,26.0,temp_dist_trial,dist_items,qkpkxw,2.0,info,,4.6000000000058225,0.0,4.6000000000058225,4.6000000000058225,0.0,4.6000000000058225,1.0,0.0,0.0,,Slider,Slider,4.0,object-56,temp_dist_trial,26.0,t_m_04_1,travel_Miami,UV jacket,6.0,unique,paired,t_m_04_1.jpg,Travel,,,sub-01
Desktop or Laptop,Windows 10,Chrome 137.0.0.0,1280x720,1280x720,Temporal Distance Task,cb_06,26.0,temp_dist_trial,dist_items,qkpkxw,2.0,continue,,3212.3000000178868,3197.200000000012,3212.3000000178868,3212.3000000178868,3197.200000000012,3212.3000000178868,1.0,0.0,0.0,,Click To Continue,Next button,7.0,object-60,temp_dist_trial,26.0,t_m_04_1,travel_Miami,UV jacket,6.0,unique,paired,t_m_04_1.jpg,Travel,,,sub-01
Desktop or Laptop,Windows 10,Chrome 137.0.0.0,1280x720,1280x720,Temporal Distance Task,cb_06,26.0,temp_dist_trial,dist_items,qkpkxw,2.0,response,32,2198.0,3197.200000000012,3214.000000000029,2198.0,3197.200000000012,3214.000000000029,1.0,1016.0000000000293,0.0,,Slider,Slider,4.0,object-56,temp_dist_trial,26.0,t_m_04_1,travel_Miami,UV jacket,6.0,unique,paired,t_m_04_1.jpg,Travel,,,sub-01
Desktop or Laptop,Windows 10,Chrome 137.0.0.0,1280x720,1280x720,Temporal Distance Task,cb_06,27.0,temp_dist_trial,num_items,zn7si1,1.0,response,2_ITEM,2053.8000000059546,2048.1000000000063,2053.8000000059546,2053.8000000059546,2048.1000000000063,2053.8000000059546,1.0,0.0,0.0,,Click Response,2_count,5.0,object-49,temp_dist_trial,27.0,t_i_02_1,travel_Iceland,scarf,6.0,unique,paired,t_i_02_1.jpg,Travel,,,sub-01
Desktop or Laptop,Windows 10,Chrome 137.0.0.0,1280x720,1280x720,Temporal Distance Task,cb_06,27.0,temp_dist_trial,dist_items,qkpkxw,2.0,info,,6.300000011920929,0.0,6.300000011920929,6.300000011920929,0.0,6.300000011920929,1.0,0.0,0.0,,Slider,Slider,4.0,object-56,temp_dist_trial,27.0,t_i_02_1,travel_Iceland,scarf,6.0,unique,paired,t_i_02_1.jpg,Travel,,,sub-01
Desktop or Laptop,Windows 10,Chrome 137.0.0.0,1280x720,1280x720,Temporal Distance Task,cb_06,27.0,temp_dist_trial,dist_items,qkpkxw,2.0,continue,,2141.700000017881,2131.3999999999937,2141.700000017881,2141.700000017881,2131.3999999999937,2141.700000017881,1.0,0.0,0.0,,Click To Continue,Next button,7.0,object-60,temp_dist_trial,27.0,t_i_02_1,travel_Iceland,scarf,6.0,unique,paired,t_i_02_1.jpg,Travel,,,sub-01
Desktop or Laptop,Windows 10,Chrome 137.0.0.0,1280x720,1280x720,Temporal Distance Task,cb_06,27.0,temp_dist_trial,dist_items,qkpkxw,2.0,response,34,1248.8999999999942,2131.3999999999937,2142.0999999940395,1248.8999999999942,2131.3999999999937,2142.0999999940395,1.0,893.1999999940454,0.0,,Slider,Slider,4.0,object-56,temp_dist_trial,27.0,t_i_02_1,travel_Iceland,scarf,6.0,unique,paired,t_i_02_1.jpg,Travel,,,sub-01
Desktop or Laptop,Windows 10,Chrome 137.0.0.0,1280x720,1280x720,Temporal Distance Task,cb_06,28.0,temp_dist_trial,num_items,zn7si1,1.0,response,1_ITEM,1079.6999999940454,1065.8000000000177,1079.6999999940454,1079.6999999940454,1065.8000000000177,1079.6999999940454,1.0,0.0,0.0,,Click Response,1_count,3.0,object-46,temp_dist_trial,28.0,t_s_01_1,travel_shared,fanny pack,6.0,competing,paired,t_s_01_1.jpg,Travel,,,sub-01
Desktop or Laptop,Windows 10,Chrome 137.0.0.0,1280x720,1280x720,Temporal Distance Task,cb_06,29.0,temp_dist_trial,num_items,zn7si1,1.0,response,1_ITEM,910.3000000119208,899.2000000000116,910.3000000119208,910.3000000119208,899.2000000000116,910.3000000119208,1.0,0.0,0.0,,Click Response,1_count,3.0,object-46,temp_dist_trial,29.0,t_s_21_1,travel_shared,umbrella,6.0,competing,paired,t_s_21_1.jpg,Travel,,,sub-01
Desktop or Laptop,Windows 10,Chrome 137.0.0.0,1280x720,1280x720,Temporal Distance Task,cb_06,30.0,temp_dist_trial,num_items,zn7si1,1.0,response,1_ITEM,1215.6999999999825,1199.0,1215.6999999999825,1215.6999999999825,1199.0,1215.6999999999825,1.0,0.0,0.0,,Click Response,1_count,3.0,object-46,temp_dist_trial,30.0,t_m_01_1,travel_Miami,sandals,6.0,unique,single,t_m_01_1.jpg,Travel,,,sub-01
Desktop or Laptop,Windows 10,Chrome 137.0.0.0,1280x720,1280x720,Temporal Distance Task,cb_06,31.0,temp_dist_trial,num_items,zn7si1,1.0,response,2_ITEM,1270.8999999999942,1265.6000000000058,1270.8999999999942,1270.8999999999942,1265.6000000000058,1270.8999999999942,1.0,0.0,0.0,,Click Response,2_count,5.0,object-49,temp_dist_trial,31.0,t_s_10_1,travel_shared,luggage lock,6.0,competing,paired,t_s_10_1.jpg,Travel,,,sub-01
Desktop or Laptop,Windows 10,Chrome 137.0.0.0,1280x720,1280x720,Temporal Distance Task,cb_06,31.0,temp_dist_trial,dist_items,qkpkxw,2.0,info,,6.600000017875573,0.0,6.600000017875573,6.600000017875573,0.0,6.600000017875573,1.0,0.0,0.0,,Slider,Slider,4.0,object-56,temp_dist_trial,31.0,t_s_10_1,travel_shared,luggage lock,6.0,competing,paired,t_s_10_1.jpg,Travel,,,sub-01
Desktop or Laptop,Windows 10,Chrome 137.0.0.0,1280x720,1280x720,Temporal Distance Task,cb_06,31.0,temp_dist_trial,dist_items,qkpkxw,2.0,continue,,2452.4999999940337,2447.7999999999884,2452.4999999940337,2452.4999999940337,2447.7999999999884,2452.4999999940337,1.0,0.0,0.0,,Click To Continue,Next button,7.0,object-60,temp_dist_trial,31.0,t_s_10_1,travel_shared,luggage lock,6.0,competing,paired,t_s_10_1.jpg,Travel,,,sub-01
Desktop or Laptop,Windows 10,Chrome 137.0.0.0,1280x720,1280x720,Temporal Distance Task,cb_06,31.0,temp_dist_trial,dist_items,qkpkxw,2.0,response,55,849.2999999999884,2447.7999999999884,2458.8000000059546,849.2999999999884,2447.7999999999884,2458.8000000059546,1.0,1609.5000000059665,0.0,,Slider,Slider,4.0,object-56,temp_dist_trial,31.0,t_s_10_1,travel_shared,luggage lock,6.0,competing,paired,t_s_10_1.jpg,Travel,,,sub-01
Desktop or Laptop,Windows 10,Chrome 137.0.0.0,1280x720,1280x720,Temporal Distance Task,cb_06,32.0,temp_dist_trial,num_items,zn7si1,1.0,response,2_ITEM,1663.8000000178872,1648.6000000000058,1663.8000000178872,1663.8000000178872,1648.6000000000058,1663.8000000178872,1.0,0.0,0.0,,Click Response,2_count,5.0,object-49,temp_dist_trial,32.0,t_s_12_1,travel_shared,clear toiletry bag,6.0,competing,paired,t_s_12_1.jpg,Travel,,,sub-01
Desktop or Laptop,Windows 10,Chrome 137.0.0.0,1280x720,1280x720,Temporal Distance Task,cb_06,32.0,temp_dist_trial,dist_items,qkpkxw,2.0,info,,6.299999999988358,0.0,6.299999999988358,6.299999999988358,0.0,6.299999999988358,1.0,0.0,0.0,,Slider,Slider,4.0,object-56,temp_dist_trial,32.0,t_s_12_1,travel_shared,clear toiletry bag,6.0,competing,paired,t_s_12_1.jpg,Travel,,,sub-01
Desktop or Laptop,Windows 10,Chrome 137.0.0.0,1280x720,1280x720,Temporal Distance Task,cb_06,32.0,temp_dist_trial,dist_items,qkpkxw,2.0,continue,,3326.5000000178693,3313.7999999999884,3326.5000000178693,3326.5000000178693,3313.7999999999884,3326.5000000178693,1.0,0.0,0.0,,Click To Continue,Next button,7.0,object-60,temp_dist_trial,32.0,t_s_12_1,travel_shared,clear toiletry bag,6.0,competing,paired,t_s_12_1.jpg,Travel,,,sub-01
Desktop or Laptop,Windows 10,Chrome 137.0.0.0,1280x720,1280x720,Temporal Distance Task,cb_06,32.0,temp_dist_trial,dist_items,qkpkxw,2.0,response,44,1415.5,3313.7999999999884,3327.399999994028,1415.5,3313.7999999999884,3327.399999994028,1.0,1911.8999999940281,0.0,,Slider,Slider,4.0,object-56,temp_dist_trial,32.0,t_s_12_1,travel_shared,clear toiletry bag,6.0,competing,paired,t_s_12_1.jpg,Travel,,,sub-01
Desktop or Laptop,Windows 10,Chrome 137.0.0.0,1280x720,1280x720,Temporal Distance Task,cb_06,33.0,temp_dist_trial,num_items,zn7si1,1.0,response,2_ITEM,1136.0,1132.3999999999942,1136.0,1136.0,1132.3999999999942,1136.0,1.0,0.0,0.0,,Click Response,2_count,5.0,object-49,temp_dist_trial,33.0,t_s_02_1,travel_shared,water bottle,6.0,competing,paired,t_s_02_1.jpg,Travel,,,sub-01
Desktop or Laptop,Windows 10,Chrome 137.0.0.0,1280x720,1280x720,Temporal Distance Task,cb_06,33.0,temp_dist_trial,dist_items,qkpkxw,2.0,info,,6.799999999988358,0.0,6.799999999988358,6.799999999988358,0.0,6.799999999988358,1.0,0.0,0.0,,Slider,Slider,4.0,object-56,temp_dist_trial,33.0,t_s_02_1,travel_shared,water bottle,6.0,competing,paired,t_s_02_1.jpg,Travel,,,sub-01
Desktop or Laptop,Windows 10,Chrome 137.0.0.0,1280x720,1280x720,Temporal Distance Task,cb_06,33.0,temp_dist_trial,dist_items,qkpkxw,2.0,continue,,2481.0,2464.3999999999937,2481.0,2481.0,2464.3999999999937,2481.0,1.0,0.0,0.0,,Click To Continue,Next button,7.0,object-60,temp_dist_trial,33.0,t_s_02_1,travel_shared,water bottle,6.0,competing,paired,t_s_02_1.jpg,Travel,,,sub-01
Desktop or Laptop,Windows 10,Chrome 137.0.0.0,1280x720,1280x720,Temporal Distance Task,cb_06,33.0,temp_dist_trial,dist_items,qkpkxw,2.0,response,57,1348.6999999999825,2464.3999999999937,2481.0,1348.6999999999825,2464.3999999999937,2481.0,1.0,1132.3000000000175,0.0,,Slider,Slider,4.0,object-56,temp_dist_trial,33.0,t_s_02_1,travel_shared,water bottle,6.0,competing,paired,t_s_02_1.jpg,Travel,,,sub-01
Desktop or Laptop,Windows 10,Chrome 137.0.0.0,1280x720,1280x720,Temporal Distance Task,cb_06,34.0,temp_dist_trial,num_items,zn7si1,1.0,response,1_ITEM,1065.6000000178756,1049.1000000000058,1065.6000000178756,1065.6000000178756,1049.1000000000058,1065.6000000178756,1.0,0.0,0.0,,Click Response,1_count,3.0,object-46,temp_dist_trial,34.0,t_s_17_1,travel_shared,toothbrush,6.0,competing,single,t_s_17_1.jpg,Travel,,,sub-01
Desktop or Laptop,Windows 10,Chrome 137.0.0.0,1280x720,1280x720,Temporal Distance Task,cb_06,35.0,temp_dist_trial,num_items,zn7si1,1.0,response,2_ITEM,1351.2000000178814,1348.7999999999886,1351.2000000178814,1351.2000000178814,1348.7999999999886,1351.2000000178814,1.0,0.0,0.0,,Click Response,2_count,5.0,object-49,temp_dist_trial,35.0,t_m_10_1,travel_Miami,tanktop,6.0,unique,paired,t_m_10_1.jpg,Travel,,,sub-01
Desktop or Laptop,Windows 10,Chrome 137.0.0.0,1280x720,1280x720,Temporal Distance Task,cb_06,35.0,temp_dist_trial,dist_items,qkpkxw,2.0,info,,5.000000017869752,0.0,5.000000017869752,5.000000017869752,0.0,5.000000017869752,1.0,0.0,0.0,,Slider,Slider,4.0,object-56,temp_dist_trial,35.0,t_m_10_1,travel_Miami,tanktop,6.0,unique,paired,t_m_10_1.jpg,Travel,,,sub-01
Desktop or Laptop,Windows 10,Chrome 137.0.0.0,1280x720,1280x720,Temporal Distance Task,cb_06,35.0,temp_dist_trial,dist_items,qkpkxw,2.0,continue,,1984.7000000059488,1981.5999999999767,1984.7000000059488,1984.7000000059488,1981.5999999999767,1984.7000000059488,1.0,0.0,0.0,,Click To Continue,Next button,7.0,object-60,temp_dist_trial,35.0,t_m_10_1,travel_Miami,tanktop,6.0,unique,paired,t_m_10_1.jpg,Travel,,,sub-01
Desktop or Laptop,Windows 10,Chrome 137.0.0.0,1280x720,1280x720,Temporal Distance Task,cb_06,35.0,temp_dist_trial,dist_items,qkpkxw,2.0,response,64,932.5,1981.5999999999767,1985.2000000059488,932.5,1981.5999999999767,1985.2000000059488,1.0,1052.7000000059488,0.0,,Slider,Slider,4.0,object-56,temp_dist_trial,35.0,t_m_10_1,travel_Miami,tanktop,6.0,unique,paired,t_m_10_1.jpg,Travel,,,sub-01
Desktop or Laptop,Windows 10,Chrome 137.0.0.0,1280x720,1280x720,Temporal Distance Task,cb_06,36.0,temp_dist_trial,num_items,zn7si1,1.0,response,1_ITEM,1237.2999999940512,1232.3000000000175,1237.2999999940512,1237.2999999940512,1232.3000000000175,1237.2999999940512,1.0,0.0,0.0,,Click Response,1_count,3.0,object-46,temp_dist_trial,36.0,t_s_16_1,travel_shared,chapstick,6.0,competing,paired,t_s_16_1.jpg,Travel,,,sub-01
Desktop or Laptop,Windows 10,Chrome 137.0.0.0,1280x720,1280x720,Temporal Distance Task,cb_06,37.0,temp_dist_trial,num_items,zn7si1,1.0,response,1_ITEM,2801.100000005972,2797.6000000000067,2801.100000005972,2801.100000005972,2797.6000000000067,2801.100000005972,1.0,0.0,0.0,,Click Response,1_count,3.0,object-46,temp_dist_trial,37.0,t_s_08_1,travel_shared,hand lotion,6.0,competing,single,t_s_08_1.jpg,Travel,,,sub-01
Desktop or Laptop,Windows 10,Chrome 137.0.0.0,1280x720,1280x720,Temporal Distance Task,cb_06,38.0,temp_dist_trial,num_items,zn7si1,1.0,response,1_ITEM,2015.0,1998.2999999999884,2015.0,2015.0,1998.2999999999884,2015.0,1.0,0.0,0.0,,Click Response,1_count,3.0,object-46,temp_dist_trial,38.0,t_m_17_1,travel_Miami,water gun,6.0,unique,single,t_m_17_1.jpg,Travel,,,sub-01
Desktop or Laptop,Windows 10,Chrome 137.0.0.0,1280x720,1280x720,Temporal Distance Task,cb_06,39.0,temp_dist_trial,num_items,zn7si1,1.0,response,2_ITEM,1434.3999999940281,1432.0,1434.3999999940281,1434.3999999940281,1432.0,1434.3999999940281,1.0,0.0,0.0,,Click Response,2_count,5.0,object-49,temp_dist_trial,39.0,t_m_05_1,travel_Miami,sunscreen,6.0,unique,paired,t_m_05_1.jpg,Travel,,,sub-01
Desktop or Laptop,Windows 10,Chrome 137.0.0.0,1280x720,1280x720,Temporal Distance Task,cb_06,39.0,temp_dist_trial,dist_items,qkpkxw,2.0,info,,5.200000011915108,0.0,5.200000011915108,5.200000011915108,0.0,5.200000011915108,1.0,0.0,0.0,,Slider,Slider,4.0,object-56,temp_dist_trial,39.0,t_m_05_1,travel_Miami,sunscreen,6.0,unique,paired,t_m_05_1.jpg,Travel,,,sub-01
Desktop or Laptop,Windows 10,Chrome 137.0.0.0,1280x720,1280x720,Temporal Distance Task,cb_06,39.0,temp_dist_trial,dist_items,qkpkxw,2.0,continue,,3873.700000011915,3863.199999999983,3873.700000011915,3873.700000011915,3863.199999999983,3873.700000011915,1.0,0.0,0.0,,Click To Continue,Next button,7.0,object-60,temp_dist_trial,39.0,t_m_05_1,travel_Miami,sunscreen,6.0,unique,paired,t_m_05_1.jpg,Travel,,,sub-01
Desktop or Laptop,Windows 10,Chrome 137.0.0.0,1280x720,1280x720,Temporal Distance Task,cb_06,39.0,temp_dist_trial,dist_items,qkpkxw,2.0,response,46,815.8999999999942,3863.199999999983,3873.9999999940333,815.8999999999942,3863.199999999983,3873.9999999940333,1.0,3058.0999999940386,0.0,,Slider,Slider,4.0,object-56,temp_dist_trial,39.0,t_m_05_1,travel_Miami,sunscreen,6.0,unique,paired,t_m_05_1.jpg,Travel,,,sub-01
Desktop or Laptop,Windows 10,Chrome 137.0.0.0,1280x720,1280x720,Temporal Distance Task,cb_06,40.0,temp_dist_trial,num_items,zn7si1,1.0,response,2_ITEM,1512.6000000059719,1497.9000000000233,1512.6000000059719,1512.6000000059719,1497.9000000000233,1512.6000000059719,1.0,0.0,0.0,,Click Response,2_count,5.0,object-49,temp_dist_trial,40.0,t_i_17_1,travel_Iceland,binoculars,6.0,unique,paired,t_i_17_1.jpg,Travel,,,sub-01
Desktop or Laptop,Windows 10,Chrome 137.0.0.0,1280x720,1280x720,Temporal Distance Task,cb_06,40.0,temp_dist_trial,dist_items,qkpkxw,2.0,info,,6.699999994045356,0.0,6.699999994045356,6.699999994045356,0.0,6.699999994045356,1.0,0.0,0.0,,Slider,Slider,4.0,object-56,temp_dist_trial,40.0,t_i_17_1,travel_Iceland,binoculars,6.0,unique,paired,t_i_17_1.jpg,Travel,,,sub-01
Desktop or Laptop,Windows 10,Chrome 137.0.0.0,1280x720,1280x720,Temporal Distance Task,cb_06,40.0,temp_dist_trial,dist_items,qkpkxw,2.0,continue,,2126.8000000178868,2114.8000000000175,2126.8000000178868,2126.8000000178868,2114.8000000000175,2126.8000000178868,1.0,0.0,0.0,,Click To Continue,Next button,7.0,object-60,temp_dist_trial,40.0,t_i_17_1,travel_Iceland,binoculars,6.0,unique,paired,t_i_17_1.jpg,Travel,,,sub-01
Desktop or Laptop,Windows 10,Chrome 137.0.0.0,1280x720,1280x720,Temporal Distance Task,cb_06,40.0,temp_dist_trial,dist_items,qkpkxw,2.0,response,61,1065.7000000000116,2114.8000000000175,2127.5000000059663,1065.7000000000116,2114.8000000000175,2127.5000000059663,1.0,1061.8000000059546,0.0,,Slider,Slider,4.0,object-56,temp_dist_trial,40.0,t_i_17_1,travel_Iceland,binoculars,6.0,unique,paired,t_i_17_1.jpg,Travel,,,sub-01
Desktop or Laptop,Windows 10,Chrome 137.0.0.0,1280x720,1280x720,Temporal Distance Task,cb_06,41.0,temp_dist_trial,num_items,zn7si1,1.0,response,1_ITEM,1524.50000001787,1515.3999999999942,1524.50000001787,1524.50000001787,1515.3999999999942,1524.50000001787,1.0,0.0,0.0,,Click Response,1_count,3.0,object-46,temp_dist_trial,41.0,t_i_01_1,travel_Iceland,gloves,6.0,unique,paired,t_i_01_1.jpg,Travel,,,sub-01
Desktop or Laptop,Windows 10,Chrome 137.0.0.0,1280x720,1280x720,Temporal Distance Task,cb_06,42.0,temp_dist_trial,num_items,zn7si1,1.0,response,1_ITEM,1734.6999999940454,1731.7000000000116,1734.6999999940454,1734.6999999940454,1731.7000000000116,1734.6999999940454,1.0,0.0,0.0,,Click Response,1_count,3.0,object-46,temp_dist_trial,42.0,t_s_05_1,travel_shared,neck pillow,6.0,competing,single,t_s_05_1.jpg,Travel,,,sub-01
Desktop or Laptop,Windows 10,Chrome 137.0.0.0,1280x720,1280x720,Temporal Distance Task,cb_06,43.0,temp_dist_trial,num_items,zn7si1,1.0,response,1_ITEM,1335.800000011921,1332.1000000000058,1335.800000011921,1335.800000011921,1332.1000000000058,1335.800000011921,1.0,0.0,0.0,,Click Response,1_count,3.0,object-46,temp_dist_trial,43.0,t_s_23_1,travel_shared,ball cap,6.0,competing,paired,t_s_23_1.jpg,Travel,,,sub-01
Desktop or Laptop,Windows 10,Chrome 137.0.0.0,1280x720,1280x720,Temporal Distance Task,cb_06,44.0,temp_dist_trial,num_items,zn7si1,1.0,response,2_ITEM,1193.3000000178872,1182.3000000000175,1193.3000000178872,1193.3000000178872,1182.3000000000175,1193.3000000178872,1.0,0.0,0.0,,Click Response,2_count,5.0,object-49,temp_dist_trial,44.0,t_s_15_1,travel_shared,luggage tag,6.0,competing,paired,t_s_15_1.jpg,Travel,,,sub-01
Desktop or Laptop,Windows 10,Chrome 137.0.0.0,1280x720,1280x720,Temporal Distance Task,cb_06,44.0,temp_dist_trial,dist_items,qkpkxw,2.0,info,,6.800000017887214,0.0,6.800000017887214,6.800000017887214,0.0,6.800000017887214,1.0,0.0,0.0,,Slider,Slider,4.0,object-56,temp_dist_trial,44.0,t_s_15_1,travel_shared,luggage tag,6.0,competing,paired,t_s_15_1.jpg,Travel,,,sub-01
Desktop or Laptop,Windows 10,Chrome 137.0.0.0,1280x720,1280x720,Temporal Distance Task,cb_06,44.0,temp_dist_trial,dist_items,qkpkxw,2.0,continue,,3793.6000000000067,3780.0,3793.6000000000067,3793.6000000000067,3780.0,3793.6000000000067,1.0,0.0,0.0,,Click To Continue,Next button,7.0,object-60,temp_dist_trial,44.0,t_s_15_1,travel_shared,luggage tag,6.0,competing,paired,t_s_15_1.jpg,Travel,,,sub-01
Desktop or Laptop,Windows 10,Chrome 137.0.0.0,1280x720,1280x720,Temporal Distance Task,cb_06,44.0,temp_dist_trial,dist_items,qkpkxw,2.0,response,43,999.2000000000116,3780.0,3794.1000000000067,999.2000000000116,3780.0,3794.1000000000067,1.0,2794.8999999999933,0.0,,Slider,Slider,4.0,object-56,temp_dist_trial,44.0,t_s_15_1,travel_shared,luggage tag,6.0,competing,paired,t_s_15_1.jpg,Travel,,,sub-01
Desktop or Laptop,Windows 10,Chrome 137.0.0.0,1280x720,1280x720,Temporal Distance Task,cb_06,45.0,temp_dist_trial,num_items,zn7si1,1.0,response,1_ITEM,1519.400000011927,1514.5,1519.400000011927,1519.400000011927,1514.5,1519.400000011927,1.0,0.0,0.0,,Click Response,1_count,3.0,object-46,temp_dist_trial,45.0,t_s_09_1,travel_shared,wallet,6.0,competing,paired,t_s_09_1.jpg,Travel,,,sub-01
Desktop or Laptop,Windows 10,Chrome 137.0.0.0,1280x720,1280x720,Temporal Distance Task,cb_06,46.0,temp_dist_trial,num_items,zn7si1,1.0,response,1_ITEM,986.2000000059488,982.3999999999942,986.2000000059488,986.2000000059488,982.3999999999942,986.2000000059488,1.0,0.0,0.0,,Click Response,1_count,3.0,object-46,temp_dist_trial,46.0,t_m_13_1,travel_Miami,floatie,6.0,unique,paired,t_m_13_1.jpg,Travel,,,sub-01
Desktop or Laptop,Windows 10,Chrome 137.0.0.0,1280x720,1280x720,Temporal Distance Task,cb_06,47.0,temp_dist_trial,num_items,zn7si1,1.0,response,1_ITEM,1345.0000000059665,1332.2000000000114,1345.0000000059665,1345.0000000059665,1332.2000000000114,1345.0000000059665,1.0,0.0,0.0,,Click Response,1_count,3.0,object-46,temp_dist_trial,47.0,t_m_14_1,travel_Miami,swim goggles,6.0,unique,paired,t_m_14_1.jpg,Travel,,,sub-01
Desktop or Laptop,Windows 10,Chrome 137.0.0.0,1280x720,1280x720,Temporal Distance Task,cb_06,48.0,temp_dist_trial,num_items,zn7si1,1.0,response,2_ITEM,1140.6000000059719,1132.4000000000233,1140.6000000059719,1140.6000000059719,1132.4000000000233,1140.6000000059719,1.0,0.0,0.0,,Click Response,2_count,5.0,object-49,temp_dist_trial,48.0,t_s_14_1,travel_shared,hand sanitizer,6.0,competing,paired,t_s_14_1.jpg,Travel,,,sub-01
Desktop or Laptop,Windows 10,Chrome 137.0.0.0,1280x720,1280x720,Temporal Distance Task,cb_06,48.0,temp_dist_trial,dist_items,qkpkxw,2.0,info,,5.90000001192675,0.0,5.90000001192675,5.90000001192675,0.0,5.90000001192675,1.0,0.0,0.0,,Slider,Slider,4.0,object-56,temp_dist_trial,48.0,t_s_14_1,travel_shared,hand sanitizer,6.0,competing,paired,t_s_14_1.jpg,Travel,,,sub-01
Desktop or Laptop,Windows 10,Chrome 137.0.0.0,1280x720,1280x720,Temporal Distance Task,cb_06,48.0,temp_dist_trial,dist_items,qkpkxw,2.0,continue,,3653.699999994045,3646.8999999999933,3653.699999994045,3653.699999994045,3646.8999999999933,3653.699999994045,1.0,0.0,0.0,,Click To Continue,Next button,7.0,object-60,temp_dist_trial,48.0,t_s_14_1,travel_shared,hand sanitizer,6.0,competing,paired,t_s_14_1.jpg,Travel,,,sub-01
Desktop or Laptop,Windows 10,Chrome 137.0.0.0,1280x720,1280x720,Temporal Distance Task,cb_06,48.0,temp_dist_trial,dist_items,qkpkxw,2.0,response,41,949.2000000000116,3646.8999999999933,3654.3000000178868,949.2000000000116,3646.8999999999933,3654.3000000178868,1.0,2705.100000017876,0.0,,Slider,Slider,4.0,object-56,temp_dist_trial,48.0,t_s_14_1,travel_shared,hand sanitizer,6.0,competing,paired,t_s_14_1.jpg,Travel,,,sub-01
Desktop or Laptop,Windows 10,Chrome 137.0.0.0,1280x720,1280x720,Temporal Distance Task,cb_06,2.0,temp_eventStart,Screen 1,dgtyxe,1.0,continue,,1814.7000000000119,1798.4000000000233,1814.7000000000119,1814.7000000000119,1798.4000000000233,1814.7000000000119,1.0,0.0,0.0,,Click To Continue,Next Button,3.0,object-43,temp_eventStart,,,Student,,,,,,,,,sub-01
Desktop or Laptop,Windows 10,Chrome 137.0.0.0,1280x720,1280x720,Temporal Distance Task,cb_06,49.0,temp_dist_trial,num_items,zn7si1,1.0,response,2_ITEM,1398.6999999999537,1382.0999999999767,1398.6999999999537,1398.6999999999537,1382.0999999999767,1398.6999999999537,1.0,0.0,0.0,,Click Response,2_count,5.0,object-49,temp_dist_trial,1.0,s_a_03_1,student_art,palette,6.0,unique,paired,s_a_03_1.jpg,Student,,,sub-01
Desktop or Laptop,Windows 10,Chrome 137.0.0.0,1280x720,1280x720,Temporal Distance Task,cb_06,49.0,temp_dist_trial,dist_items,qkpkxw,2.0,info,,7.2000000178813925,0.0,7.2000000178813925,7.2000000178813925,0.0,7.2000000178813925,1.0,0.0,0.0,,Slider,Slider,4.0,object-56,temp_dist_trial,1.0,s_a_03_1,student_art,palette,6.0,unique,paired,s_a_03_1.jpg,Student,,,sub-01
Desktop or Laptop,Windows 10,Chrome 137.0.0.0,1280x720,1280x720,Temporal Distance Task,cb_06,49.0,temp_dist_trial,dist_items,qkpkxw,2.0,continue,,2088.0,2080.700000000012,2088.0,2088.0,2080.700000000012,2088.0,1.0,0.0,0.0,,Click To Continue,Next button,7.0,object-60,temp_dist_trial,1.0,s_a_03_1,student_art,palette,6.0,unique,paired,s_a_03_1.jpg,Student,,,sub-01
Desktop or Laptop,Windows 10,Chrome 137.0.0.0,1280x720,1280x720,Temporal Distance Task,cb_06,49.0,temp_dist_trial,dist_items,qkpkxw,2.0,response,41,1015.8999999999942,2080.700000000012,2088.5,1015.8999999999942,2080.700000000012,2088.5,1.0,1072.6000000000058,0.0,,Slider,Slider,4.0,object-56,temp_dist_trial,1.0,s_a_03_1,student_art,palette,6.0,unique,paired,s_a_03_1.jpg,Student,,,sub-01
Desktop or Laptop,Windows 10,Chrome 137.0.0.0,1280x720,1280x720,Temporal Distance Task,cb_06,50.0,temp_dist_trial,num_items,zn7si1,1.0,response,2_ITEM,1063.0000000178698,1049.0999999999767,1063.0000000178698,1063.0000000178698,1049.0999999999767,1063.0000000178698,1.0,0.0,0.0,,Click Response,2_count,5.0,object-49,temp_dist_trial,2.0,s_sh_03_1,student_shared,highlighter,6.0,competing,single,s_sh_03_1.jpg,Student,,,sub-01
Desktop or Laptop,Windows 10,Chrome 137.0.0.0,1280x720,1280x720,Temporal Distance Task,cb_06,50.0,temp_dist_trial,dist_items,qkpkxw,2.0,info,,6.599999994039536,0.0,6.599999994039536,6.599999994039536,0.0,6.599999994039536,1.0,0.0,0.0,,Slider,Slider,4.0,object-56,temp_dist_trial,2.0,s_sh_03_1,student_shared,highlighter,6.0,competing,single,s_sh_03_1.jpg,Student,,,sub-01
Desktop or Laptop,Windows 10,Chrome 137.0.0.0,1280x720,1280x720,Temporal Distance Task,cb_06,50.0,temp_dist_trial,dist_items,qkpkxw,2.0,continue,,4175.7000000178805,4163.0,4175.7000000178805,4175.7000000178805,4163.0,4175.7000000178805,1.0,0.0,0.0,,Click To Continue,Next button,7.0,object-60,temp_dist_trial,2.0,s_sh_03_1,student_shared,highlighter,6.0,competing,single,s_sh_03_1.jpg,Student,,,sub-01
Desktop or Laptop,Windows 10,Chrome 137.0.0.0,1280x720,1280x720,Temporal Distance Task,cb_06,50.0,temp_dist_trial,dist_items,qkpkxw,2.0,response,40,3180.5,4163.0,4176.300000011921,3180.5,4163.0,4176.300000011921,1.0,995.8000000119208,0.0,,Slider,Slider,4.0,object-56,temp_dist_trial,2.0,s_sh_03_1,student_shared,highlighter,6.0,competing,single,s_sh_03_1.jpg,Student,,,sub-01
Desktop or Laptop,Windows 10,Chrome 137.0.0.0,1280x720,1280x720,Temporal Distance Task,cb_06,51.0,temp_dist_trial,num_items,zn7si1,1.0,response,1_ITEM,1089.300000011921,1082.3999999999942,1089.300000011921,1089.300000011921,1082.3999999999942,1089.300000011921,1.0,0.0,0.0,,Click Response,1_count,3.0,object-46,temp_dist_trial,3.0,s_s_14_1,student_stem,funnel,6.0,unique,paired,s_s_14_1.jpg,Student,,,sub-01
Desktop or Laptop,Windows 10,Chrome 137.0.0.0,1280x720,1280x720,Temporal Distance Task,cb_06,52.0,temp_dist_trial,num_items,zn7si1,1.0,response,1_ITEM,1173.0000000178698,1165.5999999999767,1173.0000000178698,1173.0000000178698,1165.5999999999767,1173.0000000178698,1.0,0.0,0.0,,Click Response,1_count,3.0,object-46,temp_dist_trial,4.0,s_sh_07_1,student_shared,ruler,6.0,competing,single,s_sh_07_1.jpg,Student,,,sub-01
Desktop or Laptop,Windows 10,Chrome 137.0.0.0,1280x720,1280x720,Temporal Distance Task,cb_06,53.0,temp_dist_trial,num_items,zn7si1,1.0,response,2_ITEM,1776.3000000059546,1765.1000000000058,1776.3000000059546,1776.3000000059546,1765.1000000000058,1776.3000000059546,1.0,0.0,0.0,,Click Response,2_count,5.0,object-49,temp_dist_trial,5.0,s_s_11_1,student_stem,scientific scale,6.0,unique,paired,s_s_11_1.jpg,Student,,,sub-01
Desktop or Laptop,Windows 10,Chrome 137.0.0.0,1280x720,1280x720,Temporal Distance Task,cb_06,53.0,temp_dist_trial,dist_items,qkpkxw,2.0,info,,6.100000017875573,0.0,6.100000017875573,6.100000017875573,0.0,6.100000017875573,1.0,0.0,0.0,,Slider,Slider,4.0,object-56,temp_dist_trial,5.0,s_s_11_1,student_stem,scientific scale,6.0,unique,paired,s_s_11_1.jpg,Student,,,sub-01
Desktop or Laptop,Windows 10,Chrome 137.0.0.0,1280x720,1280x720,Temporal Distance Task,cb_06,53.0,temp_dist_trial,dist_items,qkpkxw,2.0,continue,,2222.8999999999937,2214.6000000000063,2222.8999999999937,2222.8999999999937,2214.6000000000063,2222.8999999999937,1.0,0.0,0.0,,Click To Continue,Next button,7.0,object-60,temp_dist_trial,5.0,s_s_11_1,student_stem,scientific scale,6.0,unique,paired,s_s_11_1.jpg,Student,,,sub-01
Desktop or Laptop,Windows 10,Chrome 137.0.0.0,1280x720,1280x720,Temporal Distance Task,cb_06,53.0,temp_dist_trial,dist_items,qkpkxw,2.0,response,64,1015.6999999999823,2214.6000000000063,2223.3999999999937,1015.6999999999823,2214.6000000000063,2223.3999999999937,1.0,1207.7000000000114,0.0,,Slider,Slider,4.0,object-56,temp_dist_trial,5.0,s_s_11_1,student_stem,scientific scale,6.0,unique,paired,s_s_11_1.jpg,Student,,,sub-01
Desktop or Laptop,Windows 10,Chrome 137.0.0.0,1280x720,1280x720,Temporal Distance Task,cb_06,54.0,temp_dist_trial,num_items,zn7si1,1.0,response,2_ITEM,2472.2000000059493,2463.6999999999825,2472.2000000059493,2472.2000000059493,2463.6999999999825,2472.2000000059493,1.0,0.0,0.0,,Click Response,2_count,5.0,object-49,temp_dist_trial,6.0,s_sh_09_1,student_shared,paper clips,6.0,competing,paired,s_sh_09_1.jpg,Student,,,sub-01
Desktop or Laptop,Windows 10,Chrome 137.0.0.0,1280x720,1280x720,Temporal Distance Task,cb_06,54.0,temp_dist_trial,dist_items,qkpkxw,2.0,info,,4.3999999999941775,0.0,4.3999999999941775,4.3999999999941775,0.0,4.3999999999941775,1.0,0.0,0.0,,Slider,Slider,4.0,object-56,temp_dist_trial,6.0,s_sh_09_1,student_shared,paper clips,6.0,competing,paired,s_sh_09_1.jpg,Student,,,sub-01
Desktop or Laptop,Windows 10,Chrome 137.0.0.0,1280x720,1280x720,Temporal Distance Task,cb_06,54.0,temp_dist_trial,dist_items,qkpkxw,2.0,continue,,2470.700000011915,2464.5,2470.700000011915,2470.700000011915,2464.5,2470.700000011915,1.0,0.0,0.0,,Click To Continue,Next button,7.0,object-60,temp_dist_trial,6.0,s_sh_09_1,student_shared,paper clips,6.0,competing,paired,s_sh_09_1.jpg,Student,,,sub-01
Desktop or Laptop,Windows 10,Chrome 137.0.0.0,1280x720,1280x720,Temporal Distance Task,cb_06,54.0,temp_dist_trial,dist_items,qkpkxw,2.0,response,37,882.6999999999823,2464.5,2470.9999999940337,882.6999999999823,2464.5,2470.9999999940337,1.0,1588.2999999940512,0.0,,Slider,Slider,4.0,object-56,temp_dist_trial,6.0,s_sh_09_1,student_shared,paper clips,6.0,competing,paired,s_sh_09_1.jpg,Student,,,sub-01
Desktop or Laptop,Windows 10,Chrome 137.0.0.0,1280x720,1280x720,Temporal Distance Task,cb_06,55.0,temp_dist_trial,num_items,zn7si1,1.0,response,1_ITEM,1581.9000000000524,1565.3000000000175,1581.9000000000524,1581.9000000000524,1565.3000000000175,1581.9000000000524,1.0,0.0,0.0,,Click Response,1_count,3.0,object-46,temp_dist_trial,7.0,s_a_07_1,student_art,yarn,6.0,unique,paired,s_a_07_1.jpg,Student,,,sub-01
Desktop or Laptop,Windows 10,Chrome 137.0.0.0,1280x720,1280x720,Temporal Distance Task,cb_06,56.0,temp_dist_trial,num_items,zn7si1,1.0,response,2_ITEM,1487.2000000059488,1482.0,1487.2000000059488,1487.2000000059488,1482.0,1487.2000000059488,1.0,0.0,0.0,,Click Response,2_count,5.0,object-49,temp_dist_trial,8.0,s_sh_11_1,student_shared,pencil case,6.0,competing,paired,s_sh_11_1.jpg,Student,,,sub-01
Desktop or Laptop,Windows 10,Chrome 137.0.0.0,1280x720,1280x720,Temporal Distance Task,cb_06,56.0,temp_dist_trial,dist_items,qkpkxw,2.0,info,,6.599999994039536,0.0,6.599999994039536,6.599999994039536,0.0,6.599999994039536,1.0,0.0,0.0,,Slider,Slider,4.0,object-56,temp_dist_trial,8.0,s_sh_11_1,student_shared,pencil case,6.0,competing,paired,s_sh_11_1.jpg,Student,,,sub-01
Desktop or Laptop,Windows 10,Chrome 137.0.0.0,1280x720,1280x720,Temporal Distance Task,cb_06,56.0,temp_dist_trial,dist_items,qkpkxw,2.0,continue,,1827.4000000059605,1815.0999999999767,1827.4000000059605,1827.4000000059605,1815.0999999999767,1827.4000000059605,1.0,0.0,0.0,,Click To Continue,Next button,7.0,object-60,temp_dist_trial,8.0,s_sh_11_1,student_shared,pencil case,6.0,competing,paired,s_sh_11_1.jpg,Student,,,sub-01
Desktop or Laptop,Windows 10,Chrome 137.0.0.0,1280x720,1280x720,Temporal Distance Task,cb_06,56.0,temp_dist_trial,dist_items,qkpkxw,2.0,response,42,832.5999999999768,1815.0999999999767,1828.0,832.5999999999768,1815.0999999999767,1828.0,1.0,995.4000000000232,0.0,,Slider,Slider,4.0,object-56,temp_dist_trial,8.0,s_sh_11_1,student_shared,pencil case,6.0,competing,paired,s_sh_11_1.jpg,Student,,,sub-01
Desktop or Laptop,Windows 10,Chrome 137.0.0.0,1280x720,1280x720,Temporal Distance Task,cb_06,57.0,temp_dist_trial,num_items,zn7si1,1.0,response,2_ITEM,1721.1000000179047,1715.2000000000116,1721.1000000179047,1721.1000000179047,1715.2000000000116,1721.1000000179047,1.0,0.0,0.0,,Click Response,2_count,5.0,object-49,temp_dist_trial,9.0,s_sh_12_1,student_shared,binder,6.0,competing,paired,s_sh_12_1.jpg,Student,,,sub-01
Desktop or Laptop,Windows 10,Chrome 137.0.0.0,1280x720,1280x720,Temporal Distance Task,cb_06,57.0,temp_dist_trial,dist_items,qkpkxw,2.0,info,,7.0,0.0,7.0,7.0,0.0,7.0,1.0,0.0,0.0,,Slider,Slider,4.0,object-56,temp_dist_trial,9.0,s_sh_12_1,student_shared,binder,6.0,competing,paired,s_sh_12_1.jpg,Student,,,sub-01
Desktop or Laptop,Windows 10,Chrome 137.0.0.0,1280x720,1280x720,Temporal Distance Task,cb_06,57.0,temp_dist_trial,dist_items,qkpkxw,2.0,continue,,2007.200000017881,1997.5,2007.200000017881,2007.200000017881,1997.5,2007.200000017881,1.0,0.0,0.0,,Click To Continue,Next button,7.0,object-60,temp_dist_trial,9.0,s_sh_12_1,student_shared,binder,6.0,competing,paired,s_sh_12_1.jpg,Student,,,sub-01
Desktop or Laptop,Windows 10,Chrome 137.0.0.0,1280x720,1280x720,Temporal Distance Task,cb_06,57.0,temp_dist_trial,dist_items,qkpkxw,2.0,response,59,982.5,1997.5,2007.8000000119207,982.5,1997.5,2007.8000000119207,1.0,1025.300000011921,0.0,,Slider,Slider,4.0,object-56,temp_dist_trial,9.0,s_sh_12_1,student_shared,binder,6.0,competing,paired,s_sh_12_1.jpg,Student,,,sub-01
Desktop or Laptop,Windows 10,Chrome 137.0.0.0,1280x720,1280x720,Temporal Distance Task,cb_06,58.0,temp_dist_trial,num_items,zn7si1,1.0,response,2_ITEM,1788.0999999940395,1781.7000000000116,1788.0999999940395,1788.0999999940395,1781.7000000000116,1788.0999999940395,1.0,0.0,0.0,,Click Response,2_count,5.0,object-49,temp_dist_trial,10.0,s_sh_13_1,student_shared,index cards,6.0,competing,paired,s_sh_13_1.jpg,Student,,,sub-01
Desktop or Laptop,Windows 10,Chrome 137.0.0.0,1280x720,1280x720,Temporal Distance Task,cb_06,58.0,temp_dist_trial,dist_items,qkpkxw,2.0,info,,5.400000011897646,0.0,5.400000011897646,5.400000011897646,0.0,5.400000011897646,1.0,0.0,0.0,,Slider,Slider,4.0,object-56,temp_dist_trial,10.0,s_sh_13_1,student_shared,index cards,6.0,competing,paired,s_sh_13_1.jpg,Student,,,sub-01
Desktop or Laptop,Windows 10,Chrome 137.0.0.0,1280x720,1280x720,Temporal Distance Task,cb_06,58.0,temp_dist_trial,dist_items,qkpkxw,2.0,continue,,1891.0999999999767,1881.7999999999884,1891.0999999999767,1891.0999999999767,1881.7999999999884,1891.0999999999767,1.0,0.0,0.0,,Click To Continue,Next button,7.0,object-60,temp_dist_trial,10.0,s_sh_13_1,student_shared,index cards,6.0,competing,paired,s_sh_13_1.jpg,Student,,,sub-01
Desktop or Laptop,Windows 10,Chrome 137.0.0.0,1280x720,1280x720,Temporal Distance Task,cb_06,58.0,temp_dist_trial,dist_items,qkpkxw,2.0,response,40,916.0,1881.7999999999884,1897.6999999940165,916.0,1881.7999999999884,1897.6999999940165,1.0,981.6999999940164,0.0,,Slider,Slider,4.0,object-56,temp_dist_trial,10.0,s_sh_13_1,student_shared,index cards,6.0,competing,paired,s_sh_13_1.jpg,Student,,,sub-01
Desktop or Laptop,Windows 10,Chrome 137.0.0.0,1280x720,1280x720,Temporal Distance Task,cb_06,59.0,temp_dist_trial,num_items,zn7si1,1.0,response,2_ITEM,849.2999999999884,832.5999999999768,849.2999999999884,849.2999999999884,832.5999999999768,849.2999999999884,1.0,0.0,0.0,,Click Response,2_count,5.0,object-49,temp_dist_trial,11.0,s_sh_23_1,student_shared,ballpoint pen,6.0,competing,single,s_sh_23_1.jpg,Student,,,sub-01
Desktop or Laptop,Windows 10,Chrome 137.0.0.0,1280x720,1280x720,Temporal Distance Task,cb_06,59.0,temp_dist_trial,dist_items,qkpkxw,2.0,info,,5.800000011920929,0.0,5.800000011920929,5.800000011920929,0.0,5.800000011920929,1.0,0.0,0.0,,Slider,Slider,4.0,object-56,temp_dist_trial,11.0,s_sh_23_1,student_shared,ballpoint pen,6.0,competing,single,s_sh_23_1.jpg,Student,,,sub-01
Desktop or Laptop,Windows 10,Chrome 137.0.0.0,1280x720,1280x720,Temporal Distance Task,cb_06,59.0,temp_dist_trial,dist_items,qkpkxw,2.0,continue,,1798.3000000119214,1781.7999999999884,1798.3000000119214,1798.3000000119214,1781.7999999999884,1798.3000000119214,1.0,0.0,0.0,,Click To Continue,Next button,7.0,object-60,temp_dist_trial,11.0,s_sh_23_1,student_shared,ballpoint pen,6.0,competing,single,s_sh_23_1.jpg,Student,,,sub-01
Desktop or Laptop,Windows 10,Chrome 137.0.0.0,1280x720,1280x720,Temporal Distance Task,cb_06,59.0,temp_dist_trial,dist_items,qkpkxw,2.0,response,42,699.4000000000232,1781.7999999999884,1798.5,699.4000000000232,1781.7999999999884,1798.5,1.0,1099.0999999999767,0.0,,Slider,Slider,4.0,object-56,temp_dist_trial,11.0,s_sh_23_1,student_shared,ballpoint pen,6.0,competing,single,s_sh_23_1.jpg,Student,,,sub-01
Desktop or Laptop,Windows 10,Chrome 137.0.0.0,1280x720,1280x720,Temporal Distance Task,cb_06,60.0,temp_dist_trial,num_items,zn7si1,1.0,response,2_ITEM,1081.0000000119326,1065.7000000000116,1081.0000000119326,1081.0000000119326,1065.7000000000116,1081.0000000119326,1.0,0.0,0.0,,Click Response,2_count,5.0,object-49,temp_dist_trial,12.0,s_a_09_1,student_art,picture frame,6.0,unique,paired,s_a_09_1.jpg,Student,,,sub-01
Desktop or Laptop,Windows 10,Chrome 137.0.0.0,1280x720,1280x720,Temporal Distance Task,cb_06,60.0,temp_dist_trial,dist_items,qkpkxw,2.0,info,,5.600000005972107,0.0,5.600000005972107,5.600000005972107,0.0,5.600000005972107,1.0,0.0,0.0,,Slider,Slider,4.0,object-56,temp_dist_trial,12.0,s_a_09_1,student_art,picture frame,6.0,unique,paired,s_a_09_1.jpg,Student,,,sub-01
Desktop or Laptop,Windows 10,Chrome 137.0.0.0,1280x720,1280x720,Temporal Distance Task,cb_06,60.0,temp_dist_trial,dist_items,qkpkxw,2.0,continue,,1892.7000000000119,1881.7000000000119,1892.7000000000119,1892.7000000000119,1881.7000000000119,1892.7000000000119,1.0,0.0,0.0,,Click To Continue,Next button,7.0,object-60,temp_dist_trial,12.0,s_a_09_1,student_art,picture frame,6.0,unique,paired,s_a_09_1.jpg,Student,,,sub-01
Desktop or Laptop,Windows 10,Chrome 137.0.0.0,1280x720,1280x720,Temporal Distance Task,cb_06,60.0,temp_dist_trial,dist_items,qkpkxw,2.0,response,54,815.9000000000232,1881.7000000000119,1893.400000017893,815.9000000000232,1881.7000000000119,1893.400000017893,1.0,1077.5000000178698,0.0,,Slider,Slider,4.0,object-56,temp_dist_trial,12.0,s_a_09_1,student_art,picture frame,6.0,unique,paired,s_a_09_1.jpg,Student,,,sub-01
Desktop or Laptop,Windows 10,Chrome 137.0.0.0,1280x720,1280x720,Temporal Distance Task,cb_06,61.0,temp_dist_trial,num_items,zn7si1,1.0,response,2_ITEM,1195.4000000059605,1182.2999999999886,1195.4000000059605,1195.4000000059605,1182.2999999999886,1195.4000000059605,1.0,0.0,0.0,,Click Response,2_count,5.0,object-49,temp_dist_trial,13.0,s_s_13_1,student_stem,telescope,6.0,unique,paired,s_s_13_1.jpg,Student,,,sub-01
Desktop or Laptop,Windows 10,Chrome 137.0.0.0,1280x720,1280x720,Temporal Distance Task,cb_06,61.0,temp_dist_trial,dist_items,qkpkxw,2.0,info,,6.099999994039536,0.0,6.099999994039536,6.099999994039536,0.0,6.099999994039536,1.0,0.0,0.0,,Slider,Slider,4.0,object-56,temp_dist_trial,13.0,s_s_13_1,student_stem,telescope,6.0,unique,paired,s_s_13_1.jpg,Student,,,sub-01
Desktop or Laptop,Windows 10,Chrome 137.0.0.0,1280x720,1280x720,Temporal Distance Task,cb_06,61.0,temp_dist_trial,dist_items,qkpkxw,2.0,continue,,3571.300000011921,3562.700000000012,3571.300000011921,3571.300000011921,3562.700000000012,3571.300000011921,1.0,0.0,0.0,,Click To Continue,Next button,7.0,object-60,temp_dist_trial,13.0,s_s_13_1,student_stem,telescope,6.0,unique,paired,s_s_13_1.jpg,Student,,,sub-01
Desktop or Laptop,Windows 10,Chrome 137.0.0.0,1280x720,1280x720,Temporal Distance Task,cb_06,61.0,temp_dist_trial,dist_items,qkpkxw,2.0,response,61,1215.5999999999767,3562.700000000012,3577.5,1215.5999999999767,3562.700000000012,3577.5,1.0,2361.9000000000233,0.0,,Slider,Slider,4.0,object-56,temp_dist_trial,13.0,s_s_13_1,student_stem,telescope,6.0,unique,paired,s_s_13_1.jpg,Student,,,sub-01
Desktop or Laptop,Windows 10,Chrome 137.0.0.0,1280x720,1280x720,Temporal Distance Task,cb_06,62.0,temp_dist_trial,num_items,zn7si1,1.0,response,2_ITEM,1914.1000000119093,1898.3999999999646,1914.1000000119093,1914.1000000119093,1898.3999999999646,1914.1000000119093,1.0,0.0,0.0,,Click Response,2_count,5.0,object-49,temp_dist_trial,14.0,s_sh_19_1,student_shared,portable plastic drawer,6.0,competing,single,s_sh_19_1.jpg,Student,,,sub-01
Desktop or Laptop,Windows 10,Chrome 137.0.0.0,1280x720,1280x720,Temporal Distance Task,cb_06,62.0,temp_dist_trial,dist_items,qkpkxw,2.0,info,,5.400000011897646,0.0,5.400000011897646,5.400000011897646,0.0,5.400000011897646,1.0,0.0,0.0,,Slider,Slider,4.0,object-56,temp_dist_trial,14.0,s_sh_19_1,student_shared,portable plastic drawer,6.0,competing,single,s_sh_19_1.jpg,Student,,,sub-01
Desktop or Laptop,Windows 10,Chrome 137.0.0.0,1280x720,1280x720,Temporal Distance Task,cb_06,62.0,temp_dist_trial,dist_items,qkpkxw,2.0,continue,,1788.9000000118976,1781.6999999999537,1788.9000000118976,1788.9000000118976,1781.6999999999537,1788.9000000118976,1.0,0.0,0.0,,Click To Continue,Next button,7.0,object-60,temp_dist_trial,14.0,s_sh_19_1,student_shared,portable plastic drawer,6.0,competing,single,s_sh_19_1.jpg,Student,,,sub-01
Desktop or Laptop,Windows 10,Chrome 137.0.0.0,1280x720,1280x720,Temporal Distance Task,cb_06,62.0,temp_dist_trial,dist_items,qkpkxw,2.0,response,42,782.5999999999768,1781.6999999999537,1789.4000000118976,782.5999999999768,1781.6999999999537,1789.4000000118976,1.0,1006.8000000119208,0.0,,Slider,Slider,4.0,object-56,temp_dist_trial,14.0,s_sh_19_1,student_shared,portable plastic drawer,6.0,competing,single,s_sh_19_1.jpg,Student,,,sub-01
Desktop or Laptop,Windows 10,Chrome 137.0.0.0,1280x720,1280x720,Temporal Distance Task,cb_06,63.0,temp_dist_trial,num_items,zn7si1,1.0,response,2_ITEM,1206.4000000000233,1199.0,1206.4000000000233,1206.4000000000233,1199.0,1206.4000000000233,1.0,0.0,0.0,,Click Response,2_count,5.0,object-49,temp_dist_trial,15.0,s_a_11_1,student_art,clapperboard,6.0,unique,single,s_a_11_1.jpg,Student,,,sub-01
Desktop or Laptop,Windows 10,Chrome 137.0.0.0,1280x720,1280x720,Temporal Distance Task,cb_06,63.0,temp_dist_trial,dist_items,qkpkxw,2.0,info,,6.1999999940162525,0.0,6.1999999940162525,6.1999999940162525,0.0,6.1999999940162525,1.0,0.0,0.0,,Slider,Slider,4.0,object-56,temp_dist_trial,15.0,s_a_11_1,student_art,clapperboard,6.0,unique,single,s_a_11_1.jpg,Student,,,sub-01
Desktop or Laptop,Windows 10,Chrome 137.0.0.0,1280x720,1280x720,Temporal Distance Task,cb_06,63.0,temp_dist_trial,dist_items,qkpkxw,2.0,continue,,1590.8000000178579,1581.8999999999646,1590.8000000178579,1590.8000000178579,1581.8999999999646,1590.8000000178579,1.0,0.0,0.0,,Click To Continue,Next button,7.0,object-60,temp_dist_trial,15.0,s_a_11_1,student_art,clapperboard,6.0,unique,single,s_a_11_1.jpg,Student,,,sub-01
Desktop or Laptop,Windows 10,Chrome 137.0.0.0,1280x720,1280x720,Temporal Distance Task,cb_06,63.0,temp_dist_trial,dist_items,qkpkxw,2.0,response,41,632.5999999999767,1581.8999999999646,1591.1999999940165,632.5999999999767,1581.8999999999646,1591.1999999940165,1.0,958.5999999940396,0.0,,Slider,Slider,4.0,object-56,temp_dist_trial,15.0,s_a_11_1,student_art,clapperboard,6.0,unique,single,s_a_11_1.jpg,Student,,,sub-01
Desktop or Laptop,Windows 10,Chrome 137.0.0.0,1280x720,1280x720,Temporal Distance Task,cb_06,64.0,temp_dist_trial,num_items,zn7si1,1.0,response,1_ITEM,1073.400000017893,1065.7000000000116,1073.400000017893,1073.400000017893,1065.7000000000116,1073.400000017893,1.0,0.0,0.0,,Click Response,1_count,3.0,object-46,temp_dist_trial,16.0,s_s_18_1,student_stem,brain model,6.0,unique,single,s_s_18_1.jpg,Student,,,sub-01
Desktop or Laptop,Windows 10,Chrome 137.0.0.0,1280x720,1280x720,Temporal Distance Task,cb_06,65.0,temp_dist_trial,num_items,zn7si1,1.0,response,1_ITEM,1110.5000000119326,1099.0,1110.5000000119326,1110.5000000119326,1099.0,1110.5000000119326,1.0,0.0,0.0,,Click Response,1_count,3.0,object-46,temp_dist_trial,17.0,s_a_10_1,student_art,tripod,6.0,unique,single,s_a_10_1.jpg,Student,,,sub-01
Desktop or Laptop,Windows 10,Chrome 137.0.0.0,1280x720,1280x720,Temporal Distance Task,cb_06,66.0,temp_dist_trial,num_items,zn7si1,1.0,response,2_ITEM,1631.7999999999884,1615.2000000000116,1631.7999999999884,1631.7999999999884,1615.2000000000116,1631.7999999999884,1.0,0.0,0.0,,Click Response,2_count,5.0,object-49,temp_dist_trial,18.0,s_a_13_1,student_art,violin,6.0,unique,paired,s_a_13_1.jpg,Student,,,sub-01
Desktop or Laptop,Windows 10,Chrome 137.0.0.0,1280x720,1280x720,Temporal Distance Task,cb_06,66.0,temp_dist_trial,dist_items,qkpkxw,2.0,info,,7.400000000023283,0.0,7.400000000023283,7.400000000023283,0.0,7.400000000023283,1.0,0.0,0.0,,Slider,Slider,4.0,object-56,temp_dist_trial,18.0,s_a_13_1,student_art,violin,6.0,unique,paired,s_a_13_1.jpg,Student,,,sub-01
Desktop or Laptop,Windows 10,Chrome 137.0.0.0,1280x720,1280x720,Temporal Distance Task,cb_06,66.0,temp_dist_trial,dist_items,qkpkxw,2.0,continue,,2318.9999999940633,2313.8000000000466,2318.9999999940633,2318.9999999940633,2313.8000000000466,2318.9999999940633,1.0,0.0,0.0,,Click To Continue,Next button,7.0,object-60,temp_dist_trial,18.0,s_a_13_1,student_art,violin,6.0,unique,paired,s_a_13_1.jpg,Student,,,sub-01
Desktop or Laptop,Windows 10,Chrome 137.0.0.0,1280x720,1280x720,Temporal Distance Task,cb_06,66.0,temp_dist_trial,dist_items,qkpkxw,2.0,response,41,1065.7000000000116,2313.8000000000466,2319.4999999940633,1065.7000000000116,2313.8000000000466,2319.4999999940633,1.0,1253.7999999940512,0.0,,Slider,Slider,4.0,object-56,temp_dist_trial,18.0,s_a_13_1,student_art,violin,6.0,unique,paired,s_a_13_1.jpg,Student,,,sub-01
Desktop or Laptop,Windows 10,Chrome 137.0.0.0,1280x720,1280x720,Temporal Distance Task,cb_06,67.0,temp_dist_trial,num_items,zn7si1,1.0,response,2_ITEM,815.1999999940163,799.1999999999533,815.1999999940163,815.1999999940163,799.1999999999533,815.1999999940163,1.0,0.0,0.0,,Click Response,2_count,5.0,object-49,temp_dist_trial,19.0,s_a_15_1,student_art,drum kit,6.0,unique,paired,s_a_15_1.jpg,Student,,,sub-01
Desktop or Laptop,Windows 10,Chrome 137.0.0.0,1280x720,1280x720,Temporal Distance Task,cb_06,67.0,temp_dist_trial,dist_items,qkpkxw,2.0,info,,5.5,0.0,5.5,5.5,0.0,5.5,1.0,0.0,0.0,,Slider,Slider,4.0,object-56,temp_dist_trial,19.0,s_a_15_1,student_art,drum kit,6.0,unique,paired,s_a_15_1.jpg,Student,,,sub-01
Desktop or Laptop,Windows 10,Chrome 137.0.0.0,1280x720,1280x720,Temporal Distance Task,cb_06,67.0,temp_dist_trial,dist_items,qkpkxw,2.0,continue,,1749.5,1748.4000000000233,1749.5,1749.5,1748.4000000000233,1749.5,1.0,0.0,0.0,,Click To Continue,Next button,7.0,object-60,temp_dist_trial,19.0,s_a_15_1,student_art,drum kit,6.0,unique,paired,s_a_15_1.jpg,Student,,,sub-01
Desktop or Laptop,Windows 10,Chrome 137.0.0.0,1280x720,1280x720,Temporal Distance Task,cb_06,67.0,temp_dist_trial,dist_items,qkpkxw,2.0,response,61,799.2000000000116,1748.4000000000233,1750.0,799.2000000000116,1748.4000000000233,1750.0,1.0,950.7999999999884,0.0,,Slider,Slider,4.0,object-56,temp_dist_trial,19.0,s_a_15_1,student_art,drum kit,6.0,unique,paired,s_a_15_1.jpg,Student,,,sub-01
Desktop or Laptop,Windows 10,Chrome 137.0.0.0,1280x720,1280x720,Temporal Distance Task,cb_06,68.0,temp_dist_trial,num_items,zn7si1,1.0,response,1_ITEM,1952.9000000118976,1948.2999999999884,1952.9000000118976,1952.9000000118976,1948.2999999999884,1952.9000000118976,1.0,0.0,0.0,,Click Response,1_count,3.0,object-46,temp_dist_trial,20.0,s_sh_22_1,student_shared,hole puncher,6.0,competing,paired,s_sh_22_1.jpg,Student,,,sub-01
Desktop or Laptop,Windows 10,Chrome 137.0.0.0,1280x720,1280x720,Temporal Distance Task,cb_06,69.0,temp_dist_trial,num_items,zn7si1,1.0,response,1_ITEM,1215.7000000000114,1199.0,1215.7000000000114,1215.7000000000114,1199.0,1215.7000000000114,1.0,0.0,0.0,,Click Response,1_count,3.0,object-46,temp_dist_trial,21.0,s_s_04_1,student_stem,bunsen burner,6.0,unique,single,s_s_04_1.jpg,Student,,,sub-01
Desktop or Laptop,Windows 10,Chrome 137.0.0.0,1280x720,1280x720,Temporal Distance Task,cb_06,70.0,temp_dist_trial,num_items,zn7si1,1.0,response,1_ITEM,1513.1000000119093,1498.5999999999767,1513.1000000119093,1513.1000000119093,1498.5999999999767,1513.1000000119093,1.0,0.0,0.0,,Click Response,1_count,3.0,object-46,temp_dist_trial,22.0,s_sh_01_1,student_shared,notebook,6.0,competing,paired,s_sh_01_1.jpg,Student,,,sub-01
Desktop or Laptop,Windows 10,Chrome 137.0.0.0,1280x720,1280x720,Temporal Distance Task,cb_06,71.0,temp_dist_trial,num_items,zn7si1,1.0,response,2_ITEM,2273.9000000000233,2264.700000000012,2273.9000000000233,2273.9000000000233,2264.700000000012,2273.9000000000233,1.0,0.0,0.0,,Click Response,2_count,5.0,object-49,temp_dist_trial,23.0,s_sh_21_1,student_shared,file holder,6.0,competing,single,s_sh_21_1.jpg,Student,,,sub-01
Desktop or Laptop,Windows 10,Chrome 137.0.0.0,1280x720,1280x720,Temporal Distance Task,cb_06,71.0,temp_dist_trial,dist_items,qkpkxw,2.0,info,,7.999999994062819,0.0,7.999999994062819,7.999999994062819,0.0,7.999999994062819,1.0,0.0,0.0,,Slider,Slider,4.0,object-56,temp_dist_trial,23.0,s_sh_21_1,student_shared,file holder,6.0,competing,single,s_sh_21_1.jpg,Student,,,sub-01
Desktop or Laptop,Windows 10,Chrome 137.0.0.0,1280x720,1280x720,Temporal Distance Task,cb_06,71.0,temp_dist_trial,dist_items,qkpkxw,2.0,continue,,3594.600000017905,3580.200000000012,3594.600000017905,3594.600000017905,3580.200000000012,3594.600000017905,1.0,0.0,0.0,,Click To Continue,Next button,7.0,object-60,temp_dist_trial,23.0,s_sh_21_1,student_shared,file holder,6.0,competing,single,s_sh_21_1.jpg,Student,,,sub-01
Desktop or Laptop,Windows 10,Chrome 137.0.0.0,1280x720,1280x720,Temporal Distance Task,cb_06,71.0,temp_dist_trial,dist_items,qkpkxw,2.0,response,35,2697.600000000035,3580.200000000012,3595.3000000059837,2697.600000000035,3580.200000000012,3595.3000000059837,1.0,897.7000000059488,0.0,,Slider,Slider,4.0,object-56,temp_dist_trial,23.0,s_sh_21_1,student_shared,file holder,6.0,competing,single,s_sh_21_1.jpg,Student,,,sub-01
Desktop or Laptop,Windows 10,Chrome 137.0.0.0,1280x720,1280x720,Temporal Distance Task,cb_06,72.0,temp_dist_trial,num_items,zn7si1,1.0,response,2_ITEM,1164.5999999999767,1148.0,1164.5999999999767,1164.5999999999767,1148.0,1164.5999999999767,1.0,0.0,0.0,,Click Response,2_count,5.0,object-49,temp_dist_trial,24.0,s_sh_02_1,student_shared,eraser,6.0,competing,single,s_sh_02_1.jpg,Student,,,sub-01
Desktop or Laptop,Windows 10,Chrome 137.0.0.0,1280x720,1280x720,Temporal Distance Task,cb_06,72.0,temp_dist_trial,dist_items,qkpkxw,2.0,info,,6.6000000179046765,0.0,6.6000000179046765,6.6000000179046765,0.0,6.6000000179046765,1.0,0.0,0.0,,Slider,Slider,4.0,object-56,temp_dist_trial,24.0,s_sh_02_1,student_shared,eraser,6.0,competing,single,s_sh_02_1.jpg,Student,,,sub-01
Desktop or Laptop,Windows 10,Chrome 137.0.0.0,1280x720,1280x720,Temporal Distance Task,cb_06,72.0,temp_dist_trial,dist_items,qkpkxw,2.0,continue,,1847.4999999940628,1831.8000000000463,1847.4999999940628,1847.4999999940628,1831.8000000000463,1847.4999999940628,1.0,0.0,0.0,,Click To Continue,Next button,7.0,object-60,temp_dist_trial,24.0,s_sh_02_1,student_shared,eraser,6.0,competing,single,s_sh_02_1.jpg,Student,,,sub-01
Desktop or Laptop,Windows 10,Chrome 137.0.0.0,1280x720,1280x720,Temporal Distance Task,cb_06,72.0,temp_dist_trial,dist_items,qkpkxw,2.0,response,61,766.0,1831.8000000000463,1847.9999999940628,766.0,1831.8000000000463,1847.9999999940628,1.0,1081.9999999940628,0.0,,Slider,Slider,4.0,object-56,temp_dist_trial,24.0,s_sh_02_1,student_shared,eraser,6.0,competing,single,s_sh_02_1.jpg,Student,,,sub-01
Desktop or Laptop,Windows 10,Chrome 137.0.0.0,1280x720,1280x720,Temporal Distance Task,cb_06,73.0,temp_dist_trial,num_items,zn7si1,1.0,response,1_ITEM,1408.4000000118976,1398.6999999999537,1408.4000000118976,1408.4000000118976,1398.6999999999537,1408.4000000118976,1.0,0.0,0.0,,Click Response,1_count,3.0,object-46,temp_dist_trial,25.0,s_s_20_1,student_stem,dna model,6.0,unique,paired,s_s_20_1.jpg,Student,,,sub-01
Desktop or Laptop,Windows 10,Chrome 137.0.0.0,1280x720,1280x720,Temporal Distance Task,cb_06,74.0,temp_dist_trial,num_items,zn7si1,1.0,response,1_ITEM,1743.9000000118976,1731.7999999999884,1743.9000000118976,1743.9000000118976,1731.7999999999884,1743.9000000118976,1.0,0.0,0.0,,Click Response,1_count,3.0,object-46,temp_dist_trial,26.0,s_sh_17_1,student_shared,wireless mouse,6.0,competing,paired,s_sh_17_1.jpg,Student,,,sub-01
Desktop or Laptop,Windows 10,Chrome 137.0.0.0,1280x720,1280x720,Temporal Distance Task,cb_06,75.0,temp_dist_trial,num_items,zn7si1,1.0,response,1_ITEM,1513.5,1498.5999999999767,1513.5,1513.5,1498.5999999999767,1513.5,1.0,0.0,0.0,,Click Response,1_count,3.0,object-46,temp_dist_trial,27.0,s_sh_10_1,student_shared,scissors,6.0,competing,paired,s_sh_10_1.jpg,Student,,,sub-01
Desktop or Laptop,Windows 10,Chrome 137.0.0.0,1280x720,1280x720,Temporal Distance Task,cb_06,76.0,temp_dist_trial,num_items,zn7si1,1.0,response,1_ITEM,1301.1999999940165,1298.899999999965,1301.1999999940165,1301.1999999940165,1298.899999999965,1301.1999999940165,1.0,0.0,0.0,,Click Response,1_count,3.0,object-46,temp_dist_trial,28.0,s_a_08_1,student_art,sewing machine,6.0,unique,paired,s_a_08_1.jpg,Student,,,sub-01
Desktop or Laptop,Windows 10,Chrome 137.0.0.0,1280x720,1280x720,Temporal Distance Task,cb_06,77.0,temp_dist_trial,num_items,zn7si1,1.0,response,2_ITEM,1026.4999999940628,1015.7000000000116,1026.4999999940628,1026.4999999940628,1015.7000000000116,1026.4999999940628,1.0,0.0,0.0,,Click Response,2_count,5.0,object-49,temp_dist_trial,29.0,s_sh_15_1,student_shared,usb drive,6.0,competing,paired,s_sh_15_1.jpg,Student,,,sub-01
Desktop or Laptop,Windows 10,Chrome 137.0.0.0,1280x720,1280x720,Temporal Distance Task,cb_06,77.0,temp_dist_trial,dist_items,qkpkxw,2.0,info,,11.49999999406282,0.0,11.49999999406282,11.49999999406282,0.0,11.49999999406282,1.0,0.0,0.0,,Slider,Slider,4.0,object-56,temp_dist_trial,29.0,s_sh_15_1,student_shared,usb drive,6.0,competing,paired,s_sh_15_1.jpg,Student,,,sub-01
Desktop or Laptop,Windows 10,Chrome 137.0.0.0,1280x720,1280x720,Temporal Distance Task,cb_06,77.0,temp_dist_trial,dist_items,qkpkxw,2.0,continue,,2039.300000005984,2031.6000000000354,2039.300000005984,2039.300000005984,2031.6000000000354,2039.300000005984,1.0,0.0,0.0,,Click To Continue,Next button,7.0,object-60,temp_dist_trial,29.0,s_sh_15_1,student_shared,usb drive,6.0,competing,paired,s_sh_15_1.jpg,Student,,,sub-01
Desktop or Laptop,Windows 10,Chrome 137.0.0.0,1280x720,1280x720,Temporal Distance Task,cb_06,77.0,temp_dist_trial,dist_items,qkpkxw,2.0,response,56,1049.100000000035,2031.6000000000354,2039.9000000000235,1049.100000000035,2031.6000000000354,2039.9000000000235,1.0,990.7999999999884,0.0,,Slider,Slider,4.0,object-56,temp_dist_trial,29.0,s_sh_15_1,student_shared,usb drive,6.0,competing,paired,s_sh_15_1.jpg,Student,,,sub-01
Desktop or Laptop,Windows 10,Chrome 137.0.0.0,1280x720,1280x720,Temporal Distance Task,cb_06,78.0,temp_dist_trial,num_items,zn7si1,1.0,response,2_ITEM,1335.3999999940281,1332.2000000000114,1335.3999999940281,1335.3999999940281,1332.2000000000114,1335.3999999940281,1.0,0.0,0.0,,Click Response,2_count,5.0,object-49,temp_dist_trial,30.0,s_a_06_1,student_art,pastels,6.0,unique,paired,s_a_06_1.jpg,Student,,,sub-01
Desktop or Laptop,Windows 10,Chrome 137.0.0.0,1280x720,1280x720,Temporal Distance Task,cb_06,78.0,temp_dist_trial,dist_items,qkpkxw,2.0,info,,6.499999994062819,0.0,6.499999994062819,6.499999994062819,0.0,6.499999994062819,1.0,0.0,0.0,,Slider,Slider,4.0,object-56,temp_dist_trial,30.0,s_a_06_1,student_art,pastels,6.0,unique,paired,s_a_06_1.jpg,Student,,,sub-01
Desktop or Laptop,Windows 10,Chrome 137.0.0.0,1280x720,1280x720,Temporal Distance Task,cb_06,78.0,temp_dist_trial,dist_items,qkpkxw,2.0,continue,,1809.9999999940628,1797.5,1809.9999999940628,1809.9999999940628,1797.5,1809.9999999940628,1.0,0.0,0.0,,Click To Continue,Next button,7.0,object-60,temp_dist_trial,30.0,s_a_06_1,student_art,pastels,6.0,unique,paired,s_a_06_1.jpg,Student,,,sub-01
Desktop or Laptop,Windows 10,Chrome 137.0.0.0,1280x720,1280x720,Temporal Distance Task,cb_06,78.0,temp_dist_trial,dist_items,qkpkxw,2.0,response,39,815.0,1797.5,1810.4000000000235,815.0,1797.5,1810.4000000000235,1.0,995.4000000000232,0.0,,Slider,Slider,4.0,object-56,temp_dist_trial,30.0,s_a_06_1,student_art,pastels,6.0,unique,paired,s_a_06_1.jpg,Student,,,sub-01
Desktop or Laptop,Windows 10,Chrome 137.0.0.0,1280x720,1280x720,Temporal Distance Task,cb_06,79.0,temp_dist_trial,num_items,zn7si1,1.0,response,2_ITEM,2981.9999999940637,2980.700000000012,2981.9999999940637,2981.9999999940637,2980.700000000012,2981.9999999940637,1.0,0.0,0.0,,Click Response,2_count,5.0,object-49,temp_dist_trial,31.0,s_a_20_1,student_art,pin cushion,6.0,unique,single,s_a_20_1.jpg,Student,,,sub-01
Desktop or Laptop,Windows 10,Chrome 137.0.0.0,1280x720,1280x720,Temporal Distance Task,cb_06,79.0,temp_dist_trial,dist_items,qkpkxw,2.0,info,,7.900000000023283,0.0,7.900000000023283,7.900000000023283,0.0,7.900000000023283,1.0,0.0,0.0,,Slider,Slider,4.0,object-56,temp_dist_trial,31.0,s_a_20_1,student_art,pin cushion,6.0,unique,single,s_a_20_1.jpg,Student,,,sub-01
Desktop or Laptop,Windows 10,Chrome 137.0.0.0,1280x720,1280x720,Temporal Distance Task,cb_06,79.0,temp_dist_trial,dist_items,qkpkxw,2.0,continue,,2240.4999999940633,2231.3000000000466,2240.4999999940633,2240.4999999940633,2231.3000000000466,2240.4999999940633,1.0,0.0,0.0,,Click To Continue,Next button,7.0,object-60,temp_dist_trial,31.0,s_a_20_1,student_art,pin cushion,6.0,unique,single,s_a_20_1.jpg,Student,,,sub-01
Desktop or Laptop,Windows 10,Chrome 137.0.0.0,1280x720,1280x720,Temporal Distance Task,cb_06,79.0,temp_dist_trial,dist_items,qkpkxw,2.0,response,43,1265.5,2231.3000000000466,2240.9999999940633,1265.5,2231.3000000000466,2240.9999999940633,1.0,975.4999999940628,0.0,,Slider,Slider,4.0,object-56,temp_dist_trial,31.0,s_a_20_1,student_art,pin cushion,6.0,unique,single,s_a_20_1.jpg,Student,,,sub-01
Desktop or Laptop,Windows 10,Chrome 137.0.0.0,1280x720,1280x720,Temporal Distance Task,cb_06,80.0,temp_dist_trial,num_items,zn7si1,1.0,response,2_ITEM,1110.0999999999767,1099.0999999999767,1110.0999999999767,1110.0999999999767,1099.0999999999767,1110.0999999999767,1.0,0.0,0.0,,Click Response,2_count,5.0,object-49,temp_dist_trial,32.0,s_sh_18_1,student_shared,wall calendar,6.0,competing,paired,s_sh_18_1.jpg,Student,,,sub-01
Desktop or Laptop,Windows 10,Chrome 137.0.0.0,1280x720,1280x720,Temporal Distance Task,cb_06,80.0,temp_dist_trial,dist_items,qkpkxw,2.0,info,,6.700000005948822,0.0,6.700000005948822,6.700000005948822,0.0,6.700000005948822,1.0,0.0,0.0,,Slider,Slider,4.0,object-56,temp_dist_trial,32.0,s_sh_18_1,student_shared,wall calendar,6.0,competing,paired,s_sh_18_1.jpg,Student,,,sub-01
Desktop or Laptop,Windows 10,Chrome 137.0.0.0,1280x720,1280x720,Temporal Distance Task,cb_06,80.0,temp_dist_trial,dist_items,qkpkxw,2.0,continue,,1881.6000000119093,1865.0999999999767,1881.6000000119093,1881.6000000119093,1865.0999999999767,1881.6000000119093,1.0,0.0,0.0,,Click To Continue,Next button,7.0,object-60,temp_dist_trial,32.0,s_sh_18_1,student_shared,wall calendar,6.0,competing,paired,s_sh_18_1.jpg,Student,,,sub-01
Desktop or Laptop,Windows 10,Chrome 137.0.0.0,1280x720,1280x720,Temporal Distance Task,cb_06,80.0,temp_dist_trial,dist_items,qkpkxw,2.0,response,30,965.7999999999884,1865.0999999999767,1881.7999999999884,965.7999999999884,1865.0999999999767,1881.7999999999884,1.0,916.0,0.0,,Slider,Slider,4.0,object-56,temp_dist_trial,32.0,s_sh_18_1,student_shared,wall calendar,6.0,competing,paired,s_sh_18_1.jpg,Student,,,sub-01
Desktop or Laptop,Windows 10,Chrome 137.0.0.0,1280x720,1280x720,Temporal Distance Task,cb_06,81.0,temp_dist_trial,num_items,zn7si1,1.0,response,1_ITEM,1168.400000017893,1165.600000000035,1168.400000017893,1168.400000017893,1165.600000000035,1168.400000017893,1.0,0.0,0.0,,Click Response,1_count,3.0,object-46,temp_dist_trial,33.0,s_sh_04_1,student_shared,laptop stand,6.0,competing,paired,s_sh_04_1.jpg,Student,,,sub-01
Desktop or Laptop,Windows 10,Chrome 137.0.0.0,1280x720,1280x720,Temporal Distance Task,cb_06,82.0,temp_dist_trial,num_items,zn7si1,1.0,response,2_ITEM,2137.7000000059493,2131.399999999965,2137.7000000059493,2137.7000000059493,2131.399999999965,2137.7000000059493,1.0,0.0,0.0,,Click Response,2_count,5.0,object-49,temp_dist_trial,34.0,s_s_06_1,student_stem,calculator,6.0,unique,paired,s_s_06_1.jpg,Student,,,sub-01
Desktop or Laptop,Windows 10,Chrome 137.0.0.0,1280x720,1280x720,Temporal Distance Task,cb_06,82.0,temp_dist_trial,dist_items,qkpkxw,2.0,info,,7.500000005937181,0.0,7.500000005937181,7.500000005937181,0.0,7.500000005937181,1.0,0.0,0.0,,Slider,Slider,4.0,object-56,temp_dist_trial,34.0,s_s_06_1,student_stem,calculator,6.0,unique,paired,s_s_06_1.jpg,Student,,,sub-01
Desktop or Laptop,Windows 10,Chrome 137.0.0.0,1280x720,1280x720,Temporal Distance Task,cb_06,82.0,temp_dist_trial,dist_items,qkpkxw,2.0,continue,,1876.3000000178574,1865.0999999999767,1876.3000000178574,1876.3000000178574,1865.0999999999767,1876.3000000178574,1.0,0.0,0.0,,Click To Continue,Next button,7.0,object-60,temp_dist_trial,34.0,s_s_06_1,student_stem,calculator,6.0,unique,paired,s_s_06_1.jpg,Student,,,sub-01
Desktop or Laptop,Windows 10,Chrome 137.0.0.0,1280x720,1280x720,Temporal Distance Task,cb_06,82.0,temp_dist_trial,dist_items,qkpkxw,2.0,response,33,865.8999999999651,1865.0999999999767,1876.9000000118976,865.8999999999651,1865.0999999999767,1876.9000000118976,1.0,1011.0000000119327,0.0,,Slider,Slider,4.0,object-56,temp_dist_trial,34.0,s_s_06_1,student_stem,calculator,6.0,unique,paired,s_s_06_1.jpg,Student,,,sub-01
Desktop or Laptop,Windows 10,Chrome 137.0.0.0,1280x720,1280x720,Temporal Distance Task,cb_06,83.0,temp_dist_trial,num_items,zn7si1,1.0,response,1_ITEM,1748.0,1731.7999999999884,1748.0,1748.0,1731.7999999999884,1748.0,1.0,0.0,0.0,,Click Response,1_count,3.0,object-46,temp_dist_trial,35.0,s_a_01_1,student_art,paintbrush,6.0,unique,paired,s_a_01_1.jpg,Student,,,sub-01
Desktop or Laptop,Windows 10,Chrome 137.0.0.0,1280x720,1280x720,Temporal Distance Task,cb_06,84.0,temp_dist_trial,num_items,zn7si1,1.0,response,2_ITEM,2006.9999999940628,1998.3000000000463,2006.9999999940628,2006.9999999940628,1998.3000000000463,2006.9999999940628,1.0,0.0,0.0,,Click Response,2_count,5.0,object-49,temp_dist_trial,36.0,s_s_03_1,student_stem,petri dish,6.0,unique,paired,s_s_03_1.jpg,Student,,,sub-01
Desktop or Laptop,Windows 10,Chrome 137.0.0.0,1280x720,1280x720,Temporal Distance Task,cb_06,84.0,temp_dist_trial,dist_items,qkpkxw,2.0,info,,6.400000000023283,0.0,6.400000000023283,6.400000000023283,0.0,6.400000000023283,1.0,0.0,0.0,,Slider,Slider,4.0,object-56,temp_dist_trial,36.0,s_s_03_1,student_stem,petri dish,6.0,unique,paired,s_s_03_1.jpg,Student,,,sub-01
Desktop or Laptop,Windows 10,Chrome 137.0.0.0,1280x720,1280x720,Temporal Distance Task,cb_06,84.0,temp_dist_trial,dist_items,qkpkxw,2.0,continue,,1766.8000000059835,1765.2000000000116,1766.8000000059835,1766.8000000059835,1765.2000000000116,1766.8000000059835,1.0,0.0,0.0,,Click To Continue,Next button,7.0,object-60,temp_dist_trial,36.0,s_s_03_1,student_stem,petri dish,6.0,unique,paired,s_s_03_1.jpg,Student,,,sub-01
Desktop or Laptop,Windows 10,Chrome 137.0.0.0,1280x720,1280x720,Temporal Distance Task,cb_06,84.0,temp_dist_trial,dist_items,qkpkxw,2.0,response,36,666.1000000000347,1765.2000000000116,1771.9000000000233,666.1000000000347,1765.2000000000116,1771.9000000000233,1.0,1105.7999999999884,0.0,,Slider,Slider,4.0,object-56,temp_dist_trial,36.0,s_s_03_1,student_stem,petri dish,6.0,unique,paired,s_s_03_1.jpg,Student,,,sub-01
Desktop or Laptop,Windows 10,Chrome 137.0.0.0,1280x720,1280x720,Temporal Distance Task,cb_06,85.0,temp_dist_trial,num_items,zn7si1,1.0,response,2_ITEM,2139.0000000119326,2131.4000000000233,2139.0000000119326,2139.0000000119326,2131.4000000000233,2139.0000000119326,1.0,0.0,0.0,,Click Response,2_count,5.0,object-49,temp_dist_trial,37.0,s_sh_08_1,student_shared,post-its,6.0,competing,paired,s_sh_08_1.jpg,Student,,,sub-01
Desktop or Laptop,Windows 10,Chrome 137.0.0.0,1280x720,1280x720,Temporal Distance Task,cb_06,85.0,temp_dist_trial,dist_items,qkpkxw,2.0,info,,5.500000005937181,0.0,5.500000005937181,5.500000005937181,0.0,5.500000005937181,1.0,0.0,0.0,,Slider,Slider,4.0,object-56,temp_dist_trial,37.0,s_sh_08_1,student_shared,post-its,6.0,competing,paired,s_sh_08_1.jpg,Student,,,sub-01
Desktop or Laptop,Windows 10,Chrome 137.0.0.0,1280x720,1280x720,Temporal Distance Task,cb_06,85.0,temp_dist_trial,dist_items,qkpkxw,2.0,continue,,2197.300000017858,2181.5,2197.300000017858,2197.300000017858,2181.5,2197.300000017858,1.0,0.0,0.0,,Click To Continue,Next button,7.0,object-60,temp_dist_trial,37.0,s_sh_08_1,student_shared,post-its,6.0,competing,paired,s_sh_08_1.jpg,Student,,,sub-01
Desktop or Laptop,Windows 10,Chrome 137.0.0.0,1280x720,1280x720,Temporal Distance Task,cb_06,85.0,temp_dist_trial,dist_items,qkpkxw,2.0,response,37,1365.5,2181.5,2197.800000017858,1365.5,2181.5,2197.800000017858,1.0,832.3000000178581,0.0,,Slider,Slider,4.0,object-56,temp_dist_trial,37.0,s_sh_08_1,student_shared,post-its,6.0,competing,paired,s_sh_08_1.jpg,Student,,,sub-01
Desktop or Laptop,Windows 10,Chrome 137.0.0.0,1280x720,1280x720,Temporal Distance Task,cb_06,86.0,temp_dist_trial,num_items,zn7si1,1.0,response,1_ITEM,958.0999999999768,949.0999999999768,958.0999999999768,958.0999999999768,949.0999999999768,958.0999999999768,1.0,0.0,0.0,,Click Response,1_count,3.0,object-46,temp_dist_trial,38.0,s_s_12_1,student_stem,robotic arm,6.0,unique,single,s_s_12_1.jpg,Student,,,sub-01
Desktop or Laptop,Windows 10,Chrome 137.0.0.0,1280x720,1280x720,Temporal Distance Task,cb_06,87.0,temp_dist_trial,num_items,zn7si1,1.0,response,2_ITEM,1831.6000000059719,1815.1000000000354,1831.6000000059719,1831.6000000059719,1815.1000000000354,1831.6000000059719,1.0,0.0,0.0,,Click Response,2_count,5.0,object-49,temp_dist_trial,39.0,s_sh_06_1,student_shared,clipboard,6.0,competing,paired,s_sh_06_1.jpg,Student,,,sub-01
Desktop or Laptop,Windows 10,Chrome 137.0.0.0,1280x720,1280x720,Temporal Distance Task,cb_06,87.0,temp_dist_trial,dist_items,qkpkxw,2.0,info,,6.8000000059837475,0.0,6.8000000059837475,6.8000000059837475,0.0,6.8000000059837475,1.0,0.0,0.0,,Slider,Slider,4.0,object-56,temp_dist_trial,39.0,s_sh_06_1,student_shared,clipboard,6.0,competing,paired,s_sh_06_1.jpg,Student,,,sub-01
Desktop or Laptop,Windows 10,Chrome 137.0.0.0,1280x720,1280x720,Temporal Distance Task,cb_06,87.0,temp_dist_trial,dist_items,qkpkxw,2.0,continue,,2862.4999999940637,2846.600000000035,2862.4999999940637,2862.4999999940637,2846.600000000035,2862.4999999940637,1.0,0.0,0.0,,Click To Continue,Next button,7.0,object-60,temp_dist_trial,39.0,s_sh_06_1,student_shared,clipboard,6.0,competing,paired,s_sh_06_1.jpg,Student,,,sub-01
Desktop or Laptop,Windows 10,Chrome 137.0.0.0,1280x720,1280x720,Temporal Distance Task,cb_06,87.0,temp_dist_trial,dist_items,qkpkxw,2.0,response,37,1548.7000000000116,2846.600000000035,2863.3000000000466,1548.7000000000116,2846.600000000035,2863.3000000000466,1.0,1314.600000000035,0.0,,Slider,Slider,4.0,object-56,temp_dist_trial,39.0,s_sh_06_1,student_shared,clipboard,6.0,competing,paired,s_sh_06_1.jpg,Student,,,sub-01
Desktop or Laptop,Windows 10,Chrome 137.0.0.0,1280x720,1280x720,Temporal Distance Task,cb_06,88.0,temp_dist_trial,num_items,zn7si1,1.0,response,1_ITEM,2521.600000011909,2514.399999999965,2521.600000011909,2521.600000011909,2514.399999999965,2521.600000011909,1.0,0.0,0.0,,Click Response,1_count,3.0,object-46,temp_dist_trial,40.0,s_sh_05_1,student_shared,laptop,6.0,competing,single,s_sh_05_1.jpg,Student,,,sub-01
Desktop or Laptop,Windows 10,Chrome 137.0.0.0,1280x720,1280x720,Temporal Distance Task,cb_06,89.0,temp_dist_trial,num_items,zn7si1,1.0,response,2_ITEM,1387.5,1382.0999999999767,1387.5,1387.5,1382.0999999999767,1387.5,1.0,0.0,0.0,,Click Response,2_count,5.0,object-49,temp_dist_trial,41.0,s_sh_14_1,student_shared,printer,6.0,competing,paired,s_sh_14_1.jpg,Student,,,sub-01
Desktop or Laptop,Windows 10,Chrome 137.0.0.0,1280x720,1280x720,Temporal Distance Task,cb_06,89.0,temp_dist_trial,dist_items,qkpkxw,2.0,info,,6.0000000119325705,0.0,6.0000000119325705,6.0000000119325705,0.0,6.0000000119325705,1.0,0.0,0.0,,Slider,Slider,4.0,object-56,temp_dist_trial,41.0,s_sh_14_1,student_shared,printer,6.0,competing,paired,s_sh_14_1.jpg,Student,,,sub-01
