Participant Device,Participant OS,Participant Browser,Participant Monitor Size,Participant Viewport Size,Task Name,Current Spreadsheet,Trial Number,Display,Screen,Screen ID,Screen Counter,Response Type,Response,Onset Time,Clock Time,Reaction Time,Absolute Onset Time,Absolute Clock Time,Absolute Reaction Time,Correct,Response Duration,Proportion,Tag,Component Name,Object Name,Object Number,Object ID,Spreadsheet: display,Spreadsheet: trial,Spreadsheet: stimulus_id,Spreadsheet: expected_goal,Spreadsheet: stimulus_name,Spreadsheet: c_group,Spreadsheet: condition,Spreadsheet: paired_status,Spreadsheet: stimulus_path,Spreadsheet: block_type,Manipulation: Spreadsheet,Store: enc_test_acc,sub_label
Desktop or Laptop,Windows 10,Chrome 138.0.0.0,1280x800,1280x712,Temporal Distance Task,,,,,,,info,BEGIN,,,,,,,,,,,,,,,,,,,,,,,,,$${counterbalance_group},,sub-93
Desktop or Laptop,Windows 10,Chrome 138.0.0.0,1280x800,1280x712,Temporal Distance Task,cb_07,1.0,temp_instructions,intro_screen,3tnme7,1.0,continue,,3958.0,3949.6,3958.0,3958.0,3949.6,3958.0,1.0,0.0,0.0,,Click To Continue,Continue Button,4.0,object-29,temp_instructions,,,Student,,,,,,,$${counterbalance_group},,sub-93
Desktop or Laptop,Windows 10,Chrome 138.0.0.0,1280x800,1280x712,Temporal Distance Task,cb_07,1.0,temp_instructions,intro_screen_2,52v7ur,2.0,continue,,5994.699999976158,5991.8,5994.699999976158,5994.699999976158,5991.8,5994.699999976158,1.0,0.0,0.0,,Click To Continue,Continue Button,4.0,object-39,temp_instructions,,,Student,,,,,,,$${counterbalance_group},,sub-93
Desktop or Laptop,Windows 10,Chrome 138.0.0.0,1280x800,1280x712,Temporal Distance Task,cb_07,1.0,temp_instructions,intro_screen_3,i7lvwx,3.0,continue,,1573.5,1566.6000000000006,1573.5,1573.5,1566.6000000000006,1573.5,1.0,0.0,0.0,,Click To Continue,Continue Button,4.0,object-67,temp_instructions,,,Student,,,,,,,$${counterbalance_group},,sub-93
Desktop or Laptop,Windows 10,Chrome 138.0.0.0,1280x800,1280x712,Temporal Distance Task,cb_07,1.0,temp_instructions,test_q1,5ieqx1,4.0,response,choice_3,3033.199999999999,3024.9,3033.199999999999,3033.199999999999,3024.9,3033.199999999999,1.0,0.0,0.0,,Click Response,choice_3,5.0,object-345,temp_instructions,,,Student,,,,,,,$${counterbalance_group},,sub-93
Desktop or Laptop,Windows 10,Chrome 138.0.0.0,1280x800,1280x712,Temporal Distance Task,cb_07,1.0,temp_instructions,score_corr,7ilvjr,5.0,continue,,816.7000000000045,808.4000000000017,816.7000000000045,816.7000000000045,808.4000000000017,816.7000000000045,1.0,0.0,0.0,,Click To Continue,Continue Button,3.0,object-23,temp_instructions,,,Student,,,,,,,$${counterbalance_group},,sub-93
Desktop or Laptop,Windows 10,Chrome 138.0.0.0,1280x800,1280x712,Temporal Distance Task,cb_07,1.0,temp_eventStart,Screen 1,dgtyxe,1.0,continue,,913.699999994038,908.2999999999993,913.699999994038,913.699999994038,908.2999999999993,913.699999994038,1.0,0.0,0.0,,Click To Continue,Next Button,3.0,object-43,temp_eventStart,,,Student,,,,,,,$${counterbalance_group},,sub-93
Desktop or Laptop,Windows 10,Chrome 138.0.0.0,1280x800,1280x712,Temporal Distance Task,cb_07,1.0,temp_dist_trial,num_items,zn7si1,1.0,response,1_ITEM,2261.7999999999993,2258.399999999998,2261.7999999999993,2261.7999999999993,2258.399999999998,2261.7999999999993,1.0,0.0,0.0,,Click Response,1_count,3.0,object-46,temp_dist_trial,1.0,s_sh_13_1,student_shared,index cards,7.0,competing,paired,s_sh_13_1.jpg,Student,$${counterbalance_group},,sub-93
Desktop or Laptop,Windows 10,Chrome 138.0.0.0,1280x800,1280x712,Temporal Distance Task,cb_07,2.0,temp_dist_trial,num_items,zn7si1,1.0,response,1_ITEM,1926.4999999761567,1924.5999999999985,1926.4999999761567,1926.4999999761567,1924.5999999999985,1926.4999999761567,1.0,0.0,0.0,,Click Response,1_count,3.0,object-46,temp_dist_trial,2.0,s_a_09_1,student_art,picture frame,7.0,unique,single,s_a_09_1.jpg,Student,$${counterbalance_group},,sub-93
Desktop or Laptop,Windows 10,Chrome 138.0.0.0,1280x800,1280x712,Temporal Distance Task,cb_07,3.0,temp_dist_trial,num_items,zn7si1,1.0,response,2_ITEM,2079.899999976158,2075.0,2079.899999976158,2079.899999976158,2075.0,2079.899999976158,1.0,0.0,0.0,,Click Response,2_count,5.0,object-49,temp_dist_trial,3.0,s_sh_02_1,student_shared,eraser,7.0,competing,paired,s_sh_02_1.jpg,Student,$${counterbalance_group},,sub-93
Desktop or Laptop,Windows 10,Chrome 138.0.0.0,1280x800,1280x712,Temporal Distance Task,cb_07,3.0,temp_dist_trial,dist_items,qkpkxw,2.0,info,,7.5,0.0,7.5,7.5,0.0,7.5,1.0,0.0,0.0,,Slider,Slider,4.0,object-56,temp_dist_trial,3.0,s_sh_02_1,student_shared,eraser,7.0,competing,paired,s_sh_02_1.jpg,Student,$${counterbalance_group},,sub-93
Desktop or Laptop,Windows 10,Chrome 138.0.0.0,1280x800,1280x712,Temporal Distance Task,cb_07,3.0,temp_dist_trial,dist_items,qkpkxw,2.0,continue,,2966.0,2958.200000000001,2966.0,2966.0,2958.200000000001,2966.0,1.0,0.0,0.0,,Click To Continue,Next button,7.0,object-60,temp_dist_trial,3.0,s_sh_02_1,student_shared,eraser,7.0,competing,paired,s_sh_02_1.jpg,Student,$${counterbalance_group},,sub-93
Desktop or Laptop,Windows 10,Chrome 138.0.0.0,1280x800,1280x712,Temporal Distance Task,cb_07,3.0,temp_dist_trial,dist_items,qkpkxw,2.0,response,66,2116.900000000001,2958.200000000001,2966.400000000001,2116.900000000001,2958.200000000001,2966.400000000001,1.0,849.5,0.0,,Slider,Slider,4.0,object-56,temp_dist_trial,3.0,s_sh_02_1,student_shared,eraser,7.0,competing,paired,s_sh_02_1.jpg,Student,$${counterbalance_group},,sub-93
Desktop or Laptop,Windows 10,Chrome 138.0.0.0,1280x800,1280x712,Temporal Distance Task,cb_07,4.0,temp_dist_trial,num_items,zn7si1,1.0,response,2_ITEM,1044.2999999999993,1041.7999999999993,1044.2999999999993,1044.2999999999993,1041.7999999999993,1044.2999999999993,1.0,0.0,0.0,,Click Response,2_count,5.0,object-49,temp_dist_trial,4.0,s_sh_07_1,student_shared,ruler,7.0,competing,paired,s_sh_07_1.jpg,Student,$${counterbalance_group},,sub-93
Desktop or Laptop,Windows 10,Chrome 138.0.0.0,1280x800,1280x712,Temporal Distance Task,cb_07,4.0,temp_dist_trial,dist_items,qkpkxw,2.0,info,,7.299999982118607,0.0,7.299999982118607,7.299999982118607,0.0,7.299999982118607,1.0,0.0,0.0,,Slider,Slider,4.0,object-56,temp_dist_trial,4.0,s_sh_07_1,student_shared,ruler,7.0,competing,paired,s_sh_07_1.jpg,Student,$${counterbalance_group},,sub-93
Desktop or Laptop,Windows 10,Chrome 138.0.0.0,1280x800,1280x712,Temporal Distance Task,cb_07,4.0,temp_dist_trial,dist_items,qkpkxw,2.0,continue,,1886.8999999761581,1883.2999999999995,1886.8999999761581,1886.8999999761581,1883.2999999999995,1886.8999999761581,1.0,0.0,0.0,,Click To Continue,Next button,7.0,object-60,temp_dist_trial,4.0,s_sh_07_1,student_shared,ruler,7.0,competing,paired,s_sh_07_1.jpg,Student,$${counterbalance_group},,sub-93
Desktop or Laptop,Windows 10,Chrome 138.0.0.0,1280x800,1280x712,Temporal Distance Task,cb_07,4.0,temp_dist_trial,dist_items,qkpkxw,2.0,response,72,783.4000000000017,1883.2999999999995,1887.5999999940395,783.4000000000017,1883.2999999999995,1887.5999999940395,1.0,1104.1999999940379,0.0,,Slider,Slider,4.0,object-56,temp_dist_trial,4.0,s_sh_07_1,student_shared,ruler,7.0,competing,paired,s_sh_07_1.jpg,Student,$${counterbalance_group},,sub-93
Desktop or Laptop,Windows 10,Chrome 138.0.0.0,1280x800,1280x712,Temporal Distance Task,cb_07,5.0,temp_dist_trial,num_items,zn7si1,1.0,response,2_ITEM,1391.2000000000005,1383.2999999999995,1391.2000000000005,1391.2000000000005,1383.2999999999995,1391.2000000000005,1.0,0.0,0.0,,Click Response,2_count,5.0,object-49,temp_dist_trial,5.0,s_s_16_1,student_stem,toolbox,7.0,unique,paired,s_s_16_1.jpg,Student,$${counterbalance_group},,sub-93
Desktop or Laptop,Windows 10,Chrome 138.0.0.0,1280x800,1280x712,Temporal Distance Task,cb_07,5.0,temp_dist_trial,dist_items,qkpkxw,2.0,info,,6.4999999880819805,0.0,6.4999999880819805,6.4999999880819805,0.0,6.4999999880819805,1.0,0.0,0.0,,Slider,Slider,4.0,object-56,temp_dist_trial,5.0,s_s_16_1,student_stem,toolbox,7.0,unique,paired,s_s_16_1.jpg,Student,$${counterbalance_group},,sub-93
Desktop or Laptop,Windows 10,Chrome 138.0.0.0,1280x800,1280x712,Temporal Distance Task,cb_07,5.0,temp_dist_trial,dist_items,qkpkxw,2.0,continue,,1490.999999988082,1483.2000000000046,1490.999999988082,1490.999999988082,1483.2000000000046,1490.999999988082,1.0,0.0,0.0,,Click To Continue,Next button,7.0,object-60,temp_dist_trial,5.0,s_s_16_1,student_stem,toolbox,7.0,unique,paired,s_s_16_1.jpg,Student,$${counterbalance_group},,sub-93
Desktop or Laptop,Windows 10,Chrome 138.0.0.0,1280x800,1280x712,Temporal Distance Task,cb_07,5.0,temp_dist_trial,dist_items,qkpkxw,2.0,response,38,750.0,1483.2000000000046,1491.5000000000073,750.0,1483.2000000000046,1491.5000000000073,1.0,741.5000000000073,0.0,,Slider,Slider,4.0,object-56,temp_dist_trial,5.0,s_s_16_1,student_stem,toolbox,7.0,unique,paired,s_s_16_1.jpg,Student,$${counterbalance_group},,sub-93
Desktop or Laptop,Windows 10,Chrome 138.0.0.0,1280x800,1280x712,Temporal Distance Task,cb_07,6.0,temp_dist_trial,num_items,zn7si1,1.0,response,2_ITEM,1071.5999999999983,1066.7999999999956,1071.5999999999983,1071.5999999999983,1066.7999999999956,1071.5999999999983,1.0,0.0,0.0,,Click Response,2_count,5.0,object-49,temp_dist_trial,6.0,s_a_18_1,student_art,tutu,7.0,unique,paired,s_a_18_1.jpg,Student,$${counterbalance_group},,sub-93
Desktop or Laptop,Windows 10,Chrome 138.0.0.0,1280x800,1280x712,Temporal Distance Task,cb_07,6.0,temp_dist_trial,dist_items,qkpkxw,2.0,info,,6.699999982120062,0.0,6.699999982120062,6.699999982120062,0.0,6.699999982120062,1.0,0.0,0.0,,Slider,Slider,4.0,object-56,temp_dist_trial,6.0,s_a_18_1,student_art,tutu,7.0,unique,paired,s_a_18_1.jpg,Student,$${counterbalance_group},,sub-93
Desktop or Laptop,Windows 10,Chrome 138.0.0.0,1280x800,1280x712,Temporal Distance Task,cb_07,6.0,temp_dist_trial,dist_items,qkpkxw,2.0,continue,,1677.9999999940412,1675.0,1677.9999999940412,1677.9999999940412,1675.0,1677.9999999940412,1.0,0.0,0.0,,Click To Continue,Next button,7.0,object-60,temp_dist_trial,6.0,s_a_18_1,student_art,tutu,7.0,unique,paired,s_a_18_1.jpg,Student,$${counterbalance_group},,sub-93
Desktop or Laptop,Windows 10,Chrome 138.0.0.0,1280x800,1280x712,Temporal Distance Task,cb_07,6.0,temp_dist_trial,dist_items,qkpkxw,2.0,response,17,883.3000000000029,1675.0,1678.7999999761594,883.3000000000029,1675.0,1678.7999999761594,1.0,795.4999999761568,0.0,,Slider,Slider,4.0,object-56,temp_dist_trial,6.0,s_a_18_1,student_art,tutu,7.0,unique,paired,s_a_18_1.jpg,Student,$${counterbalance_group},,sub-93
Desktop or Laptop,Windows 10,Chrome 138.0.0.0,1280x800,1280x712,Temporal Distance Task,cb_07,7.0,temp_dist_trial,num_items,zn7si1,1.0,response,2_ITEM,1910.2999999761603,1908.3000000000034,1910.2999999761603,1910.2999999761603,1908.3000000000034,1910.2999999761603,1.0,0.0,0.0,,Click Response,2_count,5.0,object-49,temp_dist_trial,7.0,s_a_05_1,student_art,clay,7.0,unique,paired,s_a_05_1.jpg,Student,$${counterbalance_group},,sub-93
Desktop or Laptop,Windows 10,Chrome 138.0.0.0,1280x800,1280x712,Temporal Distance Task,cb_07,7.0,temp_dist_trial,dist_items,qkpkxw,2.0,info,,8.30000000000291,0.0,8.30000000000291,8.30000000000291,0.0,8.30000000000291,1.0,0.0,0.0,,Slider,Slider,4.0,object-56,temp_dist_trial,7.0,s_a_05_1,student_art,clay,7.0,unique,paired,s_a_05_1.jpg,Student,$${counterbalance_group},,sub-93
Desktop or Laptop,Windows 10,Chrome 138.0.0.0,1280x800,1280x712,Temporal Distance Task,cb_07,7.0,temp_dist_trial,dist_items,qkpkxw,2.0,continue,,1941.6999999999966,1933.5999999999985,1941.6999999999966,1941.6999999999966,1933.5999999999985,1941.6999999999966,1.0,0.0,0.0,,Click To Continue,Next button,7.0,object-60,temp_dist_trial,7.0,s_a_05_1,student_art,clay,7.0,unique,paired,s_a_05_1.jpg,Student,$${counterbalance_group},,sub-93
Desktop or Laptop,Windows 10,Chrome 138.0.0.0,1280x800,1280x712,Temporal Distance Task,cb_07,7.0,temp_dist_trial,dist_items,qkpkxw,2.0,response,41,1141.5999999999985,1933.5999999999985,1941.6999999999966,1141.5999999999985,1933.5999999999985,1941.6999999999966,1.0,800.0999999999983,0.0,,Slider,Slider,4.0,object-56,temp_dist_trial,7.0,s_a_05_1,student_art,clay,7.0,unique,paired,s_a_05_1.jpg,Student,$${counterbalance_group},,sub-93
Desktop or Laptop,Windows 10,Chrome 138.0.0.0,1280x800,1280x712,Temporal Distance Task,cb_07,8.0,temp_dist_trial,num_items,zn7si1,1.0,response,1_ITEM,1069.7999999761596,1066.3000000000031,1069.7999999761596,1069.7999999761596,1066.3000000000031,1069.7999999761596,1.0,0.0,0.0,,Click Response,1_count,3.0,object-46,temp_dist_trial,8.0,s_sh_04_1,student_shared,laptop stand,7.0,competing,single,s_sh_04_1.jpg,Student,$${counterbalance_group},,sub-93
Desktop or Laptop,Windows 10,Chrome 138.0.0.0,1280x800,1280x712,Temporal Distance Task,cb_07,9.0,temp_dist_trial,num_items,zn7si1,1.0,response,1_ITEM,903.2999999880777,900.0999999999983,903.2999999880777,903.2999999880777,900.0999999999983,903.2999999880777,1.0,0.0,0.0,,Click Response,1_count,3.0,object-46,temp_dist_trial,9.0,s_a_14_1,student_art,guitar pick,7.0,unique,paired,s_a_14_1.jpg,Student,$${counterbalance_group},,sub-93
Desktop or Laptop,Windows 10,Chrome 138.0.0.0,1280x800,1280x712,Temporal Distance Task,cb_07,10.0,temp_dist_trial,num_items,zn7si1,1.0,response,2_ITEM,1429.5,1425.0,1429.5,1429.5,1425.0,1429.5,1.0,0.0,0.0,,Click Response,2_count,5.0,object-49,temp_dist_trial,10.0,s_a_01_1,student_art,paintbrush,7.0,unique,paired,s_a_01_1.jpg,Student,$${counterbalance_group},,sub-93
Desktop or Laptop,Windows 10,Chrome 138.0.0.0,1280x800,1280x712,Temporal Distance Task,cb_07,10.0,temp_dist_trial,dist_items,qkpkxw,2.0,info,,6.799999976159597,0.0,6.799999976159597,6.799999976159597,0.0,6.799999976159597,1.0,0.0,0.0,,Slider,Slider,4.0,object-56,temp_dist_trial,10.0,s_a_01_1,student_art,paintbrush,7.0,unique,paired,s_a_01_1.jpg,Student,$${counterbalance_group},,sub-93
Desktop or Laptop,Windows 10,Chrome 138.0.0.0,1280x800,1280x712,Temporal Distance Task,cb_07,10.0,temp_dist_trial,dist_items,qkpkxw,2.0,continue,,1320.7999999761596,1316.8000000000031,1320.7999999761596,1320.7999999761596,1316.8000000000031,1320.7999999761596,1.0,0.0,0.0,,Click To Continue,Next button,7.0,object-60,temp_dist_trial,10.0,s_a_01_1,student_art,paintbrush,7.0,unique,paired,s_a_01_1.jpg,Student,$${counterbalance_group},,sub-93
Desktop or Laptop,Windows 10,Chrome 138.0.0.0,1280x800,1280x712,Temporal Distance Task,cb_07,10.0,temp_dist_trial,dist_items,qkpkxw,2.0,response,37,699.9000000000017,1316.8000000000031,1321.499999994041,699.9000000000017,1316.8000000000031,1321.499999994041,1.0,621.5999999940395,0.0,,Slider,Slider,4.0,object-56,temp_dist_trial,10.0,s_a_01_1,student_art,paintbrush,7.0,unique,paired,s_a_01_1.jpg,Student,$${counterbalance_group},,sub-93
Desktop or Laptop,Windows 10,Chrome 138.0.0.0,1280x800,1280x712,Temporal Distance Task,cb_07,11.0,temp_dist_trial,num_items,zn7si1,1.0,response,2_ITEM,1257.1999999940379,1249.6999999999969,1257.1999999940379,1257.1999999940379,1249.6999999999969,1257.1999999940379,1.0,0.0,0.0,,Click Response,2_count,5.0,object-49,temp_dist_trial,11.0,s_sh_16_1,student_shared,stapler,7.0,competing,paired,s_sh_16_1.jpg,Student,$${counterbalance_group},,sub-93
Desktop or Laptop,Windows 10,Chrome 138.0.0.0,1280x800,1280x712,Temporal Distance Task,cb_07,11.0,temp_dist_trial,dist_items,qkpkxw,2.0,info,,6.900000000001455,0.0,6.900000000001455,6.900000000001455,0.0,6.900000000001455,1.0,0.0,0.0,,Slider,Slider,4.0,object-56,temp_dist_trial,11.0,s_sh_16_1,student_shared,stapler,7.0,competing,paired,s_sh_16_1.jpg,Student,$${counterbalance_group},,sub-93
Desktop or Laptop,Windows 10,Chrome 138.0.0.0,1280x800,1280x712,Temporal Distance Task,cb_07,11.0,temp_dist_trial,dist_items,qkpkxw,2.0,continue,,1996.4999999940408,1991.7000000000048,1996.4999999940408,1996.4999999940408,1991.7000000000048,1996.4999999940408,1.0,0.0,0.0,,Click To Continue,Next button,7.0,object-60,temp_dist_trial,11.0,s_sh_16_1,student_shared,stapler,7.0,competing,paired,s_sh_16_1.jpg,Student,$${counterbalance_group},,sub-93
Desktop or Laptop,Windows 10,Chrome 138.0.0.0,1280x800,1280x712,Temporal Distance Task,cb_07,11.0,temp_dist_trial,dist_items,qkpkxw,2.0,response,64,1025.2000000000044,1991.7000000000048,1997.4999999940408,1025.2000000000044,1991.7000000000048,1997.4999999940408,1.0,972.2999999940364,0.0,,Slider,Slider,4.0,object-56,temp_dist_trial,11.0,s_sh_16_1,student_shared,stapler,7.0,competing,paired,s_sh_16_1.jpg,Student,$${counterbalance_group},,sub-93
Desktop or Laptop,Windows 10,Chrome 138.0.0.0,1280x800,1280x712,Temporal Distance Task,cb_07,12.0,temp_dist_trial,num_items,zn7si1,1.0,response,2_ITEM,1229.2999999940366,1224.8999999999942,1229.2999999940366,1229.2999999940366,1224.8999999999942,1229.2999999940366,1.0,0.0,0.0,,Click Response,2_count,5.0,object-49,temp_dist_trial,12.0,s_a_07_1,student_art,yarn,7.0,unique,paired,s_a_07_1.jpg,Student,$${counterbalance_group},,sub-93
Desktop or Laptop,Windows 10,Chrome 138.0.0.0,1280x800,1280x712,Temporal Distance Task,cb_07,12.0,temp_dist_trial,dist_items,qkpkxw,2.0,info,,7.299999994036624,0.0,7.299999994036624,7.299999994036624,0.0,7.299999994036624,1.0,0.0,0.0,,Slider,Slider,4.0,object-56,temp_dist_trial,12.0,s_a_07_1,student_art,yarn,7.0,unique,paired,s_a_07_1.jpg,Student,$${counterbalance_group},,sub-93
Desktop or Laptop,Windows 10,Chrome 138.0.0.0,1280x800,1280x712,Temporal Distance Task,cb_07,12.0,temp_dist_trial,dist_items,qkpkxw,2.0,continue,,2179.299999994037,2175.0,2179.299999994037,2179.299999994037,2175.0,2179.299999994037,1.0,0.0,0.0,,Click To Continue,Next button,7.0,object-60,temp_dist_trial,12.0,s_a_07_1,student_art,yarn,7.0,unique,paired,s_a_07_1.jpg,Student,$${counterbalance_group},,sub-93
Desktop or Laptop,Windows 10,Chrome 138.0.0.0,1280x800,1280x712,Temporal Distance Task,cb_07,12.0,temp_dist_trial,dist_items,qkpkxw,2.0,response,38,941.6999999999972,2175.0,2183.300000000003,941.6999999999972,2175.0,2183.300000000003,1.0,1241.6000000000058,0.0,,Slider,Slider,4.0,object-56,temp_dist_trial,12.0,s_a_07_1,student_art,yarn,7.0,unique,paired,s_a_07_1.jpg,Student,$${counterbalance_group},,sub-93
Desktop or Laptop,Windows 10,Chrome 138.0.0.0,1280x800,1280x712,Temporal Distance Task,cb_07,13.0,temp_dist_trial,num_items,zn7si1,1.0,response,1_ITEM,1791.6999999999896,1783.3999999999942,1791.6999999999896,1791.6999999999896,1783.3999999999942,1791.6999999999896,1.0,0.0,0.0,,Click Response,1_count,3.0,object-46,temp_dist_trial,13.0,s_sh_21_1,student_shared,file holder,7.0,competing,paired,s_sh_21_1.jpg,Student,$${counterbalance_group},,sub-93
Desktop or Laptop,Windows 10,Chrome 138.0.0.0,1280x800,1280x712,Temporal Distance Task,cb_07,14.0,temp_dist_trial,num_items,zn7si1,1.0,response,1_ITEM,953.3999999940423,949.9000000000017,953.3999999940423,953.3999999940423,949.9000000000017,953.3999999940423,1.0,0.0,0.0,,Click Response,1_count,3.0,object-46,temp_dist_trial,14.0,s_sh_11_1,student_shared,pencil case,7.0,competing,paired,s_sh_11_1.jpg,Student,$${counterbalance_group},,sub-93
Desktop or Laptop,Windows 10,Chrome 138.0.0.0,1280x800,1280x712,Temporal Distance Task,cb_07,15.0,temp_dist_trial,num_items,zn7si1,1.0,response,2_ITEM,932.0999999821216,924.9000000000017,932.0999999821216,932.0999999821216,924.9000000000017,932.0999999821216,1.0,0.0,0.0,,Click Response,2_count,5.0,object-49,temp_dist_trial,15.0,s_sh_05_1,student_shared,laptop,7.0,competing,paired,s_sh_05_1.jpg,Student,$${counterbalance_group},,sub-93
Desktop or Laptop,Windows 10,Chrome 138.0.0.0,1280x800,1280x712,Temporal Distance Task,cb_07,15.0,temp_dist_trial,dist_items,qkpkxw,2.0,info,,6.69999999403808,0.0,6.69999999403808,6.69999999403808,0.0,6.69999999403808,1.0,0.0,0.0,,Slider,Slider,4.0,object-56,temp_dist_trial,15.0,s_sh_05_1,student_shared,laptop,7.0,competing,paired,s_sh_05_1.jpg,Student,$${counterbalance_group},,sub-93
Desktop or Laptop,Windows 10,Chrome 138.0.0.0,1280x800,1280x712,Temporal Distance Task,cb_07,15.0,temp_dist_trial,dist_items,qkpkxw,2.0,continue,,1523.3999999821176,1516.4000000000015,1523.3999999821176,1523.3999999821176,1516.4000000000015,1523.3999999821176,1.0,0.0,0.0,,Click To Continue,Next button,7.0,object-60,temp_dist_trial,15.0,s_sh_05_1,student_shared,laptop,7.0,competing,paired,s_sh_05_1.jpg,Student,$${counterbalance_group},,sub-93
Desktop or Laptop,Windows 10,Chrome 138.0.0.0,1280x800,1280x712,Temporal Distance Task,cb_07,15.0,temp_dist_trial,dist_items,qkpkxw,2.0,response,29,724.6999999999971,1516.4000000000015,1524.0999999999985,724.6999999999971,1516.4000000000015,1524.0999999999985,1.0,799.4000000000017,0.0,,Slider,Slider,4.0,object-56,temp_dist_trial,15.0,s_sh_05_1,student_shared,laptop,7.0,competing,paired,s_sh_05_1.jpg,Student,$${counterbalance_group},,sub-93
Desktop or Laptop,Windows 10,Chrome 138.0.0.0,1280x800,1280x712,Temporal Distance Task,cb_07,16.0,temp_dist_trial,num_items,zn7si1,1.0,response,1_ITEM,1258.1999999999969,1250.0,1258.1999999999969,1258.1999999999969,1250.0,1258.1999999999969,1.0,0.0,0.0,,Click Response,1_count,3.0,object-46,temp_dist_trial,16.0,s_sh_06_1,student_shared,clipboard,7.0,competing,paired,s_sh_06_1.jpg,Student,$${counterbalance_group},,sub-93
Desktop or Laptop,Windows 10,Chrome 138.0.0.0,1280x800,1280x712,Temporal Distance Task,cb_07,17.0,temp_dist_trial,num_items,zn7si1,1.0,response,2_ITEM,1165.3000000000031,1157.9000000000015,1165.3000000000031,1165.3000000000031,1157.9000000000015,1165.3000000000031,1.0,0.0,0.0,,Click Response,2_count,5.0,object-49,temp_dist_trial,17.0,s_s_10_1,student_stem,3d molecule,7.0,unique,paired,s_s_10_1.jpg,Student,$${counterbalance_group},,sub-93
Desktop or Laptop,Windows 10,Chrome 138.0.0.0,1280x800,1280x712,Temporal Distance Task,cb_07,17.0,temp_dist_trial,dist_items,qkpkxw,2.0,info,,8.299999999995633,0.0,8.299999999995633,8.299999999995633,0.0,8.299999999995633,1.0,0.0,0.0,,Slider,Slider,4.0,object-56,temp_dist_trial,17.0,s_s_10_1,student_stem,3d molecule,7.0,unique,paired,s_s_10_1.jpg,Student,$${counterbalance_group},,sub-93
Desktop or Laptop,Windows 10,Chrome 138.0.0.0,1280x800,1280x712,Temporal Distance Task,cb_07,17.0,temp_dist_trial,dist_items,qkpkxw,2.0,continue,,1330.1999999821198,1325.0999999999985,1330.1999999821198,1330.1999999821198,1325.0999999999985,1330.1999999821198,1.0,0.0,0.0,,Click To Continue,Next button,7.0,object-60,temp_dist_trial,17.0,s_s_10_1,student_stem,3d molecule,7.0,unique,paired,s_s_10_1.jpg,Student,$${counterbalance_group},,sub-93
Desktop or Laptop,Windows 10,Chrome 138.0.0.0,1280x800,1280x712,Temporal Distance Task,cb_07,17.0,temp_dist_trial,dist_items,qkpkxw,2.0,response,36,658.4000000000016,1325.0999999999985,1333.4999999999927,658.4000000000016,1325.0999999999985,1333.4999999999927,1.0,675.0999999999913,0.0,,Slider,Slider,4.0,object-56,temp_dist_trial,17.0,s_s_10_1,student_stem,3d molecule,7.0,unique,paired,s_s_10_1.jpg,Student,$${counterbalance_group},,sub-93
Desktop or Laptop,Windows 10,Chrome 138.0.0.0,1280x800,1280x712,Temporal Distance Task,cb_07,18.0,temp_dist_trial,num_items,zn7si1,1.0,response,1_ITEM,1363.499999988082,1358.1999999999969,1363.499999988082,1363.499999988082,1358.1999999999969,1363.499999988082,1.0,0.0,0.0,,Click Response,1_count,3.0,object-46,temp_dist_trial,18.0,s_a_12_1,student_art,saxophone,7.0,unique,paired,s_a_12_1.jpg,Student,$${counterbalance_group},,sub-93
Desktop or Laptop,Windows 10,Chrome 138.0.0.0,1280x800,1280x712,Temporal Distance Task,cb_07,19.0,temp_dist_trial,num_items,zn7si1,1.0,response,2_ITEM,1070.0999999761552,1066.3000000000031,1070.0999999761552,1070.0999999761552,1066.3000000000031,1070.0999999761552,1.0,0.0,0.0,,Click Response,2_count,5.0,object-49,temp_dist_trial,19.0,s_s_15_1,student_stem,jumper cables,7.0,unique,paired,s_s_15_1.jpg,Student,$${counterbalance_group},,sub-93
Desktop or Laptop,Windows 10,Chrome 138.0.0.0,1280x800,1280x712,Temporal Distance Task,cb_07,19.0,temp_dist_trial,dist_items,qkpkxw,2.0,info,,6.799999976152321,0.0,6.799999976152321,6.799999976152321,0.0,6.799999976152321,1.0,0.0,0.0,,Slider,Slider,4.0,object-56,temp_dist_trial,19.0,s_s_15_1,student_stem,jumper cables,7.0,unique,paired,s_s_15_1.jpg,Student,$${counterbalance_group},,sub-93
Desktop or Laptop,Windows 10,Chrome 138.0.0.0,1280x800,1280x712,Temporal Distance Task,cb_07,19.0,temp_dist_trial,dist_items,qkpkxw,2.0,continue,,2258.4000000000087,2250.0,2258.4000000000087,2258.4000000000087,2250.0,2258.4000000000087,1.0,0.0,0.0,,Click To Continue,Next button,7.0,object-60,temp_dist_trial,19.0,s_s_15_1,student_stem,jumper cables,7.0,unique,paired,s_s_15_1.jpg,Student,$${counterbalance_group},,sub-93
Desktop or Laptop,Windows 10,Chrome 138.0.0.0,1280x800,1280x712,Temporal Distance Task,cb_07,19.0,temp_dist_trial,dist_items,qkpkxw,2.0,response,27,925.2999999999884,2250.0,2258.4000000000087,925.2999999999884,2250.0,2258.4000000000087,1.0,1333.1000000000204,0.0,,Slider,Slider,4.0,object-56,temp_dist_trial,19.0,s_s_15_1,student_stem,jumper cables,7.0,unique,paired,s_s_15_1.jpg,Student,$${counterbalance_group},,sub-93
Desktop or Laptop,Windows 10,Chrome 138.0.0.0,1280x800,1280x712,Temporal Distance Task,cb_07,20.0,temp_dist_trial,num_items,zn7si1,1.0,response,2_ITEM,1759.4999999940335,1758.2999999999884,1759.4999999940335,1759.4999999940335,1758.2999999999884,1759.4999999940335,1.0,0.0,0.0,,Click Response,2_count,5.0,object-49,temp_dist_trial,20.0,s_s_11_1,student_stem,scientific scale,7.0,unique,paired,s_s_11_1.jpg,Student,$${counterbalance_group},,sub-93
Desktop or Laptop,Windows 10,Chrome 138.0.0.0,1280x800,1280x712,Temporal Distance Task,cb_07,20.0,temp_dist_trial,dist_items,qkpkxw,2.0,info,,6.299999982118608,0.0,6.299999982118608,6.299999982118608,0.0,6.299999982118608,1.0,0.0,0.0,,Slider,Slider,4.0,object-56,temp_dist_trial,20.0,s_s_11_1,student_stem,scientific scale,7.0,unique,paired,s_s_11_1.jpg,Student,$${counterbalance_group},,sub-93
Desktop or Laptop,Windows 10,Chrome 138.0.0.0,1280x800,1280x712,Temporal Distance Task,cb_07,20.0,temp_dist_trial,dist_items,qkpkxw,2.0,continue,,2116.399999976158,2108.300000000003,2116.399999976158,2116.399999976158,2108.300000000003,2116.399999976158,1.0,0.0,0.0,,Click To Continue,Next button,7.0,object-60,temp_dist_trial,20.0,s_s_11_1,student_stem,scientific scale,7.0,unique,paired,s_s_11_1.jpg,Student,$${counterbalance_group},,sub-93
Desktop or Laptop,Windows 10,Chrome 138.0.0.0,1280x800,1280x712,Temporal Distance Task,cb_07,20.0,temp_dist_trial,dist_items,qkpkxw,2.0,response,31,758.3000000000029,2108.300000000003,2116.700000000012,758.3000000000029,2108.300000000003,2116.700000000012,1.0,1358.4000000000087,0.0,,Slider,Slider,4.0,object-56,temp_dist_trial,20.0,s_s_11_1,student_stem,scientific scale,7.0,unique,paired,s_s_11_1.jpg,Student,$${counterbalance_group},,sub-93
Desktop or Laptop,Windows 10,Chrome 138.0.0.0,1280x800,1280x712,Temporal Distance Task,cb_07,21.0,temp_dist_trial,num_items,zn7si1,1.0,response,1_ITEM,961.6999999999972,958.3000000000028,961.6999999999972,961.6999999999972,958.3000000000028,961.6999999999972,1.0,0.0,0.0,,Click Response,1_count,3.0,object-46,temp_dist_trial,21.0,s_s_17_1,student_stem,ring stand,7.0,unique,single,s_s_17_1.jpg,Student,$${counterbalance_group},,sub-93
Desktop or Laptop,Windows 10,Chrome 138.0.0.0,1280x800,1280x712,Temporal Distance Task,cb_07,22.0,temp_dist_trial,num_items,zn7si1,1.0,response,1_ITEM,1146.0,1141.3000000000031,1146.0,1146.0,1141.3000000000031,1146.0,1.0,0.0,0.0,,Click Response,1_count,3.0,object-46,temp_dist_trial,22.0,s_sh_17_1,student_shared,wireless mouse,7.0,competing,single,s_sh_17_1.jpg,Student,$${counterbalance_group},,sub-93
Desktop or Laptop,Windows 10,Chrome 138.0.0.0,1280x800,1280x712,Temporal Distance Task,cb_07,23.0,temp_dist_trial,num_items,zn7si1,1.0,response,1_ITEM,1403.5999999761555,1400.099999999991,1403.5999999761555,1403.5999999761555,1400.099999999991,1403.5999999761555,1.0,0.0,0.0,,Click Response,1_count,3.0,object-46,temp_dist_trial,23.0,s_sh_20_1,student_shared,tape,7.0,competing,single,s_sh_20_1.jpg,Student,$${counterbalance_group},,sub-93
Desktop or Laptop,Windows 10,Chrome 138.0.0.0,1280x800,1280x712,Temporal Distance Task,cb_07,24.0,temp_dist_trial,num_items,zn7si1,1.0,response,1_ITEM,1206.8999999940424,1199.5,1206.8999999940424,1206.8999999940424,1199.5,1206.8999999940424,1.0,0.0,0.0,,Click Response,1_count,3.0,object-46,temp_dist_trial,24.0,s_sh_12_1,student_shared,binder,7.0,competing,paired,s_sh_12_1.jpg,Student,$${counterbalance_group},,sub-93
Desktop or Laptop,Windows 10,Chrome 138.0.0.0,1280x800,1280x712,Temporal Distance Task,cb_07,25.0,temp_dist_trial,num_items,zn7si1,1.0,response,1_ITEM,663.2999999940366,658.3000000000029,663.2999999940366,663.2999999940366,658.3000000000029,663.2999999940366,1.0,0.0,0.0,,Click Response,1_count,3.0,object-46,temp_dist_trial,25.0,s_s_03_1,student_stem,petri dish,7.0,unique,single,s_s_03_1.jpg,Student,$${counterbalance_group},,sub-93
Desktop or Laptop,Windows 10,Chrome 138.0.0.0,1280x800,1280x712,Temporal Distance Task,cb_07,26.0,temp_dist_trial,num_items,zn7si1,1.0,response,1_ITEM,877.8999999999942,874.8999999999942,877.8999999999942,877.8999999999942,874.8999999999942,877.8999999999942,1.0,0.0,0.0,,Click Response,1_count,3.0,object-46,temp_dist_trial,26.0,s_sh_01_1,student_shared,notebook,7.0,competing,single,s_sh_01_1.jpg,Student,$${counterbalance_group},,sub-93
Desktop or Laptop,Windows 10,Chrome 138.0.0.0,1280x800,1280x712,Temporal Distance Task,cb_07,27.0,temp_dist_trial,num_items,zn7si1,1.0,response,1_ITEM,713.0999999880733,708.3999999999942,713.0999999880733,713.0999999880733,708.3999999999942,713.0999999880733,1.0,0.0,0.0,,Click Response,1_count,3.0,object-46,temp_dist_trial,27.0,s_sh_18_1,student_shared,wall calendar,7.0,competing,single,s_sh_18_1.jpg,Student,$${counterbalance_group},,sub-93
Desktop or Laptop,Windows 10,Chrome 138.0.0.0,1280x800,1280x712,Temporal Distance Task,cb_07,28.0,temp_dist_trial,num_items,zn7si1,1.0,response,1_ITEM,1383.2999999999884,1375.0,1383.2999999999884,1383.2999999999884,1375.0,1383.2999999999884,1.0,0.0,0.0,,Click Response,1_count,3.0,object-46,temp_dist_trial,28.0,s_sh_10_1,student_shared,scissors,7.0,competing,paired,s_sh_10_1.jpg,Student,$${counterbalance_group},,sub-93
Desktop or Laptop,Windows 10,Chrome 138.0.0.0,1280x800,1280x712,Temporal Distance Task,cb_07,29.0,temp_dist_trial,num_items,zn7si1,1.0,response,1_ITEM,735.2999999880849,733.3000000000029,735.2999999880849,735.2999999880849,733.3000000000029,735.2999999880849,1.0,0.0,0.0,,Click Response,1_count,3.0,object-46,temp_dist_trial,29.0,s_sh_23_1,student_shared,ballpoint pen,7.0,competing,paired,s_sh_23_1.jpg,Student,$${counterbalance_group},,sub-93
Desktop or Laptop,Windows 10,Chrome 138.0.0.0,1280x800,1280x712,Temporal Distance Task,cb_07,30.0,temp_dist_trial,num_items,zn7si1,1.0,response,2_ITEM,846.0999999821214,841.8000000000029,846.0999999821214,846.0999999821214,841.8000000000029,846.0999999821214,1.0,0.0,0.0,,Click Response,2_count,5.0,object-49,temp_dist_trial,30.0,s_a_06_1,student_art,pastels,7.0,unique,paired,s_a_06_1.jpg,Student,$${counterbalance_group},,sub-93
Desktop or Laptop,Windows 10,Chrome 138.0.0.0,1280x800,1280x712,Temporal Distance Task,cb_07,30.0,temp_dist_trial,dist_items,qkpkxw,2.0,info,,6.899999999994179,0.0,6.899999999994179,6.899999999994179,0.0,6.899999999994179,1.0,0.0,0.0,,Slider,Slider,4.0,object-56,temp_dist_trial,30.0,s_a_06_1,student_art,pastels,7.0,unique,paired,s_a_06_1.jpg,Student,$${counterbalance_group},,sub-93
Desktop or Laptop,Windows 10,Chrome 138.0.0.0,1280x800,1280x712,Temporal Distance Task,cb_07,30.0,temp_dist_trial,dist_items,qkpkxw,2.0,continue,,1629.8999999999942,1624.6999999999966,1629.8999999999942,1629.8999999999942,1624.6999999999966,1629.8999999999942,1.0,0.0,0.0,,Click To Continue,Next button,7.0,object-60,temp_dist_trial,30.0,s_a_06_1,student_art,pastels,7.0,unique,paired,s_a_06_1.jpg,Student,$${counterbalance_group},,sub-93
Desktop or Laptop,Windows 10,Chrome 138.0.0.0,1280x800,1280x712,Temporal Distance Task,cb_07,30.0,temp_dist_trial,dist_items,qkpkxw,2.0,response,29,816.5,1624.6999999999966,1630.7999999761525,816.5,1624.6999999999966,1630.7999999761525,1.0,814.2999999761522,0.0,,Slider,Slider,4.0,object-56,temp_dist_trial,30.0,s_a_06_1,student_art,pastels,7.0,unique,paired,s_a_06_1.jpg,Student,$${counterbalance_group},,sub-93
Desktop or Laptop,Windows 10,Chrome 138.0.0.0,1280x800,1280x712,Temporal Distance Task,cb_07,31.0,temp_dist_trial,num_items,zn7si1,1.0,response,1_ITEM,1035.8999999880764,1033.3999999999942,1035.8999999880764,1035.8999999880764,1033.3999999999942,1035.8999999880764,1.0,0.0,0.0,,Click Response,1_count,3.0,object-46,temp_dist_trial,31.0,s_sh_14_1,student_shared,printer,7.0,competing,paired,s_sh_14_1.jpg,Student,$${counterbalance_group},,sub-93
Desktop or Laptop,Windows 10,Chrome 138.0.0.0,1280x800,1280x712,Temporal Distance Task,cb_07,32.0,temp_dist_trial,num_items,zn7si1,1.0,response,2_ITEM,1530.2999999761525,1524.6999999999966,1530.2999999761525,1530.2999999761525,1524.6999999999966,1530.2999999761525,1.0,0.0,0.0,,Click Response,2_count,5.0,object-49,temp_dist_trial,32.0,s_sh_03_1,student_shared,highlighter,7.0,competing,paired,s_sh_03_1.jpg,Student,$${counterbalance_group},,sub-93
Desktop or Laptop,Windows 10,Chrome 138.0.0.0,1280x800,1280x712,Temporal Distance Task,cb_07,32.0,temp_dist_trial,dist_items,qkpkxw,2.0,info,,6.1999999761610525,0.0,6.1999999761610525,6.1999999761610525,0.0,6.1999999761610525,1.0,0.0,0.0,,Slider,Slider,4.0,object-56,temp_dist_trial,32.0,s_sh_03_1,student_shared,highlighter,7.0,competing,paired,s_sh_03_1.jpg,Student,$${counterbalance_group},,sub-93
Desktop or Laptop,Windows 10,Chrome 138.0.0.0,1280x800,1280x712,Temporal Distance Task,cb_07,32.0,temp_dist_trial,dist_items,qkpkxw,2.0,continue,,1522.3000000000034,1516.8000000000034,1522.3000000000034,1522.3000000000034,1516.8000000000034,1522.3000000000034,1.0,0.0,0.0,,Click To Continue,Next button,7.0,object-60,temp_dist_trial,32.0,s_sh_03_1,student_shared,highlighter,7.0,competing,paired,s_sh_03_1.jpg,Student,$${counterbalance_group},,sub-93
Desktop or Laptop,Windows 10,Chrome 138.0.0.0,1280x800,1280x712,Temporal Distance Task,cb_07,32.0,temp_dist_trial,dist_items,qkpkxw,2.0,response,43,825.0,1516.8000000000034,1523.1999999761608,825.0,1516.8000000000034,1523.1999999761608,1.0,698.199999976161,0.0,,Slider,Slider,4.0,object-56,temp_dist_trial,32.0,s_sh_03_1,student_shared,highlighter,7.0,competing,paired,s_sh_03_1.jpg,Student,$${counterbalance_group},,sub-93
Desktop or Laptop,Windows 10,Chrome 138.0.0.0,1280x800,1280x712,Temporal Distance Task,cb_07,33.0,temp_dist_trial,num_items,zn7si1,1.0,response,1_ITEM,828.2999999821187,824.8999999999942,828.2999999821187,828.2999999821187,824.8999999999942,828.2999999821187,1.0,0.0,0.0,,Click Response,1_count,3.0,object-46,temp_dist_trial,33.0,s_a_08_1,student_art,sewing machine,7.0,unique,single,s_a_08_1.jpg,Student,$${counterbalance_group},,sub-93
Desktop or Laptop,Windows 10,Chrome 138.0.0.0,1280x800,1280x712,Temporal Distance Task,cb_07,34.0,temp_dist_trial,num_items,zn7si1,1.0,response,2_ITEM,1788.1999999999966,1783.0,1788.1999999999966,1788.1999999999966,1783.0,1788.1999999999966,1.0,0.0,0.0,,Click Response,2_count,5.0,object-49,temp_dist_trial,34.0,s_sh_24_1,student_shared,desk organizer,7.0,competing,paired,s_sh_24_1.jpg,Student,$${counterbalance_group},,sub-93
Desktop or Laptop,Windows 10,Chrome 138.0.0.0,1280x800,1280x712,Temporal Distance Task,cb_07,34.0,temp_dist_trial,dist_items,qkpkxw,2.0,info,,6.799999976152321,0.0,6.799999976152321,6.799999976152321,0.0,6.799999976152321,1.0,0.0,0.0,,Slider,Slider,4.0,object-56,temp_dist_trial,34.0,s_sh_24_1,student_shared,desk organizer,7.0,competing,paired,s_sh_24_1.jpg,Student,$${counterbalance_group},,sub-93
Desktop or Laptop,Windows 10,Chrome 138.0.0.0,1280x800,1280x712,Temporal Distance Task,cb_07,34.0,temp_dist_trial,dist_items,qkpkxw,2.0,continue,,1846.4999999940333,1841.7999999999884,1846.4999999940333,1846.4999999940333,1841.7999999999884,1846.4999999940333,1.0,0.0,0.0,,Click To Continue,Next button,7.0,object-60,temp_dist_trial,34.0,s_sh_24_1,student_shared,desk organizer,7.0,competing,paired,s_sh_24_1.jpg,Student,$${counterbalance_group},,sub-93
Desktop or Laptop,Windows 10,Chrome 138.0.0.0,1280x800,1280x712,Temporal Distance Task,cb_07,34.0,temp_dist_trial,dist_items,qkpkxw,2.0,response,60,1125.0,1841.7999999999884,1847.099999988073,1125.0,1841.7999999999884,1847.099999988073,1.0,722.0999999880733,0.0,,Slider,Slider,4.0,object-56,temp_dist_trial,34.0,s_sh_24_1,student_shared,desk organizer,7.0,competing,paired,s_sh_24_1.jpg,Student,$${counterbalance_group},,sub-93
Desktop or Laptop,Windows 10,Chrome 138.0.0.0,1280x800,1280x712,Temporal Distance Task,cb_07,35.0,temp_dist_trial,num_items,zn7si1,1.0,response,2_ITEM,1216.6000000000058,1208.3000000000031,1216.6000000000058,1216.6000000000058,1208.3000000000031,1216.6000000000058,1.0,0.0,0.0,,Click Response,2_count,5.0,object-49,temp_dist_trial,35.0,s_s_08_1,student_stem,soldering iron,7.0,unique,paired,s_s_08_1.jpg,Student,$${counterbalance_group},,sub-93
Desktop or Laptop,Windows 10,Chrome 138.0.0.0,1280x800,1280x712,Temporal Distance Task,cb_07,35.0,temp_dist_trial,dist_items,qkpkxw,2.0,info,,6.8000000000029095,0.0,6.8000000000029095,6.8000000000029095,0.0,6.8000000000029095,1.0,0.0,0.0,,Slider,Slider,4.0,object-56,temp_dist_trial,35.0,s_s_08_1,student_stem,soldering iron,7.0,unique,paired,s_s_08_1.jpg,Student,$${counterbalance_group},,sub-93
Desktop or Laptop,Windows 10,Chrome 138.0.0.0,1280x800,1280x712,Temporal Distance Task,cb_07,35.0,temp_dist_trial,dist_items,qkpkxw,2.0,continue,,1832.5999999821213,1824.6000000000056,1832.5999999821213,1832.5999999821213,1824.6000000000056,1832.5999999821213,1.0,0.0,0.0,,Click To Continue,Next button,7.0,object-60,temp_dist_trial,35.0,s_s_08_1,student_stem,soldering iron,7.0,unique,paired,s_s_08_1.jpg,Student,$${counterbalance_group},,sub-93
Desktop or Laptop,Windows 10,Chrome 138.0.0.0,1280x800,1280x712,Temporal Distance Task,cb_07,35.0,temp_dist_trial,dist_items,qkpkxw,2.0,response,29,933.0,1824.6000000000056,1832.900000000009,933.0,1824.6000000000056,1832.900000000009,1.0,899.9000000000087,0.0,,Slider,Slider,4.0,object-56,temp_dist_trial,35.0,s_s_08_1,student_stem,soldering iron,7.0,unique,paired,s_s_08_1.jpg,Student,$${counterbalance_group},,sub-93
Desktop or Laptop,Windows 10,Chrome 138.0.0.0,1280x800,1280x712,Temporal Distance Task,cb_07,36.0,temp_dist_trial,num_items,zn7si1,1.0,response,1_ITEM,1229.8999999880764,1225.0999999999913,1229.8999999880764,1229.8999999880764,1225.0999999999913,1229.8999999880764,1.0,0.0,0.0,,Click Response,1_count,3.0,object-46,temp_dist_trial,36.0,s_a_03_1,student_art,palette,7.0,unique,single,s_a_03_1.jpg,Student,$${counterbalance_group},,sub-93
Desktop or Laptop,Windows 10,Chrome 138.0.0.0,1280x800,1280x712,Temporal Distance Task,cb_07,37.0,temp_dist_trial,num_items,zn7si1,1.0,response,2_ITEM,1389.6999999999966,1382.8000000000034,1389.6999999999966,1389.6999999999966,1382.8000000000034,1389.6999999999966,1.0,0.0,0.0,,Click Response,2_count,5.0,object-49,temp_dist_trial,37.0,s_s_20_1,student_stem,dna model,7.0,unique,paired,s_s_20_1.jpg,Student,$${counterbalance_group},,sub-93
Desktop or Laptop,Windows 10,Chrome 138.0.0.0,1280x800,1280x712,Temporal Distance Task,cb_07,37.0,temp_dist_trial,dist_items,qkpkxw,2.0,info,,8.400000000008731,0.0,8.400000000008731,8.400000000008731,0.0,8.400000000008731,1.0,0.0,0.0,,Slider,Slider,4.0,object-56,temp_dist_trial,37.0,s_s_20_1,student_stem,dna model,7.0,unique,paired,s_s_20_1.jpg,Student,$${counterbalance_group},,sub-93
Desktop or Laptop,Windows 10,Chrome 138.0.0.0,1280x800,1280x712,Temporal Distance Task,cb_07,37.0,temp_dist_trial,dist_items,qkpkxw,2.0,continue,,1546.8999999880762,1541.599999999991,1546.8999999880762,1546.8999999880762,1541.599999999991,1546.8999999880762,1.0,0.0,0.0,,Click To Continue,Next button,7.0,object-60,temp_dist_trial,37.0,s_s_20_1,student_stem,dna model,7.0,unique,paired,s_s_20_1.jpg,Student,$${counterbalance_group},,sub-93
Desktop or Laptop,Windows 10,Chrome 138.0.0.0,1280x800,1280x712,Temporal Distance Task,cb_07,37.0,temp_dist_trial,dist_items,qkpkxw,2.0,response,31,883.3000000000029,1541.599999999991,1549.9999999999854,883.3000000000029,1541.599999999991,1549.9999999999854,1.0,666.6999999999825,0.0,,Slider,Slider,4.0,object-56,temp_dist_trial,37.0,s_s_20_1,student_stem,dna model,7.0,unique,paired,s_s_20_1.jpg,Student,$${counterbalance_group},,sub-93
Desktop or Laptop,Windows 10,Chrome 138.0.0.0,1280x800,1280x712,Temporal Distance Task,cb_07,38.0,temp_dist_trial,num_items,zn7si1,1.0,response,1_ITEM,914.3999999821243,908.3000000000028,914.3999999821243,914.3999999821243,908.3000000000028,914.3999999821243,1.0,0.0,0.0,,Click Response,1_count,3.0,object-46,temp_dist_trial,38.0,s_sh_22_1,student_shared,hole puncher,7.0,competing,single,s_sh_22_1.jpg,Student,$${counterbalance_group},,sub-93
Desktop or Laptop,Windows 10,Chrome 138.0.0.0,1280x800,1280x712,Temporal Distance Task,cb_07,39.0,temp_dist_trial,num_items,zn7si1,1.0,response,2_ITEM,795.5999999821214,791.6999999999971,795.5999999821214,795.5999999821214,791.6999999999971,795.5999999821214,1.0,0.0,0.0,,Click Response,2_count,5.0,object-49,temp_dist_trial,39.0,s_sh_19_1,student_shared,portable plastic drawer,7.0,competing,paired,s_sh_19_1.jpg,Student,$${counterbalance_group},,sub-93
Desktop or Laptop,Windows 10,Chrome 138.0.0.0,1280x800,1280x712,Temporal Distance Task,cb_07,39.0,temp_dist_trial,dist_items,qkpkxw,2.0,info,,6.600000000005821,0.0,6.600000000005821,6.600000000005821,0.0,6.600000000005821,1.0,0.0,0.0,,Slider,Slider,4.0,object-56,temp_dist_trial,39.0,s_sh_19_1,student_shared,portable plastic drawer,7.0,competing,paired,s_sh_19_1.jpg,Student,$${counterbalance_group},,sub-93
Desktop or Laptop,Windows 10,Chrome 138.0.0.0,1280x800,1280x712,Temporal Distance Task,cb_07,39.0,temp_dist_trial,dist_items,qkpkxw,2.0,continue,,1851.699999994045,1850.0,1851.699999994045,1851.699999994045,1850.0,1851.699999994045,1.0,0.0,0.0,,Click To Continue,Next button,7.0,object-60,temp_dist_trial,39.0,s_sh_19_1,student_shared,portable plastic drawer,7.0,competing,paired,s_sh_19_1.jpg,Student,$${counterbalance_group},,sub-93
Desktop or Laptop,Windows 10,Chrome 138.0.0.0,1280x800,1280x712,Temporal Distance Task,cb_07,39.0,temp_dist_trial,dist_items,qkpkxw,2.0,response,43,708.4000000000087,1850.0,1852.3999999821247,708.4000000000087,1850.0,1852.3999999821247,1.0,1143.9999999821155,0.0,,Slider,Slider,4.0,object-56,temp_dist_trial,39.0,s_sh_19_1,student_shared,portable plastic drawer,7.0,competing,paired,s_sh_19_1.jpg,Student,$${counterbalance_group},,sub-93
Desktop or Laptop,Windows 10,Chrome 138.0.0.0,1280x800,1280x712,Temporal Distance Task,cb_07,40.0,temp_dist_trial,num_items,zn7si1,1.0,response,2_ITEM,1243.2999999880851,1241.6000000000058,1243.2999999880851,1243.2999999880851,1241.6000000000058,1243.2999999880851,1.0,0.0,0.0,,Click Response,2_count,5.0,object-49,temp_dist_trial,40.0,s_sh_08_1,student_shared,post-its,7.0,competing,single,s_sh_08_1.jpg,Student,$${counterbalance_group},,sub-93
Desktop or Laptop,Windows 10,Chrome 138.0.0.0,1280x800,1280x712,Temporal Distance Task,cb_07,40.0,temp_dist_trial,dist_items,qkpkxw,2.0,info,,6.599999994039536,0.0,6.599999994039536,6.599999994039536,0.0,6.599999994039536,1.0,0.0,0.0,,Slider,Slider,4.0,object-56,temp_dist_trial,40.0,s_sh_08_1,student_shared,post-its,7.0,competing,single,s_sh_08_1.jpg,Student,$${counterbalance_group},,sub-93
Desktop or Laptop,Windows 10,Chrome 138.0.0.0,1280x800,1280x712,Temporal Distance Task,cb_07,40.0,temp_dist_trial,dist_items,qkpkxw,2.0,continue,,1281.699999988079,1275.0,1281.699999988079,1281.699999988079,1275.0,1281.699999988079,1.0,0.0,0.0,,Click To Continue,Next button,7.0,object-60,temp_dist_trial,40.0,s_sh_08_1,student_shared,post-its,7.0,competing,single,s_sh_08_1.jpg,Student,$${counterbalance_group},,sub-93
Desktop or Laptop,Windows 10,Chrome 138.0.0.0,1280x800,1280x712,Temporal Distance Task,cb_07,40.0,temp_dist_trial,dist_items,qkpkxw,2.0,response,35,575.6999999999971,1275.0,1282.5999999940395,575.6999999999971,1275.0,1282.5999999940395,1.0,706.8999999940422,0.0,,Slider,Slider,4.0,object-56,temp_dist_trial,40.0,s_sh_08_1,student_shared,post-its,7.0,competing,single,s_sh_08_1.jpg,Student,$${counterbalance_group},,sub-93
Desktop or Laptop,Windows 10,Chrome 138.0.0.0,1280x800,1280x712,Temporal Distance Task,cb_07,41.0,temp_dist_trial,num_items,zn7si1,1.0,response,1_ITEM,868.3999999761581,866.6999999999971,868.3999999761581,868.3999999761581,866.6999999999971,868.3999999761581,1.0,0.0,0.0,,Click Response,1_count,3.0,object-46,temp_dist_trial,41.0,s_a_15_1,student_art,drum kit,7.0,unique,paired,s_a_15_1.jpg,Student,$${counterbalance_group},,sub-93
Desktop or Laptop,Windows 10,Chrome 138.0.0.0,1280x800,1280x712,Temporal Distance Task,cb_07,42.0,temp_dist_trial,num_items,zn7si1,1.0,response,2_ITEM,1144.2999999761525,1141.1999999999969,1144.2999999761525,1144.2999999761525,1141.1999999999969,1144.2999999761525,1.0,0.0,0.0,,Click Response,2_count,5.0,object-49,temp_dist_trial,42.0,s_s_06_1,student_stem,calculator,7.0,unique,paired,s_s_06_1.jpg,Student,$${counterbalance_group},,sub-93
Desktop or Laptop,Windows 10,Chrome 138.0.0.0,1280x800,1280x712,Temporal Distance Task,cb_07,42.0,temp_dist_trial,dist_items,qkpkxw,2.0,info,,6.399999982124427,0.0,6.399999982124427,6.399999982124427,0.0,6.399999982124427,1.0,0.0,0.0,,Slider,Slider,4.0,object-56,temp_dist_trial,42.0,s_s_06_1,student_stem,calculator,7.0,unique,paired,s_s_06_1.jpg,Student,$${counterbalance_group},,sub-93
Desktop or Laptop,Windows 10,Chrome 138.0.0.0,1280x800,1280x712,Temporal Distance Task,cb_07,42.0,temp_dist_trial,dist_items,qkpkxw,2.0,continue,,1518.7999999880853,1516.6000000000058,1518.7999999880853,1518.7999999880853,1516.6000000000058,1518.7999999880853,1.0,0.0,0.0,,Click To Continue,Next button,7.0,object-60,temp_dist_trial,42.0,s_s_06_1,student_stem,calculator,7.0,unique,paired,s_s_06_1.jpg,Student,$${counterbalance_group},,sub-93
Desktop or Laptop,Windows 10,Chrome 138.0.0.0,1280x800,1280x712,Temporal Distance Task,cb_07,42.0,temp_dist_trial,dist_items,qkpkxw,2.0,response,27,808.3000000000029,1516.6000000000058,1525.0,808.3000000000029,1516.6000000000058,1525.0,1.0,716.6999999999971,0.0,,Slider,Slider,4.0,object-56,temp_dist_trial,42.0,s_s_06_1,student_stem,calculator,7.0,unique,paired,s_s_06_1.jpg,Student,$${counterbalance_group},,sub-93
Desktop or Laptop,Windows 10,Chrome 138.0.0.0,1280x800,1280x712,Temporal Distance Task,cb_07,43.0,temp_dist_trial,num_items,zn7si1,1.0,response,1_ITEM,594.0999999940395,591.6000000000057,594.0999999940395,594.0999999940395,591.6000000000057,594.0999999940395,1.0,0.0,0.0,,Click Response,1_count,3.0,object-46,temp_dist_trial,43.0,s_s_13_1,student_stem,telescope,7.0,unique,single,s_s_13_1.jpg,Student,$${counterbalance_group},,sub-93
Desktop or Laptop,Windows 10,Chrome 138.0.0.0,1280x800,1280x712,Temporal Distance Task,cb_07,44.0,temp_dist_trial,num_items,zn7si1,1.0,response,1_ITEM,630.2999999761523,625.2999999999884,630.2999999761523,630.2999999761523,625.2999999999884,630.2999999761523,1.0,0.0,0.0,,Click Response,1_count,3.0,object-46,temp_dist_trial,44.0,s_a_13_1,student_art,violin,7.0,unique,single,s_a_13_1.jpg,Student,$${counterbalance_group},,sub-93
Desktop or Laptop,Windows 10,Chrome 138.0.0.0,1280x800,1280x712,Temporal Distance Task,cb_07,45.0,temp_dist_trial,num_items,zn7si1,1.0,response,2_ITEM,1732.6999999761608,1724.900000000009,1732.6999999761608,1732.6999999761608,1724.900000000009,1732.6999999761608,1.0,0.0,0.0,,Click Response,2_count,5.0,object-49,temp_dist_trial,45.0,s_sh_15_1,student_shared,usb drive,7.0,competing,paired,s_sh_15_1.jpg,Student,$${counterbalance_group},,sub-93
Desktop or Laptop,Windows 10,Chrome 138.0.0.0,1280x800,1280x712,Temporal Distance Task,cb_07,45.0,temp_dist_trial,dist_items,qkpkxw,2.0,info,,6.399999994042448,0.0,6.399999994042448,6.399999994042448,0.0,6.399999994042448,1.0,0.0,0.0,,Slider,Slider,4.0,object-56,temp_dist_trial,45.0,s_sh_15_1,student_shared,usb drive,7.0,competing,paired,s_sh_15_1.jpg,Student,$${counterbalance_group},,sub-93
Desktop or Laptop,Windows 10,Chrome 138.0.0.0,1280x800,1280x712,Temporal Distance Task,cb_07,45.0,temp_dist_trial,dist_items,qkpkxw,2.0,continue,,1521.499999988082,1516.6999999999966,1521.499999988082,1521.499999988082,1516.6999999999966,1521.499999988082,1.0,0.0,0.0,,Click To Continue,Next button,7.0,object-60,temp_dist_trial,45.0,s_sh_15_1,student_shared,usb drive,7.0,competing,paired,s_sh_15_1.jpg,Student,$${counterbalance_group},,sub-93
Desktop or Laptop,Windows 10,Chrome 138.0.0.0,1280x800,1280x712,Temporal Distance Task,cb_07,45.0,temp_dist_trial,dist_items,qkpkxw,2.0,response,63,658.4000000000087,1516.6999999999966,1522.3999999940424,658.4000000000087,1516.6999999999966,1522.3999999940424,1.0,863.9999999940338,0.0,,Slider,Slider,4.0,object-56,temp_dist_trial,45.0,s_sh_15_1,student_shared,usb drive,7.0,competing,paired,s_sh_15_1.jpg,Student,$${counterbalance_group},,sub-93
Desktop or Laptop,Windows 10,Chrome 138.0.0.0,1280x800,1280x712,Temporal Distance Task,cb_07,46.0,temp_dist_trial,num_items,zn7si1,1.0,response,1_ITEM,843.6000000000058,841.5,843.6000000000058,843.6000000000058,841.5,843.6000000000058,1.0,0.0,0.0,,Click Response,1_count,3.0,object-46,temp_dist_trial,46.0,s_s_14_1,student_stem,funnel,7.0,unique,single,s_s_14_1.jpg,Student,$${counterbalance_group},,sub-93
Desktop or Laptop,Windows 10,Chrome 138.0.0.0,1280x800,1280x712,Temporal Distance Task,cb_07,47.0,temp_dist_trial,num_items,zn7si1,1.0,response,2_ITEM,1256.2999999821186,1250.3999999999942,1256.2999999821186,1256.2999999821186,1250.3999999999942,1256.2999999821186,1.0,0.0,0.0,,Click Response,2_count,5.0,object-49,temp_dist_trial,47.0,s_s_19_1,student_stem,circuit board,7.0,unique,paired,s_s_19_1.jpg,Student,$${counterbalance_group},,sub-93
Desktop or Laptop,Windows 10,Chrome 138.0.0.0,1280x800,1280x712,Temporal Distance Task,cb_07,47.0,temp_dist_trial,dist_items,qkpkxw,2.0,info,,6.100000000005821,0.0,6.100000000005821,6.100000000005821,0.0,6.100000000005821,1.0,0.0,0.0,,Slider,Slider,4.0,object-56,temp_dist_trial,47.0,s_s_19_1,student_stem,circuit board,7.0,unique,paired,s_s_19_1.jpg,Student,$${counterbalance_group},,sub-93
Desktop or Laptop,Windows 10,Chrome 138.0.0.0,1280x800,1280x712,Temporal Distance Task,cb_07,47.0,temp_dist_trial,dist_items,qkpkxw,2.0,continue,,1653.6999999940454,1649.6000000000058,1653.6999999940454,1653.6999999940454,1649.6000000000058,1653.6999999940454,1.0,0.0,0.0,,Click To Continue,Next button,7.0,object-60,temp_dist_trial,47.0,s_s_19_1,student_stem,circuit board,7.0,unique,paired,s_s_19_1.jpg,Student,$${counterbalance_group},,sub-93
Desktop or Laptop,Windows 10,Chrome 138.0.0.0,1280x800,1280x712,Temporal Distance Task,cb_07,47.0,temp_dist_trial,dist_items,qkpkxw,2.0,response,75,774.7000000000116,1649.6000000000058,1654.6999999940454,774.7000000000116,1649.6000000000058,1654.6999999940454,1.0,879.9999999940338,0.0,,Slider,Slider,4.0,object-56,temp_dist_trial,47.0,s_s_19_1,student_stem,circuit board,7.0,unique,paired,s_s_19_1.jpg,Student,$${counterbalance_group},,sub-93
Desktop or Laptop,Windows 10,Chrome 138.0.0.0,1280x800,1280x712,Temporal Distance Task,cb_07,48.0,temp_dist_trial,num_items,zn7si1,1.0,response,1_ITEM,705.1999999880791,700.1000000000058,705.1999999880791,705.1999999880791,700.1000000000058,705.1999999880791,1.0,0.0,0.0,,Click Response,1_count,3.0,object-46,temp_dist_trial,48.0,s_sh_09_1,student_shared,paper clips,7.0,competing,single,s_sh_09_1.jpg,Student,$${counterbalance_group},,sub-93
Desktop or Laptop,Windows 10,Chrome 138.0.0.0,1280x800,1280x712,Temporal Distance Task,cb_07,2.0,temp_eventStart,Screen 1,dgtyxe,1.0,continue,,23578.79999998212,23575.0,23578.79999998212,23578.79999998212,23575.0,23578.79999998212,1.0,0.0,0.0,,Click To Continue,Next Button,3.0,object-43,temp_eventStart,,,Travel,,,,,,,$${counterbalance_group},,sub-93
Desktop or Laptop,Windows 10,Chrome 138.0.0.0,1280x800,1280x712,Temporal Distance Task,cb_07,49.0,temp_dist_trial,num_items,zn7si1,1.0,response,1_ITEM,1380.1999999880786,1375.0,1380.1999999880786,1380.1999999880786,1375.0,1380.1999999880786,1.0,0.0,0.0,,Click Response,1_count,3.0,object-46,temp_dist_trial,1.0,t_i_04_1,travel_Iceland,portable camping stove,7.0,unique,paired,t_i_04_1.jpg,Travel,$${counterbalance_group},,sub-93
Desktop or Laptop,Windows 10,Chrome 138.0.0.0,1280x800,1280x712,Temporal Distance Task,cb_07,50.0,temp_dist_trial,num_items,zn7si1,1.0,response,1_ITEM,787.2999999940512,783.1000000000058,787.2999999940512,787.2999999940512,783.1000000000058,787.2999999940512,1.0,0.0,0.0,,Click Response,1_count,3.0,object-46,temp_dist_trial,2.0,t_i_17_1,travel_Iceland,binoculars,7.0,unique,single,t_i_17_1.jpg,Travel,$${counterbalance_group},,sub-93
Desktop or Laptop,Windows 10,Chrome 138.0.0.0,1280x800,1280x712,Temporal Distance Task,cb_07,51.0,temp_dist_trial,num_items,zn7si1,1.0,response,1_ITEM,940.0999999761698,933.8000000000177,940.0999999761698,940.0999999761698,933.8000000000177,940.0999999761698,1.0,0.0,0.0,,Click Response,1_count,3.0,object-46,temp_dist_trial,3.0,t_m_04_1,travel_Miami,UV jacket,7.0,unique,single,t_m_04_1.jpg,Travel,$${counterbalance_group},,sub-93
Desktop or Laptop,Windows 10,Chrome 138.0.0.0,1280x800,1280x712,Temporal Distance Task,cb_07,52.0,temp_dist_trial,num_items,zn7si1,1.0,response,1_ITEM,1779.4999999940335,1774.5,1779.4999999940335,1779.4999999940335,1774.5,1779.4999999940335,1.0,0.0,0.0,,Click Response,1_count,3.0,object-46,temp_dist_trial,4.0,t_m_20_1,travel_Miami,inflatable beachball,7.0,unique,single,t_m_20_1.jpg,Travel,$${counterbalance_group},,sub-93
Desktop or Laptop,Windows 10,Chrome 138.0.0.0,1280x800,1280x712,Temporal Distance Task,cb_07,53.0,temp_dist_trial,num_items,zn7si1,1.0,response,1_ITEM,725.4000000000232,716.7000000000116,725.4000000000232,725.4000000000232,716.7000000000116,725.4000000000232,1.0,0.0,0.0,,Click Response,1_count,3.0,object-46,temp_dist_trial,5.0,t_s_24_1,travel_shared,ear plugs,7.0,competing,single,t_s_24_1.jpg,Travel,$${counterbalance_group},,sub-93
Desktop or Laptop,Windows 10,Chrome 138.0.0.0,1280x800,1280x712,Temporal Distance Task,cb_07,54.0,temp_dist_trial,num_items,zn7si1,1.0,response,2_ITEM,853.3999999880908,850.0,853.3999999880908,853.3999999880908,850.0,853.3999999880908,1.0,0.0,0.0,,Click Response,2_count,5.0,object-49,temp_dist_trial,6.0,t_s_16_1,travel_shared,chapstick,7.0,competing,paired,t_s_16_1.jpg,Travel,$${counterbalance_group},,sub-93
Desktop or Laptop,Windows 10,Chrome 138.0.0.0,1280x800,1280x712,Temporal Distance Task,cb_07,54.0,temp_dist_trial,dist_items,qkpkxw,2.0,info,,6.499999982130247,0.0,6.499999982130247,6.499999982130247,0.0,6.499999982130247,1.0,0.0,0.0,,Slider,Slider,4.0,object-56,temp_dist_trial,6.0,t_s_16_1,travel_shared,chapstick,7.0,competing,paired,t_s_16_1.jpg,Travel,$${counterbalance_group},,sub-93
Desktop or Laptop,Windows 10,Chrome 138.0.0.0,1280x800,1280x712,Temporal Distance Task,cb_07,54.0,temp_dist_trial,dist_items,qkpkxw,2.0,continue,,1872.099999976169,1866.7000000000119,1872.099999976169,1872.099999976169,1866.7000000000119,1872.099999976169,1.0,0.0,0.0,,Click To Continue,Next button,7.0,object-60,temp_dist_trial,6.0,t_s_16_1,travel_shared,chapstick,7.0,competing,paired,t_s_16_1.jpg,Travel,$${counterbalance_group},,sub-93
Desktop or Laptop,Windows 10,Chrome 138.0.0.0,1280x800,1280x712,Temporal Distance Task,cb_07,54.0,temp_dist_trial,dist_items,qkpkxw,2.0,response,63,992.1000000000058,1866.7000000000119,1872.9999999821305,992.1000000000058,1866.7000000000119,1872.9999999821305,1.0,880.8999999821242,0.0,,Slider,Slider,4.0,object-56,temp_dist_trial,6.0,t_s_16_1,travel_shared,chapstick,7.0,competing,paired,t_s_16_1.jpg,Travel,$${counterbalance_group},,sub-93
Desktop or Laptop,Windows 10,Chrome 138.0.0.0,1280x800,1280x712,Temporal Distance Task,cb_07,55.0,temp_dist_trial,num_items,zn7si1,1.0,response,1_ITEM,1088.399999976158,1083.2999999999884,1088.399999976158,1088.399999976158,1083.2999999999884,1088.399999976158,1.0,0.0,0.0,,Click Response,1_count,3.0,object-46,temp_dist_trial,7.0,t_s_23_1,travel_shared,ball cap,7.0,competing,single,t_s_23_1.jpg,Travel,$${counterbalance_group},,sub-93
Desktop or Laptop,Windows 10,Chrome 138.0.0.0,1280x800,1280x712,Temporal Distance Task,cb_07,56.0,temp_dist_trial,num_items,zn7si1,1.0,response,2_ITEM,1018.7999999940512,1016.6000000000058,1018.7999999940512,1018.7999999940512,1016.6000000000058,1018.7999999940512,1.0,0.0,0.0,,Click Response,2_count,5.0,object-49,temp_dist_trial,8.0,t_i_11_1,travel_Iceland,headlamp,7.0,unique,paired,t_i_11_1.jpg,Travel,$${counterbalance_group},,sub-93
Desktop or Laptop,Windows 10,Chrome 138.0.0.0,1280x800,1280x712,Temporal Distance Task,cb_07,56.0,temp_dist_trial,dist_items,qkpkxw,2.0,info,,7.0,0.0,7.0,7.0,0.0,7.0,1.0,0.0,0.0,,Slider,Slider,4.0,object-56,temp_dist_trial,8.0,t_i_11_1,travel_Iceland,headlamp,7.0,unique,paired,t_i_11_1.jpg,Travel,$${counterbalance_group},,sub-93
Desktop or Laptop,Windows 10,Chrome 138.0.0.0,1280x800,1280x712,Temporal Distance Task,cb_07,56.0,temp_dist_trial,dist_items,qkpkxw,2.0,continue,,1354.5,1350.0,1354.5,1354.5,1350.0,1354.5,1.0,0.0,0.0,,Click To Continue,Next button,7.0,object-60,temp_dist_trial,8.0,t_i_11_1,travel_Iceland,headlamp,7.0,unique,paired,t_i_11_1.jpg,Travel,$${counterbalance_group},,sub-93
Desktop or Laptop,Windows 10,Chrome 138.0.0.0,1280x800,1280x712,Temporal Distance Task,cb_07,56.0,temp_dist_trial,dist_items,qkpkxw,2.0,response,37,683.3999999999943,1350.0,1355.199999988079,683.3999999999943,1350.0,1355.199999988079,1.0,671.7999999880849,0.0,,Slider,Slider,4.0,object-56,temp_dist_trial,8.0,t_i_11_1,travel_Iceland,headlamp,7.0,unique,paired,t_i_11_1.jpg,Travel,$${counterbalance_group},,sub-93
Desktop or Laptop,Windows 10,Chrome 138.0.0.0,1280x800,1280x712,Temporal Distance Task,cb_07,57.0,temp_dist_trial,num_items,zn7si1,1.0,response,1_ITEM,943.7999999821187,941.5,943.7999999821187,943.7999999821187,941.5,943.7999999821187,1.0,0.0,0.0,,Click Response,1_count,3.0,object-46,temp_dist_trial,9.0,t_i_03_1,travel_Iceland,winter jacket,7.0,unique,single,t_i_03_1.jpg,Travel,$${counterbalance_group},,sub-93
Desktop or Laptop,Windows 10,Chrome 138.0.0.0,1280x800,1280x712,Temporal Distance Task,cb_07,58.0,temp_dist_trial,num_items,zn7si1,1.0,response,2_ITEM,921.1999999880792,916.2999999999884,921.1999999880792,921.1999999880792,916.2999999999884,921.1999999880792,1.0,0.0,0.0,,Click Response,2_count,5.0,object-49,temp_dist_trial,10.0,t_i_12_1,travel_Iceland,tent,7.0,unique,paired,t_i_12_1.jpg,Travel,$${counterbalance_group},,sub-93
Desktop or Laptop,Windows 10,Chrome 138.0.0.0,1280x800,1280x712,Temporal Distance Task,cb_07,58.0,temp_dist_trial,dist_items,qkpkxw,2.0,info,,6.8999999880907135,0.0,6.8999999880907135,6.8999999880907135,0.0,6.8999999880907135,1.0,0.0,0.0,,Slider,Slider,4.0,object-56,temp_dist_trial,10.0,t_i_12_1,travel_Iceland,tent,7.0,unique,paired,t_i_12_1.jpg,Travel,$${counterbalance_group},,sub-93
Desktop or Laptop,Windows 10,Chrome 138.0.0.0,1280x800,1280x712,Temporal Distance Task,cb_07,58.0,temp_dist_trial,dist_items,qkpkxw,2.0,continue,,1488.7000000000116,1483.3000000000175,1488.7000000000116,1488.7000000000116,1483.3000000000175,1488.7000000000116,1.0,0.0,0.0,,Click To Continue,Next button,7.0,object-60,temp_dist_trial,10.0,t_i_12_1,travel_Iceland,tent,7.0,unique,paired,t_i_12_1.jpg,Travel,$${counterbalance_group},,sub-93
Desktop or Laptop,Windows 10,Chrome 138.0.0.0,1280x800,1280x712,Temporal Distance Task,cb_07,58.0,temp_dist_trial,dist_items,qkpkxw,2.0,response,32,608.5,1483.3000000000175,1489.49999998213,608.5,1483.3000000000175,1489.49999998213,1.0,880.9999999821302,0.0,,Slider,Slider,4.0,object-56,temp_dist_trial,10.0,t_i_12_1,travel_Iceland,tent,7.0,unique,paired,t_i_12_1.jpg,Travel,$${counterbalance_group},,sub-93
Desktop or Laptop,Windows 10,Chrome 138.0.0.0,1280x800,1280x712,Temporal Distance Task,cb_07,59.0,temp_dist_trial,num_items,zn7si1,1.0,response,1_ITEM,1021.2999999761523,1016.6999999999823,1021.2999999761523,1021.2999999761523,1016.6999999999823,1021.2999999761523,1.0,0.0,0.0,,Click Response,1_count,3.0,object-46,temp_dist_trial,11.0,t_s_15_1,travel_shared,luggage tag,7.0,competing,single,t_s_15_1.jpg,Travel,$${counterbalance_group},,sub-93
Desktop or Laptop,Windows 10,Chrome 138.0.0.0,1280x800,1280x712,Temporal Distance Task,cb_07,60.0,temp_dist_trial,num_items,zn7si1,1.0,response,1_ITEM,881.5999999761698,874.4000000000232,881.5999999761698,881.5999999761698,874.4000000000232,881.5999999761698,1.0,0.0,0.0,,Click Response,1_count,3.0,object-46,temp_dist_trial,12.0,t_m_05_1,travel_Miami,sunscreen,7.0,unique,paired,t_m_05_1.jpg,Travel,$${counterbalance_group},,sub-93
Desktop or Laptop,Windows 10,Chrome 138.0.0.0,1280x800,1280x712,Temporal Distance Task,cb_07,61.0,temp_dist_trial,num_items,zn7si1,1.0,response,1_ITEM,740.7000000000116,732.8000000000177,740.7000000000116,740.7000000000116,732.8000000000177,740.7000000000116,1.0,0.0,0.0,,Click Response,1_count,3.0,object-46,temp_dist_trial,13.0,t_s_01_1,travel_shared,fanny pack,7.0,competing,single,t_s_01_1.jpg,Travel,$${counterbalance_group},,sub-93
Desktop or Laptop,Windows 10,Chrome 138.0.0.0,1280x800,1280x712,Temporal Distance Task,cb_07,62.0,temp_dist_trial,num_items,zn7si1,1.0,response,2_ITEM,846.3999999999942,841.6999999999823,846.3999999999942,846.3999999999942,841.6999999999823,846.3999999999942,1.0,0.0,0.0,,Click Response,2_count,5.0,object-49,temp_dist_trial,14.0,t_m_09_1,travel_Miami,beach towel,7.0,unique,paired,t_m_09_1.jpg,Travel,$${counterbalance_group},,sub-93
Desktop or Laptop,Windows 10,Chrome 138.0.0.0,1280x800,1280x712,Temporal Distance Task,cb_07,62.0,temp_dist_trial,dist_items,qkpkxw,2.0,info,,5.999999982130247,0.0,5.999999982130247,5.999999982130247,0.0,5.999999982130247,1.0,0.0,0.0,,Slider,Slider,4.0,object-56,temp_dist_trial,14.0,t_m_09_1,travel_Miami,beach towel,7.0,unique,paired,t_m_09_1.jpg,Travel,$${counterbalance_group},,sub-93
Desktop or Laptop,Windows 10,Chrome 138.0.0.0,1280x800,1280x712,Temporal Distance Task,cb_07,62.0,temp_dist_trial,dist_items,qkpkxw,2.0,continue,,3221.0999999761707,3216.700000000012,3221.0999999761707,3221.0999999761707,3216.700000000012,3221.0999999761707,1.0,0.0,0.0,,Click To Continue,Next button,7.0,object-60,temp_dist_trial,14.0,t_m_09_1,travel_Miami,beach towel,7.0,unique,paired,t_m_09_1.jpg,Travel,$${counterbalance_group},,sub-93
Desktop or Laptop,Windows 10,Chrome 138.0.0.0,1280x800,1280x712,Temporal Distance Task,cb_07,62.0,temp_dist_trial,dist_items,qkpkxw,2.0,response,61,792.0,3216.700000000012,3221.700000000012,792.0,3216.700000000012,3221.700000000012,1.0,2429.700000000012,0.0,,Slider,Slider,4.0,object-56,temp_dist_trial,14.0,t_m_09_1,travel_Miami,beach towel,7.0,unique,paired,t_m_09_1.jpg,Travel,$${counterbalance_group},,sub-93
Desktop or Laptop,Windows 10,Chrome 138.0.0.0,1280x800,1280x712,Temporal Distance Task,cb_07,63.0,temp_dist_trial,num_items,zn7si1,1.0,response,2_ITEM,1336.0999999940395,1333.2000000000114,1336.0999999940395,1336.0999999940395,1333.2000000000114,1336.0999999940395,1.0,0.0,0.0,,Click Response,2_count,5.0,object-49,temp_dist_trial,15.0,t_m_07_1,travel_Miami,sunglasses,7.0,unique,paired,t_m_07_1.jpg,Travel,$${counterbalance_group},,sub-93
Desktop or Laptop,Windows 10,Chrome 138.0.0.0,1280x800,1280x712,Temporal Distance Task,cb_07,63.0,temp_dist_trial,dist_items,qkpkxw,2.0,info,,6.199999976146501,0.0,6.199999976146501,6.199999976146501,0.0,6.199999976146501,1.0,0.0,0.0,,Slider,Slider,4.0,object-56,temp_dist_trial,15.0,t_m_07_1,travel_Miami,sunglasses,7.0,unique,paired,t_m_07_1.jpg,Travel,$${counterbalance_group},,sub-93
Desktop or Laptop,Windows 10,Chrome 138.0.0.0,1280x800,1280x712,Temporal Distance Task,cb_07,63.0,temp_dist_trial,dist_items,qkpkxw,2.0,continue,,1418.099999982107,1416.6999999999825,1418.099999982107,1418.099999982107,1416.6999999999825,1418.099999982107,1.0,0.0,0.0,,Click To Continue,Next button,7.0,object-60,temp_dist_trial,15.0,t_m_07_1,travel_Miami,sunglasses,7.0,unique,paired,t_m_07_1.jpg,Travel,$${counterbalance_group},,sub-93
Desktop or Laptop,Windows 10,Chrome 138.0.0.0,1280x800,1280x712,Temporal Distance Task,cb_07,63.0,temp_dist_trial,dist_items,qkpkxw,2.0,response,37,775.0999999999768,1416.6999999999825,1419.099999982107,775.0999999999768,1416.6999999999825,1419.099999982107,1.0,643.9999999821302,0.0,,Slider,Slider,4.0,object-56,temp_dist_trial,15.0,t_m_07_1,travel_Miami,sunglasses,7.0,unique,paired,t_m_07_1.jpg,Travel,$${counterbalance_group},,sub-93
Desktop or Laptop,Windows 10,Chrome 138.0.0.0,1280x800,1280x712,Temporal Distance Task,cb_07,64.0,temp_dist_trial,num_items,zn7si1,1.0,response,1_ITEM,2637.299999988085,2633.3999999999937,2637.299999988085,2637.299999988085,2633.3999999999937,2637.299999988085,1.0,0.0,0.0,,Click Response,1_count,3.0,object-46,temp_dist_trial,16.0,t_s_09_1,travel_shared,wallet,7.0,competing,paired,t_s_09_1.jpg,Travel,$${counterbalance_group},,sub-93
Desktop or Laptop,Windows 10,Chrome 138.0.0.0,1280x800,1280x712,Temporal Distance Task,cb_07,65.0,temp_dist_trial,num_items,zn7si1,1.0,response,1_ITEM,814.5999999880733,808.1000000000058,814.5999999880733,814.5999999880733,808.1000000000058,814.5999999880733,1.0,0.0,0.0,,Click Response,1_count,3.0,object-46,temp_dist_trial,17.0,t_m_14_1,travel_Miami,swim goggles,7.0,unique,single,t_m_14_1.jpg,Travel,$${counterbalance_group},,sub-93
Desktop or Laptop,Windows 10,Chrome 138.0.0.0,1280x800,1280x712,Temporal Distance Task,cb_07,66.0,temp_dist_trial,num_items,zn7si1,1.0,response,2_ITEM,806.599999982107,799.2999999999884,806.599999982107,806.599999982107,799.2999999999884,806.599999982107,1.0,0.0,0.0,,Click Response,2_count,5.0,object-49,temp_dist_trial,18.0,t_s_03_1,travel_shared,portable charger,7.0,competing,paired,t_s_03_1.jpg,Travel,$${counterbalance_group},,sub-93
Desktop or Laptop,Windows 10,Chrome 138.0.0.0,1280x800,1280x712,Temporal Distance Task,cb_07,66.0,temp_dist_trial,dist_items,qkpkxw,2.0,info,,6.199999982112786,0.0,6.199999982112786,6.199999982112786,0.0,6.199999982112786,1.0,0.0,0.0,,Slider,Slider,4.0,object-56,temp_dist_trial,18.0,t_s_03_1,travel_shared,portable charger,7.0,competing,paired,t_s_03_1.jpg,Travel,$${counterbalance_group},,sub-93
Desktop or Laptop,Windows 10,Chrome 138.0.0.0,1280x800,1280x712,Temporal Distance Task,cb_07,66.0,temp_dist_trial,dist_items,qkpkxw,2.0,continue,,1630.9999999940335,1625.1999999999825,1630.9999999940335,1630.9999999940335,1625.1999999999825,1630.9999999940335,1.0,0.0,0.0,,Click To Continue,Next button,7.0,object-60,temp_dist_trial,18.0,t_s_03_1,travel_shared,portable charger,7.0,competing,paired,t_s_03_1.jpg,Travel,$${counterbalance_group},,sub-93
Desktop or Laptop,Windows 10,Chrome 138.0.0.0,1280x800,1280x712,Temporal Distance Task,cb_07,66.0,temp_dist_trial,dist_items,qkpkxw,2.0,response,27,800.0,1625.1999999999825,1631.4999999940335,800.0,1625.1999999999825,1631.4999999940335,1.0,831.4999999940338,0.0,,Slider,Slider,4.0,object-56,temp_dist_trial,18.0,t_s_03_1,travel_shared,portable charger,7.0,competing,paired,t_s_03_1.jpg,Travel,$${counterbalance_group},,sub-93
Desktop or Laptop,Windows 10,Chrome 138.0.0.0,1280x800,1280x712,Temporal Distance Task,cb_07,67.0,temp_dist_trial,num_items,zn7si1,1.0,response,2_ITEM,951.7999999940512,949.8000000000177,951.7999999940512,951.7999999940512,949.8000000000177,951.7999999940512,1.0,0.0,0.0,,Click Response,2_count,5.0,object-49,temp_dist_trial,19.0,t_s_20_1,travel_shared,travel pill case,7.0,competing,paired,t_s_20_1.jpg,Travel,$${counterbalance_group},,sub-93
Desktop or Laptop,Windows 10,Chrome 138.0.0.0,1280x800,1280x712,Temporal Distance Task,cb_07,67.0,temp_dist_trial,dist_items,qkpkxw,2.0,info,,6.599999994039536,0.0,6.599999994039536,6.599999994039536,0.0,6.599999994039536,1.0,0.0,0.0,,Slider,Slider,4.0,object-56,temp_dist_trial,19.0,t_s_20_1,travel_shared,travel pill case,7.0,competing,paired,t_s_20_1.jpg,Travel,$${counterbalance_group},,sub-93
Desktop or Laptop,Windows 10,Chrome 138.0.0.0,1280x800,1280x712,Temporal Distance Task,cb_07,67.0,temp_dist_trial,dist_items,qkpkxw,2.0,continue,,1505.7999999821186,1500.1000000000058,1505.7999999821186,1505.7999999821186,1500.1000000000058,1505.7999999821186,1.0,0.0,0.0,,Click To Continue,Next button,7.0,object-60,temp_dist_trial,19.0,t_s_20_1,travel_shared,travel pill case,7.0,competing,paired,t_s_20_1.jpg,Travel,$${counterbalance_group},,sub-93
Desktop or Laptop,Windows 10,Chrome 138.0.0.0,1280x800,1280x712,Temporal Distance Task,cb_07,67.0,temp_dist_trial,dist_items,qkpkxw,2.0,response,35,758.5,1500.1000000000058,1506.3999999761581,758.5,1500.1000000000058,1506.3999999761581,1.0,747.8999999761581,0.0,,Slider,Slider,4.0,object-56,temp_dist_trial,19.0,t_s_20_1,travel_shared,travel pill case,7.0,competing,paired,t_s_20_1.jpg,Travel,$${counterbalance_group},,sub-93
Desktop or Laptop,Windows 10,Chrome 138.0.0.0,1280x800,1280x712,Temporal Distance Task,cb_07,68.0,temp_dist_trial,num_items,zn7si1,1.0,response,2_ITEM,1571.1999999821128,1566.6999999999825,1571.1999999821128,1571.1999999821128,1566.6999999999825,1571.1999999821128,1.0,0.0,0.0,,Click Response,2_count,5.0,object-49,temp_dist_trial,20.0,t_s_21_1,travel_shared,umbrella,7.0,competing,paired,t_s_21_1.jpg,Travel,$${counterbalance_group},,sub-93
Desktop or Laptop,Windows 10,Chrome 138.0.0.0,1280x800,1280x712,Temporal Distance Task,cb_07,68.0,temp_dist_trial,dist_items,qkpkxw,2.0,info,,6.8999999880907135,0.0,6.8999999880907135,6.8999999880907135,0.0,6.8999999880907135,1.0,0.0,0.0,,Slider,Slider,4.0,object-56,temp_dist_trial,20.0,t_s_21_1,travel_shared,umbrella,7.0,competing,paired,t_s_21_1.jpg,Travel,$${counterbalance_group},,sub-93
Desktop or Laptop,Windows 10,Chrome 138.0.0.0,1280x800,1280x712,Temporal Distance Task,cb_07,68.0,temp_dist_trial,dist_items,qkpkxw,2.0,continue,,2346.4999999821302,2341.700000000012,2346.4999999821302,2346.4999999821302,2341.700000000012,2346.4999999821302,1.0,0.0,0.0,,Click To Continue,Next button,7.0,object-60,temp_dist_trial,20.0,t_s_21_1,travel_shared,umbrella,7.0,competing,paired,t_s_21_1.jpg,Travel,$${counterbalance_group},,sub-93
Desktop or Laptop,Windows 10,Chrome 138.0.0.0,1280x800,1280x712,Temporal Distance Task,cb_07,68.0,temp_dist_trial,dist_items,qkpkxw,2.0,response,27,658.3000000000175,2341.700000000012,2347.4999999821302,658.3000000000175,2341.700000000012,2347.4999999821302,1.0,1689.1999999821128,0.0,,Slider,Slider,4.0,object-56,temp_dist_trial,20.0,t_s_21_1,travel_shared,umbrella,7.0,competing,paired,t_s_21_1.jpg,Travel,$${counterbalance_group},,sub-93
Desktop or Laptop,Windows 10,Chrome 138.0.0.0,1280x800,1280x712,Temporal Distance Task,cb_07,69.0,temp_dist_trial,num_items,zn7si1,1.0,response,1_ITEM,1040.5999999940395,1033.2999999999884,1040.5999999940395,1040.5999999940395,1033.2999999999884,1040.5999999940395,1.0,0.0,0.0,,Click Response,1_count,3.0,object-46,temp_dist_trial,21.0,t_i_16_1,travel_Iceland,skis,7.0,unique,paired,t_i_16_1.jpg,Travel,$${counterbalance_group},,sub-93
Desktop or Laptop,Windows 10,Chrome 138.0.0.0,1280x800,1280x712,Temporal Distance Task,cb_07,70.0,temp_dist_trial,num_items,zn7si1,1.0,response,1_ITEM,1765.999999976164,1757.8999999999942,1765.999999976164,1765.999999976164,1757.8999999999942,1765.999999976164,1.0,0.0,0.0,,Click Response,1_count,3.0,object-46,temp_dist_trial,22.0,t_s_06_1,travel_shared,luggage,7.0,competing,paired,t_s_06_1.jpg,Travel,$${counterbalance_group},,sub-93
Desktop or Laptop,Windows 10,Chrome 138.0.0.0,1280x800,1280x712,Temporal Distance Task,cb_07,71.0,temp_dist_trial,num_items,zn7si1,1.0,response,2_ITEM,947.3999999999942,941.3999999999942,947.3999999999942,947.3999999999942,941.3999999999942,947.3999999999942,1.0,0.0,0.0,,Click Response,2_count,5.0,object-49,temp_dist_trial,23.0,t_s_05_1,travel_shared,neck pillow,7.0,competing,paired,t_s_05_1.jpg,Travel,$${counterbalance_group},,sub-93
Desktop or Laptop,Windows 10,Chrome 138.0.0.0,1280x800,1280x712,Temporal Distance Task,cb_07,71.0,temp_dist_trial,dist_items,qkpkxw,2.0,info,,5.899999982124427,0.0,5.899999982124427,5.899999982124427,0.0,5.899999982124427,1.0,0.0,0.0,,Slider,Slider,4.0,object-56,temp_dist_trial,23.0,t_s_05_1,travel_shared,neck pillow,7.0,competing,paired,t_s_05_1.jpg,Travel,$${counterbalance_group},,sub-93
Desktop or Laptop,Windows 10,Chrome 138.0.0.0,1280x800,1280x712,Temporal Distance Task,cb_07,71.0,temp_dist_trial,dist_items,qkpkxw,2.0,continue,,1532.1000000000058,1525.0,1532.1000000000058,1532.1000000000058,1525.0,1532.1000000000058,1.0,0.0,0.0,,Click To Continue,Next button,7.0,object-60,temp_dist_trial,23.0,t_s_05_1,travel_shared,neck pillow,7.0,competing,paired,t_s_05_1.jpg,Travel,$${counterbalance_group},,sub-93
Desktop or Laptop,Windows 10,Chrome 138.0.0.0,1280x800,1280x712,Temporal Distance Task,cb_07,71.0,temp_dist_trial,dist_items,qkpkxw,2.0,response,43,816.7000000000116,1525.0,1532.7999999880853,816.7000000000116,1525.0,1532.7999999880853,1.0,716.0999999880733,0.0,,Slider,Slider,4.0,object-56,temp_dist_trial,23.0,t_s_05_1,travel_shared,neck pillow,7.0,competing,paired,t_s_05_1.jpg,Travel,$${counterbalance_group},,sub-93
Desktop or Laptop,Windows 10,Chrome 138.0.0.0,1280x800,1280x712,Temporal Distance Task,cb_07,72.0,temp_dist_trial,num_items,zn7si1,1.0,response,1_ITEM,1488.7999999880853,1483.3999999999942,1488.7999999880853,1488.7999999880853,1483.3999999999942,1488.7999999880853,1.0,0.0,0.0,,Click Response,1_count,3.0,object-46,temp_dist_trial,24.0,t_s_12_1,travel_shared,clear toiletry bag,7.0,competing,paired,t_s_12_1.jpg,Travel,$${counterbalance_group},,sub-93
Desktop or Laptop,Windows 10,Chrome 138.0.0.0,1280x800,1280x712,Temporal Distance Task,cb_07,73.0,temp_dist_trial,num_items,zn7si1,1.0,response,1_ITEM,715.1999999761465,707.8999999999942,715.1999999761465,715.1999999761465,707.8999999999942,715.1999999761465,1.0,0.0,0.0,,Click Response,1_count,3.0,object-46,temp_dist_trial,25.0,t_s_10_1,travel_shared,luggage lock,7.0,competing,single,t_s_10_1.jpg,Travel,$${counterbalance_group},,sub-93
Desktop or Laptop,Windows 10,Chrome 138.0.0.0,1280x800,1280x712,Temporal Distance Task,cb_07,74.0,temp_dist_trial,num_items,zn7si1,1.0,response,2_ITEM,858.2999999999884,850.0,858.2999999999884,858.2999999999884,850.0,858.2999999999884,1.0,0.0,0.0,,Click Response,2_count,5.0,object-49,temp_dist_trial,26.0,t_s_22_1,travel_shared,belt,7.0,competing,paired,t_s_22_1.jpg,Travel,$${counterbalance_group},,sub-93
Desktop or Laptop,Windows 10,Chrome 138.0.0.0,1280x800,1280x712,Temporal Distance Task,cb_07,74.0,temp_dist_trial,dist_items,qkpkxw,2.0,info,,5.399999976158142,0.0,5.399999976158142,5.399999976158142,0.0,5.399999976158142,1.0,0.0,0.0,,Slider,Slider,4.0,object-56,temp_dist_trial,26.0,t_s_22_1,travel_shared,belt,7.0,competing,paired,t_s_22_1.jpg,Travel,$${counterbalance_group},,sub-93
Desktop or Laptop,Windows 10,Chrome 138.0.0.0,1280x800,1280x712,Temporal Distance Task,cb_07,74.0,temp_dist_trial,dist_items,qkpkxw,2.0,continue,,1343.399999976158,1341.6000000000058,1343.399999976158,1343.399999976158,1341.6000000000058,1343.399999976158,1.0,0.0,0.0,,Click To Continue,Next button,7.0,object-60,temp_dist_trial,26.0,t_s_22_1,travel_shared,belt,7.0,competing,paired,t_s_22_1.jpg,Travel,$${counterbalance_group},,sub-93
Desktop or Laptop,Windows 10,Chrome 138.0.0.0,1280x800,1280x712,Temporal Distance Task,cb_07,74.0,temp_dist_trial,dist_items,qkpkxw,2.0,response,60,716.7000000000116,1341.6000000000058,1349.699999988079,716.7000000000116,1341.6000000000058,1349.699999988079,1.0,632.9999999880674,0.0,,Slider,Slider,4.0,object-56,temp_dist_trial,26.0,t_s_22_1,travel_shared,belt,7.0,competing,paired,t_s_22_1.jpg,Travel,$${counterbalance_group},,sub-93
Desktop or Laptop,Windows 10,Chrome 138.0.0.0,1280x800,1280x712,Temporal Distance Task,cb_07,75.0,temp_dist_trial,num_items,zn7si1,1.0,response,2_ITEM,951.2999999761523,950.1000000000058,951.2999999761523,951.2999999761523,950.1000000000058,951.2999999761523,1.0,0.0,0.0,,Click Response,2_count,5.0,object-49,temp_dist_trial,27.0,t_s_07_1,travel_shared,phone charger cable,7.0,competing,paired,t_s_07_1.jpg,Travel,$${counterbalance_group},,sub-93
Desktop or Laptop,Windows 10,Chrome 138.0.0.0,1280x800,1280x712,Temporal Distance Task,cb_07,75.0,temp_dist_trial,dist_items,qkpkxw,2.0,info,,6.499999994033715,0.0,6.499999994033715,6.499999994033715,0.0,6.499999994033715,1.0,0.0,0.0,,Slider,Slider,4.0,object-56,temp_dist_trial,27.0,t_s_07_1,travel_shared,phone charger cable,7.0,competing,paired,t_s_07_1.jpg,Travel,$${counterbalance_group},,sub-93
Desktop or Laptop,Windows 10,Chrome 138.0.0.0,1280x800,1280x712,Temporal Distance Task,cb_07,75.0,temp_dist_trial,dist_items,qkpkxw,2.0,continue,,1498.3999999999942,1491.1999999999825,1498.3999999999942,1498.3999999999942,1491.1999999999825,1498.3999999999942,1.0,0.0,0.0,,Click To Continue,Next button,7.0,object-60,temp_dist_trial,27.0,t_s_07_1,travel_shared,phone charger cable,7.0,competing,paired,t_s_07_1.jpg,Travel,$${counterbalance_group},,sub-93
Desktop or Laptop,Windows 10,Chrome 138.0.0.0,1280x800,1280x712,Temporal Distance Task,cb_07,75.0,temp_dist_trial,dist_items,qkpkxw,2.0,response,41,732.8999999999942,1491.1999999999825,1499.099999988073,732.8999999999942,1491.1999999999825,1499.099999988073,1.0,766.1999999880791,0.0,,Slider,Slider,4.0,object-56,temp_dist_trial,27.0,t_s_07_1,travel_shared,phone charger cable,7.0,competing,paired,t_s_07_1.jpg,Travel,$${counterbalance_group},,sub-93
Desktop or Laptop,Windows 10,Chrome 138.0.0.0,1280x800,1280x712,Temporal Distance Task,cb_07,76.0,temp_dist_trial,num_items,zn7si1,1.0,response,2_ITEM,1338.3999999880907,1333.4000000000233,1338.3999999880907,1338.3999999880907,1333.4000000000233,1338.3999999880907,1.0,0.0,0.0,,Click Response,2_count,5.0,object-49,temp_dist_trial,28.0,t_m_03_1,travel_Miami,wetsuit,7.0,unique,paired,t_m_03_1.jpg,Travel,$${counterbalance_group},,sub-93
Desktop or Laptop,Windows 10,Chrome 138.0.0.0,1280x800,1280x712,Temporal Distance Task,cb_07,76.0,temp_dist_trial,dist_items,qkpkxw,2.0,info,,5.9999999880674295,0.0,5.9999999880674295,5.9999999880674295,0.0,5.9999999880674295,1.0,0.0,0.0,,Slider,Slider,4.0,object-56,temp_dist_trial,28.0,t_m_03_1,travel_Miami,wetsuit,7.0,unique,paired,t_m_03_1.jpg,Travel,$${counterbalance_group},,sub-93
Desktop or Laptop,Windows 10,Chrome 138.0.0.0,1280x800,1280x712,Temporal Distance Task,cb_07,76.0,temp_dist_trial,dist_items,qkpkxw,2.0,continue,,1179.9999999880674,1175.0,1179.9999999880674,1179.9999999880674,1175.0,1179.9999999880674,1.0,0.0,0.0,,Click To Continue,Next button,7.0,object-60,temp_dist_trial,28.0,t_m_03_1,travel_Miami,wetsuit,7.0,unique,paired,t_m_03_1.jpg,Travel,$${counterbalance_group},,sub-93
Desktop or Laptop,Windows 10,Chrome 138.0.0.0,1280x800,1280x712,Temporal Distance Task,cb_07,76.0,temp_dist_trial,dist_items,qkpkxw,2.0,response,26,533.2999999999884,1175.0,1180.8999999940281,533.2999999999884,1175.0,1180.8999999940281,1.0,647.5999999940395,0.0,,Slider,Slider,4.0,object-56,temp_dist_trial,28.0,t_m_03_1,travel_Miami,wetsuit,7.0,unique,paired,t_m_03_1.jpg,Travel,$${counterbalance_group},,sub-93
Desktop or Laptop,Windows 10,Chrome 138.0.0.0,1280x800,1280x712,Temporal Distance Task,cb_07,77.0,temp_dist_trial,num_items,zn7si1,1.0,response,2_ITEM,785.099999982107,783.2999999999884,785.099999982107,785.099999982107,783.2999999999884,785.099999982107,1.0,0.0,0.0,,Click Response,2_count,5.0,object-49,temp_dist_trial,29.0,t_s_02_1,travel_shared,water bottle,7.0,competing,paired,t_s_02_1.jpg,Travel,$${counterbalance_group},,sub-93
Desktop or Laptop,Windows 10,Chrome 138.0.0.0,1280x800,1280x712,Temporal Distance Task,cb_07,77.0,temp_dist_trial,dist_items,qkpkxw,2.0,info,,7.199999988079071,0.0,7.199999988079071,7.199999988079071,0.0,7.199999988079071,1.0,0.0,0.0,,Slider,Slider,4.0,object-56,temp_dist_trial,29.0,t_s_02_1,travel_shared,water bottle,7.0,competing,paired,t_s_02_1.jpg,Travel,$${counterbalance_group},,sub-93
Desktop or Laptop,Windows 10,Chrome 138.0.0.0,1280x800,1280x712,Temporal Distance Task,cb_07,77.0,temp_dist_trial,dist_items,qkpkxw,2.0,continue,,1351.2999999821186,1350.0,1351.2999999821186,1351.2999999821186,1350.0,1351.2999999821186,1.0,0.0,0.0,,Click To Continue,Next button,7.0,object-60,temp_dist_trial,29.0,t_s_02_1,travel_shared,water bottle,7.0,competing,paired,t_s_02_1.jpg,Travel,$${counterbalance_group},,sub-93
Desktop or Laptop,Windows 10,Chrome 138.0.0.0,1280x800,1280x712,Temporal Distance Task,cb_07,77.0,temp_dist_trial,dist_items,qkpkxw,2.0,response,64,683.3999999999943,1350.0,1352.399999976158,683.3999999999943,1350.0,1352.399999976158,1.0,668.999999976164,0.0,,Slider,Slider,4.0,object-56,temp_dist_trial,29.0,t_s_02_1,travel_shared,water bottle,7.0,competing,paired,t_s_02_1.jpg,Travel,$${counterbalance_group},,sub-93
Desktop or Laptop,Windows 10,Chrome 138.0.0.0,1280x800,1280x712,Temporal Distance Task,cb_07,78.0,temp_dist_trial,num_items,zn7si1,1.0,response,2_ITEM,797.5,791.7000000000116,797.5,797.5,791.7000000000116,797.5,1.0,0.0,0.0,,Click Response,2_count,5.0,object-49,temp_dist_trial,30.0,t_s_14_1,travel_shared,hand sanitizer,7.0,competing,paired,t_s_14_1.jpg,Travel,$${counterbalance_group},,sub-93
Desktop or Laptop,Windows 10,Chrome 138.0.0.0,1280x800,1280x712,Temporal Distance Task,cb_07,78.0,temp_dist_trial,dist_items,qkpkxw,2.0,info,,5.4999999880674295,0.0,5.4999999880674295,5.4999999880674295,0.0,5.4999999880674295,1.0,0.0,0.0,,Slider,Slider,4.0,object-56,temp_dist_trial,30.0,t_s_14_1,travel_shared,hand sanitizer,7.0,competing,paired,t_s_14_1.jpg,Travel,$${counterbalance_group},,sub-93
Desktop or Laptop,Windows 10,Chrome 138.0.0.0,1280x800,1280x712,Temporal Distance Task,cb_07,78.0,temp_dist_trial,dist_items,qkpkxw,2.0,continue,,1596.099999982107,1591.6999999999825,1596.099999982107,1596.099999982107,1591.6999999999825,1596.099999982107,1.0,0.0,0.0,,Click To Continue,Next button,7.0,object-60,temp_dist_trial,30.0,t_s_14_1,travel_shared,hand sanitizer,7.0,competing,paired,t_s_14_1.jpg,Travel,$${counterbalance_group},,sub-93
Desktop or Laptop,Windows 10,Chrome 138.0.0.0,1280x800,1280x712,Temporal Distance Task,cb_07,78.0,temp_dist_trial,dist_items,qkpkxw,2.0,response,62,866.6999999999823,1591.6999999999825,1600.0999999999767,866.6999999999823,1591.6999999999825,1600.0999999999767,1.0,733.3999999999942,0.0,,Slider,Slider,4.0,object-56,temp_dist_trial,30.0,t_s_14_1,travel_shared,hand sanitizer,7.0,competing,paired,t_s_14_1.jpg,Travel,$${counterbalance_group},,sub-93
Desktop or Laptop,Windows 10,Chrome 138.0.0.0,1280x800,1280x712,Temporal Distance Task,cb_07,79.0,temp_dist_trial,num_items,zn7si1,1.0,response,1_ITEM,814.1999999940454,808.3999999999942,814.1999999940454,814.1999999940454,808.3999999999942,814.1999999940454,1.0,0.0,0.0,,Click Response,1_count,3.0,object-46,temp_dist_trial,31.0,t_m_10_1,travel_Miami,tanktop,7.0,unique,single,t_m_10_1.jpg,Travel,$${counterbalance_group},,sub-93
Desktop or Laptop,Windows 10,Chrome 138.0.0.0,1280x800,1280x712,Temporal Distance Task,cb_07,80.0,temp_dist_trial,num_items,zn7si1,1.0,response,1_ITEM,1504.0999999761698,1499.9000000000233,1504.0999999761698,1504.0999999761698,1499.9000000000233,1504.0999999761698,1.0,0.0,0.0,,Click Response,1_count,3.0,object-46,temp_dist_trial,32.0,t_m_11_1,travel_Miami,collapsible beach chair,7.0,unique,paired,t_m_11_1.jpg,Travel,$${counterbalance_group},,sub-93
Desktop or Laptop,Windows 10,Chrome 138.0.0.0,1280x800,1280x712,Temporal Distance Task,cb_07,81.0,temp_dist_trial,num_items,zn7si1,1.0,response,1_ITEM,978.1999999821128,974.6000000000058,978.1999999821128,978.1999999821128,974.6000000000058,978.1999999821128,1.0,0.0,0.0,,Click Response,1_count,3.0,object-46,temp_dist_trial,33.0,t_s_08_1,travel_shared,hand lotion,7.0,competing,paired,t_s_08_1.jpg,Travel,$${counterbalance_group},,sub-93
Desktop or Laptop,Windows 10,Chrome 138.0.0.0,1280x800,1280x712,Temporal Distance Task,cb_07,82.0,temp_dist_trial,num_items,zn7si1,1.0,response,1_ITEM,793.3999999940279,791.5999999999768,793.3999999940279,793.3999999940279,791.5999999999768,793.3999999940279,1.0,0.0,0.0,,Click Response,1_count,3.0,object-46,temp_dist_trial,34.0,t_i_07_1,travel_Iceland,hiking backpack,7.0,unique,single,t_i_07_1.jpg,Travel,$${counterbalance_group},,sub-93
Desktop or Laptop,Windows 10,Chrome 138.0.0.0,1280x800,1280x712,Temporal Distance Task,cb_07,83.0,temp_dist_trial,num_items,zn7si1,1.0,response,2_ITEM,871.4999999821302,866.7000000000116,871.4999999821302,871.4999999821302,866.7000000000116,871.4999999821302,1.0,0.0,0.0,,Click Response,2_count,5.0,object-49,temp_dist_trial,35.0,t_s_18_1,travel_shared,first aid kit,7.0,competing,paired,t_s_18_1.jpg,Travel,$${counterbalance_group},,sub-93
Desktop or Laptop,Windows 10,Chrome 138.0.0.0,1280x800,1280x712,Temporal Distance Task,cb_07,83.0,temp_dist_trial,dist_items,qkpkxw,2.0,info,,6.199999988079071,0.0,6.199999988079071,6.199999988079071,0.0,6.199999988079071,1.0,0.0,0.0,,Slider,Slider,4.0,object-56,temp_dist_trial,35.0,t_s_18_1,travel_shared,first aid kit,7.0,competing,paired,t_s_18_1.jpg,Travel,$${counterbalance_group},,sub-93
Desktop or Laptop,Windows 10,Chrome 138.0.0.0,1280x800,1280x712,Temporal Distance Task,cb_07,83.0,temp_dist_trial,dist_items,qkpkxw,2.0,continue,,1414.0,1408.2999999999884,1414.0,1414.0,1408.2999999999884,1414.0,1.0,0.0,0.0,,Click To Continue,Next button,7.0,object-60,temp_dist_trial,35.0,t_s_18_1,travel_shared,first aid kit,7.0,competing,paired,t_s_18_1.jpg,Travel,$${counterbalance_group},,sub-93
Desktop or Laptop,Windows 10,Chrome 138.0.0.0,1280x800,1280x712,Temporal Distance Task,cb_07,83.0,temp_dist_trial,dist_items,qkpkxw,2.0,response,34,616.7000000000116,1408.2999999999884,1414.7999999821186,616.7000000000116,1408.2999999999884,1414.7999999821186,1.0,798.099999982107,0.0,,Slider,Slider,4.0,object-56,temp_dist_trial,35.0,t_s_18_1,travel_shared,first aid kit,7.0,competing,paired,t_s_18_1.jpg,Travel,$${counterbalance_group},,sub-93
Desktop or Laptop,Windows 10,Chrome 138.0.0.0,1280x800,1280x712,Temporal Distance Task,cb_07,84.0,temp_dist_trial,num_items,zn7si1,1.0,response,1_ITEM,832.9999999821302,825.1000000000058,832.9999999821302,832.9999999821302,825.1000000000058,832.9999999821302,1.0,0.0,0.0,,Click Response,1_count,3.0,object-46,temp_dist_trial,36.0,t_i_14_1,travel_Iceland,snow pants,7.0,unique,paired,t_i_14_1.jpg,Travel,$${counterbalance_group},,sub-93
Desktop or Laptop,Windows 10,Chrome 138.0.0.0,1280x800,1280x712,Temporal Distance Task,cb_07,85.0,temp_dist_trial,num_items,zn7si1,1.0,response,1_ITEM,705.2000000000116,700.1000000000058,705.2000000000116,705.2000000000116,700.1000000000058,705.2000000000116,1.0,0.0,0.0,,Click Response,1_count,3.0,object-46,temp_dist_trial,37.0,t_i_01_1,travel_Iceland,gloves,7.0,unique,paired,t_i_01_1.jpg,Travel,$${counterbalance_group},,sub-93
Desktop or Laptop,Windows 10,Chrome 138.0.0.0,1280x800,1280x712,Temporal Distance Task,cb_07,86.0,temp_dist_trial,num_items,zn7si1,1.0,response,1_ITEM,885.9999999821302,883.6000000000058,885.9999999821302,885.9999999821302,883.6000000000058,885.9999999821302,1.0,0.0,0.0,,Click Response,1_count,3.0,object-46,temp_dist_trial,38.0,t_i_18_1,travel_Iceland,ski mask,7.0,unique,paired,t_i_18_1.jpg,Travel,$${counterbalance_group},,sub-93
Desktop or Laptop,Windows 10,Chrome 138.0.0.0,1280x800,1280x712,Temporal Distance Task,cb_07,87.0,temp_dist_trial,num_items,zn7si1,1.0,response,1_ITEM,614.5999999761698,608.5,614.5999999761698,614.5999999761698,608.5,614.5999999761698,1.0,0.0,0.0,,Click Response,1_count,3.0,object-46,temp_dist_trial,39.0,t_m_06_1,travel_Miami,handheld fan,7.0,unique,paired,t_m_06_1.jpg,Travel,$${counterbalance_group},,sub-93
Desktop or Laptop,Windows 10,Chrome 138.0.0.0,1280x800,1280x712,Temporal Distance Task,cb_07,88.0,temp_dist_trial,num_items,zn7si1,1.0,response,2_ITEM,2752.6999999821132,2749.8999999999933,2752.6999999821132,2752.6999999821132,2749.8999999999933,2752.6999999821132,1.0,0.0,0.0,,Click Response,2_count,5.0,object-49,temp_dist_trial,40.0,t_i_06_1,travel_Iceland,knit hat,7.0,unique,paired,t_i_06_1.jpg,Travel,$${counterbalance_group},,sub-93
Desktop or Laptop,Windows 10,Chrome 138.0.0.0,1280x800,1280x712,Temporal Distance Task,cb_07,88.0,temp_dist_trial,dist_items,qkpkxw,2.0,info,,6.399999976158142,0.0,6.399999976158142,6.399999976158142,0.0,6.399999976158142,1.0,0.0,0.0,,Slider,Slider,4.0,object-56,temp_dist_trial,40.0,t_i_06_1,travel_Iceland,knit hat,7.0,unique,paired,t_i_06_1.jpg,Travel,$${counterbalance_group},,sub-93
Desktop or Laptop,Windows 10,Chrome 138.0.0.0,1280x800,1280x712,Temporal Distance Task,cb_07,88.0,temp_dist_trial,dist_items,qkpkxw,2.0,continue,,1522.0999999940395,1516.6000000000058,1522.0999999940395,1522.0999999940395,1516.6000000000058,1522.0999999940395,1.0,0.0,0.0,,Click To Continue,Next button,7.0,object-60,temp_dist_trial,40.0,t_i_06_1,travel_Iceland,knit hat,7.0,unique,paired,t_i_06_1.jpg,Travel,$${counterbalance_group},,sub-93
Desktop or Laptop,Windows 10,Chrome 138.0.0.0,1280x800,1280x712,Temporal Distance Task,cb_07,88.0,temp_dist_trial,dist_items,qkpkxw,2.0,response,39,891.7999999999884,1516.6000000000058,1522.7999999821186,891.7999999999884,1516.6000000000058,1522.7999999821186,1.0,630.9999999821302,0.0,,Slider,Slider,4.0,object-56,temp_dist_trial,40.0,t_i_06_1,travel_Iceland,knit hat,7.0,unique,paired,t_i_06_1.jpg,Travel,$${counterbalance_group},,sub-93
Desktop or Laptop,Windows 10,Chrome 138.0.0.0,1280x800,1280x712,Temporal Distance Task,cb_07,89.0,temp_dist_trial,num_items,zn7si1,1.0,response,2_ITEM,2315.1999999821132,2308.3999999999937,2315.1999999821132,2315.1999999821132,2308.3999999999937,2315.1999999821132,1.0,0.0,0.0,,Click Response,2_count,5.0,object-49,temp_dist_trial,41.0,t_s_17_1,travel_shared,toothbrush,7.0,competing,paired,t_s_17_1.jpg,Travel,$${counterbalance_group},,sub-93
Desktop or Laptop,Windows 10,Chrome 138.0.0.0,1280x800,1280x712,Temporal Distance Task,cb_07,89.0,temp_dist_trial,dist_items,qkpkxw,2.0,info,,6.599999994039536,0.0,6.599999994039536,6.599999994039536,0.0,6.599999994039536,1.0,0.0,0.0,,Slider,Slider,4.0,object-56,temp_dist_trial,41.0,t_s_17_1,travel_shared,toothbrush,7.0,competing,paired,t_s_17_1.jpg,Travel,$${counterbalance_group},,sub-93
Desktop or Laptop,Windows 10,Chrome 138.0.0.0,1280x800,1280x712,Temporal Distance Task,cb_07,89.0,temp_dist_trial,dist_items,qkpkxw,2.0,continue,,2074.9000000000233,2066.6000000000063,2074.9000000000233,2074.9000000000233,2066.6000000000063,2074.9000000000233,1.0,0.0,0.0,,Click To Continue,Next button,7.0,object-60,temp_dist_trial,41.0,t_s_17_1,travel_shared,toothbrush,7.0,competing,paired,t_s_17_1.jpg,Travel,$${counterbalance_group},,sub-93
Desktop or Laptop,Windows 10,Chrome 138.0.0.0,1280x800,1280x712,Temporal Distance Task,cb_07,89.0,temp_dist_trial,dist_items,qkpkxw,2.0,response,75,850.1000000000058,2066.6000000000063,2074.9000000000233,850.1000000000058,2066.6000000000063,2074.9000000000233,1.0,1224.8000000000175,0.0,,Slider,Slider,4.0,object-56,temp_dist_trial,41.0,t_s_17_1,travel_shared,toothbrush,7.0,competing,paired,t_s_17_1.jpg,Travel,$${counterbalance_group},,sub-93
Desktop or Laptop,Windows 10,Chrome 138.0.0.0,1280x800,1280x712,Temporal Distance Task,cb_07,90.0,temp_dist_trial,num_items,zn7si1,1.0,response,1_ITEM,647.3999999999943,642.1000000000057,647.3999999999943,647.3999999999943,642.1000000000057,647.3999999999943,1.0,0.0,0.0,,Click Response,1_count,3.0,object-46,temp_dist_trial,42.0,t_m_13_1,travel_Miami,floatie,7.0,unique,paired,t_m_13_1.jpg,Travel,$${counterbalance_group},,sub-93
Desktop or Laptop,Windows 10,Chrome 138.0.0.0,1280x800,1280x712,Temporal Distance Task,cb_07,91.0,temp_dist_trial,num_items,zn7si1,1.0,response,1_ITEM,662.099999982107,658.5999999999767,662.099999982107,662.099999982107,658.5999999999767,662.099999982107,1.0,0.0,0.0,,Click Response,1_count,3.0,object-46,temp_dist_trial,43.0,t_s_04_1,travel_shared,instant camera,7.0,competing,single,t_s_04_1.jpg,Travel,$${counterbalance_group},,sub-93
Desktop or Laptop,Windows 10,Chrome 138.0.0.0,1280x800,1280x712,Temporal Distance Task,cb_07,92.0,temp_dist_trial,num_items,zn7si1,1.0,response,1_ITEM,1175.999999976164,1174.7000000000114,1175.999999976164,1175.999999976164,1174.7000000000114,1175.999999976164,1.0,0.0,0.0,,Click Response,1_count,3.0,object-46,temp_dist_trial,44.0,t_s_13_1,travel_shared,contact lens case,7.0,competing,single,t_s_13_1.jpg,Travel,$${counterbalance_group},,sub-93
Desktop or Laptop,Windows 10,Chrome 138.0.0.0,1280x800,1280x712,Temporal Distance Task,cb_07,93.0,temp_dist_trial,num_items,zn7si1,1.0,response,1_ITEM,618.7999999821186,616.2999999999884,618.7999999821186,618.7999999821186,616.2999999999884,618.7999999821186,1.0,0.0,0.0,,Click Response,1_count,3.0,object-46,temp_dist_trial,45.0,t_i_02_1,travel_Iceland,scarf,7.0,unique,single,t_i_02_1.jpg,Travel,$${counterbalance_group},,sub-93
Desktop or Laptop,Windows 10,Chrome 138.0.0.0,1280x800,1280x712,Temporal Distance Task,cb_07,94.0,temp_dist_trial,num_items,zn7si1,1.0,response,2_ITEM,1309.7999999940512,1308.3000000000175,1309.7999999940512,1309.7999999940512,1308.3000000000175,1309.7999999940512,1.0,0.0,0.0,,Click Response,2_count,5.0,object-49,temp_dist_trial,46.0,t_s_11_1,travel_shared,eye mask,7.0,competing,paired,t_s_11_1.jpg,Travel,$${counterbalance_group},,sub-93
Desktop or Laptop,Windows 10,Chrome 138.0.0.0,1280x800,1280x712,Temporal Distance Task,cb_07,94.0,temp_dist_trial,dist_items,qkpkxw,2.0,info,,6.399999994027892,0.0,6.399999994027892,6.399999994027892,0.0,6.399999994027892,1.0,0.0,0.0,,Slider,Slider,4.0,object-56,temp_dist_trial,46.0,t_s_11_1,travel_shared,eye mask,7.0,competing,paired,t_s_11_1.jpg,Travel,$${counterbalance_group},,sub-93
Desktop or Laptop,Windows 10,Chrome 138.0.0.0,1280x800,1280x712,Temporal Distance Task,cb_07,94.0,temp_dist_trial,dist_items,qkpkxw,2.0,continue,,1387.7999999999884,1383.5999999999767,1387.7999999999884,1387.7999999999884,1383.5999999999767,1387.7999999999884,1.0,0.0,0.0,,Click To Continue,Next button,7.0,object-60,temp_dist_trial,46.0,t_s_11_1,travel_shared,eye mask,7.0,competing,paired,t_s_11_1.jpg,Travel,$${counterbalance_group},,sub-93
Desktop or Laptop,Windows 10,Chrome 138.0.0.0,1280x800,1280x712,Temporal Distance Task,cb_07,94.0,temp_dist_trial,dist_items,qkpkxw,2.0,response,79,524.8999999999942,1383.5999999999767,1388.6999999761465,524.8999999999942,1383.5999999999767,1388.6999999761465,1.0,863.7999999761522,0.0,,Slider,Slider,4.0,object-56,temp_dist_trial,46.0,t_s_11_1,travel_shared,eye mask,7.0,competing,paired,t_s_11_1.jpg,Travel,$${counterbalance_group},,sub-93
Desktop or Laptop,Windows 10,Chrome 138.0.0.0,1280x800,1280x712,Temporal Distance Task,cb_07,95.0,temp_dist_trial,num_items,zn7si1,1.0,response,1_ITEM,795.2000000000116,791.4000000000232,795.2000000000116,795.2000000000116,791.4000000000232,795.2000000000116,1.0,0.0,0.0,,Click Response,1_count,3.0,object-46,temp_dist_trial,47.0,t_s_19_1,travel_shared,pajamas,7.0,competing,single,t_s_19_1.jpg,Travel,$${counterbalance_group},,sub-93
Desktop or Laptop,Windows 10,Chrome 138.0.0.0,1280x800,1280x712,Temporal Distance Task,cb_07,96.0,temp_dist_trial,num_items,zn7si1,1.0,response,2_ITEM,828.1999999761465,824.8999999999942,828.1999999761465,828.1999999761465,824.8999999999942,828.1999999761465,1.0,0.0,0.0,,Click Response,2_count,5.0,object-49,temp_dist_trial,48.0,t_m_08_1,travel_Miami,flipflops,7.0,unique,paired,t_m_08_1.jpg,Travel,$${counterbalance_group},,sub-93
Desktop or Laptop,Windows 10,Chrome 138.0.0.0,1280x800,1280x712,Temporal Distance Task,cb_07,96.0,temp_dist_trial,dist_items,qkpkxw,2.0,info,,6.999999994033715,0.0,6.999999994033715,6.999999994033715,0.0,6.999999994033715,1.0,0.0,0.0,,Slider,Slider,4.0,object-56,temp_dist_trial,48.0,t_m_08_1,travel_Miami,flipflops,7.0,unique,paired,t_m_08_1.jpg,Travel,$${counterbalance_group},,sub-93
Desktop or Laptop,Windows 10,Chrome 138.0.0.0,1280x800,1280x712,Temporal Distance Task,cb_07,96.0,temp_dist_trial,dist_items,qkpkxw,2.0,continue,,2048.3999999999937,2041.7999999999884,2048.3999999999937,2048.3999999999937,2041.7999999999884,2048.3999999999937,1.0,0.0,0.0,,Click To Continue,Next button,7.0,object-60,temp_dist_trial,48.0,t_m_08_1,travel_Miami,flipflops,7.0,unique,paired,t_m_08_1.jpg,Travel,$${counterbalance_group},,sub-93
Desktop or Laptop,Windows 10,Chrome 138.0.0.0,1280x800,1280x712,Temporal Distance Task,cb_07,96.0,temp_dist_trial,dist_items,qkpkxw,2.0,response,63,1350.1000000000058,2041.7999999999884,2050.1999999999825,1350.1000000000058,2041.7999999999884,2050.1999999999825,1.0,700.0999999999768,0.0,,Slider,Slider,4.0,object-56,temp_dist_trial,48.0,t_m_08_1,travel_Miami,flipflops,7.0,unique,paired,t_m_08_1.jpg,Travel,$${counterbalance_group},,sub-93
Desktop or Laptop,Windows 10,Chrome 138.0.0.0,1280x800,1280x712,Temporal Distance Task,,,,,,,info,END,,,243395.0,,,,,,,,,,,,,,,,,,,,,,$${counterbalance_group},,sub-93
