Participant Device,Participant OS,Participant Browser,Participant Monitor Size,Participant Viewport Size,Task Name,Current Spreadsheet,Trial Number,Display,Screen,Screen ID,Screen Counter,Response Type,Response,Onset Time,Clock Time,Reaction Time,Absolute Onset Time,Absolute Clock Time,Absolute Reaction Time,Correct,Response Duration,Proportion,Tag,Component Name,Object Name,Object Number,Object ID,Spreadsheet: display,Spreadsheet: trial,Spreadsheet: stimulus_id,Spreadsheet: expected_goal,Spreadsheet: stimulus_name,Spreadsheet: c_group,Spreadsheet: condition,Spreadsheet: paired_status,Spreadsheet: stimulus_path,Spreadsheet: block_type,Manipulation: Spreadsheet,Store: enc_test_acc,sub_label
Desktop or Laptop,Windows 10,Chrome 138.0.0.0,1600x900,1600x765,Temporal Distance Task,$${counterbalance_group},,,,,,info,BEGIN,,,,,,,0.0,,,,,,,,,,,,,,,,,,,,sub-44
Desktop or Laptop,Windows 10,Chrome 138.0.0.0,1600x900,1600x765,Temporal Distance Task,cb_05,1.0,temp_instructions,intro_screen,3tnme7,1.0,continue,,7010.700000000094,7000.1,7010.700000000094,7010.700000000094,7000.1,7010.700000000094,1.0,0.0,0.0,,Click To Continue,Continue Button,4.0,object-29,temp_instructions,,,Student,,,,,,,,,sub-44
Desktop or Laptop,Windows 10,Chrome 138.0.0.0,1600x900,1600x765,Temporal Distance Task,cb_05,1.0,temp_instructions,intro_screen_2,52v7ur,2.0,continue,,32822.90000000014,32816.7,32822.90000000014,32822.90000000014,32816.7,32822.90000000014,1.0,0.0,0.0,,Click To Continue,Continue Button,4.0,object-39,temp_instructions,,,Student,,,,,,,,,sub-44
Desktop or Laptop,Windows 10,Chrome 138.0.0.0,1600x900,1600x765,Temporal Distance Task,cb_05,1.0,temp_instructions,intro_screen_3,i7lvwx,3.0,continue,,71328.60000000005,71316.5,71328.60000000005,71328.60000000005,71316.5,71328.60000000005,1.0,0.0,0.0,,Click To Continue,Continue Button,4.0,object-67,temp_instructions,,,Student,,,,,,,,,sub-44
Desktop or Laptop,Windows 10,Chrome 138.0.0.0,1600x900,1600x765,Temporal Distance Task,cb_05,1.0,temp_instructions,test_q1,5ieqx1,4.0,response,choice_3,4699.300000000003,4683.400000000009,4699.300000000003,4699.300000000003,4683.400000000009,4699.300000000003,1.0,0.0,0.0,,Click Response,choice_3,5.0,object-345,temp_instructions,,,Student,,,,,,,,,sub-44
Desktop or Laptop,Windows 10,Chrome 138.0.0.0,1600x900,1600x765,Temporal Distance Task,cb_05,1.0,temp_instructions,score_corr,7ilvjr,5.0,continue,,54926.00000000009,54916.9,54926.00000000009,54926.00000000009,54916.9,54926.00000000009,1.0,0.0,0.0,,Click To Continue,Continue Button,3.0,object-23,temp_instructions,,,Student,,,,,,,,,sub-44
Desktop or Laptop,Windows 10,Chrome 138.0.0.0,1600x900,1600x765,Temporal Distance Task,cb_05,1.0,temp_eventStart,Screen 1,dgtyxe,1.0,continue,,2010.0,1999.7999999999884,2010.0,2010.0,1999.7999999999884,2010.0,1.0,0.0,0.0,,Click To Continue,Next Button,3.0,object-43,temp_eventStart,,,Student,,,,,,,,,sub-44
Desktop or Laptop,Windows 10,Chrome 138.0.0.0,1600x900,1600x765,Temporal Distance Task,cb_05,1.0,temp_dist_trial,num_items,zn7si1,1.0,response,2_ITEM,2287.700000000012,2283.200000000012,2287.700000000012,2287.700000000012,2283.200000000012,2287.700000000012,1.0,0.0,0.0,,Click Response,2_count,5.0,object-49,temp_dist_trial,1.0,s_a_08_1,student_art,sewing machine,5.0,unique,paired,s_a_08_1.jpg,Student,,,sub-44
Desktop or Laptop,Windows 10,Chrome 138.0.0.0,1600x900,1600x765,Temporal Distance Task,cb_05,1.0,temp_dist_trial,dist_items,qkpkxw,2.0,info,,5.100000000034925,0.0,5.100000000034925,5.100000000034925,0.0,5.100000000034925,1.0,0.0,0.0,,Slider,Slider,4.0,object-56,temp_dist_trial,1.0,s_a_08_1,student_art,sewing machine,5.0,unique,paired,s_a_08_1.jpg,Student,,,sub-44
Desktop or Laptop,Windows 10,Chrome 138.0.0.0,1600x900,1600x765,Temporal Distance Task,cb_05,1.0,temp_dist_trial,dist_items,qkpkxw,2.0,continue,,2106.600000000035,2099.8999999999937,2106.600000000035,2106.600000000035,2099.8999999999937,2106.600000000035,1.0,0.0,0.0,,Click To Continue,Next button,7.0,object-60,temp_dist_trial,1.0,s_a_08_1,student_art,sewing machine,5.0,unique,paired,s_a_08_1.jpg,Student,,,sub-44
Desktop or Laptop,Windows 10,Chrome 138.0.0.0,1600x900,1600x765,Temporal Distance Task,cb_05,1.0,temp_dist_trial,dist_items,qkpkxw,2.0,response,33,866.5,2099.8999999999937,2107.2999999999884,866.5,2099.8999999999937,2107.2999999999884,1.0,1240.7999999999886,0.0,,Slider,Slider,4.0,object-56,temp_dist_trial,1.0,s_a_08_1,student_art,sewing machine,5.0,unique,paired,s_a_08_1.jpg,Student,,,sub-44
Desktop or Laptop,Windows 10,Chrome 138.0.0.0,1600x900,1600x765,Temporal Distance Task,cb_05,2.0,temp_dist_trial,num_items,zn7si1,1.0,response,2_ITEM,1210.8000000001339,1199.8999999999942,1210.8000000001339,1210.8000000001339,1199.8999999999942,1210.8000000001339,1.0,0.0,0.0,,Click Response,2_count,5.0,object-49,temp_dist_trial,2.0,s_s_03_1,student_stem,petri dish,5.0,unique,paired,s_s_03_1.jpg,Student,,,sub-44
Desktop or Laptop,Windows 10,Chrome 138.0.0.0,1600x900,1600x765,Temporal Distance Task,cb_05,2.0,temp_dist_trial,dist_items,qkpkxw,2.0,info,,6.000000000145519,0.0,6.000000000145519,6.000000000145519,0.0,6.000000000145519,1.0,0.0,0.0,,Slider,Slider,4.0,object-56,temp_dist_trial,2.0,s_s_03_1,student_stem,petri dish,5.0,unique,paired,s_s_03_1.jpg,Student,,,sub-44
Desktop or Laptop,Windows 10,Chrome 138.0.0.0,1600x900,1600x765,Temporal Distance Task,cb_05,2.0,temp_dist_trial,dist_items,qkpkxw,2.0,continue,,1266.5000000001455,1250.3999999999942,1266.5000000001455,1266.5000000001455,1250.3999999999942,1266.5000000001455,1.0,0.0,0.0,,Click To Continue,Next button,7.0,object-60,temp_dist_trial,2.0,s_s_03_1,student_stem,petri dish,5.0,unique,paired,s_s_03_1.jpg,Student,,,sub-44
Desktop or Laptop,Windows 10,Chrome 138.0.0.0,1600x900,1600x765,Temporal Distance Task,cb_05,2.0,temp_dist_trial,dist_items,qkpkxw,2.0,response,18,533.3000000000175,1250.3999999999942,1267.1000000000058,533.3000000000175,1250.3999999999942,1267.1000000000058,1.0,733.7999999999884,0.0,,Slider,Slider,4.0,object-56,temp_dist_trial,2.0,s_s_03_1,student_stem,petri dish,5.0,unique,paired,s_s_03_1.jpg,Student,,,sub-44
Desktop or Laptop,Windows 10,Chrome 138.0.0.0,1600x900,1600x765,Temporal Distance Task,cb_05,3.0,temp_dist_trial,num_items,zn7si1,1.0,response,2_ITEM,2354.200000000012,2349.6000000000063,2354.200000000012,2354.200000000012,2349.6000000000063,2354.200000000012,1.0,0.0,0.0,,Click Response,2_count,5.0,object-49,temp_dist_trial,3.0,s_sh_02_1,student_shared,eraser,5.0,competing,paired,s_sh_02_1.jpg,Student,,,sub-44
Desktop or Laptop,Windows 10,Chrome 138.0.0.0,1600x900,1600x765,Temporal Distance Task,cb_05,3.0,temp_dist_trial,dist_items,qkpkxw,2.0,info,,5.200000000098953,0.0,5.200000000098953,5.200000000098953,0.0,5.200000000098953,1.0,0.0,0.0,,Slider,Slider,4.0,object-56,temp_dist_trial,3.0,s_sh_02_1,student_shared,eraser,5.0,competing,paired,s_sh_02_1.jpg,Student,,,sub-44
Desktop or Laptop,Windows 10,Chrome 138.0.0.0,1600x900,1600x765,Temporal Distance Task,cb_05,3.0,temp_dist_trial,dist_items,qkpkxw,2.0,continue,,1213.8000000001919,1200.0,1213.8000000001919,1213.8000000001919,1200.0,1213.8000000001919,1.0,0.0,0.0,,Click To Continue,Next button,7.0,object-60,temp_dist_trial,3.0,s_sh_02_1,student_shared,eraser,5.0,competing,paired,s_sh_02_1.jpg,Student,,,sub-44
Desktop or Laptop,Windows 10,Chrome 138.0.0.0,1600x900,1600x765,Temporal Distance Task,cb_05,3.0,temp_dist_trial,dist_items,qkpkxw,2.0,response,56,416.7000000000117,1200.0,1214.1000000000058,416.7000000000117,1200.0,1214.1000000000058,1.0,797.3999999999942,0.0,,Slider,Slider,4.0,object-56,temp_dist_trial,3.0,s_sh_02_1,student_shared,eraser,5.0,competing,paired,s_sh_02_1.jpg,Student,,,sub-44
Desktop or Laptop,Windows 10,Chrome 138.0.0.0,1600x900,1600x765,Temporal Distance Task,cb_05,4.0,temp_dist_trial,num_items,zn7si1,1.0,response,num_miss,3000.200000000012,3000.200000000012,3000.200000000012,3000.200000000012,3000.200000000012,3000.200000000012,1.0,0.0,0.0,num_miss_tag,Time Limit,screen,0.0,screen,temp_dist_trial,4.0,s_a_01_1,student_art,paintbrush,5.0,unique,paired,s_a_01_1.jpg,Student,,,sub-44
Desktop or Laptop,Windows 10,Chrome 138.0.0.0,1600x900,1600x765,Temporal Distance Task,cb_05,5.0,temp_dist_trial,num_items,zn7si1,1.0,response,1_ITEM,127.80000000010477,116.5,127.80000000010477,127.80000000010477,116.5,127.80000000010477,1.0,0.0,0.0,,Click Response,1_count,3.0,object-46,temp_dist_trial,5.0,s_s_17_1,student_stem,ring stand,5.0,unique,paired,s_s_17_1.jpg,Student,,,sub-44
Desktop or Laptop,Windows 10,Chrome 138.0.0.0,1600x900,1600x765,Temporal Distance Task,cb_05,6.0,temp_dist_trial,num_items,zn7si1,1.0,response,1_ITEM,2107.4000000000524,2100.3000000000175,2107.4000000000524,2107.4000000000524,2100.3000000000175,2107.4000000000524,1.0,0.0,0.0,,Click Response,1_count,3.0,object-46,temp_dist_trial,6.0,s_sh_11_1,student_shared,pencil case,5.0,competing,single,s_sh_11_1.jpg,Student,,,sub-44
Desktop or Laptop,Windows 10,Chrome 138.0.0.0,1600x900,1600x765,Temporal Distance Task,cb_05,7.0,temp_dist_trial,num_items,zn7si1,1.0,response,2_ITEM,942.9000000000524,933.3000000000177,942.9000000000524,942.9000000000524,933.3000000000177,942.9000000000524,1.0,0.0,0.0,,Click Response,2_count,5.0,object-49,temp_dist_trial,7.0,s_a_07_1,student_art,yarn,5.0,unique,paired,s_a_07_1.jpg,Student,,,sub-44
Desktop or Laptop,Windows 10,Chrome 138.0.0.0,1600x900,1600x765,Temporal Distance Task,cb_05,7.0,temp_dist_trial,dist_items,qkpkxw,2.0,info,,5.100000000034925,0.0,5.100000000034925,5.100000000034925,0.0,5.100000000034925,1.0,0.0,0.0,,Slider,Slider,4.0,object-56,temp_dist_trial,7.0,s_a_07_1,student_art,yarn,5.0,unique,paired,s_a_07_1.jpg,Student,,,sub-44
Desktop or Laptop,Windows 10,Chrome 138.0.0.0,1600x900,1600x765,Temporal Distance Task,cb_05,7.0,temp_dist_trial,dist_items,qkpkxw,2.0,continue,,1586.4000000000815,1583.3999999999942,1586.4000000000815,1586.4000000000815,1583.3999999999942,1586.4000000000815,1.0,0.0,0.0,,Click To Continue,Next button,7.0,object-60,temp_dist_trial,7.0,s_a_07_1,student_art,yarn,5.0,unique,paired,s_a_07_1.jpg,Student,,,sub-44
Desktop or Laptop,Windows 10,Chrome 138.0.0.0,1600x900,1600x765,Temporal Distance Task,cb_05,7.0,temp_dist_trial,dist_items,qkpkxw,2.0,response,13,700.0,1583.3999999999942,1589.7999999999884,700.0,1583.3999999999942,1589.7999999999884,1.0,889.7999999999884,0.0,,Slider,Slider,4.0,object-56,temp_dist_trial,7.0,s_a_07_1,student_art,yarn,5.0,unique,paired,s_a_07_1.jpg,Student,,,sub-44
Desktop or Laptop,Windows 10,Chrome 138.0.0.0,1600x900,1600x765,Temporal Distance Task,cb_05,8.0,temp_dist_trial,num_items,zn7si1,1.0,response,2_ITEM,1061.8999999999942,1049.8999999999942,1061.8999999999942,1061.8999999999942,1049.8999999999942,1061.8999999999942,1.0,0.0,0.0,,Click Response,2_count,5.0,object-49,temp_dist_trial,8.0,s_a_13_1,student_art,violin,5.0,unique,paired,s_a_13_1.jpg,Student,,,sub-44
Desktop or Laptop,Windows 10,Chrome 138.0.0.0,1600x900,1600x765,Temporal Distance Task,cb_05,8.0,temp_dist_trial,dist_items,qkpkxw,2.0,info,,4.800000000133878,0.0,4.800000000133878,4.800000000133878,0.0,4.800000000133878,1.0,0.0,0.0,,Slider,Slider,4.0,object-56,temp_dist_trial,8.0,s_a_13_1,student_art,violin,5.0,unique,paired,s_a_13_1.jpg,Student,,,sub-44
Desktop or Laptop,Windows 10,Chrome 138.0.0.0,1600x900,1600x765,Temporal Distance Task,cb_05,8.0,temp_dist_trial,dist_items,qkpkxw,2.0,continue,,2276.800000000134,2266.6000000000063,2276.800000000134,2276.800000000134,2266.6000000000063,2276.800000000134,1.0,0.0,0.0,,Click To Continue,Next button,7.0,object-60,temp_dist_trial,8.0,s_a_13_1,student_art,violin,5.0,unique,paired,s_a_13_1.jpg,Student,,,sub-44
Desktop or Laptop,Windows 10,Chrome 138.0.0.0,1600x900,1600x765,Temporal Distance Task,cb_05,8.0,temp_dist_trial,dist_items,qkpkxw,2.0,response,32,1300.0,2266.6000000000063,2277.2000000000407,1300.0,2266.6000000000063,2277.2000000000407,1.0,977.2000000000407,0.0,,Slider,Slider,4.0,object-56,temp_dist_trial,8.0,s_a_13_1,student_art,violin,5.0,unique,paired,s_a_13_1.jpg,Student,,,sub-44
Desktop or Laptop,Windows 10,Chrome 138.0.0.0,1600x900,1600x765,Temporal Distance Task,cb_05,9.0,temp_dist_trial,num_items,zn7si1,1.0,response,2_ITEM,994.0000000001744,983.2999999999884,994.0000000001744,994.0000000001744,983.2999999999884,994.0000000001744,1.0,0.0,0.0,,Click Response,2_count,5.0,object-49,temp_dist_trial,9.0,s_sh_17_1,student_shared,wireless mouse,5.0,competing,paired,s_sh_17_1.jpg,Student,,,sub-44
Desktop or Laptop,Windows 10,Chrome 138.0.0.0,1600x900,1600x765,Temporal Distance Task,cb_05,9.0,temp_dist_trial,dist_items,qkpkxw,2.0,info,,5.5000000000873115,0.0,5.5000000000873115,5.5000000000873115,0.0,5.5000000000873115,1.0,0.0,0.0,,Slider,Slider,4.0,object-56,temp_dist_trial,9.0,s_sh_17_1,student_shared,wireless mouse,5.0,competing,paired,s_sh_17_1.jpg,Student,,,sub-44
Desktop or Laptop,Windows 10,Chrome 138.0.0.0,1600x900,1600x765,Temporal Distance Task,cb_05,9.0,temp_dist_trial,dist_items,qkpkxw,2.0,continue,,1780.700000000041,1766.6000000000058,1780.700000000041,1780.700000000041,1766.6000000000058,1780.700000000041,1.0,0.0,0.0,,Click To Continue,Next button,7.0,object-60,temp_dist_trial,9.0,s_sh_17_1,student_shared,wireless mouse,5.0,competing,paired,s_sh_17_1.jpg,Student,,,sub-44
Desktop or Laptop,Windows 10,Chrome 138.0.0.0,1600x900,1600x765,Temporal Distance Task,cb_05,9.0,temp_dist_trial,dist_items,qkpkxw,2.0,response,20,749.8999999999942,1766.6000000000058,1781.200000000041,749.8999999999942,1766.6000000000058,1781.200000000041,1.0,1031.3000000000468,0.0,,Slider,Slider,4.0,object-56,temp_dist_trial,9.0,s_sh_17_1,student_shared,wireless mouse,5.0,competing,paired,s_sh_17_1.jpg,Student,,,sub-44
Desktop or Laptop,Windows 10,Chrome 138.0.0.0,1600x900,1600x765,Temporal Distance Task,cb_05,10.0,temp_dist_trial,num_items,zn7si1,1.0,response,1_ITEM,1184.2999999999886,1183.3999999999942,1184.2999999999886,1184.2999999999886,1183.3999999999942,1184.2999999999886,1.0,0.0,0.0,,Click Response,1_count,3.0,object-46,temp_dist_trial,10.0,s_s_05_1,student_stem,lab goggles,5.0,unique,single,s_s_05_1.jpg,Student,,,sub-44
Desktop or Laptop,Windows 10,Chrome 138.0.0.0,1600x900,1600x765,Temporal Distance Task,cb_05,11.0,temp_dist_trial,num_items,zn7si1,1.0,response,1_ITEM,2611.000000000145,2599.700000000012,2611.000000000145,2611.000000000145,2599.700000000012,2611.000000000145,1.0,0.0,0.0,,Click Response,1_count,3.0,object-46,temp_dist_trial,11.0,s_s_16_1,student_stem,toolbox,5.0,unique,paired,s_s_16_1.jpg,Student,,,sub-44
Desktop or Laptop,Windows 10,Chrome 138.0.0.0,1600x900,1600x765,Temporal Distance Task,cb_05,12.0,temp_dist_trial,num_items,zn7si1,1.0,response,1_ITEM,2235.9000000001397,2233.3999999999937,2235.9000000001397,2235.9000000001397,2233.3999999999937,2235.9000000001397,1.0,0.0,0.0,,Click Response,1_count,3.0,object-46,temp_dist_trial,12.0,s_sh_24_1,student_shared,desk organizer,5.0,competing,single,s_sh_24_1.jpg,Student,,,sub-44
Desktop or Laptop,Windows 10,Chrome 138.0.0.0,1600x900,1600x765,Temporal Distance Task,cb_05,13.0,temp_dist_trial,num_items,zn7si1,1.0,response,1_ITEM,1441.0000000000873,1433.5,1441.0000000000873,1441.0000000000873,1433.5,1441.0000000000873,1.0,0.0,0.0,,Click Response,1_count,3.0,object-46,temp_dist_trial,13.0,s_a_15_1,student_art,drum kit,5.0,unique,paired,s_a_15_1.jpg,Student,,,sub-44
Desktop or Laptop,Windows 10,Chrome 138.0.0.0,1600x900,1600x765,Temporal Distance Task,cb_05,14.0,temp_dist_trial,num_items,zn7si1,1.0,response,1_ITEM,1265.4000000000815,1250.1999999999825,1265.4000000000815,1265.4000000000815,1250.1999999999825,1265.4000000000815,1.0,0.0,0.0,,Click Response,1_count,3.0,object-46,temp_dist_trial,14.0,s_a_06_1,student_art,pastels,5.0,unique,paired,s_a_06_1.jpg,Student,,,sub-44
Desktop or Laptop,Windows 10,Chrome 138.0.0.0,1600x900,1600x765,Temporal Distance Task,cb_05,15.0,temp_dist_trial,num_items,zn7si1,1.0,response,2_ITEM,952.4000000000816,950.0,952.4000000000816,952.4000000000816,950.0,952.4000000000816,1.0,0.0,0.0,,Click Response,2_count,5.0,object-49,temp_dist_trial,15.0,s_sh_20_1,student_shared,tape,5.0,competing,paired,s_sh_20_1.jpg,Student,,,sub-44
Desktop or Laptop,Windows 10,Chrome 138.0.0.0,1600x900,1600x765,Temporal Distance Task,cb_05,15.0,temp_dist_trial,dist_items,qkpkxw,2.0,info,,5.000000000145519,0.0,5.000000000145519,5.000000000145519,0.0,5.000000000145519,1.0,0.0,0.0,,Slider,Slider,4.0,object-56,temp_dist_trial,15.0,s_sh_20_1,student_shared,tape,5.0,competing,paired,s_sh_20_1.jpg,Student,,,sub-44
Desktop or Laptop,Windows 10,Chrome 138.0.0.0,1600x900,1600x765,Temporal Distance Task,cb_05,15.0,temp_dist_trial,dist_items,qkpkxw,2.0,continue,,1416.3000000000175,1399.8000000000175,1416.3000000000175,1416.3000000000175,1399.8000000000175,1416.3000000000175,1.0,0.0,0.0,,Click To Continue,Next button,7.0,object-60,temp_dist_trial,15.0,s_sh_20_1,student_shared,tape,5.0,competing,paired,s_sh_20_1.jpg,Student,,,sub-44
Desktop or Laptop,Windows 10,Chrome 138.0.0.0,1600x900,1600x765,Temporal Distance Task,cb_05,15.0,temp_dist_trial,dist_items,qkpkxw,2.0,response,63,649.8999999999943,1399.8000000000175,1416.3000000000175,649.8999999999943,1399.8000000000175,1416.3000000000175,1.0,766.4000000000232,0.0,,Slider,Slider,4.0,object-56,temp_dist_trial,15.0,s_sh_20_1,student_shared,tape,5.0,competing,paired,s_sh_20_1.jpg,Student,,,sub-44
Desktop or Laptop,Windows 10,Chrome 138.0.0.0,1600x900,1600x765,Temporal Distance Task,cb_05,16.0,temp_dist_trial,num_items,zn7si1,1.0,response,1_ITEM,1330.200000000128,1316.6999999999825,1330.200000000128,1330.200000000128,1316.6999999999825,1330.200000000128,1.0,0.0,0.0,,Click Response,1_count,3.0,object-46,temp_dist_trial,16.0,s_a_03_1,student_art,palette,5.0,unique,paired,s_a_03_1.jpg,Student,,,sub-44
Desktop or Laptop,Windows 10,Chrome 138.0.0.0,1600x900,1600x765,Temporal Distance Task,cb_05,17.0,temp_dist_trial,num_items,zn7si1,1.0,response,2_ITEM,1302.3000000000466,1299.8999999999942,1302.3000000000466,1302.3000000000466,1299.8999999999942,1302.3000000000466,1.0,0.0,0.0,,Click Response,2_count,5.0,object-49,temp_dist_trial,17.0,s_sh_16_1,student_shared,stapler,5.0,competing,paired,s_sh_16_1.jpg,Student,,,sub-44
Desktop or Laptop,Windows 10,Chrome 138.0.0.0,1600x900,1600x765,Temporal Distance Task,cb_05,17.0,temp_dist_trial,dist_items,qkpkxw,2.0,info,,4.8999999999941775,0.0,4.8999999999941775,4.8999999999941775,0.0,4.8999999999941775,1.0,0.0,0.0,,Slider,Slider,4.0,object-56,temp_dist_trial,17.0,s_sh_16_1,student_shared,stapler,5.0,competing,paired,s_sh_16_1.jpg,Student,,,sub-44
Desktop or Laptop,Windows 10,Chrome 138.0.0.0,1600x900,1600x765,Temporal Distance Task,cb_05,17.0,temp_dist_trial,dist_items,qkpkxw,2.0,continue,,1756.5000000000873,1749.7999999999884,1756.5000000000873,1756.5000000000873,1749.7999999999884,1756.5000000000873,1.0,0.0,0.0,,Click To Continue,Next button,7.0,object-60,temp_dist_trial,17.0,s_sh_16_1,student_shared,stapler,5.0,competing,paired,s_sh_16_1.jpg,Student,,,sub-44
Desktop or Laptop,Windows 10,Chrome 138.0.0.0,1600x900,1600x765,Temporal Distance Task,cb_05,17.0,temp_dist_trial,dist_items,qkpkxw,2.0,response,27,733.2999999999884,1749.7999999999884,1757.0000000000873,733.2999999999884,1749.7999999999884,1757.0000000000873,1.0,1023.7000000000992,0.0,,Slider,Slider,4.0,object-56,temp_dist_trial,17.0,s_sh_16_1,student_shared,stapler,5.0,competing,paired,s_sh_16_1.jpg,Student,,,sub-44
Desktop or Laptop,Windows 10,Chrome 138.0.0.0,1600x900,1600x765,Temporal Distance Task,cb_05,18.0,temp_dist_trial,num_items,zn7si1,1.0,response,1_ITEM,2566.499999999971,2549.8999999999937,2566.499999999971,2566.499999999971,2549.8999999999937,2566.499999999971,1.0,0.0,0.0,,Click Response,1_count,3.0,object-46,temp_dist_trial,18.0,s_sh_14_1,student_shared,printer,5.0,competing,single,s_sh_14_1.jpg,Student,,,sub-44
Desktop or Laptop,Windows 10,Chrome 138.0.0.0,1600x900,1600x765,Temporal Distance Task,cb_05,19.0,temp_dist_trial,num_items,zn7si1,1.0,response,2_ITEM,2042.3999999999944,2033.1000000000056,2042.3999999999944,2042.3999999999944,2033.1000000000056,2042.3999999999944,1.0,0.0,0.0,,Click Response,2_count,5.0,object-49,temp_dist_trial,19.0,s_sh_19_1,student_shared,portable plastic drawer,5.0,competing,paired,s_sh_19_1.jpg,Student,,,sub-44
Desktop or Laptop,Windows 10,Chrome 138.0.0.0,1600x900,1600x765,Temporal Distance Task,cb_05,19.0,temp_dist_trial,dist_items,qkpkxw,2.0,info,,4.700000000128056,0.0,4.700000000128056,4.700000000128056,0.0,4.700000000128056,1.0,0.0,0.0,,Slider,Slider,4.0,object-56,temp_dist_trial,19.0,s_sh_19_1,student_shared,portable plastic drawer,5.0,competing,paired,s_sh_19_1.jpg,Student,,,sub-44
Desktop or Laptop,Windows 10,Chrome 138.0.0.0,1600x900,1600x765,Temporal Distance Task,cb_05,19.0,temp_dist_trial,dist_items,qkpkxw,2.0,continue,,1683.1999999999825,1666.6999999999825,1683.1999999999825,1683.1999999999825,1666.6999999999825,1683.1999999999825,1.0,0.0,0.0,,Click To Continue,Next button,7.0,object-60,temp_dist_trial,19.0,s_sh_19_1,student_shared,portable plastic drawer,5.0,competing,paired,s_sh_19_1.jpg,Student,,,sub-44
Desktop or Laptop,Windows 10,Chrome 138.0.0.0,1600x900,1600x765,Temporal Distance Task,cb_05,19.0,temp_dist_trial,dist_items,qkpkxw,2.0,response,78,816.6999999999823,1666.6999999999825,1683.1999999999825,816.6999999999823,1666.6999999999825,1683.1999999999825,1.0,866.5,0.0,,Slider,Slider,4.0,object-56,temp_dist_trial,19.0,s_sh_19_1,student_shared,portable plastic drawer,5.0,competing,paired,s_sh_19_1.jpg,Student,,,sub-44
Desktop or Laptop,Windows 10,Chrome 138.0.0.0,1600x900,1600x765,Temporal Distance Task,cb_05,20.0,temp_dist_trial,num_items,zn7si1,1.0,response,1_ITEM,1385.0000000001455,1383.3000000000175,1385.0000000001455,1385.0000000001455,1383.3000000000175,1385.0000000001455,1.0,0.0,0.0,,Click Response,1_count,3.0,object-46,temp_dist_trial,20.0,s_s_04_1,student_stem,bunsen burner,5.0,unique,single,s_s_04_1.jpg,Student,,,sub-44
Desktop or Laptop,Windows 10,Chrome 138.0.0.0,1600x900,1600x765,Temporal Distance Task,cb_05,21.0,temp_dist_trial,num_items,zn7si1,1.0,response,2_ITEM,1153.8000000001919,1149.8999999999942,1153.8000000001919,1153.8000000001919,1149.8999999999942,1153.8000000001919,1.0,0.0,0.0,,Click Response,2_count,5.0,object-49,temp_dist_trial,21.0,s_s_14_1,student_stem,funnel,5.0,unique,paired,s_s_14_1.jpg,Student,,,sub-44
Desktop or Laptop,Windows 10,Chrome 138.0.0.0,1600x900,1600x765,Temporal Distance Task,cb_05,21.0,temp_dist_trial,dist_items,qkpkxw,2.0,info,,5.200000000128056,0.0,5.200000000128056,5.200000000128056,0.0,5.200000000128056,1.0,0.0,0.0,,Slider,Slider,4.0,object-56,temp_dist_trial,21.0,s_s_14_1,student_stem,funnel,5.0,unique,paired,s_s_14_1.jpg,Student,,,sub-44
Desktop or Laptop,Windows 10,Chrome 138.0.0.0,1600x900,1600x765,Temporal Distance Task,cb_05,21.0,temp_dist_trial,dist_items,qkpkxw,2.0,continue,,2171.200000000128,2166.6999999999825,2171.200000000128,2171.200000000128,2166.6999999999825,2171.200000000128,1.0,0.0,0.0,,Click To Continue,Next button,7.0,object-60,temp_dist_trial,21.0,s_s_14_1,student_stem,funnel,5.0,unique,paired,s_s_14_1.jpg,Student,,,sub-44
Desktop or Laptop,Windows 10,Chrome 138.0.0.0,1600x900,1600x765,Temporal Distance Task,cb_05,21.0,temp_dist_trial,dist_items,qkpkxw,2.0,response,14,550.2999999999884,2166.6999999999825,2171.600000000035,550.2999999999884,2166.6999999999825,2171.600000000035,1.0,1621.3000000000463,0.0,,Slider,Slider,4.0,object-56,temp_dist_trial,21.0,s_s_14_1,student_stem,funnel,5.0,unique,paired,s_s_14_1.jpg,Student,,,sub-44
Desktop or Laptop,Windows 10,Chrome 138.0.0.0,1600x900,1600x765,Temporal Distance Task,cb_05,22.0,temp_dist_trial,num_items,zn7si1,1.0,response,1_ITEM,2264.700000000099,2250.0,2264.700000000099,2264.700000000099,2250.0,2264.700000000099,1.0,0.0,0.0,,Click Response,1_count,3.0,object-46,temp_dist_trial,22.0,s_sh_15_1,student_shared,usb drive,5.0,competing,single,s_sh_15_1.jpg,Student,,,sub-44
Desktop or Laptop,Windows 10,Chrome 138.0.0.0,1600x900,1600x765,Temporal Distance Task,cb_05,23.0,temp_dist_trial,num_items,zn7si1,1.0,response,1_ITEM,1040.4000000001981,1033.4000000000233,1040.4000000001981,1040.4000000001981,1033.4000000000233,1040.4000000001981,1.0,0.0,0.0,,Click Response,1_count,3.0,object-46,temp_dist_trial,23.0,s_sh_10_1,student_shared,scissors,5.0,competing,single,s_sh_10_1.jpg,Student,,,sub-44
Desktop or Laptop,Windows 10,Chrome 138.0.0.0,1600x900,1600x765,Temporal Distance Task,cb_05,24.0,temp_dist_trial,num_items,zn7si1,1.0,response,1_ITEM,1294.200000000128,1283.3999999999942,1294.200000000128,1294.200000000128,1283.3999999999942,1294.200000000128,1.0,0.0,0.0,,Click Response,1_count,3.0,object-46,temp_dist_trial,24.0,s_s_12_1,student_stem,robotic arm,5.0,unique,single,s_s_12_1.jpg,Student,,,sub-44
Desktop or Laptop,Windows 10,Chrome 138.0.0.0,1600x900,1600x765,Temporal Distance Task,cb_05,25.0,temp_dist_trial,num_items,zn7si1,1.0,response,2_ITEM,1301.5,1299.8999999999942,1301.5,1301.5,1299.8999999999942,1301.5,1.0,0.0,0.0,,Click Response,2_count,5.0,object-49,temp_dist_trial,25.0,s_sh_23_1,student_shared,ballpoint pen,5.0,competing,paired,s_sh_23_1.jpg,Student,,,sub-44
Desktop or Laptop,Windows 10,Chrome 138.0.0.0,1600x900,1600x765,Temporal Distance Task,cb_05,25.0,temp_dist_trial,dist_items,qkpkxw,2.0,info,,5.0000000000873115,0.0,5.0000000000873115,5.0000000000873115,0.0,5.0000000000873115,1.0,0.0,0.0,,Slider,Slider,4.0,object-56,temp_dist_trial,25.0,s_sh_23_1,student_shared,ballpoint pen,5.0,competing,paired,s_sh_23_1.jpg,Student,,,sub-44
Desktop or Laptop,Windows 10,Chrome 138.0.0.0,1600x900,1600x765,Temporal Distance Task,cb_05,25.0,temp_dist_trial,dist_items,qkpkxw,2.0,continue,,1654.3000000001339,1650.0,1654.3000000001339,1654.3000000001339,1650.0,1654.3000000001339,1.0,0.0,0.0,,Click To Continue,Next button,7.0,object-60,temp_dist_trial,25.0,s_sh_23_1,student_shared,ballpoint pen,5.0,competing,paired,s_sh_23_1.jpg,Student,,,sub-44
Desktop or Laptop,Windows 10,Chrome 138.0.0.0,1600x900,1600x765,Temporal Distance Task,cb_05,25.0,temp_dist_trial,dist_items,qkpkxw,2.0,response,33,766.6000000000058,1650.0,1654.700000000041,766.6000000000058,1650.0,1654.700000000041,1.0,888.1000000000349,0.0,,Slider,Slider,4.0,object-56,temp_dist_trial,25.0,s_sh_23_1,student_shared,ballpoint pen,5.0,competing,paired,s_sh_23_1.jpg,Student,,,sub-44
Desktop or Laptop,Windows 10,Chrome 138.0.0.0,1600x900,1600x765,Temporal Distance Task,cb_05,26.0,temp_dist_trial,num_items,zn7si1,1.0,response,1_ITEM,2601.0000000000878,2599.8999999999937,2601.0000000000878,2601.0000000000878,2599.8999999999937,2601.0000000000878,1.0,0.0,0.0,,Click Response,1_count,3.0,object-46,temp_dist_trial,26.0,s_sh_06_1,student_shared,clipboard,5.0,competing,single,s_sh_06_1.jpg,Student,,,sub-44
Desktop or Laptop,Windows 10,Chrome 138.0.0.0,1600x900,1600x765,Temporal Distance Task,cb_05,27.0,temp_dist_trial,num_items,zn7si1,1.0,response,1_ITEM,1672.4000000001395,1666.7000000000116,1672.4000000001395,1672.4000000001395,1666.7000000000116,1672.4000000001395,1.0,0.0,0.0,,Click Response,1_count,3.0,object-46,temp_dist_trial,27.0,s_s_18_1,student_stem,brain model,5.0,unique,single,s_s_18_1.jpg,Student,,,sub-44
Desktop or Laptop,Windows 10,Chrome 138.0.0.0,1600x900,1600x765,Temporal Distance Task,cb_05,28.0,temp_dist_trial,num_items,zn7si1,1.0,response,1_ITEM,1919.5000000001746,1916.6999999999825,1919.5000000001746,1919.5000000001746,1916.6999999999825,1919.5000000001746,1.0,0.0,0.0,,Click Response,1_count,3.0,object-46,temp_dist_trial,28.0,s_sh_08_1,student_shared,post-its,5.0,competing,paired,s_sh_08_1.jpg,Student,,,sub-44
Desktop or Laptop,Windows 10,Chrome 138.0.0.0,1600x900,1600x765,Temporal Distance Task,cb_05,29.0,temp_dist_trial,num_items,zn7si1,1.0,response,1_ITEM,2516.6000000000063,2500.300000000017,2516.6000000000063,2516.6000000000063,2500.300000000017,2516.6000000000063,1.0,0.0,0.0,,Click Response,1_count,3.0,object-46,temp_dist_trial,29.0,s_a_20_1,student_art,pin cushion,5.0,unique,single,s_a_20_1.jpg,Student,,,sub-44
Desktop or Laptop,Windows 10,Chrome 138.0.0.0,1600x900,1600x765,Temporal Distance Task,cb_05,30.0,temp_dist_trial,num_items,zn7si1,1.0,response,1_ITEM,1969.5000000001746,1966.3999999999944,1969.5000000001746,1969.5000000001746,1966.3999999999944,1969.5000000001746,1.0,0.0,0.0,,Click Response,1_count,3.0,object-46,temp_dist_trial,30.0,s_s_13_1,student_stem,telescope,5.0,unique,paired,s_s_13_1.jpg,Student,,,sub-44
Desktop or Laptop,Windows 10,Chrome 138.0.0.0,1600x900,1600x765,Temporal Distance Task,cb_05,31.0,temp_dist_trial,num_items,zn7si1,1.0,response,2_ITEM,2236.100000000093,2232.7999999999884,2236.100000000093,2236.100000000093,2232.7999999999884,2236.100000000093,1.0,0.0,0.0,,Click Response,2_count,5.0,object-49,temp_dist_trial,31.0,s_sh_13_1,student_shared,index cards,5.0,competing,single,s_sh_13_1.jpg,Student,,,sub-44
Desktop or Laptop,Windows 10,Chrome 138.0.0.0,1600x900,1600x765,Temporal Distance Task,cb_05,31.0,temp_dist_trial,dist_items,qkpkxw,2.0,info,,3.500000000058208,0.0,3.500000000058208,3.500000000058208,0.0,3.500000000058208,1.0,0.0,0.0,,Slider,Slider,4.0,object-56,temp_dist_trial,31.0,s_sh_13_1,student_shared,index cards,5.0,competing,single,s_sh_13_1.jpg,Student,,,sub-44
Desktop or Laptop,Windows 10,Chrome 138.0.0.0,1600x900,1600x765,Temporal Distance Task,cb_05,31.0,temp_dist_trial,dist_items,qkpkxw,2.0,continue,,2330.900000000198,2316.800000000017,2330.900000000198,2330.900000000198,2316.800000000017,2330.900000000198,1.0,0.0,0.0,,Click To Continue,Next button,7.0,object-60,temp_dist_trial,31.0,s_sh_13_1,student_shared,index cards,5.0,competing,single,s_sh_13_1.jpg,Student,,,sub-44
Desktop or Laptop,Windows 10,Chrome 138.0.0.0,1600x900,1600x765,Temporal Distance Task,cb_05,31.0,temp_dist_trial,dist_items,qkpkxw,2.0,response,27,1016.7000000000116,2316.800000000017,2331.500000000058,1016.7000000000116,2316.800000000017,2331.500000000058,1.0,1314.8000000000466,0.0,,Slider,Slider,4.0,object-56,temp_dist_trial,31.0,s_sh_13_1,student_shared,index cards,5.0,competing,single,s_sh_13_1.jpg,Student,,,sub-44
Desktop or Laptop,Windows 10,Chrome 138.0.0.0,1600x900,1600x765,Temporal Distance Task,cb_05,32.0,temp_dist_trial,num_items,zn7si1,1.0,response,2_ITEM,1153.7000000000407,1149.8999999999942,1153.7000000000407,1153.7000000000407,1149.8999999999942,1153.7000000000407,1.0,0.0,0.0,,Click Response,2_count,5.0,object-49,temp_dist_trial,32.0,s_sh_05_1,student_shared,laptop,5.0,competing,paired,s_sh_05_1.jpg,Student,,,sub-44
Desktop or Laptop,Windows 10,Chrome 138.0.0.0,1600x900,1600x765,Temporal Distance Task,cb_05,32.0,temp_dist_trial,dist_items,qkpkxw,2.0,info,,4.100000000034925,0.0,4.100000000034925,4.100000000034925,0.0,4.100000000034925,1.0,0.0,0.0,,Slider,Slider,4.0,object-56,temp_dist_trial,32.0,s_sh_05_1,student_shared,laptop,5.0,competing,paired,s_sh_05_1.jpg,Student,,,sub-44
Desktop or Laptop,Windows 10,Chrome 138.0.0.0,1600x900,1600x765,Temporal Distance Task,cb_05,32.0,temp_dist_trial,dist_items,qkpkxw,2.0,continue,,1723.1000000000354,1716.5999999999767,1723.1000000000354,1723.1000000000354,1716.5999999999767,1723.1000000000354,1.0,0.0,0.0,,Click To Continue,Next button,7.0,object-60,temp_dist_trial,32.0,s_sh_05_1,student_shared,laptop,5.0,competing,paired,s_sh_05_1.jpg,Student,,,sub-44
Desktop or Laptop,Windows 10,Chrome 138.0.0.0,1600x900,1600x765,Temporal Distance Task,cb_05,32.0,temp_dist_trial,dist_items,qkpkxw,2.0,response,65,866.6999999999823,1716.5999999999767,1725.7999999999884,866.6999999999823,1716.5999999999767,1725.7999999999884,1.0,859.1000000000058,0.0,,Slider,Slider,4.0,object-56,temp_dist_trial,32.0,s_sh_05_1,student_shared,laptop,5.0,competing,paired,s_sh_05_1.jpg,Student,,,sub-44
Desktop or Laptop,Windows 10,Chrome 138.0.0.0,1600x900,1600x765,Temporal Distance Task,cb_05,33.0,temp_dist_trial,num_items,zn7si1,1.0,response,2_ITEM,2161.6000000001513,2149.9000000000233,2161.6000000001513,2161.6000000001513,2149.9000000000233,2161.6000000001513,1.0,0.0,0.0,,Click Response,2_count,5.0,object-49,temp_dist_trial,33.0,s_sh_21_1,student_shared,file holder,5.0,competing,paired,s_sh_21_1.jpg,Student,,,sub-44
Desktop or Laptop,Windows 10,Chrome 138.0.0.0,1600x900,1600x765,Temporal Distance Task,cb_05,33.0,temp_dist_trial,dist_items,qkpkxw,2.0,info,,4.7999999999883585,0.0,4.7999999999883585,4.7999999999883585,0.0,4.7999999999883585,1.0,0.0,0.0,,Slider,Slider,4.0,object-56,temp_dist_trial,33.0,s_sh_21_1,student_shared,file holder,5.0,competing,paired,s_sh_21_1.jpg,Student,,,sub-44
Desktop or Laptop,Windows 10,Chrome 138.0.0.0,1600x900,1600x765,Temporal Distance Task,cb_05,33.0,temp_dist_trial,dist_items,qkpkxw,2.0,continue,,1635.7999999999884,1633.2999999999884,1635.7999999999884,1635.7999999999884,1633.2999999999884,1635.7999999999884,1.0,0.0,0.0,,Click To Continue,Next button,7.0,object-60,temp_dist_trial,33.0,s_sh_21_1,student_shared,file holder,5.0,competing,paired,s_sh_21_1.jpg,Student,,,sub-44
Desktop or Laptop,Windows 10,Chrome 138.0.0.0,1600x900,1600x765,Temporal Distance Task,cb_05,33.0,temp_dist_trial,dist_items,qkpkxw,2.0,response,65,850.2999999999884,1633.2999999999884,1636.2000000001278,850.2999999999884,1633.2999999999884,1636.2000000001278,1.0,785.9000000001398,0.0,,Slider,Slider,4.0,object-56,temp_dist_trial,33.0,s_sh_21_1,student_shared,file holder,5.0,competing,paired,s_sh_21_1.jpg,Student,,,sub-44
Desktop or Laptop,Windows 10,Chrome 138.0.0.0,1600x900,1600x765,Temporal Distance Task,cb_05,34.0,temp_dist_trial,num_items,zn7si1,1.0,response,2_ITEM,982.2000000001863,966.9000000000232,982.2000000001863,982.2000000001863,966.9000000000232,982.2000000001863,1.0,0.0,0.0,,Click Response,2_count,5.0,object-49,temp_dist_trial,34.0,s_sh_03_1,student_shared,highlighter,5.0,competing,paired,s_sh_03_1.jpg,Student,,,sub-44
Desktop or Laptop,Windows 10,Chrome 138.0.0.0,1600x900,1600x765,Temporal Distance Task,cb_05,34.0,temp_dist_trial,dist_items,qkpkxw,2.0,info,,4.500000000174623,0.0,4.500000000174623,4.500000000174623,0.0,4.500000000174623,1.0,0.0,0.0,,Slider,Slider,4.0,object-56,temp_dist_trial,34.0,s_sh_03_1,student_shared,highlighter,5.0,competing,paired,s_sh_03_1.jpg,Student,,,sub-44
Desktop or Laptop,Windows 10,Chrome 138.0.0.0,1600x900,1600x765,Temporal Distance Task,cb_05,34.0,temp_dist_trial,dist_items,qkpkxw,2.0,continue,,1494.4000000000815,1483.2999999999884,1494.4000000000815,1494.4000000000815,1483.2999999999884,1494.4000000000815,1.0,0.0,0.0,,Click To Continue,Next button,7.0,object-60,temp_dist_trial,34.0,s_sh_03_1,student_shared,highlighter,5.0,competing,paired,s_sh_03_1.jpg,Student,,,sub-44
Desktop or Laptop,Windows 10,Chrome 138.0.0.0,1600x900,1600x765,Temporal Distance Task,cb_05,34.0,temp_dist_trial,dist_items,qkpkxw,2.0,response,20,683.5999999999767,1483.2999999999884,1495.0000000001746,683.5999999999767,1483.2999999999884,1495.0000000001746,1.0,811.4000000001979,0.0,,Slider,Slider,4.0,object-56,temp_dist_trial,34.0,s_sh_03_1,student_shared,highlighter,5.0,competing,paired,s_sh_03_1.jpg,Student,,,sub-44
Desktop or Laptop,Windows 10,Chrome 138.0.0.0,1600x900,1600x765,Temporal Distance Task,cb_05,35.0,temp_dist_trial,num_items,zn7si1,1.0,response,2_ITEM,931.1000000000932,916.7000000000116,931.1000000000932,931.1000000000932,916.7000000000116,931.1000000000932,1.0,0.0,0.0,,Click Response,2_count,5.0,object-49,temp_dist_trial,35.0,s_s_20_1,student_stem,dna model,5.0,unique,paired,s_s_20_1.jpg,Student,,,sub-44
Desktop or Laptop,Windows 10,Chrome 138.0.0.0,1600x900,1600x765,Temporal Distance Task,cb_05,35.0,temp_dist_trial,dist_items,qkpkxw,2.0,info,,4.900000000023283,0.0,4.900000000023283,4.900000000023283,0.0,4.900000000023283,1.0,0.0,0.0,,Slider,Slider,4.0,object-56,temp_dist_trial,35.0,s_s_20_1,student_stem,dna model,5.0,unique,paired,s_s_20_1.jpg,Student,,,sub-44
Desktop or Laptop,Windows 10,Chrome 138.0.0.0,1600x900,1600x765,Temporal Distance Task,cb_05,35.0,temp_dist_trial,dist_items,qkpkxw,2.0,continue,,1302.6000000002095,1300.100000000035,1302.6000000002095,1302.6000000002095,1300.100000000035,1302.6000000002095,1.0,0.0,0.0,,Click To Continue,Next button,7.0,object-60,temp_dist_trial,35.0,s_s_20_1,student_stem,dna model,5.0,unique,paired,s_s_20_1.jpg,Student,,,sub-44
Desktop or Laptop,Windows 10,Chrome 138.0.0.0,1600x900,1600x765,Temporal Distance Task,cb_05,35.0,temp_dist_trial,dist_items,qkpkxw,2.0,response,38,583.4000000000233,1300.100000000035,1303.300000000163,583.4000000000233,1300.100000000035,1303.300000000163,1.0,719.9000000001398,0.0,,Slider,Slider,4.0,object-56,temp_dist_trial,35.0,s_s_20_1,student_stem,dna model,5.0,unique,paired,s_s_20_1.jpg,Student,,,sub-44
Desktop or Laptop,Windows 10,Chrome 138.0.0.0,1600x900,1600x765,Temporal Distance Task,cb_05,36.0,temp_dist_trial,num_items,zn7si1,1.0,response,1_ITEM,1037.200000000128,1033.2999999999884,1037.200000000128,1037.200000000128,1033.2999999999884,1037.200000000128,1.0,0.0,0.0,,Click Response,1_count,3.0,object-46,temp_dist_trial,36.0,s_a_10_1,student_art,tripod,5.0,unique,single,s_a_10_1.jpg,Student,,,sub-44
Desktop or Laptop,Windows 10,Chrome 138.0.0.0,1600x900,1600x765,Temporal Distance Task,cb_05,37.0,temp_dist_trial,num_items,zn7si1,1.0,response,1_ITEM,1123.4000000000233,1116.5,1123.4000000000233,1123.4000000000233,1116.5,1123.4000000000233,1.0,0.0,0.0,,Click Response,1_count,3.0,object-46,temp_dist_trial,37.0,s_a_09_1,student_art,picture frame,5.0,unique,paired,s_a_09_1.jpg,Student,,,sub-44
Desktop or Laptop,Windows 10,Chrome 138.0.0.0,1600x900,1600x765,Temporal Distance Task,cb_05,38.0,temp_dist_trial,num_items,zn7si1,1.0,response,1_ITEM,846.4000000000815,833.2999999999884,846.4000000000815,846.4000000000815,833.2999999999884,846.4000000000815,1.0,0.0,0.0,,Click Response,1_count,3.0,object-46,temp_dist_trial,38.0,s_a_11_1,student_art,clapperboard,5.0,unique,single,s_a_11_1.jpg,Student,,,sub-44
Desktop or Laptop,Windows 10,Chrome 138.0.0.0,1600x900,1600x765,Temporal Distance Task,cb_05,39.0,temp_dist_trial,num_items,zn7si1,1.0,response,1_ITEM,2878.0999999999767,2866.699999999953,2878.0999999999767,2878.0999999999767,2866.699999999953,2878.0999999999767,1.0,0.0,0.0,,Click Response,1_count,3.0,object-46,temp_dist_trial,39.0,s_sh_04_1,student_shared,laptop stand,5.0,competing,paired,s_sh_04_1.jpg,Student,,,sub-44
Desktop or Laptop,Windows 10,Chrome 138.0.0.0,1600x900,1600x765,Temporal Distance Task,cb_05,40.0,temp_dist_trial,num_items,zn7si1,1.0,response,2_ITEM,1387.2000000001278,1383.5999999999767,1387.2000000001278,1387.2000000001278,1383.5999999999767,1387.2000000001278,1.0,0.0,0.0,,Click Response,2_count,5.0,object-49,temp_dist_trial,40.0,s_sh_09_1,student_shared,paper clips,5.0,competing,paired,s_sh_09_1.jpg,Student,,,sub-44
Desktop or Laptop,Windows 10,Chrome 138.0.0.0,1600x900,1600x765,Temporal Distance Task,cb_05,40.0,temp_dist_trial,dist_items,qkpkxw,2.0,info,,4.200000000128056,0.0,4.200000000128056,4.200000000128056,0.0,4.200000000128056,1.0,0.0,0.0,,Slider,Slider,4.0,object-56,temp_dist_trial,40.0,s_sh_09_1,student_shared,paper clips,5.0,competing,paired,s_sh_09_1.jpg,Student,,,sub-44
Desktop or Laptop,Windows 10,Chrome 138.0.0.0,1600x900,1600x765,Temporal Distance Task,cb_05,40.0,temp_dist_trial,dist_items,qkpkxw,2.0,continue,,1518.6000000000354,1516.3999999999646,1518.6000000000354,1518.6000000000354,1516.3999999999646,1518.6000000000354,1.0,0.0,0.0,,Click To Continue,Next button,7.0,object-60,temp_dist_trial,40.0,s_sh_09_1,student_shared,paper clips,5.0,competing,paired,s_sh_09_1.jpg,Student,,,sub-44
Desktop or Laptop,Windows 10,Chrome 138.0.0.0,1600x900,1600x765,Temporal Distance Task,cb_05,40.0,temp_dist_trial,dist_items,qkpkxw,2.0,response,26,633.2999999999884,1516.3999999999646,1519.0000000001746,633.2999999999884,1516.3999999999646,1519.0000000001746,1.0,885.7000000001863,0.0,,Slider,Slider,4.0,object-56,temp_dist_trial,40.0,s_sh_09_1,student_shared,paper clips,5.0,competing,paired,s_sh_09_1.jpg,Student,,,sub-44
Desktop or Laptop,Windows 10,Chrome 138.0.0.0,1600x900,1600x765,Temporal Distance Task,cb_05,41.0,temp_dist_trial,num_items,zn7si1,1.0,response,num_miss,3000.3000000000466,3000.3000000000466,3000.3000000000466,3000.3000000000466,3000.3000000000466,3000.3000000000466,1.0,0.0,0.0,num_miss_tag,Time Limit,screen,0.0,screen,temp_dist_trial,41.0,s_sh_22_1,student_shared,hole puncher,5.0,competing,paired,s_sh_22_1.jpg,Student,,,sub-44
Desktop or Laptop,Windows 10,Chrome 138.0.0.0,1600x900,1600x765,Temporal Distance Task,cb_05,42.0,temp_dist_trial,num_items,zn7si1,1.0,response,1_ITEM,1566.0000000001166,1550.0,1566.0000000001166,1566.0000000001166,1550.0,1566.0000000001166,1.0,0.0,0.0,,Click Response,1_count,3.0,object-46,temp_dist_trial,42.0,s_sh_01_1,student_shared,notebook,5.0,competing,paired,s_sh_01_1.jpg,Student,,,sub-44
Desktop or Laptop,Windows 10,Chrome 138.0.0.0,1600x900,1600x765,Temporal Distance Task,cb_05,43.0,temp_dist_trial,num_items,zn7si1,1.0,response,2_ITEM,1352.5000000001164,1349.9000000000233,1352.5000000001164,1352.5000000001164,1349.9000000000233,1352.5000000001164,1.0,0.0,0.0,,Click Response,2_count,5.0,object-49,temp_dist_trial,43.0,s_s_11_1,student_stem,scientific scale,5.0,unique,paired,s_s_11_1.jpg,Student,,,sub-44
Desktop or Laptop,Windows 10,Chrome 138.0.0.0,1600x900,1600x765,Temporal Distance Task,cb_05,43.0,temp_dist_trial,dist_items,qkpkxw,2.0,info,,3.79999999998836,0.0,3.79999999998836,3.79999999998836,0.0,3.79999999998836,1.0,0.0,0.0,,Slider,Slider,4.0,object-56,temp_dist_trial,43.0,s_s_11_1,student_stem,scientific scale,5.0,unique,paired,s_s_11_1.jpg,Student,,,sub-44
Desktop or Laptop,Windows 10,Chrome 138.0.0.0,1600x900,1600x765,Temporal Distance Task,cb_05,43.0,temp_dist_trial,dist_items,qkpkxw,2.0,continue,,1514.4000000000815,1499.7999999999884,1514.4000000000815,1514.4000000000815,1499.7999999999884,1514.4000000000815,1.0,0.0,0.0,,Click To Continue,Next button,7.0,object-60,temp_dist_trial,43.0,s_s_11_1,student_stem,scientific scale,5.0,unique,paired,s_s_11_1.jpg,Student,,,sub-44
Desktop or Laptop,Windows 10,Chrome 138.0.0.0,1600x900,1600x765,Temporal Distance Task,cb_05,43.0,temp_dist_trial,dist_items,qkpkxw,2.0,response,67,649.7999999999884,1499.7999999999884,1514.7999999999884,649.7999999999884,1499.7999999999884,1514.7999999999884,1.0,865.0,0.0,,Slider,Slider,4.0,object-56,temp_dist_trial,43.0,s_s_11_1,student_stem,scientific scale,5.0,unique,paired,s_s_11_1.jpg,Student,,,sub-44
Desktop or Laptop,Windows 10,Chrome 138.0.0.0,1600x900,1600x765,Temporal Distance Task,cb_05,44.0,temp_dist_trial,num_items,zn7si1,1.0,response,1_ITEM,1137.7000000001865,1133.2999999999886,1137.7000000001865,1137.7000000001865,1133.2999999999886,1137.7000000001865,1.0,0.0,0.0,,Click Response,1_count,3.0,object-46,temp_dist_trial,44.0,s_sh_07_1,student_shared,ruler,5.0,competing,paired,s_sh_07_1.jpg,Student,,,sub-44
Desktop or Laptop,Windows 10,Chrome 138.0.0.0,1600x900,1600x765,Temporal Distance Task,cb_05,45.0,temp_dist_trial,num_items,zn7si1,1.0,response,1_ITEM,921.3000000000467,916.5,921.3000000000467,921.3000000000467,916.5,921.3000000000467,1.0,0.0,0.0,,Click Response,1_count,3.0,object-46,temp_dist_trial,45.0,s_a_04_1,student_art,easel,5.0,unique,single,s_a_04_1.jpg,Student,,,sub-44
Desktop or Laptop,Windows 10,Chrome 138.0.0.0,1600x900,1600x765,Temporal Distance Task,cb_05,46.0,temp_dist_trial,num_items,zn7si1,1.0,response,2_ITEM,1180.800000000163,1167.0,1180.800000000163,1180.800000000163,1167.0,1180.800000000163,1.0,0.0,0.0,,Click Response,2_count,5.0,object-49,temp_dist_trial,46.0,s_s_06_1,student_stem,calculator,5.0,unique,paired,s_s_06_1.jpg,Student,,,sub-44
Desktop or Laptop,Windows 10,Chrome 138.0.0.0,1600x900,1600x765,Temporal Distance Task,cb_05,46.0,temp_dist_trial,dist_items,qkpkxw,2.0,info,,4.400000000023283,0.0,4.400000000023283,4.400000000023283,0.0,4.400000000023283,1.0,0.0,0.0,,Slider,Slider,4.0,object-56,temp_dist_trial,46.0,s_s_06_1,student_stem,calculator,5.0,unique,paired,s_s_06_1.jpg,Student,,,sub-44
Desktop or Laptop,Windows 10,Chrome 138.0.0.0,1600x900,1600x765,Temporal Distance Task,cb_05,46.0,temp_dist_trial,dist_items,qkpkxw,2.0,continue,,1526.2000000000698,1516.7000000000116,1526.2000000000698,1526.2000000000698,1516.7000000000116,1526.2000000000698,1.0,0.0,0.0,,Click To Continue,Next button,7.0,object-60,temp_dist_trial,46.0,s_s_06_1,student_stem,calculator,5.0,unique,paired,s_s_06_1.jpg,Student,,,sub-44
Desktop or Laptop,Windows 10,Chrome 138.0.0.0,1600x900,1600x765,Temporal Distance Task,cb_05,46.0,temp_dist_trial,dist_items,qkpkxw,2.0,response,35,616.7000000000116,1516.7000000000116,1529.7000000000698,616.7000000000116,1516.7000000000116,1529.7000000000698,1.0,913.0000000000584,0.0,,Slider,Slider,4.0,object-56,temp_dist_trial,46.0,s_s_06_1,student_stem,calculator,5.0,unique,paired,s_s_06_1.jpg,Student,,,sub-44
Desktop or Laptop,Windows 10,Chrome 138.0.0.0,1600x900,1600x765,Temporal Distance Task,cb_05,47.0,temp_dist_trial,num_items,zn7si1,1.0,response,1_ITEM,1694.7000000000116,1683.5,1694.7000000000116,1694.7000000000116,1683.5,1694.7000000000116,1.0,0.0,0.0,,Click Response,1_count,3.0,object-46,temp_dist_trial,47.0,s_sh_12_1,student_shared,binder,5.0,competing,single,s_sh_12_1.jpg,Student,,,sub-44
Desktop or Laptop,Windows 10,Chrome 138.0.0.0,1600x900,1600x765,Temporal Distance Task,cb_05,48.0,temp_dist_trial,num_items,zn7si1,1.0,response,2_ITEM,839.9000000001979,833.2000000000116,839.9000000001979,839.9000000001979,833.2000000000116,839.9000000001979,1.0,0.0,0.0,,Click Response,2_count,5.0,object-49,temp_dist_trial,48.0,s_sh_18_1,student_shared,wall calendar,5.0,competing,paired,s_sh_18_1.jpg,Student,,,sub-44
Desktop or Laptop,Windows 10,Chrome 138.0.0.0,1600x900,1600x765,Temporal Distance Task,cb_05,48.0,temp_dist_trial,dist_items,qkpkxw,2.0,info,,4.000000000116415,0.0,4.000000000116415,4.000000000116415,0.0,4.000000000116415,1.0,0.0,0.0,,Slider,Slider,4.0,object-56,temp_dist_trial,48.0,s_sh_18_1,student_shared,wall calendar,5.0,competing,paired,s_sh_18_1.jpg,Student,,,sub-44
Desktop or Laptop,Windows 10,Chrome 138.0.0.0,1600x900,1600x765,Temporal Distance Task,cb_05,48.0,temp_dist_trial,dist_items,qkpkxw,2.0,continue,,1728.5000000001166,1716.5999999999767,1728.5000000001166,1728.5000000001166,1716.5999999999767,1728.5000000001166,1.0,0.0,0.0,,Click To Continue,Next button,7.0,object-60,temp_dist_trial,48.0,s_sh_18_1,student_shared,wall calendar,5.0,competing,paired,s_sh_18_1.jpg,Student,,,sub-44
Desktop or Laptop,Windows 10,Chrome 138.0.0.0,1600x900,1600x765,Temporal Distance Task,cb_05,48.0,temp_dist_trial,dist_items,qkpkxw,2.0,response,13,583.5999999999767,1716.5999999999767,1729.0000000001166,583.5999999999767,1716.5999999999767,1729.0000000001166,1.0,1145.4000000001395,0.0,,Slider,Slider,4.0,object-56,temp_dist_trial,48.0,s_sh_18_1,student_shared,wall calendar,5.0,competing,paired,s_sh_18_1.jpg,Student,,,sub-44
Desktop or Laptop,Windows 10,Chrome 138.0.0.0,1600x900,1600x765,Temporal Distance Task,cb_05,2.0,temp_eventStart,Screen 1,dgtyxe,1.0,continue,,6150.200000000185,6133.599999999977,6150.200000000185,6150.200000000185,6133.599999999977,6150.200000000185,1.0,0.0,0.0,,Click To Continue,Next Button,3.0,object-43,temp_eventStart,,,Travel,,,,,,,,,sub-44
Desktop or Laptop,Windows 10,Chrome 138.0.0.0,1600x900,1600x765,Temporal Distance Task,cb_05,49.0,temp_dist_trial,num_items,zn7si1,1.0,response,1_ITEM,2506.20000000007,2500.200000000012,2506.20000000007,2506.20000000007,2500.200000000012,2506.20000000007,1.0,0.0,0.0,,Click Response,1_count,3.0,object-46,temp_dist_trial,1.0,t_m_20_1,travel_Miami,inflatable beachball,5.0,unique,paired,t_m_20_1.jpg,Travel,,,sub-44
Desktop or Laptop,Windows 10,Chrome 138.0.0.0,1600x900,1600x765,Temporal Distance Task,cb_05,50.0,temp_dist_trial,num_items,zn7si1,1.0,response,2_ITEM,943.8000000000467,933.5,943.8000000000467,943.8000000000467,933.5,943.8000000000467,1.0,0.0,0.0,,Click Response,2_count,5.0,object-49,temp_dist_trial,2.0,t_i_13_1,travel_Iceland,sleeping bag,5.0,unique,single,t_i_13_1.jpg,Travel,,,sub-44
Desktop or Laptop,Windows 10,Chrome 138.0.0.0,1600x900,1600x765,Temporal Distance Task,cb_05,50.0,temp_dist_trial,dist_items,qkpkxw,2.0,info,,4.200000000128056,0.0,4.200000000128056,4.200000000128056,0.0,4.200000000128056,1.0,0.0,0.0,,Slider,Slider,4.0,object-56,temp_dist_trial,2.0,t_i_13_1,travel_Iceland,sleeping bag,5.0,unique,single,t_i_13_1.jpg,Travel,,,sub-44
Desktop or Laptop,Windows 10,Chrome 138.0.0.0,1600x900,1600x765,Temporal Distance Task,cb_05,50.0,temp_dist_trial,dist_items,qkpkxw,2.0,continue,,1330.0000000001746,1316.7000000000114,1330.0000000001746,1330.0000000001746,1316.7000000000114,1330.0000000001746,1.0,0.0,0.0,,Click To Continue,Next button,7.0,object-60,temp_dist_trial,2.0,t_i_13_1,travel_Iceland,sleeping bag,5.0,unique,single,t_i_13_1.jpg,Travel,,,sub-44
Desktop or Laptop,Windows 10,Chrome 138.0.0.0,1600x900,1600x765,Temporal Distance Task,cb_05,50.0,temp_dist_trial,dist_items,qkpkxw,2.0,response,38,533.3999999999652,1316.7000000000114,1330.5000000001746,533.3999999999652,1316.7000000000114,1330.5000000001746,1.0,797.1000000002095,0.0,,Slider,Slider,4.0,object-56,temp_dist_trial,2.0,t_i_13_1,travel_Iceland,sleeping bag,5.0,unique,single,t_i_13_1.jpg,Travel,,,sub-44
Desktop or Laptop,Windows 10,Chrome 138.0.0.0,1600x900,1600x765,Temporal Distance Task,cb_05,51.0,temp_dist_trial,num_items,zn7si1,1.0,response,2_ITEM,973.7000000000696,966.8999999999652,973.7000000000696,973.7000000000696,966.8999999999652,973.7000000000696,1.0,0.0,0.0,,Click Response,2_count,5.0,object-49,temp_dist_trial,3.0,t_s_05_1,travel_shared,neck pillow,5.0,competing,paired,t_s_05_1.jpg,Travel,,,sub-44
Desktop or Laptop,Windows 10,Chrome 138.0.0.0,1600x900,1600x765,Temporal Distance Task,cb_05,51.0,temp_dist_trial,dist_items,qkpkxw,2.0,info,,5.100000000093131,0.0,5.100000000093131,5.100000000093131,0.0,5.100000000093131,1.0,0.0,0.0,,Slider,Slider,4.0,object-56,temp_dist_trial,3.0,t_s_05_1,travel_shared,neck pillow,5.0,competing,paired,t_s_05_1.jpg,Travel,,,sub-44
Desktop or Laptop,Windows 10,Chrome 138.0.0.0,1600x900,1600x765,Temporal Distance Task,cb_05,51.0,temp_dist_trial,dist_items,qkpkxw,2.0,continue,,1214.2000000001865,1200.0999999999767,1214.2000000001865,1214.2000000001865,1200.0999999999767,1214.2000000001865,1.0,0.0,0.0,,Click To Continue,Next button,7.0,object-60,temp_dist_trial,3.0,t_s_05_1,travel_shared,neck pillow,5.0,competing,paired,t_s_05_1.jpg,Travel,,,sub-44
Desktop or Laptop,Windows 10,Chrome 138.0.0.0,1600x900,1600x765,Temporal Distance Task,cb_05,51.0,temp_dist_trial,dist_items,qkpkxw,2.0,response,22,500.0999999999767,1200.0999999999767,1214.9000000001395,500.0999999999767,1200.0999999999767,1214.9000000001395,1.0,714.800000000163,0.0,,Slider,Slider,4.0,object-56,temp_dist_trial,3.0,t_s_05_1,travel_shared,neck pillow,5.0,competing,paired,t_s_05_1.jpg,Travel,,,sub-44
Desktop or Laptop,Windows 10,Chrome 138.0.0.0,1600x900,1600x765,Temporal Distance Task,cb_05,52.0,temp_dist_trial,num_items,zn7si1,1.0,response,2_ITEM,1023.300000000163,1016.6000000000348,1023.300000000163,1023.300000000163,1016.6000000000348,1023.300000000163,1.0,0.0,0.0,,Click Response,2_count,5.0,object-49,temp_dist_trial,4.0,t_s_07_1,travel_shared,phone charger cable,5.0,competing,paired,t_s_07_1.jpg,Travel,,,sub-44
Desktop or Laptop,Windows 10,Chrome 138.0.0.0,1600x900,1600x765,Temporal Distance Task,cb_05,52.0,temp_dist_trial,dist_items,qkpkxw,2.0,info,,3.700000000128056,0.0,3.700000000128056,3.700000000128056,0.0,3.700000000128056,1.0,0.0,0.0,,Slider,Slider,4.0,object-56,temp_dist_trial,4.0,t_s_07_1,travel_shared,phone charger cable,5.0,competing,paired,t_s_07_1.jpg,Travel,,,sub-44
Desktop or Laptop,Windows 10,Chrome 138.0.0.0,1600x900,1600x765,Temporal Distance Task,cb_05,52.0,temp_dist_trial,dist_items,qkpkxw,2.0,continue,,1199.4000000000815,1183.399999999965,1199.4000000000815,1199.4000000000815,1183.399999999965,1199.4000000000815,1.0,0.0,0.0,,Click To Continue,Next button,7.0,object-60,temp_dist_trial,4.0,t_s_07_1,travel_shared,phone charger cable,5.0,competing,paired,t_s_07_1.jpg,Travel,,,sub-44
Desktop or Laptop,Windows 10,Chrome 138.0.0.0,1600x900,1600x765,Temporal Distance Task,cb_05,52.0,temp_dist_trial,dist_items,qkpkxw,2.0,response,36,433.7000000000117,1183.399999999965,1200.0999999999185,433.7000000000117,1183.399999999965,1200.0999999999185,1.0,766.3999999999069,0.0,,Slider,Slider,4.0,object-56,temp_dist_trial,4.0,t_s_07_1,travel_shared,phone charger cable,5.0,competing,paired,t_s_07_1.jpg,Travel,,,sub-44
Desktop or Laptop,Windows 10,Chrome 138.0.0.0,1600x900,1600x765,Temporal Distance Task,cb_05,53.0,temp_dist_trial,num_items,zn7si1,1.0,response,1_ITEM,1023.800000000163,1016.6000000000348,1023.800000000163,1023.800000000163,1016.6000000000348,1023.800000000163,1.0,0.0,0.0,,Click Response,1_count,3.0,object-46,temp_dist_trial,5.0,t_i_03_1,travel_Iceland,winter jacket,5.0,unique,paired,t_i_03_1.jpg,Travel,,,sub-44
Desktop or Laptop,Windows 10,Chrome 138.0.0.0,1600x900,1600x765,Temporal Distance Task,cb_05,54.0,temp_dist_trial,num_items,zn7si1,1.0,response,1_ITEM,1023.2000000001281,1016.7000000000116,1023.2000000001281,1023.2000000001281,1016.7000000000116,1023.2000000001281,1.0,0.0,0.0,,Click Response,1_count,3.0,object-46,temp_dist_trial,6.0,t_m_10_1,travel_Miami,tanktop,5.0,unique,paired,t_m_10_1.jpg,Travel,,,sub-44
Desktop or Laptop,Windows 10,Chrome 138.0.0.0,1600x900,1600x765,Temporal Distance Task,cb_05,55.0,temp_dist_trial,num_items,zn7si1,1.0,response,2_ITEM,959.2000000000696,950.0,959.2000000000696,959.2000000000696,950.0,959.2000000000696,1.0,0.0,0.0,,Click Response,2_count,5.0,object-49,temp_dist_trial,7.0,t_s_01_1,travel_shared,fanny pack,5.0,competing,paired,t_s_01_1.jpg,Travel,,,sub-44
Desktop or Laptop,Windows 10,Chrome 138.0.0.0,1600x900,1600x765,Temporal Distance Task,cb_05,55.0,temp_dist_trial,dist_items,qkpkxw,2.0,info,,5.3000000001629815,0.0,5.3000000001629815,5.3000000001629815,0.0,5.3000000001629815,1.0,0.0,0.0,,Slider,Slider,4.0,object-56,temp_dist_trial,7.0,t_s_01_1,travel_shared,fanny pack,5.0,competing,paired,t_s_01_1.jpg,Travel,,,sub-44
Desktop or Laptop,Windows 10,Chrome 138.0.0.0,1600x900,1600x765,Temporal Distance Task,cb_05,55.0,temp_dist_trial,dist_items,qkpkxw,2.0,continue,,1823.800000000163,1816.8999999999646,1823.800000000163,1823.800000000163,1816.8999999999646,1823.800000000163,1.0,0.0,0.0,,Click To Continue,Next button,7.0,object-60,temp_dist_trial,7.0,t_s_01_1,travel_shared,fanny pack,5.0,competing,paired,t_s_01_1.jpg,Travel,,,sub-44
Desktop or Laptop,Windows 10,Chrome 138.0.0.0,1600x900,1600x765,Temporal Distance Task,cb_05,55.0,temp_dist_trial,dist_items,qkpkxw,2.0,response,20,433.2999999999884,1816.8999999999646,1824.2000000000696,433.2999999999884,1816.8999999999646,1824.2000000000696,1.0,1390.9000000000815,0.0,,Slider,Slider,4.0,object-56,temp_dist_trial,7.0,t_s_01_1,travel_shared,fanny pack,5.0,competing,paired,t_s_01_1.jpg,Travel,,,sub-44
Desktop or Laptop,Windows 10,Chrome 138.0.0.0,1600x900,1600x765,Temporal Distance Task,cb_05,56.0,temp_dist_trial,num_items,zn7si1,1.0,response,1_ITEM,841.4000000001979,833.1000000000349,841.4000000001979,841.4000000001979,833.1000000000349,841.4000000001979,1.0,0.0,0.0,,Click Response,1_count,3.0,object-46,temp_dist_trial,8.0,t_i_02_1,travel_Iceland,scarf,5.0,unique,paired,t_i_02_1.jpg,Travel,,,sub-44
Desktop or Laptop,Windows 10,Chrome 138.0.0.0,1600x900,1600x765,Temporal Distance Task,cb_05,57.0,temp_dist_trial,num_items,zn7si1,1.0,response,1_ITEM,1161.0000000001164,1150.0999999999767,1161.0000000001164,1161.0000000001164,1150.0999999999767,1161.0000000001164,1.0,0.0,0.0,,Click Response,1_count,3.0,object-46,temp_dist_trial,9.0,t_m_12_1,travel_Miami,foldable pail and shovel,5.0,unique,single,t_m_12_1.jpg,Travel,,,sub-44
Desktop or Laptop,Windows 10,Chrome 138.0.0.0,1600x900,1600x765,Temporal Distance Task,cb_05,58.0,temp_dist_trial,num_items,zn7si1,1.0,response,2_ITEM,1347.8000000000466,1333.2999999999886,1347.8000000000466,1347.8000000000466,1333.2999999999886,1347.8000000000466,1.0,0.0,0.0,,Click Response,2_count,5.0,object-49,temp_dist_trial,10.0,t_s_19_1,travel_shared,pajamas,5.0,competing,paired,t_s_19_1.jpg,Travel,,,sub-44
Desktop or Laptop,Windows 10,Chrome 138.0.0.0,1600x900,1600x765,Temporal Distance Task,cb_05,58.0,temp_dist_trial,dist_items,qkpkxw,2.0,info,,4.300000000046566,0.0,4.300000000046566,4.300000000046566,0.0,4.300000000046566,1.0,0.0,0.0,,Slider,Slider,4.0,object-56,temp_dist_trial,10.0,t_s_19_1,travel_shared,pajamas,5.0,competing,paired,t_s_19_1.jpg,Travel,,,sub-44
Desktop or Laptop,Windows 10,Chrome 138.0.0.0,1600x900,1600x765,Temporal Distance Task,cb_05,58.0,temp_dist_trial,dist_items,qkpkxw,2.0,continue,,1686.3000000000463,1683.0999999999767,1686.3000000000463,1686.3000000000463,1683.0999999999767,1686.3000000000463,1.0,0.0,0.0,,Click To Continue,Next button,7.0,object-60,temp_dist_trial,10.0,t_s_19_1,travel_shared,pajamas,5.0,competing,paired,t_s_19_1.jpg,Travel,,,sub-44
Desktop or Laptop,Windows 10,Chrome 138.0.0.0,1600x900,1600x765,Temporal Distance Task,cb_05,58.0,temp_dist_trial,dist_items,qkpkxw,2.0,response,14,666.4000000000233,1683.0999999999767,1690.2000000001865,666.4000000000233,1683.0999999999767,1690.2000000001865,1.0,1023.800000000163,0.0,,Slider,Slider,4.0,object-56,temp_dist_trial,10.0,t_s_19_1,travel_shared,pajamas,5.0,competing,paired,t_s_19_1.jpg,Travel,,,sub-44
Desktop or Laptop,Windows 10,Chrome 138.0.0.0,1600x900,1600x765,Temporal Distance Task,cb_05,59.0,temp_dist_trial,num_items,zn7si1,1.0,response,1_ITEM,1187.2000000000694,1183.2000000000114,1187.2000000000694,1187.2000000000694,1183.2000000000114,1187.2000000000694,1.0,0.0,0.0,,Click Response,1_count,3.0,object-46,temp_dist_trial,11.0,t_s_12_1,travel_shared,clear toiletry bag,5.0,competing,single,t_s_12_1.jpg,Travel,,,sub-44
Desktop or Laptop,Windows 10,Chrome 138.0.0.0,1600x900,1600x765,Temporal Distance Task,cb_05,60.0,temp_dist_trial,num_items,zn7si1,1.0,response,2_ITEM,2063.5000000001164,2050.0999999999767,2063.5000000001164,2063.5000000001164,2050.0999999999767,2063.5000000001164,1.0,0.0,0.0,,Click Response,2_count,5.0,object-49,temp_dist_trial,12.0,t_s_20_1,travel_shared,travel pill case,5.0,competing,paired,t_s_20_1.jpg,Travel,,,sub-44
Desktop or Laptop,Windows 10,Chrome 138.0.0.0,1600x900,1600x765,Temporal Distance Task,cb_05,60.0,temp_dist_trial,dist_items,qkpkxw,2.0,info,,6.000000000116415,0.0,6.000000000116415,6.000000000116415,0.0,6.000000000116415,1.0,0.0,0.0,,Slider,Slider,4.0,object-56,temp_dist_trial,12.0,t_s_20_1,travel_shared,travel pill case,5.0,competing,paired,t_s_20_1.jpg,Travel,,,sub-44
Desktop or Laptop,Windows 10,Chrome 138.0.0.0,1600x900,1600x765,Temporal Distance Task,cb_05,60.0,temp_dist_trial,dist_items,qkpkxw,2.0,continue,,1333.3999999999069,1316.6999999999534,1333.3999999999069,1333.3999999999069,1316.6999999999534,1333.3999999999069,1.0,0.0,0.0,,Click To Continue,Next button,7.0,object-60,temp_dist_trial,12.0,t_s_20_1,travel_shared,travel pill case,5.0,competing,paired,t_s_20_1.jpg,Travel,,,sub-44
Desktop or Laptop,Windows 10,Chrome 138.0.0.0,1600x900,1600x765,Temporal Distance Task,cb_05,60.0,temp_dist_trial,dist_items,qkpkxw,2.0,response,35,500.0999999999767,1316.6999999999534,1333.3999999999069,500.0999999999767,1316.6999999999534,1333.3999999999069,1.0,833.2999999999303,0.0,,Slider,Slider,4.0,object-56,temp_dist_trial,12.0,t_s_20_1,travel_shared,travel pill case,5.0,competing,paired,t_s_20_1.jpg,Travel,,,sub-44
Desktop or Laptop,Windows 10,Chrome 138.0.0.0,1600x900,1600x765,Temporal Distance Task,cb_05,61.0,temp_dist_trial,num_items,zn7si1,1.0,response,1_ITEM,1683.1000000000354,1666.6000000000354,1683.1000000000354,1683.1000000000354,1666.6000000000354,1683.1000000000354,1.0,0.0,0.0,,Click Response,1_count,3.0,object-46,temp_dist_trial,13.0,t_s_21_1,travel_shared,umbrella,5.0,competing,single,t_s_21_1.jpg,Travel,,,sub-44
Desktop or Laptop,Windows 10,Chrome 138.0.0.0,1600x900,1600x765,Temporal Distance Task,cb_05,62.0,temp_dist_trial,num_items,zn7si1,1.0,response,1_ITEM,1496.1000000000934,1483.0999999999767,1496.1000000000934,1496.1000000000934,1483.0999999999767,1496.1000000000934,1.0,0.0,0.0,,Click Response,1_count,3.0,object-46,temp_dist_trial,14.0,t_m_04_1,travel_Miami,UV jacket,5.0,unique,paired,t_m_04_1.jpg,Travel,,,sub-44
Desktop or Laptop,Windows 10,Chrome 138.0.0.0,1600x900,1600x765,Temporal Distance Task,cb_05,63.0,temp_dist_trial,num_items,zn7si1,1.0,response,1_ITEM,748.5000000001164,733.3000000000467,748.5000000001164,748.5000000001164,733.3000000000467,748.5000000001164,1.0,0.0,0.0,,Click Response,1_count,3.0,object-46,temp_dist_trial,15.0,t_m_14_1,travel_Miami,swim goggles,5.0,unique,paired,t_m_14_1.jpg,Travel,,,sub-44
Desktop or Laptop,Windows 10,Chrome 138.0.0.0,1600x900,1600x765,Temporal Distance Task,cb_05,64.0,temp_dist_trial,num_items,zn7si1,1.0,response,1_ITEM,1015.4000000001396,1000.2999999999884,1015.4000000001396,1015.4000000001396,1000.2999999999884,1015.4000000001396,1.0,0.0,0.0,,Click Response,1_count,3.0,object-46,temp_dist_trial,16.0,t_i_17_1,travel_Iceland,binoculars,5.0,unique,paired,t_i_17_1.jpg,Travel,,,sub-44
Desktop or Laptop,Windows 10,Chrome 138.0.0.0,1600x900,1600x765,Temporal Distance Task,cb_05,65.0,temp_dist_trial,num_items,zn7si1,1.0,response,2_ITEM,1407.0999999999767,1400.0999999999767,1407.0999999999767,1407.0999999999767,1400.0999999999767,1407.0999999999767,1.0,0.0,0.0,,Click Response,2_count,5.0,object-49,temp_dist_trial,17.0,t_s_18_1,travel_shared,first aid kit,5.0,competing,paired,t_s_18_1.jpg,Travel,,,sub-44
Desktop or Laptop,Windows 10,Chrome 138.0.0.0,1600x900,1600x765,Temporal Distance Task,cb_05,65.0,temp_dist_trial,dist_items,qkpkxw,2.0,info,,3.300000000162981,0.0,3.300000000162981,3.300000000162981,0.0,3.300000000162981,1.0,0.0,0.0,,Slider,Slider,4.0,object-56,temp_dist_trial,17.0,t_s_18_1,travel_shared,first aid kit,5.0,competing,paired,t_s_18_1.jpg,Travel,,,sub-44
Desktop or Laptop,Windows 10,Chrome 138.0.0.0,1600x900,1600x765,Temporal Distance Task,cb_05,65.0,temp_dist_trial,dist_items,qkpkxw,2.0,continue,,1599.5000000001166,1583.2999999999884,1599.5000000001166,1599.5000000001166,1583.2999999999884,1599.5000000001166,1.0,0.0,0.0,,Click To Continue,Next button,7.0,object-60,temp_dist_trial,17.0,t_s_18_1,travel_shared,first aid kit,5.0,competing,paired,t_s_18_1.jpg,Travel,,,sub-44
Desktop or Laptop,Windows 10,Chrome 138.0.0.0,1600x900,1600x765,Temporal Distance Task,cb_05,65.0,temp_dist_trial,dist_items,qkpkxw,2.0,response,79,600.1999999999534,1583.2999999999884,1599.9000000000233,600.1999999999534,1583.2999999999884,1599.9000000000233,1.0,999.7000000000696,0.0,,Slider,Slider,4.0,object-56,temp_dist_trial,17.0,t_s_18_1,travel_shared,first aid kit,5.0,competing,paired,t_s_18_1.jpg,Travel,,,sub-44
Desktop or Laptop,Windows 10,Chrome 138.0.0.0,1600x900,1600x765,Temporal Distance Task,cb_05,66.0,temp_dist_trial,num_items,zn7si1,1.0,response,1_ITEM,868.2999999999884,866.5999999999768,868.2999999999884,868.2999999999884,866.5999999999768,868.2999999999884,1.0,0.0,0.0,,Click Response,1_count,3.0,object-46,temp_dist_trial,18.0,t_i_11_1,travel_Iceland,headlamp,5.0,unique,paired,t_i_11_1.jpg,Travel,,,sub-44
Desktop or Laptop,Windows 10,Chrome 138.0.0.0,1600x900,1600x765,Temporal Distance Task,cb_05,67.0,temp_dist_trial,num_items,zn7si1,1.0,response,2_ITEM,852.800000000163,850.0,852.800000000163,852.800000000163,850.0,852.800000000163,1.0,0.0,0.0,,Click Response,2_count,5.0,object-49,temp_dist_trial,19.0,t_s_04_1,travel_shared,instant camera,5.0,competing,paired,t_s_04_1.jpg,Travel,,,sub-44
Desktop or Laptop,Windows 10,Chrome 138.0.0.0,1600x900,1600x765,Temporal Distance Task,cb_05,67.0,temp_dist_trial,dist_items,qkpkxw,2.0,info,,4.400000000023283,0.0,4.400000000023283,4.400000000023283,0.0,4.400000000023283,1.0,0.0,0.0,,Slider,Slider,4.0,object-56,temp_dist_trial,19.0,t_s_04_1,travel_shared,instant camera,5.0,competing,paired,t_s_04_1.jpg,Travel,,,sub-44
Desktop or Laptop,Windows 10,Chrome 138.0.0.0,1600x900,1600x765,Temporal Distance Task,cb_05,67.0,temp_dist_trial,dist_items,qkpkxw,2.0,continue,,2107.800000000163,2099.700000000012,2107.800000000163,2107.800000000163,2099.700000000012,2107.800000000163,1.0,0.0,0.0,,Click To Continue,Next button,7.0,object-60,temp_dist_trial,19.0,t_s_04_1,travel_shared,instant camera,5.0,competing,paired,t_s_04_1.jpg,Travel,,,sub-44
Desktop or Laptop,Windows 10,Chrome 138.0.0.0,1600x900,1600x765,Temporal Distance Task,cb_05,67.0,temp_dist_trial,dist_items,qkpkxw,2.0,response,33,616.5,2099.700000000012,2108.5000000001164,616.5,2099.700000000012,2108.5000000001164,1.0,1492.0000000001166,0.0,,Slider,Slider,4.0,object-56,temp_dist_trial,19.0,t_s_04_1,travel_shared,instant camera,5.0,competing,paired,t_s_04_1.jpg,Travel,,,sub-44
Desktop or Laptop,Windows 10,Chrome 138.0.0.0,1600x900,1600x765,Temporal Distance Task,cb_05,68.0,temp_dist_trial,num_items,zn7si1,1.0,response,1_ITEM,2404.000000000058,2400.100000000035,2404.000000000058,2404.000000000058,2400.100000000035,2404.000000000058,1.0,0.0,0.0,,Click Response,1_count,3.0,object-46,temp_dist_trial,20.0,t_i_12_1,travel_Iceland,tent,5.0,unique,paired,t_i_12_1.jpg,Travel,,,sub-44
Desktop or Laptop,Windows 10,Chrome 138.0.0.0,1600x900,1600x765,Temporal Distance Task,cb_05,69.0,temp_dist_trial,num_items,zn7si1,1.0,response,1_ITEM,676.300000000163,666.6999999999534,676.300000000163,676.300000000163,666.6999999999534,676.300000000163,1.0,0.0,0.0,,Click Response,1_count,3.0,object-46,temp_dist_trial,21.0,t_i_07_1,travel_Iceland,hiking backpack,5.0,unique,paired,t_i_07_1.jpg,Travel,,,sub-44
Desktop or Laptop,Windows 10,Chrome 138.0.0.0,1600x900,1600x765,Temporal Distance Task,cb_05,70.0,temp_dist_trial,num_items,zn7si1,1.0,response,1_ITEM,2211.1000000002095,2200.0,2211.1000000002095,2211.1000000002095,2200.0,2211.1000000002095,1.0,0.0,0.0,,Click Response,1_count,3.0,object-46,temp_dist_trial,22.0,t_m_05_1,travel_Miami,sunscreen,5.0,unique,paired,t_m_05_1.jpg,Travel,,,sub-44
Desktop or Laptop,Windows 10,Chrome 138.0.0.0,1600x900,1600x765,Temporal Distance Task,cb_05,71.0,temp_dist_trial,num_items,zn7si1,1.0,response,num_miss,2999.899999999965,2999.899999999965,2999.899999999965,2999.899999999965,2999.899999999965,2999.899999999965,1.0,0.0,0.0,num_miss_tag,Time Limit,screen,0.0,screen,temp_dist_trial,23.0,t_i_01_1,travel_Iceland,gloves,5.0,unique,paired,t_i_01_1.jpg,Travel,,,sub-44
Desktop or Laptop,Windows 10,Chrome 138.0.0.0,1600x900,1600x765,Temporal Distance Task,cb_05,72.0,temp_dist_trial,num_items,zn7si1,1.0,response,1_ITEM,997.5000000001164,983.1000000000348,997.5000000001164,997.5000000001164,983.1000000000348,997.5000000001164,1.0,0.0,0.0,,Click Response,1_count,3.0,object-46,temp_dist_trial,24.0,t_m_17_1,travel_Miami,water gun,5.0,unique,single,t_m_17_1.jpg,Travel,,,sub-44
Desktop or Laptop,Windows 10,Chrome 138.0.0.0,1600x900,1600x765,Temporal Distance Task,cb_05,73.0,temp_dist_trial,num_items,zn7si1,1.0,response,2_ITEM,902.6000000000348,900.0,902.6000000000348,902.6000000000348,900.0,902.6000000000348,1.0,0.0,0.0,,Click Response,2_count,5.0,object-49,temp_dist_trial,25.0,t_s_03_1,travel_shared,portable charger,5.0,competing,single,t_s_03_1.jpg,Travel,,,sub-44
Desktop or Laptop,Windows 10,Chrome 138.0.0.0,1600x900,1600x765,Temporal Distance Task,cb_05,73.0,temp_dist_trial,dist_items,qkpkxw,2.0,info,,5.200000000128056,0.0,5.200000000128056,5.200000000128056,0.0,5.200000000128056,1.0,0.0,0.0,,Slider,Slider,4.0,object-56,temp_dist_trial,25.0,t_s_03_1,travel_shared,portable charger,5.0,competing,single,t_s_03_1.jpg,Travel,,,sub-44
Desktop or Laptop,Windows 10,Chrome 138.0.0.0,1600x900,1600x765,Temporal Distance Task,cb_05,73.0,temp_dist_trial,dist_items,qkpkxw,2.0,continue,,1513.2999999999884,1499.8999999999646,1513.2999999999884,1513.2999999999884,1499.8999999999646,1513.2999999999884,1.0,0.0,0.0,,Click To Continue,Next button,7.0,object-60,temp_dist_trial,25.0,t_s_03_1,travel_shared,portable charger,5.0,competing,single,t_s_03_1.jpg,Travel,,,sub-44
Desktop or Laptop,Windows 10,Chrome 138.0.0.0,1600x900,1600x765,Temporal Distance Task,cb_05,73.0,temp_dist_trial,dist_items,qkpkxw,2.0,response,28,566.8999999999653,1499.8999999999646,1516.1000000000354,566.8999999999653,1499.8999999999646,1516.1000000000354,1.0,949.2000000000696,0.0,,Slider,Slider,4.0,object-56,temp_dist_trial,25.0,t_s_03_1,travel_shared,portable charger,5.0,competing,single,t_s_03_1.jpg,Travel,,,sub-44
Desktop or Laptop,Windows 10,Chrome 138.0.0.0,1600x900,1600x765,Temporal Distance Task,cb_05,74.0,temp_dist_trial,num_items,zn7si1,1.0,response,1_ITEM,911.4000000000232,900.2000000000116,911.4000000000232,911.4000000000232,900.2000000000116,911.4000000000232,1.0,0.0,0.0,,Click Response,1_count,3.0,object-46,temp_dist_trial,26.0,t_i_06_1,travel_Iceland,knit hat,5.0,unique,paired,t_i_06_1.jpg,Travel,,,sub-44
Desktop or Laptop,Windows 10,Chrome 138.0.0.0,1600x900,1600x765,Temporal Distance Task,cb_05,75.0,temp_dist_trial,num_items,zn7si1,1.0,response,1_ITEM,882.800000000163,866.7000000000116,882.800000000163,882.800000000163,866.7000000000116,882.800000000163,1.0,0.0,0.0,,Click Response,1_count,3.0,object-46,temp_dist_trial,27.0,t_m_01_1,travel_Miami,sandals,5.0,unique,single,t_m_01_1.jpg,Travel,,,sub-44
Desktop or Laptop,Windows 10,Chrome 138.0.0.0,1600x900,1600x765,Temporal Distance Task,cb_05,76.0,temp_dist_trial,num_items,zn7si1,1.0,response,2_ITEM,1528.7000000000698,1516.6999999999537,1528.7000000000698,1528.7000000000698,1516.6999999999537,1528.7000000000698,1.0,0.0,0.0,,Click Response,2_count,5.0,object-49,temp_dist_trial,28.0,t_s_15_1,travel_shared,luggage tag,5.0,competing,paired,t_s_15_1.jpg,Travel,,,sub-44
Desktop or Laptop,Windows 10,Chrome 138.0.0.0,1600x900,1600x765,Temporal Distance Task,cb_05,76.0,temp_dist_trial,dist_items,qkpkxw,2.0,info,,4.800000000046566,0.0,4.800000000046566,4.800000000046566,0.0,4.800000000046566,1.0,0.0,0.0,,Slider,Slider,4.0,object-56,temp_dist_trial,28.0,t_s_15_1,travel_shared,luggage tag,5.0,competing,paired,t_s_15_1.jpg,Travel,,,sub-44
Desktop or Laptop,Windows 10,Chrome 138.0.0.0,1600x900,1600x765,Temporal Distance Task,cb_05,76.0,temp_dist_trial,dist_items,qkpkxw,2.0,continue,,1477.3000000000463,1467.0,1477.3000000000463,1477.3000000000463,1467.0,1477.3000000000463,1.0,0.0,0.0,,Click To Continue,Next button,7.0,object-60,temp_dist_trial,28.0,t_s_15_1,travel_shared,luggage tag,5.0,competing,paired,t_s_15_1.jpg,Travel,,,sub-44
Desktop or Laptop,Windows 10,Chrome 138.0.0.0,1600x900,1600x765,Temporal Distance Task,cb_05,76.0,temp_dist_trial,dist_items,qkpkxw,2.0,response,15,533.2999999999884,1467.0,1477.6000000000934,533.2999999999884,1467.0,1477.6000000000934,1.0,944.3000000001047,0.0,,Slider,Slider,4.0,object-56,temp_dist_trial,28.0,t_s_15_1,travel_shared,luggage tag,5.0,competing,paired,t_s_15_1.jpg,Travel,,,sub-44
Desktop or Laptop,Windows 10,Chrome 138.0.0.0,1600x900,1600x765,Temporal Distance Task,cb_05,77.0,temp_dist_trial,num_items,zn7si1,1.0,response,1_ITEM,1082.2000000001863,1066.5999999999767,1082.2000000001863,1082.2000000001863,1066.5999999999767,1082.2000000001863,1.0,0.0,0.0,,Click Response,1_count,3.0,object-46,temp_dist_trial,29.0,t_s_02_1,travel_shared,water bottle,5.0,competing,single,t_s_02_1.jpg,Travel,,,sub-44
Desktop or Laptop,Windows 10,Chrome 138.0.0.0,1600x900,1600x765,Temporal Distance Task,cb_05,78.0,temp_dist_trial,num_items,zn7si1,1.0,response,1_ITEM,918.7000000000696,916.5,918.7000000000696,918.7000000000696,916.5,918.7000000000696,1.0,0.0,0.0,,Click Response,1_count,3.0,object-46,temp_dist_trial,30.0,t_m_11_1,travel_Miami,collapsible beach chair,5.0,unique,paired,t_m_11_1.jpg,Travel,,,sub-44
Desktop or Laptop,Windows 10,Chrome 138.0.0.0,1600x900,1600x765,Temporal Distance Task,cb_05,79.0,temp_dist_trial,num_items,zn7si1,1.0,response,2_ITEM,1018.400000000198,1016.4000000000232,1018.400000000198,1018.400000000198,1016.4000000000232,1018.400000000198,1.0,0.0,0.0,,Click Response,2_count,5.0,object-49,temp_dist_trial,31.0,t_s_22_1,travel_shared,belt,5.0,competing,paired,t_s_22_1.jpg,Travel,,,sub-44
Desktop or Laptop,Windows 10,Chrome 138.0.0.0,1600x900,1600x765,Temporal Distance Task,cb_05,79.0,temp_dist_trial,dist_items,qkpkxw,2.0,info,,3.9000000000814894,0.0,3.9000000000814894,3.9000000000814894,0.0,3.9000000000814894,1.0,0.0,0.0,,Slider,Slider,4.0,object-56,temp_dist_trial,31.0,t_s_22_1,travel_shared,belt,5.0,competing,paired,t_s_22_1.jpg,Travel,,,sub-44
Desktop or Laptop,Windows 10,Chrome 138.0.0.0,1600x900,1600x765,Temporal Distance Task,cb_05,79.0,temp_dist_trial,dist_items,qkpkxw,2.0,continue,,2010.5000000001746,1999.5,2010.5000000001746,2010.5000000001746,1999.5,2010.5000000001746,1.0,0.0,0.0,,Click To Continue,Next button,7.0,object-60,temp_dist_trial,31.0,t_s_22_1,travel_shared,belt,5.0,competing,paired,t_s_22_1.jpg,Travel,,,sub-44
Desktop or Laptop,Windows 10,Chrome 138.0.0.0,1600x900,1600x765,Temporal Distance Task,cb_05,79.0,temp_dist_trial,dist_items,qkpkxw,2.0,response,66,599.5999999999767,1999.5,2014.7999999999884,599.5999999999767,1999.5,2014.7999999999884,1.0,1415.2000000000116,0.0,,Slider,Slider,4.0,object-56,temp_dist_trial,31.0,t_s_22_1,travel_shared,belt,5.0,competing,paired,t_s_22_1.jpg,Travel,,,sub-44
Desktop or Laptop,Windows 10,Chrome 138.0.0.0,1600x900,1600x765,Temporal Distance Task,cb_05,80.0,temp_dist_trial,num_items,zn7si1,1.0,response,2_ITEM,1203.4000000000815,1200.2000000000114,1203.4000000000815,1203.4000000000815,1200.2000000000114,1203.4000000000815,1.0,0.0,0.0,,Click Response,2_count,5.0,object-49,temp_dist_trial,32.0,t_s_24_1,travel_shared,ear plugs,5.0,competing,paired,t_s_24_1.jpg,Travel,,,sub-44
Desktop or Laptop,Windows 10,Chrome 138.0.0.0,1600x900,1600x765,Temporal Distance Task,cb_05,80.0,temp_dist_trial,dist_items,qkpkxw,2.0,info,,4.099999999976717,0.0,4.099999999976717,4.099999999976717,0.0,4.099999999976717,1.0,0.0,0.0,,Slider,Slider,4.0,object-56,temp_dist_trial,32.0,t_s_24_1,travel_shared,ear plugs,5.0,competing,paired,t_s_24_1.jpg,Travel,,,sub-44
Desktop or Laptop,Windows 10,Chrome 138.0.0.0,1600x900,1600x765,Temporal Distance Task,cb_05,80.0,temp_dist_trial,dist_items,qkpkxw,2.0,continue,,1372.0999999999767,1366.6999999999534,1372.0999999999767,1372.0999999999767,1366.6999999999534,1372.0999999999767,1.0,0.0,0.0,,Click To Continue,Next button,7.0,object-60,temp_dist_trial,32.0,t_s_24_1,travel_shared,ear plugs,5.0,competing,paired,t_s_24_1.jpg,Travel,,,sub-44
Desktop or Laptop,Windows 10,Chrome 138.0.0.0,1600x900,1600x765,Temporal Distance Task,cb_05,80.0,temp_dist_trial,dist_items,qkpkxw,2.0,response,34,533.2999999999884,1366.6999999999534,1372.5000000001164,533.2999999999884,1366.6999999999534,1372.5000000001164,1.0,839.2000000001282,0.0,,Slider,Slider,4.0,object-56,temp_dist_trial,32.0,t_s_24_1,travel_shared,ear plugs,5.0,competing,paired,t_s_24_1.jpg,Travel,,,sub-44
Desktop or Laptop,Windows 10,Chrome 138.0.0.0,1600x900,1600x765,Temporal Distance Task,cb_05,81.0,temp_dist_trial,num_items,zn7si1,1.0,response,1_ITEM,1206.300000000163,1199.7000000000114,1206.300000000163,1206.300000000163,1199.7000000000114,1206.300000000163,1.0,0.0,0.0,,Click Response,1_count,3.0,object-46,temp_dist_trial,33.0,t_s_09_1,travel_shared,wallet,5.0,competing,single,t_s_09_1.jpg,Travel,,,sub-44
Desktop or Laptop,Windows 10,Chrome 138.0.0.0,1600x900,1600x765,Temporal Distance Task,cb_05,82.0,temp_dist_trial,num_items,zn7si1,1.0,response,1_ITEM,847.0999999999768,833.1999999999533,847.0999999999768,847.0999999999768,833.1999999999533,847.0999999999768,1.0,0.0,0.0,,Click Response,1_count,3.0,object-46,temp_dist_trial,34.0,t_i_15_1,travel_Iceland,compass,5.0,unique,single,t_i_15_1.jpg,Travel,,,sub-44
Desktop or Laptop,Windows 10,Chrome 138.0.0.0,1600x900,1600x765,Temporal Distance Task,cb_05,83.0,temp_dist_trial,num_items,zn7si1,1.0,response,1_ITEM,1069.4000000001981,1066.5,1069.4000000001981,1069.4000000001981,1066.5,1069.4000000001981,1.0,0.0,0.0,,Click Response,1_count,3.0,object-46,temp_dist_trial,35.0,t_m_13_1,travel_Miami,floatie,5.0,unique,paired,t_m_13_1.jpg,Travel,,,sub-44
Desktop or Laptop,Windows 10,Chrome 138.0.0.0,1600x900,1600x765,Temporal Distance Task,cb_05,84.0,temp_dist_trial,num_items,zn7si1,1.0,response,num_miss,2999.7999999999884,2999.7999999999884,2999.7999999999884,2999.7999999999884,2999.7999999999884,2999.7999999999884,1.0,0.0,0.0,num_miss_tag,Time Limit,screen,0.0,screen,temp_dist_trial,36.0,t_i_05_1,travel_Iceland,hiking boots,5.0,unique,single,t_i_05_1.jpg,Travel,,,sub-44
Desktop or Laptop,Windows 10,Chrome 138.0.0.0,1600x900,1600x765,Temporal Distance Task,cb_05,85.0,temp_dist_trial,num_items,zn7si1,1.0,response,1_ITEM,59.10000000020955,50.0,59.10000000020955,59.10000000020955,50.0,59.10000000020955,1.0,0.0,0.0,,Click Response,1_count,3.0,object-46,temp_dist_trial,37.0,t_i_09_1,travel_Iceland,ear muffs,5.0,unique,single,t_i_09_1.jpg,Travel,,,sub-44
Desktop or Laptop,Windows 10,Chrome 138.0.0.0,1600x900,1600x765,Temporal Distance Task,cb_05,86.0,temp_dist_trial,num_items,zn7si1,1.0,response,2_ITEM,2579.400000000081,2566.899999999965,2579.400000000081,2579.400000000081,2566.899999999965,2579.400000000081,1.0,0.0,0.0,,Click Response,2_count,5.0,object-49,temp_dist_trial,38.0,t_s_08_1,travel_shared,hand lotion,5.0,competing,paired,t_s_08_1.jpg,Travel,,,sub-44
Desktop or Laptop,Windows 10,Chrome 138.0.0.0,1600x900,1600x765,Temporal Distance Task,cb_05,86.0,temp_dist_trial,dist_items,qkpkxw,2.0,info,,4.7000000000116415,0.0,4.7000000000116415,4.7000000000116415,0.0,4.7000000000116415,1.0,0.0,0.0,,Slider,Slider,4.0,object-56,temp_dist_trial,38.0,t_s_08_1,travel_shared,hand lotion,5.0,competing,paired,t_s_08_1.jpg,Travel,,,sub-44
Desktop or Laptop,Windows 10,Chrome 138.0.0.0,1600x900,1600x765,Temporal Distance Task,cb_05,86.0,temp_dist_trial,dist_items,qkpkxw,2.0,continue,,1428.9000000001981,1416.6000000000354,1428.9000000001981,1428.9000000001981,1416.6000000000354,1428.9000000001981,1.0,0.0,0.0,,Click To Continue,Next button,7.0,object-60,temp_dist_trial,38.0,t_s_08_1,travel_shared,hand lotion,5.0,competing,paired,t_s_08_1.jpg,Travel,,,sub-44
Desktop or Laptop,Windows 10,Chrome 138.0.0.0,1600x900,1600x765,Temporal Distance Task,cb_05,86.0,temp_dist_trial,dist_items,qkpkxw,2.0,response,65,550.0,1416.6000000000354,1429.4000000001981,550.0,1416.6000000000354,1429.4000000001981,1.0,879.4000000001979,0.0,,Slider,Slider,4.0,object-56,temp_dist_trial,38.0,t_s_08_1,travel_shared,hand lotion,5.0,competing,paired,t_s_08_1.jpg,Travel,,,sub-44
Desktop or Laptop,Windows 10,Chrome 138.0.0.0,1600x900,1600x765,Temporal Distance Task,cb_05,87.0,temp_dist_trial,num_items,zn7si1,1.0,response,2_ITEM,1087.300000000163,1083.5999999999767,1087.300000000163,1087.300000000163,1083.5999999999767,1087.300000000163,1.0,0.0,0.0,,Click Response,2_count,5.0,object-49,temp_dist_trial,39.0,t_s_11_1,travel_shared,eye mask,5.0,competing,paired,t_s_11_1.jpg,Travel,,,sub-44
Desktop or Laptop,Windows 10,Chrome 138.0.0.0,1600x900,1600x765,Temporal Distance Task,cb_05,87.0,temp_dist_trial,dist_items,qkpkxw,2.0,info,,4.900000000023283,0.0,4.900000000023283,4.900000000023283,0.0,4.900000000023283,1.0,0.0,0.0,,Slider,Slider,4.0,object-56,temp_dist_trial,39.0,t_s_11_1,travel_shared,eye mask,5.0,competing,paired,t_s_11_1.jpg,Travel,,,sub-44
Desktop or Laptop,Windows 10,Chrome 138.0.0.0,1600x900,1600x765,Temporal Distance Task,cb_05,87.0,temp_dist_trial,dist_items,qkpkxw,2.0,continue,,1532.9000000000815,1516.3000000000463,1532.9000000000815,1532.9000000000815,1516.3000000000463,1532.9000000000815,1.0,0.0,0.0,,Click To Continue,Next button,7.0,object-60,temp_dist_trial,39.0,t_s_11_1,travel_shared,eye mask,5.0,competing,paired,t_s_11_1.jpg,Travel,,,sub-44
Desktop or Laptop,Windows 10,Chrome 138.0.0.0,1600x900,1600x765,Temporal Distance Task,cb_05,87.0,temp_dist_trial,dist_items,qkpkxw,2.0,response,25,699.9000000000232,1516.3000000000463,1532.9000000000815,699.9000000000232,1516.3000000000463,1532.9000000000815,1.0,833.0000000000583,0.0,,Slider,Slider,4.0,object-56,temp_dist_trial,39.0,t_s_11_1,travel_shared,eye mask,5.0,competing,paired,t_s_11_1.jpg,Travel,,,sub-44
Desktop or Laptop,Windows 10,Chrome 138.0.0.0,1600x900,1600x765,Temporal Distance Task,cb_05,88.0,temp_dist_trial,num_items,zn7si1,1.0,response,1_ITEM,895.800000000163,883.5,895.800000000163,895.800000000163,883.5,895.800000000163,1.0,0.0,0.0,,Click Response,1_count,3.0,object-46,temp_dist_trial,40.0,t_m_02_1,travel_Miami,t-shirt,5.0,unique,single,t_m_02_1.jpg,Travel,,,sub-44
Desktop or Laptop,Windows 10,Chrome 138.0.0.0,1600x900,1600x765,Temporal Distance Task,cb_05,89.0,temp_dist_trial,num_items,zn7si1,1.0,response,2_ITEM,898.9000000001398,883.0999999999768,898.9000000001398,898.9000000001398,883.0999999999768,898.9000000001398,1.0,0.0,0.0,,Click Response,2_count,5.0,object-49,temp_dist_trial,41.0,t_s_23_1,travel_shared,ball cap,5.0,competing,paired,t_s_23_1.jpg,Travel,,,sub-44
Desktop or Laptop,Windows 10,Chrome 138.0.0.0,1600x900,1600x765,Temporal Distance Task,cb_05,89.0,temp_dist_trial,dist_items,qkpkxw,2.0,info,,4.600000000034925,0.0,4.600000000034925,4.600000000034925,0.0,4.600000000034925,1.0,0.0,0.0,,Slider,Slider,4.0,object-56,temp_dist_trial,41.0,t_s_23_1,travel_shared,ball cap,5.0,competing,paired,t_s_23_1.jpg,Travel,,,sub-44
Desktop or Laptop,Windows 10,Chrome 138.0.0.0,1600x900,1600x765,Temporal Distance Task,cb_05,89.0,temp_dist_trial,dist_items,qkpkxw,2.0,continue,,1721.2999999999884,1716.7000000000116,1721.2999999999884,1721.2999999999884,1716.7000000000116,1721.2999999999884,1.0,0.0,0.0,,Click To Continue,Next button,7.0,object-60,temp_dist_trial,41.0,t_s_23_1,travel_shared,ball cap,5.0,competing,paired,t_s_23_1.jpg,Travel,,,sub-44
Desktop or Laptop,Windows 10,Chrome 138.0.0.0,1600x900,1600x765,Temporal Distance Task,cb_05,89.0,temp_dist_trial,dist_items,qkpkxw,2.0,response,26,783.5,1716.7000000000116,1721.9000000000815,783.5,1716.7000000000116,1721.9000000000815,1.0,938.4000000000816,0.0,,Slider,Slider,4.0,object-56,temp_dist_trial,41.0,t_s_23_1,travel_shared,ball cap,5.0,competing,paired,t_s_23_1.jpg,Travel,,,sub-44
Desktop or Laptop,Windows 10,Chrome 138.0.0.0,1600x900,1600x765,Temporal Distance Task,cb_05,90.0,temp_dist_trial,num_items,zn7si1,1.0,response,2_ITEM,1036.4000000000233,1033.2999999999884,1036.4000000000233,1036.4000000000233,1033.2999999999884,1036.4000000000233,1.0,0.0,0.0,,Click Response,2_count,5.0,object-49,temp_dist_trial,42.0,t_s_13_1,travel_shared,contact lens case,5.0,competing,paired,t_s_13_1.jpg,Travel,,,sub-44
Desktop or Laptop,Windows 10,Chrome 138.0.0.0,1600x900,1600x765,Temporal Distance Task,cb_05,90.0,temp_dist_trial,dist_items,qkpkxw,2.0,info,,4.000000000116415,0.0,4.000000000116415,4.000000000116415,0.0,4.000000000116415,1.0,0.0,0.0,,Slider,Slider,4.0,object-56,temp_dist_trial,42.0,t_s_13_1,travel_shared,contact lens case,5.0,competing,paired,t_s_13_1.jpg,Travel,,,sub-44
Desktop or Laptop,Windows 10,Chrome 138.0.0.0,1600x900,1600x765,Temporal Distance Task,cb_05,90.0,temp_dist_trial,dist_items,qkpkxw,2.0,continue,,1228.5000000001164,1216.4000000000233,1228.5000000001164,1228.5000000001164,1216.4000000000233,1228.5000000001164,1.0,0.0,0.0,,Click To Continue,Next button,7.0,object-60,temp_dist_trial,42.0,t_s_13_1,travel_shared,contact lens case,5.0,competing,paired,t_s_13_1.jpg,Travel,,,sub-44
Desktop or Laptop,Windows 10,Chrome 138.0.0.0,1600x900,1600x765,Temporal Distance Task,cb_05,90.0,temp_dist_trial,dist_items,qkpkxw,2.0,response,42,566.5,1216.4000000000233,1233.0,566.5,1216.4000000000233,1233.0,1.0,666.5,0.0,,Slider,Slider,4.0,object-56,temp_dist_trial,42.0,t_s_13_1,travel_shared,contact lens case,5.0,competing,paired,t_s_13_1.jpg,Travel,,,sub-44
Desktop or Laptop,Windows 10,Chrome 138.0.0.0,1600x900,1600x765,Temporal Distance Task,cb_05,91.0,temp_dist_trial,num_items,zn7si1,1.0,response,1_ITEM,2878.2000000001867,2866.700000000012,2878.2000000001867,2878.2000000001867,2866.700000000012,2878.2000000001867,1.0,0.0,0.0,,Click Response,1_count,3.0,object-46,temp_dist_trial,43.0,t_s_06_1,travel_shared,luggage,5.0,competing,single,t_s_06_1.jpg,Travel,,,sub-44
Desktop or Laptop,Windows 10,Chrome 138.0.0.0,1600x900,1600x765,Temporal Distance Task,cb_05,92.0,temp_dist_trial,num_items,zn7si1,1.0,response,1_ITEM,963.0,949.5,963.0,963.0,949.5,963.0,1.0,0.0,0.0,,Click Response,1_count,3.0,object-46,temp_dist_trial,44.0,t_s_16_1,travel_shared,chapstick,5.0,competing,single,t_s_16_1.jpg,Travel,,,sub-44
Desktop or Laptop,Windows 10,Chrome 138.0.0.0,1600x900,1600x765,Temporal Distance Task,cb_05,93.0,temp_dist_trial,num_items,zn7si1,1.0,response,2_ITEM,1190.100000000035,1183.0999999999767,1190.100000000035,1190.100000000035,1183.0999999999767,1190.100000000035,1.0,0.0,0.0,,Click Response,2_count,5.0,object-49,temp_dist_trial,45.0,t_s_17_1,travel_shared,toothbrush,5.0,competing,paired,t_s_17_1.jpg,Travel,,,sub-44
Desktop or Laptop,Windows 10,Chrome 138.0.0.0,1600x900,1600x765,Temporal Distance Task,cb_05,93.0,temp_dist_trial,dist_items,qkpkxw,2.0,info,,3.4000000000814907,0.0,3.4000000000814907,3.4000000000814907,0.0,3.4000000000814907,1.0,0.0,0.0,,Slider,Slider,4.0,object-56,temp_dist_trial,45.0,t_s_17_1,travel_shared,toothbrush,5.0,competing,paired,t_s_17_1.jpg,Travel,,,sub-44
Desktop or Laptop,Windows 10,Chrome 138.0.0.0,1600x900,1600x765,Temporal Distance Task,cb_05,93.0,temp_dist_trial,dist_items,qkpkxw,2.0,continue,,1360.0000000001746,1350.0999999999767,1360.0000000001746,1360.0000000001746,1350.0999999999767,1360.0000000001746,1.0,0.0,0.0,,Click To Continue,Next button,7.0,object-60,temp_dist_trial,45.0,t_s_17_1,travel_shared,toothbrush,5.0,competing,paired,t_s_17_1.jpg,Travel,,,sub-44
Desktop or Laptop,Windows 10,Chrome 138.0.0.0,1600x900,1600x765,Temporal Distance Task,cb_05,93.0,temp_dist_trial,dist_items,qkpkxw,2.0,response,13,583.2999999999884,1350.0999999999767,1360.2999999999886,583.2999999999884,1350.0999999999767,1360.2999999999886,1.0,777.0,0.0,,Slider,Slider,4.0,object-56,temp_dist_trial,45.0,t_s_17_1,travel_shared,toothbrush,5.0,competing,paired,t_s_17_1.jpg,Travel,,,sub-44
Desktop or Laptop,Windows 10,Chrome 138.0.0.0,1600x900,1600x765,Temporal Distance Task,cb_05,94.0,temp_dist_trial,num_items,zn7si1,1.0,response,1_ITEM,1115.8000000001048,1099.9000000000233,1115.8000000001048,1115.8000000001048,1099.9000000000233,1115.8000000001048,1.0,0.0,0.0,,Click Response,1_count,3.0,object-46,temp_dist_trial,46.0,t_s_10_1,travel_shared,luggage lock,5.0,competing,paired,t_s_10_1.jpg,Travel,,,sub-44
Desktop or Laptop,Windows 10,Chrome 138.0.0.0,1600x900,1600x765,Temporal Distance Task,cb_05,95.0,temp_dist_trial,num_items,zn7si1,1.0,response,1_ITEM,869.8000000000467,866.7000000000116,869.8000000000467,869.8000000000467,866.7000000000116,869.8000000000467,1.0,0.0,0.0,,Click Response,1_count,3.0,object-46,temp_dist_trial,47.0,t_s_14_1,travel_shared,hand sanitizer,5.0,competing,single,t_s_14_1.jpg,Travel,,,sub-44
Desktop or Laptop,Windows 10,Chrome 138.0.0.0,1600x900,1600x765,Temporal Distance Task,cb_05,96.0,temp_dist_trial,num_items,zn7si1,1.0,response,1_ITEM,2485.5000000001164,2483.399999999965,2485.5000000001164,2485.5000000001164,2483.399999999965,2485.5000000001164,1.0,0.0,0.0,,Click Response,1_count,3.0,object-46,temp_dist_trial,48.0,t_m_09_1,travel_Miami,beach towel,5.0,unique,paired,t_m_09_1.jpg,Travel,,,sub-44
Desktop or Laptop,Windows 10,Chrome 138.0.0.0,1600x900,1600x765,Temporal Distance Task,$${counterbalance_group},,,,,,info,END,,,400974.0,,,,0.0,,,,,,,,,,,,,,,,,,,,sub-44
