Participant Device,Participant OS,Participant Browser,Participant Monitor Size,Participant Viewport Size,Task Name,Current Spreadsheet,Trial Number,Display,Screen,Screen ID,Screen Counter,Response Type,Response,Onset Time,Clock Time,Reaction Time,Absolute Onset Time,Absolute Clock Time,Absolute Reaction Time,Correct,Response Duration,Proportion,Tag,Component Name,Object Name,Object Number,Object ID,Spreadsheet: display,Spreadsheet: trial,Spreadsheet: stimulus_id,Spreadsheet: expected_goal,Spreadsheet: stimulus_name,Spreadsheet: c_group,Spreadsheet: condition,Spreadsheet: paired_status,Spreadsheet: stimulus_path,Spreadsheet: block_type,Manipulation: Spreadsheet,Store: enc_test_acc,sub_label
Desktop or Laptop,Windows 10,Firefox 127.0,1280x720,1280x720,Temporal Distance Task,$${counterbalance_group},,,,,,info,BEGIN,,,,,,,0.0,,,,,,,,,,,,,,,,,,,,sub-20
Desktop or Laptop,Windows 10,Firefox 127.0,1280x720,1280x720,Temporal Distance Task,cb_06,1.0,temp_instructions,intro_screen,3tnme7,1.0,continue,,4441.3600000000015,4431.299999999998,4441.3600000000015,4441.3600000000015,4431.299999999998,4441.3600000000015,1.0,0.0,0.0,,Click To Continue,Continue Button,4.0,object-29,temp_instructions,,,Travel,,,,,,,,,sub-20
Desktop or Laptop,Windows 10,Firefox 127.0,1280x720,1280x720,Temporal Distance Task,cb_06,1.0,temp_instructions,intro_screen_2,52v7ur,2.0,continue,,9905.06,9895.56,9905.06,9905.06,9895.56,9905.06,1.0,0.0,0.0,,Click To Continue,Continue Button,4.0,object-39,temp_instructions,,,Travel,,,,,,,,,sub-20
Desktop or Laptop,Windows 10,Firefox 127.0,1280x720,1280x720,Temporal Distance Task,cb_06,1.0,temp_instructions,intro_screen_3,i7lvwx,3.0,continue,,2744.5,2732.0999999999985,2744.5,2744.5,2732.0999999999985,2744.5,1.0,0.0,0.0,,Click To Continue,Continue Button,4.0,object-67,temp_instructions,,,Travel,,,,,,,,,sub-20
Desktop or Laptop,Windows 10,Firefox 127.0,1280x720,1280x720,Temporal Distance Task,cb_06,1.0,temp_instructions,test_q1,5ieqx1,4.0,response,choice_3,3940.400000000001,3931.5600000000013,3940.400000000001,3940.400000000001,3931.5600000000013,3940.400000000001,1.0,0.0,0.0,,Click Response,choice_3,5.0,object-345,temp_instructions,,,Travel,,,,,,,,,sub-20
Desktop or Laptop,Windows 10,Firefox 127.0,1280x720,1280x720,Temporal Distance Task,cb_06,1.0,temp_instructions,score_corr,7ilvjr,5.0,continue,,1434.84,1432.6399999999994,1434.84,1434.84,1432.6399999999994,1434.84,1.0,0.0,0.0,,Click To Continue,Continue Button,3.0,object-23,temp_instructions,,,Travel,,,,,,,,,sub-20
Desktop or Laptop,Windows 10,Firefox 127.0,1280x720,1280x720,Temporal Distance Task,cb_06,1.0,temp_eventStart,Screen 1,dgtyxe,1.0,continue,,1575.2000000000005,1565.8600000000006,1575.2000000000005,1575.2000000000005,1565.8600000000006,1575.2000000000005,1.0,0.0,0.0,,Click To Continue,Next Button,3.0,object-43,temp_eventStart,,,Travel,,,,,,,,,sub-20
Desktop or Laptop,Windows 10,Firefox 127.0,1280x720,1280x720,Temporal Distance Task,cb_06,1.0,temp_dist_trial,num_items,zn7si1,1.0,response,2_ITEM,1682.34,1666.0600000000013,1682.34,1682.34,1666.0600000000013,1682.34,1.0,0.0,0.0,,Click Response,2_count,5.0,object-49,temp_dist_trial,1.0,t_i_05_1,travel_Iceland,hiking boots,6.0,unique,single,t_i_05_1.jpg,Travel,,,sub-20
Desktop or Laptop,Windows 10,Firefox 127.0,1280x720,1280x720,Temporal Distance Task,cb_06,1.0,temp_dist_trial,dist_items,qkpkxw,2.0,info,,6.4799999999995626,0.0,6.4799999999995626,6.4799999999995626,0.0,6.4799999999995626,1.0,0.0,0.0,,Slider,Slider,4.0,object-56,temp_dist_trial,1.0,t_i_05_1,travel_Iceland,hiking boots,6.0,unique,single,t_i_05_1.jpg,Travel,,,sub-20
Desktop or Laptop,Windows 10,Firefox 127.0,1280x720,1280x720,Temporal Distance Task,cb_06,1.0,temp_dist_trial,dist_items,qkpkxw,2.0,continue,,3454.48,3448.360000000001,3454.48,3454.48,3448.360000000001,3454.48,1.0,0.0,0.0,,Click To Continue,Next button,7.0,object-60,temp_dist_trial,1.0,t_i_05_1,travel_Iceland,hiking boots,6.0,unique,single,t_i_05_1.jpg,Travel,,,sub-20
Desktop or Laptop,Windows 10,Firefox 127.0,1280x720,1280x720,Temporal Distance Task,cb_06,1.0,temp_dist_trial,dist_items,qkpkxw,2.0,response,58,1199.579999999998,3448.360000000001,3454.48,1199.579999999998,3448.360000000001,3454.48,1.0,2254.900000000001,0.0,,Slider,Slider,4.0,object-56,temp_dist_trial,1.0,t_i_05_1,travel_Iceland,hiking boots,6.0,unique,single,t_i_05_1.jpg,Travel,,,sub-20
Desktop or Laptop,Windows 10,Firefox 127.0,1280x720,1280x720,Temporal Distance Task,cb_06,2.0,temp_dist_trial,num_items,zn7si1,1.0,response,1_ITEM,1269.119999999999,1266.1000000000022,1269.119999999999,1269.119999999999,1266.1000000000022,1269.119999999999,1.0,0.0,0.0,,Click Response,1_count,3.0,object-46,temp_dist_trial,2.0,t_s_18_1,travel_shared,first aid kit,6.0,competing,single,t_s_18_1.jpg,Travel,,,sub-20
Desktop or Laptop,Windows 10,Firefox 127.0,1280x720,1280x720,Temporal Distance Task,cb_06,3.0,temp_dist_trial,num_items,zn7si1,1.0,response,1_ITEM,2336.0999999999985,2332.3399999999965,2336.0999999999985,2336.0999999999985,2332.3399999999965,2336.0999999999985,1.0,0.0,0.0,,Click Response,1_count,3.0,object-46,temp_dist_trial,3.0,t_s_13_1,travel_shared,contact lens case,6.0,competing,paired,t_s_13_1.jpg,Travel,,,sub-20
Desktop or Laptop,Windows 10,Firefox 127.0,1280x720,1280x720,Temporal Distance Task,cb_06,4.0,temp_dist_trial,num_items,zn7si1,1.0,response,2_ITEM,2722.8399999999965,2715.359999999993,2722.8399999999965,2722.8399999999965,2715.359999999993,2722.8399999999965,1.0,0.0,0.0,,Click Response,2_count,5.0,object-49,temp_dist_trial,4.0,t_i_11_1,travel_Iceland,headlamp,6.0,unique,paired,t_i_11_1.jpg,Travel,,,sub-20
Desktop or Laptop,Windows 10,Firefox 127.0,1280x720,1280x720,Temporal Distance Task,cb_06,4.0,temp_dist_trial,dist_items,qkpkxw,2.0,info,,6.5599999999976735,0.0,6.5599999999976735,6.5599999999976735,0.0,6.5599999999976735,1.0,0.0,0.0,,Slider,Slider,4.0,object-56,temp_dist_trial,4.0,t_i_11_1,travel_Iceland,headlamp,6.0,unique,paired,t_i_11_1.jpg,Travel,,,sub-20
Desktop or Laptop,Windows 10,Firefox 127.0,1280x720,1280x720,Temporal Distance Task,cb_06,4.0,temp_dist_trial,dist_items,qkpkxw,2.0,continue,,3678.5599999999977,3665.0,3678.5599999999977,3678.5599999999977,3665.0,3678.5599999999977,1.0,0.0,0.0,,Click To Continue,Next button,7.0,object-60,temp_dist_trial,4.0,t_i_11_1,travel_Iceland,headlamp,6.0,unique,paired,t_i_11_1.jpg,Travel,,,sub-20
Desktop or Laptop,Windows 10,Firefox 127.0,1280x720,1280x720,Temporal Distance Task,cb_06,4.0,temp_dist_trial,dist_items,qkpkxw,2.0,response,33,1282.739999999998,3665.0,3679.5599999999977,1282.739999999998,3665.0,3679.5599999999977,1.0,2396.82,0.0,,Slider,Slider,4.0,object-56,temp_dist_trial,4.0,t_i_11_1,travel_Iceland,headlamp,6.0,unique,paired,t_i_11_1.jpg,Travel,,,sub-20
Desktop or Laptop,Windows 10,Firefox 127.0,1280x720,1280x720,Temporal Distance Task,cb_06,5.0,temp_dist_trial,num_items,zn7si1,1.0,response,2_ITEM,2277.5599999999977,2265.5999999999985,2277.5599999999977,2277.5599999999977,2265.5999999999985,2277.5599999999977,1.0,0.0,0.0,,Click Response,2_count,5.0,object-49,temp_dist_trial,5.0,t_s_07_1,travel_shared,phone charger cable,6.0,competing,single,t_s_07_1.jpg,Travel,,,sub-20
Desktop or Laptop,Windows 10,Firefox 127.0,1280x720,1280x720,Temporal Distance Task,cb_06,5.0,temp_dist_trial,dist_items,qkpkxw,2.0,info,,5.059999999997672,0.0,5.059999999997672,5.059999999997672,0.0,5.059999999997672,1.0,0.0,0.0,,Slider,Slider,4.0,object-56,temp_dist_trial,5.0,t_s_07_1,travel_shared,phone charger cable,6.0,competing,single,t_s_07_1.jpg,Travel,,,sub-20
Desktop or Laptop,Windows 10,Firefox 127.0,1280x720,1280x720,Temporal Distance Task,cb_06,5.0,temp_dist_trial,dist_items,qkpkxw,2.0,continue,,1665.959999999992,1649.2999999999954,1665.959999999992,1665.959999999992,1649.2999999999954,1665.959999999992,1.0,0.0,0.0,,Click To Continue,Next button,7.0,object-60,temp_dist_trial,5.0,t_s_07_1,travel_shared,phone charger cable,6.0,competing,single,t_s_07_1.jpg,Travel,,,sub-20
Desktop or Laptop,Windows 10,Firefox 127.0,1280x720,1280x720,Temporal Distance Task,cb_06,5.0,temp_dist_trial,dist_items,qkpkxw,2.0,response,60,733.0599999999977,1649.2999999999954,1665.959999999992,733.0599999999977,1649.2999999999954,1665.959999999992,1.0,932.8999999999942,0.0,,Slider,Slider,4.0,object-56,temp_dist_trial,5.0,t_s_07_1,travel_shared,phone charger cable,6.0,competing,single,t_s_07_1.jpg,Travel,,,sub-20
Desktop or Laptop,Windows 10,Firefox 127.0,1280x720,1280x720,Temporal Distance Task,cb_06,6.0,temp_dist_trial,num_items,zn7si1,1.0,response,2_ITEM,1216.0599999999977,1199.4000000000015,1216.0599999999977,1216.0599999999977,1199.4000000000015,1216.0599999999977,1.0,0.0,0.0,,Click Response,2_count,5.0,object-49,temp_dist_trial,6.0,t_i_12_1,travel_Iceland,tent,6.0,unique,paired,t_i_12_1.jpg,Travel,,,sub-20
Desktop or Laptop,Windows 10,Firefox 127.0,1280x720,1280x720,Temporal Distance Task,cb_06,6.0,temp_dist_trial,dist_items,qkpkxw,2.0,info,,5.440000000002328,0.0,5.440000000002328,5.440000000002328,0.0,5.440000000002328,1.0,0.0,0.0,,Slider,Slider,4.0,object-56,temp_dist_trial,6.0,t_i_12_1,travel_Iceland,tent,6.0,unique,paired,t_i_12_1.jpg,Travel,,,sub-20
Desktop or Laptop,Windows 10,Firefox 127.0,1280x720,1280x720,Temporal Distance Task,cb_06,6.0,temp_dist_trial,dist_items,qkpkxw,2.0,continue,,2151.4400000000023,2149.0,2151.4400000000023,2151.4400000000023,2149.0,2151.4400000000023,1.0,0.0,0.0,,Click To Continue,Next button,7.0,object-60,temp_dist_trial,6.0,t_i_12_1,travel_Iceland,tent,6.0,unique,paired,t_i_12_1.jpg,Travel,,,sub-20
Desktop or Laptop,Windows 10,Firefox 127.0,1280x720,1280x720,Temporal Distance Task,cb_06,6.0,temp_dist_trial,dist_items,qkpkxw,2.0,response,34,1066.1800000000003,2149.0,2152.4400000000023,1066.1800000000003,2149.0,2152.4400000000023,1.0,1086.260000000002,0.0,,Slider,Slider,4.0,object-56,temp_dist_trial,6.0,t_i_12_1,travel_Iceland,tent,6.0,unique,paired,t_i_12_1.jpg,Travel,,,sub-20
Desktop or Laptop,Windows 10,Firefox 127.0,1280x720,1280x720,Temporal Distance Task,cb_06,7.0,temp_dist_trial,num_items,zn7si1,1.0,response,1_ITEM,1354.4400000000023,1349.4599999999991,1354.4400000000023,1354.4400000000023,1349.4599999999991,1354.4400000000023,1.0,0.0,0.0,,Click Response,1_count,3.0,object-46,temp_dist_trial,7.0,t_m_02_1,travel_Miami,t-shirt,6.0,unique,single,t_m_02_1.jpg,Travel,,,sub-20
Desktop or Laptop,Windows 10,Firefox 127.0,1280x720,1280x720,Temporal Distance Task,cb_06,8.0,temp_dist_trial,num_items,zn7si1,1.0,response,2_ITEM,1747.0800000000015,1732.5,1747.0800000000015,1747.0800000000015,1732.5,1747.0800000000015,1.0,0.0,0.0,,Click Response,2_count,5.0,object-49,temp_dist_trial,8.0,t_s_19_1,travel_shared,pajamas,6.0,competing,paired,t_s_19_1.jpg,Travel,,,sub-20
Desktop or Laptop,Windows 10,Firefox 127.0,1280x720,1280x720,Temporal Distance Task,cb_06,8.0,temp_dist_trial,dist_items,qkpkxw,2.0,info,,5.6600000000034925,0.0,5.6600000000034925,5.6600000000034925,0.0,5.6600000000034925,1.0,0.0,0.0,,Slider,Slider,4.0,object-56,temp_dist_trial,8.0,t_s_19_1,travel_shared,pajamas,6.0,competing,paired,t_s_19_1.jpg,Travel,,,sub-20
Desktop or Laptop,Windows 10,Firefox 127.0,1280x720,1280x720,Temporal Distance Task,cb_06,8.0,temp_dist_trial,dist_items,qkpkxw,2.0,continue,,1964.6600000000033,1949.1000000000056,1964.6600000000033,1964.6600000000033,1949.1000000000056,1964.6600000000033,1.0,0.0,0.0,,Click To Continue,Next button,7.0,object-60,temp_dist_trial,8.0,t_s_19_1,travel_shared,pajamas,6.0,competing,paired,t_s_19_1.jpg,Travel,,,sub-20
Desktop or Laptop,Windows 10,Firefox 127.0,1280x720,1280x720,Temporal Distance Task,cb_06,8.0,temp_dist_trial,dist_items,qkpkxw,2.0,response,33,1032.7400000000052,1949.1000000000056,1964.6600000000033,1032.7400000000052,1949.1000000000056,1964.6600000000033,1.0,931.9199999999984,0.0,,Slider,Slider,4.0,object-56,temp_dist_trial,8.0,t_s_19_1,travel_shared,pajamas,6.0,competing,paired,t_s_19_1.jpg,Travel,,,sub-20
Desktop or Laptop,Windows 10,Firefox 127.0,1280x720,1280x720,Temporal Distance Task,cb_06,9.0,temp_dist_trial,num_items,zn7si1,1.0,response,1_ITEM,2431.5599999999977,2415.5,2431.5599999999977,2431.5599999999977,2415.5,2431.5599999999977,1.0,0.0,0.0,,Click Response,1_count,3.0,object-46,temp_dist_trial,9.0,t_s_11_1,travel_shared,eye mask,6.0,competing,single,t_s_11_1.jpg,Travel,,,sub-20
Desktop or Laptop,Windows 10,Firefox 127.0,1280x720,1280x720,Temporal Distance Task,cb_06,10.0,temp_dist_trial,num_items,zn7si1,1.0,response,2_ITEM,1364.1399999999996,1349.3799999999976,1364.1399999999996,1364.1399999999996,1349.3799999999976,1364.1399999999996,1.0,0.0,0.0,,Click Response,2_count,5.0,object-49,temp_dist_trial,10.0,t_s_04_1,travel_shared,instant camera,6.0,competing,paired,t_s_04_1.jpg,Travel,,,sub-20
Desktop or Laptop,Windows 10,Firefox 127.0,1280x720,1280x720,Temporal Distance Task,cb_06,10.0,temp_dist_trial,dist_items,qkpkxw,2.0,info,,7.8399999999965075,0.0,7.8399999999965075,7.8399999999965075,0.0,7.8399999999965075,1.0,0.0,0.0,,Slider,Slider,4.0,object-56,temp_dist_trial,10.0,t_s_04_1,travel_shared,instant camera,6.0,competing,paired,t_s_04_1.jpg,Travel,,,sub-20
Desktop or Laptop,Windows 10,Firefox 127.0,1280x720,1280x720,Temporal Distance Task,cb_06,10.0,temp_dist_trial,dist_items,qkpkxw,2.0,continue,,2045.8399999999967,2032.3399999999967,2045.8399999999967,2045.8399999999967,2032.3399999999967,2045.8399999999967,1.0,0.0,0.0,,Click To Continue,Next button,7.0,object-60,temp_dist_trial,10.0,t_s_04_1,travel_shared,instant camera,6.0,competing,paired,t_s_04_1.jpg,Travel,,,sub-20
Desktop or Laptop,Windows 10,Firefox 127.0,1280x720,1280x720,Temporal Distance Task,cb_06,10.0,temp_dist_trial,dist_items,qkpkxw,2.0,response,37,1032.8599999999933,2032.3399999999967,2045.8399999999967,1032.8599999999933,2032.3399999999967,2045.8399999999967,1.0,1012.9800000000032,0.0,,Slider,Slider,4.0,object-56,temp_dist_trial,10.0,t_s_04_1,travel_shared,instant camera,6.0,competing,paired,t_s_04_1.jpg,Travel,,,sub-20
Desktop or Laptop,Windows 10,Firefox 127.0,1280x720,1280x720,Temporal Distance Task,cb_06,11.0,temp_dist_trial,num_items,zn7si1,1.0,response,1_ITEM,1373.5,1366.1399999999996,1373.5,1373.5,1366.1399999999996,1373.5,1.0,0.0,0.0,,Click Response,1_count,3.0,object-46,temp_dist_trial,11.0,t_m_20_1,travel_Miami,inflatable beachball,6.0,unique,paired,t_m_20_1.jpg,Travel,,,sub-20
Desktop or Laptop,Windows 10,Firefox 127.0,1280x720,1280x720,Temporal Distance Task,cb_06,12.0,temp_dist_trial,num_items,zn7si1,1.0,response,1_ITEM,1845.4599999999994,1832.4999999999927,1845.4599999999994,1845.4599999999994,1832.4999999999927,1845.4599999999994,1.0,0.0,0.0,,Click Response,1_count,3.0,object-46,temp_dist_trial,12.0,t_m_11_1,travel_Miami,collapsible beach chair,6.0,unique,paired,t_m_11_1.jpg,Travel,,,sub-20
Desktop or Laptop,Windows 10,Firefox 127.0,1280x720,1280x720,Temporal Distance Task,cb_06,13.0,temp_dist_trial,num_items,zn7si1,1.0,response,1_ITEM,1235.0599999999977,1232.7399999999907,1235.0599999999977,1235.0599999999977,1232.7399999999907,1235.0599999999977,1.0,0.0,0.0,,Click Response,1_count,3.0,object-46,temp_dist_trial,13.0,t_s_22_1,travel_shared,belt,6.0,competing,single,t_s_22_1.jpg,Travel,,,sub-20
Desktop or Laptop,Windows 10,Firefox 127.0,1280x720,1280x720,Temporal Distance Task,cb_06,14.0,temp_dist_trial,num_items,zn7si1,1.0,response,1_ITEM,955.4400000000024,949.5800000000016,955.4400000000024,955.4400000000024,949.5800000000016,955.4400000000024,1.0,0.0,0.0,,Click Response,1_count,3.0,object-46,temp_dist_trial,14.0,t_i_13_1,travel_Iceland,sleeping bag,6.0,unique,single,t_i_13_1.jpg,Travel,,,sub-20
Desktop or Laptop,Windows 10,Firefox 127.0,1280x720,1280x720,Temporal Distance Task,cb_06,15.0,temp_dist_trial,num_items,zn7si1,1.0,response,2_ITEM,1177.979999999996,1166.159999999989,1177.979999999996,1177.979999999996,1166.159999999989,1177.979999999996,1.0,0.0,0.0,,Click Response,2_count,5.0,object-49,temp_dist_trial,15.0,t_s_06_1,travel_shared,luggage,6.0,competing,paired,t_s_06_1.jpg,Travel,,,sub-20
Desktop or Laptop,Windows 10,Firefox 127.0,1280x720,1280x720,Temporal Distance Task,cb_06,15.0,temp_dist_trial,dist_items,qkpkxw,2.0,info,,5.0,0.0,5.0,5.0,0.0,5.0,1.0,0.0,0.0,,Slider,Slider,4.0,object-56,temp_dist_trial,15.0,t_s_06_1,travel_shared,luggage,6.0,competing,paired,t_s_06_1.jpg,Travel,,,sub-20
Desktop or Laptop,Windows 10,Firefox 127.0,1280x720,1280x720,Temporal Distance Task,cb_06,15.0,temp_dist_trial,dist_items,qkpkxw,2.0,continue,,1817.0,1815.9199999999985,1817.0,1817.0,1815.9199999999985,1817.0,1.0,0.0,0.0,,Click To Continue,Next button,7.0,object-60,temp_dist_trial,15.0,t_s_06_1,travel_shared,luggage,6.0,competing,paired,t_s_06_1.jpg,Travel,,,sub-20
Desktop or Laptop,Windows 10,Firefox 127.0,1280x720,1280x720,Temporal Distance Task,cb_06,15.0,temp_dist_trial,dist_items,qkpkxw,2.0,response,67,849.679999999993,1815.9199999999985,1817.0,849.679999999993,1815.9199999999985,1817.0,1.0,967.320000000007,0.0,,Slider,Slider,4.0,object-56,temp_dist_trial,15.0,t_s_06_1,travel_shared,luggage,6.0,competing,paired,t_s_06_1.jpg,Travel,,,sub-20
Desktop or Laptop,Windows 10,Firefox 127.0,1280x720,1280x720,Temporal Distance Task,cb_06,16.0,temp_dist_trial,num_items,zn7si1,1.0,response,1_ITEM,1609.0800000000015,1599.2799999999988,1609.0800000000015,1609.0800000000015,1599.2799999999988,1609.0800000000015,1.0,0.0,0.0,,Click Response,1_count,3.0,object-46,temp_dist_trial,16.0,t_i_09_1,travel_Iceland,ear muffs,6.0,unique,single,t_i_09_1.jpg,Travel,,,sub-20
Desktop or Laptop,Windows 10,Firefox 127.0,1280x720,1280x720,Temporal Distance Task,cb_06,17.0,temp_dist_trial,num_items,zn7si1,1.0,response,1_ITEM,1144.979999999996,1132.8000000000031,1144.979999999996,1144.979999999996,1132.8000000000031,1144.979999999996,1.0,0.0,0.0,,Click Response,1_count,3.0,object-46,temp_dist_trial,17.0,t_i_03_1,travel_Iceland,winter jacket,6.0,unique,paired,t_i_03_1.jpg,Travel,,,sub-20
Desktop or Laptop,Windows 10,Firefox 127.0,1280x720,1280x720,Temporal Distance Task,cb_06,18.0,temp_dist_trial,num_items,zn7si1,1.0,response,1_ITEM,936.2599999999948,932.9199999999984,936.2599999999948,936.2599999999948,932.9199999999984,936.2599999999948,1.0,0.0,0.0,,Click Response,1_count,3.0,object-46,temp_dist_trial,18.0,t_i_15_1,travel_Iceland,compass,6.0,unique,single,t_i_15_1.jpg,Travel,,,sub-20
Desktop or Laptop,Windows 10,Firefox 127.0,1280x720,1280x720,Temporal Distance Task,cb_06,19.0,temp_dist_trial,num_items,zn7si1,1.0,response,1_ITEM,923.4199999999984,916.1999999999972,923.4199999999984,923.4199999999984,916.1999999999972,923.4199999999984,1.0,0.0,0.0,,Click Response,1_count,3.0,object-46,temp_dist_trial,19.0,t_i_06_1,travel_Iceland,knit hat,6.0,unique,paired,t_i_06_1.jpg,Travel,,,sub-20
Desktop or Laptop,Windows 10,Firefox 127.0,1280x720,1280x720,Temporal Distance Task,cb_06,20.0,temp_dist_trial,num_items,zn7si1,1.0,response,2_ITEM,1309.3000000000031,1299.3800000000047,1309.3000000000031,1309.3000000000031,1299.3800000000047,1309.3000000000031,1.0,0.0,0.0,,Click Response,2_count,5.0,object-49,temp_dist_trial,20.0,t_s_03_1,travel_shared,portable charger,6.0,competing,paired,t_s_03_1.jpg,Travel,,,sub-20
Desktop or Laptop,Windows 10,Firefox 127.0,1280x720,1280x720,Temporal Distance Task,cb_06,20.0,temp_dist_trial,dist_items,qkpkxw,2.0,info,,5.0200000000040745,0.0,5.0200000000040745,5.0200000000040745,0.0,5.0200000000040745,1.0,0.0,0.0,,Slider,Slider,4.0,object-56,temp_dist_trial,20.0,t_s_03_1,travel_shared,portable charger,6.0,competing,paired,t_s_03_1.jpg,Travel,,,sub-20
Desktop or Laptop,Windows 10,Firefox 127.0,1280x720,1280x720,Temporal Distance Task,cb_06,20.0,temp_dist_trial,dist_items,qkpkxw,2.0,continue,,1712.020000000004,1699.1999999999966,1712.020000000004,1712.020000000004,1699.1999999999966,1712.020000000004,1.0,0.0,0.0,,Click To Continue,Next button,7.0,object-60,temp_dist_trial,20.0,t_s_03_1,travel_shared,portable charger,6.0,competing,paired,t_s_03_1.jpg,Travel,,,sub-20
Desktop or Laptop,Windows 10,Firefox 127.0,1280x720,1280x720,Temporal Distance Task,cb_06,20.0,temp_dist_trial,dist_items,qkpkxw,2.0,response,41,866.2799999999988,1699.1999999999966,1714.020000000004,866.2799999999988,1699.1999999999966,1714.020000000004,1.0,847.7400000000052,0.0,,Slider,Slider,4.0,object-56,temp_dist_trial,20.0,t_s_03_1,travel_shared,portable charger,6.0,competing,paired,t_s_03_1.jpg,Travel,,,sub-20
Desktop or Laptop,Windows 10,Firefox 127.0,1280x720,1280x720,Temporal Distance Task,cb_06,21.0,temp_dist_trial,num_items,zn7si1,1.0,response,2_ITEM,1932.4800000000105,1915.820000000007,1932.4800000000105,1932.4800000000105,1915.820000000007,1932.4800000000105,1.0,0.0,0.0,,Click Response,2_count,5.0,object-49,temp_dist_trial,21.0,t_s_24_1,travel_shared,ear plugs,6.0,competing,paired,t_s_24_1.jpg,Travel,,,sub-20
Desktop or Laptop,Windows 10,Firefox 127.0,1280x720,1280x720,Temporal Distance Task,cb_06,21.0,temp_dist_trial,dist_items,qkpkxw,2.0,info,,8.080000000001746,0.0,8.080000000001746,8.080000000001746,0.0,8.080000000001746,1.0,0.0,0.0,,Slider,Slider,4.0,object-56,temp_dist_trial,21.0,t_s_24_1,travel_shared,ear plugs,6.0,competing,paired,t_s_24_1.jpg,Travel,,,sub-20
Desktop or Laptop,Windows 10,Firefox 127.0,1280x720,1280x720,Temporal Distance Task,cb_06,21.0,temp_dist_trial,dist_items,qkpkxw,2.0,continue,,3959.0800000000013,3948.160000000005,3959.0800000000013,3959.0800000000013,3948.160000000005,3959.0800000000013,1.0,0.0,0.0,,Click To Continue,Next button,7.0,object-60,temp_dist_trial,21.0,t_s_24_1,travel_shared,ear plugs,6.0,competing,paired,t_s_24_1.jpg,Travel,,,sub-20
Desktop or Laptop,Windows 10,Firefox 127.0,1280x720,1280x720,Temporal Distance Task,cb_06,21.0,temp_dist_trial,dist_items,qkpkxw,2.0,response,36,832.9400000000023,3948.160000000005,3960.0800000000013,832.9400000000023,3948.160000000005,3960.0800000000013,1.0,3127.1399999999994,0.0,,Slider,Slider,4.0,object-56,temp_dist_trial,21.0,t_s_24_1,travel_shared,ear plugs,6.0,competing,paired,t_s_24_1.jpg,Travel,,,sub-20
Desktop or Laptop,Windows 10,Firefox 127.0,1280x720,1280x720,Temporal Distance Task,cb_06,22.0,temp_dist_trial,num_items,zn7si1,1.0,response,1_ITEM,1400.9199999999985,1399.4400000000023,1400.9199999999985,1400.9199999999985,1399.4400000000023,1400.9199999999985,1.0,0.0,0.0,,Click Response,1_count,3.0,object-46,temp_dist_trial,22.0,t_m_09_1,travel_Miami,beach towel,6.0,unique,paired,t_m_09_1.jpg,Travel,,,sub-20
Desktop or Laptop,Windows 10,Firefox 127.0,1280x720,1280x720,Temporal Distance Task,cb_06,23.0,temp_dist_trial,num_items,zn7si1,1.0,response,1_ITEM,912.7799999999988,899.6999999999971,912.7799999999988,912.7799999999988,899.6999999999971,912.7799999999988,1.0,0.0,0.0,,Click Response,1_count,3.0,object-46,temp_dist_trial,23.0,t_s_20_1,travel_shared,travel pill case,6.0,competing,single,t_s_20_1.jpg,Travel,,,sub-20
Desktop or Laptop,Windows 10,Firefox 127.0,1280x720,1280x720,Temporal Distance Task,cb_06,24.0,temp_dist_trial,num_items,zn7si1,1.0,response,1_ITEM,1059.1600000000037,1049.540000000008,1059.1600000000037,1059.1600000000037,1049.540000000008,1059.1600000000037,1.0,0.0,0.0,,Click Response,1_count,3.0,object-46,temp_dist_trial,24.0,t_m_12_1,travel_Miami,foldable pail and shovel,6.0,unique,single,t_m_12_1.jpg,Travel,,,sub-20
Desktop or Laptop,Windows 10,Firefox 127.0,1280x720,1280x720,Temporal Distance Task,cb_06,25.0,temp_dist_trial,num_items,zn7si1,1.0,response,1_ITEM,958.7200000000012,949.5599999999976,958.7200000000012,958.7200000000012,949.5599999999976,958.7200000000012,1.0,0.0,0.0,,Click Response,1_count,3.0,object-46,temp_dist_trial,25.0,t_i_07_1,travel_Iceland,hiking backpack,6.0,unique,paired,t_i_07_1.jpg,Travel,,,sub-20
Desktop or Laptop,Windows 10,Firefox 127.0,1280x720,1280x720,Temporal Distance Task,cb_06,26.0,temp_dist_trial,num_items,zn7si1,1.0,response,2_ITEM,1417.3399999999967,1416.0800000000015,1417.3399999999967,1417.3399999999967,1416.0800000000015,1417.3399999999967,1.0,0.0,0.0,,Click Response,2_count,5.0,object-49,temp_dist_trial,26.0,t_m_04_1,travel_Miami,UV jacket,6.0,unique,paired,t_m_04_1.jpg,Travel,,,sub-20
Desktop or Laptop,Windows 10,Firefox 127.0,1280x720,1280x720,Temporal Distance Task,cb_06,26.0,temp_dist_trial,dist_items,qkpkxw,2.0,info,,5.3800000000046575,0.0,5.3800000000046575,5.3800000000046575,0.0,5.3800000000046575,1.0,0.0,0.0,,Slider,Slider,4.0,object-56,temp_dist_trial,26.0,t_m_04_1,travel_Miami,UV jacket,6.0,unique,paired,t_m_04_1.jpg,Travel,,,sub-20
Desktop or Laptop,Windows 10,Firefox 127.0,1280x720,1280x720,Temporal Distance Task,cb_06,26.0,temp_dist_trial,dist_items,qkpkxw,2.0,continue,,1904.3800000000049,1899.1600000000033,1904.3800000000049,1904.3800000000049,1899.1600000000033,1904.3800000000049,1.0,0.0,0.0,,Click To Continue,Next button,7.0,object-60,temp_dist_trial,26.0,t_m_04_1,travel_Miami,UV jacket,6.0,unique,paired,t_m_04_1.jpg,Travel,,,sub-20
Desktop or Laptop,Windows 10,Firefox 127.0,1280x720,1280x720,Temporal Distance Task,cb_06,26.0,temp_dist_trial,dist_items,qkpkxw,2.0,response,41,732.9400000000023,1899.1600000000033,1905.3800000000049,732.9400000000023,1899.1600000000033,1905.3800000000049,1.0,1172.4400000000023,0.0,,Slider,Slider,4.0,object-56,temp_dist_trial,26.0,t_m_04_1,travel_Miami,UV jacket,6.0,unique,paired,t_m_04_1.jpg,Travel,,,sub-20
Desktop or Laptop,Windows 10,Firefox 127.0,1280x720,1280x720,Temporal Distance Task,cb_06,27.0,temp_dist_trial,num_items,zn7si1,1.0,response,1_ITEM,1291.2200000000012,1282.7400000000052,1291.2200000000012,1291.2200000000012,1282.7400000000052,1291.2200000000012,1.0,0.0,0.0,,Click Response,1_count,3.0,object-46,temp_dist_trial,27.0,t_i_02_1,travel_Iceland,scarf,6.0,unique,paired,t_i_02_1.jpg,Travel,,,sub-20
Desktop or Laptop,Windows 10,Firefox 127.0,1280x720,1280x720,Temporal Distance Task,cb_06,28.0,temp_dist_trial,num_items,zn7si1,1.0,response,2_ITEM,1023.5800000000016,1016.1399999999994,1023.5800000000016,1023.5800000000016,1016.1399999999994,1023.5800000000016,1.0,0.0,0.0,,Click Response,2_count,5.0,object-49,temp_dist_trial,28.0,t_s_01_1,travel_shared,fanny pack,6.0,competing,paired,t_s_01_1.jpg,Travel,,,sub-20
Desktop or Laptop,Windows 10,Firefox 127.0,1280x720,1280x720,Temporal Distance Task,cb_06,28.0,temp_dist_trial,dist_items,qkpkxw,2.0,info,,5.5200000000040745,0.0,5.5200000000040745,5.5200000000040745,0.0,5.5200000000040745,1.0,0.0,0.0,,Slider,Slider,4.0,object-56,temp_dist_trial,28.0,t_s_01_1,travel_shared,fanny pack,6.0,competing,paired,t_s_01_1.jpg,Travel,,,sub-20
Desktop or Laptop,Windows 10,Firefox 127.0,1280x720,1280x720,Temporal Distance Task,cb_06,28.0,temp_dist_trial,dist_items,qkpkxw,2.0,continue,,2588.520000000004,2582.180000000008,2588.520000000004,2588.520000000004,2582.180000000008,2588.520000000004,1.0,0.0,0.0,,Click To Continue,Next button,7.0,object-60,temp_dist_trial,28.0,t_s_01_1,travel_shared,fanny pack,6.0,competing,paired,t_s_01_1.jpg,Travel,,,sub-20
Desktop or Laptop,Windows 10,Firefox 127.0,1280x720,1280x720,Temporal Distance Task,cb_06,28.0,temp_dist_trial,dist_items,qkpkxw,2.0,response,8,733.0200000000041,2582.180000000008,2589.520000000004,733.0200000000041,2582.180000000008,2589.520000000004,1.0,1856.5,0.0,,Slider,Slider,4.0,object-56,temp_dist_trial,28.0,t_s_01_1,travel_shared,fanny pack,6.0,competing,paired,t_s_01_1.jpg,Travel,,,sub-20
Desktop or Laptop,Windows 10,Firefox 127.0,1280x720,1280x720,Temporal Distance Task,cb_06,29.0,temp_dist_trial,num_items,zn7si1,1.0,response,2_ITEM,1198.3399999999965,1182.7799999999988,1198.3399999999965,1198.3399999999965,1182.7799999999988,1198.3399999999965,1.0,0.0,0.0,,Click Response,2_count,5.0,object-49,temp_dist_trial,29.0,t_s_21_1,travel_shared,umbrella,6.0,competing,paired,t_s_21_1.jpg,Travel,,,sub-20
Desktop or Laptop,Windows 10,Firefox 127.0,1280x720,1280x720,Temporal Distance Task,cb_06,29.0,temp_dist_trial,dist_items,qkpkxw,2.0,info,,5.639999999999418,0.0,5.639999999999418,5.639999999999418,0.0,5.639999999999418,1.0,0.0,0.0,,Slider,Slider,4.0,object-56,temp_dist_trial,29.0,t_s_21_1,travel_shared,umbrella,6.0,competing,paired,t_s_21_1.jpg,Travel,,,sub-20
Desktop or Laptop,Windows 10,Firefox 127.0,1280x720,1280x720,Temporal Distance Task,cb_06,29.0,temp_dist_trial,dist_items,qkpkxw,2.0,continue,,2541.6399999999994,2532.179999999993,2541.6399999999994,2541.6399999999994,2532.179999999993,2541.6399999999994,1.0,0.0,0.0,,Click To Continue,Next button,7.0,object-60,temp_dist_trial,29.0,t_s_21_1,travel_shared,umbrella,6.0,competing,paired,t_s_21_1.jpg,Travel,,,sub-20
Desktop or Laptop,Windows 10,Firefox 127.0,1280x720,1280x720,Temporal Distance Task,cb_06,29.0,temp_dist_trial,dist_items,qkpkxw,2.0,response,35,899.5599999999977,2532.179999999993,2542.6399999999994,899.5599999999977,2532.179999999993,2542.6399999999994,1.0,1643.0800000000015,0.0,,Slider,Slider,4.0,object-56,temp_dist_trial,29.0,t_s_21_1,travel_shared,umbrella,6.0,competing,paired,t_s_21_1.jpg,Travel,,,sub-20
Desktop or Laptop,Windows 10,Firefox 127.0,1280x720,1280x720,Temporal Distance Task,cb_06,30.0,temp_dist_trial,num_items,zn7si1,1.0,response,1_ITEM,1674.4600000000064,1665.9400000000023,1674.4600000000064,1674.4600000000064,1665.9400000000023,1674.4600000000064,1.0,0.0,0.0,,Click Response,1_count,3.0,object-46,temp_dist_trial,30.0,t_m_01_1,travel_Miami,sandals,6.0,unique,single,t_m_01_1.jpg,Travel,,,sub-20
Desktop or Laptop,Windows 10,Firefox 127.0,1280x720,1280x720,Temporal Distance Task,cb_06,31.0,temp_dist_trial,num_items,zn7si1,1.0,response,1_ITEM,1654.6600000000033,1649.1600000000033,1654.6600000000033,1654.6600000000033,1649.1600000000033,1654.6600000000033,1.0,0.0,0.0,,Click Response,1_count,3.0,object-46,temp_dist_trial,31.0,t_s_10_1,travel_shared,luggage lock,6.0,competing,paired,t_s_10_1.jpg,Travel,,,sub-20
Desktop or Laptop,Windows 10,Firefox 127.0,1280x720,1280x720,Temporal Distance Task,cb_06,32.0,temp_dist_trial,num_items,zn7si1,1.0,response,1_ITEM,1618.5800000000015,1616.0,1618.5800000000015,1618.5800000000015,1616.0,1618.5800000000015,1.0,0.0,0.0,,Click Response,1_count,3.0,object-46,temp_dist_trial,32.0,t_s_12_1,travel_shared,clear toiletry bag,6.0,competing,paired,t_s_12_1.jpg,Travel,,,sub-20
Desktop or Laptop,Windows 10,Firefox 127.0,1280x720,1280x720,Temporal Distance Task,cb_06,33.0,temp_dist_trial,num_items,zn7si1,1.0,response,1_ITEM,1080.8399999999963,1066.3000000000031,1080.8399999999963,1080.8399999999963,1066.3000000000031,1080.8399999999963,1.0,0.0,0.0,,Click Response,1_count,3.0,object-46,temp_dist_trial,33.0,t_s_02_1,travel_shared,water bottle,6.0,competing,paired,t_s_02_1.jpg,Travel,,,sub-20
Desktop or Laptop,Windows 10,Firefox 127.0,1280x720,1280x720,Temporal Distance Task,cb_06,34.0,temp_dist_trial,num_items,zn7si1,1.0,response,num_miss,2998.5599999999977,2998.5599999999977,2998.5599999999977,2998.5599999999977,2998.5599999999977,2998.5599999999977,1.0,0.0,0.0,num_miss_tag,Time Limit,screen,0.0,screen,temp_dist_trial,34.0,t_s_17_1,travel_shared,toothbrush,6.0,competing,single,t_s_17_1.jpg,Travel,,,sub-20
Desktop or Laptop,Windows 10,Firefox 127.0,1280x720,1280x720,Temporal Distance Task,cb_06,35.0,temp_dist_trial,num_items,zn7si1,1.0,response,1_ITEM,802.8399999999965,799.7200000000012,802.8399999999965,802.8399999999965,799.7200000000012,802.8399999999965,1.0,0.0,0.0,,Click Response,1_count,3.0,object-46,temp_dist_trial,35.0,t_m_10_1,travel_Miami,tanktop,6.0,unique,paired,t_m_10_1.jpg,Travel,,,sub-20
Desktop or Laptop,Windows 10,Firefox 127.0,1280x720,1280x720,Temporal Distance Task,cb_06,36.0,temp_dist_trial,num_items,zn7si1,1.0,response,2_ITEM,1037.1999999999969,1032.8000000000031,1037.1999999999969,1037.1999999999969,1032.8000000000031,1037.1999999999969,1.0,0.0,0.0,,Click Response,2_count,5.0,object-49,temp_dist_trial,36.0,t_s_16_1,travel_shared,chapstick,6.0,competing,paired,t_s_16_1.jpg,Travel,,,sub-20
Desktop or Laptop,Windows 10,Firefox 127.0,1280x720,1280x720,Temporal Distance Task,cb_06,36.0,temp_dist_trial,dist_items,qkpkxw,2.0,info,,4.559999999997672,0.0,4.559999999997672,4.559999999997672,0.0,4.559999999997672,1.0,0.0,0.0,,Slider,Slider,4.0,object-56,temp_dist_trial,36.0,t_s_16_1,travel_shared,chapstick,6.0,competing,paired,t_s_16_1.jpg,Travel,,,sub-20
Desktop or Laptop,Windows 10,Firefox 127.0,1280x720,1280x720,Temporal Distance Task,cb_06,36.0,temp_dist_trial,dist_items,qkpkxw,2.0,continue,,2000.5599999999977,1999.1399999999994,2000.5599999999977,2000.5599999999977,1999.1399999999994,2000.5599999999977,1.0,0.0,0.0,,Click To Continue,Next button,7.0,object-60,temp_dist_trial,36.0,t_s_16_1,travel_shared,chapstick,6.0,competing,paired,t_s_16_1.jpg,Travel,,,sub-20
Desktop or Laptop,Windows 10,Firefox 127.0,1280x720,1280x720,Temporal Distance Task,cb_06,36.0,temp_dist_trial,dist_items,qkpkxw,2.0,response,28,799.7200000000012,1999.1399999999994,2001.5599999999977,799.7200000000012,1999.1399999999994,2001.5599999999977,1.0,1201.8399999999965,0.0,,Slider,Slider,4.0,object-56,temp_dist_trial,36.0,t_s_16_1,travel_shared,chapstick,6.0,competing,paired,t_s_16_1.jpg,Travel,,,sub-20
Desktop or Laptop,Windows 10,Firefox 127.0,1280x720,1280x720,Temporal Distance Task,cb_06,37.0,temp_dist_trial,num_items,zn7si1,1.0,response,1_ITEM,920.4199999999984,916.2200000000012,920.4199999999984,920.4199999999984,916.2200000000012,920.4199999999984,1.0,0.0,0.0,,Click Response,1_count,3.0,object-46,temp_dist_trial,37.0,t_s_08_1,travel_shared,hand lotion,6.0,competing,single,t_s_08_1.jpg,Travel,,,sub-20
Desktop or Laptop,Windows 10,Firefox 127.0,1280x720,1280x720,Temporal Distance Task,cb_06,38.0,temp_dist_trial,num_items,zn7si1,1.0,response,1_ITEM,682.9199999999837,666.2599999999948,682.9199999999837,682.9199999999837,666.2599999999948,682.9199999999837,1.0,0.0,0.0,,Click Response,1_count,3.0,object-46,temp_dist_trial,38.0,t_m_17_1,travel_Miami,water gun,6.0,unique,single,t_m_17_1.jpg,Travel,,,sub-20
Desktop or Laptop,Windows 10,Firefox 127.0,1280x720,1280x720,Temporal Distance Task,cb_06,39.0,temp_dist_trial,num_items,zn7si1,1.0,response,1_ITEM,759.1000000000058,749.7400000000052,759.1000000000058,759.1000000000058,749.7400000000052,759.1000000000058,1.0,0.0,0.0,,Click Response,1_count,3.0,object-46,temp_dist_trial,39.0,t_m_05_1,travel_Miami,sunscreen,6.0,unique,paired,t_m_05_1.jpg,Travel,,,sub-20
Desktop or Laptop,Windows 10,Firefox 127.0,1280x720,1280x720,Temporal Distance Task,cb_06,40.0,temp_dist_trial,num_items,zn7si1,1.0,response,2_ITEM,1208.4400000000023,1199.4199999999985,1208.4400000000023,1208.4400000000023,1199.4199999999985,1208.4400000000023,1.0,0.0,0.0,,Click Response,2_count,5.0,object-49,temp_dist_trial,40.0,t_i_17_1,travel_Iceland,binoculars,6.0,unique,paired,t_i_17_1.jpg,Travel,,,sub-20
Desktop or Laptop,Windows 10,Firefox 127.0,1280x720,1280x720,Temporal Distance Task,cb_06,40.0,temp_dist_trial,dist_items,qkpkxw,2.0,info,,5.1600000000034925,0.0,5.1600000000034925,5.1600000000034925,0.0,5.1600000000034925,1.0,0.0,0.0,,Slider,Slider,4.0,object-56,temp_dist_trial,40.0,t_i_17_1,travel_Iceland,binoculars,6.0,unique,paired,t_i_17_1.jpg,Travel,,,sub-20
Desktop or Laptop,Windows 10,Firefox 127.0,1280x720,1280x720,Temporal Distance Task,cb_06,40.0,temp_dist_trial,dist_items,qkpkxw,2.0,continue,,3150.1600000000035,3148.6000000000067,3150.1600000000035,3150.1600000000035,3148.6000000000067,3150.1600000000035,1.0,0.0,0.0,,Click To Continue,Next button,7.0,object-60,temp_dist_trial,40.0,t_i_17_1,travel_Iceland,binoculars,6.0,unique,paired,t_i_17_1.jpg,Travel,,,sub-20
Desktop or Laptop,Windows 10,Firefox 127.0,1280x720,1280x720,Temporal Distance Task,cb_06,40.0,temp_dist_trial,dist_items,qkpkxw,2.0,response,14,616.3399999999965,3148.6000000000067,3150.1600000000035,616.3399999999965,3148.6000000000067,3150.1600000000035,1.0,2533.820000000007,0.0,,Slider,Slider,4.0,object-56,temp_dist_trial,40.0,t_i_17_1,travel_Iceland,binoculars,6.0,unique,paired,t_i_17_1.jpg,Travel,,,sub-20
Desktop or Laptop,Windows 10,Firefox 127.0,1280x720,1280x720,Temporal Distance Task,cb_06,41.0,temp_dist_trial,num_items,zn7si1,1.0,response,1_ITEM,913.5599999999976,899.5599999999977,913.5599999999976,913.5599999999976,899.5599999999977,913.5599999999976,1.0,0.0,0.0,,Click Response,1_count,3.0,object-46,temp_dist_trial,41.0,t_i_01_1,travel_Iceland,gloves,6.0,unique,paired,t_i_01_1.jpg,Travel,,,sub-20
Desktop or Laptop,Windows 10,Firefox 127.0,1280x720,1280x720,Temporal Distance Task,cb_06,42.0,temp_dist_trial,num_items,zn7si1,1.0,response,1_ITEM,603.0800000000017,599.7400000000052,603.0800000000017,603.0800000000017,599.7400000000052,603.0800000000017,1.0,0.0,0.0,,Click Response,1_count,3.0,object-46,temp_dist_trial,42.0,t_s_05_1,travel_shared,neck pillow,6.0,competing,single,t_s_05_1.jpg,Travel,,,sub-20
Desktop or Laptop,Windows 10,Firefox 127.0,1280x720,1280x720,Temporal Distance Task,cb_06,43.0,temp_dist_trial,num_items,zn7si1,1.0,response,1_ITEM,626.5200000000041,616.4600000000064,626.5200000000041,626.5200000000041,616.4600000000064,626.5200000000041,1.0,0.0,0.0,,Click Response,1_count,3.0,object-46,temp_dist_trial,43.0,t_s_23_1,travel_shared,ball cap,6.0,competing,paired,t_s_23_1.jpg,Travel,,,sub-20
Desktop or Laptop,Windows 10,Firefox 127.0,1280x720,1280x720,Temporal Distance Task,cb_06,44.0,temp_dist_trial,num_items,zn7si1,1.0,response,1_ITEM,1103.179999999993,1099.459999999992,1103.179999999993,1103.179999999993,1099.459999999992,1103.179999999993,1.0,0.0,0.0,,Click Response,1_count,3.0,object-46,temp_dist_trial,44.0,t_s_15_1,travel_shared,luggage tag,6.0,competing,paired,t_s_15_1.jpg,Travel,,,sub-20
Desktop or Laptop,Windows 10,Firefox 127.0,1280x720,1280x720,Temporal Distance Task,cb_06,45.0,temp_dist_trial,num_items,zn7si1,1.0,response,1_ITEM,944.7999999999884,932.8999999999942,944.7999999999884,944.7999999999884,932.8999999999942,944.7999999999884,1.0,0.0,0.0,,Click Response,1_count,3.0,object-46,temp_dist_trial,45.0,t_s_09_1,travel_shared,wallet,6.0,competing,paired,t_s_09_1.jpg,Travel,,,sub-20
Desktop or Laptop,Windows 10,Firefox 127.0,1280x720,1280x720,Temporal Distance Task,cb_06,46.0,temp_dist_trial,num_items,zn7si1,1.0,response,2_ITEM,1324.0,1316.0199999999895,1324.0,1324.0,1316.0199999999895,1324.0,1.0,0.0,0.0,,Click Response,2_count,5.0,object-49,temp_dist_trial,46.0,t_m_13_1,travel_Miami,floatie,6.0,unique,paired,t_m_13_1.jpg,Travel,,,sub-20
Desktop or Laptop,Windows 10,Firefox 127.0,1280x720,1280x720,Temporal Distance Task,cb_06,46.0,temp_dist_trial,dist_items,qkpkxw,2.0,info,,6.0599999999976735,0.0,6.0599999999976735,6.0599999999976735,0.0,6.0599999999976735,1.0,0.0,0.0,,Slider,Slider,4.0,object-56,temp_dist_trial,46.0,t_m_13_1,travel_Miami,floatie,6.0,unique,paired,t_m_13_1.jpg,Travel,,,sub-20
Desktop or Laptop,Windows 10,Firefox 127.0,1280x720,1280x720,Temporal Distance Task,cb_06,46.0,temp_dist_trial,dist_items,qkpkxw,2.0,continue,,2518.0599999999977,2515.540000000008,2518.0599999999977,2518.0599999999977,2515.540000000008,2518.0599999999977,1.0,0.0,0.0,,Click To Continue,Next button,7.0,object-60,temp_dist_trial,46.0,t_m_13_1,travel_Miami,floatie,6.0,unique,paired,t_m_13_1.jpg,Travel,,,sub-20
Desktop or Laptop,Windows 10,Firefox 127.0,1280x720,1280x720,Temporal Distance Task,cb_06,46.0,temp_dist_trial,dist_items,qkpkxw,2.0,response,27,882.8999999999942,2515.540000000008,2518.0599999999977,882.8999999999942,2515.540000000008,2518.0599999999977,1.0,1635.1600000000033,0.0,,Slider,Slider,4.0,object-56,temp_dist_trial,46.0,t_m_13_1,travel_Miami,floatie,6.0,unique,paired,t_m_13_1.jpg,Travel,,,sub-20
Desktop or Laptop,Windows 10,Firefox 127.0,1280x720,1280x720,Temporal Distance Task,cb_06,47.0,temp_dist_trial,num_items,zn7si1,1.0,response,1_ITEM,1075.5199999999895,1066.2200000000012,1075.5199999999895,1075.5199999999895,1066.2200000000012,1075.5199999999895,1.0,0.0,0.0,,Click Response,1_count,3.0,object-46,temp_dist_trial,47.0,t_m_14_1,travel_Miami,swim goggles,6.0,unique,paired,t_m_14_1.jpg,Travel,,,sub-20
Desktop or Laptop,Windows 10,Firefox 127.0,1280x720,1280x720,Temporal Distance Task,cb_06,48.0,temp_dist_trial,num_items,zn7si1,1.0,response,1_ITEM,615.4200000000127,599.6400000000141,615.4200000000127,615.4200000000127,599.6400000000141,615.4200000000127,1.0,0.0,0.0,,Click Response,1_count,3.0,object-46,temp_dist_trial,48.0,t_s_14_1,travel_shared,hand sanitizer,6.0,competing,paired,t_s_14_1.jpg,Travel,,,sub-20
Desktop or Laptop,Windows 10,Firefox 127.0,1280x720,1280x720,Temporal Distance Task,cb_06,2.0,temp_eventStart,Screen 1,dgtyxe,1.0,continue,,1204.859999999986,1199.4799999999816,1204.859999999986,1204.859999999986,1199.4799999999816,1204.859999999986,1.0,0.0,0.0,,Click To Continue,Next Button,3.0,object-43,temp_eventStart,,,Student,,,,,,,,,sub-20
Desktop or Laptop,Windows 10,Firefox 127.0,1280x720,1280x720,Temporal Distance Task,cb_06,49.0,temp_dist_trial,num_items,zn7si1,1.0,response,2_ITEM,1941.3800000000049,1932.3999999999944,1941.3800000000049,1941.3800000000049,1932.3999999999944,1941.3800000000049,1.0,0.0,0.0,,Click Response,2_count,5.0,object-49,temp_dist_trial,1.0,s_a_03_1,student_art,palette,6.0,unique,paired,s_a_03_1.jpg,Student,,,sub-20
Desktop or Laptop,Windows 10,Firefox 127.0,1280x720,1280x720,Temporal Distance Task,cb_06,49.0,temp_dist_trial,dist_items,qkpkxw,2.0,info,,5.079999999987193,0.0,5.079999999987193,5.079999999987193,0.0,5.079999999987193,1.0,0.0,0.0,,Slider,Slider,4.0,object-56,temp_dist_trial,1.0,s_a_03_1,student_art,palette,6.0,unique,paired,s_a_03_1.jpg,Student,,,sub-20
Desktop or Laptop,Windows 10,Firefox 127.0,1280x720,1280x720,Temporal Distance Task,cb_06,49.0,temp_dist_trial,dist_items,qkpkxw,2.0,continue,,2536.0799999999867,2532.2200000000007,2536.0799999999867,2536.0799999999867,2532.2200000000007,2536.0799999999867,1.0,0.0,0.0,,Click To Continue,Next button,7.0,object-60,temp_dist_trial,1.0,s_a_03_1,student_art,palette,6.0,unique,paired,s_a_03_1.jpg,Student,,,sub-20
Desktop or Laptop,Windows 10,Firefox 127.0,1280x720,1280x720,Temporal Distance Task,cb_06,49.0,temp_dist_trial,dist_items,qkpkxw,2.0,response,11,966.2999999999884,2532.2200000000007,2536.0799999999867,966.2999999999884,2532.2200000000007,2536.0799999999867,1.0,1569.7799999999988,0.0,,Slider,Slider,4.0,object-56,temp_dist_trial,1.0,s_a_03_1,student_art,palette,6.0,unique,paired,s_a_03_1.jpg,Student,,,sub-20
Desktop or Laptop,Windows 10,Firefox 127.0,1280x720,1280x720,Temporal Distance Task,cb_06,50.0,temp_dist_trial,num_items,zn7si1,1.0,response,1_ITEM,1010.8599999999859,999.5199999999896,1010.8599999999859,1010.8599999999859,999.5199999999896,1010.8599999999859,1.0,0.0,0.0,,Click Response,1_count,3.0,object-46,temp_dist_trial,2.0,s_sh_03_1,student_shared,highlighter,6.0,competing,single,s_sh_03_1.jpg,Student,,,sub-20
Desktop or Laptop,Windows 10,Firefox 127.0,1280x720,1280x720,Temporal Distance Task,cb_06,51.0,temp_dist_trial,num_items,zn7si1,1.0,response,2_ITEM,1137.4200000000128,1132.8000000000175,1137.4200000000128,1137.4200000000128,1132.8000000000175,1137.4200000000128,1.0,0.0,0.0,,Click Response,2_count,5.0,object-49,temp_dist_trial,3.0,s_s_14_1,student_stem,funnel,6.0,unique,paired,s_s_14_1.jpg,Student,,,sub-20
Desktop or Laptop,Windows 10,Firefox 127.0,1280x720,1280x720,Temporal Distance Task,cb_06,51.0,temp_dist_trial,dist_items,qkpkxw,2.0,info,,12.779999999998836,0.0,12.779999999998836,12.779999999998836,0.0,12.779999999998836,1.0,0.0,0.0,,Slider,Slider,4.0,object-56,temp_dist_trial,3.0,s_s_14_1,student_stem,funnel,6.0,unique,paired,s_s_14_1.jpg,Student,,,sub-20
Desktop or Laptop,Windows 10,Firefox 127.0,1280x720,1280x720,Temporal Distance Task,cb_06,51.0,temp_dist_trial,dist_items,qkpkxw,2.0,continue,,2106.7799999999993,2099.139999999985,2106.7799999999993,2106.7799999999993,2099.139999999985,2106.7799999999993,1.0,0.0,0.0,,Click To Continue,Next button,7.0,object-60,temp_dist_trial,3.0,s_s_14_1,student_stem,funnel,6.0,unique,paired,s_s_14_1.jpg,Student,,,sub-20
Desktop or Laptop,Windows 10,Firefox 127.0,1280x720,1280x720,Temporal Distance Task,cb_06,51.0,temp_dist_trial,dist_items,qkpkxw,2.0,response,30,1049.540000000008,2099.139999999985,2106.7799999999993,1049.540000000008,2099.139999999985,2106.7799999999993,1.0,1057.2399999999907,0.0,,Slider,Slider,4.0,object-56,temp_dist_trial,3.0,s_s_14_1,student_stem,funnel,6.0,unique,paired,s_s_14_1.jpg,Student,,,sub-20
Desktop or Laptop,Windows 10,Firefox 127.0,1280x720,1280x720,Temporal Distance Task,cb_06,52.0,temp_dist_trial,num_items,zn7si1,1.0,response,1_ITEM,1040.640000000014,1032.8600000000154,1040.640000000014,1040.640000000014,1032.8600000000154,1040.640000000014,1.0,0.0,0.0,,Click Response,1_count,3.0,object-46,temp_dist_trial,4.0,s_sh_07_1,student_shared,ruler,6.0,competing,single,s_sh_07_1.jpg,Student,,,sub-20
Desktop or Laptop,Windows 10,Firefox 127.0,1280x720,1280x720,Temporal Distance Task,cb_06,53.0,temp_dist_trial,num_items,zn7si1,1.0,response,2_ITEM,1629.0599999999977,1616.1199999999951,1629.0599999999977,1629.0599999999977,1616.1199999999951,1629.0599999999977,1.0,0.0,0.0,,Click Response,2_count,5.0,object-49,temp_dist_trial,5.0,s_s_11_1,student_stem,scientific scale,6.0,unique,paired,s_s_11_1.jpg,Student,,,sub-20
Desktop or Laptop,Windows 10,Firefox 127.0,1280x720,1280x720,Temporal Distance Task,cb_06,53.0,temp_dist_trial,dist_items,qkpkxw,2.0,info,,5.079999999987193,0.0,5.079999999987193,5.079999999987193,0.0,5.079999999987193,1.0,0.0,0.0,,Slider,Slider,4.0,object-56,temp_dist_trial,5.0,s_s_11_1,student_stem,scientific scale,6.0,unique,paired,s_s_11_1.jpg,Student,,,sub-20
Desktop or Laptop,Windows 10,Firefox 127.0,1280x720,1280x720,Temporal Distance Task,cb_06,53.0,temp_dist_trial,dist_items,qkpkxw,2.0,continue,,1594.0799999999872,1582.459999999992,1594.0799999999872,1594.0799999999872,1582.459999999992,1594.0799999999872,1.0,0.0,0.0,,Click To Continue,Next button,7.0,object-60,temp_dist_trial,5.0,s_s_11_1,student_stem,scientific scale,6.0,unique,paired,s_s_11_1.jpg,Student,,,sub-20
Desktop or Laptop,Windows 10,Firefox 127.0,1280x720,1280x720,Temporal Distance Task,cb_06,53.0,temp_dist_trial,dist_items,qkpkxw,2.0,response,33,666.3399999999965,1582.459999999992,1594.0799999999872,666.3399999999965,1582.459999999992,1594.0799999999872,1.0,927.7399999999907,0.0,,Slider,Slider,4.0,object-56,temp_dist_trial,5.0,s_s_11_1,student_stem,scientific scale,6.0,unique,paired,s_s_11_1.jpg,Student,,,sub-20
Desktop or Laptop,Windows 10,Firefox 127.0,1280x720,1280x720,Temporal Distance Task,cb_06,54.0,temp_dist_trial,num_items,zn7si1,1.0,response,2_ITEM,1084.6199999999953,1082.959999999992,1084.6199999999953,1084.6199999999953,1082.959999999992,1084.6199999999953,1.0,0.0,0.0,,Click Response,2_count,5.0,object-49,temp_dist_trial,6.0,s_sh_09_1,student_shared,paper clips,6.0,competing,paired,s_sh_09_1.jpg,Student,,,sub-20
Desktop or Laptop,Windows 10,Firefox 127.0,1280x720,1280x720,Temporal Distance Task,cb_06,54.0,temp_dist_trial,dist_items,qkpkxw,2.0,info,,6.779999999998838,0.0,6.779999999998838,6.779999999998838,0.0,6.779999999998838,1.0,0.0,0.0,,Slider,Slider,4.0,object-56,temp_dist_trial,6.0,s_sh_09_1,student_shared,paper clips,6.0,competing,paired,s_sh_09_1.jpg,Student,,,sub-20
Desktop or Laptop,Windows 10,Firefox 127.0,1280x720,1280x720,Temporal Distance Task,cb_06,54.0,temp_dist_trial,dist_items,qkpkxw,2.0,continue,,1703.7799999999988,1699.1199999999951,1703.7799999999988,1703.7799999999988,1699.1199999999951,1703.7799999999988,1.0,0.0,0.0,,Click To Continue,Next button,7.0,object-60,temp_dist_trial,6.0,s_sh_09_1,student_shared,paper clips,6.0,competing,paired,s_sh_09_1.jpg,Student,,,sub-20
Desktop or Laptop,Windows 10,Firefox 127.0,1280x720,1280x720,Temporal Distance Task,cb_06,54.0,temp_dist_trial,dist_items,qkpkxw,2.0,response,35,799.6399999999849,1699.1199999999951,1703.7799999999988,799.6399999999849,1699.1199999999951,1703.7799999999988,1.0,904.1400000000141,0.0,,Slider,Slider,4.0,object-56,temp_dist_trial,6.0,s_sh_09_1,student_shared,paper clips,6.0,competing,paired,s_sh_09_1.jpg,Student,,,sub-20
Desktop or Laptop,Windows 10,Firefox 127.0,1280x720,1280x720,Temporal Distance Task,cb_06,55.0,temp_dist_trial,num_items,zn7si1,1.0,response,2_ITEM,925.6600000000036,916.3600000000152,925.6600000000036,925.6600000000036,916.3600000000152,925.6600000000036,1.0,0.0,0.0,,Click Response,2_count,5.0,object-49,temp_dist_trial,7.0,s_a_07_1,student_art,yarn,6.0,unique,paired,s_a_07_1.jpg,Student,,,sub-20
Desktop or Laptop,Windows 10,Firefox 127.0,1280x720,1280x720,Temporal Distance Task,cb_06,55.0,temp_dist_trial,dist_items,qkpkxw,2.0,info,,4.3999999999941775,0.0,4.3999999999941775,4.3999999999941775,0.0,4.3999999999941775,1.0,0.0,0.0,,Slider,Slider,4.0,object-56,temp_dist_trial,7.0,s_a_07_1,student_art,yarn,6.0,unique,paired,s_a_07_1.jpg,Student,,,sub-20
Desktop or Laptop,Windows 10,Firefox 127.0,1280x720,1280x720,Temporal Distance Task,cb_06,55.0,temp_dist_trial,dist_items,qkpkxw,2.0,continue,,1327.3999999999942,1315.9400000000023,1327.3999999999942,1327.3999999999942,1315.9400000000023,1327.3999999999942,1.0,0.0,0.0,,Click To Continue,Next button,7.0,object-60,temp_dist_trial,7.0,s_a_07_1,student_art,yarn,6.0,unique,paired,s_a_07_1.jpg,Student,,,sub-20
Desktop or Laptop,Windows 10,Firefox 127.0,1280x720,1280x720,Temporal Distance Task,cb_06,55.0,temp_dist_trial,dist_items,qkpkxw,2.0,response,26,533.040000000008,1315.9400000000023,1327.3999999999942,533.040000000008,1315.9400000000023,1327.3999999999942,1.0,794.3599999999858,0.0,,Slider,Slider,4.0,object-56,temp_dist_trial,7.0,s_a_07_1,student_art,yarn,6.0,unique,paired,s_a_07_1.jpg,Student,,,sub-20
Desktop or Laptop,Windows 10,Firefox 127.0,1280x720,1280x720,Temporal Distance Task,cb_06,56.0,temp_dist_trial,num_items,zn7si1,1.0,response,1_ITEM,1482.459999999992,1466.1600000000033,1482.459999999992,1482.459999999992,1466.1600000000033,1482.459999999992,1.0,0.0,0.0,,Click Response,1_count,3.0,object-46,temp_dist_trial,8.0,s_sh_11_1,student_shared,pencil case,6.0,competing,paired,s_sh_11_1.jpg,Student,,,sub-20
Desktop or Laptop,Windows 10,Firefox 127.0,1280x720,1280x720,Temporal Distance Task,cb_06,57.0,temp_dist_trial,num_items,zn7si1,1.0,response,2_ITEM,998.4200000000128,982.9000000000232,998.4200000000128,998.4200000000128,982.9000000000232,998.4200000000128,1.0,0.0,0.0,,Click Response,2_count,5.0,object-49,temp_dist_trial,9.0,s_sh_12_1,student_shared,binder,6.0,competing,paired,s_sh_12_1.jpg,Student,,,sub-20
Desktop or Laptop,Windows 10,Firefox 127.0,1280x720,1280x720,Temporal Distance Task,cb_06,57.0,temp_dist_trial,dist_items,qkpkxw,2.0,info,,5.7000000000116415,0.0,5.7000000000116415,5.7000000000116415,0.0,5.7000000000116415,1.0,0.0,0.0,,Slider,Slider,4.0,object-56,temp_dist_trial,9.0,s_sh_12_1,student_shared,binder,6.0,competing,paired,s_sh_12_1.jpg,Student,,,sub-20
Desktop or Laptop,Windows 10,Firefox 127.0,1280x720,1280x720,Temporal Distance Task,cb_06,57.0,temp_dist_trial,dist_items,qkpkxw,2.0,continue,,1508.7000000000116,1499.320000000007,1508.7000000000116,1508.7000000000116,1499.320000000007,1508.7000000000116,1.0,0.0,0.0,,Click To Continue,Next button,7.0,object-60,temp_dist_trial,9.0,s_sh_12_1,student_shared,binder,6.0,competing,paired,s_sh_12_1.jpg,Student,,,sub-20
Desktop or Laptop,Windows 10,Firefox 127.0,1280x720,1280x720,Temporal Distance Task,cb_06,57.0,temp_dist_trial,dist_items,qkpkxw,2.0,response,31,766.3600000000151,1499.320000000007,1508.7000000000116,766.3600000000151,1499.320000000007,1508.7000000000116,1.0,742.3399999999965,0.0,,Slider,Slider,4.0,object-56,temp_dist_trial,9.0,s_sh_12_1,student_shared,binder,6.0,competing,paired,s_sh_12_1.jpg,Student,,,sub-20
Desktop or Laptop,Windows 10,Firefox 127.0,1280x720,1280x720,Temporal Distance Task,cb_06,58.0,temp_dist_trial,num_items,zn7si1,1.0,response,1_ITEM,1066.2200000000012,1049.5599999999977,1066.2200000000012,1066.2200000000012,1049.5599999999977,1066.2200000000012,1.0,0.0,0.0,,Click Response,1_count,3.0,object-46,temp_dist_trial,10.0,s_sh_13_1,student_shared,index cards,6.0,competing,paired,s_sh_13_1.jpg,Student,,,sub-20
Desktop or Laptop,Windows 10,Firefox 127.0,1280x720,1280x720,Temporal Distance Task,cb_06,59.0,temp_dist_trial,num_items,zn7si1,1.0,response,1_ITEM,725.9200000000128,716.3600000000151,725.9200000000128,725.9200000000128,716.3600000000151,725.9200000000128,1.0,0.0,0.0,,Click Response,1_count,3.0,object-46,temp_dist_trial,11.0,s_sh_23_1,student_shared,ballpoint pen,6.0,competing,single,s_sh_23_1.jpg,Student,,,sub-20
Desktop or Laptop,Windows 10,Firefox 127.0,1280x720,1280x720,Temporal Distance Task,cb_06,60.0,temp_dist_trial,num_items,zn7si1,1.0,response,1_ITEM,1065.7200000000012,1049.540000000008,1065.7200000000012,1065.7200000000012,1049.540000000008,1065.7200000000012,1.0,0.0,0.0,,Click Response,1_count,3.0,object-46,temp_dist_trial,12.0,s_a_09_1,student_art,picture frame,6.0,unique,paired,s_a_09_1.jpg,Student,,,sub-20
Desktop or Laptop,Windows 10,Firefox 127.0,1280x720,1280x720,Temporal Distance Task,cb_06,61.0,temp_dist_trial,num_items,zn7si1,1.0,response,2_ITEM,791.2799999999988,782.9599999999921,791.2799999999988,791.2799999999988,782.9599999999921,791.2799999999988,1.0,0.0,0.0,,Click Response,2_count,5.0,object-49,temp_dist_trial,13.0,s_s_13_1,student_stem,telescope,6.0,unique,paired,s_s_13_1.jpg,Student,,,sub-20
Desktop or Laptop,Windows 10,Firefox 127.0,1280x720,1280x720,Temporal Distance Task,cb_06,61.0,temp_dist_trial,dist_items,qkpkxw,2.0,info,,4.420000000012807,0.0,4.420000000012807,4.420000000012807,0.0,4.420000000012807,1.0,0.0,0.0,,Slider,Slider,4.0,object-56,temp_dist_trial,13.0,s_s_13_1,student_stem,telescope,6.0,unique,paired,s_s_13_1.jpg,Student,,,sub-20
Desktop or Laptop,Windows 10,Firefox 127.0,1280x720,1280x720,Temporal Distance Task,cb_06,61.0,temp_dist_trial,dist_items,qkpkxw,2.0,continue,,1804.4200000000128,1799.140000000014,1804.4200000000128,1804.4200000000128,1799.140000000014,1804.4200000000128,1.0,0.0,0.0,,Click To Continue,Next button,7.0,object-60,temp_dist_trial,13.0,s_s_13_1,student_stem,telescope,6.0,unique,paired,s_s_13_1.jpg,Student,,,sub-20
Desktop or Laptop,Windows 10,Firefox 127.0,1280x720,1280x720,Temporal Distance Task,cb_06,61.0,temp_dist_trial,dist_items,qkpkxw,2.0,response,12,816.1600000000035,1799.140000000014,1804.4200000000128,816.1600000000035,1799.140000000014,1804.4200000000128,1.0,988.2600000000093,0.0,,Slider,Slider,4.0,object-56,temp_dist_trial,13.0,s_s_13_1,student_stem,telescope,6.0,unique,paired,s_s_13_1.jpg,Student,,,sub-20
Desktop or Laptop,Windows 10,Firefox 127.0,1280x720,1280x720,Temporal Distance Task,cb_06,62.0,temp_dist_trial,num_items,zn7si1,1.0,response,1_ITEM,1404.2799999999988,1399.4400000000023,1404.2799999999988,1404.2799999999988,1399.4400000000023,1404.2799999999988,1.0,0.0,0.0,,Click Response,1_count,3.0,object-46,temp_dist_trial,14.0,s_sh_19_1,student_shared,portable plastic drawer,6.0,competing,single,s_sh_19_1.jpg,Student,,,sub-20
Desktop or Laptop,Windows 10,Firefox 127.0,1280x720,1280x720,Temporal Distance Task,cb_06,63.0,temp_dist_trial,num_items,zn7si1,1.0,response,1_ITEM,1051.9200000000128,1049.4200000000128,1051.9200000000128,1051.9200000000128,1049.4200000000128,1051.9200000000128,1.0,0.0,0.0,,Click Response,1_count,3.0,object-46,temp_dist_trial,15.0,s_a_11_1,student_art,clapperboard,6.0,unique,single,s_a_11_1.jpg,Student,,,sub-20
Desktop or Laptop,Windows 10,Firefox 127.0,1280x720,1280x720,Temporal Distance Task,cb_06,64.0,temp_dist_trial,num_items,zn7si1,1.0,response,1_ITEM,1231.5799999999872,1216.1199999999953,1231.5799999999872,1231.5799999999872,1216.1199999999953,1231.5799999999872,1.0,0.0,0.0,,Click Response,1_count,3.0,object-46,temp_dist_trial,16.0,s_s_18_1,student_stem,brain model,6.0,unique,single,s_s_18_1.jpg,Student,,,sub-20
Desktop or Laptop,Windows 10,Firefox 127.0,1280x720,1280x720,Temporal Distance Task,cb_06,65.0,temp_dist_trial,num_items,zn7si1,1.0,response,1_ITEM,991.5599999999976,982.820000000007,991.5599999999976,991.5599999999976,982.820000000007,991.5599999999976,1.0,0.0,0.0,,Click Response,1_count,3.0,object-46,temp_dist_trial,17.0,s_a_10_1,student_art,tripod,6.0,unique,single,s_a_10_1.jpg,Student,,,sub-20
Desktop or Laptop,Windows 10,Firefox 127.0,1280x720,1280x720,Temporal Distance Task,cb_06,66.0,temp_dist_trial,num_items,zn7si1,1.0,response,2_ITEM,1198.820000000007,1182.8399999999965,1198.820000000007,1198.820000000007,1182.8399999999965,1198.820000000007,1.0,0.0,0.0,,Click Response,2_count,5.0,object-49,temp_dist_trial,18.0,s_a_13_1,student_art,violin,6.0,unique,paired,s_a_13_1.jpg,Student,,,sub-20
Desktop or Laptop,Windows 10,Firefox 127.0,1280x720,1280x720,Temporal Distance Task,cb_06,66.0,temp_dist_trial,dist_items,qkpkxw,2.0,info,,7.14000000001397,0.0,7.14000000001397,7.14000000001397,0.0,7.14000000001397,1.0,0.0,0.0,,Slider,Slider,4.0,object-56,temp_dist_trial,18.0,s_a_13_1,student_art,violin,6.0,unique,paired,s_a_13_1.jpg,Student,,,sub-20
Desktop or Laptop,Windows 10,Firefox 127.0,1280x720,1280x720,Temporal Distance Task,cb_06,66.0,temp_dist_trial,dist_items,qkpkxw,2.0,continue,,2622.140000000014,2615.5,2622.140000000014,2622.140000000014,2615.5,2622.140000000014,1.0,0.0,0.0,,Click To Continue,Next button,7.0,object-60,temp_dist_trial,18.0,s_a_13_1,student_art,violin,6.0,unique,paired,s_a_13_1.jpg,Student,,,sub-20
Desktop or Laptop,Windows 10,Firefox 127.0,1280x720,1280x720,Temporal Distance Task,cb_06,66.0,temp_dist_trial,dist_items,qkpkxw,2.0,response,27,832.9600000000211,2615.5,2622.140000000014,832.9600000000211,2615.5,2622.140000000014,1.0,1789.179999999993,0.0,,Slider,Slider,4.0,object-56,temp_dist_trial,18.0,s_a_13_1,student_art,violin,6.0,unique,paired,s_a_13_1.jpg,Student,,,sub-20
Desktop or Laptop,Windows 10,Firefox 127.0,1280x720,1280x720,Temporal Distance Task,cb_06,67.0,temp_dist_trial,num_items,zn7si1,1.0,response,2_ITEM,1084.640000000014,1082.7800000000282,1084.640000000014,1084.640000000014,1082.7800000000282,1084.640000000014,1.0,0.0,0.0,,Click Response,2_count,5.0,object-49,temp_dist_trial,19.0,s_a_15_1,student_art,drum kit,6.0,unique,paired,s_a_15_1.jpg,Student,,,sub-20
Desktop or Laptop,Windows 10,Firefox 127.0,1280x720,1280x720,Temporal Distance Task,cb_06,67.0,temp_dist_trial,dist_items,qkpkxw,2.0,info,,4.940000000002328,0.0,4.940000000002328,4.940000000002328,0.0,4.940000000002328,1.0,0.0,0.0,,Slider,Slider,4.0,object-56,temp_dist_trial,19.0,s_a_15_1,student_art,drum kit,6.0,unique,paired,s_a_15_1.jpg,Student,,,sub-20
Desktop or Laptop,Windows 10,Firefox 127.0,1280x720,1280x720,Temporal Distance Task,cb_06,67.0,temp_dist_trial,dist_items,qkpkxw,2.0,continue,,1392.9400000000023,1382.7600000000089,1392.9400000000023,1392.9400000000023,1382.7600000000089,1392.9400000000023,1.0,0.0,0.0,,Click To Continue,Next button,7.0,object-60,temp_dist_trial,19.0,s_a_15_1,student_art,drum kit,6.0,unique,paired,s_a_15_1.jpg,Student,,,sub-20
Desktop or Laptop,Windows 10,Firefox 127.0,1280x720,1280x720,Temporal Distance Task,cb_06,67.0,temp_dist_trial,dist_items,qkpkxw,2.0,response,71,616.3800000000048,1382.7600000000089,1393.9400000000023,616.3800000000048,1382.7600000000089,1393.9400000000023,1.0,777.5599999999977,0.0,,Slider,Slider,4.0,object-56,temp_dist_trial,19.0,s_a_15_1,student_art,drum kit,6.0,unique,paired,s_a_15_1.jpg,Student,,,sub-20
Desktop or Laptop,Windows 10,Firefox 127.0,1280x720,1280x720,Temporal Distance Task,cb_06,68.0,temp_dist_trial,num_items,zn7si1,1.0,response,1_ITEM,1371.179999999993,1366.0199999999895,1371.179999999993,1371.179999999993,1366.0199999999895,1371.179999999993,1.0,0.0,0.0,,Click Response,1_count,3.0,object-46,temp_dist_trial,20.0,s_sh_22_1,student_shared,hole puncher,6.0,competing,paired,s_sh_22_1.jpg,Student,,,sub-20
Desktop or Laptop,Windows 10,Firefox 127.0,1280x720,1280x720,Temporal Distance Task,cb_06,69.0,temp_dist_trial,num_items,zn7si1,1.0,response,1_ITEM,1051.2600000000093,1049.5800000000163,1051.2600000000093,1051.2600000000093,1049.5800000000163,1051.2600000000093,1.0,0.0,0.0,,Click Response,1_count,3.0,object-46,temp_dist_trial,21.0,s_s_04_1,student_stem,bunsen burner,6.0,unique,single,s_s_04_1.jpg,Student,,,sub-20
Desktop or Laptop,Windows 10,Firefox 127.0,1280x720,1280x720,Temporal Distance Task,cb_06,70.0,temp_dist_trial,num_items,zn7si1,1.0,response,2_ITEM,1575.0,1566.1000000000058,1575.0,1575.0,1566.1000000000058,1575.0,1.0,0.0,0.0,,Click Response,2_count,5.0,object-49,temp_dist_trial,22.0,s_sh_01_1,student_shared,notebook,6.0,competing,paired,s_sh_01_1.jpg,Student,,,sub-20
Desktop or Laptop,Windows 10,Firefox 127.0,1280x720,1280x720,Temporal Distance Task,cb_06,70.0,temp_dist_trial,dist_items,qkpkxw,2.0,info,,6.040000000008148,0.0,6.040000000008148,6.040000000008148,0.0,6.040000000008148,1.0,0.0,0.0,,Slider,Slider,4.0,object-56,temp_dist_trial,22.0,s_sh_01_1,student_shared,notebook,6.0,competing,paired,s_sh_01_1.jpg,Student,,,sub-20
Desktop or Laptop,Windows 10,Firefox 127.0,1280x720,1280x720,Temporal Distance Task,cb_06,70.0,temp_dist_trial,dist_items,qkpkxw,2.0,continue,,1351.040000000008,1349.2600000000093,1351.040000000008,1351.040000000008,1349.2600000000093,1351.040000000008,1.0,0.0,0.0,,Click To Continue,Next button,7.0,object-60,temp_dist_trial,22.0,s_sh_01_1,student_shared,notebook,6.0,competing,paired,s_sh_01_1.jpg,Student,,,sub-20
Desktop or Laptop,Windows 10,Firefox 127.0,1280x720,1280x720,Temporal Distance Task,cb_06,70.0,temp_dist_trial,dist_items,qkpkxw,2.0,response,30,649.7000000000116,1349.2600000000093,1351.040000000008,649.7000000000116,1349.2600000000093,1351.040000000008,1.0,701.3399999999965,0.0,,Slider,Slider,4.0,object-56,temp_dist_trial,22.0,s_sh_01_1,student_shared,notebook,6.0,competing,paired,s_sh_01_1.jpg,Student,,,sub-20
Desktop or Laptop,Windows 10,Firefox 127.0,1280x720,1280x720,Temporal Distance Task,cb_06,71.0,temp_dist_trial,num_items,zn7si1,1.0,response,1_ITEM,1208.7799999999988,1199.6000000000058,1208.7799999999988,1208.7799999999988,1199.6000000000058,1208.7799999999988,1.0,0.0,0.0,,Click Response,1_count,3.0,object-46,temp_dist_trial,23.0,s_sh_21_1,student_shared,file holder,6.0,competing,single,s_sh_21_1.jpg,Student,,,sub-20
Desktop or Laptop,Windows 10,Firefox 127.0,1280x720,1280x720,Temporal Distance Task,cb_06,72.0,temp_dist_trial,num_items,zn7si1,1.0,response,1_ITEM,761.2799999999988,749.6600000000035,761.2799999999988,761.2799999999988,749.6600000000035,761.2799999999988,1.0,0.0,0.0,,Click Response,1_count,3.0,object-46,temp_dist_trial,24.0,s_sh_02_1,student_shared,eraser,6.0,competing,single,s_sh_02_1.jpg,Student,,,sub-20
Desktop or Laptop,Windows 10,Firefox 127.0,1280x720,1280x720,Temporal Distance Task,cb_06,73.0,temp_dist_trial,num_items,zn7si1,1.0,response,2_ITEM,1281.7600000000093,1266.0800000000165,1281.7600000000093,1281.7600000000093,1266.0800000000165,1281.7600000000093,1.0,0.0,0.0,,Click Response,2_count,5.0,object-49,temp_dist_trial,25.0,s_s_20_1,student_stem,dna model,6.0,unique,paired,s_s_20_1.jpg,Student,,,sub-20
Desktop or Laptop,Windows 10,Firefox 127.0,1280x720,1280x720,Temporal Distance Task,cb_06,73.0,temp_dist_trial,dist_items,qkpkxw,2.0,info,,4.760000000009313,0.0,4.760000000009313,4.760000000009313,0.0,4.760000000009313,1.0,0.0,0.0,,Slider,Slider,4.0,object-56,temp_dist_trial,25.0,s_s_20_1,student_stem,dna model,6.0,unique,paired,s_s_20_1.jpg,Student,,,sub-20
Desktop or Laptop,Windows 10,Firefox 127.0,1280x720,1280x720,Temporal Distance Task,cb_06,73.0,temp_dist_trial,dist_items,qkpkxw,2.0,continue,,1629.7600000000089,1615.960000000021,1629.7600000000089,1629.7600000000089,1615.960000000021,1629.7600000000089,1.0,0.0,0.0,,Click To Continue,Next button,7.0,object-60,temp_dist_trial,25.0,s_s_20_1,student_stem,dna model,6.0,unique,paired,s_s_20_1.jpg,Student,,,sub-20
Desktop or Laptop,Windows 10,Firefox 127.0,1280x720,1280x720,Temporal Distance Task,cb_06,73.0,temp_dist_trial,dist_items,qkpkxw,2.0,response,67,699.6400000000142,1615.960000000021,1629.7600000000089,699.6400000000142,1615.960000000021,1629.7600000000089,1.0,930.1199999999952,0.0,,Slider,Slider,4.0,object-56,temp_dist_trial,25.0,s_s_20_1,student_stem,dna model,6.0,unique,paired,s_s_20_1.jpg,Student,,,sub-20
Desktop or Laptop,Windows 10,Firefox 127.0,1280x720,1280x720,Temporal Distance Task,cb_06,74.0,temp_dist_trial,num_items,zn7si1,1.0,response,1_ITEM,1092.7999999999884,1082.6999999999823,1092.7999999999884,1092.7999999999884,1082.6999999999823,1092.7999999999884,1.0,0.0,0.0,,Click Response,1_count,3.0,object-46,temp_dist_trial,26.0,s_sh_17_1,student_shared,wireless mouse,6.0,competing,paired,s_sh_17_1.jpg,Student,,,sub-20
Desktop or Laptop,Windows 10,Firefox 127.0,1280x720,1280x720,Temporal Distance Task,cb_06,75.0,temp_dist_trial,num_items,zn7si1,1.0,response,2_ITEM,2432.200000000012,2415.6600000000035,2432.200000000012,2432.200000000012,2415.6600000000035,2432.200000000012,1.0,0.0,0.0,,Click Response,2_count,5.0,object-49,temp_dist_trial,27.0,s_sh_10_1,student_shared,scissors,6.0,competing,paired,s_sh_10_1.jpg,Student,,,sub-20
Desktop or Laptop,Windows 10,Firefox 127.0,1280x720,1280x720,Temporal Distance Task,cb_06,75.0,temp_dist_trial,dist_items,qkpkxw,2.0,info,,4.64000000001397,0.0,4.64000000001397,4.64000000001397,0.0,4.64000000001397,1.0,0.0,0.0,,Slider,Slider,4.0,object-56,temp_dist_trial,27.0,s_sh_10_1,student_shared,scissors,6.0,competing,paired,s_sh_10_1.jpg,Student,,,sub-20
Desktop or Laptop,Windows 10,Firefox 127.0,1280x720,1280x720,Temporal Distance Task,cb_06,75.0,temp_dist_trial,dist_items,qkpkxw,2.0,continue,,1414.640000000014,1399.2800000000284,1414.640000000014,1414.640000000014,1399.2800000000284,1414.640000000014,1.0,0.0,0.0,,Click To Continue,Next button,7.0,object-60,temp_dist_trial,27.0,s_sh_10_1,student_shared,scissors,6.0,competing,paired,s_sh_10_1.jpg,Student,,,sub-20
Desktop or Laptop,Windows 10,Firefox 127.0,1280x720,1280x720,Temporal Distance Task,cb_06,75.0,temp_dist_trial,dist_items,qkpkxw,2.0,response,32,633.0800000000163,1399.2800000000284,1415.640000000014,633.0800000000163,1399.2800000000284,1415.640000000014,1.0,782.5599999999977,0.0,,Slider,Slider,4.0,object-56,temp_dist_trial,27.0,s_sh_10_1,student_shared,scissors,6.0,competing,paired,s_sh_10_1.jpg,Student,,,sub-20
Desktop or Laptop,Windows 10,Firefox 127.0,1280x720,1280x720,Temporal Distance Task,cb_06,76.0,temp_dist_trial,num_items,zn7si1,1.0,response,1_ITEM,1911.359999999986,1899.2199999999718,1911.359999999986,1911.359999999986,1899.2199999999718,1911.359999999986,1.0,0.0,0.0,,Click Response,1_count,3.0,object-46,temp_dist_trial,28.0,s_a_08_1,student_art,sewing machine,6.0,unique,paired,s_a_08_1.jpg,Student,,,sub-20
Desktop or Laptop,Windows 10,Firefox 127.0,1280x720,1280x720,Temporal Distance Task,cb_06,77.0,temp_dist_trial,num_items,zn7si1,1.0,response,1_ITEM,714.2399999999907,699.7200000000012,714.2399999999907,714.2399999999907,699.7200000000012,714.2399999999907,1.0,0.0,0.0,,Click Response,1_count,3.0,object-46,temp_dist_trial,29.0,s_sh_15_1,student_shared,usb drive,6.0,competing,paired,s_sh_15_1.jpg,Student,,,sub-20
Desktop or Laptop,Windows 10,Firefox 127.0,1280x720,1280x720,Temporal Distance Task,cb_06,78.0,temp_dist_trial,num_items,zn7si1,1.0,response,1_ITEM,876.6600000000035,866.2600000000093,876.6600000000035,876.6600000000035,866.2600000000093,876.6600000000035,1.0,0.0,0.0,,Click Response,1_count,3.0,object-46,temp_dist_trial,30.0,s_a_06_1,student_art,pastels,6.0,unique,paired,s_a_06_1.jpg,Student,,,sub-20
Desktop or Laptop,Windows 10,Firefox 127.0,1280x720,1280x720,Temporal Distance Task,cb_06,79.0,temp_dist_trial,num_items,zn7si1,1.0,response,1_ITEM,1071.5599999999977,1066.2399999999907,1071.5599999999977,1071.5599999999977,1066.2399999999907,1071.5599999999977,1.0,0.0,0.0,,Click Response,1_count,3.0,object-46,temp_dist_trial,31.0,s_a_20_1,student_art,pin cushion,6.0,unique,single,s_a_20_1.jpg,Student,,,sub-20
Desktop or Laptop,Windows 10,Firefox 127.0,1280x720,1280x720,Temporal Distance Task,cb_06,80.0,temp_dist_trial,num_items,zn7si1,1.0,response,1_ITEM,662.4400000000022,649.7200000000012,662.4400000000022,662.4400000000022,649.7200000000012,662.4400000000022,1.0,0.0,0.0,,Click Response,1_count,3.0,object-46,temp_dist_trial,32.0,s_sh_18_1,student_shared,wall calendar,6.0,competing,paired,s_sh_18_1.jpg,Student,,,sub-20
Desktop or Laptop,Windows 10,Firefox 127.0,1280x720,1280x720,Temporal Distance Task,cb_06,81.0,temp_dist_trial,num_items,zn7si1,1.0,response,1_ITEM,679.820000000007,666.3600000000151,679.820000000007,679.820000000007,666.3600000000151,679.820000000007,1.0,0.0,0.0,,Click Response,1_count,3.0,object-46,temp_dist_trial,33.0,s_sh_04_1,student_shared,laptop stand,6.0,competing,paired,s_sh_04_1.jpg,Student,,,sub-20
Desktop or Laptop,Windows 10,Firefox 127.0,1280x720,1280x720,Temporal Distance Task,cb_06,82.0,temp_dist_trial,num_items,zn7si1,1.0,response,1_ITEM,1092.5799999999872,1082.6999999999823,1092.5799999999872,1092.5799999999872,1082.6999999999823,1092.5799999999872,1.0,0.0,0.0,,Click Response,1_count,3.0,object-46,temp_dist_trial,34.0,s_s_06_1,student_stem,calculator,6.0,unique,paired,s_s_06_1.jpg,Student,,,sub-20
Desktop or Laptop,Windows 10,Firefox 127.0,1280x720,1280x720,Temporal Distance Task,cb_06,83.0,temp_dist_trial,num_items,zn7si1,1.0,response,1_ITEM,880.9599999999921,866.3599999999858,880.9599999999921,880.9599999999921,866.3599999999858,880.9599999999921,1.0,0.0,0.0,,Click Response,1_count,3.0,object-46,temp_dist_trial,35.0,s_a_01_1,student_art,paintbrush,6.0,unique,paired,s_a_01_1.jpg,Student,,,sub-20
Desktop or Laptop,Windows 10,Firefox 127.0,1280x720,1280x720,Temporal Distance Task,cb_06,84.0,temp_dist_trial,num_items,zn7si1,1.0,response,2_ITEM,1180.679999999993,1166.1199999999953,1180.679999999993,1180.679999999993,1166.1199999999953,1180.679999999993,1.0,0.0,0.0,,Click Response,2_count,5.0,object-49,temp_dist_trial,36.0,s_s_03_1,student_stem,petri dish,6.0,unique,paired,s_s_03_1.jpg,Student,,,sub-20
Desktop or Laptop,Windows 10,Firefox 127.0,1280x720,1280x720,Temporal Distance Task,cb_06,84.0,temp_dist_trial,dist_items,qkpkxw,2.0,info,,5.760000000009312,0.0,5.760000000009312,5.760000000009312,0.0,5.760000000009312,1.0,0.0,0.0,,Slider,Slider,4.0,object-56,temp_dist_trial,36.0,s_s_03_1,student_stem,petri dish,6.0,unique,paired,s_s_03_1.jpg,Student,,,sub-20
Desktop or Laptop,Windows 10,Firefox 127.0,1280x720,1280x720,Temporal Distance Task,cb_06,84.0,temp_dist_trial,dist_items,qkpkxw,2.0,continue,,1515.999999999971,1499.3399999999967,1515.999999999971,1515.999999999971,1499.3399999999967,1515.999999999971,1.0,0.0,0.0,,Click To Continue,Next button,7.0,object-60,temp_dist_trial,36.0,s_s_03_1,student_stem,petri dish,6.0,unique,paired,s_s_03_1.jpg,Student,,,sub-20
Desktop or Laptop,Windows 10,Firefox 127.0,1280x720,1280x720,Temporal Distance Task,cb_06,84.0,temp_dist_trial,dist_items,qkpkxw,2.0,response,35,699.7000000000116,1499.3399999999967,1515.999999999971,699.7000000000116,1499.3399999999967,1515.999999999971,1.0,816.2999999999593,0.0,,Slider,Slider,4.0,object-56,temp_dist_trial,36.0,s_s_03_1,student_stem,petri dish,6.0,unique,paired,s_s_03_1.jpg,Student,,,sub-20
Desktop or Laptop,Windows 10,Firefox 127.0,1280x720,1280x720,Temporal Distance Task,cb_06,85.0,temp_dist_trial,num_items,zn7si1,1.0,response,1_ITEM,881.4200000000128,866.320000000007,881.4200000000128,881.4200000000128,866.320000000007,881.4200000000128,1.0,0.0,0.0,,Click Response,1_count,3.0,object-46,temp_dist_trial,37.0,s_sh_08_1,student_shared,post-its,6.0,competing,paired,s_sh_08_1.jpg,Student,,,sub-20
Desktop or Laptop,Windows 10,Firefox 127.0,1280x720,1280x720,Temporal Distance Task,cb_06,86.0,temp_dist_trial,num_items,zn7si1,1.0,response,1_ITEM,1189.179999999993,1182.679999999993,1189.179999999993,1189.179999999993,1182.679999999993,1189.179999999993,1.0,0.0,0.0,,Click Response,1_count,3.0,object-46,temp_dist_trial,38.0,s_s_12_1,student_stem,robotic arm,6.0,unique,single,s_s_12_1.jpg,Student,,,sub-20
Desktop or Laptop,Windows 10,Firefox 127.0,1280x720,1280x720,Temporal Distance Task,cb_06,87.0,temp_dist_trial,num_items,zn7si1,1.0,response,1_ITEM,667.5799999999873,666.3999999999943,667.5799999999873,667.5799999999873,666.3999999999943,667.5799999999873,1.0,0.0,0.0,,Click Response,1_count,3.0,object-46,temp_dist_trial,39.0,s_sh_06_1,student_shared,clipboard,6.0,competing,paired,s_sh_06_1.jpg,Student,,,sub-20
Desktop or Laptop,Windows 10,Firefox 127.0,1280x720,1280x720,Temporal Distance Task,cb_06,88.0,temp_dist_trial,num_items,zn7si1,1.0,response,2_ITEM,1359.2799999999988,1349.3800000000047,1359.2799999999988,1359.2799999999988,1349.3800000000047,1359.2799999999988,1.0,0.0,0.0,,Click Response,2_count,5.0,object-49,temp_dist_trial,40.0,s_sh_05_1,student_shared,laptop,6.0,competing,single,s_sh_05_1.jpg,Student,,,sub-20
Desktop or Laptop,Windows 10,Firefox 127.0,1280x720,1280x720,Temporal Distance Task,cb_06,88.0,temp_dist_trial,dist_items,qkpkxw,2.0,info,,5.119999999995343,0.0,5.119999999995343,5.119999999995343,0.0,5.119999999995343,1.0,0.0,0.0,,Slider,Slider,4.0,object-56,temp_dist_trial,40.0,s_sh_05_1,student_shared,laptop,6.0,competing,single,s_sh_05_1.jpg,Student,,,sub-20
Desktop or Laptop,Windows 10,Firefox 127.0,1280x720,1280x720,Temporal Distance Task,cb_06,88.0,temp_dist_trial,dist_items,qkpkxw,2.0,continue,,1408.1199999999951,1399.320000000007,1408.1199999999951,1408.1199999999951,1399.320000000007,1408.1199999999951,1.0,0.0,0.0,,Click To Continue,Next button,7.0,object-60,temp_dist_trial,40.0,s_sh_05_1,student_shared,laptop,6.0,competing,single,s_sh_05_1.jpg,Student,,,sub-20
Desktop or Laptop,Windows 10,Firefox 127.0,1280x720,1280x720,Temporal Distance Task,cb_06,88.0,temp_dist_trial,dist_items,qkpkxw,2.0,response,64,666.4400000000022,1399.320000000007,1408.1199999999951,666.4400000000022,1399.320000000007,1408.1199999999951,1.0,741.679999999993,0.0,,Slider,Slider,4.0,object-56,temp_dist_trial,40.0,s_sh_05_1,student_shared,laptop,6.0,competing,single,s_sh_05_1.jpg,Student,,,sub-20
Desktop or Laptop,Windows 10,Firefox 127.0,1280x720,1280x720,Temporal Distance Task,cb_06,89.0,temp_dist_trial,num_items,zn7si1,1.0,response,2_ITEM,1168.7999999999886,1166.2799999999988,1168.7999999999886,1168.7999999999886,1166.2799999999988,1168.7999999999886,1.0,0.0,0.0,,Click Response,2_count,5.0,object-49,temp_dist_trial,41.0,s_sh_14_1,student_shared,printer,6.0,competing,paired,s_sh_14_1.jpg,Student,,,sub-20
Desktop or Laptop,Windows 10,Firefox 127.0,1280x720,1280x720,Temporal Distance Task,cb_06,89.0,temp_dist_trial,dist_items,qkpkxw,2.0,info,,4.619999999995343,0.0,4.619999999995343,4.619999999995343,0.0,4.619999999995343,1.0,0.0,0.0,,Slider,Slider,4.0,object-56,temp_dist_trial,41.0,s_sh_14_1,student_shared,printer,6.0,competing,paired,s_sh_14_1.jpg,Student,,,sub-20
Desktop or Laptop,Windows 10,Firefox 127.0,1280x720,1280x720,Temporal Distance Task,cb_06,89.0,temp_dist_trial,dist_items,qkpkxw,2.0,continue,,1553.6199999999951,1549.2399999999911,1553.6199999999951,1553.6199999999951,1549.2399999999911,1553.6199999999951,1.0,0.0,0.0,,Click To Continue,Next button,7.0,object-60,temp_dist_trial,41.0,s_sh_14_1,student_shared,printer,6.0,competing,paired,s_sh_14_1.jpg,Student,,,sub-20
Desktop or Laptop,Windows 10,Firefox 127.0,1280x720,1280x720,Temporal Distance Task,cb_06,89.0,temp_dist_trial,dist_items,qkpkxw,2.0,response,63,849.4799999999814,1549.2399999999911,1554.6199999999951,849.4799999999814,1549.2399999999911,1554.6199999999951,1.0,705.1400000000142,0.0,,Slider,Slider,4.0,object-56,temp_dist_trial,41.0,s_sh_14_1,student_shared,printer,6.0,competing,paired,s_sh_14_1.jpg,Student,,,sub-20
Desktop or Laptop,Windows 10,Firefox 127.0,1280x720,1280x720,Temporal Distance Task,cb_06,90.0,temp_dist_trial,num_items,zn7si1,1.0,response,1_ITEM,1140.3800000000047,1132.9400000000023,1140.3800000000047,1140.3800000000047,1132.9400000000023,1140.3800000000047,1.0,0.0,0.0,,Click Response,1_count,3.0,object-46,temp_dist_trial,42.0,s_s_05_1,student_stem,lab goggles,6.0,unique,single,s_s_05_1.jpg,Student,,,sub-20
Desktop or Laptop,Windows 10,Firefox 127.0,1280x720,1280x720,Temporal Distance Task,cb_06,91.0,temp_dist_trial,num_items,zn7si1,1.0,response,1_ITEM,1627.7399999999911,1616.0799999999872,1627.7399999999911,1627.7399999999911,1616.0799999999872,1627.7399999999911,1.0,0.0,0.0,,Click Response,1_count,3.0,object-46,temp_dist_trial,43.0,s_sh_16_1,student_shared,stapler,6.0,competing,single,s_sh_16_1.jpg,Student,,,sub-20
Desktop or Laptop,Windows 10,Firefox 127.0,1280x720,1280x720,Temporal Distance Task,cb_06,92.0,temp_dist_trial,num_items,zn7si1,1.0,response,2_ITEM,1211.8800000000047,1199.459999999992,1211.8800000000047,1211.8800000000047,1199.459999999992,1211.8800000000047,1.0,0.0,0.0,,Click Response,2_count,5.0,object-49,temp_dist_trial,44.0,s_sh_20_1,student_shared,tape,6.0,competing,paired,s_sh_20_1.jpg,Student,,,sub-20
Desktop or Laptop,Windows 10,Firefox 127.0,1280x720,1280x720,Temporal Distance Task,cb_06,92.0,temp_dist_trial,dist_items,qkpkxw,2.0,info,,4.519999999989524,0.0,4.519999999989524,4.519999999989524,0.0,4.519999999989524,1.0,0.0,0.0,,Slider,Slider,4.0,object-56,temp_dist_trial,44.0,s_sh_20_1,student_shared,tape,6.0,competing,paired,s_sh_20_1.jpg,Student,,,sub-20
Desktop or Laptop,Windows 10,Firefox 127.0,1280x720,1280x720,Temporal Distance Task,cb_06,92.0,temp_dist_trial,dist_items,qkpkxw,2.0,continue,,1665.5199999999895,1649.2399999999911,1665.5199999999895,1665.5199999999895,1649.2399999999911,1665.5199999999895,1.0,0.0,0.0,,Click To Continue,Next button,7.0,object-60,temp_dist_trial,44.0,s_sh_20_1,student_shared,tape,6.0,competing,paired,s_sh_20_1.jpg,Student,,,sub-20
Desktop or Laptop,Windows 10,Firefox 127.0,1280x720,1280x720,Temporal Distance Task,cb_06,92.0,temp_dist_trial,dist_items,qkpkxw,2.0,response,31,566.4400000000022,1649.2399999999911,1665.5199999999895,566.4400000000022,1649.2399999999911,1665.5199999999895,1.0,1099.0799999999872,0.0,,Slider,Slider,4.0,object-56,temp_dist_trial,44.0,s_sh_20_1,student_shared,tape,6.0,competing,paired,s_sh_20_1.jpg,Student,,,sub-20
Desktop or Laptop,Windows 10,Firefox 127.0,1280x720,1280x720,Temporal Distance Task,cb_06,93.0,temp_dist_trial,num_items,zn7si1,1.0,response,1_ITEM,1025.2799999999988,1016.2999999999884,1025.2799999999988,1025.2799999999988,1016.2999999999884,1025.2799999999988,1.0,0.0,0.0,,Click Response,1_count,3.0,object-46,temp_dist_trial,45.0,s_s_17_1,student_stem,ring stand,6.0,unique,paired,s_s_17_1.jpg,Student,,,sub-20
Desktop or Laptop,Windows 10,Firefox 127.0,1280x720,1280x720,Temporal Distance Task,cb_06,94.0,temp_dist_trial,num_items,zn7si1,1.0,response,2_ITEM,1654.1199999999951,1649.1399999999844,1654.1199999999951,1654.1199999999951,1649.1399999999844,1654.1199999999951,1.0,0.0,0.0,,Click Response,2_count,5.0,object-49,temp_dist_trial,46.0,s_sh_24_1,student_shared,desk organizer,6.0,competing,paired,s_sh_24_1.jpg,Student,,,sub-20
Desktop or Laptop,Windows 10,Firefox 127.0,1280x720,1280x720,Temporal Distance Task,cb_06,94.0,temp_dist_trial,dist_items,qkpkxw,2.0,info,,4.079999999987194,0.0,4.079999999987194,4.079999999987194,0.0,4.079999999987194,1.0,0.0,0.0,,Slider,Slider,4.0,object-56,temp_dist_trial,46.0,s_sh_24_1,student_shared,desk organizer,6.0,competing,paired,s_sh_24_1.jpg,Student,,,sub-20
Desktop or Laptop,Windows 10,Firefox 127.0,1280x720,1280x720,Temporal Distance Task,cb_06,94.0,temp_dist_trial,dist_items,qkpkxw,2.0,continue,,1499.4199999999835,1482.7599999999802,1499.4199999999835,1499.4199999999835,1482.7599999999802,1499.4199999999835,1.0,0.0,0.0,,Click To Continue,Next button,7.0,object-60,temp_dist_trial,46.0,s_sh_24_1,student_shared,desk organizer,6.0,competing,paired,s_sh_24_1.jpg,Student,,,sub-20
Desktop or Laptop,Windows 10,Firefox 127.0,1280x720,1280x720,Temporal Distance Task,cb_06,94.0,temp_dist_trial,dist_items,qkpkxw,2.0,response,42,799.7399999999907,1482.7599999999802,1499.4199999999835,799.7399999999907,1482.7599999999802,1499.4199999999835,1.0,699.679999999993,0.0,,Slider,Slider,4.0,object-56,temp_dist_trial,46.0,s_sh_24_1,student_shared,desk organizer,6.0,competing,paired,s_sh_24_1.jpg,Student,,,sub-20
Desktop or Laptop,Windows 10,Firefox 127.0,1280x720,1280x720,Temporal Distance Task,cb_06,95.0,temp_dist_trial,num_items,zn7si1,1.0,response,2_ITEM,1561.320000000007,1549.2799999999988,1561.320000000007,1561.320000000007,1549.2799999999988,1561.320000000007,1.0,0.0,0.0,,Click Response,2_count,5.0,object-49,temp_dist_trial,47.0,s_s_16_1,student_stem,toolbox,6.0,unique,paired,s_s_16_1.jpg,Student,,,sub-20
Desktop or Laptop,Windows 10,Firefox 127.0,1280x720,1280x720,Temporal Distance Task,cb_06,95.0,temp_dist_trial,dist_items,qkpkxw,2.0,info,,4.119999999995343,0.0,4.119999999995343,4.119999999995343,0.0,4.119999999995343,1.0,0.0,0.0,,Slider,Slider,4.0,object-56,temp_dist_trial,47.0,s_s_16_1,student_stem,toolbox,6.0,unique,paired,s_s_16_1.jpg,Student,,,sub-20
Desktop or Laptop,Windows 10,Firefox 127.0,1280x720,1280x720,Temporal Distance Task,cb_06,95.0,temp_dist_trial,dist_items,qkpkxw,2.0,continue,,1282.1199999999953,1266.0799999999872,1282.1199999999953,1282.1199999999953,1266.0799999999872,1282.1199999999953,1.0,0.0,0.0,,Click To Continue,Next button,7.0,object-60,temp_dist_trial,47.0,s_s_16_1,student_stem,toolbox,6.0,unique,paired,s_s_16_1.jpg,Student,,,sub-20
Desktop or Laptop,Windows 10,Firefox 127.0,1280x720,1280x720,Temporal Distance Task,cb_06,95.0,temp_dist_trial,dist_items,qkpkxw,2.0,response,33,599.679999999993,1266.0799999999872,1282.7399999999907,599.679999999993,1266.0799999999872,1282.7399999999907,1.0,683.0599999999978,0.0,,Slider,Slider,4.0,object-56,temp_dist_trial,47.0,s_s_16_1,student_stem,toolbox,6.0,unique,paired,s_s_16_1.jpg,Student,,,sub-20
Desktop or Laptop,Windows 10,Firefox 127.0,1280x720,1280x720,Temporal Distance Task,cb_06,96.0,temp_dist_trial,num_items,zn7si1,1.0,response,1_ITEM,1032.040000000008,1016.2600000000093,1032.040000000008,1032.040000000008,1016.2600000000093,1032.040000000008,1.0,0.0,0.0,,Click Response,1_count,3.0,object-46,temp_dist_trial,48.0,s_a_04_1,student_art,easel,6.0,unique,single,s_a_04_1.jpg,Student,,,sub-20
Desktop or Laptop,Windows 10,Firefox 127.0,1280x720,1280x720,Temporal Distance Task,$${counterbalance_group},,,,,,info,END,,,235057.0,,,,0.0,,,,,,,,,,,,,,,,,,,,sub-20
