Participant Device,Participant OS,Participant Browser,Participant Monitor Size,Participant Viewport Size,Task Name,Current Spreadsheet,Trial Number,Display,Screen,Screen ID,Screen Counter,Response Type,Response,Onset Time,Clock Time,Reaction Time,Absolute Onset Time,Absolute Clock Time,Absolute Reaction Time,Correct,Response Duration,Proportion,Tag,Component Name,Object Name,Object Number,Object ID,Spreadsheet: display,Spreadsheet: trial,Spreadsheet: stimulus_id,Spreadsheet: expected_goal,Spreadsheet: stimulus_name,Spreadsheet: c_group,Spreadsheet: condition,Spreadsheet: paired_status,Spreadsheet: stimulus_path,Spreadsheet: block_type,Manipulation: Spreadsheet,Store: enc_test_acc,sub_label
Desktop or Laptop,Windows 10,Chrome 137.0.0.0,1366x768,1366x768,Temporal Distance Task,$${counterbalance_group},,,,,,info,BEGIN,,,,,,,0.0,,,,,,,,,,,,,,,,,,,,sub-03
Desktop or Laptop,Windows 10,Chrome 137.0.0.0,1366x768,1366x768,Temporal Distance Task,cb_02,1.0,temp_instructions,intro_screen,3tnme7,1.0,continue,,35669.8,35658.200000000004,35669.8,35669.8,35658.200000000004,35669.8,1.0,0.0,0.0,,Click To Continue,Continue Button,4.0,object-29,temp_instructions,,,Travel,,,,,,,,,sub-03
Desktop or Laptop,Windows 10,Chrome 137.0.0.0,1366x768,1366x768,Temporal Distance Task,cb_02,1.0,temp_instructions,intro_screen_2,52v7ur,2.0,continue,,58082.199999964236,58079.9,58082.199999964236,58082.199999964236,58079.9,58082.199999964236,1.0,0.0,0.0,,Click To Continue,Continue Button,4.0,object-39,temp_instructions,,,Travel,,,,,,,,,sub-03
Desktop or Laptop,Windows 10,Chrome 137.0.0.0,1366x768,1366x768,Temporal Distance Task,cb_02,1.0,temp_instructions,intro_screen_3,i7lvwx,3.0,continue,,33637.39999998808,33624.499999999985,33637.39999998808,33637.39999998808,33624.499999999985,33637.39999998808,1.0,0.0,0.0,,Click To Continue,Continue Button,4.0,object-67,temp_instructions,,,Travel,,,,,,,,,sub-03
Desktop or Laptop,Windows 10,Chrome 137.0.0.0,1366x768,1366x768,Temporal Distance Task,cb_02,1.0,temp_instructions,test_q1,5ieqx1,4.0,response,choice_3,39656.39999998808,39642.400000000016,39656.39999998808,39656.39999998808,39642.400000000016,39656.39999998808,1.0,0.0,0.0,,Click Response,choice_3,5.0,object-345,temp_instructions,,,Travel,,,,,,,,,sub-03
Desktop or Laptop,Windows 10,Chrome 137.0.0.0,1366x768,1366x768,Temporal Distance Task,cb_02,1.0,temp_instructions,score_corr,7ilvjr,5.0,continue,,2722.7999999999884,2717.2999999999884,2722.7999999999884,2722.7999999999884,2717.2999999999884,2722.7999999999884,1.0,0.0,0.0,,Click To Continue,Continue Button,3.0,object-23,temp_instructions,,,Travel,,,,,,,,,sub-03
Desktop or Laptop,Windows 10,Chrome 137.0.0.0,1366x768,1366x768,Temporal Distance Task,cb_02,1.0,temp_eventStart,Screen 1,dgtyxe,1.0,continue,,7859.300000011923,7851.899999999994,7859.300000011923,7859.300000011923,7851.899999999994,7859.300000011923,1.0,0.0,0.0,,Click To Continue,Next Button,3.0,object-43,temp_eventStart,,,Travel,,,,,,,,,sub-03
Desktop or Laptop,Windows 10,Chrome 137.0.0.0,1366x768,1366x768,Temporal Distance Task,cb_02,1.0,temp_dist_trial,num_items,zn7si1,1.0,response,num_miss,3000.800000000017,3000.800000000017,3000.800000000017,3000.800000000017,3000.800000000017,3000.800000000017,1.0,0.0,0.0,num_miss_tag,Time Limit,screen,0.0,screen,temp_dist_trial,1.0,t_s_02_1,travel_shared,water bottle,2.0,competing,single,t_s_02_1.jpg,Travel,,,sub-03
Desktop or Laptop,Windows 10,Chrome 137.0.0.0,1366x768,1366x768,Temporal Distance Task,cb_02,2.0,temp_dist_trial,num_items,zn7si1,1.0,response,2_ITEM,283.0,266.6000000000058,283.0,283.0,266.6000000000058,283.0,1.0,0.0,0.0,,Click Response,2_count,5.0,object-49,temp_dist_trial,2.0,t_s_11_1,travel_shared,eye mask,2.0,competing,paired,t_s_11_1.jpg,Travel,,,sub-03
Desktop or Laptop,Windows 10,Chrome 137.0.0.0,1366x768,1366x768,Temporal Distance Task,cb_02,2.0,temp_dist_trial,dist_items,qkpkxw,2.0,info,,9.00000001193257,0.0,9.00000001193257,9.00000001193257,0.0,9.00000001193257,1.0,0.0,0.0,,Slider,Slider,4.0,object-56,temp_dist_trial,2.0,t_s_11_1,travel_shared,eye mask,2.0,competing,paired,t_s_11_1.jpg,Travel,,,sub-03
Desktop or Laptop,Windows 10,Chrome 137.0.0.0,1366x768,1366x768,Temporal Distance Task,cb_02,2.0,temp_dist_trial,dist_items,qkpkxw,2.0,response,dist_miss,7001.7000000000135,7001.7000000000135,7001.7000000000135,7001.7000000000135,7001.7000000000135,7001.7000000000135,1.0,0.0,0.0,dist_miss_tag,Time Limit,screen,0.0,screen,temp_dist_trial,2.0,t_s_11_1,travel_shared,eye mask,2.0,competing,paired,t_s_11_1.jpg,Travel,,,sub-03
Desktop or Laptop,Windows 10,Chrome 137.0.0.0,1366x768,1366x768,Temporal Distance Task,cb_02,2.0,temp_dist_trial,dist_items,qkpkxw,2.0,response,,7008.799999964249,7001.7000000000135,7008.799999964249,7008.799999964249,7001.7000000000135,7008.799999964249,1.0,0.0,0.0,,Slider,Slider,4.0,object-56,temp_dist_trial,2.0,t_s_11_1,travel_shared,eye mask,2.0,competing,paired,t_s_11_1.jpg,Travel,,,sub-03
Desktop or Laptop,Windows 10,Chrome 137.0.0.0,1366x768,1366x768,Temporal Distance Task,cb_02,3.0,temp_dist_trial,num_items,zn7si1,1.0,response,num_miss,3000.6000000000067,3000.6000000000067,3000.6000000000067,3000.6000000000067,3000.6000000000067,3000.6000000000067,1.0,0.0,0.0,num_miss_tag,Time Limit,screen,0.0,screen,temp_dist_trial,3.0,t_s_21_1,travel_shared,umbrella,2.0,competing,single,t_s_21_1.jpg,Travel,,,sub-03
Desktop or Laptop,Windows 10,Chrome 137.0.0.0,1366x768,1366x768,Temporal Distance Task,cb_02,4.0,temp_dist_trial,num_items,zn7si1,1.0,response,1_ITEM,755.6999999880791,750.2000000000116,755.6999999880791,755.6999999880791,750.2000000000116,755.6999999880791,1.0,0.0,0.0,,Click Response,1_count,3.0,object-46,temp_dist_trial,4.0,t_m_18_1,travel_Miami,waterproof tote,2.0,unique,paired,t_m_18_1.jpg,Travel,,,sub-03
Desktop or Laptop,Windows 10,Chrome 137.0.0.0,1366x768,1366x768,Temporal Distance Task,cb_02,5.0,temp_dist_trial,num_items,zn7si1,1.0,response,2_ITEM,1681.4999999642316,1667.1000000000058,1681.4999999642316,1681.4999999642316,1667.1000000000058,1681.4999999642316,1.0,0.0,0.0,,Click Response,2_count,5.0,object-49,temp_dist_trial,5.0,t_i_15_1,travel_Iceland,compass,2.0,unique,paired,t_i_15_1.jpg,Travel,,,sub-03
Desktop or Laptop,Windows 10,Chrome 137.0.0.0,1366x768,1366x768,Temporal Distance Task,cb_02,5.0,temp_dist_trial,dist_items,qkpkxw,2.0,info,,12.900000011926751,0.0,12.900000011926751,12.900000011926751,0.0,12.900000011926751,1.0,0.0,0.0,,Slider,Slider,4.0,object-56,temp_dist_trial,5.0,t_i_15_1,travel_Iceland,compass,2.0,unique,paired,t_i_15_1.jpg,Travel,,,sub-03
Desktop or Laptop,Windows 10,Chrome 137.0.0.0,1366x768,1366x768,Temporal Distance Task,cb_02,5.0,temp_dist_trial,dist_items,qkpkxw,2.0,continue,,5080.100000000006,5067.700000000013,5080.100000000006,5080.100000000006,5067.700000000013,5080.100000000006,1.0,0.0,0.0,,Click To Continue,Next button,7.0,object-60,temp_dist_trial,5.0,t_i_15_1,travel_Iceland,compass,2.0,unique,paired,t_i_15_1.jpg,Travel,,,sub-03
Desktop or Laptop,Windows 10,Chrome 137.0.0.0,1366x768,1366x768,Temporal Distance Task,cb_02,5.0,temp_dist_trial,dist_items,qkpkxw,2.0,response,61,1750.2000000000116,5067.700000000013,5084.3000000000175,1750.2000000000116,5067.700000000013,5084.3000000000175,1.0,3334.1000000000067,0.0,,Slider,Slider,4.0,object-56,temp_dist_trial,5.0,t_i_15_1,travel_Iceland,compass,2.0,unique,paired,t_i_15_1.jpg,Travel,,,sub-03
Desktop or Laptop,Windows 10,Chrome 137.0.0.0,1366x768,1366x768,Temporal Distance Task,cb_02,6.0,temp_dist_trial,num_items,zn7si1,1.0,response,2_ITEM,1783.8000000000175,1767.1000000000058,1783.8000000000175,1783.8000000000175,1767.1000000000058,1783.8000000000175,1.0,0.0,0.0,,Click Response,2_count,5.0,object-49,temp_dist_trial,6.0,t_s_09_1,travel_shared,wallet,2.0,competing,single,t_s_09_1.jpg,Travel,,,sub-03
Desktop or Laptop,Windows 10,Chrome 137.0.0.0,1366x768,1366x768,Temporal Distance Task,cb_02,6.0,temp_dist_trial,dist_items,qkpkxw,2.0,info,,15.100000011909287,0.0,15.100000011909287,15.100000011909287,0.0,15.100000011909287,1.0,0.0,0.0,,Slider,Slider,4.0,object-56,temp_dist_trial,6.0,t_s_09_1,travel_shared,wallet,2.0,competing,single,t_s_09_1.jpg,Travel,,,sub-03
Desktop or Laptop,Windows 10,Chrome 137.0.0.0,1366x768,1366x768,Temporal Distance Task,cb_02,6.0,temp_dist_trial,dist_items,qkpkxw,2.0,continue,,4761.3999999642265,4751.1999999999825,4761.3999999642265,4761.3999999642265,4751.1999999999825,4761.3999999642265,1.0,0.0,0.0,,Click To Continue,Next button,7.0,object-60,temp_dist_trial,6.0,t_s_09_1,travel_shared,wallet,2.0,competing,single,t_s_09_1.jpg,Travel,,,sub-03
Desktop or Laptop,Windows 10,Chrome 137.0.0.0,1366x768,1366x768,Temporal Distance Task,cb_02,6.0,temp_dist_trial,dist_items,qkpkxw,2.0,response,58,2967.2999999999884,4751.1999999999825,4762.600000011909,2967.2999999999884,4751.1999999999825,4762.600000011909,1.0,1795.3000000119214,0.0,,Slider,Slider,4.0,object-56,temp_dist_trial,6.0,t_s_09_1,travel_shared,wallet,2.0,competing,single,t_s_09_1.jpg,Travel,,,sub-03
Desktop or Laptop,Windows 10,Chrome 137.0.0.0,1366x768,1366x768,Temporal Distance Task,cb_02,7.0,temp_dist_trial,num_items,zn7si1,1.0,response,2_ITEM,2956.299999988085,2950.700000000012,2956.299999988085,2956.299999988085,2950.700000000012,2956.299999988085,1.0,0.0,0.0,,Click Response,2_count,5.0,object-49,temp_dist_trial,7.0,t_s_18_1,travel_shared,first aid kit,2.0,competing,paired,t_s_18_1.jpg,Travel,,,sub-03
Desktop or Laptop,Windows 10,Chrome 137.0.0.0,1366x768,1366x768,Temporal Distance Task,cb_02,7.0,temp_dist_trial,dist_items,qkpkxw,2.0,info,,16.700000000011638,0.0,16.700000000011638,16.700000000011638,0.0,16.700000000011638,1.0,0.0,0.0,,Slider,Slider,4.0,object-56,temp_dist_trial,7.0,t_s_18_1,travel_shared,first aid kit,2.0,competing,paired,t_s_18_1.jpg,Travel,,,sub-03
Desktop or Laptop,Windows 10,Chrome 137.0.0.0,1366x768,1366x768,Temporal Distance Task,cb_02,7.0,temp_dist_trial,dist_items,qkpkxw,2.0,continue,,3665.4999999642323,3650.799999999989,3665.4999999642323,3665.4999999642323,3650.799999999989,3665.4999999642323,1.0,0.0,0.0,,Click To Continue,Next button,7.0,object-60,temp_dist_trial,7.0,t_s_18_1,travel_shared,first aid kit,2.0,competing,paired,t_s_18_1.jpg,Travel,,,sub-03
Desktop or Laptop,Windows 10,Chrome 137.0.0.0,1366x768,1366x768,Temporal Distance Task,cb_02,7.0,temp_dist_trial,dist_items,qkpkxw,2.0,response,65,2033.8999999999944,3650.799999999989,3667.299999999989,2033.8999999999944,3650.799999999989,3667.299999999989,1.0,1633.3999999999942,0.0,,Slider,Slider,4.0,object-56,temp_dist_trial,7.0,t_s_18_1,travel_shared,first aid kit,2.0,competing,paired,t_s_18_1.jpg,Travel,,,sub-03
Desktop or Laptop,Windows 10,Chrome 137.0.0.0,1366x768,1366x768,Temporal Distance Task,cb_02,8.0,temp_dist_trial,num_items,zn7si1,1.0,response,2_ITEM,2563.9000000119267,2550.700000000012,2563.9000000119267,2563.9000000119267,2550.700000000012,2563.9000000119267,1.0,0.0,0.0,,Click Response,2_count,5.0,object-49,temp_dist_trial,8.0,t_s_16_1,travel_shared,chapstick,2.0,competing,single,t_s_16_1.jpg,Travel,,,sub-03
Desktop or Laptop,Windows 10,Chrome 137.0.0.0,1366x768,1366x768,Temporal Distance Task,cb_02,8.0,temp_dist_trial,dist_items,qkpkxw,2.0,info,,15.499999964231396,0.0,15.499999964231396,15.499999964231396,0.0,15.499999964231396,1.0,0.0,0.0,,Slider,Slider,4.0,object-56,temp_dist_trial,8.0,t_s_16_1,travel_shared,chapstick,2.0,competing,single,t_s_16_1.jpg,Travel,,,sub-03
Desktop or Laptop,Windows 10,Chrome 137.0.0.0,1366x768,1366x768,Temporal Distance Task,cb_02,8.0,temp_dist_trial,dist_items,qkpkxw,2.0,continue,,6617.599999988072,6601.5,6617.599999988072,6617.599999988072,6601.5,6617.599999988072,1.0,0.0,0.0,,Click To Continue,Next button,7.0,object-60,temp_dist_trial,8.0,t_s_16_1,travel_shared,chapstick,2.0,competing,single,t_s_16_1.jpg,Travel,,,sub-03
Desktop or Laptop,Windows 10,Chrome 137.0.0.0,1366x768,1366x768,Temporal Distance Task,cb_02,8.0,temp_dist_trial,dist_items,qkpkxw,2.0,response,36,4300.799999999987,6601.5,6617.999999964231,4300.799999999987,6601.5,6617.999999964231,1.0,2317.199999964243,0.0,,Slider,Slider,4.0,object-56,temp_dist_trial,8.0,t_s_16_1,travel_shared,chapstick,2.0,competing,single,t_s_16_1.jpg,Travel,,,sub-03
Desktop or Laptop,Windows 10,Chrome 137.0.0.0,1366x768,1366x768,Temporal Distance Task,cb_02,9.0,temp_dist_trial,num_items,zn7si1,1.0,response,num_miss,3000.699999999982,3000.699999999982,3000.699999999982,3000.699999999982,3000.699999999982,3000.699999999982,1.0,0.0,0.0,num_miss_tag,Time Limit,screen,0.0,screen,temp_dist_trial,9.0,t_m_01_1,travel_Miami,sandals,2.0,unique,paired,t_m_01_1.jpg,Travel,,,sub-03
Desktop or Laptop,Windows 10,Chrome 137.0.0.0,1366x768,1366x768,Temporal Distance Task,cb_02,10.0,temp_dist_trial,num_items,zn7si1,1.0,response,2_ITEM,362.9999999880674,350.0,362.9999999880674,362.9999999880674,350.0,362.9999999880674,1.0,0.0,0.0,,Click Response,2_count,5.0,object-49,temp_dist_trial,10.0,t_i_20_1,travel_Iceland,lantern,2.0,unique,paired,t_i_20_1.jpg,Travel,,,sub-03
Desktop or Laptop,Windows 10,Chrome 137.0.0.0,1366x768,1366x768,Temporal Distance Task,cb_02,10.0,temp_dist_trial,dist_items,qkpkxw,2.0,info,,13.099999976169784,0.0,13.099999976169784,13.099999976169784,0.0,13.099999976169784,1.0,0.0,0.0,,Slider,Slider,4.0,object-56,temp_dist_trial,10.0,t_i_20_1,travel_Iceland,lantern,2.0,unique,paired,t_i_20_1.jpg,Travel,,,sub-03
Desktop or Laptop,Windows 10,Chrome 137.0.0.0,1366x768,1366x768,Temporal Distance Task,cb_02,10.0,temp_dist_trial,dist_items,qkpkxw,2.0,continue,,3257.2999999642493,3250.800000000017,3257.2999999642493,3257.2999999642493,3250.800000000017,3257.2999999642493,1.0,0.0,0.0,,Click To Continue,Next button,7.0,object-60,temp_dist_trial,10.0,t_i_20_1,travel_Iceland,lantern,2.0,unique,paired,t_i_20_1.jpg,Travel,,,sub-03
Desktop or Laptop,Windows 10,Chrome 137.0.0.0,1366x768,1366x768,Temporal Distance Task,cb_02,10.0,temp_dist_trial,dist_items,qkpkxw,2.0,response,58,2000.6000000000056,3250.800000000017,3257.700000000012,2000.6000000000056,3250.800000000017,3257.700000000012,1.0,1257.1000000000058,0.0,,Slider,Slider,4.0,object-56,temp_dist_trial,10.0,t_i_20_1,travel_Iceland,lantern,2.0,unique,paired,t_i_20_1.jpg,Travel,,,sub-03
Desktop or Laptop,Windows 10,Chrome 137.0.0.0,1366x768,1366x768,Temporal Distance Task,cb_02,11.0,temp_dist_trial,num_items,zn7si1,1.0,response,2_ITEM,1323.9999999642316,1317.0,1323.9999999642316,1323.9999999642316,1317.0,1323.9999999642316,1.0,0.0,0.0,,Click Response,2_count,5.0,object-49,temp_dist_trial,11.0,t_s_07_1,travel_shared,phone charger cable,2.0,competing,paired,t_s_07_1.jpg,Travel,,,sub-03
Desktop or Laptop,Windows 10,Chrome 137.0.0.0,1366x768,1366x768,Temporal Distance Task,cb_02,11.0,temp_dist_trial,dist_items,qkpkxw,2.0,info,,6.799999976152321,0.0,6.799999976152321,6.799999976152321,0.0,6.799999976152321,1.0,0.0,0.0,,Slider,Slider,4.0,object-56,temp_dist_trial,11.0,t_s_07_1,travel_shared,phone charger cable,2.0,competing,paired,t_s_07_1.jpg,Travel,,,sub-03
Desktop or Laptop,Windows 10,Chrome 137.0.0.0,1366x768,1366x768,Temporal Distance Task,cb_02,11.0,temp_dist_trial,dist_items,qkpkxw,2.0,continue,,4267.8000000000175,4251.100000000006,4267.8000000000175,4267.8000000000175,4251.100000000006,4267.8000000000175,1.0,0.0,0.0,,Click To Continue,Next button,7.0,object-60,temp_dist_trial,11.0,t_s_07_1,travel_shared,phone charger cable,2.0,competing,paired,t_s_07_1.jpg,Travel,,,sub-03
Desktop or Laptop,Windows 10,Chrome 137.0.0.0,1366x768,1366x768,Temporal Distance Task,cb_02,11.0,temp_dist_trial,dist_items,qkpkxw,2.0,response,64,2884.0,4251.100000000006,4267.8000000000175,2884.0,4251.100000000006,4267.8000000000175,1.0,1383.8000000000175,0.0,,Slider,Slider,4.0,object-56,temp_dist_trial,11.0,t_s_07_1,travel_shared,phone charger cable,2.0,competing,paired,t_s_07_1.jpg,Travel,,,sub-03
Desktop or Laptop,Windows 10,Chrome 137.0.0.0,1366x768,1366x768,Temporal Distance Task,cb_02,12.0,temp_dist_trial,num_items,zn7si1,1.0,response,2_ITEM,1624.7999999999884,1617.0,1624.7999999999884,1624.7999999999884,1617.0,1624.7999999999884,1.0,0.0,0.0,,Click Response,2_count,5.0,object-49,temp_dist_trial,12.0,t_s_01_1,travel_shared,fanny pack,2.0,competing,paired,t_s_01_1.jpg,Travel,,,sub-03
Desktop or Laptop,Windows 10,Chrome 137.0.0.0,1366x768,1366x768,Temporal Distance Task,cb_02,12.0,temp_dist_trial,dist_items,qkpkxw,2.0,info,,13.49999998806743,0.0,13.49999998806743,13.49999998806743,0.0,13.49999998806743,1.0,0.0,0.0,,Slider,Slider,4.0,object-56,temp_dist_trial,12.0,t_s_01_1,travel_shared,fanny pack,2.0,competing,paired,t_s_01_1.jpg,Travel,,,sub-03
Desktop or Laptop,Windows 10,Chrome 137.0.0.0,1366x768,1366x768,Temporal Distance Task,cb_02,12.0,temp_dist_trial,dist_items,qkpkxw,2.0,continue,,3253.8999999642256,3250.7999999999884,3253.8999999642256,3253.8999999642256,3250.7999999999884,3253.8999999642256,1.0,0.0,0.0,,Click To Continue,Next button,7.0,object-60,temp_dist_trial,12.0,t_s_01_1,travel_shared,fanny pack,2.0,competing,paired,t_s_01_1.jpg,Travel,,,sub-03
Desktop or Laptop,Windows 10,Chrome 137.0.0.0,1366x768,1366x768,Temporal Distance Task,cb_02,12.0,temp_dist_trial,dist_items,qkpkxw,2.0,response,36,1867.0999999999767,3250.7999999999884,3254.699999976146,1867.0999999999767,3250.7999999999884,3254.699999976146,1.0,1387.5999999761698,0.0,,Slider,Slider,4.0,object-56,temp_dist_trial,12.0,t_s_01_1,travel_shared,fanny pack,2.0,competing,paired,t_s_01_1.jpg,Travel,,,sub-03
Desktop or Laptop,Windows 10,Chrome 137.0.0.0,1366x768,1366x768,Temporal Distance Task,cb_02,13.0,temp_dist_trial,num_items,zn7si1,1.0,response,2_ITEM,2153.800000011921,2150.3999999999937,2153.800000011921,2153.800000011921,2150.3999999999937,2153.800000011921,1.0,0.0,0.0,,Click Response,2_count,5.0,object-49,temp_dist_trial,13.0,t_m_12_1,travel_Miami,foldable pail and shovel,2.0,unique,paired,t_m_12_1.jpg,Travel,,,sub-03
Desktop or Laptop,Windows 10,Chrome 137.0.0.0,1366x768,1366x768,Temporal Distance Task,cb_02,13.0,temp_dist_trial,dist_items,qkpkxw,2.0,info,,15.0,0.0,15.0,15.0,0.0,15.0,1.0,0.0,0.0,,Slider,Slider,4.0,object-56,temp_dist_trial,13.0,t_m_12_1,travel_Miami,foldable pail and shovel,2.0,unique,paired,t_m_12_1.jpg,Travel,,,sub-03
Desktop or Laptop,Windows 10,Chrome 137.0.0.0,1366x768,1366x768,Temporal Distance Task,cb_02,13.0,temp_dist_trial,dist_items,qkpkxw,2.0,continue,,5948.199999988077,5934.7000000000135,5948.199999988077,5948.199999988077,5934.7000000000135,5948.199999988077,1.0,0.0,0.0,,Click To Continue,Next button,7.0,object-60,temp_dist_trial,13.0,t_m_12_1,travel_Miami,foldable pail and shovel,2.0,unique,paired,t_m_12_1.jpg,Travel,,,sub-03
Desktop or Laptop,Windows 10,Chrome 137.0.0.0,1366x768,1366x768,Temporal Distance Task,cb_02,13.0,temp_dist_trial,dist_items,qkpkxw,2.0,response,44,4784.5,5934.7000000000135,5951.400000000023,4784.5,5934.7000000000135,5951.400000000023,1.0,1166.9000000000233,0.0,,Slider,Slider,4.0,object-56,temp_dist_trial,13.0,t_m_12_1,travel_Miami,foldable pail and shovel,2.0,unique,paired,t_m_12_1.jpg,Travel,,,sub-03
Desktop or Laptop,Windows 10,Chrome 137.0.0.0,1366x768,1366x768,Temporal Distance Task,cb_02,14.0,temp_dist_trial,num_items,zn7si1,1.0,response,2_ITEM,1328.4999999880674,1317.0999999999767,1328.4999999880674,1328.4999999880674,1317.0999999999767,1328.4999999880674,1.0,0.0,0.0,,Click Response,2_count,5.0,object-49,temp_dist_trial,14.0,t_i_14_1,travel_Iceland,snow pants,2.0,unique,single,t_i_14_1.jpg,Travel,,,sub-03
Desktop or Laptop,Windows 10,Chrome 137.0.0.0,1366x768,1366x768,Temporal Distance Task,cb_02,14.0,temp_dist_trial,dist_items,qkpkxw,2.0,info,,7.50000001193257,0.0,7.50000001193257,7.50000001193257,0.0,7.50000001193257,1.0,0.0,0.0,,Slider,Slider,4.0,object-56,temp_dist_trial,14.0,t_i_14_1,travel_Iceland,snow pants,2.0,unique,single,t_i_14_1.jpg,Travel,,,sub-03
Desktop or Laptop,Windows 10,Chrome 137.0.0.0,1366x768,1366x768,Temporal Distance Task,cb_02,14.0,temp_dist_trial,dist_items,qkpkxw,2.0,continue,,5601.3000000000475,5584.600000000036,5601.3000000000475,5601.3000000000475,5584.600000000036,5601.3000000000475,1.0,0.0,0.0,,Click To Continue,Next button,7.0,object-60,temp_dist_trial,14.0,t_i_14_1,travel_Iceland,snow pants,2.0,unique,single,t_i_14_1.jpg,Travel,,,sub-03
Desktop or Laptop,Windows 10,Chrome 137.0.0.0,1366x768,1366x768,Temporal Distance Task,cb_02,14.0,temp_dist_trial,dist_items,qkpkxw,2.0,response,34,4184.3000000000175,5584.600000000036,5601.3000000000475,4184.3000000000175,5584.600000000036,5601.3000000000475,1.0,1417.000000000029,0.0,,Slider,Slider,4.0,object-56,temp_dist_trial,14.0,t_i_14_1,travel_Iceland,snow pants,2.0,unique,single,t_i_14_1.jpg,Travel,,,sub-03
Desktop or Laptop,Windows 10,Chrome 137.0.0.0,1366x768,1366x768,Temporal Distance Task,cb_02,15.0,temp_dist_trial,num_items,zn7si1,1.0,response,2_ITEM,2026.799999988056,2017.1999999999528,2026.799999988056,2026.799999988056,2017.1999999999528,2026.799999988056,1.0,0.0,0.0,,Click Response,2_count,5.0,object-49,temp_dist_trial,15.0,t_s_04_1,travel_shared,instant camera,2.0,competing,paired,t_s_04_1.jpg,Travel,,,sub-03
Desktop or Laptop,Windows 10,Chrome 137.0.0.0,1366x768,1366x768,Temporal Distance Task,cb_02,15.0,temp_dist_trial,dist_items,qkpkxw,2.0,info,,16.699999999953434,0.0,16.699999999953434,16.699999999953434,0.0,16.699999999953434,1.0,0.0,0.0,,Slider,Slider,4.0,object-56,temp_dist_trial,15.0,t_s_04_1,travel_shared,instant camera,2.0,competing,paired,t_s_04_1.jpg,Travel,,,sub-03
Desktop or Laptop,Windows 10,Chrome 137.0.0.0,1366x768,1366x768,Temporal Distance Task,cb_02,15.0,temp_dist_trial,dist_items,qkpkxw,2.0,continue,,2903.299999976181,2900.5,2903.299999976181,2903.299999976181,2900.5,2903.299999976181,1.0,0.0,0.0,,Click To Continue,Next button,7.0,object-60,temp_dist_trial,15.0,t_s_04_1,travel_shared,instant camera,2.0,competing,paired,t_s_04_1.jpg,Travel,,,sub-03
Desktop or Laptop,Windows 10,Chrome 137.0.0.0,1366x768,1366x768,Temporal Distance Task,cb_02,15.0,temp_dist_trial,dist_items,qkpkxw,2.0,response,64,1883.7000000000119,2900.5,2906.5999999881024,1883.7000000000119,2900.5,2906.5999999881024,1.0,1022.8999999880908,0.0,,Slider,Slider,4.0,object-56,temp_dist_trial,15.0,t_s_04_1,travel_shared,instant camera,2.0,competing,paired,t_s_04_1.jpg,Travel,,,sub-03
Desktop or Laptop,Windows 10,Chrome 137.0.0.0,1366x768,1366x768,Temporal Distance Task,cb_02,16.0,temp_dist_trial,num_items,zn7si1,1.0,response,2_ITEM,1729.7999999761817,1717.1000000000354,1729.7999999761817,1729.7999999761817,1717.1000000000354,1729.7999999761817,1.0,0.0,0.0,,Click Response,2_count,5.0,object-49,temp_dist_trial,16.0,t_i_16_1,travel_Iceland,skis,2.0,unique,single,t_i_16_1.jpg,Travel,,,sub-03
Desktop or Laptop,Windows 10,Chrome 137.0.0.0,1366x768,1366x768,Temporal Distance Task,cb_02,16.0,temp_dist_trial,dist_items,qkpkxw,2.0,info,,6.8999999880907135,0.0,6.8999999880907135,6.8999999880907135,0.0,6.8999999880907135,1.0,0.0,0.0,,Slider,Slider,4.0,object-56,temp_dist_trial,16.0,t_i_16_1,travel_Iceland,skis,2.0,unique,single,t_i_16_1.jpg,Travel,,,sub-03
Desktop or Laptop,Windows 10,Chrome 137.0.0.0,1366x768,1366x768,Temporal Distance Task,cb_02,16.0,temp_dist_trial,dist_items,qkpkxw,2.0,continue,,3590.0999999761707,3584.100000000035,3590.0999999761707,3590.0999999761707,3584.100000000035,3590.0999999761707,1.0,0.0,0.0,,Click To Continue,Next button,7.0,object-60,temp_dist_trial,16.0,t_i_16_1,travel_Iceland,skis,2.0,unique,single,t_i_16_1.jpg,Travel,,,sub-03
Desktop or Laptop,Windows 10,Chrome 137.0.0.0,1366x768,1366x768,Temporal Distance Task,cb_02,16.0,temp_dist_trial,dist_items,qkpkxw,2.0,response,23,2083.7999999999884,3584.100000000035,3590.8999999880907,2083.7999999999884,3584.100000000035,3590.8999999880907,1.0,1507.0999999881024,0.0,,Slider,Slider,4.0,object-56,temp_dist_trial,16.0,t_i_16_1,travel_Iceland,skis,2.0,unique,single,t_i_16_1.jpg,Travel,,,sub-03
Desktop or Laptop,Windows 10,Chrome 137.0.0.0,1366x768,1366x768,Temporal Distance Task,cb_02,17.0,temp_dist_trial,num_items,zn7si1,1.0,response,1_ITEM,2050.4000000000233,2033.7999999999884,2050.4000000000233,2050.4000000000233,2033.7999999999884,2050.4000000000233,1.0,0.0,0.0,,Click Response,1_count,3.0,object-46,temp_dist_trial,17.0,t_m_08_1,travel_Miami,flipflops,2.0,unique,single,t_m_08_1.jpg,Travel,,,sub-03
Desktop or Laptop,Windows 10,Chrome 137.0.0.0,1366x768,1366x768,Temporal Distance Task,cb_02,18.0,temp_dist_trial,num_items,zn7si1,1.0,response,1_ITEM,2210.1999999761465,2200.5999999999767,2210.1999999761465,2210.1999999761465,2200.5999999999767,2210.1999999761465,1.0,0.0,0.0,,Click Response,1_count,3.0,object-46,temp_dist_trial,18.0,t_i_19_1,travel_Iceland,rope,2.0,unique,paired,t_i_19_1.jpg,Travel,,,sub-03
Desktop or Laptop,Windows 10,Chrome 137.0.0.0,1366x768,1366x768,Temporal Distance Task,cb_02,19.0,temp_dist_trial,num_items,zn7si1,1.0,response,num_miss,3000.699999999953,3000.699999999953,3000.699999999953,3000.699999999953,3000.699999999953,3000.699999999953,1.0,0.0,0.0,num_miss_tag,Time Limit,screen,0.0,screen,temp_dist_trial,19.0,t_i_04_1,travel_Iceland,portable camping stove,2.0,unique,single,t_i_04_1.jpg,Travel,,,sub-03
Desktop or Laptop,Windows 10,Chrome 137.0.0.0,1366x768,1366x768,Temporal Distance Task,cb_02,20.0,temp_dist_trial,num_items,zn7si1,1.0,response,1_ITEM,961.199999964214,950.2999999999884,961.199999964214,961.199999964214,950.2999999999884,961.199999964214,1.0,0.0,0.0,,Click Response,1_count,3.0,object-46,temp_dist_trial,20.0,t_s_06_1,travel_shared,luggage,2.0,competing,single,t_s_06_1.jpg,Travel,,,sub-03
Desktop or Laptop,Windows 10,Chrome 137.0.0.0,1366x768,1366x768,Temporal Distance Task,cb_02,21.0,temp_dist_trial,num_items,zn7si1,1.0,response,2_ITEM,1846.8999999880907,1833.7000000000119,1846.8999999880907,1846.8999999880907,1833.7000000000119,1846.8999999880907,1.0,0.0,0.0,,Click Response,2_count,5.0,object-49,temp_dist_trial,21.0,t_s_17_1,travel_shared,toothbrush,2.0,competing,paired,t_s_17_1.jpg,Travel,,,sub-03
Desktop or Laptop,Windows 10,Chrome 137.0.0.0,1366x768,1366x768,Temporal Distance Task,cb_02,21.0,temp_dist_trial,dist_items,qkpkxw,2.0,info,,7.799999976181425,0.0,7.799999976181425,7.799999976181425,0.0,7.799999976181425,1.0,0.0,0.0,,Slider,Slider,4.0,object-56,temp_dist_trial,21.0,t_s_17_1,travel_shared,toothbrush,2.0,competing,paired,t_s_17_1.jpg,Travel,,,sub-03
Desktop or Laptop,Windows 10,Chrome 137.0.0.0,1366x768,1366x768,Temporal Distance Task,cb_02,21.0,temp_dist_trial,dist_items,qkpkxw,2.0,continue,,5758.5999999881005,5751.3000000000475,5758.5999999881005,5758.5999999881005,5751.3000000000475,5758.5999999881005,1.0,0.0,0.0,,Click To Continue,Next button,7.0,object-60,temp_dist_trial,21.0,t_s_17_1,travel_shared,toothbrush,2.0,competing,paired,t_s_17_1.jpg,Travel,,,sub-03
Desktop or Laptop,Windows 10,Chrome 137.0.0.0,1366x768,1366x768,Temporal Distance Task,cb_02,21.0,temp_dist_trial,dist_items,qkpkxw,2.0,response,58,4551.100000000035,5751.3000000000475,5765.900000000023,4551.100000000035,5751.3000000000475,5765.900000000023,1.0,1214.7999999999886,0.0,,Slider,Slider,4.0,object-56,temp_dist_trial,21.0,t_s_17_1,travel_shared,toothbrush,2.0,competing,paired,t_s_17_1.jpg,Travel,,,sub-03
Desktop or Laptop,Windows 10,Chrome 137.0.0.0,1366x768,1366x768,Temporal Distance Task,cb_02,22.0,temp_dist_trial,num_items,zn7si1,1.0,response,1_ITEM,2729.9000000118976,2717.399999999965,2729.9000000118976,2729.9000000118976,2717.399999999965,2729.9000000118976,1.0,0.0,0.0,,Click Response,1_count,3.0,object-46,temp_dist_trial,22.0,t_i_09_1,travel_Iceland,ear muffs,2.0,unique,paired,t_i_09_1.jpg,Travel,,,sub-03
Desktop or Laptop,Windows 10,Chrome 137.0.0.0,1366x768,1366x768,Temporal Distance Task,cb_02,23.0,temp_dist_trial,num_items,zn7si1,1.0,response,1_ITEM,2763.0999999761707,2750.600000000035,2763.0999999761707,2763.0999999761707,2750.600000000035,2763.0999999761707,1.0,0.0,0.0,,Click Response,1_count,3.0,object-46,temp_dist_trial,23.0,t_m_17_1,travel_Miami,water gun,2.0,unique,paired,t_m_17_1.jpg,Travel,,,sub-03
Desktop or Laptop,Windows 10,Chrome 137.0.0.0,1366x768,1366x768,Temporal Distance Task,cb_02,24.0,temp_dist_trial,num_items,zn7si1,1.0,response,1_ITEM,1926.3000000119207,1917.0,1926.3000000119207,1926.3000000119207,1917.0,1926.3000000119207,1.0,0.0,0.0,,Click Response,1_count,3.0,object-46,temp_dist_trial,24.0,t_s_23_1,travel_shared,ball cap,2.0,competing,paired,t_s_23_1.jpg,Travel,,,sub-03
Desktop or Laptop,Windows 10,Chrome 137.0.0.0,1366x768,1366x768,Temporal Distance Task,cb_02,25.0,temp_dist_trial,num_items,zn7si1,1.0,response,2_ITEM,1774.4000000000233,1767.2000000000116,1774.4000000000233,1774.4000000000233,1767.2000000000116,1774.4000000000233,1.0,0.0,0.0,,Click Response,2_count,5.0,object-49,temp_dist_trial,25.0,t_m_02_1,travel_Miami,t-shirt,2.0,unique,paired,t_m_02_1.jpg,Travel,,,sub-03
Desktop or Laptop,Windows 10,Chrome 137.0.0.0,1366x768,1366x768,Temporal Distance Task,cb_02,25.0,temp_dist_trial,dist_items,qkpkxw,2.0,info,,7.2999999999883585,0.0,7.2999999999883585,7.2999999999883585,0.0,7.2999999999883585,1.0,0.0,0.0,,Slider,Slider,4.0,object-56,temp_dist_trial,25.0,t_m_02_1,travel_Miami,t-shirt,2.0,unique,paired,t_m_02_1.jpg,Travel,,,sub-03
Desktop or Laptop,Windows 10,Chrome 137.0.0.0,1366x768,1366x768,Temporal Distance Task,cb_02,25.0,temp_dist_trial,dist_items,qkpkxw,2.0,continue,,3154.199999976146,3150.7999999999884,3154.199999976146,3154.199999976146,3150.7999999999884,3154.199999976146,1.0,0.0,0.0,,Click To Continue,Next button,7.0,object-60,temp_dist_trial,25.0,t_m_02_1,travel_Miami,t-shirt,2.0,unique,paired,t_m_02_1.jpg,Travel,,,sub-03
Desktop or Laptop,Windows 10,Chrome 137.0.0.0,1366x768,1366x768,Temporal Distance Task,cb_02,25.0,temp_dist_trial,dist_items,qkpkxw,2.0,response,61,1850.5,3150.7999999999884,3154.8999999642256,1850.5,3150.7999999999884,3154.8999999642256,1.0,1304.3999999642256,0.0,,Slider,Slider,4.0,object-56,temp_dist_trial,25.0,t_m_02_1,travel_Miami,t-shirt,2.0,unique,paired,t_m_02_1.jpg,Travel,,,sub-03
Desktop or Laptop,Windows 10,Chrome 137.0.0.0,1366x768,1366x768,Temporal Distance Task,cb_02,26.0,temp_dist_trial,num_items,zn7si1,1.0,response,1_ITEM,2675.599999964237,2667.200000000012,2675.599999964237,2675.599999964237,2667.200000000012,2675.599999964237,1.0,0.0,0.0,,Click Response,1_count,3.0,object-46,temp_dist_trial,26.0,t_m_06_1,travel_Miami,handheld fan,2.0,unique,single,t_m_06_1.jpg,Travel,,,sub-03
Desktop or Laptop,Windows 10,Chrome 137.0.0.0,1366x768,1366x768,Temporal Distance Task,cb_02,27.0,temp_dist_trial,num_items,zn7si1,1.0,response,1_ITEM,2433.500000011933,2417.2999999999884,2433.500000011933,2433.500000011933,2417.2999999999884,2433.500000011933,1.0,0.0,0.0,,Click Response,1_count,3.0,object-46,temp_dist_trial,27.0,t_s_13_1,travel_shared,contact lens case,2.0,competing,paired,t_s_13_1.jpg,Travel,,,sub-03
Desktop or Laptop,Windows 10,Chrome 137.0.0.0,1366x768,1366x768,Temporal Distance Task,cb_02,28.0,temp_dist_trial,num_items,zn7si1,1.0,response,1_ITEM,1867.0,1850.4000000000235,1867.0,1867.0,1850.4000000000235,1867.0,1.0,0.0,0.0,,Click Response,1_count,3.0,object-46,temp_dist_trial,28.0,t_s_03_1,travel_shared,portable charger,2.0,competing,single,t_s_03_1.jpg,Travel,,,sub-03
Desktop or Laptop,Windows 10,Chrome 137.0.0.0,1366x768,1366x768,Temporal Distance Task,cb_02,29.0,temp_dist_trial,num_items,zn7si1,1.0,response,1_ITEM,1717.2999999999302,1700.5999999999767,1717.2999999999302,1717.2999999999302,1700.5999999999767,1717.2999999999302,1.0,0.0,0.0,,Click Response,1_count,3.0,object-46,temp_dist_trial,29.0,t_s_24_1,travel_shared,ear plugs,2.0,competing,paired,t_s_24_1.jpg,Travel,,,sub-03
Desktop or Laptop,Windows 10,Chrome 137.0.0.0,1366x768,1366x768,Temporal Distance Task,cb_02,30.0,temp_dist_trial,num_items,zn7si1,1.0,response,1_ITEM,2030.4999999761346,2017.1999999999528,2030.4999999761346,2030.4999999761346,2017.1999999999528,2030.4999999761346,1.0,0.0,0.0,,Click Response,1_count,3.0,object-46,temp_dist_trial,30.0,t_m_19_1,travel_Miami,surfboard,2.0,unique,paired,t_m_19_1.jpg,Travel,,,sub-03
Desktop or Laptop,Windows 10,Chrome 137.0.0.0,1366x768,1366x768,Temporal Distance Task,cb_02,31.0,temp_dist_trial,num_items,zn7si1,1.0,response,1_ITEM,2175.2999999761814,2167.3000000000466,2175.2999999761814,2175.2999999761814,2167.3000000000466,2175.2999999761814,1.0,0.0,0.0,,Click Response,1_count,3.0,object-46,temp_dist_trial,31.0,t_s_15_1,travel_shared,luggage tag,2.0,competing,paired,t_s_15_1.jpg,Travel,,,sub-03
Desktop or Laptop,Windows 10,Chrome 137.0.0.0,1366x768,1366x768,Temporal Distance Task,cb_02,32.0,temp_dist_trial,num_items,zn7si1,1.0,response,1_ITEM,2924.800000011921,2917.200000000012,2924.800000011921,2924.800000011921,2917.200000000012,2924.800000011921,1.0,0.0,0.0,,Click Response,1_count,3.0,object-46,temp_dist_trial,32.0,t_i_18_1,travel_Iceland,ski mask,2.0,unique,single,t_i_18_1.jpg,Travel,,,sub-03
Desktop or Laptop,Windows 10,Chrome 137.0.0.0,1366x768,1366x768,Temporal Distance Task,cb_02,33.0,temp_dist_trial,num_items,zn7si1,1.0,response,1_ITEM,1665.8999999880907,1650.4000000000233,1665.8999999880907,1665.8999999880907,1650.4000000000233,1665.8999999880907,1.0,0.0,0.0,,Click Response,1_count,3.0,object-46,temp_dist_trial,33.0,t_s_05_1,travel_shared,neck pillow,2.0,competing,paired,t_s_05_1.jpg,Travel,,,sub-03
Desktop or Laptop,Windows 10,Chrome 137.0.0.0,1366x768,1366x768,Temporal Distance Task,cb_02,34.0,temp_dist_trial,num_items,zn7si1,1.0,response,num_miss,3000.700000000012,3000.700000000012,3000.700000000012,3000.700000000012,3000.700000000012,3000.700000000012,1.0,0.0,0.0,num_miss_tag,Time Limit,screen,0.0,screen,temp_dist_trial,34.0,t_s_20_1,travel_shared,travel pill case,2.0,competing,paired,t_s_20_1.jpg,Travel,,,sub-03
Desktop or Laptop,Windows 10,Chrome 137.0.0.0,1366x768,1366x768,Temporal Distance Task,cb_02,35.0,temp_dist_trial,num_items,zn7si1,1.0,response,1_ITEM,1839.5999999999767,1833.5999999999767,1839.5999999999767,1839.5999999999767,1833.5999999999767,1839.5999999999767,1.0,0.0,0.0,,Click Response,1_count,3.0,object-46,temp_dist_trial,35.0,t_i_10_1,travel_Iceland,trekking poles,2.0,unique,paired,t_i_10_1.jpg,Travel,,,sub-03
Desktop or Laptop,Windows 10,Chrome 137.0.0.0,1366x768,1366x768,Temporal Distance Task,cb_02,36.0,temp_dist_trial,num_items,zn7si1,1.0,response,2_ITEM,2717.0,2700.5,2717.0,2717.0,2700.5,2717.0,1.0,0.0,0.0,,Click Response,2_count,5.0,object-49,temp_dist_trial,36.0,t_s_08_1,travel_shared,hand lotion,2.0,competing,paired,t_s_08_1.jpg,Travel,,,sub-03
Desktop or Laptop,Windows 10,Chrome 137.0.0.0,1366x768,1366x768,Temporal Distance Task,cb_02,36.0,temp_dist_trial,dist_items,qkpkxw,2.0,info,,6.9999999880674295,0.0,6.9999999880674295,6.9999999880674295,0.0,6.9999999880674295,1.0,0.0,0.0,,Slider,Slider,4.0,object-56,temp_dist_trial,36.0,t_s_08_1,travel_shared,hand lotion,2.0,competing,paired,t_s_08_1.jpg,Travel,,,sub-03
Desktop or Laptop,Windows 10,Chrome 137.0.0.0,1366x768,1366x768,Temporal Distance Task,cb_02,36.0,temp_dist_trial,dist_items,qkpkxw,2.0,continue,,2582.600000011909,2567.2999999999884,2582.600000011909,2582.600000011909,2567.2999999999884,2582.600000011909,1.0,0.0,0.0,,Click To Continue,Next button,7.0,object-60,temp_dist_trial,36.0,t_s_08_1,travel_shared,hand lotion,2.0,competing,paired,t_s_08_1.jpg,Travel,,,sub-03
Desktop or Laptop,Windows 10,Chrome 137.0.0.0,1366x768,1366x768,Temporal Distance Task,cb_02,36.0,temp_dist_trial,dist_items,qkpkxw,2.0,response,72,1533.7000000000116,2567.2999999999884,2583.7999999999884,1533.7000000000116,2567.2999999999884,2583.7999999999884,1.0,1050.0999999999767,0.0,,Slider,Slider,4.0,object-56,temp_dist_trial,36.0,t_s_08_1,travel_shared,hand lotion,2.0,competing,paired,t_s_08_1.jpg,Travel,,,sub-03
Desktop or Laptop,Windows 10,Chrome 137.0.0.0,1366x768,1366x768,Temporal Distance Task,cb_02,37.0,temp_dist_trial,num_items,zn7si1,1.0,response,num_miss,3000.700000000012,3000.700000000012,3000.700000000012,3000.700000000012,3000.700000000012,3000.700000000012,1.0,0.0,0.0,num_miss_tag,Time Limit,screen,0.0,screen,temp_dist_trial,37.0,t_m_03_1,travel_Miami,wetsuit,2.0,unique,single,t_m_03_1.jpg,Travel,,,sub-03
Desktop or Laptop,Windows 10,Chrome 137.0.0.0,1366x768,1366x768,Temporal Distance Task,cb_02,38.0,temp_dist_trial,num_items,zn7si1,1.0,response,2_ITEM,1965.2999999761814,1950.5,1965.2999999761814,1965.2999999761814,1950.5,1965.2999999761814,1.0,0.0,0.0,,Click Response,2_count,5.0,object-49,temp_dist_trial,38.0,t_s_22_1,travel_shared,belt,2.0,competing,paired,t_s_22_1.jpg,Travel,,,sub-03
Desktop or Laptop,Windows 10,Chrome 137.0.0.0,1366x768,1366x768,Temporal Distance Task,cb_02,38.0,temp_dist_trial,dist_items,qkpkxw,2.0,info,,6.699999976146501,0.0,6.699999976146501,6.699999976146501,0.0,6.699999976146501,1.0,0.0,0.0,,Slider,Slider,4.0,object-56,temp_dist_trial,38.0,t_s_22_1,travel_shared,belt,2.0,competing,paired,t_s_22_1.jpg,Travel,,,sub-03
Desktop or Laptop,Windows 10,Chrome 137.0.0.0,1366x768,1366x768,Temporal Distance Task,cb_02,38.0,temp_dist_trial,dist_items,qkpkxw,2.0,continue,,3825.199999976146,3817.700000000012,3825.199999976146,3825.199999976146,3817.700000000012,3825.199999976146,1.0,0.0,0.0,,Click To Continue,Next button,7.0,object-60,temp_dist_trial,38.0,t_s_22_1,travel_shared,belt,2.0,competing,paired,t_s_22_1.jpg,Travel,,,sub-03
Desktop or Laptop,Windows 10,Chrome 137.0.0.0,1366x768,1366x768,Temporal Distance Task,cb_02,38.0,temp_dist_trial,dist_items,qkpkxw,2.0,response,70,2350.599999999977,3817.700000000012,3826.299999999989,2350.599999999977,3817.700000000012,3826.299999999989,1.0,1475.7000000000116,0.0,,Slider,Slider,4.0,object-56,temp_dist_trial,38.0,t_s_22_1,travel_shared,belt,2.0,competing,paired,t_s_22_1.jpg,Travel,,,sub-03
Desktop or Laptop,Windows 10,Chrome 137.0.0.0,1366x768,1366x768,Temporal Distance Task,cb_02,39.0,temp_dist_trial,num_items,zn7si1,1.0,response,2_ITEM,1427.7999999880558,1416.8999999999646,1427.7999999880558,1427.7999999880558,1416.8999999999646,1427.7999999880558,1.0,0.0,0.0,,Click Response,2_count,5.0,object-49,temp_dist_trial,39.0,t_m_07_1,travel_Miami,sunglasses,2.0,unique,single,t_m_07_1.jpg,Travel,,,sub-03
Desktop or Laptop,Windows 10,Chrome 137.0.0.0,1366x768,1366x768,Temporal Distance Task,cb_02,39.0,temp_dist_trial,dist_items,qkpkxw,2.0,info,,6.0000000119325705,0.0,6.0000000119325705,6.0000000119325705,0.0,6.0000000119325705,1.0,0.0,0.0,,Slider,Slider,4.0,object-56,temp_dist_trial,39.0,t_m_07_1,travel_Miami,sunglasses,2.0,unique,single,t_m_07_1.jpg,Travel,,,sub-03
Desktop or Laptop,Windows 10,Chrome 137.0.0.0,1366x768,1366x768,Temporal Distance Task,cb_02,39.0,temp_dist_trial,dist_items,qkpkxw,2.0,continue,,4190.299999964249,4184.299999999987,4190.299999964249,4190.299999964249,4184.299999999987,4190.299999964249,1.0,0.0,0.0,,Click To Continue,Next button,7.0,object-60,temp_dist_trial,39.0,t_m_07_1,travel_Miami,sunglasses,2.0,unique,single,t_m_07_1.jpg,Travel,,,sub-03
Desktop or Laptop,Windows 10,Chrome 137.0.0.0,1366x768,1366x768,Temporal Distance Task,cb_02,39.0,temp_dist_trial,dist_items,qkpkxw,2.0,response,39,2900.700000000012,4184.299999999987,4191.200000000013,2900.700000000012,4184.299999999987,4191.200000000013,1.0,1290.5,0.0,,Slider,Slider,4.0,object-56,temp_dist_trial,39.0,t_m_07_1,travel_Miami,sunglasses,2.0,unique,single,t_m_07_1.jpg,Travel,,,sub-03
Desktop or Laptop,Windows 10,Chrome 137.0.0.0,1366x768,1366x768,Temporal Distance Task,cb_02,40.0,temp_dist_trial,num_items,zn7si1,1.0,response,2_ITEM,2537.0999999881024,2533.9000000000233,2537.0999999881024,2537.0999999881024,2533.9000000000233,2537.0999999881024,1.0,0.0,0.0,,Click Response,2_count,5.0,object-49,temp_dist_trial,40.0,t_s_19_1,travel_shared,pajamas,2.0,competing,paired,t_s_19_1.jpg,Travel,,,sub-03
Desktop or Laptop,Windows 10,Chrome 137.0.0.0,1366x768,1366x768,Temporal Distance Task,cb_02,40.0,temp_dist_trial,dist_items,qkpkxw,2.0,info,,6.700000011944213,0.0,6.700000011944213,6.700000011944213,0.0,6.700000011944213,1.0,0.0,0.0,,Slider,Slider,4.0,object-56,temp_dist_trial,40.0,t_s_19_1,travel_shared,pajamas,2.0,competing,paired,t_s_19_1.jpg,Travel,,,sub-03
Desktop or Laptop,Windows 10,Chrome 137.0.0.0,1366x768,1366x768,Temporal Distance Task,cb_02,40.0,temp_dist_trial,dist_items,qkpkxw,2.0,response,dist_miss,7001.5,7001.5,7001.5,7001.5,7001.5,7001.5,1.0,0.0,0.0,dist_miss_tag,Time Limit,screen,0.0,screen,temp_dist_trial,40.0,t_s_19_1,travel_shared,pajamas,2.0,competing,paired,t_s_19_1.jpg,Travel,,,sub-03
Desktop or Laptop,Windows 10,Chrome 137.0.0.0,1366x768,1366x768,Temporal Distance Task,cb_02,40.0,temp_dist_trial,dist_items,qkpkxw,2.0,response,,7007.5999999881005,7001.5,7007.5999999881005,7007.5999999881005,7001.5,7007.5999999881005,1.0,0.0,0.0,,Slider,Slider,4.0,object-56,temp_dist_trial,40.0,t_s_19_1,travel_shared,pajamas,2.0,competing,paired,t_s_19_1.jpg,Travel,,,sub-03
Desktop or Laptop,Windows 10,Chrome 137.0.0.0,1366x768,1366x768,Temporal Distance Task,cb_02,41.0,temp_dist_trial,num_items,zn7si1,1.0,response,num_miss,3000.9000000000237,3000.9000000000237,3000.9000000000237,3000.9000000000237,3000.9000000000237,3000.9000000000237,1.0,0.0,0.0,num_miss_tag,Time Limit,screen,0.0,screen,temp_dist_trial,41.0,t_i_05_1,travel_Iceland,hiking boots,2.0,unique,paired,t_i_05_1.jpg,Travel,,,sub-03
Desktop or Laptop,Windows 10,Chrome 137.0.0.0,1366x768,1366x768,Temporal Distance Task,cb_02,42.0,temp_dist_trial,num_items,zn7si1,1.0,response,num_miss,3000.5,3000.5,3000.5,3000.5,3000.5,3000.5,1.0,0.0,0.0,num_miss_tag,Time Limit,screen,0.0,screen,temp_dist_trial,42.0,t_i_08_1,travel_Iceland,thick socks,2.0,unique,paired,t_i_08_1.jpg,Travel,,,sub-03
Desktop or Laptop,Windows 10,Chrome 137.0.0.0,1366x768,1366x768,Temporal Distance Task,cb_02,43.0,temp_dist_trial,num_items,zn7si1,1.0,response,num_miss,3000.5999999999767,3000.5999999999767,3000.5999999999767,3000.5999999999767,3000.5999999999767,3000.5999999999767,1.0,0.0,0.0,num_miss_tag,Time Limit,screen,0.0,screen,temp_dist_trial,43.0,t_m_15_1,travel_Miami,shorts,2.0,unique,paired,t_m_15_1.jpg,Travel,,,sub-03
Desktop or Laptop,Windows 10,Chrome 137.0.0.0,1366x768,1366x768,Temporal Distance Task,cb_02,44.0,temp_dist_trial,num_items,zn7si1,1.0,response,num_miss,3000.5,3000.5,3000.5,3000.5,3000.5,3000.5,1.0,0.0,0.0,num_miss_tag,Time Limit,screen,0.0,screen,temp_dist_trial,44.0,t_s_14_1,travel_shared,hand sanitizer,2.0,competing,single,t_s_14_1.jpg,Travel,,,sub-03
Desktop or Laptop,Windows 10,Chrome 137.0.0.0,1366x768,1366x768,Temporal Distance Task,cb_02,45.0,temp_dist_trial,num_items,zn7si1,1.0,response,2_ITEM,1613.0999999642374,1600.4000000000233,1613.0999999642374,1613.0999999642374,1600.4000000000233,1613.0999999642374,1.0,0.0,0.0,,Click Response,2_count,5.0,object-49,temp_dist_trial,45.0,t_s_10_1,travel_shared,luggage lock,2.0,competing,paired,t_s_10_1.jpg,Travel,,,sub-03
Desktop or Laptop,Windows 10,Chrome 137.0.0.0,1366x768,1366x768,Temporal Distance Task,cb_02,45.0,temp_dist_trial,dist_items,qkpkxw,2.0,info,,6.399999976158142,0.0,6.399999976158142,6.399999976158142,0.0,6.399999976158142,1.0,0.0,0.0,,Slider,Slider,4.0,object-56,temp_dist_trial,45.0,t_s_10_1,travel_shared,luggage lock,2.0,competing,paired,t_s_10_1.jpg,Travel,,,sub-03
Desktop or Laptop,Windows 10,Chrome 137.0.0.0,1366x768,1366x768,Temporal Distance Task,cb_02,45.0,temp_dist_trial,dist_items,qkpkxw,2.0,response,dist_miss,7001.7000000000135,7001.7000000000135,7001.7000000000135,7001.7000000000135,7001.7000000000135,7001.7000000000135,1.0,0.0,0.0,dist_miss_tag,Time Limit,screen,0.0,screen,temp_dist_trial,45.0,t_s_10_1,travel_shared,luggage lock,2.0,competing,paired,t_s_10_1.jpg,Travel,,,sub-03
Desktop or Laptop,Windows 10,Chrome 137.0.0.0,1366x768,1366x768,Temporal Distance Task,cb_02,45.0,temp_dist_trial,dist_items,qkpkxw,2.0,response,,7003.5,7001.7000000000135,7003.5,7003.5,7001.7000000000135,7003.5,1.0,0.0,0.0,,Slider,Slider,4.0,object-56,temp_dist_trial,45.0,t_s_10_1,travel_shared,luggage lock,2.0,competing,paired,t_s_10_1.jpg,Travel,,,sub-03
Desktop or Laptop,Windows 10,Chrome 137.0.0.0,1366x768,1366x768,Temporal Distance Task,cb_02,46.0,temp_dist_trial,num_items,zn7si1,1.0,response,num_miss,3000.5999999999767,3000.5999999999767,3000.5999999999767,3000.5999999999767,3000.5999999999767,3000.5999999999767,1.0,0.0,0.0,num_miss_tag,Time Limit,screen,0.0,screen,temp_dist_trial,46.0,t_s_12_1,travel_shared,clear toiletry bag,2.0,competing,single,t_s_12_1.jpg,Travel,,,sub-03
Desktop or Laptop,Windows 10,Chrome 137.0.0.0,1366x768,1366x768,Temporal Distance Task,cb_02,47.0,temp_dist_trial,num_items,zn7si1,1.0,response,num_miss,3000.7999999999884,3000.7999999999884,3000.7999999999884,3000.7999999999884,3000.7999999999884,3000.7999999999884,1.0,0.0,0.0,num_miss_tag,Time Limit,screen,0.0,screen,temp_dist_trial,47.0,t_i_13_1,travel_Iceland,sleeping bag,2.0,unique,paired,t_i_13_1.jpg,Travel,,,sub-03
Desktop or Laptop,Windows 10,Chrome 137.0.0.0,1366x768,1366x768,Temporal Distance Task,cb_02,48.0,temp_dist_trial,num_items,zn7si1,1.0,response,2_ITEM,870.8999999880908,866.7000000000116,870.8999999880908,870.8999999880908,866.7000000000116,870.8999999880908,1.0,0.0,0.0,,Click Response,2_count,5.0,object-49,temp_dist_trial,48.0,t_m_16_1,travel_Miami,flippers,2.0,unique,paired,t_m_16_1.jpg,Travel,,,sub-03
Desktop or Laptop,Windows 10,Chrome 137.0.0.0,1366x768,1366x768,Temporal Distance Task,cb_02,48.0,temp_dist_trial,dist_items,qkpkxw,2.0,info,,11.599999964237213,0.0,11.599999964237213,11.599999964237213,0.0,11.599999964237213,1.0,0.0,0.0,,Slider,Slider,4.0,object-56,temp_dist_trial,48.0,t_m_16_1,travel_Miami,flippers,2.0,unique,paired,t_m_16_1.jpg,Travel,,,sub-03
Desktop or Laptop,Windows 10,Chrome 137.0.0.0,1366x768,1366x768,Temporal Distance Task,cb_02,48.0,temp_dist_trial,dist_items,qkpkxw,2.0,continue,,3377.3999999761572,3367.5,3377.3999999761572,3377.3999999761572,3367.5,3377.3999999761572,1.0,0.0,0.0,,Click To Continue,Next button,7.0,object-60,temp_dist_trial,48.0,t_m_16_1,travel_Miami,flippers,2.0,unique,paired,t_m_16_1.jpg,Travel,,,sub-03
Desktop or Laptop,Windows 10,Chrome 137.0.0.0,1366x768,1366x768,Temporal Distance Task,cb_02,48.0,temp_dist_trial,dist_items,qkpkxw,2.0,response,65,1583.7999999999884,3367.5,3378.300000011921,1583.7999999999884,3367.5,3378.300000011921,1.0,1794.5000000119323,0.0,,Slider,Slider,4.0,object-56,temp_dist_trial,48.0,t_m_16_1,travel_Miami,flippers,2.0,unique,paired,t_m_16_1.jpg,Travel,,,sub-03
Desktop or Laptop,Windows 10,Chrome 137.0.0.0,1366x768,1366x768,Temporal Distance Task,cb_02,2.0,temp_eventStart,Screen 1,dgtyxe,1.0,continue,,4993.199999988079,4984.599999999977,4993.199999988079,4993.199999988079,4984.599999999977,4993.199999988079,1.0,0.0,0.0,,Click To Continue,Next Button,3.0,object-43,temp_eventStart,,,Student,,,,,,,,,sub-03
Desktop or Laptop,Windows 10,Chrome 137.0.0.0,1366x768,1366x768,Temporal Distance Task,cb_02,49.0,temp_dist_trial,num_items,zn7si1,1.0,response,num_miss,3000.700000000012,3000.700000000012,3000.700000000012,3000.700000000012,3000.700000000012,3000.700000000012,1.0,0.0,0.0,num_miss_tag,Time Limit,screen,0.0,screen,temp_dist_trial,1.0,s_sh_24_1,student_shared,desk organizer,2.0,competing,single,s_sh_24_1.jpg,Student,,,sub-03
Desktop or Laptop,Windows 10,Chrome 137.0.0.0,1366x768,1366x768,Temporal Distance Task,cb_02,50.0,temp_dist_trial,num_items,zn7si1,1.0,response,2_ITEM,2519.2000000119438,2517.200000000012,2519.2000000119438,2519.2000000119438,2517.200000000012,2519.2000000119438,1.0,0.0,0.0,,Click Response,2_count,5.0,object-49,temp_dist_trial,2.0,s_sh_12_1,student_shared,binder,2.0,competing,single,s_sh_12_1.jpg,Student,,,sub-03
Desktop or Laptop,Windows 10,Chrome 137.0.0.0,1366x768,1366x768,Temporal Distance Task,cb_02,50.0,temp_dist_trial,dist_items,qkpkxw,2.0,info,,6.300000011920929,0.0,6.300000011920929,6.300000011920929,0.0,6.300000011920929,1.0,0.0,0.0,,Slider,Slider,4.0,object-56,temp_dist_trial,2.0,s_sh_12_1,student_shared,binder,2.0,competing,single,s_sh_12_1.jpg,Student,,,sub-03
Desktop or Laptop,Windows 10,Chrome 137.0.0.0,1366x768,1366x768,Temporal Distance Task,cb_02,50.0,temp_dist_trial,dist_items,qkpkxw,2.0,continue,,6335.599999964237,6334.5,6335.599999964237,6335.599999964237,6334.5,6335.599999964237,1.0,0.0,0.0,,Click To Continue,Next button,7.0,object-60,temp_dist_trial,2.0,s_sh_12_1,student_shared,binder,2.0,competing,single,s_sh_12_1.jpg,Student,,,sub-03
Desktop or Laptop,Windows 10,Chrome 137.0.0.0,1366x768,1366x768,Temporal Distance Task,cb_02,50.0,temp_dist_trial,dist_items,qkpkxw,2.0,response,37,5001.099999999977,6334.5,6337.399999976158,5001.099999999977,6334.5,6337.399999976158,1.0,1336.2999999761814,0.0,,Slider,Slider,4.0,object-56,temp_dist_trial,2.0,s_sh_12_1,student_shared,binder,2.0,competing,single,s_sh_12_1.jpg,Student,,,sub-03
Desktop or Laptop,Windows 10,Chrome 137.0.0.0,1366x768,1366x768,Temporal Distance Task,cb_02,51.0,temp_dist_trial,num_items,zn7si1,1.0,response,2_ITEM,1793.8999999761581,1784.0,1793.8999999761581,1793.8999999761581,1784.0,1793.8999999761581,1.0,0.0,0.0,,Click Response,2_count,5.0,object-49,temp_dist_trial,3.0,s_sh_13_1,student_shared,index cards,2.0,competing,single,s_sh_13_1.jpg,Student,,,sub-03
Desktop or Laptop,Windows 10,Chrome 137.0.0.0,1366x768,1366x768,Temporal Distance Task,cb_02,51.0,temp_dist_trial,dist_items,qkpkxw,2.0,info,,15.099999988102356,0.0,15.099999988102356,15.099999988102356,0.0,15.099999988102356,1.0,0.0,0.0,,Slider,Slider,4.0,object-56,temp_dist_trial,3.0,s_sh_13_1,student_shared,index cards,2.0,competing,single,s_sh_13_1.jpg,Student,,,sub-03
Desktop or Laptop,Windows 10,Chrome 137.0.0.0,1366x768,1366x768,Temporal Distance Task,cb_02,51.0,temp_dist_trial,dist_items,qkpkxw,2.0,continue,,3938.7000000119438,3934.100000000035,3938.7000000119438,3938.7000000119438,3934.100000000035,3938.7000000119438,1.0,0.0,0.0,,Click To Continue,Next button,7.0,object-60,temp_dist_trial,3.0,s_sh_13_1,student_shared,index cards,2.0,competing,single,s_sh_13_1.jpg,Student,,,sub-03
Desktop or Laptop,Windows 10,Chrome 137.0.0.0,1366x768,1366x768,Temporal Distance Task,cb_02,51.0,temp_dist_trial,dist_items,qkpkxw,2.0,response,62,2833.8000000000466,3934.100000000035,3939.5999999881024,2833.8000000000466,3934.100000000035,3939.5999999881024,1.0,1105.7999999880558,0.0,,Slider,Slider,4.0,object-56,temp_dist_trial,3.0,s_sh_13_1,student_shared,index cards,2.0,competing,single,s_sh_13_1.jpg,Student,,,sub-03
Desktop or Laptop,Windows 10,Chrome 137.0.0.0,1366x768,1366x768,Temporal Distance Task,cb_02,52.0,temp_dist_trial,num_items,zn7si1,1.0,response,num_miss,3000.7999999999884,3000.7999999999884,3000.7999999999884,3000.7999999999884,3000.7999999999884,3000.7999999999884,1.0,0.0,0.0,num_miss_tag,Time Limit,screen,0.0,screen,temp_dist_trial,4.0,s_s_05_1,student_stem,lab goggles,2.0,unique,paired,s_s_05_1.jpg,Student,,,sub-03
Desktop or Laptop,Windows 10,Chrome 137.0.0.0,1366x768,1366x768,Temporal Distance Task,cb_02,53.0,temp_dist_trial,num_items,zn7si1,1.0,response,2_ITEM,236.49999997613486,233.29999999998842,236.49999997613486,236.49999997613486,233.29999999998842,236.49999997613486,1.0,0.0,0.0,,Click Response,2_count,5.0,object-49,temp_dist_trial,5.0,s_a_05_1,student_art,clay,2.0,unique,single,s_a_05_1.jpg,Student,,,sub-03
Desktop or Laptop,Windows 10,Chrome 137.0.0.0,1366x768,1366x768,Temporal Distance Task,cb_02,53.0,temp_dist_trial,dist_items,qkpkxw,2.0,info,,5.999999964260496,0.0,5.999999964260496,5.999999964260496,0.0,5.999999964260496,1.0,0.0,0.0,,Slider,Slider,4.0,object-56,temp_dist_trial,5.0,s_a_05_1,student_art,clay,2.0,unique,single,s_a_05_1.jpg,Student,,,sub-03
Desktop or Laptop,Windows 10,Chrome 137.0.0.0,1366x768,1366x768,Temporal Distance Task,cb_02,53.0,temp_dist_trial,dist_items,qkpkxw,2.0,continue,,4728.9999999642605,4718.0,4728.9999999642605,4728.9999999642605,4718.0,4728.9999999642605,1.0,0.0,0.0,,Click To Continue,Next button,7.0,object-60,temp_dist_trial,5.0,s_a_05_1,student_art,clay,2.0,unique,single,s_a_05_1.jpg,Student,,,sub-03
Desktop or Laptop,Windows 10,Chrome 137.0.0.0,1366x768,1366x768,Temporal Distance Task,cb_02,53.0,temp_dist_trial,dist_items,qkpkxw,2.0,response,58,3284.3000000000466,4718.0,4734.699999999953,3284.3000000000466,4718.0,4734.699999999953,1.0,1450.3999999999066,0.0,,Slider,Slider,4.0,object-56,temp_dist_trial,5.0,s_a_05_1,student_art,clay,2.0,unique,single,s_a_05_1.jpg,Student,,,sub-03
Desktop or Laptop,Windows 10,Chrome 137.0.0.0,1366x768,1366x768,Temporal Distance Task,cb_02,54.0,temp_dist_trial,num_items,zn7si1,1.0,response,2_ITEM,2058.7000000119438,2050.5,2058.7000000119438,2058.7000000119438,2050.5,2058.7000000119438,1.0,0.0,0.0,,Click Response,2_count,5.0,object-49,temp_dist_trial,6.0,s_sh_18_1,student_shared,wall calendar,2.0,competing,paired,s_sh_18_1.jpg,Student,,,sub-03
Desktop or Laptop,Windows 10,Chrome 137.0.0.0,1366x768,1366x768,Temporal Distance Task,cb_02,54.0,temp_dist_trial,dist_items,qkpkxw,2.0,info,,10.399999976158142,0.0,10.399999976158142,10.399999976158142,0.0,10.399999976158142,1.0,0.0,0.0,,Slider,Slider,4.0,object-56,temp_dist_trial,6.0,s_sh_18_1,student_shared,wall calendar,2.0,competing,paired,s_sh_18_1.jpg,Student,,,sub-03
Desktop or Laptop,Windows 10,Chrome 137.0.0.0,1366x768,1366x768,Temporal Distance Task,cb_02,54.0,temp_dist_trial,dist_items,qkpkxw,2.0,continue,,4156.099999964237,4151.0,4156.099999964237,4156.099999964237,4151.0,4156.099999964237,1.0,0.0,0.0,,Click To Continue,Next button,7.0,object-60,temp_dist_trial,6.0,s_sh_18_1,student_shared,wall calendar,2.0,competing,paired,s_sh_18_1.jpg,Student,,,sub-03
Desktop or Laptop,Windows 10,Chrome 137.0.0.0,1366x768,1366x768,Temporal Distance Task,cb_02,54.0,temp_dist_trial,dist_items,qkpkxw,2.0,response,60,3134.0999999999767,4151.0,4157.199999988079,3134.0999999999767,4151.0,4157.199999988079,1.0,1023.0999999881025,0.0,,Slider,Slider,4.0,object-56,temp_dist_trial,6.0,s_sh_18_1,student_shared,wall calendar,2.0,competing,paired,s_sh_18_1.jpg,Student,,,sub-03
Desktop or Laptop,Windows 10,Chrome 137.0.0.0,1366x768,1366x768,Temporal Distance Task,cb_02,55.0,temp_dist_trial,num_items,zn7si1,1.0,response,2_ITEM,1862.1999999880786,1850.5,1862.1999999880786,1862.1999999880786,1850.5,1862.1999999880786,1.0,0.0,0.0,,Click Response,2_count,5.0,object-49,temp_dist_trial,7.0,s_a_17_1,student_art,microphone,2.0,unique,paired,s_a_17_1.jpg,Student,,,sub-03
Desktop or Laptop,Windows 10,Chrome 137.0.0.0,1366x768,1366x768,Temporal Distance Task,cb_02,55.0,temp_dist_trial,dist_items,qkpkxw,2.0,info,,7.099999988102354,0.0,7.099999988102354,7.099999988102354,0.0,7.099999988102354,1.0,0.0,0.0,,Slider,Slider,4.0,object-56,temp_dist_trial,7.0,s_a_17_1,student_art,microphone,2.0,unique,paired,s_a_17_1.jpg,Student,,,sub-03
Desktop or Laptop,Windows 10,Chrome 137.0.0.0,1366x768,1366x768,Temporal Distance Task,cb_02,55.0,temp_dist_trial,dist_items,qkpkxw,2.0,continue,,3049.2000000119438,3034.0,3049.2000000119438,3049.2000000119438,3034.0,3049.2000000119438,1.0,0.0,0.0,,Click To Continue,Next button,7.0,object-60,temp_dist_trial,7.0,s_a_17_1,student_art,microphone,2.0,unique,paired,s_a_17_1.jpg,Student,,,sub-03
Desktop or Laptop,Windows 10,Chrome 137.0.0.0,1366x768,1366x768,Temporal Distance Task,cb_02,55.0,temp_dist_trial,dist_items,qkpkxw,2.0,response,73,1733.7000000000116,3034.0,3050.7999999999884,1733.7000000000116,3034.0,3050.7999999999884,1.0,1317.0999999999767,0.0,,Slider,Slider,4.0,object-56,temp_dist_trial,7.0,s_a_17_1,student_art,microphone,2.0,unique,paired,s_a_17_1.jpg,Student,,,sub-03
Desktop or Laptop,Windows 10,Chrome 137.0.0.0,1366x768,1366x768,Temporal Distance Task,cb_02,56.0,temp_dist_trial,num_items,zn7si1,1.0,response,2_ITEM,1486.4999999642605,1483.6000000000354,1486.4999999642605,1486.4999999642605,1483.6000000000354,1486.4999999642605,1.0,0.0,0.0,,Click Response,2_count,5.0,object-49,temp_dist_trial,8.0,s_sh_02_1,student_shared,eraser,2.0,competing,paired,s_sh_02_1.jpg,Student,,,sub-03
Desktop or Laptop,Windows 10,Chrome 137.0.0.0,1366x768,1366x768,Temporal Distance Task,cb_02,56.0,temp_dist_trial,dist_items,qkpkxw,2.0,info,,11.599999976169784,0.0,11.599999976169784,11.599999976169784,0.0,11.599999976169784,1.0,0.0,0.0,,Slider,Slider,4.0,object-56,temp_dist_trial,8.0,s_sh_02_1,student_shared,eraser,2.0,competing,paired,s_sh_02_1.jpg,Student,,,sub-03
Desktop or Laptop,Windows 10,Chrome 137.0.0.0,1366x768,1366x768,Temporal Distance Task,cb_02,56.0,temp_dist_trial,dist_items,qkpkxw,2.0,continue,,5534.7000000000135,5518.0,5534.7000000000135,5534.7000000000135,5518.0,5534.7000000000135,1.0,0.0,0.0,,Click To Continue,Next button,7.0,object-60,temp_dist_trial,8.0,s_sh_02_1,student_shared,eraser,2.0,competing,paired,s_sh_02_1.jpg,Student,,,sub-03
Desktop or Laptop,Windows 10,Chrome 137.0.0.0,1366x768,1366x768,Temporal Distance Task,cb_02,56.0,temp_dist_trial,dist_items,qkpkxw,2.0,response,34,4001.0,5518.0,5534.7000000000135,4001.0,5518.0,5534.7000000000135,1.0,1533.7000000000116,0.0,,Slider,Slider,4.0,object-56,temp_dist_trial,8.0,s_sh_02_1,student_shared,eraser,2.0,competing,paired,s_sh_02_1.jpg,Student,,,sub-03
Desktop or Laptop,Windows 10,Chrome 137.0.0.0,1366x768,1366x768,Temporal Distance Task,cb_02,57.0,temp_dist_trial,num_items,zn7si1,1.0,response,2_ITEM,1837.099999976169,1833.6000000000354,1837.099999976169,1837.099999976169,1833.6000000000354,1837.099999976169,1.0,0.0,0.0,,Click Response,2_count,5.0,object-49,temp_dist_trial,9.0,s_a_10_1,student_art,tripod,2.0,unique,paired,s_a_10_1.jpg,Student,,,sub-03
Desktop or Laptop,Windows 10,Chrome 137.0.0.0,1366x768,1366x768,Temporal Distance Task,cb_02,57.0,temp_dist_trial,dist_items,qkpkxw,2.0,info,,16.700000000011638,0.0,16.700000000011638,16.700000000011638,0.0,16.700000000011638,1.0,0.0,0.0,,Slider,Slider,4.0,object-56,temp_dist_trial,9.0,s_a_10_1,student_art,tripod,2.0,unique,paired,s_a_10_1.jpg,Student,,,sub-03
Desktop or Laptop,Windows 10,Chrome 137.0.0.0,1366x768,1366x768,Temporal Distance Task,cb_02,57.0,temp_dist_trial,dist_items,qkpkxw,2.0,continue,,2817.5,2800.700000000012,2817.5,2817.5,2800.700000000012,2817.5,1.0,0.0,0.0,,Click To Continue,Next button,7.0,object-60,temp_dist_trial,9.0,s_a_10_1,student_art,tripod,2.0,unique,paired,s_a_10_1.jpg,Student,,,sub-03
Desktop or Laptop,Windows 10,Chrome 137.0.0.0,1366x768,1366x768,Temporal Distance Task,cb_02,57.0,temp_dist_trial,dist_items,qkpkxw,2.0,response,59,1483.7999999999884,2800.700000000012,2817.5,1483.7999999999884,2800.700000000012,2817.5,1.0,1333.7000000000114,0.0,,Slider,Slider,4.0,object-56,temp_dist_trial,9.0,s_a_10_1,student_art,tripod,2.0,unique,paired,s_a_10_1.jpg,Student,,,sub-03
Desktop or Laptop,Windows 10,Chrome 137.0.0.0,1366x768,1366x768,Temporal Distance Task,cb_02,58.0,temp_dist_trial,num_items,zn7si1,1.0,response,num_miss,3000.700000000012,3000.700000000012,3000.700000000012,3000.700000000012,3000.700000000012,3000.700000000012,1.0,0.0,0.0,num_miss_tag,Time Limit,screen,0.0,screen,temp_dist_trial,10.0,s_sh_09_1,student_shared,paper clips,2.0,competing,paired,s_sh_09_1.jpg,Student,,,sub-03
Desktop or Laptop,Windows 10,Chrome 137.0.0.0,1366x768,1366x768,Temporal Distance Task,cb_02,59.0,temp_dist_trial,num_items,zn7si1,1.0,response,2_ITEM,1279.4999999880674,1267.0999999999767,1279.4999999880674,1279.4999999880674,1267.0999999999767,1279.4999999880674,1.0,0.0,0.0,,Click Response,2_count,5.0,object-49,temp_dist_trial,11.0,s_sh_19_1,student_shared,portable plastic drawer,2.0,competing,paired,s_sh_19_1.jpg,Student,,,sub-03
Desktop or Laptop,Windows 10,Chrome 137.0.0.0,1366x768,1366x768,Temporal Distance Task,cb_02,59.0,temp_dist_trial,dist_items,qkpkxw,2.0,info,,6.799999964248856,0.0,6.799999964248856,6.799999964248856,0.0,6.799999964248856,1.0,0.0,0.0,,Slider,Slider,4.0,object-56,temp_dist_trial,11.0,s_sh_19_1,student_shared,portable plastic drawer,2.0,competing,paired,s_sh_19_1.jpg,Student,,,sub-03
Desktop or Laptop,Windows 10,Chrome 137.0.0.0,1366x768,1366x768,Temporal Distance Task,cb_02,59.0,temp_dist_trial,dist_items,qkpkxw,2.0,continue,,3103.000000011933,3100.700000000012,3103.000000011933,3103.000000011933,3100.700000000012,3103.000000011933,1.0,0.0,0.0,,Click To Continue,Next button,7.0,object-60,temp_dist_trial,11.0,s_sh_19_1,student_shared,portable plastic drawer,2.0,competing,paired,s_sh_19_1.jpg,Student,,,sub-03
Desktop or Laptop,Windows 10,Chrome 137.0.0.0,1366x768,1366x768,Temporal Distance Task,cb_02,59.0,temp_dist_trial,dist_items,qkpkxw,2.0,response,61,1883.7999999999884,3100.700000000012,3104.0999999761707,1883.7999999999884,3100.700000000012,3104.0999999761707,1.0,1220.2999999761814,0.0,,Slider,Slider,4.0,object-56,temp_dist_trial,11.0,s_sh_19_1,student_shared,portable plastic drawer,2.0,competing,paired,s_sh_19_1.jpg,Student,,,sub-03
Desktop or Laptop,Windows 10,Chrome 137.0.0.0,1366x768,1366x768,Temporal Distance Task,cb_02,60.0,temp_dist_trial,num_items,zn7si1,1.0,response,num_miss,3000.700000000012,3000.700000000012,3000.700000000012,3000.700000000012,3000.700000000012,3000.700000000012,1.0,0.0,0.0,num_miss_tag,Time Limit,screen,0.0,screen,temp_dist_trial,12.0,s_s_18_1,student_stem,brain model,2.0,unique,paired,s_s_18_1.jpg,Student,,,sub-03
Desktop or Laptop,Windows 10,Chrome 137.0.0.0,1366x768,1366x768,Temporal Distance Task,cb_02,61.0,temp_dist_trial,num_items,zn7si1,1.0,response,2_ITEM,1494.7000000119442,1483.7000000000116,1494.7000000119442,1494.7000000119442,1483.7000000000116,1494.7000000119442,1.0,0.0,0.0,,Click Response,2_count,5.0,object-49,temp_dist_trial,13.0,s_a_11_1,student_art,clapperboard,2.0,unique,paired,s_a_11_1.jpg,Student,,,sub-03
Desktop or Laptop,Windows 10,Chrome 137.0.0.0,1366x768,1366x768,Temporal Distance Task,cb_02,61.0,temp_dist_trial,dist_items,qkpkxw,2.0,info,,10.49999998806743,0.0,10.49999998806743,10.49999998806743,0.0,10.49999998806743,1.0,0.0,0.0,,Slider,Slider,4.0,object-56,temp_dist_trial,13.0,s_a_11_1,student_art,clapperboard,2.0,unique,paired,s_a_11_1.jpg,Student,,,sub-03
Desktop or Laptop,Windows 10,Chrome 137.0.0.0,1366x768,1366x768,Temporal Distance Task,cb_02,61.0,temp_dist_trial,dist_items,qkpkxw,2.0,continue,,3451.0999999999767,3434.2999999999884,3451.0999999999767,3451.0999999999767,3434.2999999999884,3451.0999999999767,1.0,0.0,0.0,,Click To Continue,Next button,7.0,object-60,temp_dist_trial,13.0,s_a_11_1,student_art,clapperboard,2.0,unique,paired,s_a_11_1.jpg,Student,,,sub-03
Desktop or Laptop,Windows 10,Chrome 137.0.0.0,1366x768,1366x768,Temporal Distance Task,cb_02,61.0,temp_dist_trial,dist_items,qkpkxw,2.0,response,63,1883.7999999999884,3434.2999999999884,3451.0999999999767,1883.7999999999884,3434.2999999999884,3451.0999999999767,1.0,1567.2999999999884,0.0,,Slider,Slider,4.0,object-56,temp_dist_trial,13.0,s_a_11_1,student_art,clapperboard,2.0,unique,paired,s_a_11_1.jpg,Student,,,sub-03
Desktop or Laptop,Windows 10,Chrome 137.0.0.0,1366x768,1366x768,Temporal Distance Task,cb_02,62.0,temp_dist_trial,num_items,zn7si1,1.0,response,2_ITEM,2198.599999964237,2183.7999999999884,2198.599999964237,2198.599999964237,2183.7999999999884,2198.599999964237,1.0,0.0,0.0,,Click Response,2_count,5.0,object-49,temp_dist_trial,14.0,s_sh_22_1,student_shared,hole puncher,2.0,competing,paired,s_sh_22_1.jpg,Student,,,sub-03
Desktop or Laptop,Windows 10,Chrome 137.0.0.0,1366x768,1366x768,Temporal Distance Task,cb_02,62.0,temp_dist_trial,dist_items,qkpkxw,2.0,info,,8.899999988090713,0.0,8.899999988090713,8.899999988090713,0.0,8.899999988090713,1.0,0.0,0.0,,Slider,Slider,4.0,object-56,temp_dist_trial,14.0,s_sh_22_1,student_shared,hole puncher,2.0,competing,paired,s_sh_22_1.jpg,Student,,,sub-03
Desktop or Laptop,Windows 10,Chrome 137.0.0.0,1366x768,1366x768,Temporal Distance Task,cb_02,62.0,temp_dist_trial,dist_items,qkpkxw,2.0,continue,,4961.09999997617,4951.200000000013,4961.09999997617,4961.09999997617,4951.200000000013,4961.09999997617,1.0,0.0,0.0,,Click To Continue,Next button,7.0,object-60,temp_dist_trial,14.0,s_sh_22_1,student_shared,hole puncher,2.0,competing,paired,s_sh_22_1.jpg,Student,,,sub-03
Desktop or Laptop,Windows 10,Chrome 137.0.0.0,1366x768,1366x768,Temporal Distance Task,cb_02,62.0,temp_dist_trial,dist_items,qkpkxw,2.0,response,41,3717.600000000035,4951.200000000013,4967.900000000023,3717.600000000035,4951.200000000013,4967.900000000023,1.0,1250.2999999999886,0.0,,Slider,Slider,4.0,object-56,temp_dist_trial,14.0,s_sh_22_1,student_shared,hole puncher,2.0,competing,paired,s_sh_22_1.jpg,Student,,,sub-03
Desktop or Laptop,Windows 10,Chrome 137.0.0.0,1366x768,1366x768,Temporal Distance Task,cb_02,63.0,temp_dist_trial,num_items,zn7si1,1.0,response,2_ITEM,2172.0,2167.0999999999767,2172.0,2172.0,2167.0999999999767,2172.0,1.0,0.0,0.0,,Click Response,2_count,5.0,object-49,temp_dist_trial,15.0,s_sh_21_1,student_shared,file holder,2.0,competing,paired,s_sh_21_1.jpg,Student,,,sub-03
Desktop or Laptop,Windows 10,Chrome 137.0.0.0,1366x768,1366x768,Temporal Distance Task,cb_02,63.0,temp_dist_trial,dist_items,qkpkxw,2.0,info,,7.700000011944213,0.0,7.700000011944213,7.700000011944213,0.0,7.700000011944213,1.0,0.0,0.0,,Slider,Slider,4.0,object-56,temp_dist_trial,15.0,s_sh_21_1,student_shared,file holder,2.0,competing,paired,s_sh_21_1.jpg,Student,,,sub-03
Desktop or Laptop,Windows 10,Chrome 137.0.0.0,1366x768,1366x768,Temporal Distance Task,cb_02,63.0,temp_dist_trial,dist_items,qkpkxw,2.0,response,dist_miss,7001.8000000000475,7001.8000000000475,7001.8000000000475,7001.8000000000475,7001.8000000000475,7001.8000000000475,1.0,0.0,0.0,dist_miss_tag,Time Limit,screen,0.0,screen,temp_dist_trial,15.0,s_sh_21_1,student_shared,file holder,2.0,competing,paired,s_sh_21_1.jpg,Student,,,sub-03
Desktop or Laptop,Windows 10,Chrome 137.0.0.0,1366x768,1366x768,Temporal Distance Task,cb_02,63.0,temp_dist_trial,dist_items,qkpkxw,2.0,response,65,2284.0,7001.8000000000475,7003.400000000023,2284.0,7001.8000000000475,7003.400000000023,1.0,4719.400000000023,0.0,,Slider,Slider,4.0,object-56,temp_dist_trial,15.0,s_sh_21_1,student_shared,file holder,2.0,competing,paired,s_sh_21_1.jpg,Student,,,sub-03
Desktop or Laptop,Windows 10,Chrome 137.0.0.0,1366x768,1366x768,Temporal Distance Task,cb_02,64.0,temp_dist_trial,num_items,zn7si1,1.0,response,2_ITEM,2550.5,2533.7999999999884,2550.5,2550.5,2533.7999999999884,2550.5,1.0,0.0,0.0,,Click Response,2_count,5.0,object-49,temp_dist_trial,16.0,s_s_15_1,student_stem,jumper cables,2.0,unique,single,s_s_15_1.jpg,Student,,,sub-03
Desktop or Laptop,Windows 10,Chrome 137.0.0.0,1366x768,1366x768,Temporal Distance Task,cb_02,64.0,temp_dist_trial,dist_items,qkpkxw,2.0,info,,7.3999999880907135,0.0,7.3999999880907135,7.3999999880907135,0.0,7.3999999880907135,1.0,0.0,0.0,,Slider,Slider,4.0,object-56,temp_dist_trial,16.0,s_s_15_1,student_stem,jumper cables,2.0,unique,single,s_s_15_1.jpg,Student,,,sub-03
Desktop or Laptop,Windows 10,Chrome 137.0.0.0,1366x768,1366x768,Temporal Distance Task,cb_02,64.0,temp_dist_trial,dist_items,qkpkxw,2.0,continue,,5436.500000011933,5434.5,5436.500000011933,5436.500000011933,5434.5,5436.500000011933,1.0,0.0,0.0,,Click To Continue,Next button,7.0,object-60,temp_dist_trial,16.0,s_s_15_1,student_stem,jumper cables,2.0,unique,single,s_s_15_1.jpg,Student,,,sub-03
Desktop or Laptop,Windows 10,Chrome 137.0.0.0,1366x768,1366x768,Temporal Distance Task,cb_02,64.0,temp_dist_trial,dist_items,qkpkxw,2.0,response,38,4234.299999999987,5434.5,5436.799999964249,4234.299999999987,5434.5,5436.799999964249,1.0,1202.4999999642605,0.0,,Slider,Slider,4.0,object-56,temp_dist_trial,16.0,s_s_15_1,student_stem,jumper cables,2.0,unique,single,s_s_15_1.jpg,Student,,,sub-03
Desktop or Laptop,Windows 10,Chrome 137.0.0.0,1366x768,1366x768,Temporal Distance Task,cb_02,65.0,temp_dist_trial,num_items,zn7si1,1.0,response,1_ITEM,1896.5000000119326,1883.9000000000235,1896.5000000119326,1896.5000000119326,1883.9000000000235,1896.5000000119326,1.0,0.0,0.0,,Click Response,1_count,3.0,object-46,temp_dist_trial,17.0,s_sh_14_1,student_shared,printer,2.0,competing,single,s_sh_14_1.jpg,Student,,,sub-03
Desktop or Laptop,Windows 10,Chrome 137.0.0.0,1366x768,1366x768,Temporal Distance Task,cb_02,66.0,temp_dist_trial,num_items,zn7si1,1.0,response,2_ITEM,1988.0000000119326,1983.6000000000354,1988.0000000119326,1988.0000000119326,1983.6000000000354,1988.0000000119326,1.0,0.0,0.0,,Click Response,2_count,5.0,object-49,temp_dist_trial,18.0,s_sh_20_1,student_shared,tape,2.0,competing,paired,s_sh_20_1.jpg,Student,,,sub-03
Desktop or Laptop,Windows 10,Chrome 137.0.0.0,1366x768,1366x768,Temporal Distance Task,cb_02,66.0,temp_dist_trial,dist_items,qkpkxw,2.0,info,,12.299999976181429,0.0,12.299999976181429,12.299999976181429,0.0,12.299999976181429,1.0,0.0,0.0,,Slider,Slider,4.0,object-56,temp_dist_trial,18.0,s_sh_20_1,student_shared,tape,2.0,competing,paired,s_sh_20_1.jpg,Student,,,sub-03
Desktop or Laptop,Windows 10,Chrome 137.0.0.0,1366x768,1366x768,Temporal Distance Task,cb_02,66.0,temp_dist_trial,dist_items,qkpkxw,2.0,continue,,5988.200000011944,5984.600000000036,5988.200000011944,5988.200000011944,5984.600000000036,5988.200000011944,1.0,0.0,0.0,,Click To Continue,Next button,7.0,object-60,temp_dist_trial,18.0,s_sh_20_1,student_shared,tape,2.0,competing,paired,s_sh_20_1.jpg,Student,,,sub-03
Desktop or Laptop,Windows 10,Chrome 137.0.0.0,1366x768,1366x768,Temporal Distance Task,cb_02,66.0,temp_dist_trial,dist_items,qkpkxw,2.0,response,57,3600.8000000000466,5984.600000000036,5988.7999999761805,3600.8000000000466,5984.600000000036,5988.7999999761805,1.0,2387.999999976135,0.0,,Slider,Slider,4.0,object-56,temp_dist_trial,18.0,s_sh_20_1,student_shared,tape,2.0,competing,paired,s_sh_20_1.jpg,Student,,,sub-03
Desktop or Laptop,Windows 10,Chrome 137.0.0.0,1366x768,1366x768,Temporal Distance Task,cb_02,67.0,temp_dist_trial,num_items,zn7si1,1.0,response,2_ITEM,2003.6999999761465,2000.3999999999646,2003.6999999761465,2003.6999999761465,2000.3999999999646,2003.6999999761465,1.0,0.0,0.0,,Click Response,2_count,5.0,object-49,temp_dist_trial,19.0,s_s_09_1,student_stem,multimeter,2.0,unique,paired,s_s_09_1.jpg,Student,,,sub-03
Desktop or Laptop,Windows 10,Chrome 137.0.0.0,1366x768,1366x768,Temporal Distance Task,cb_02,67.0,temp_dist_trial,dist_items,qkpkxw,2.0,info,,12.100000011909287,0.0,12.100000011909287,12.100000011909287,0.0,12.100000011909287,1.0,0.0,0.0,,Slider,Slider,4.0,object-56,temp_dist_trial,19.0,s_s_09_1,student_stem,multimeter,2.0,unique,paired,s_s_09_1.jpg,Student,,,sub-03
Desktop or Laptop,Windows 10,Chrome 137.0.0.0,1366x768,1366x768,Temporal Distance Task,cb_02,67.0,temp_dist_trial,dist_items,qkpkxw,2.0,continue,,4517.799999999987,4501.099999999977,4517.799999999987,4517.799999999987,4501.099999999977,4517.799999999987,1.0,0.0,0.0,,Click To Continue,Next button,7.0,object-60,temp_dist_trial,19.0,s_s_09_1,student_stem,multimeter,2.0,unique,paired,s_s_09_1.jpg,Student,,,sub-03
Desktop or Laptop,Windows 10,Chrome 137.0.0.0,1366x768,1366x768,Temporal Distance Task,cb_02,67.0,temp_dist_trial,dist_items,qkpkxw,2.0,response,68,2650.700000000012,4501.099999999977,4517.799999999987,2650.700000000012,4501.099999999977,4517.799999999987,1.0,1867.0999999999767,0.0,,Slider,Slider,4.0,object-56,temp_dist_trial,19.0,s_s_09_1,student_stem,multimeter,2.0,unique,paired,s_s_09_1.jpg,Student,,,sub-03
Desktop or Laptop,Windows 10,Chrome 137.0.0.0,1366x768,1366x768,Temporal Distance Task,cb_02,68.0,temp_dist_trial,num_items,zn7si1,1.0,response,2_ITEM,2558.700000000012,2550.700000000012,2558.700000000012,2558.700000000012,2550.700000000012,2558.700000000012,1.0,0.0,0.0,,Click Response,2_count,5.0,object-49,temp_dist_trial,20.0,s_sh_05_1,student_shared,laptop,2.0,competing,paired,s_sh_05_1.jpg,Student,,,sub-03
Desktop or Laptop,Windows 10,Chrome 137.0.0.0,1366x768,1366x768,Temporal Distance Task,cb_02,68.0,temp_dist_trial,dist_items,qkpkxw,2.0,info,,4.900000011897646,0.0,4.900000011897646,4.900000011897646,0.0,4.900000011897646,1.0,0.0,0.0,,Slider,Slider,4.0,object-56,temp_dist_trial,20.0,s_sh_05_1,student_shared,laptop,2.0,competing,paired,s_sh_05_1.jpg,Student,,,sub-03
Desktop or Laptop,Windows 10,Chrome 137.0.0.0,1366x768,1366x768,Temporal Distance Task,cb_02,68.0,temp_dist_trial,dist_items,qkpkxw,2.0,response,dist_miss,7001.5,7001.5,7001.5,7001.5,7001.5,7001.5,1.0,0.0,0.0,dist_miss_tag,Time Limit,screen,0.0,screen,temp_dist_trial,20.0,s_sh_05_1,student_shared,laptop,2.0,competing,paired,s_sh_05_1.jpg,Student,,,sub-03
Desktop or Laptop,Windows 10,Chrome 137.0.0.0,1366x768,1366x768,Temporal Distance Task,cb_02,68.0,temp_dist_trial,dist_items,qkpkxw,2.0,response,38,6701.599999999977,7001.5,7004.299999988056,6701.599999999977,7001.5,7004.299999988056,1.0,302.69999998807907,0.0,,Slider,Slider,4.0,object-56,temp_dist_trial,20.0,s_sh_05_1,student_shared,laptop,2.0,competing,paired,s_sh_05_1.jpg,Student,,,sub-03
Desktop or Laptop,Windows 10,Chrome 137.0.0.0,1366x768,1366x768,Temporal Distance Task,cb_02,69.0,temp_dist_trial,num_items,zn7si1,1.0,response,2_ITEM,2079.5999999999767,2067.1999999999534,2079.5999999999767,2079.5999999999767,2067.1999999999534,2079.5999999999767,1.0,0.0,0.0,,Click Response,2_count,5.0,object-49,temp_dist_trial,21.0,s_s_19_1,student_stem,circuit board,2.0,unique,single,s_s_19_1.jpg,Student,,,sub-03
Desktop or Laptop,Windows 10,Chrome 137.0.0.0,1366x768,1366x768,Temporal Distance Task,cb_02,69.0,temp_dist_trial,dist_items,qkpkxw,2.0,info,,6.5000000119325705,0.0,6.5000000119325705,6.5000000119325705,0.0,6.5000000119325705,1.0,0.0,0.0,,Slider,Slider,4.0,object-56,temp_dist_trial,21.0,s_s_19_1,student_stem,circuit board,2.0,unique,single,s_s_19_1.jpg,Student,,,sub-03
Desktop or Laptop,Windows 10,Chrome 137.0.0.0,1366x768,1366x768,Temporal Distance Task,cb_02,69.0,temp_dist_trial,dist_items,qkpkxw,2.0,response,dist_miss,7001.500000000058,7001.500000000058,7001.500000000058,7001.500000000058,7001.500000000058,7001.500000000058,1.0,0.0,0.0,dist_miss_tag,Time Limit,screen,0.0,screen,temp_dist_trial,21.0,s_s_19_1,student_stem,circuit board,2.0,unique,single,s_s_19_1.jpg,Student,,,sub-03
Desktop or Laptop,Windows 10,Chrome 137.0.0.0,1366x768,1366x768,Temporal Distance Task,cb_02,69.0,temp_dist_trial,dist_items,qkpkxw,2.0,response,,7003.5000000119335,7001.500000000058,7003.5000000119335,7003.5000000119335,7001.500000000058,7003.5000000119335,1.0,0.0,0.0,,Slider,Slider,4.0,object-56,temp_dist_trial,21.0,s_s_19_1,student_stem,circuit board,2.0,unique,single,s_s_19_1.jpg,Student,,,sub-03
Desktop or Laptop,Windows 10,Chrome 137.0.0.0,1366x768,1366x768,Temporal Distance Task,cb_02,70.0,temp_dist_trial,num_items,zn7si1,1.0,response,num_miss,3000.7999999999292,3000.7999999999292,3000.7999999999292,3000.7999999999292,3000.7999999999292,3000.7999999999292,1.0,0.0,0.0,num_miss_tag,Time Limit,screen,0.0,screen,temp_dist_trial,22.0,s_a_14_1,student_art,guitar pick,2.0,unique,single,s_a_14_1.jpg,Student,,,sub-03
Desktop or Laptop,Windows 10,Chrome 137.0.0.0,1366x768,1366x768,Temporal Distance Task,cb_02,71.0,temp_dist_trial,num_items,zn7si1,1.0,response,1_ITEM,2595.9000000118976,2583.9000000000233,2595.9000000118976,2595.9000000118976,2583.9000000000233,2595.9000000118976,1.0,0.0,0.0,,Click Response,1_count,3.0,object-46,temp_dist_trial,23.0,s_sh_04_1,student_shared,laptop stand,2.0,competing,paired,s_sh_04_1.jpg,Student,,,sub-03
Desktop or Laptop,Windows 10,Chrome 137.0.0.0,1366x768,1366x768,Temporal Distance Task,cb_02,72.0,temp_dist_trial,num_items,zn7si1,1.0,response,1_ITEM,1796.5999999642374,1783.8000000000463,1796.5999999642374,1796.5999999642374,1783.8000000000463,1796.5999999642374,1.0,0.0,0.0,,Click Response,1_count,3.0,object-46,temp_dist_trial,24.0,s_sh_15_1,student_shared,usb drive,2.0,competing,single,s_sh_15_1.jpg,Student,,,sub-03
Desktop or Laptop,Windows 10,Chrome 137.0.0.0,1366x768,1366x768,Temporal Distance Task,cb_02,73.0,temp_dist_trial,num_items,zn7si1,1.0,response,2_ITEM,2629.3000000000466,2617.20000000007,2629.3000000000466,2629.3000000000466,2617.20000000007,2629.3000000000466,1.0,0.0,0.0,,Click Response,2_count,5.0,object-49,temp_dist_trial,25.0,s_s_12_1,student_stem,robotic arm,2.0,unique,paired,s_s_12_1.jpg,Student,,,sub-03
Desktop or Laptop,Windows 10,Chrome 137.0.0.0,1366x768,1366x768,Temporal Distance Task,cb_02,73.0,temp_dist_trial,dist_items,qkpkxw,2.0,info,,9.599999964237213,0.0,9.599999964237213,9.599999964237213,0.0,9.599999964237213,1.0,0.0,0.0,,Slider,Slider,4.0,object-56,temp_dist_trial,25.0,s_s_12_1,student_stem,robotic arm,2.0,unique,paired,s_s_12_1.jpg,Student,,,sub-03
Desktop or Laptop,Windows 10,Chrome 137.0.0.0,1366x768,1366x768,Temporal Distance Task,cb_02,73.0,temp_dist_trial,dist_items,qkpkxw,2.0,continue,,4677.599999964237,4667.900000000023,4677.599999964237,4677.599999964237,4667.900000000023,4677.599999964237,1.0,0.0,0.0,,Click To Continue,Next button,7.0,object-60,temp_dist_trial,25.0,s_s_12_1,student_stem,robotic arm,2.0,unique,paired,s_s_12_1.jpg,Student,,,sub-03
Desktop or Laptop,Windows 10,Chrome 137.0.0.0,1366x768,1366x768,Temporal Distance Task,cb_02,73.0,temp_dist_trial,dist_items,qkpkxw,2.0,response,,4684.70000000007,4667.900000000023,4684.70000000007,4684.70000000007,4667.900000000023,4684.70000000007,1.0,0.0,0.0,,Slider,Slider,4.0,object-56,temp_dist_trial,25.0,s_s_12_1,student_stem,robotic arm,2.0,unique,paired,s_s_12_1.jpg,Student,,,sub-03
Desktop or Laptop,Windows 10,Chrome 137.0.0.0,1366x768,1366x768,Temporal Distance Task,cb_02,74.0,temp_dist_trial,num_items,zn7si1,1.0,response,2_ITEM,1736.9999999761346,1733.6999999999537,1736.9999999761346,1736.9999999761346,1733.6999999999537,1736.9999999761346,1.0,0.0,0.0,,Click Response,2_count,5.0,object-49,temp_dist_trial,26.0,s_sh_23_1,student_shared,ballpoint pen,2.0,competing,paired,s_sh_23_1.jpg,Student,,,sub-03
Desktop or Laptop,Windows 10,Chrome 137.0.0.0,1366x768,1366x768,Temporal Distance Task,cb_02,74.0,temp_dist_trial,dist_items,qkpkxw,2.0,info,,11.599999988102356,0.0,11.599999988102356,11.599999988102356,0.0,11.599999988102356,1.0,0.0,0.0,,Slider,Slider,4.0,object-56,temp_dist_trial,26.0,s_sh_23_1,student_shared,ballpoint pen,2.0,competing,paired,s_sh_23_1.jpg,Student,,,sub-03
Desktop or Laptop,Windows 10,Chrome 137.0.0.0,1366x768,1366x768,Temporal Distance Task,cb_02,74.0,temp_dist_trial,dist_items,qkpkxw,2.0,continue,,3283.9000000000237,3267.3000000000466,3283.9000000000237,3283.9000000000237,3267.3000000000466,3283.9000000000237,1.0,0.0,0.0,,Click To Continue,Next button,7.0,object-60,temp_dist_trial,26.0,s_sh_23_1,student_shared,ballpoint pen,2.0,competing,paired,s_sh_23_1.jpg,Student,,,sub-03
Desktop or Laptop,Windows 10,Chrome 137.0.0.0,1366x768,1366x768,Temporal Distance Task,cb_02,74.0,temp_dist_trial,dist_items,qkpkxw,2.0,response,62,1716.9000000000233,3267.3000000000466,3283.9000000000237,1716.9000000000233,3267.3000000000466,3283.9000000000237,1.0,1567.0,0.0,,Slider,Slider,4.0,object-56,temp_dist_trial,26.0,s_sh_23_1,student_shared,ballpoint pen,2.0,competing,paired,s_sh_23_1.jpg,Student,,,sub-03
Desktop or Laptop,Windows 10,Chrome 137.0.0.0,1366x768,1366x768,Temporal Distance Task,cb_02,75.0,temp_dist_trial,num_items,zn7si1,1.0,response,2_ITEM,2374.9000000118976,2367.4000000000233,2374.9000000118976,2374.9000000118976,2367.4000000000233,2374.9000000118976,1.0,0.0,0.0,,Click Response,2_count,5.0,object-49,temp_dist_trial,27.0,s_sh_11_1,student_shared,pencil case,2.0,competing,single,s_sh_11_1.jpg,Student,,,sub-03
Desktop or Laptop,Windows 10,Chrome 137.0.0.0,1366x768,1366x768,Temporal Distance Task,cb_02,75.0,temp_dist_trial,dist_items,qkpkxw,2.0,info,,16.699999999953434,0.0,16.699999999953434,16.699999999953434,0.0,16.699999999953434,1.0,0.0,0.0,,Slider,Slider,4.0,object-56,temp_dist_trial,27.0,s_sh_11_1,student_shared,pencil case,2.0,competing,single,s_sh_11_1.jpg,Student,,,sub-03
Desktop or Laptop,Windows 10,Chrome 137.0.0.0,1366x768,1366x768,Temporal Distance Task,cb_02,75.0,temp_dist_trial,dist_items,qkpkxw,2.0,continue,,3453.9999999881256,3450.9000000000237,3453.9999999881256,3453.9999999881256,3450.9000000000237,3453.9999999881256,1.0,0.0,0.0,,Click To Continue,Next button,7.0,object-60,temp_dist_trial,27.0,s_sh_11_1,student_shared,pencil case,2.0,competing,single,s_sh_11_1.jpg,Student,,,sub-03
Desktop or Laptop,Windows 10,Chrome 137.0.0.0,1366x768,1366x768,Temporal Distance Task,cb_02,75.0,temp_dist_trial,dist_items,qkpkxw,2.0,response,62,2100.70000000007,3450.9000000000237,3457.100000011968,2100.70000000007,3450.9000000000237,3457.100000011968,1.0,1356.4000000118974,0.0,,Slider,Slider,4.0,object-56,temp_dist_trial,27.0,s_sh_11_1,student_shared,pencil case,2.0,competing,single,s_sh_11_1.jpg,Student,,,sub-03
Desktop or Laptop,Windows 10,Chrome 137.0.0.0,1366x768,1366x768,Temporal Distance Task,cb_02,76.0,temp_dist_trial,num_items,zn7si1,1.0,response,2_ITEM,2832.49999996426,2817.4000000000237,2832.49999996426,2832.49999996426,2817.4000000000237,2832.49999996426,1.0,0.0,0.0,,Click Response,2_count,5.0,object-49,temp_dist_trial,28.0,s_a_12_1,student_art,saxophone,2.0,unique,single,s_a_12_1.jpg,Student,,,sub-03
Desktop or Laptop,Windows 10,Chrome 137.0.0.0,1366x768,1366x768,Temporal Distance Task,cb_02,76.0,temp_dist_trial,dist_items,qkpkxw,2.0,info,,12.900000011897644,0.0,12.900000011897644,12.900000011897644,0.0,12.900000011897644,1.0,0.0,0.0,,Slider,Slider,4.0,object-56,temp_dist_trial,28.0,s_a_12_1,student_art,saxophone,2.0,unique,single,s_a_12_1.jpg,Student,,,sub-03
Desktop or Laptop,Windows 10,Chrome 137.0.0.0,1366x768,1366x768,Temporal Distance Task,cb_02,76.0,temp_dist_trial,dist_items,qkpkxw,2.0,continue,,6597.699999964214,6584.900000000023,6597.699999964214,6597.699999964214,6584.900000000023,6597.699999964214,1.0,0.0,0.0,,Click To Continue,Next button,7.0,object-60,temp_dist_trial,28.0,s_a_12_1,student_art,saxophone,2.0,unique,single,s_a_12_1.jpg,Student,,,sub-03
Desktop or Laptop,Windows 10,Chrome 137.0.0.0,1366x768,1366x768,Temporal Distance Task,cb_02,76.0,temp_dist_trial,dist_items,qkpkxw,2.0,response,36,1667.0999999999767,6584.900000000023,6598.699999964214,1667.0999999999767,6584.900000000023,6598.699999964214,1.0,4931.599999964237,0.0,,Slider,Slider,4.0,object-56,temp_dist_trial,28.0,s_a_12_1,student_art,saxophone,2.0,unique,single,s_a_12_1.jpg,Student,,,sub-03
Desktop or Laptop,Windows 10,Chrome 137.0.0.0,1366x768,1366x768,Temporal Distance Task,cb_02,77.0,temp_dist_trial,num_items,zn7si1,1.0,response,1_ITEM,2314.099999976112,2300.599999999977,2314.099999976112,2314.099999976112,2300.599999999977,2314.099999976112,1.0,0.0,0.0,,Click Response,1_count,3.0,object-46,temp_dist_trial,29.0,s_a_18_1,student_art,tutu,2.0,unique,single,s_a_18_1.jpg,Student,,,sub-03
Desktop or Laptop,Windows 10,Chrome 137.0.0.0,1366x768,1366x768,Temporal Distance Task,cb_02,78.0,temp_dist_trial,num_items,zn7si1,1.0,response,1_ITEM,1808.4999999761346,1800.4000000000233,1808.4999999761346,1808.4999999761346,1800.4000000000233,1808.4999999761346,1.0,0.0,0.0,,Click Response,1_count,3.0,object-46,temp_dist_trial,30.0,s_s_02_1,student_stem,flask,2.0,unique,paired,s_s_02_1.jpg,Student,,,sub-03
Desktop or Laptop,Windows 10,Chrome 137.0.0.0,1366x768,1366x768,Temporal Distance Task,cb_02,79.0,temp_dist_trial,num_items,zn7si1,1.0,response,num_miss,3000.5999999999767,3000.5999999999767,3000.5999999999767,3000.5999999999767,3000.5999999999767,3000.5999999999767,1.0,0.0,0.0,num_miss_tag,Time Limit,screen,0.0,screen,temp_dist_trial,31.0,s_sh_03_1,student_shared,highlighter,2.0,competing,paired,s_sh_03_1.jpg,Student,,,sub-03
Desktop or Laptop,Windows 10,Chrome 137.0.0.0,1366x768,1366x768,Temporal Distance Task,cb_02,80.0,temp_dist_trial,num_items,zn7si1,1.0,response,1_ITEM,198.8999999880325,183.59999999997672,198.8999999880325,198.8999999880325,183.59999999997672,198.8999999880325,1.0,0.0,0.0,,Click Response,1_count,3.0,object-46,temp_dist_trial,32.0,s_sh_06_1,student_shared,clipboard,2.0,competing,single,s_sh_06_1.jpg,Student,,,sub-03
Desktop or Laptop,Windows 10,Chrome 137.0.0.0,1366x768,1366x768,Temporal Distance Task,cb_02,81.0,temp_dist_trial,num_items,zn7si1,1.0,response,num_miss,3000.5999999999767,3000.5999999999767,3000.5999999999767,3000.5999999999767,3000.5999999999767,3000.5999999999767,1.0,0.0,0.0,num_miss_tag,Time Limit,screen,0.0,screen,temp_dist_trial,33.0,s_s_01_1,student_stem,microscope,2.0,unique,paired,s_s_01_1.jpg,Student,,,sub-03
Desktop or Laptop,Windows 10,Chrome 137.0.0.0,1366x768,1366x768,Temporal Distance Task,cb_02,82.0,temp_dist_trial,num_items,zn7si1,1.0,response,1_ITEM,1899.5999999642368,1883.8000000000463,1899.5999999642368,1899.5999999642368,1883.8000000000463,1899.5999999642368,1.0,0.0,0.0,,Click Response,1_count,3.0,object-46,temp_dist_trial,34.0,s_a_20_1,student_art,pin cushion,2.0,unique,paired,s_a_20_1.jpg,Student,,,sub-03
Desktop or Laptop,Windows 10,Chrome 137.0.0.0,1366x768,1366x768,Temporal Distance Task,cb_02,83.0,temp_dist_trial,num_items,zn7si1,1.0,response,1_ITEM,1533.9000000000233,1517.0999999999767,1533.9000000000233,1533.9000000000233,1517.0999999999767,1533.9000000000233,1.0,0.0,0.0,,Click Response,1_count,3.0,object-46,temp_dist_trial,35.0,s_s_04_1,student_stem,bunsen burner,2.0,unique,paired,s_s_04_1.jpg,Student,,,sub-03
Desktop or Laptop,Windows 10,Chrome 137.0.0.0,1366x768,1366x768,Temporal Distance Task,cb_02,84.0,temp_dist_trial,num_items,zn7si1,1.0,response,1_ITEM,1503.2999999641904,1500.2999999999302,1503.2999999641904,1503.2999999641904,1500.2999999999302,1503.2999999641904,1.0,0.0,0.0,,Click Response,1_count,3.0,object-46,temp_dist_trial,36.0,s_s_08_1,student_stem,soldering iron,2.0,unique,single,s_s_08_1.jpg,Student,,,sub-03
Desktop or Laptop,Windows 10,Chrome 137.0.0.0,1366x768,1366x768,Temporal Distance Task,cb_02,85.0,temp_dist_trial,num_items,zn7si1,1.0,response,2_ITEM,1920.7999999641904,1917.0,1920.7999999641904,1920.7999999641904,1917.0,1920.7999999641904,1.0,0.0,0.0,,Click Response,2_count,5.0,object-49,temp_dist_trial,37.0,s_sh_16_1,student_shared,stapler,2.0,competing,paired,s_sh_16_1.jpg,Student,,,sub-03
Desktop or Laptop,Windows 10,Chrome 137.0.0.0,1366x768,1366x768,Temporal Distance Task,cb_02,85.0,temp_dist_trial,dist_items,qkpkxw,2.0,info,,15.400000011897644,0.0,15.400000011897644,15.400000011897644,0.0,15.400000011897644,1.0,0.0,0.0,,Slider,Slider,4.0,object-56,temp_dist_trial,37.0,s_sh_16_1,student_shared,stapler,2.0,competing,paired,s_sh_16_1.jpg,Student,,,sub-03
Desktop or Laptop,Windows 10,Chrome 137.0.0.0,1366x768,1366x768,Temporal Distance Task,cb_02,85.0,temp_dist_trial,dist_items,qkpkxw,2.0,continue,,2268.9000000118976,2267.199999999953,2268.9000000118976,2268.9000000118976,2267.199999999953,2268.9000000118976,1.0,0.0,0.0,,Click To Continue,Next button,7.0,object-60,temp_dist_trial,37.0,s_sh_16_1,student_shared,stapler,2.0,competing,paired,s_sh_16_1.jpg,Student,,,sub-03
Desktop or Laptop,Windows 10,Chrome 137.0.0.0,1366x768,1366x768,Temporal Distance Task,cb_02,85.0,temp_dist_trial,dist_items,qkpkxw,2.0,response,60,1167.0,2267.199999999953,2269.199999964214,1167.0,2267.199999999953,2269.199999964214,1.0,1102.199999964214,0.0,,Slider,Slider,4.0,object-56,temp_dist_trial,37.0,s_sh_16_1,student_shared,stapler,2.0,competing,paired,s_sh_16_1.jpg,Student,,,sub-03
Desktop or Laptop,Windows 10,Chrome 137.0.0.0,1366x768,1366x768,Temporal Distance Task,cb_02,86.0,temp_dist_trial,num_items,zn7si1,1.0,response,2_ITEM,2536.0999999881024,2533.8000000000466,2536.0999999881024,2536.0999999881024,2533.8000000000466,2536.0999999881024,1.0,0.0,0.0,,Click Response,2_count,5.0,object-49,temp_dist_trial,38.0,s_sh_17_1,student_shared,wireless mouse,2.0,competing,paired,s_sh_17_1.jpg,Student,,,sub-03
Desktop or Laptop,Windows 10,Chrome 137.0.0.0,1366x768,1366x768,Temporal Distance Task,cb_02,86.0,temp_dist_trial,dist_items,qkpkxw,2.0,info,,8.900000000023283,0.0,8.900000000023283,8.900000000023283,0.0,8.900000000023283,1.0,0.0,0.0,,Slider,Slider,4.0,object-56,temp_dist_trial,38.0,s_sh_17_1,student_shared,wireless mouse,2.0,competing,paired,s_sh_17_1.jpg,Student,,,sub-03
Desktop or Laptop,Windows 10,Chrome 137.0.0.0,1366x768,1366x768,Temporal Distance Task,cb_02,86.0,temp_dist_trial,dist_items,qkpkxw,2.0,continue,,4276.900000000023,4267.599999999977,4276.900000000023,4276.900000000023,4267.599999999977,4276.900000000023,1.0,0.0,0.0,,Click To Continue,Next button,7.0,object-60,temp_dist_trial,38.0,s_sh_17_1,student_shared,wireless mouse,2.0,competing,paired,s_sh_17_1.jpg,Student,,,sub-03
Desktop or Laptop,Windows 10,Chrome 137.0.0.0,1366x768,1366x768,Temporal Distance Task,cb_02,86.0,temp_dist_trial,dist_items,qkpkxw,2.0,response,62,2600.599999999977,4267.599999999977,4277.799999976181,2600.599999999977,4267.599999999977,4277.799999976181,1.0,1677.1999999762052,0.0,,Slider,Slider,4.0,object-56,temp_dist_trial,38.0,s_sh_17_1,student_shared,wireless mouse,2.0,competing,paired,s_sh_17_1.jpg,Student,,,sub-03
Desktop or Laptop,Windows 10,Chrome 137.0.0.0,1366x768,1366x768,Temporal Distance Task,cb_02,87.0,temp_dist_trial,num_items,zn7si1,1.0,response,2_ITEM,1723.3999999642838,1717.1000000000934,1723.3999999642838,1723.3999999642838,1717.1000000000934,1723.3999999642838,1.0,0.0,0.0,,Click Response,2_count,5.0,object-49,temp_dist_trial,39.0,s_a_16_1,student_art,piano,2.0,unique,paired,s_a_16_1.jpg,Student,,,sub-03
Desktop or Laptop,Windows 10,Chrome 137.0.0.0,1366x768,1366x768,Temporal Distance Task,cb_02,87.0,temp_dist_trial,dist_items,qkpkxw,2.0,info,,12.599999976111574,0.0,12.599999976111574,12.599999976111574,0.0,12.599999976111574,1.0,0.0,0.0,,Slider,Slider,4.0,object-56,temp_dist_trial,39.0,s_a_16_1,student_art,piano,2.0,unique,paired,s_a_16_1.jpg,Student,,,sub-03
Desktop or Laptop,Windows 10,Chrome 137.0.0.0,1366x768,1366x768,Temporal Distance Task,cb_02,87.0,temp_dist_trial,dist_items,qkpkxw,2.0,continue,,3879.000000011874,3867.5999999999767,3879.000000011874,3879.000000011874,3867.5999999999767,3879.000000011874,1.0,0.0,0.0,,Click To Continue,Next button,7.0,object-60,temp_dist_trial,39.0,s_a_16_1,student_art,piano,2.0,unique,paired,s_a_16_1.jpg,Student,,,sub-03
Desktop or Laptop,Windows 10,Chrome 137.0.0.0,1366x768,1366x768,Temporal Distance Task,cb_02,87.0,temp_dist_trial,dist_items,qkpkxw,2.0,response,74,2533.899999999907,3867.5999999999767,3884.300000000047,2533.899999999907,3867.5999999999767,3884.300000000047,1.0,1350.4000000001395,0.0,,Slider,Slider,4.0,object-56,temp_dist_trial,39.0,s_a_16_1,student_art,piano,2.0,unique,paired,s_a_16_1.jpg,Student,,,sub-03
Desktop or Laptop,Windows 10,Chrome 137.0.0.0,1366x768,1366x768,Temporal Distance Task,cb_02,88.0,temp_dist_trial,num_items,zn7si1,1.0,response,2_ITEM,2177.4000000118976,2167.1999999999534,2177.4000000118976,2177.4000000118976,2167.1999999999534,2177.4000000118976,1.0,0.0,0.0,,Click Response,2_count,5.0,object-49,temp_dist_trial,40.0,s_sh_01_1,student_shared,notebook,2.0,competing,paired,s_sh_01_1.jpg,Student,,,sub-03
Desktop or Laptop,Windows 10,Chrome 137.0.0.0,1366x768,1366x768,Temporal Distance Task,cb_02,88.0,temp_dist_trial,dist_items,qkpkxw,2.0,info,,15.099999988102356,0.0,15.099999988102356,15.099999988102356,0.0,15.099999988102356,1.0,0.0,0.0,,Slider,Slider,4.0,object-56,temp_dist_trial,40.0,s_sh_01_1,student_shared,notebook,2.0,competing,paired,s_sh_01_1.jpg,Student,,,sub-03
Desktop or Laptop,Windows 10,Chrome 137.0.0.0,1366x768,1366x768,Temporal Distance Task,cb_02,88.0,temp_dist_trial,dist_items,qkpkxw,2.0,continue,,4587.299999976181,4584.400000000023,4587.299999976181,4587.299999976181,4584.400000000023,4587.299999976181,1.0,0.0,0.0,,Click To Continue,Next button,7.0,object-60,temp_dist_trial,40.0,s_sh_01_1,student_shared,notebook,2.0,competing,paired,s_sh_01_1.jpg,Student,,,sub-03
Desktop or Laptop,Windows 10,Chrome 137.0.0.0,1366x768,1366x768,Temporal Distance Task,cb_02,88.0,temp_dist_trial,dist_items,qkpkxw,2.0,response,67,1667.0999999999767,4584.400000000023,4587.599999988101,1667.0999999999767,4584.400000000023,4587.599999988101,1.0,2920.4999999881256,0.0,,Slider,Slider,4.0,object-56,temp_dist_trial,40.0,s_sh_01_1,student_shared,notebook,2.0,competing,paired,s_sh_01_1.jpg,Student,,,sub-03
Desktop or Laptop,Windows 10,Chrome 137.0.0.0,1366x768,1366x768,Temporal Distance Task,cb_02,89.0,temp_dist_trial,num_items,zn7si1,1.0,response,2_ITEM,2924.300000011921,2917.4000000000237,2924.300000011921,2924.300000011921,2917.4000000000237,2924.300000011921,1.0,0.0,0.0,,Click Response,2_count,5.0,object-49,temp_dist_trial,41.0,s_a_19_1,student_art,ballet shoes,2.0,unique,paired,s_a_19_1.jpg,Student,,,sub-03
Desktop or Laptop,Windows 10,Chrome 137.0.0.0,1366x768,1366x768,Temporal Distance Task,cb_02,89.0,temp_dist_trial,dist_items,qkpkxw,2.0,info,,7.399999976158142,0.0,7.399999976158142,7.399999976158142,0.0,7.399999976158142,1.0,0.0,0.0,,Slider,Slider,4.0,object-56,temp_dist_trial,41.0,s_a_19_1,student_art,ballet shoes,2.0,unique,paired,s_a_19_1.jpg,Student,,,sub-03
Desktop or Laptop,Windows 10,Chrome 137.0.0.0,1366x768,1366x768,Temporal Distance Task,cb_02,89.0,temp_dist_trial,dist_items,qkpkxw,2.0,response,dist_miss,7001.599999999977,7001.599999999977,7001.599999999977,7001.599999999977,7001.599999999977,7001.599999999977,1.0,0.0,0.0,dist_miss_tag,Time Limit,screen,0.0,screen,temp_dist_trial,41.0,s_a_19_1,student_art,ballet shoes,2.0,unique,paired,s_a_19_1.jpg,Student,,,sub-03
Desktop or Laptop,Windows 10,Chrome 137.0.0.0,1366x768,1366x768,Temporal Distance Task,cb_02,89.0,temp_dist_trial,dist_items,qkpkxw,2.0,response,59,3967.5,7001.599999999977,7003.399999976158,3967.5,7001.599999999977,7003.399999976158,1.0,3035.8999999761572,0.0,,Slider,Slider,4.0,object-56,temp_dist_trial,41.0,s_a_19_1,student_art,ballet shoes,2.0,unique,paired,s_a_19_1.jpg,Student,,,sub-03
Desktop or Laptop,Windows 10,Chrome 137.0.0.0,1366x768,1366x768,Temporal Distance Task,cb_02,90.0,temp_dist_trial,num_items,zn7si1,1.0,response,2_ITEM,1394.4999999642605,1383.5999999999767,1394.4999999642605,1394.4999999642605,1383.5999999999767,1394.4999999642605,1.0,0.0,0.0,,Click Response,2_count,5.0,object-49,temp_dist_trial,42.0,s_sh_08_1,student_shared,post-its,2.0,competing,paired,s_sh_08_1.jpg,Student,,,sub-03
Desktop or Laptop,Windows 10,Chrome 137.0.0.0,1366x768,1366x768,Temporal Distance Task,cb_02,90.0,temp_dist_trial,dist_items,qkpkxw,2.0,info,,5.399999988032504,0.0,5.399999988032504,5.399999988032504,0.0,5.399999988032504,1.0,0.0,0.0,,Slider,Slider,4.0,object-56,temp_dist_trial,42.0,s_sh_08_1,student_shared,post-its,2.0,competing,paired,s_sh_08_1.jpg,Student,,,sub-03
Desktop or Laptop,Windows 10,Chrome 137.0.0.0,1366x768,1366x768,Temporal Distance Task,cb_02,90.0,temp_dist_trial,dist_items,qkpkxw,2.0,continue,,3007.099999976112,3000.5999999999767,3007.099999976112,3007.099999976112,3000.5999999999767,3007.099999976112,1.0,0.0,0.0,,Click To Continue,Next button,7.0,object-60,temp_dist_trial,42.0,s_sh_08_1,student_shared,post-its,2.0,competing,paired,s_sh_08_1.jpg,Student,,,sub-03
Desktop or Laptop,Windows 10,Chrome 137.0.0.0,1366x768,1366x768,Temporal Distance Task,cb_02,90.0,temp_dist_trial,dist_items,qkpkxw,2.0,response,60,1750.2999999999302,3000.5999999999767,3014.099999976112,1750.2999999999302,3000.5999999999767,3014.099999976112,1.0,1263.7999999761814,0.0,,Slider,Slider,4.0,object-56,temp_dist_trial,42.0,s_sh_08_1,student_shared,post-its,2.0,competing,paired,s_sh_08_1.jpg,Student,,,sub-03
Desktop or Laptop,Windows 10,Chrome 137.0.0.0,1366x768,1366x768,Temporal Distance Task,cb_02,91.0,temp_dist_trial,num_items,zn7si1,1.0,response,2_ITEM,2205.699999964214,2200.5,2205.699999964214,2205.699999964214,2200.5,2205.699999964214,1.0,0.0,0.0,,Click Response,2_count,5.0,object-49,temp_dist_trial,43.0,s_a_02_1,student_art,canvas,2.0,unique,paired,s_a_02_1.jpg,Student,,,sub-03
Desktop or Laptop,Windows 10,Chrome 137.0.0.0,1366x768,1366x768,Temporal Distance Task,cb_02,91.0,temp_dist_trial,dist_items,qkpkxw,2.0,info,,16.5,0.0,16.5,16.5,0.0,16.5,1.0,0.0,0.0,,Slider,Slider,4.0,object-56,temp_dist_trial,43.0,s_a_02_1,student_art,canvas,2.0,unique,paired,s_a_02_1.jpg,Student,,,sub-03
Desktop or Laptop,Windows 10,Chrome 137.0.0.0,1366x768,1366x768,Temporal Distance Task,cb_02,91.0,temp_dist_trial,dist_items,qkpkxw,2.0,continue,,3916.099999964237,3900.9000000000233,3916.099999964237,3916.099999964237,3900.9000000000233,3916.099999964237,1.0,0.0,0.0,,Click To Continue,Next button,7.0,object-60,temp_dist_trial,43.0,s_a_02_1,student_art,canvas,2.0,unique,paired,s_a_02_1.jpg,Student,,,sub-03
Desktop or Laptop,Windows 10,Chrome 137.0.0.0,1366x768,1366x768,Temporal Distance Task,cb_02,91.0,temp_dist_trial,dist_items,qkpkxw,2.0,response,71,2767.4000000000237,3900.9000000000233,3917.300000011921,2767.4000000000237,3900.9000000000233,3917.300000011921,1.0,1149.9000000118974,0.0,,Slider,Slider,4.0,object-56,temp_dist_trial,43.0,s_a_02_1,student_art,canvas,2.0,unique,paired,s_a_02_1.jpg,Student,,,sub-03
Desktop or Laptop,Windows 10,Chrome 137.0.0.0,1366x768,1366x768,Temporal Distance Task,cb_02,92.0,temp_dist_trial,num_items,zn7si1,1.0,response,2_ITEM,2182.0999999999767,2167.29999999993,2182.0999999999767,2182.0999999999767,2167.29999999993,2182.0999999999767,1.0,0.0,0.0,,Click Response,2_count,5.0,object-49,temp_dist_trial,44.0,s_sh_07_1,student_shared,ruler,2.0,competing,paired,s_sh_07_1.jpg,Student,,,sub-03
Desktop or Laptop,Windows 10,Chrome 137.0.0.0,1366x768,1366x768,Temporal Distance Task,cb_02,92.0,temp_dist_trial,dist_items,qkpkxw,2.0,info,,10.399999976158142,0.0,10.399999976158142,10.399999976158142,0.0,10.399999976158142,1.0,0.0,0.0,,Slider,Slider,4.0,object-56,temp_dist_trial,44.0,s_sh_07_1,student_shared,ruler,2.0,competing,paired,s_sh_07_1.jpg,Student,,,sub-03
Desktop or Laptop,Windows 10,Chrome 137.0.0.0,1366x768,1366x768,Temporal Distance Task,cb_02,92.0,temp_dist_trial,dist_items,qkpkxw,2.0,continue,,2996.300000011921,2984.0999999999767,2996.300000011921,2996.300000011921,2984.0999999999767,2996.300000011921,1.0,0.0,0.0,,Click To Continue,Next button,7.0,object-60,temp_dist_trial,44.0,s_sh_07_1,student_shared,ruler,2.0,competing,paired,s_sh_07_1.jpg,Student,,,sub-03
Desktop or Laptop,Windows 10,Chrome 137.0.0.0,1366x768,1366x768,Temporal Distance Task,cb_02,92.0,temp_dist_trial,dist_items,qkpkxw,2.0,response,80,1917.3000000000463,2984.0999999999767,3000.5999999999767,1917.3000000000463,2984.0999999999767,3000.5999999999767,1.0,1083.2999999999304,0.0,,Slider,Slider,4.0,object-56,temp_dist_trial,44.0,s_sh_07_1,student_shared,ruler,2.0,competing,paired,s_sh_07_1.jpg,Student,,,sub-03
Desktop or Laptop,Windows 10,Chrome 137.0.0.0,1366x768,1366x768,Temporal Distance Task,cb_02,93.0,temp_dist_trial,num_items,zn7si1,1.0,response,1_ITEM,1848.0999999881024,1833.8000000000463,1848.0999999881024,1848.0999999881024,1833.8000000000463,1848.0999999881024,1.0,0.0,0.0,,Click Response,1_count,3.0,object-46,temp_dist_trial,45.0,s_sh_10_1,student_shared,scissors,2.0,competing,single,s_sh_10_1.jpg,Student,,,sub-03
Desktop or Laptop,Windows 10,Chrome 137.0.0.0,1366x768,1366x768,Temporal Distance Task,cb_02,94.0,temp_dist_trial,num_items,zn7si1,1.0,response,1_ITEM,1477.5999999999767,1467.1999999999537,1477.5999999999767,1477.5999999999767,1467.1999999999537,1477.5999999999767,1.0,0.0,0.0,,Click Response,1_count,3.0,object-46,temp_dist_trial,46.0,s_s_10_1,student_stem,3d molecule,2.0,unique,single,s_s_10_1.jpg,Student,,,sub-03
Desktop or Laptop,Windows 10,Chrome 137.0.0.0,1366x768,1366x768,Temporal Distance Task,cb_02,95.0,temp_dist_trial,num_items,zn7si1,1.0,response,1_ITEM,1242.7000000119442,1233.7000000000694,1242.7000000119442,1242.7000000119442,1233.7000000000694,1242.7000000119442,1.0,0.0,0.0,,Click Response,1_count,3.0,object-46,temp_dist_trial,47.0,s_a_04_1,student_art,easel,2.0,unique,paired,s_a_04_1.jpg,Student,,,sub-03
Desktop or Laptop,Windows 10,Chrome 137.0.0.0,1366x768,1366x768,Temporal Distance Task,cb_02,96.0,temp_dist_trial,num_items,zn7si1,1.0,response,1_ITEM,1938.1999999762052,1933.7000000000696,1938.1999999762052,1938.1999999762052,1933.7000000000696,1938.1999999762052,1.0,0.0,0.0,,Click Response,1_count,3.0,object-46,temp_dist_trial,48.0,s_s_07_1,student_stem,periodic table,2.0,unique,paired,s_s_07_1.jpg,Student,,,sub-03
Desktop or Laptop,Windows 10,Chrome 137.0.0.0,1366x768,1366x768,Temporal Distance Task,$${counterbalance_group},,,,,,info,END,,,631343.0,,,,0.0,,,,,,,,,,,,,,,,,,,,sub-03
