Participant Device,Participant OS,Participant Browser,Participant Monitor Size,Participant Viewport Size,Task Name,Current Spreadsheet,Trial Number,Display,Screen,Screen ID,Screen Counter,Response Type,Response,Onset Time,Clock Time,Reaction Time,Absolute Onset Time,Absolute Clock Time,Absolute Reaction Time,Correct,Response Duration,Proportion,Tag,Component Name,Object Name,Object Number,Object ID,Spreadsheet: display,Spreadsheet: trial,Spreadsheet: stimulus_id,Spreadsheet: expected_goal,Spreadsheet: stimulus_name,Spreadsheet: c_group,Spreadsheet: condition,Spreadsheet: paired_status,Spreadsheet: stimulus_path,Spreadsheet: block_type,Manipulation: Spreadsheet,Store: enc_test_acc,sub_label
Desktop or Laptop,Windows 10,Chrome 137.0.0.0,1600x900,1600x900,Temporal Distance Task,$${counterbalance_group},,,,,,info,BEGIN,,,,,,,0.0,,,,,,,,,,,,,,,,,,,,sub-57
Desktop or Laptop,Windows 10,Chrome 137.0.0.0,1600x900,1600x900,Temporal Distance Task,cb_09,1.0,temp_instructions,intro_screen,3tnme7,1.0,continue,,7900.000000000003,7883.300000000001,7900.000000000003,7900.000000000003,7883.300000000001,7900.000000000003,1.0,0.0,0.0,,Click To Continue,Continue Button,4.0,object-29,temp_instructions,,,Student,,,,,,,,,sub-57
Desktop or Laptop,Windows 10,Chrome 137.0.0.0,1600x900,1600x900,Temporal Distance Task,cb_09,1.0,temp_instructions,intro_screen_2,52v7ur,2.0,continue,,8228.099999999813,8216.7,8228.099999999813,8228.099999999813,8216.7,8228.099999999813,1.0,0.0,0.0,,Click To Continue,Continue Button,4.0,object-39,temp_instructions,,,Student,,,,,,,,,sub-57
Desktop or Laptop,Windows 10,Chrome 137.0.0.0,1600x900,1600x900,Temporal Distance Task,cb_09,1.0,temp_instructions,intro_screen_3,i7lvwx,3.0,continue,,9093.799999999721,9083.399999999998,9093.799999999721,9093.799999999721,9083.399999999998,9093.799999999721,1.0,0.0,0.0,,Click To Continue,Continue Button,4.0,object-67,temp_instructions,,,Student,,,,,,,,,sub-57
Desktop or Laptop,Windows 10,Chrome 137.0.0.0,1600x900,1600x900,Temporal Distance Task,cb_09,1.0,temp_instructions,test_q1,5ieqx1,4.0,response,choice_3,6291.4999999998145,6283.299999999997,6291.4999999998145,6291.4999999998145,6283.299999999997,6291.4999999998145,1.0,0.0,0.0,,Click Response,choice_3,5.0,object-345,temp_instructions,,,Student,,,,,,,,,sub-57
Desktop or Laptop,Windows 10,Chrome 137.0.0.0,1600x900,1600x900,Temporal Distance Task,cb_09,1.0,temp_instructions,score_corr,7ilvjr,5.0,continue,,1244.2999999999086,1233.4000000000015,1244.2999999999086,1244.2999999999086,1233.4000000000015,1244.2999999999086,1.0,0.0,0.0,,Click To Continue,Continue Button,3.0,object-23,temp_instructions,,,Student,,,,,,,,,sub-57
Desktop or Laptop,Windows 10,Chrome 137.0.0.0,1600x900,1600x900,Temporal Distance Task,cb_09,1.0,temp_eventStart,Screen 1,dgtyxe,1.0,continue,,1577.3999999999066,1566.6999999999966,1577.3999999999066,1577.3999999999066,1566.6999999999966,1577.3999999999066,1.0,0.0,0.0,,Click To Continue,Next Button,3.0,object-43,temp_eventStart,,,Student,,,,,,,,,sub-57
Desktop or Laptop,Windows 10,Chrome 137.0.0.0,1600x900,1600x900,Temporal Distance Task,cb_09,1.0,temp_dist_trial,num_items,zn7si1,1.0,response,2_ITEM,2110.9999999997235,2099.900000000001,2110.9999999997235,2110.9999999997235,2099.900000000001,2110.9999999997235,1.0,0.0,0.0,,Click Response,2_count,5.0,object-49,temp_dist_trial,1.0,s_a_05_1,student_art,clay,9.0,unique,paired,s_a_05_1.jpg,Student,,,sub-57
Desktop or Laptop,Windows 10,Chrome 137.0.0.0,1600x900,1600x900,Temporal Distance Task,cb_09,1.0,temp_dist_trial,dist_items,qkpkxw,2.0,info,,16.69999999999709,0.0,16.69999999999709,16.69999999999709,0.0,16.69999999999709,1.0,0.0,0.0,,Slider,Slider,4.0,object-56,temp_dist_trial,1.0,s_a_05_1,student_art,clay,9.0,unique,paired,s_a_05_1.jpg,Student,,,sub-57
Desktop or Laptop,Windows 10,Chrome 137.0.0.0,1600x900,1600x900,Temporal Distance Task,cb_09,1.0,temp_dist_trial,dist_items,qkpkxw,2.0,continue,,4127.400000000096,4116.100000000006,4127.400000000096,4127.400000000096,4116.100000000006,4127.400000000096,1.0,0.0,0.0,,Click To Continue,Next button,7.0,object-60,temp_dist_trial,1.0,s_a_05_1,student_art,clay,9.0,unique,paired,s_a_05_1.jpg,Student,,,sub-57
Desktop or Laptop,Windows 10,Chrome 137.0.0.0,1600x900,1600x900,Temporal Distance Task,cb_09,1.0,temp_dist_trial,dist_items,qkpkxw,2.0,response,40,2166.1000000000063,4116.100000000006,4128.699999999911,2166.1000000000063,4116.100000000006,4128.699999999911,1.0,1962.599999999904,0.0,,Slider,Slider,4.0,object-56,temp_dist_trial,1.0,s_a_05_1,student_art,clay,9.0,unique,paired,s_a_05_1.jpg,Student,,,sub-57
Desktop or Laptop,Windows 10,Chrome 137.0.0.0,1600x900,1600x900,Temporal Distance Task,cb_09,2.0,temp_dist_trial,num_items,zn7si1,1.0,response,2_ITEM,1777.3999999997175,1766.6999999999966,1777.3999999997175,1777.3999999997175,1766.6999999999966,1777.3999999997175,1.0,0.0,0.0,,Click Response,2_count,5.0,object-49,temp_dist_trial,2.0,s_sh_23_1,student_shared,ballpoint pen,9.0,competing,single,s_sh_23_1.jpg,Student,,,sub-57
Desktop or Laptop,Windows 10,Chrome 137.0.0.0,1600x900,1600x900,Temporal Distance Task,cb_09,2.0,temp_dist_trial,dist_items,qkpkxw,2.0,info,,12.399999999906864,0.0,12.399999999906864,12.399999999906864,0.0,12.399999999906864,1.0,0.0,0.0,,Slider,Slider,4.0,object-56,temp_dist_trial,2.0,s_sh_23_1,student_shared,ballpoint pen,9.0,competing,single,s_sh_23_1.jpg,Student,,,sub-57
Desktop or Laptop,Windows 10,Chrome 137.0.0.0,1600x900,1600x900,Temporal Distance Task,cb_09,2.0,temp_dist_trial,dist_items,qkpkxw,2.0,continue,,3492.699999999721,3483.400000000001,3492.699999999721,3492.699999999721,3483.400000000001,3492.699999999721,1.0,0.0,0.0,,Click To Continue,Next button,7.0,object-60,temp_dist_trial,2.0,s_sh_23_1,student_shared,ballpoint pen,9.0,competing,single,s_sh_23_1.jpg,Student,,,sub-57
Desktop or Laptop,Windows 10,Chrome 137.0.0.0,1600x900,1600x900,Temporal Distance Task,cb_09,2.0,temp_dist_trial,dist_items,qkpkxw,2.0,response,37,1600.0,3483.400000000001,3493.5,1600.0,3483.400000000001,3493.5,1.0,1893.5,0.0,,Slider,Slider,4.0,object-56,temp_dist_trial,2.0,s_sh_23_1,student_shared,ballpoint pen,9.0,competing,single,s_sh_23_1.jpg,Student,,,sub-57
Desktop or Laptop,Windows 10,Chrome 137.0.0.0,1600x900,1600x900,Temporal Distance Task,cb_09,3.0,temp_dist_trial,num_items,zn7si1,1.0,response,1_ITEM,2165.5999999999985,2150.0,2165.5999999999985,2165.5999999999985,2150.0,2165.5999999999985,1.0,0.0,0.0,,Click Response,1_count,3.0,object-46,temp_dist_trial,3.0,s_s_11_1,student_stem,scientific scale,9.0,unique,single,s_s_11_1.jpg,Student,,,sub-57
Desktop or Laptop,Windows 10,Chrome 137.0.0.0,1600x900,1600x900,Temporal Distance Task,cb_09,4.0,temp_dist_trial,num_items,zn7si1,1.0,response,2_ITEM,1427.1999999999966,1416.6999999999966,1427.1999999999966,1427.1999999999966,1416.6999999999966,1427.1999999999966,1.0,0.0,0.0,,Click Response,2_count,5.0,object-49,temp_dist_trial,4.0,s_sh_16_1,student_shared,stapler,9.0,competing,single,s_sh_16_1.jpg,Student,,,sub-57
Desktop or Laptop,Windows 10,Chrome 137.0.0.0,1600x900,1600x900,Temporal Distance Task,cb_09,4.0,temp_dist_trial,dist_items,qkpkxw,2.0,info,,12.400000000001455,0.0,12.400000000001455,12.400000000001455,0.0,12.400000000001455,1.0,0.0,0.0,,Slider,Slider,4.0,object-56,temp_dist_trial,4.0,s_sh_16_1,student_shared,stapler,9.0,competing,single,s_sh_16_1.jpg,Student,,,sub-57
Desktop or Laptop,Windows 10,Chrome 137.0.0.0,1600x900,1600x900,Temporal Distance Task,cb_09,4.0,temp_dist_trial,dist_items,qkpkxw,2.0,continue,,2744.5000000000946,2733.300000000003,2744.5000000000946,2744.5000000000946,2733.300000000003,2744.5000000000946,1.0,0.0,0.0,,Click To Continue,Next button,7.0,object-60,temp_dist_trial,4.0,s_sh_16_1,student_shared,stapler,9.0,competing,single,s_sh_16_1.jpg,Student,,,sub-57
Desktop or Laptop,Windows 10,Chrome 137.0.0.0,1600x900,1600x900,Temporal Distance Task,cb_09,4.0,temp_dist_trial,dist_items,qkpkxw,2.0,response,62,1266.5999999999985,2733.300000000003,2750.0000000000073,1266.5999999999985,2733.300000000003,2750.0000000000073,1.0,1483.400000000009,0.0,,Slider,Slider,4.0,object-56,temp_dist_trial,4.0,s_sh_16_1,student_shared,stapler,9.0,competing,single,s_sh_16_1.jpg,Student,,,sub-57
Desktop or Laptop,Windows 10,Chrome 137.0.0.0,1600x900,1600x900,Temporal Distance Task,cb_09,5.0,temp_dist_trial,num_items,zn7si1,1.0,response,2_ITEM,2443.2000000000917,2433.400000000001,2443.2000000000917,2443.2000000000917,2433.400000000001,2443.2000000000917,1.0,0.0,0.0,,Click Response,2_count,5.0,object-49,temp_dist_trial,5.0,s_sh_01_1,student_shared,notebook,9.0,competing,paired,s_sh_01_1.jpg,Student,,,sub-57
Desktop or Laptop,Windows 10,Chrome 137.0.0.0,1600x900,1600x900,Temporal Distance Task,cb_09,5.0,temp_dist_trial,dist_items,qkpkxw,2.0,info,,13.699999999909778,0.0,13.699999999909778,13.699999999909778,0.0,13.699999999909778,1.0,0.0,0.0,,Slider,Slider,4.0,object-56,temp_dist_trial,5.0,s_sh_01_1,student_shared,notebook,9.0,competing,paired,s_sh_01_1.jpg,Student,,,sub-57
Desktop or Laptop,Windows 10,Chrome 137.0.0.0,1600x900,1600x900,Temporal Distance Task,cb_09,5.0,temp_dist_trial,dist_items,qkpkxw,2.0,continue,,2822.1999999999102,2816.7000000000044,2822.1999999999102,2822.1999999999102,2816.7000000000044,2822.1999999999102,1.0,0.0,0.0,,Click To Continue,Next button,7.0,object-60,temp_dist_trial,5.0,s_sh_01_1,student_shared,notebook,9.0,competing,paired,s_sh_01_1.jpg,Student,,,sub-57
Desktop or Laptop,Windows 10,Chrome 137.0.0.0,1600x900,1600x900,Temporal Distance Task,cb_09,5.0,temp_dist_trial,dist_items,qkpkxw,2.0,response,61,1716.6000000000058,2816.7000000000044,2823.1999999999102,1716.6000000000058,2816.7000000000044,2823.1999999999102,1.0,1106.599999999904,0.0,,Slider,Slider,4.0,object-56,temp_dist_trial,5.0,s_sh_01_1,student_shared,notebook,9.0,competing,paired,s_sh_01_1.jpg,Student,,,sub-57
Desktop or Laptop,Windows 10,Chrome 137.0.0.0,1600x900,1600x900,Temporal Distance Task,cb_09,6.0,temp_dist_trial,num_items,zn7si1,1.0,response,1_ITEM,2333.0999999999985,2316.699999999997,2333.0999999999985,2333.0999999999985,2316.699999999997,2333.0999999999985,1.0,0.0,0.0,,Click Response,1_count,3.0,object-46,temp_dist_trial,6.0,s_sh_19_1,student_shared,portable plastic drawer,9.0,competing,single,s_sh_19_1.jpg,Student,,,sub-57
Desktop or Laptop,Windows 10,Chrome 137.0.0.0,1600x900,1600x900,Temporal Distance Task,cb_09,7.0,temp_dist_trial,num_items,zn7si1,1.0,response,2_ITEM,1374.599999999722,1366.7000000000044,1374.599999999722,1374.599999999722,1366.7000000000044,1374.599999999722,1.0,0.0,0.0,,Click Response,2_count,5.0,object-49,temp_dist_trial,7.0,s_sh_21_1,student_shared,file holder,9.0,competing,single,s_sh_21_1.jpg,Student,,,sub-57
Desktop or Laptop,Windows 10,Chrome 137.0.0.0,1600x900,1600x900,Temporal Distance Task,cb_09,7.0,temp_dist_trial,dist_items,qkpkxw,2.0,info,,11.69999999999709,0.0,11.69999999999709,11.69999999999709,0.0,11.69999999999709,1.0,0.0,0.0,,Slider,Slider,4.0,object-56,temp_dist_trial,7.0,s_sh_21_1,student_shared,file holder,9.0,competing,single,s_sh_21_1.jpg,Student,,,sub-57
Desktop or Laptop,Windows 10,Chrome 137.0.0.0,1600x900,1600x900,Temporal Distance Task,cb_09,7.0,temp_dist_trial,dist_items,qkpkxw,2.0,continue,,3744.099999999904,3733.300000000003,3744.099999999904,3744.099999999904,3733.300000000003,3744.099999999904,1.0,0.0,0.0,,Click To Continue,Next button,7.0,object-60,temp_dist_trial,7.0,s_sh_21_1,student_shared,file holder,9.0,competing,single,s_sh_21_1.jpg,Student,,,sub-57
Desktop or Laptop,Windows 10,Chrome 137.0.0.0,1600x900,1600x900,Temporal Distance Task,cb_09,7.0,temp_dist_trial,dist_items,qkpkxw,2.0,response,38,1716.6999999999966,3733.300000000003,3750.000000000016,1716.6999999999966,3733.300000000003,3750.000000000016,1.0,2033.3000000000175,0.0,,Slider,Slider,4.0,object-56,temp_dist_trial,7.0,s_sh_21_1,student_shared,file holder,9.0,competing,single,s_sh_21_1.jpg,Student,,,sub-57
Desktop or Laptop,Windows 10,Chrome 137.0.0.0,1600x900,1600x900,Temporal Distance Task,cb_09,8.0,temp_dist_trial,num_items,zn7si1,1.0,response,2_ITEM,1194.5000000000873,1183.3999999999942,1194.5000000000873,1194.5000000000873,1183.3999999999942,1194.5000000000873,1.0,0.0,0.0,,Click Response,2_count,5.0,object-49,temp_dist_trial,8.0,s_a_18_1,student_art,tutu,9.0,unique,paired,s_a_18_1.jpg,Student,,,sub-57
Desktop or Laptop,Windows 10,Chrome 137.0.0.0,1600x900,1600x900,Temporal Distance Task,cb_09,8.0,temp_dist_trial,dist_items,qkpkxw,2.0,info,,12.299999999813735,0.0,12.299999999813735,12.299999999813735,0.0,12.299999999813735,1.0,0.0,0.0,,Slider,Slider,4.0,object-56,temp_dist_trial,8.0,s_a_18_1,student_art,tutu,9.0,unique,paired,s_a_18_1.jpg,Student,,,sub-57
Desktop or Laptop,Windows 10,Chrome 137.0.0.0,1600x900,1600x900,Temporal Distance Task,cb_09,8.0,temp_dist_trial,dist_items,qkpkxw,2.0,continue,,2545.100000000093,2533.300000000003,2545.100000000093,2545.100000000093,2533.300000000003,2545.100000000093,1.0,0.0,0.0,,Click To Continue,Next button,7.0,object-60,temp_dist_trial,8.0,s_a_18_1,student_art,tutu,9.0,unique,paired,s_a_18_1.jpg,Student,,,sub-57
Desktop or Laptop,Windows 10,Chrome 137.0.0.0,1600x900,1600x900,Temporal Distance Task,cb_09,8.0,temp_dist_trial,dist_items,qkpkxw,2.0,response,42,1350.0,2533.300000000003,2546.100000000093,1350.0,2533.300000000003,2546.100000000093,1.0,1196.1000000000931,0.0,,Slider,Slider,4.0,object-56,temp_dist_trial,8.0,s_a_18_1,student_art,tutu,9.0,unique,paired,s_a_18_1.jpg,Student,,,sub-57
Desktop or Laptop,Windows 10,Chrome 137.0.0.0,1600x900,1600x900,Temporal Distance Task,cb_09,9.0,temp_dist_trial,num_items,zn7si1,1.0,response,2_ITEM,1491.9999999998108,1483.3999999999942,1491.9999999998108,1491.9999999998108,1483.3999999999942,1491.9999999998108,1.0,0.0,0.0,,Click Response,2_count,5.0,object-49,temp_dist_trial,9.0,s_s_07_1,student_stem,periodic table,9.0,unique,paired,s_s_07_1.jpg,Student,,,sub-57
Desktop or Laptop,Windows 10,Chrome 137.0.0.0,1600x900,1600x900,Temporal Distance Task,cb_09,9.0,temp_dist_trial,dist_items,qkpkxw,2.0,info,,11.799999999901047,0.0,11.799999999901047,11.799999999901047,0.0,11.799999999901047,1.0,0.0,0.0,,Slider,Slider,4.0,object-56,temp_dist_trial,9.0,s_s_07_1,student_stem,periodic table,9.0,unique,paired,s_s_07_1.jpg,Student,,,sub-57
Desktop or Laptop,Windows 10,Chrome 137.0.0.0,1600x900,1600x900,Temporal Distance Task,cb_09,9.0,temp_dist_trial,dist_items,qkpkxw,2.0,continue,,2308.699999999808,2300.0999999999913,2308.699999999808,2308.699999999808,2300.0999999999913,2308.699999999808,1.0,0.0,0.0,,Click To Continue,Next button,7.0,object-60,temp_dist_trial,9.0,s_s_07_1,student_stem,periodic table,9.0,unique,paired,s_s_07_1.jpg,Student,,,sub-57
Desktop or Laptop,Windows 10,Chrome 137.0.0.0,1600x900,1600x900,Temporal Distance Task,cb_09,9.0,temp_dist_trial,dist_items,qkpkxw,2.0,response,58,816.5999999999913,2300.0999999999913,2309.699999999808,816.5999999999913,2300.0999999999913,2309.699999999808,1.0,1493.0999999998166,0.0,,Slider,Slider,4.0,object-56,temp_dist_trial,9.0,s_s_07_1,student_stem,periodic table,9.0,unique,paired,s_s_07_1.jpg,Student,,,sub-57
Desktop or Laptop,Windows 10,Chrome 137.0.0.0,1600x900,1600x900,Temporal Distance Task,cb_09,10.0,temp_dist_trial,num_items,zn7si1,1.0,response,1_ITEM,1399.7999999999884,1383.1999999999966,1399.7999999999884,1399.7999999999884,1383.1999999999966,1399.7999999999884,1.0,0.0,0.0,,Click Response,1_count,3.0,object-46,temp_dist_trial,10.0,s_sh_02_1,student_shared,eraser,9.0,competing,single,s_sh_02_1.jpg,Student,,,sub-57
Desktop or Laptop,Windows 10,Chrome 137.0.0.0,1600x900,1600x900,Temporal Distance Task,cb_09,11.0,temp_dist_trial,num_items,zn7si1,1.0,response,2_ITEM,1287.2999999998135,1283.3000000000031,1287.2999999998135,1287.2999999998135,1283.3000000000031,1287.2999999998135,1.0,0.0,0.0,,Click Response,2_count,5.0,object-49,temp_dist_trial,11.0,s_sh_06_1,student_shared,clipboard,9.0,competing,paired,s_sh_06_1.jpg,Student,,,sub-57
Desktop or Laptop,Windows 10,Chrome 137.0.0.0,1600x900,1600x900,Temporal Distance Task,cb_09,11.0,temp_dist_trial,dist_items,qkpkxw,2.0,info,,11.099999999816646,0.0,11.099999999816646,11.099999999816646,0.0,11.099999999816646,1.0,0.0,0.0,,Slider,Slider,4.0,object-56,temp_dist_trial,11.0,s_sh_06_1,student_shared,clipboard,9.0,competing,paired,s_sh_06_1.jpg,Student,,,sub-57
Desktop or Laptop,Windows 10,Chrome 137.0.0.0,1600x900,1600x900,Temporal Distance Task,cb_09,11.0,temp_dist_trial,dist_items,qkpkxw,2.0,continue,,4272.499999999724,4266.800000000003,4272.499999999724,4272.499999999724,4266.800000000003,4272.499999999724,1.0,0.0,0.0,,Click To Continue,Next button,7.0,object-60,temp_dist_trial,11.0,s_sh_06_1,student_shared,clipboard,9.0,competing,paired,s_sh_06_1.jpg,Student,,,sub-57
Desktop or Laptop,Windows 10,Chrome 137.0.0.0,1600x900,1600x900,Temporal Distance Task,cb_09,11.0,temp_dist_trial,dist_items,qkpkxw,2.0,response,45,2500.1000000000063,4266.800000000003,4273.400000000096,2500.1000000000063,4266.800000000003,4273.400000000096,1.0,1773.3000000000902,0.0,,Slider,Slider,4.0,object-56,temp_dist_trial,11.0,s_sh_06_1,student_shared,clipboard,9.0,competing,paired,s_sh_06_1.jpg,Student,,,sub-57
Desktop or Laptop,Windows 10,Chrome 137.0.0.0,1600x900,1600x900,Temporal Distance Task,cb_09,12.0,temp_dist_trial,num_items,zn7si1,1.0,response,1_ITEM,1713.1000000000934,1700.0,1713.1000000000934,1713.1000000000934,1700.0,1713.1000000000934,1.0,0.0,0.0,,Click Response,1_count,3.0,object-46,temp_dist_trial,12.0,s_sh_17_1,student_shared,wireless mouse,9.0,competing,paired,s_sh_17_1.jpg,Student,,,sub-57
Desktop or Laptop,Windows 10,Chrome 137.0.0.0,1600x900,1600x900,Temporal Distance Task,cb_09,13.0,temp_dist_trial,num_items,zn7si1,1.0,response,2_ITEM,2043.1000000000927,2033.3999999999944,2043.1000000000927,2043.1000000000927,2033.3999999999944,2043.1000000000927,1.0,0.0,0.0,,Click Response,2_count,5.0,object-49,temp_dist_trial,13.0,s_s_20_1,student_stem,dna model,9.0,unique,single,s_s_20_1.jpg,Student,,,sub-57
Desktop or Laptop,Windows 10,Chrome 137.0.0.0,1600x900,1600x900,Temporal Distance Task,cb_09,13.0,temp_dist_trial,dist_items,qkpkxw,2.0,info,,10.299999999726424,0.0,10.299999999726424,10.299999999726424,0.0,10.299999999726424,1.0,0.0,0.0,,Slider,Slider,4.0,object-56,temp_dist_trial,13.0,s_s_20_1,student_stem,dna model,9.0,unique,single,s_s_20_1.jpg,Student,,,sub-57
Desktop or Laptop,Windows 10,Chrome 137.0.0.0,1600x900,1600x900,Temporal Distance Task,cb_09,13.0,temp_dist_trial,dist_items,qkpkxw,2.0,continue,,4216.600000000006,4199.900000000009,4216.600000000006,4216.600000000006,4199.900000000009,4216.600000000006,1.0,0.0,0.0,,Click To Continue,Next button,7.0,object-60,temp_dist_trial,13.0,s_s_20_1,student_stem,dna model,9.0,unique,single,s_s_20_1.jpg,Student,,,sub-57
Desktop or Laptop,Windows 10,Chrome 137.0.0.0,1600x900,1600x900,Temporal Distance Task,cb_09,13.0,temp_dist_trial,dist_items,qkpkxw,2.0,response,64,3133.300000000003,4199.900000000009,4216.600000000006,3133.300000000003,4199.900000000009,4216.600000000006,1.0,1083.3000000000031,0.0,,Slider,Slider,4.0,object-56,temp_dist_trial,13.0,s_s_20_1,student_stem,dna model,9.0,unique,single,s_s_20_1.jpg,Student,,,sub-57
Desktop or Laptop,Windows 10,Chrome 137.0.0.0,1600x900,1600x900,Temporal Distance Task,cb_09,14.0,temp_dist_trial,num_items,zn7si1,1.0,response,1_ITEM,1549.8000000000902,1533.3999999999942,1549.8000000000902,1549.8000000000902,1533.3999999999942,1549.8000000000902,1.0,0.0,0.0,,Click Response,1_count,3.0,object-46,temp_dist_trial,14.0,s_s_16_1,student_stem,toolbox,9.0,unique,single,s_s_16_1.jpg,Student,,,sub-57
Desktop or Laptop,Windows 10,Chrome 137.0.0.0,1600x900,1600x900,Temporal Distance Task,cb_09,15.0,temp_dist_trial,num_items,zn7si1,1.0,response,1_ITEM,1749.8000000000034,1733.3000000000034,1749.8000000000034,1749.8000000000034,1733.3000000000034,1749.8000000000034,1.0,0.0,0.0,,Click Response,1_count,3.0,object-46,temp_dist_trial,15.0,s_a_07_1,student_art,yarn,9.0,unique,single,s_a_07_1.jpg,Student,,,sub-57
Desktop or Laptop,Windows 10,Chrome 137.0.0.0,1600x900,1600x900,Temporal Distance Task,cb_09,16.0,temp_dist_trial,num_items,zn7si1,1.0,response,2_ITEM,1462.1999999998081,1450.0,1462.1999999998081,1462.1999999998081,1450.0,1462.1999999998081,1.0,0.0,0.0,,Click Response,2_count,5.0,object-49,temp_dist_trial,16.0,s_sh_13_1,student_shared,index cards,9.0,competing,paired,s_sh_13_1.jpg,Student,,,sub-57
Desktop or Laptop,Windows 10,Chrome 137.0.0.0,1600x900,1600x900,Temporal Distance Task,cb_09,16.0,temp_dist_trial,dist_items,qkpkxw,2.0,info,,13.599999999714782,0.0,13.599999999714782,13.599999999714782,0.0,13.599999999714782,1.0,0.0,0.0,,Slider,Slider,4.0,object-56,temp_dist_trial,16.0,s_sh_13_1,student_shared,index cards,9.0,competing,paired,s_sh_13_1.jpg,Student,,,sub-57
Desktop or Laptop,Windows 10,Chrome 137.0.0.0,1600x900,1600x900,Temporal Distance Task,cb_09,16.0,temp_dist_trial,dist_items,qkpkxw,2.0,continue,,3441.099999999715,3433.3999999999933,3441.099999999715,3441.099999999715,3433.3999999999933,3441.099999999715,1.0,0.0,0.0,,Click To Continue,Next button,7.0,object-60,temp_dist_trial,16.0,s_sh_13_1,student_shared,index cards,9.0,competing,paired,s_sh_13_1.jpg,Student,,,sub-57
Desktop or Laptop,Windows 10,Chrome 137.0.0.0,1600x900,1600x900,Temporal Distance Task,cb_09,16.0,temp_dist_trial,dist_items,qkpkxw,2.0,response,27,1149.8999999999942,3433.3999999999933,3442.599999999715,1149.8999999999942,3433.3999999999933,3442.599999999715,1.0,2292.699999999721,0.0,,Slider,Slider,4.0,object-56,temp_dist_trial,16.0,s_sh_13_1,student_shared,index cards,9.0,competing,paired,s_sh_13_1.jpg,Student,,,sub-57
Desktop or Laptop,Windows 10,Chrome 137.0.0.0,1600x900,1600x900,Temporal Distance Task,cb_09,17.0,temp_dist_trial,num_items,zn7si1,1.0,response,1_ITEM,1391.6000000000934,1383.1999999999966,1391.6000000000934,1391.6000000000934,1383.1999999999966,1391.6000000000934,1.0,0.0,0.0,,Click Response,1_count,3.0,object-46,temp_dist_trial,17.0,s_a_17_1,student_art,microphone,9.0,unique,paired,s_a_17_1.jpg,Student,,,sub-57
Desktop or Laptop,Windows 10,Chrome 137.0.0.0,1600x900,1600x900,Temporal Distance Task,cb_09,18.0,temp_dist_trial,num_items,zn7si1,1.0,response,1_ITEM,1206.4999999998108,1199.8999999999942,1206.4999999998108,1206.4999999998108,1199.8999999999942,1206.4999999998108,1.0,0.0,0.0,,Click Response,1_count,3.0,object-46,temp_dist_trial,18.0,s_s_02_1,student_stem,flask,9.0,unique,paired,s_s_02_1.jpg,Student,,,sub-57
Desktop or Laptop,Windows 10,Chrome 137.0.0.0,1600x900,1600x900,Temporal Distance Task,cb_09,19.0,temp_dist_trial,num_items,zn7si1,1.0,response,2_ITEM,1110.5999999998166,1100.0,1110.5999999998166,1110.5999999998166,1100.0,1110.5999999998166,1.0,0.0,0.0,,Click Response,2_count,5.0,object-49,temp_dist_trial,19.0,s_a_19_1,student_art,ballet shoes,9.0,unique,paired,s_a_19_1.jpg,Student,,,sub-57
Desktop or Laptop,Windows 10,Chrome 137.0.0.0,1600x900,1600x900,Temporal Distance Task,cb_09,19.0,temp_dist_trial,dist_items,qkpkxw,2.0,info,,10.999999999810825,0.0,10.999999999810825,10.999999999810825,0.0,10.999999999810825,1.0,0.0,0.0,,Slider,Slider,4.0,object-56,temp_dist_trial,19.0,s_a_19_1,student_art,ballet shoes,9.0,unique,paired,s_a_19_1.jpg,Student,,,sub-57
Desktop or Laptop,Windows 10,Chrome 137.0.0.0,1600x900,1600x900,Temporal Distance Task,cb_09,19.0,temp_dist_trial,dist_items,qkpkxw,2.0,continue,,2296.3999999997172,2283.300000000003,2296.3999999997172,2296.3999999997172,2283.300000000003,2296.3999999997172,1.0,0.0,0.0,,Click To Continue,Next button,7.0,object-60,temp_dist_trial,19.0,s_a_19_1,student_art,ballet shoes,9.0,unique,paired,s_a_19_1.jpg,Student,,,sub-57
Desktop or Laptop,Windows 10,Chrome 137.0.0.0,1600x900,1600x900,Temporal Distance Task,cb_09,19.0,temp_dist_trial,dist_items,qkpkxw,2.0,response,42,1199.8999999999942,2283.300000000003,2297.199999999997,1199.8999999999942,2283.300000000003,2297.199999999997,1.0,1097.3000000000031,0.0,,Slider,Slider,4.0,object-56,temp_dist_trial,19.0,s_a_19_1,student_art,ballet shoes,9.0,unique,paired,s_a_19_1.jpg,Student,,,sub-57
Desktop or Laptop,Windows 10,Chrome 137.0.0.0,1600x900,1600x900,Temporal Distance Task,cb_09,20.0,temp_dist_trial,num_items,zn7si1,1.0,response,2_ITEM,1309.0000000000873,1300.0,1309.0000000000873,1309.0000000000873,1300.0,1309.0000000000873,1.0,0.0,0.0,,Click Response,2_count,5.0,object-49,temp_dist_trial,20.0,s_sh_12_1,student_shared,binder,9.0,competing,paired,s_sh_12_1.jpg,Student,,,sub-57
Desktop or Laptop,Windows 10,Chrome 137.0.0.0,1600x900,1600x900,Temporal Distance Task,cb_09,20.0,temp_dist_trial,dist_items,qkpkxw,2.0,info,,10.500000000087313,0.0,10.500000000087313,10.500000000087313,0.0,10.500000000087313,1.0,0.0,0.0,,Slider,Slider,4.0,object-56,temp_dist_trial,20.0,s_sh_12_1,student_shared,binder,9.0,competing,paired,s_sh_12_1.jpg,Student,,,sub-57
Desktop or Laptop,Windows 10,Chrome 137.0.0.0,1600x900,1600x900,Temporal Distance Task,cb_09,20.0,temp_dist_trial,dist_items,qkpkxw,2.0,continue,,2243.0000000000878,2233.2999999999884,2243.0000000000878,2243.0000000000878,2233.2999999999884,2243.0000000000878,1.0,0.0,0.0,,Click To Continue,Next button,7.0,object-60,temp_dist_trial,20.0,s_sh_12_1,student_shared,binder,9.0,competing,paired,s_sh_12_1.jpg,Student,,,sub-57
Desktop or Laptop,Windows 10,Chrome 137.0.0.0,1600x900,1600x900,Temporal Distance Task,cb_09,20.0,temp_dist_trial,dist_items,qkpkxw,2.0,response,38,933.2999999999884,2233.2999999999884,2244.199999999808,933.2999999999884,2233.2999999999884,2244.199999999808,1.0,1310.8999999998196,0.0,,Slider,Slider,4.0,object-56,temp_dist_trial,20.0,s_sh_12_1,student_shared,binder,9.0,competing,paired,s_sh_12_1.jpg,Student,,,sub-57
Desktop or Laptop,Windows 10,Chrome 137.0.0.0,1600x900,1600x900,Temporal Distance Task,cb_09,21.0,temp_dist_trial,num_items,zn7si1,1.0,response,2_ITEM,1415.6000000000058,1400.1000000000058,1415.6000000000058,1415.6000000000058,1400.1000000000058,1415.6000000000058,1.0,0.0,0.0,,Click Response,2_count,5.0,object-49,temp_dist_trial,21.0,s_a_12_1,student_art,saxophone,9.0,unique,paired,s_a_12_1.jpg,Student,,,sub-57
Desktop or Laptop,Windows 10,Chrome 137.0.0.0,1600x900,1600x900,Temporal Distance Task,cb_09,21.0,temp_dist_trial,dist_items,qkpkxw,2.0,info,,11.799999999726426,0.0,11.799999999726426,11.799999999726426,0.0,11.799999999726426,1.0,0.0,0.0,,Slider,Slider,4.0,object-56,temp_dist_trial,21.0,s_a_12_1,student_art,saxophone,9.0,unique,paired,s_a_12_1.jpg,Student,,,sub-57
Desktop or Laptop,Windows 10,Chrome 137.0.0.0,1600x900,1600x900,Temporal Distance Task,cb_09,21.0,temp_dist_trial,dist_items,qkpkxw,2.0,continue,,2481.999999999913,2466.700000000012,2481.999999999913,2481.999999999913,2466.700000000012,2481.999999999913,1.0,0.0,0.0,,Click To Continue,Next button,7.0,object-60,temp_dist_trial,21.0,s_a_12_1,student_art,saxophone,9.0,unique,paired,s_a_12_1.jpg,Student,,,sub-57
Desktop or Laptop,Windows 10,Chrome 137.0.0.0,1600x900,1600x900,Temporal Distance Task,cb_09,21.0,temp_dist_trial,dist_items,qkpkxw,2.0,response,25,1166.7000000000114,2466.700000000012,2482.999999999913,1166.7000000000114,2466.700000000012,2482.999999999913,1.0,1316.299999999901,0.0,,Slider,Slider,4.0,object-56,temp_dist_trial,21.0,s_a_12_1,student_art,saxophone,9.0,unique,paired,s_a_12_1.jpg,Student,,,sub-57
Desktop or Laptop,Windows 10,Chrome 137.0.0.0,1600x900,1600x900,Temporal Distance Task,cb_09,22.0,temp_dist_trial,num_items,zn7si1,1.0,response,2_ITEM,1403.8999999999942,1400.0,1403.8999999999942,1403.8999999999942,1400.0,1403.8999999999942,1.0,0.0,0.0,,Click Response,2_count,5.0,object-49,temp_dist_trial,22.0,s_sh_22_1,student_shared,hole puncher,9.0,competing,paired,s_sh_22_1.jpg,Student,,,sub-57
Desktop or Laptop,Windows 10,Chrome 137.0.0.0,1600x900,1600x900,Temporal Distance Task,cb_09,22.0,temp_dist_trial,dist_items,qkpkxw,2.0,info,,12.500000000087313,0.0,12.500000000087313,12.500000000087313,0.0,12.500000000087313,1.0,0.0,0.0,,Slider,Slider,4.0,object-56,temp_dist_trial,22.0,s_sh_22_1,student_shared,hole puncher,9.0,competing,paired,s_sh_22_1.jpg,Student,,,sub-57
Desktop or Laptop,Windows 10,Chrome 137.0.0.0,1600x900,1600x900,Temporal Distance Task,cb_09,22.0,temp_dist_trial,dist_items,qkpkxw,2.0,continue,,1713.1999999998081,1700.099999999991,1713.1999999998081,1713.1999999998081,1700.099999999991,1713.1999999998081,1.0,0.0,0.0,,Click To Continue,Next button,7.0,object-60,temp_dist_trial,22.0,s_sh_22_1,student_shared,hole puncher,9.0,competing,paired,s_sh_22_1.jpg,Student,,,sub-57
Desktop or Laptop,Windows 10,Chrome 137.0.0.0,1600x900,1600x900,Temporal Distance Task,cb_09,22.0,temp_dist_trial,dist_items,qkpkxw,2.0,response,34,700.0999999999913,1700.099999999991,1714.0999999997143,700.0999999999913,1700.099999999991,1714.0999999997143,1.0,1013.9999999997236,0.0,,Slider,Slider,4.0,object-56,temp_dist_trial,22.0,s_sh_22_1,student_shared,hole puncher,9.0,competing,paired,s_sh_22_1.jpg,Student,,,sub-57
Desktop or Laptop,Windows 10,Chrome 137.0.0.0,1600x900,1600x900,Temporal Distance Task,cb_09,23.0,temp_dist_trial,num_items,zn7si1,1.0,response,2_ITEM,1582.900000000096,1566.6000000000058,1582.900000000096,1582.900000000096,1566.6000000000058,1582.900000000096,1.0,0.0,0.0,,Click Response,2_count,5.0,object-49,temp_dist_trial,23.0,s_s_06_1,student_stem,calculator,9.0,unique,single,s_s_06_1.jpg,Student,,,sub-57
Desktop or Laptop,Windows 10,Chrome 137.0.0.0,1600x900,1600x900,Temporal Distance Task,cb_09,23.0,temp_dist_trial,dist_items,qkpkxw,2.0,info,,10.399999999717693,0.0,10.399999999717693,10.399999999717693,0.0,10.399999999717693,1.0,0.0,0.0,,Slider,Slider,4.0,object-56,temp_dist_trial,23.0,s_s_06_1,student_stem,calculator,9.0,unique,single,s_s_06_1.jpg,Student,,,sub-57
Desktop or Laptop,Windows 10,Chrome 137.0.0.0,1600x900,1600x900,Temporal Distance Task,cb_09,23.0,temp_dist_trial,dist_items,qkpkxw,2.0,continue,,1918.6999999999966,1916.6999999999966,1918.6999999999966,1918.6999999999966,1916.6999999999966,1918.6999999999966,1.0,0.0,0.0,,Click To Continue,Next button,7.0,object-60,temp_dist_trial,23.0,s_s_06_1,student_stem,calculator,9.0,unique,single,s_s_06_1.jpg,Student,,,sub-57
Desktop or Laptop,Windows 10,Chrome 137.0.0.0,1600x900,1600x900,Temporal Distance Task,cb_09,23.0,temp_dist_trial,dist_items,qkpkxw,2.0,response,39,866.6999999999971,1916.6999999999966,1919.8000000000907,866.6999999999971,1916.6999999999966,1919.8000000000907,1.0,1053.1000000000931,0.0,,Slider,Slider,4.0,object-56,temp_dist_trial,23.0,s_s_06_1,student_stem,calculator,9.0,unique,single,s_s_06_1.jpg,Student,,,sub-57
Desktop or Laptop,Windows 10,Chrome 137.0.0.0,1600x900,1600x900,Temporal Distance Task,cb_09,24.0,temp_dist_trial,num_items,zn7si1,1.0,response,1_ITEM,985.6999999997206,983.3000000000028,985.6999999997206,985.6999999997206,983.3000000000028,985.6999999997206,1.0,0.0,0.0,,Click Response,1_count,3.0,object-46,temp_dist_trial,24.0,s_s_19_1,student_stem,circuit board,9.0,unique,paired,s_s_19_1.jpg,Student,,,sub-57
Desktop or Laptop,Windows 10,Chrome 137.0.0.0,1600x900,1600x900,Temporal Distance Task,cb_09,25.0,temp_dist_trial,num_items,zn7si1,1.0,response,1_ITEM,1748.1999999999966,1733.3000000000034,1748.1999999999966,1748.1999999999966,1733.3000000000034,1748.1999999999966,1.0,0.0,0.0,,Click Response,1_count,3.0,object-46,temp_dist_trial,25.0,s_a_06_1,student_art,pastels,9.0,unique,single,s_a_06_1.jpg,Student,,,sub-57
Desktop or Laptop,Windows 10,Chrome 137.0.0.0,1600x900,1600x900,Temporal Distance Task,cb_09,26.0,temp_dist_trial,num_items,zn7si1,1.0,response,1_ITEM,1088.900000000096,1083.3000000000031,1088.900000000096,1088.900000000096,1083.3000000000031,1088.900000000096,1.0,0.0,0.0,,Click Response,1_count,3.0,object-46,temp_dist_trial,26.0,s_a_01_1,student_art,paintbrush,9.0,unique,single,s_a_01_1.jpg,Student,,,sub-57
Desktop or Laptop,Windows 10,Chrome 137.0.0.0,1600x900,1600x900,Temporal Distance Task,cb_09,27.0,temp_dist_trial,num_items,zn7si1,1.0,response,2_ITEM,1229.8999999999069,1216.6999999999969,1229.8999999999069,1229.8999999999069,1216.6999999999969,1229.8999999999069,1.0,0.0,0.0,,Click Response,2_count,5.0,object-49,temp_dist_trial,27.0,s_s_09_1,student_stem,multimeter,9.0,unique,paired,s_s_09_1.jpg,Student,,,sub-57
Desktop or Laptop,Windows 10,Chrome 137.0.0.0,1600x900,1600x900,Temporal Distance Task,cb_09,27.0,temp_dist_trial,dist_items,qkpkxw,2.0,info,,9.999999999708962,0.0,9.999999999708962,9.999999999708962,0.0,9.999999999708962,1.0,0.0,0.0,,Slider,Slider,4.0,object-56,temp_dist_trial,27.0,s_s_09_1,student_stem,multimeter,9.0,unique,paired,s_s_09_1.jpg,Student,,,sub-57
Desktop or Laptop,Windows 10,Chrome 137.0.0.0,1600x900,1600x900,Temporal Distance Task,cb_09,27.0,temp_dist_trial,dist_items,qkpkxw,2.0,continue,,3243.199999999895,3233.3999999999933,3243.199999999895,3243.199999999895,3233.3999999999933,3243.199999999895,1.0,0.0,0.0,,Click To Continue,Next button,7.0,object-60,temp_dist_trial,27.0,s_s_09_1,student_stem,multimeter,9.0,unique,paired,s_s_09_1.jpg,Student,,,sub-57
Desktop or Laptop,Windows 10,Chrome 137.0.0.0,1600x900,1600x900,Temporal Distance Task,cb_09,27.0,temp_dist_trial,dist_items,qkpkxw,2.0,response,62,950.0,3233.3999999999933,3244.2999999999884,950.0,3233.3999999999933,3244.2999999999884,1.0,2294.2999999999884,0.0,,Slider,Slider,4.0,object-56,temp_dist_trial,27.0,s_s_09_1,student_stem,multimeter,9.0,unique,paired,s_s_09_1.jpg,Student,,,sub-57
Desktop or Laptop,Windows 10,Chrome 137.0.0.0,1600x900,1600x900,Temporal Distance Task,cb_09,28.0,temp_dist_trial,num_items,zn7si1,1.0,response,1_ITEM,1193.5000000000873,1183.2999999999886,1193.5000000000873,1193.5000000000873,1183.2999999999886,1193.5000000000873,1.0,0.0,0.0,,Click Response,1_count,3.0,object-46,temp_dist_trial,28.0,s_sh_03_1,student_shared,highlighter,9.0,competing,single,s_sh_03_1.jpg,Student,,,sub-57
Desktop or Laptop,Windows 10,Chrome 137.0.0.0,1600x900,1600x900,Temporal Distance Task,cb_09,29.0,temp_dist_trial,num_items,zn7si1,1.0,response,2_ITEM,1516.3999999997325,1500.1000000000058,1516.3999999997325,1516.3999999997325,1500.1000000000058,1516.3999999997325,1.0,0.0,0.0,,Click Response,2_count,5.0,object-49,temp_dist_trial,29.0,s_sh_24_1,student_shared,desk organizer,9.0,competing,paired,s_sh_24_1.jpg,Student,,,sub-57
Desktop or Laptop,Windows 10,Chrome 137.0.0.0,1600x900,1600x900,Temporal Distance Task,cb_09,29.0,temp_dist_trial,dist_items,qkpkxw,2.0,info,,9.899999999819556,0.0,9.899999999819556,9.899999999819556,0.0,9.899999999819556,1.0,0.0,0.0,,Slider,Slider,4.0,object-56,temp_dist_trial,29.0,s_sh_24_1,student_shared,desk organizer,9.0,competing,paired,s_sh_24_1.jpg,Student,,,sub-57
Desktop or Laptop,Windows 10,Chrome 137.0.0.0,1600x900,1600x900,Temporal Distance Task,cb_09,29.0,temp_dist_trial,dist_items,qkpkxw,2.0,continue,,2540.39999999982,2533.300000000017,2540.39999999982,2540.39999999982,2533.300000000017,2540.39999999982,1.0,0.0,0.0,,Click To Continue,Next button,7.0,object-60,temp_dist_trial,29.0,s_sh_24_1,student_shared,desk organizer,9.0,competing,paired,s_sh_24_1.jpg,Student,,,sub-57
Desktop or Laptop,Windows 10,Chrome 137.0.0.0,1600x900,1600x900,Temporal Distance Task,cb_09,29.0,temp_dist_trial,dist_items,qkpkxw,2.0,response,55,750.1000000000058,2533.300000000017,2541.1000000000063,750.1000000000058,2533.300000000017,2541.1000000000063,1.0,1791.0,0.0,,Slider,Slider,4.0,object-56,temp_dist_trial,29.0,s_sh_24_1,student_shared,desk organizer,9.0,competing,paired,s_sh_24_1.jpg,Student,,,sub-57
Desktop or Laptop,Windows 10,Chrome 137.0.0.0,1600x900,1600x900,Temporal Distance Task,cb_09,30.0,temp_dist_trial,num_items,zn7si1,1.0,response,1_ITEM,1071.7999999999884,1066.6999999999823,1071.7999999999884,1071.7999999999884,1066.6999999999823,1071.7999999999884,1.0,0.0,0.0,,Click Response,1_count,3.0,object-46,temp_dist_trial,30.0,s_a_15_1,student_art,drum kit,9.0,unique,single,s_a_15_1.jpg,Student,,,sub-57
Desktop or Laptop,Windows 10,Chrome 137.0.0.0,1600x900,1600x900,Temporal Distance Task,cb_09,31.0,temp_dist_trial,num_items,zn7si1,1.0,response,2_ITEM,1458.2999999997269,1450.0,1458.2999999997269,1458.2999999997269,1450.0,1458.2999999997269,1.0,0.0,0.0,,Click Response,2_count,5.0,object-49,temp_dist_trial,31.0,s_s_10_1,student_stem,3d molecule,9.0,unique,paired,s_s_10_1.jpg,Student,,,sub-57
Desktop or Laptop,Windows 10,Chrome 137.0.0.0,1600x900,1600x900,Temporal Distance Task,cb_09,31.0,temp_dist_trial,dist_items,qkpkxw,2.0,info,,9.600000000005819,0.0,9.600000000005819,9.600000000005819,0.0,9.600000000005819,1.0,0.0,0.0,,Slider,Slider,4.0,object-56,temp_dist_trial,31.0,s_s_10_1,student_stem,3d molecule,9.0,unique,paired,s_s_10_1.jpg,Student,,,sub-57
Desktop or Laptop,Windows 10,Chrome 137.0.0.0,1600x900,1600x900,Temporal Distance Task,cb_09,31.0,temp_dist_trial,dist_items,qkpkxw,2.0,continue,,1850.0999999999767,1833.3999999999944,1850.0999999999767,1850.0999999999767,1833.3999999999944,1850.0999999999767,1.0,0.0,0.0,,Click To Continue,Next button,7.0,object-60,temp_dist_trial,31.0,s_s_10_1,student_stem,3d molecule,9.0,unique,paired,s_s_10_1.jpg,Student,,,sub-57
Desktop or Laptop,Windows 10,Chrome 137.0.0.0,1600x900,1600x900,Temporal Distance Task,cb_09,31.0,temp_dist_trial,dist_items,qkpkxw,2.0,response,39,716.7000000000116,1833.3999999999944,1850.0999999999767,716.7000000000116,1833.3999999999944,1850.0999999999767,1.0,1133.399999999965,0.0,,Slider,Slider,4.0,object-56,temp_dist_trial,31.0,s_s_10_1,student_stem,3d molecule,9.0,unique,paired,s_s_10_1.jpg,Student,,,sub-57
Desktop or Laptop,Windows 10,Chrome 137.0.0.0,1600x900,1600x900,Temporal Distance Task,cb_09,32.0,temp_dist_trial,num_items,zn7si1,1.0,response,2_ITEM,1319.2000000000114,1316.6000000000058,1319.2000000000114,1319.2000000000114,1316.6000000000058,1319.2000000000114,1.0,0.0,0.0,,Click Response,2_count,5.0,object-49,temp_dist_trial,32.0,s_sh_14_1,student_shared,printer,9.0,competing,paired,s_sh_14_1.jpg,Student,,,sub-57
Desktop or Laptop,Windows 10,Chrome 137.0.0.0,1600x900,1600x900,Temporal Distance Task,cb_09,32.0,temp_dist_trial,dist_items,qkpkxw,2.0,info,,10.700000000098953,0.0,10.700000000098953,10.700000000098953,0.0,10.700000000098953,1.0,0.0,0.0,,Slider,Slider,4.0,object-56,temp_dist_trial,32.0,s_sh_14_1,student_shared,printer,9.0,competing,paired,s_sh_14_1.jpg,Student,,,sub-57
Desktop or Laptop,Windows 10,Chrome 137.0.0.0,1600x900,1600x900,Temporal Distance Task,cb_09,32.0,temp_dist_trial,dist_items,qkpkxw,2.0,continue,,1756.1000000000058,1750.0,1756.1000000000058,1756.1000000000058,1750.0,1756.1000000000058,1.0,0.0,0.0,,Click To Continue,Next button,7.0,object-60,temp_dist_trial,32.0,s_sh_14_1,student_shared,printer,9.0,competing,paired,s_sh_14_1.jpg,Student,,,sub-57
Desktop or Laptop,Windows 10,Chrome 137.0.0.0,1600x900,1600x900,Temporal Distance Task,cb_09,32.0,temp_dist_trial,dist_items,qkpkxw,2.0,response,36,733.3999999999942,1750.0,1766.6000000000058,733.3999999999942,1750.0,1766.6000000000058,1.0,1033.2000000000116,0.0,,Slider,Slider,4.0,object-56,temp_dist_trial,32.0,s_sh_14_1,student_shared,printer,9.0,competing,paired,s_sh_14_1.jpg,Student,,,sub-57
Desktop or Laptop,Windows 10,Chrome 137.0.0.0,1600x900,1600x900,Temporal Distance Task,cb_09,33.0,temp_dist_trial,num_items,zn7si1,1.0,response,2_ITEM,1762.4999999999127,1750.1000000000058,1762.4999999999127,1762.4999999999127,1750.1000000000058,1762.4999999999127,1.0,0.0,0.0,,Click Response,2_count,5.0,object-49,temp_dist_trial,33.0,s_s_15_1,student_stem,jumper cables,9.0,unique,paired,s_s_15_1.jpg,Student,,,sub-57
Desktop or Laptop,Windows 10,Chrome 137.0.0.0,1600x900,1600x900,Temporal Distance Task,cb_09,33.0,temp_dist_trial,dist_items,qkpkxw,2.0,info,,10.200000000098953,0.0,10.200000000098953,10.200000000098953,0.0,10.200000000098953,1.0,0.0,0.0,,Slider,Slider,4.0,object-56,temp_dist_trial,33.0,s_s_15_1,student_stem,jumper cables,9.0,unique,paired,s_s_15_1.jpg,Student,,,sub-57
Desktop or Laptop,Windows 10,Chrome 137.0.0.0,1600x900,1600x900,Temporal Distance Task,cb_09,33.0,temp_dist_trial,dist_items,qkpkxw,2.0,continue,,2836.1000000000067,2833.5,2836.1000000000067,2836.1000000000067,2833.5,2836.1000000000067,1.0,0.0,0.0,,Click To Continue,Next button,7.0,object-60,temp_dist_trial,33.0,s_s_15_1,student_stem,jumper cables,9.0,unique,paired,s_s_15_1.jpg,Student,,,sub-57
Desktop or Laptop,Windows 10,Chrome 137.0.0.0,1600x900,1600x900,Temporal Distance Task,cb_09,33.0,temp_dist_trial,dist_items,qkpkxw,2.0,response,69,1133.3999999999942,2833.5,2837.700000000099,1133.3999999999942,2833.5,2837.700000000099,1.0,1704.3000000001048,0.0,,Slider,Slider,4.0,object-56,temp_dist_trial,33.0,s_s_15_1,student_stem,jumper cables,9.0,unique,paired,s_s_15_1.jpg,Student,,,sub-57
Desktop or Laptop,Windows 10,Chrome 137.0.0.0,1600x900,1600x900,Temporal Distance Task,cb_09,34.0,temp_dist_trial,num_items,zn7si1,1.0,response,2_ITEM,1730.9999999999127,1716.6000000000058,1730.9999999999127,1730.9999999999127,1716.6000000000058,1730.9999999999127,1.0,0.0,0.0,,Click Response,2_count,5.0,object-49,temp_dist_trial,34.0,s_sh_10_1,student_shared,scissors,9.0,competing,paired,s_sh_10_1.jpg,Student,,,sub-57
Desktop or Laptop,Windows 10,Chrome 137.0.0.0,1600x900,1600x900,Temporal Distance Task,cb_09,34.0,temp_dist_trial,dist_items,qkpkxw,2.0,info,,9.100000000005819,0.0,9.100000000005819,9.100000000005819,0.0,9.100000000005819,1.0,0.0,0.0,,Slider,Slider,4.0,object-56,temp_dist_trial,34.0,s_sh_10_1,student_shared,scissors,9.0,competing,paired,s_sh_10_1.jpg,Student,,,sub-57
Desktop or Laptop,Windows 10,Chrome 137.0.0.0,1600x900,1600x900,Temporal Distance Task,cb_09,34.0,temp_dist_trial,dist_items,qkpkxw,2.0,continue,,2644.499999999913,2633.5,2644.499999999913,2644.499999999913,2633.5,2644.499999999913,1.0,0.0,0.0,,Click To Continue,Next button,7.0,object-60,temp_dist_trial,34.0,s_sh_10_1,student_shared,scissors,9.0,competing,paired,s_sh_10_1.jpg,Student,,,sub-57
Desktop or Laptop,Windows 10,Chrome 137.0.0.0,1600x900,1600x900,Temporal Distance Task,cb_09,34.0,temp_dist_trial,dist_items,qkpkxw,2.0,response,59,1534.0,2633.5,2645.6000000000063,1534.0,2633.5,2645.6000000000063,1.0,1111.6000000000058,0.0,,Slider,Slider,4.0,object-56,temp_dist_trial,34.0,s_sh_10_1,student_shared,scissors,9.0,competing,paired,s_sh_10_1.jpg,Student,,,sub-57
Desktop or Laptop,Windows 10,Chrome 137.0.0.0,1600x900,1600x900,Temporal Distance Task,cb_09,35.0,temp_dist_trial,num_items,zn7si1,1.0,response,2_ITEM,1146.9999999999127,1133.3999999999942,1146.9999999999127,1146.9999999999127,1133.3999999999942,1146.9999999999127,1.0,0.0,0.0,,Click Response,2_count,5.0,object-49,temp_dist_trial,35.0,s_sh_09_1,student_shared,paper clips,9.0,competing,paired,s_sh_09_1.jpg,Student,,,sub-57
Desktop or Laptop,Windows 10,Chrome 137.0.0.0,1600x900,1600x900,Temporal Distance Task,cb_09,35.0,temp_dist_trial,dist_items,qkpkxw,2.0,info,,10.099999999802094,0.0,10.099999999802094,10.099999999802094,0.0,10.099999999802094,1.0,0.0,0.0,,Slider,Slider,4.0,object-56,temp_dist_trial,35.0,s_sh_09_1,student_shared,paper clips,9.0,competing,paired,s_sh_09_1.jpg,Student,,,sub-57
Desktop or Laptop,Windows 10,Chrome 137.0.0.0,1600x900,1600x900,Temporal Distance Task,cb_09,35.0,temp_dist_trial,dist_items,qkpkxw,2.0,continue,,1966.5,1949.8999999999944,1966.5,1966.5,1949.8999999999944,1966.5,1.0,0.0,0.0,,Click To Continue,Next button,7.0,object-60,temp_dist_trial,35.0,s_sh_09_1,student_shared,paper clips,9.0,competing,paired,s_sh_09_1.jpg,Student,,,sub-57
Desktop or Laptop,Windows 10,Chrome 137.0.0.0,1600x900,1600x900,Temporal Distance Task,cb_09,35.0,temp_dist_trial,dist_items,qkpkxw,2.0,response,43,766.5999999999768,1949.8999999999944,1966.5,766.5999999999768,1949.8999999999944,1966.5,1.0,1199.9000000000233,0.0,,Slider,Slider,4.0,object-56,temp_dist_trial,35.0,s_sh_09_1,student_shared,paper clips,9.0,competing,paired,s_sh_09_1.jpg,Student,,,sub-57
Desktop or Laptop,Windows 10,Chrome 137.0.0.0,1600x900,1600x900,Temporal Distance Task,cb_09,36.0,temp_dist_trial,num_items,zn7si1,1.0,response,1_ITEM,960.3999999999942,950.1000000000058,960.3999999999942,960.3999999999942,950.1000000000058,960.3999999999942,1.0,0.0,0.0,,Click Response,1_count,3.0,object-46,temp_dist_trial,36.0,s_a_14_1,student_art,guitar pick,9.0,unique,paired,s_a_14_1.jpg,Student,,,sub-57
Desktop or Laptop,Windows 10,Chrome 137.0.0.0,1600x900,1600x900,Temporal Distance Task,cb_09,37.0,temp_dist_trial,num_items,zn7si1,1.0,response,1_ITEM,1343.3999999998196,1333.0,1343.3999999998196,1343.3999999998196,1333.0,1343.3999999998196,1.0,0.0,0.0,,Click Response,1_count,3.0,object-46,temp_dist_trial,37.0,s_a_02_1,student_art,canvas,9.0,unique,paired,s_a_02_1.jpg,Student,,,sub-57
Desktop or Laptop,Windows 10,Chrome 137.0.0.0,1600x900,1600x900,Temporal Distance Task,cb_09,38.0,temp_dist_trial,num_items,zn7si1,1.0,response,1_ITEM,1288.5,1283.3999999999942,1288.5,1288.5,1283.3999999999942,1288.5,1.0,0.0,0.0,,Click Response,1_count,3.0,object-46,temp_dist_trial,38.0,s_s_01_1,student_stem,microscope,9.0,unique,paired,s_s_01_1.jpg,Student,,,sub-57
Desktop or Laptop,Windows 10,Chrome 137.0.0.0,1600x900,1600x900,Temporal Distance Task,cb_09,39.0,temp_dist_trial,num_items,zn7si1,1.0,response,2_ITEM,1494.499999999709,1483.0,1494.499999999709,1494.499999999709,1483.0,1494.499999999709,1.0,0.0,0.0,,Click Response,2_count,5.0,object-49,temp_dist_trial,39.0,s_sh_20_1,student_shared,tape,9.0,competing,paired,s_sh_20_1.jpg,Student,,,sub-57
Desktop or Laptop,Windows 10,Chrome 137.0.0.0,1600x900,1600x900,Temporal Distance Task,cb_09,39.0,temp_dist_trial,dist_items,qkpkxw,2.0,info,,8.699999999895226,0.0,8.699999999895226,8.699999999895226,0.0,8.699999999895226,1.0,0.0,0.0,,Slider,Slider,4.0,object-56,temp_dist_trial,39.0,s_sh_20_1,student_shared,tape,9.0,competing,paired,s_sh_20_1.jpg,Student,,,sub-57
Desktop or Laptop,Windows 10,Chrome 137.0.0.0,1600x900,1600x900,Temporal Distance Task,cb_09,39.0,temp_dist_trial,dist_items,qkpkxw,2.0,continue,,3439.499999999709,3433.2999999999884,3439.499999999709,3439.499999999709,3433.2999999999884,3439.499999999709,1.0,0.0,0.0,,Click To Continue,Next button,7.0,object-60,temp_dist_trial,39.0,s_sh_20_1,student_shared,tape,9.0,competing,paired,s_sh_20_1.jpg,Student,,,sub-57
Desktop or Laptop,Windows 10,Chrome 137.0.0.0,1600x900,1600x900,Temporal Distance Task,cb_09,39.0,temp_dist_trial,dist_items,qkpkxw,2.0,response,75,1166.6999999999825,3433.2999999999884,3449.400000000081,1166.6999999999825,3433.2999999999884,3449.400000000081,1.0,2282.700000000099,0.0,,Slider,Slider,4.0,object-56,temp_dist_trial,39.0,s_sh_20_1,student_shared,tape,9.0,competing,paired,s_sh_20_1.jpg,Student,,,sub-57
Desktop or Laptop,Windows 10,Chrome 137.0.0.0,1600x900,1600x900,Temporal Distance Task,cb_09,40.0,temp_dist_trial,num_items,zn7si1,1.0,response,2_ITEM,1586.6000000000934,1583.3999999999942,1586.6000000000934,1586.6000000000934,1583.3999999999942,1586.6000000000934,1.0,0.0,0.0,,Click Response,2_count,5.0,object-49,temp_dist_trial,40.0,s_sh_18_1,student_shared,wall calendar,9.0,competing,paired,s_sh_18_1.jpg,Student,,,sub-57
Desktop or Laptop,Windows 10,Chrome 137.0.0.0,1600x900,1600x900,Temporal Distance Task,cb_09,40.0,temp_dist_trial,dist_items,qkpkxw,2.0,info,,10.700000000098953,0.0,10.700000000098953,10.700000000098953,0.0,10.700000000098953,1.0,0.0,0.0,,Slider,Slider,4.0,object-56,temp_dist_trial,40.0,s_sh_18_1,student_shared,wall calendar,9.0,competing,paired,s_sh_18_1.jpg,Student,,,sub-57
Desktop or Laptop,Windows 10,Chrome 137.0.0.0,1600x900,1600x900,Temporal Distance Task,cb_09,40.0,temp_dist_trial,dist_items,qkpkxw,2.0,continue,,2268.999999999913,2266.700000000012,2268.999999999913,2268.999999999913,2266.700000000012,2268.999999999913,1.0,0.0,0.0,,Click To Continue,Next button,7.0,object-60,temp_dist_trial,40.0,s_sh_18_1,student_shared,wall calendar,9.0,competing,paired,s_sh_18_1.jpg,Student,,,sub-57
Desktop or Laptop,Windows 10,Chrome 137.0.0.0,1600x900,1600x900,Temporal Distance Task,cb_09,40.0,temp_dist_trial,dist_items,qkpkxw,2.0,response,40,1033.3000000000177,2266.700000000012,2269.700000000099,1033.3000000000177,2266.700000000012,2269.700000000099,1.0,1236.4000000000815,0.0,,Slider,Slider,4.0,object-56,temp_dist_trial,40.0,s_sh_18_1,student_shared,wall calendar,9.0,competing,paired,s_sh_18_1.jpg,Student,,,sub-57
Desktop or Laptop,Windows 10,Chrome 137.0.0.0,1600x900,1600x900,Temporal Distance Task,cb_09,41.0,temp_dist_trial,num_items,zn7si1,1.0,response,2_ITEM,1170.0999999997148,1166.6000000000058,1170.0999999997148,1170.0999999997148,1166.6000000000058,1170.0999999997148,1.0,0.0,0.0,,Click Response,2_count,5.0,object-49,temp_dist_trial,41.0,s_sh_11_1,student_shared,pencil case,9.0,competing,paired,s_sh_11_1.jpg,Student,,,sub-57
Desktop or Laptop,Windows 10,Chrome 137.0.0.0,1600x900,1600x900,Temporal Distance Task,cb_09,41.0,temp_dist_trial,dist_items,qkpkxw,2.0,info,,10.799999999988358,0.0,10.799999999988358,10.799999999988358,0.0,10.799999999988358,1.0,0.0,0.0,,Slider,Slider,4.0,object-56,temp_dist_trial,41.0,s_sh_11_1,student_shared,pencil case,9.0,competing,paired,s_sh_11_1.jpg,Student,,,sub-57
Desktop or Laptop,Windows 10,Chrome 137.0.0.0,1600x900,1600x900,Temporal Distance Task,cb_09,41.0,temp_dist_trial,dist_items,qkpkxw,2.0,continue,,2003.6999999998952,2000.0,2003.6999999998952,2003.6999999998952,2000.0,2003.6999999998952,1.0,0.0,0.0,,Click To Continue,Next button,7.0,object-60,temp_dist_trial,41.0,s_sh_11_1,student_shared,pencil case,9.0,competing,paired,s_sh_11_1.jpg,Student,,,sub-57
Desktop or Laptop,Windows 10,Chrome 137.0.0.0,1600x900,1600x900,Temporal Distance Task,cb_09,41.0,temp_dist_trial,dist_items,qkpkxw,2.0,response,57,950.0,2000.0,2004.7999999999884,950.0,2000.0,2004.7999999999884,1.0,1054.7999999999884,0.0,,Slider,Slider,4.0,object-56,temp_dist_trial,41.0,s_sh_11_1,student_shared,pencil case,9.0,competing,paired,s_sh_11_1.jpg,Student,,,sub-57
Desktop or Laptop,Windows 10,Chrome 137.0.0.0,1600x900,1600x900,Temporal Distance Task,cb_09,42.0,temp_dist_trial,num_items,zn7si1,1.0,response,2_ITEM,1191.1999999998952,1183.2999999999886,1191.1999999998952,1191.1999999998952,1183.2999999999886,1191.1999999998952,1.0,0.0,0.0,,Click Response,2_count,5.0,object-49,temp_dist_trial,42.0,s_sh_04_1,student_shared,laptop stand,9.0,competing,paired,s_sh_04_1.jpg,Student,,,sub-57
Desktop or Laptop,Windows 10,Chrome 137.0.0.0,1600x900,1600x900,Temporal Distance Task,cb_09,42.0,temp_dist_trial,dist_items,qkpkxw,2.0,info,,9.899999999906868,0.0,9.899999999906868,9.899999999906868,0.0,9.899999999906868,1.0,0.0,0.0,,Slider,Slider,4.0,object-56,temp_dist_trial,42.0,s_sh_04_1,student_shared,laptop stand,9.0,competing,paired,s_sh_04_1.jpg,Student,,,sub-57
Desktop or Laptop,Windows 10,Chrome 137.0.0.0,1600x900,1600x900,Temporal Distance Task,cb_09,42.0,temp_dist_trial,dist_items,qkpkxw,2.0,continue,,1682.2999999998135,1666.7999999999884,1682.2999999998135,1682.2999999998135,1666.7999999999884,1682.2999999998135,1.0,0.0,0.0,,Click To Continue,Next button,7.0,object-60,temp_dist_trial,42.0,s_sh_04_1,student_shared,laptop stand,9.0,competing,paired,s_sh_04_1.jpg,Student,,,sub-57
Desktop or Laptop,Windows 10,Chrome 137.0.0.0,1600x900,1600x900,Temporal Distance Task,cb_09,42.0,temp_dist_trial,dist_items,qkpkxw,2.0,response,58,750.1000000000058,1666.7999999999884,1683.499999999971,750.1000000000058,1666.7999999999884,1683.499999999971,1.0,933.3999999999652,0.0,,Slider,Slider,4.0,object-56,temp_dist_trial,42.0,s_sh_04_1,student_shared,laptop stand,9.0,competing,paired,s_sh_04_1.jpg,Student,,,sub-57
Desktop or Laptop,Windows 10,Chrome 137.0.0.0,1600x900,1600x900,Temporal Distance Task,cb_09,43.0,temp_dist_trial,num_items,zn7si1,1.0,response,2_ITEM,1755.7000000000116,1750.0,1755.7000000000116,1755.7000000000116,1750.0,1755.7000000000116,1.0,0.0,0.0,,Click Response,2_count,5.0,object-49,temp_dist_trial,43.0,s_s_08_1,student_stem,soldering iron,9.0,unique,paired,s_s_08_1.jpg,Student,,,sub-57
Desktop or Laptop,Windows 10,Chrome 137.0.0.0,1600x900,1600x900,Temporal Distance Task,cb_09,43.0,temp_dist_trial,dist_items,qkpkxw,2.0,info,,10.700000000011645,0.0,10.700000000011645,10.700000000011645,0.0,10.700000000011645,1.0,0.0,0.0,,Slider,Slider,4.0,object-56,temp_dist_trial,43.0,s_s_08_1,student_stem,soldering iron,9.0,unique,paired,s_s_08_1.jpg,Student,,,sub-57
Desktop or Laptop,Windows 10,Chrome 137.0.0.0,1600x900,1600x900,Temporal Distance Task,cb_09,43.0,temp_dist_trial,dist_items,qkpkxw,2.0,continue,,2058.0999999999185,2050.5,2058.0999999999185,2058.0999999999185,2050.5,2058.0999999999185,1.0,0.0,0.0,,Click To Continue,Next button,7.0,object-60,temp_dist_trial,43.0,s_s_08_1,student_stem,soldering iron,9.0,unique,paired,s_s_08_1.jpg,Student,,,sub-57
Desktop or Laptop,Windows 10,Chrome 137.0.0.0,1600x900,1600x900,Temporal Distance Task,cb_09,43.0,temp_dist_trial,dist_items,qkpkxw,2.0,response,41,699.9000000000232,2050.5,2058.8999999997322,699.9000000000232,2050.5,2058.8999999997322,1.0,1358.999999999709,0.0,,Slider,Slider,4.0,object-56,temp_dist_trial,43.0,s_s_08_1,student_stem,soldering iron,9.0,unique,paired,s_s_08_1.jpg,Student,,,sub-57
Desktop or Laptop,Windows 10,Chrome 137.0.0.0,1600x900,1600x900,Temporal Distance Task,cb_09,44.0,temp_dist_trial,num_items,zn7si1,1.0,response,2_ITEM,1259.3000000001048,1249.5,1259.3000000001048,1259.3000000001048,1249.5,1259.3000000001048,1.0,0.0,0.0,,Click Response,2_count,5.0,object-49,temp_dist_trial,44.0,s_sh_15_1,student_shared,usb drive,9.0,competing,paired,s_sh_15_1.jpg,Student,,,sub-57
Desktop or Laptop,Windows 10,Chrome 137.0.0.0,1600x900,1600x900,Temporal Distance Task,cb_09,44.0,temp_dist_trial,dist_items,qkpkxw,2.0,info,,11.700000000011642,0.0,11.700000000011642,11.700000000011642,0.0,11.700000000011642,1.0,0.0,0.0,,Slider,Slider,4.0,object-56,temp_dist_trial,44.0,s_sh_15_1,student_shared,usb drive,9.0,competing,paired,s_sh_15_1.jpg,Student,,,sub-57
Desktop or Laptop,Windows 10,Chrome 137.0.0.0,1600x900,1600x900,Temporal Distance Task,cb_09,44.0,temp_dist_trial,dist_items,qkpkxw,2.0,continue,,1719.8999999997325,1716.7000000000116,1719.8999999997325,1719.8999999997325,1716.7000000000116,1719.8999999997325,1.0,0.0,0.0,,Click To Continue,Next button,7.0,object-60,temp_dist_trial,44.0,s_sh_15_1,student_shared,usb drive,9.0,competing,paired,s_sh_15_1.jpg,Student,,,sub-57
Desktop or Laptop,Windows 10,Chrome 137.0.0.0,1600x900,1600x900,Temporal Distance Task,cb_09,44.0,temp_dist_trial,dist_items,qkpkxw,2.0,response,40,699.9000000000232,1716.7000000000116,1720.8999999997325,699.9000000000232,1716.7000000000116,1720.8999999997325,1.0,1020.999999999709,0.0,,Slider,Slider,4.0,object-56,temp_dist_trial,44.0,s_sh_15_1,student_shared,usb drive,9.0,competing,paired,s_sh_15_1.jpg,Student,,,sub-57
Desktop or Laptop,Windows 10,Chrome 137.0.0.0,1600x900,1600x900,Temporal Distance Task,cb_09,45.0,temp_dist_trial,num_items,zn7si1,1.0,response,1_ITEM,1695.0,1683.2999999999884,1695.0,1695.0,1683.2999999999884,1695.0,1.0,0.0,0.0,,Click Response,1_count,3.0,object-46,temp_dist_trial,45.0,s_a_16_1,student_art,piano,9.0,unique,paired,s_a_16_1.jpg,Student,,,sub-57
Desktop or Laptop,Windows 10,Chrome 137.0.0.0,1600x900,1600x900,Temporal Distance Task,cb_09,46.0,temp_dist_trial,num_items,zn7si1,1.0,response,2_ITEM,1893.499999999825,1883.3000000000175,1893.499999999825,1893.499999999825,1883.3000000000175,1893.499999999825,1.0,0.0,0.0,,Click Response,2_count,5.0,object-49,temp_dist_trial,46.0,s_sh_08_1,student_shared,post-its,9.0,competing,paired,s_sh_08_1.jpg,Student,,,sub-57
Desktop or Laptop,Windows 10,Chrome 137.0.0.0,1600x900,1600x900,Temporal Distance Task,cb_09,46.0,temp_dist_trial,dist_items,qkpkxw,2.0,info,,9.499999999708962,0.0,9.499999999708962,9.499999999708962,0.0,9.499999999708962,1.0,0.0,0.0,,Slider,Slider,4.0,object-56,temp_dist_trial,46.0,s_sh_08_1,student_shared,post-its,9.0,competing,paired,s_sh_08_1.jpg,Student,,,sub-57
Desktop or Laptop,Windows 10,Chrome 137.0.0.0,1600x900,1600x900,Temporal Distance Task,cb_09,46.0,temp_dist_trial,dist_items,qkpkxw,2.0,continue,,2781.999999999709,2766.5999999999767,2781.999999999709,2781.999999999709,2766.5999999999767,2781.999999999709,1.0,0.0,0.0,,Click To Continue,Next button,7.0,object-60,temp_dist_trial,46.0,s_sh_08_1,student_shared,post-its,9.0,competing,paired,s_sh_08_1.jpg,Student,,,sub-57
Desktop or Laptop,Windows 10,Chrome 137.0.0.0,1600x900,1600x900,Temporal Distance Task,cb_09,46.0,temp_dist_trial,dist_items,qkpkxw,2.0,response,56,1617.0999999999767,2766.5999999999767,2782.699999999895,1617.0999999999767,2766.5999999999767,2782.699999999895,1.0,1165.5999999999185,0.0,,Slider,Slider,4.0,object-56,temp_dist_trial,46.0,s_sh_08_1,student_shared,post-its,9.0,competing,paired,s_sh_08_1.jpg,Student,,,sub-57
Desktop or Laptop,Windows 10,Chrome 137.0.0.0,1600x900,1600x900,Temporal Distance Task,cb_09,47.0,temp_dist_trial,num_items,zn7si1,1.0,response,1_ITEM,1479.3000000001048,1466.7000000000116,1479.3000000001048,1479.3000000001048,1466.7000000000116,1479.3000000001048,1.0,0.0,0.0,,Click Response,1_count,3.0,object-46,temp_dist_trial,47.0,s_sh_07_1,student_shared,ruler,9.0,competing,single,s_sh_07_1.jpg,Student,,,sub-57
Desktop or Laptop,Windows 10,Chrome 137.0.0.0,1600x900,1600x900,Temporal Distance Task,cb_09,48.0,temp_dist_trial,num_items,zn7si1,1.0,response,1_ITEM,1049.999999999971,1033.2999999999884,1049.999999999971,1049.999999999971,1033.2999999999884,1049.999999999971,1.0,0.0,0.0,,Click Response,1_count,3.0,object-46,temp_dist_trial,48.0,s_sh_05_1,student_shared,laptop,9.0,competing,single,s_sh_05_1.jpg,Student,,,sub-57
Desktop or Laptop,Windows 10,Chrome 137.0.0.0,1600x900,1600x900,Temporal Distance Task,cb_09,2.0,temp_eventStart,Screen 1,dgtyxe,1.0,continue,,1163.4999999999127,1149.8999999999942,1163.4999999999127,1163.4999999999127,1149.8999999999942,1163.4999999999127,1.0,0.0,0.0,,Click To Continue,Next Button,3.0,object-43,temp_eventStart,,,Travel,,,,,,,,,sub-57
Desktop or Laptop,Windows 10,Chrome 137.0.0.0,1600x900,1600x900,Temporal Distance Task,cb_09,49.0,temp_dist_trial,num_items,zn7si1,1.0,response,1_ITEM,1766.5999999999767,1750.0,1766.5999999999767,1766.5999999999767,1750.0,1766.5999999999767,1.0,0.0,0.0,,Click Response,1_count,3.0,object-46,temp_dist_trial,1.0,t_i_01_1,travel_Iceland,gloves,9.0,unique,single,t_i_01_1.jpg,Travel,,,sub-57
Desktop or Laptop,Windows 10,Chrome 137.0.0.0,1600x900,1600x900,Temporal Distance Task,cb_09,50.0,temp_dist_trial,num_items,zn7si1,1.0,response,num_miss,3000.0,3000.0,3000.0,3000.0,3000.0,3000.0,1.0,0.0,0.0,num_miss_tag,Time Limit,screen,0.0,screen,temp_dist_trial,2.0,t_s_08_1,travel_shared,hand lotion,9.0,competing,single,t_s_08_1.jpg,Travel,,,sub-57
Desktop or Laptop,Windows 10,Chrome 137.0.0.0,1600x900,1600x900,Temporal Distance Task,cb_09,51.0,temp_dist_trial,num_items,zn7si1,1.0,response,2_ITEM,1714.0999999998019,1700.0,1714.0999999998019,1714.0999999998019,1700.0,1714.0999999998019,1.0,0.0,0.0,,Click Response,2_count,5.0,object-49,temp_dist_trial,3.0,t_s_24_1,travel_shared,ear plugs,9.0,competing,paired,t_s_24_1.jpg,Travel,,,sub-57
Desktop or Laptop,Windows 10,Chrome 137.0.0.0,1600x900,1600x900,Temporal Distance Task,cb_09,51.0,temp_dist_trial,dist_items,qkpkxw,2.0,info,,10.000000000087313,0.0,10.000000000087313,10.000000000087313,0.0,10.000000000087313,1.0,0.0,0.0,,Slider,Slider,4.0,object-56,temp_dist_trial,3.0,t_s_24_1,travel_shared,ear plugs,9.0,competing,paired,t_s_24_1.jpg,Travel,,,sub-57
Desktop or Laptop,Windows 10,Chrome 137.0.0.0,1600x900,1600x900,Temporal Distance Task,cb_09,51.0,temp_dist_trial,dist_items,qkpkxw,2.0,continue,,3306.299999999901,3300.1000000000067,3306.299999999901,3306.299999999901,3300.1000000000067,3306.299999999901,1.0,0.0,0.0,,Click To Continue,Next button,7.0,object-60,temp_dist_trial,3.0,t_s_24_1,travel_shared,ear plugs,9.0,competing,paired,t_s_24_1.jpg,Travel,,,sub-57
Desktop or Laptop,Windows 10,Chrome 137.0.0.0,1600x900,1600x900,Temporal Distance Task,cb_09,51.0,temp_dist_trial,dist_items,qkpkxw,2.0,response,68,2033.3999999999944,3300.1000000000067,3307.0000000000873,2033.3999999999944,3300.1000000000067,3307.0000000000873,1.0,1273.6000000000931,0.0,,Slider,Slider,4.0,object-56,temp_dist_trial,3.0,t_s_24_1,travel_shared,ear plugs,9.0,competing,paired,t_s_24_1.jpg,Travel,,,sub-57
Desktop or Laptop,Windows 10,Chrome 137.0.0.0,1600x900,1600x900,Temporal Distance Task,cb_09,52.0,temp_dist_trial,num_items,zn7si1,1.0,response,1_ITEM,1189.9000000000815,1183.2999999999886,1189.9000000000815,1189.9000000000815,1183.2999999999886,1189.9000000000815,1.0,0.0,0.0,,Click Response,1_count,3.0,object-46,temp_dist_trial,4.0,t_m_13_1,travel_Miami,floatie,9.0,unique,single,t_m_13_1.jpg,Travel,,,sub-57
Desktop or Laptop,Windows 10,Chrome 137.0.0.0,1600x900,1600x900,Temporal Distance Task,cb_09,53.0,temp_dist_trial,num_items,zn7si1,1.0,response,2_ITEM,1220.7999999998135,1216.7000000000114,1220.7999999998135,1220.7999999998135,1216.7000000000114,1220.7999999998135,1.0,0.0,0.0,,Click Response,2_count,5.0,object-49,temp_dist_trial,5.0,t_i_20_1,travel_Iceland,lantern,9.0,unique,paired,t_i_20_1.jpg,Travel,,,sub-57
Desktop or Laptop,Windows 10,Chrome 137.0.0.0,1600x900,1600x900,Temporal Distance Task,cb_09,53.0,temp_dist_trial,dist_items,qkpkxw,2.0,info,,11.099999999802094,0.0,11.099999999802094,11.099999999802094,0.0,11.099999999802094,1.0,0.0,0.0,,Slider,Slider,4.0,object-56,temp_dist_trial,5.0,t_i_20_1,travel_Iceland,lantern,9.0,unique,paired,t_i_20_1.jpg,Travel,,,sub-57
Desktop or Laptop,Windows 10,Chrome 137.0.0.0,1600x900,1600x900,Temporal Distance Task,cb_09,53.0,temp_dist_trial,dist_items,qkpkxw,2.0,continue,,1946.499999999709,1933.3999999999944,1946.499999999709,1946.499999999709,1933.3999999999944,1946.499999999709,1.0,0.0,0.0,,Click To Continue,Next button,7.0,object-60,temp_dist_trial,5.0,t_i_20_1,travel_Iceland,lantern,9.0,unique,paired,t_i_20_1.jpg,Travel,,,sub-57
Desktop or Laptop,Windows 10,Chrome 137.0.0.0,1600x900,1600x900,Temporal Distance Task,cb_09,53.0,temp_dist_trial,dist_items,qkpkxw,2.0,response,38,866.6999999999823,1933.3999999999944,1950.1000000000056,866.6999999999823,1933.3999999999944,1950.1000000000056,1.0,1083.4000000000233,0.0,,Slider,Slider,4.0,object-56,temp_dist_trial,5.0,t_i_20_1,travel_Iceland,lantern,9.0,unique,paired,t_i_20_1.jpg,Travel,,,sub-57
Desktop or Laptop,Windows 10,Chrome 137.0.0.0,1600x900,1600x900,Temporal Distance Task,cb_09,54.0,temp_dist_trial,num_items,zn7si1,1.0,response,2_ITEM,1438.5999999997143,1433.6000000000058,1438.5999999997143,1438.5999999997143,1433.6000000000058,1438.5999999997143,1.0,0.0,0.0,,Click Response,2_count,5.0,object-49,temp_dist_trial,6.0,t_s_12_1,travel_shared,clear toiletry bag,9.0,competing,paired,t_s_12_1.jpg,Travel,,,sub-57
Desktop or Laptop,Windows 10,Chrome 137.0.0.0,1600x900,1600x900,Temporal Distance Task,cb_09,54.0,temp_dist_trial,dist_items,qkpkxw,2.0,info,,11.299999999726426,0.0,11.299999999726426,11.299999999726426,0.0,11.299999999726426,1.0,0.0,0.0,,Slider,Slider,4.0,object-56,temp_dist_trial,6.0,t_s_12_1,travel_shared,clear toiletry bag,9.0,competing,paired,t_s_12_1.jpg,Travel,,,sub-57
Desktop or Laptop,Windows 10,Chrome 137.0.0.0,1600x900,1600x900,Temporal Distance Task,cb_09,54.0,temp_dist_trial,dist_items,qkpkxw,2.0,continue,,1661.6000000000058,1650.0,1661.6000000000058,1661.6000000000058,1650.0,1661.6000000000058,1.0,0.0,0.0,,Click To Continue,Next button,7.0,object-60,temp_dist_trial,6.0,t_s_12_1,travel_shared,clear toiletry bag,9.0,competing,paired,t_s_12_1.jpg,Travel,,,sub-57
Desktop or Laptop,Windows 10,Chrome 137.0.0.0,1600x900,1600x900,Temporal Distance Task,cb_09,54.0,temp_dist_trial,dist_items,qkpkxw,2.0,response,36,533.6000000000058,1650.0,1662.4999999999127,533.6000000000058,1650.0,1662.4999999999127,1.0,1128.8999999999069,0.0,,Slider,Slider,4.0,object-56,temp_dist_trial,6.0,t_s_12_1,travel_shared,clear toiletry bag,9.0,competing,paired,t_s_12_1.jpg,Travel,,,sub-57
Desktop or Laptop,Windows 10,Chrome 137.0.0.0,1600x900,1600x900,Temporal Distance Task,cb_09,55.0,temp_dist_trial,num_items,zn7si1,1.0,response,1_ITEM,1447.3999999998196,1433.3999999999942,1447.3999999998196,1447.3999999998196,1433.3999999999942,1447.3999999998196,1.0,0.0,0.0,,Click Response,1_count,3.0,object-46,temp_dist_trial,7.0,t_m_11_1,travel_Miami,collapsible beach chair,9.0,unique,single,t_m_11_1.jpg,Travel,,,sub-57
Desktop or Laptop,Windows 10,Chrome 137.0.0.0,1600x900,1600x900,Temporal Distance Task,cb_09,56.0,temp_dist_trial,num_items,zn7si1,1.0,response,2_ITEM,2342.6000000000063,2334.1000000000063,2342.6000000000063,2342.6000000000063,2334.1000000000063,2342.6000000000063,1.0,0.0,0.0,,Click Response,2_count,5.0,object-49,temp_dist_trial,8.0,t_m_18_1,travel_Miami,waterproof tote,9.0,unique,paired,t_m_18_1.jpg,Travel,,,sub-57
Desktop or Laptop,Windows 10,Chrome 137.0.0.0,1600x900,1600x900,Temporal Distance Task,cb_09,56.0,temp_dist_trial,dist_items,qkpkxw,2.0,info,,12.699999999720605,0.0,12.699999999720605,12.699999999720605,0.0,12.699999999720605,1.0,0.0,0.0,,Slider,Slider,4.0,object-56,temp_dist_trial,8.0,t_m_18_1,travel_Miami,waterproof tote,9.0,unique,paired,t_m_18_1.jpg,Travel,,,sub-57
Desktop or Laptop,Windows 10,Chrome 137.0.0.0,1600x900,1600x900,Temporal Distance Task,cb_09,56.0,temp_dist_trial,dist_items,qkpkxw,2.0,continue,,1949.5,1932.8999999999944,1949.5,1949.5,1932.8999999999944,1949.5,1.0,0.0,0.0,,Click To Continue,Next button,7.0,object-60,temp_dist_trial,8.0,t_m_18_1,travel_Miami,waterproof tote,9.0,unique,paired,t_m_18_1.jpg,Travel,,,sub-57
Desktop or Laptop,Windows 10,Chrome 137.0.0.0,1600x900,1600x900,Temporal Distance Task,cb_09,56.0,temp_dist_trial,dist_items,qkpkxw,2.0,response,36,932.8999999999942,1932.8999999999944,1949.5999999999767,932.8999999999942,1932.8999999999944,1949.5999999999767,1.0,1016.6999999999823,0.0,,Slider,Slider,4.0,object-56,temp_dist_trial,8.0,t_m_18_1,travel_Miami,waterproof tote,9.0,unique,paired,t_m_18_1.jpg,Travel,,,sub-57
Desktop or Laptop,Windows 10,Chrome 137.0.0.0,1600x900,1600x900,Temporal Distance Task,cb_09,57.0,temp_dist_trial,num_items,zn7si1,1.0,response,1_ITEM,1981.200000000099,1966.8000000000175,1981.200000000099,1981.200000000099,1966.8000000000175,1981.200000000099,1.0,0.0,0.0,,Click Response,1_count,3.0,object-46,temp_dist_trial,9.0,t_s_15_1,travel_shared,luggage tag,9.0,competing,paired,t_s_15_1.jpg,Travel,,,sub-57
Desktop or Laptop,Windows 10,Chrome 137.0.0.0,1600x900,1600x900,Temporal Distance Task,cb_09,58.0,temp_dist_trial,num_items,zn7si1,1.0,response,2_ITEM,1459.0999999998019,1449.8999999999942,1459.0999999998019,1459.0999999998019,1449.8999999999942,1459.0999999998019,1.0,0.0,0.0,,Click Response,2_count,5.0,object-49,temp_dist_trial,10.0,t_i_04_1,travel_Iceland,portable camping stove,9.0,unique,paired,t_i_04_1.jpg,Travel,,,sub-57
Desktop or Laptop,Windows 10,Chrome 137.0.0.0,1600x900,1600x900,Temporal Distance Task,cb_09,58.0,temp_dist_trial,dist_items,qkpkxw,2.0,info,,10.599999999714784,0.0,10.599999999714784,10.599999999714784,0.0,10.599999999714784,1.0,0.0,0.0,,Slider,Slider,4.0,object-56,temp_dist_trial,10.0,t_i_04_1,travel_Iceland,portable camping stove,9.0,unique,paired,t_i_04_1.jpg,Travel,,,sub-57
Desktop or Laptop,Windows 10,Chrome 137.0.0.0,1600x900,1600x900,Temporal Distance Task,cb_09,58.0,temp_dist_trial,dist_items,qkpkxw,2.0,continue,,5349.199999999808,5333.399999999994,5349.199999999808,5349.199999999808,5333.399999999994,5349.199999999808,1.0,0.0,0.0,,Click To Continue,Next button,7.0,object-60,temp_dist_trial,10.0,t_i_04_1,travel_Iceland,portable camping stove,9.0,unique,paired,t_i_04_1.jpg,Travel,,,sub-57
Desktop or Laptop,Windows 10,Chrome 137.0.0.0,1600x900,1600x900,Temporal Distance Task,cb_09,58.0,temp_dist_trial,dist_items,qkpkxw,2.0,response,38,1350.0,5333.399999999994,5350.100000000006,1350.0,5333.399999999994,5350.100000000006,1.0,4000.1000000000067,0.0,,Slider,Slider,4.0,object-56,temp_dist_trial,10.0,t_i_04_1,travel_Iceland,portable camping stove,9.0,unique,paired,t_i_04_1.jpg,Travel,,,sub-57
Desktop or Laptop,Windows 10,Chrome 137.0.0.0,1600x900,1600x900,Temporal Distance Task,cb_09,59.0,temp_dist_trial,num_items,zn7si1,1.0,response,1_ITEM,1987.7999999998133,1983.2999999999884,1987.7999999998133,1987.7999999998133,1983.2999999999884,1987.7999999998133,1.0,0.0,0.0,,Click Response,1_count,3.0,object-46,temp_dist_trial,11.0,t_m_05_1,travel_Miami,sunscreen,9.0,unique,single,t_m_05_1.jpg,Travel,,,sub-57
Desktop or Laptop,Windows 10,Chrome 137.0.0.0,1600x900,1600x900,Temporal Distance Task,cb_09,60.0,temp_dist_trial,num_items,zn7si1,1.0,response,1_ITEM,2495.3999999997322,2483.300000000017,2495.3999999997322,2495.3999999997322,2483.300000000017,2495.3999999997322,1.0,0.0,0.0,,Click Response,1_count,3.0,object-46,temp_dist_trial,12.0,t_s_17_1,travel_shared,toothbrush,9.0,competing,single,t_s_17_1.jpg,Travel,,,sub-57
Desktop or Laptop,Windows 10,Chrome 137.0.0.0,1600x900,1600x900,Temporal Distance Task,cb_09,61.0,temp_dist_trial,num_items,zn7si1,1.0,response,1_ITEM,881.2999999999008,866.6999999999823,881.2999999999008,881.2999999999008,866.6999999999823,881.2999999999008,1.0,0.0,0.0,,Click Response,1_count,3.0,object-46,temp_dist_trial,13.0,t_s_18_1,travel_shared,first aid kit,9.0,competing,single,t_s_18_1.jpg,Travel,,,sub-57
Desktop or Laptop,Windows 10,Chrome 137.0.0.0,1600x900,1600x900,Temporal Distance Task,cb_09,62.0,temp_dist_trial,num_items,zn7si1,1.0,response,1_ITEM,1554.200000000099,1550.0,1554.200000000099,1554.200000000099,1550.0,1554.200000000099,1.0,0.0,0.0,,Click Response,1_count,3.0,object-46,temp_dist_trial,14.0,t_s_10_1,travel_shared,luggage lock,9.0,competing,paired,t_s_10_1.jpg,Travel,,,sub-57
Desktop or Laptop,Windows 10,Chrome 137.0.0.0,1600x900,1600x900,Temporal Distance Task,cb_09,63.0,temp_dist_trial,num_items,zn7si1,1.0,response,2_ITEM,1702.1000000000058,1700.0,1702.1000000000058,1702.1000000000058,1700.0,1702.1000000000058,1.0,0.0,0.0,,Click Response,2_count,5.0,object-49,temp_dist_trial,15.0,t_i_08_1,travel_Iceland,thick socks,9.0,unique,paired,t_i_08_1.jpg,Travel,,,sub-57
Desktop or Laptop,Windows 10,Chrome 137.0.0.0,1600x900,1600x900,Temporal Distance Task,cb_09,63.0,temp_dist_trial,dist_items,qkpkxw,2.0,info,,12.299999999726426,0.0,12.299999999726426,12.299999999726426,0.0,12.299999999726426,1.0,0.0,0.0,,Slider,Slider,4.0,object-56,temp_dist_trial,15.0,t_i_08_1,travel_Iceland,thick socks,9.0,unique,paired,t_i_08_1.jpg,Travel,,,sub-57
Desktop or Laptop,Windows 10,Chrome 137.0.0.0,1600x900,1600x900,Temporal Distance Task,cb_09,63.0,temp_dist_trial,dist_items,qkpkxw,2.0,continue,,4144.100000000006,4133.600000000006,4144.100000000006,4144.100000000006,4133.600000000006,4144.100000000006,1.0,0.0,0.0,,Click To Continue,Next button,7.0,object-60,temp_dist_trial,15.0,t_i_08_1,travel_Iceland,thick socks,9.0,unique,paired,t_i_08_1.jpg,Travel,,,sub-57
Desktop or Laptop,Windows 10,Chrome 137.0.0.0,1600x900,1600x900,Temporal Distance Task,cb_09,63.0,temp_dist_trial,dist_items,qkpkxw,2.0,response,58,3033.300000000017,4133.600000000006,4145.100000000006,3033.300000000017,4133.600000000006,4145.100000000006,1.0,1111.7999999999884,0.0,,Slider,Slider,4.0,object-56,temp_dist_trial,15.0,t_i_08_1,travel_Iceland,thick socks,9.0,unique,paired,t_i_08_1.jpg,Travel,,,sub-57
Desktop or Laptop,Windows 10,Chrome 137.0.0.0,1600x900,1600x900,Temporal Distance Task,cb_09,64.0,temp_dist_trial,num_items,zn7si1,1.0,response,2_ITEM,1510.6000000000934,1499.7000000000116,1510.6000000000934,1510.6000000000934,1499.7000000000116,1510.6000000000934,1.0,0.0,0.0,,Click Response,2_count,5.0,object-49,temp_dist_trial,16.0,t_s_04_1,travel_shared,instant camera,9.0,competing,paired,t_s_04_1.jpg,Travel,,,sub-57
Desktop or Laptop,Windows 10,Chrome 137.0.0.0,1600x900,1600x900,Temporal Distance Task,cb_09,64.0,temp_dist_trial,dist_items,qkpkxw,2.0,info,,12.799999999988358,0.0,12.799999999988358,12.799999999988358,0.0,12.799999999988358,1.0,0.0,0.0,,Slider,Slider,4.0,object-56,temp_dist_trial,16.0,t_s_04_1,travel_shared,instant camera,9.0,competing,paired,t_s_04_1.jpg,Travel,,,sub-57
Desktop or Laptop,Windows 10,Chrome 137.0.0.0,1600x900,1600x900,Temporal Distance Task,cb_09,64.0,temp_dist_trial,dist_items,qkpkxw,2.0,continue,,2323.699999999895,2317.2999999999884,2323.699999999895,2323.699999999895,2317.2999999999884,2323.699999999895,1.0,0.0,0.0,,Click To Continue,Next button,7.0,object-60,temp_dist_trial,16.0,t_s_04_1,travel_shared,instant camera,9.0,competing,paired,t_s_04_1.jpg,Travel,,,sub-57
Desktop or Laptop,Windows 10,Chrome 137.0.0.0,1600x900,1600x900,Temporal Distance Task,cb_09,64.0,temp_dist_trial,dist_items,qkpkxw,2.0,response,44,1116.6999999999823,2317.2999999999884,2324.699999999895,1116.6999999999823,2317.2999999999884,2324.699999999895,1.0,1207.9999999999127,0.0,,Slider,Slider,4.0,object-56,temp_dist_trial,16.0,t_s_04_1,travel_shared,instant camera,9.0,competing,paired,t_s_04_1.jpg,Travel,,,sub-57
Desktop or Laptop,Windows 10,Chrome 137.0.0.0,1600x900,1600x900,Temporal Distance Task,cb_09,65.0,temp_dist_trial,num_items,zn7si1,1.0,response,1_ITEM,1126.5,1116.1000000000058,1126.5,1126.5,1116.1000000000058,1126.5,1.0,0.0,0.0,,Click Response,1_count,3.0,object-46,temp_dist_trial,17.0,t_m_15_1,travel_Miami,shorts,9.0,unique,paired,t_m_15_1.jpg,Travel,,,sub-57
Desktop or Laptop,Windows 10,Chrome 137.0.0.0,1600x900,1600x900,Temporal Distance Task,cb_09,66.0,temp_dist_trial,num_items,zn7si1,1.0,response,1_ITEM,1380.8999999999942,1366.7999999999886,1380.8999999999942,1380.8999999999942,1366.7999999999886,1380.8999999999942,1.0,0.0,0.0,,Click Response,1_count,3.0,object-46,temp_dist_trial,18.0,t_m_09_1,travel_Miami,beach towel,9.0,unique,single,t_m_09_1.jpg,Travel,,,sub-57
Desktop or Laptop,Windows 10,Chrome 137.0.0.0,1600x900,1600x900,Temporal Distance Task,cb_09,67.0,temp_dist_trial,num_items,zn7si1,1.0,response,2_ITEM,1937.2000000000119,1933.3000000000175,1937.2000000000119,1937.2000000000119,1933.3000000000175,1937.2000000000119,1.0,0.0,0.0,,Click Response,2_count,5.0,object-49,temp_dist_trial,19.0,t_i_18_1,travel_Iceland,ski mask,9.0,unique,paired,t_i_18_1.jpg,Travel,,,sub-57
Desktop or Laptop,Windows 10,Chrome 137.0.0.0,1600x900,1600x900,Temporal Distance Task,cb_09,67.0,temp_dist_trial,dist_items,qkpkxw,2.0,info,,9.699999999807916,0.0,9.699999999807916,9.699999999807916,0.0,9.699999999807916,1.0,0.0,0.0,,Slider,Slider,4.0,object-56,temp_dist_trial,19.0,t_i_18_1,travel_Iceland,ski mask,9.0,unique,paired,t_i_18_1.jpg,Travel,,,sub-57
Desktop or Laptop,Windows 10,Chrome 137.0.0.0,1600x900,1600x900,Temporal Distance Task,cb_09,67.0,temp_dist_trial,dist_items,qkpkxw,2.0,continue,,2810.699999999808,2800.0,2810.699999999808,2810.699999999808,2800.0,2810.699999999808,1.0,0.0,0.0,,Click To Continue,Next button,7.0,object-60,temp_dist_trial,19.0,t_i_18_1,travel_Iceland,ski mask,9.0,unique,paired,t_i_18_1.jpg,Travel,,,sub-57
Desktop or Laptop,Windows 10,Chrome 137.0.0.0,1600x900,1600x900,Temporal Distance Task,cb_09,67.0,temp_dist_trial,dist_items,qkpkxw,2.0,response,71,1150.0,2800.0,2816.700000000012,1150.0,2800.0,2816.700000000012,1.0,1666.7000000000116,0.0,,Slider,Slider,4.0,object-56,temp_dist_trial,19.0,t_i_18_1,travel_Iceland,ski mask,9.0,unique,paired,t_i_18_1.jpg,Travel,,,sub-57
Desktop or Laptop,Windows 10,Chrome 137.0.0.0,1600x900,1600x900,Temporal Distance Task,cb_09,68.0,temp_dist_trial,num_items,zn7si1,1.0,response,1_ITEM,1170.5000000000873,1166.8999999999942,1170.5000000000873,1170.5000000000873,1166.8999999999942,1170.5000000000873,1.0,0.0,0.0,,Click Response,1_count,3.0,object-46,temp_dist_trial,20.0,t_s_06_1,travel_shared,luggage,9.0,competing,paired,t_s_06_1.jpg,Travel,,,sub-57
Desktop or Laptop,Windows 10,Chrome 137.0.0.0,1600x900,1600x900,Temporal Distance Task,cb_09,69.0,temp_dist_trial,num_items,zn7si1,1.0,response,2_ITEM,1915.5999999999185,1900.0,1915.5999999999185,1915.5999999999185,1900.0,1915.5999999999185,1.0,0.0,0.0,,Click Response,2_count,5.0,object-49,temp_dist_trial,21.0,t_s_19_1,travel_shared,pajamas,9.0,competing,paired,t_s_19_1.jpg,Travel,,,sub-57
Desktop or Laptop,Windows 10,Chrome 137.0.0.0,1600x900,1600x900,Temporal Distance Task,cb_09,69.0,temp_dist_trial,dist_items,qkpkxw,2.0,info,,10.800000000104774,0.0,10.800000000104774,10.800000000104774,0.0,10.800000000104774,1.0,0.0,0.0,,Slider,Slider,4.0,object-56,temp_dist_trial,21.0,t_s_19_1,travel_shared,pajamas,9.0,competing,paired,t_s_19_1.jpg,Travel,,,sub-57
Desktop or Laptop,Windows 10,Chrome 137.0.0.0,1600x900,1600x900,Temporal Distance Task,cb_09,69.0,temp_dist_trial,dist_items,qkpkxw,2.0,continue,,2299.899999999965,2283.2999999999884,2299.899999999965,2299.899999999965,2283.2999999999884,2299.899999999965,1.0,0.0,0.0,,Click To Continue,Next button,7.0,object-60,temp_dist_trial,21.0,t_s_19_1,travel_shared,pajamas,9.0,competing,paired,t_s_19_1.jpg,Travel,,,sub-57
Desktop or Laptop,Windows 10,Chrome 137.0.0.0,1600x900,1600x900,Temporal Distance Task,cb_09,69.0,temp_dist_trial,dist_items,qkpkxw,2.0,response,62,1266.600000000035,2283.2999999999884,2299.899999999965,1266.600000000035,2283.2999999999884,2299.899999999965,1.0,1033.2999999999304,0.0,,Slider,Slider,4.0,object-56,temp_dist_trial,21.0,t_s_19_1,travel_shared,pajamas,9.0,competing,paired,t_s_19_1.jpg,Travel,,,sub-57
Desktop or Laptop,Windows 10,Chrome 137.0.0.0,1600x900,1600x900,Temporal Distance Task,cb_09,70.0,temp_dist_trial,num_items,zn7si1,1.0,response,2_ITEM,1699.9000000000815,1683.3000000000463,1699.9000000000815,1699.9000000000815,1683.3000000000463,1699.9000000000815,1.0,0.0,0.0,,Click Response,2_count,5.0,object-49,temp_dist_trial,22.0,t_s_01_1,travel_shared,fanny pack,9.0,competing,paired,t_s_01_1.jpg,Travel,,,sub-57
Desktop or Laptop,Windows 10,Chrome 137.0.0.0,1600x900,1600x900,Temporal Distance Task,cb_09,70.0,temp_dist_trial,dist_items,qkpkxw,2.0,info,,13.5,0.0,13.5,13.5,0.0,13.5,1.0,0.0,0.0,,Slider,Slider,4.0,object-56,temp_dist_trial,22.0,t_s_01_1,travel_shared,fanny pack,9.0,competing,paired,t_s_01_1.jpg,Travel,,,sub-57
Desktop or Laptop,Windows 10,Chrome 137.0.0.0,1600x900,1600x900,Temporal Distance Task,cb_09,70.0,temp_dist_trial,dist_items,qkpkxw,2.0,continue,,2237.0,2233.5,2237.0,2237.0,2233.5,2237.0,1.0,0.0,0.0,,Click To Continue,Next button,7.0,object-60,temp_dist_trial,22.0,t_s_01_1,travel_shared,fanny pack,9.0,competing,paired,t_s_01_1.jpg,Travel,,,sub-57
Desktop or Laptop,Windows 10,Chrome 137.0.0.0,1600x900,1600x900,Temporal Distance Task,cb_09,70.0,temp_dist_trial,dist_items,qkpkxw,2.0,response,61,816.5999999999768,2233.5,2245.5,816.5999999999768,2233.5,2245.5,1.0,1428.9000000000233,0.0,,Slider,Slider,4.0,object-56,temp_dist_trial,22.0,t_s_01_1,travel_shared,fanny pack,9.0,competing,paired,t_s_01_1.jpg,Travel,,,sub-57
Desktop or Laptop,Windows 10,Chrome 137.0.0.0,1600x900,1600x900,Temporal Distance Task,cb_09,71.0,temp_dist_trial,num_items,zn7si1,1.0,response,2_ITEM,1358.1000000000931,1349.7999999999886,1358.1000000000931,1358.1000000000931,1349.7999999999886,1358.1000000000931,1.0,0.0,0.0,,Click Response,2_count,5.0,object-49,temp_dist_trial,23.0,t_s_23_1,travel_shared,ball cap,9.0,competing,paired,t_s_23_1.jpg,Travel,,,sub-57
Desktop or Laptop,Windows 10,Chrome 137.0.0.0,1600x900,1600x900,Temporal Distance Task,cb_09,71.0,temp_dist_trial,dist_items,qkpkxw,2.0,info,,10.800000000104774,0.0,10.800000000104774,10.800000000104774,0.0,10.800000000104774,1.0,0.0,0.0,,Slider,Slider,4.0,object-56,temp_dist_trial,23.0,t_s_23_1,travel_shared,ball cap,9.0,competing,paired,t_s_23_1.jpg,Travel,,,sub-57
Desktop or Laptop,Windows 10,Chrome 137.0.0.0,1600x900,1600x900,Temporal Distance Task,cb_09,71.0,temp_dist_trial,dist_items,qkpkxw,2.0,continue,,2189.700000000012,2183.4000000000233,2189.700000000012,2189.700000000012,2183.4000000000233,2189.700000000012,1.0,0.0,0.0,,Click To Continue,Next button,7.0,object-60,temp_dist_trial,23.0,t_s_23_1,travel_shared,ball cap,9.0,competing,paired,t_s_23_1.jpg,Travel,,,sub-57
Desktop or Laptop,Windows 10,Chrome 137.0.0.0,1600x900,1600x900,Temporal Distance Task,cb_09,71.0,temp_dist_trial,dist_items,qkpkxw,2.0,response,62,866.7999999999884,2183.4000000000233,2190.499999999825,866.7999999999884,2183.4000000000233,2190.499999999825,1.0,1323.699999999837,0.0,,Slider,Slider,4.0,object-56,temp_dist_trial,23.0,t_s_23_1,travel_shared,ball cap,9.0,competing,paired,t_s_23_1.jpg,Travel,,,sub-57
Desktop or Laptop,Windows 10,Chrome 137.0.0.0,1600x900,1600x900,Temporal Distance Task,cb_09,72.0,temp_dist_trial,num_items,zn7si1,1.0,response,2_ITEM,1005.4000000000816,1000.0,1005.4000000000816,1005.4000000000816,1000.0,1005.4000000000816,1.0,0.0,0.0,,Click Response,2_count,5.0,object-49,temp_dist_trial,24.0,t_s_16_1,travel_shared,chapstick,9.0,competing,paired,t_s_16_1.jpg,Travel,,,sub-57
Desktop or Laptop,Windows 10,Chrome 137.0.0.0,1600x900,1600x900,Temporal Distance Task,cb_09,72.0,temp_dist_trial,dist_items,qkpkxw,2.0,info,,12.099999999802096,0.0,12.099999999802096,12.099999999802096,0.0,12.099999999802096,1.0,0.0,0.0,,Slider,Slider,4.0,object-56,temp_dist_trial,24.0,t_s_16_1,travel_shared,chapstick,9.0,competing,paired,t_s_16_1.jpg,Travel,,,sub-57
Desktop or Laptop,Windows 10,Chrome 137.0.0.0,1600x900,1600x900,Temporal Distance Task,cb_09,72.0,temp_dist_trial,dist_items,qkpkxw,2.0,continue,,1509.499999999709,1499.8999999999646,1509.499999999709,1509.499999999709,1499.8999999999646,1509.499999999709,1.0,0.0,0.0,,Click To Continue,Next button,7.0,object-60,temp_dist_trial,24.0,t_s_16_1,travel_shared,chapstick,9.0,competing,paired,t_s_16_1.jpg,Travel,,,sub-57
Desktop or Laptop,Windows 10,Chrome 137.0.0.0,1600x900,1600x900,Temporal Distance Task,cb_09,72.0,temp_dist_trial,dist_items,qkpkxw,2.0,response,42,600.0999999999767,1499.8999999999646,1511.7999999999884,600.0999999999767,1499.8999999999646,1511.7999999999884,1.0,911.7000000000116,0.0,,Slider,Slider,4.0,object-56,temp_dist_trial,24.0,t_s_16_1,travel_shared,chapstick,9.0,competing,paired,t_s_16_1.jpg,Travel,,,sub-57
Desktop or Laptop,Windows 10,Chrome 137.0.0.0,1600x900,1600x900,Temporal Distance Task,cb_09,73.0,temp_dist_trial,num_items,zn7si1,1.0,response,2_ITEM,1356.0000000001164,1350.0,1356.0000000001164,1356.0000000001164,1350.0,1356.0000000001164,1.0,0.0,0.0,,Click Response,2_count,5.0,object-49,temp_dist_trial,25.0,t_m_16_1,travel_Miami,flippers,9.0,unique,paired,t_m_16_1.jpg,Travel,,,sub-57
Desktop or Laptop,Windows 10,Chrome 137.0.0.0,1600x900,1600x900,Temporal Distance Task,cb_09,73.0,temp_dist_trial,dist_items,qkpkxw,2.0,info,,13.79999999993015,0.0,13.79999999993015,13.79999999993015,0.0,13.79999999993015,1.0,0.0,0.0,,Slider,Slider,4.0,object-56,temp_dist_trial,25.0,t_m_16_1,travel_Miami,flippers,9.0,unique,paired,t_m_16_1.jpg,Travel,,,sub-57
Desktop or Laptop,Windows 10,Chrome 137.0.0.0,1600x900,1600x900,Temporal Distance Task,cb_09,73.0,temp_dist_trial,dist_items,qkpkxw,2.0,continue,,2042.0000000001169,2033.4000000000235,2042.0000000001169,2042.0000000001169,2033.4000000000235,2042.0000000001169,1.0,0.0,0.0,,Click To Continue,Next button,7.0,object-60,temp_dist_trial,25.0,t_m_16_1,travel_Miami,flippers,9.0,unique,paired,t_m_16_1.jpg,Travel,,,sub-57
Desktop or Laptop,Windows 10,Chrome 137.0.0.0,1600x900,1600x900,Temporal Distance Task,cb_09,73.0,temp_dist_trial,dist_items,qkpkxw,2.0,response,44,766.8000000000467,2033.4000000000235,2050.0,766.8000000000467,2033.4000000000235,2050.0,1.0,1283.1999999999534,0.0,,Slider,Slider,4.0,object-56,temp_dist_trial,25.0,t_m_16_1,travel_Miami,flippers,9.0,unique,paired,t_m_16_1.jpg,Travel,,,sub-57
Desktop or Laptop,Windows 10,Chrome 137.0.0.0,1600x900,1600x900,Temporal Distance Task,cb_09,74.0,temp_dist_trial,num_items,zn7si1,1.0,response,1_ITEM,1204.7999999998135,1200.2000000000114,1204.7999999998135,1204.7999999998135,1200.2000000000114,1204.7999999998135,1.0,0.0,0.0,,Click Response,1_count,3.0,object-46,temp_dist_trial,26.0,t_i_14_1,travel_Iceland,snow pants,9.0,unique,paired,t_i_14_1.jpg,Travel,,,sub-57
Desktop or Laptop,Windows 10,Chrome 137.0.0.0,1600x900,1600x900,Temporal Distance Task,cb_09,75.0,temp_dist_trial,num_items,zn7si1,1.0,response,1_ITEM,2986.6000000000927,2983.2999999999884,2986.6000000000927,2986.6000000000927,2983.2999999999884,2986.6000000000927,1.0,0.0,0.0,,Click Response,1_count,3.0,object-46,temp_dist_trial,27.0,t_s_20_1,travel_shared,travel pill case,9.0,competing,single,t_s_20_1.jpg,Travel,,,sub-57
Desktop or Laptop,Windows 10,Chrome 137.0.0.0,1600x900,1600x900,Temporal Distance Task,cb_09,76.0,temp_dist_trial,num_items,zn7si1,1.0,response,1_ITEM,1156.5,1149.9000000000233,1156.5,1156.5,1149.9000000000233,1156.5,1.0,0.0,0.0,,Click Response,1_count,3.0,object-46,temp_dist_trial,28.0,t_s_07_1,travel_shared,phone charger cable,9.0,competing,single,t_s_07_1.jpg,Travel,,,sub-57
Desktop or Laptop,Windows 10,Chrome 137.0.0.0,1600x900,1600x900,Temporal Distance Task,cb_09,77.0,temp_dist_trial,num_items,zn7si1,1.0,response,1_ITEM,1727.2000000000698,1716.6999999999537,1727.2000000000698,1727.2000000000698,1716.6999999999537,1727.2000000000698,1.0,0.0,0.0,,Click Response,1_count,3.0,object-46,temp_dist_trial,29.0,t_i_10_1,travel_Iceland,trekking poles,9.0,unique,paired,t_i_10_1.jpg,Travel,,,sub-57
Desktop or Laptop,Windows 10,Chrome 137.0.0.0,1600x900,1600x900,Temporal Distance Task,cb_09,78.0,temp_dist_trial,num_items,zn7si1,1.0,response,1_ITEM,1856.499999999709,1850.0,1856.499999999709,1856.499999999709,1850.0,1856.499999999709,1.0,0.0,0.0,,Click Response,1_count,3.0,object-46,temp_dist_trial,30.0,t_s_03_1,travel_shared,portable charger,9.0,competing,paired,t_s_03_1.jpg,Travel,,,sub-57
Desktop or Laptop,Windows 10,Chrome 137.0.0.0,1600x900,1600x900,Temporal Distance Task,cb_09,79.0,temp_dist_trial,num_items,zn7si1,1.0,response,2_ITEM,1157.9000000000233,1150.0,1157.9000000000233,1157.9000000000233,1150.0,1157.9000000000233,1.0,0.0,0.0,,Click Response,2_count,5.0,object-49,temp_dist_trial,31.0,t_s_09_1,travel_shared,wallet,9.0,competing,paired,t_s_09_1.jpg,Travel,,,sub-57
Desktop or Laptop,Windows 10,Chrome 137.0.0.0,1600x900,1600x900,Temporal Distance Task,cb_09,79.0,temp_dist_trial,dist_items,qkpkxw,2.0,info,,8.499999999883585,0.0,8.499999999883585,8.499999999883585,0.0,8.499999999883585,1.0,0.0,0.0,,Slider,Slider,4.0,object-56,temp_dist_trial,31.0,t_s_09_1,travel_shared,wallet,9.0,competing,paired,t_s_09_1.jpg,Travel,,,sub-57
Desktop or Laptop,Windows 10,Chrome 137.0.0.0,1600x900,1600x900,Temporal Distance Task,cb_09,79.0,temp_dist_trial,dist_items,qkpkxw,2.0,continue,,2088.20000000007,2083.0999999999767,2088.20000000007,2088.20000000007,2083.0999999999767,2088.20000000007,1.0,0.0,0.0,,Click To Continue,Next button,7.0,object-60,temp_dist_trial,31.0,t_s_09_1,travel_shared,wallet,9.0,competing,paired,t_s_09_1.jpg,Travel,,,sub-57
Desktop or Laptop,Windows 10,Chrome 137.0.0.0,1600x900,1600x900,Temporal Distance Task,cb_09,79.0,temp_dist_trial,dist_items,qkpkxw,2.0,response,61,1149.6999999999534,2083.0999999999767,2088.8999999997905,1149.6999999999534,2083.0999999999767,2088.8999999997905,1.0,939.199999999837,0.0,,Slider,Slider,4.0,object-56,temp_dist_trial,31.0,t_s_09_1,travel_shared,wallet,9.0,competing,paired,t_s_09_1.jpg,Travel,,,sub-57
Desktop or Laptop,Windows 10,Chrome 137.0.0.0,1600x900,1600x900,Temporal Distance Task,cb_09,80.0,temp_dist_trial,num_items,zn7si1,1.0,response,1_ITEM,1754.6000000000934,1749.9000000000233,1754.6000000000934,1754.6000000000934,1749.9000000000233,1754.6000000000934,1.0,0.0,0.0,,Click Response,1_count,3.0,object-46,temp_dist_trial,32.0,t_m_19_1,travel_Miami,surfboard,9.0,unique,paired,t_m_19_1.jpg,Travel,,,sub-57
Desktop or Laptop,Windows 10,Chrome 137.0.0.0,1600x900,1600x900,Temporal Distance Task,cb_09,81.0,temp_dist_trial,num_items,zn7si1,1.0,response,2_ITEM,1271.0999999999767,1266.5999999999767,1271.0999999999767,1271.0999999999767,1266.5999999999767,1271.0999999999767,1.0,0.0,0.0,,Click Response,2_count,5.0,object-49,temp_dist_trial,33.0,t_m_06_1,travel_Miami,handheld fan,9.0,unique,paired,t_m_06_1.jpg,Travel,,,sub-57
Desktop or Laptop,Windows 10,Chrome 137.0.0.0,1600x900,1600x900,Temporal Distance Task,cb_09,81.0,temp_dist_trial,dist_items,qkpkxw,2.0,info,,11.500000000116415,0.0,11.500000000116415,11.500000000116415,0.0,11.500000000116415,1.0,0.0,0.0,,Slider,Slider,4.0,object-56,temp_dist_trial,33.0,t_m_06_1,travel_Miami,handheld fan,9.0,unique,paired,t_m_06_1.jpg,Travel,,,sub-57
Desktop or Laptop,Windows 10,Chrome 137.0.0.0,1600x900,1600x900,Temporal Distance Task,cb_09,81.0,temp_dist_trial,dist_items,qkpkxw,2.0,continue,,1666.5,1650.0,1666.5,1666.5,1650.0,1666.5,1.0,0.0,0.0,,Click To Continue,Next button,7.0,object-60,temp_dist_trial,33.0,t_m_06_1,travel_Miami,handheld fan,9.0,unique,paired,t_m_06_1.jpg,Travel,,,sub-57
Desktop or Laptop,Windows 10,Chrome 137.0.0.0,1600x900,1600x900,Temporal Distance Task,cb_09,81.0,temp_dist_trial,dist_items,qkpkxw,2.0,response,41,766.7000000000116,1650.0,1666.5,766.7000000000116,1650.0,1666.5,1.0,899.7999999999884,0.0,,Slider,Slider,4.0,object-56,temp_dist_trial,33.0,t_m_06_1,travel_Miami,handheld fan,9.0,unique,paired,t_m_06_1.jpg,Travel,,,sub-57
Desktop or Laptop,Windows 10,Chrome 137.0.0.0,1600x900,1600x900,Temporal Distance Task,cb_09,82.0,temp_dist_trial,num_items,zn7si1,1.0,response,1_ITEM,1116.2999999999304,1100.100000000035,1116.2999999999304,1116.2999999999304,1100.100000000035,1116.2999999999304,1.0,0.0,0.0,,Click Response,1_count,3.0,object-46,temp_dist_trial,34.0,t_i_11_1,travel_Iceland,headlamp,9.0,unique,single,t_i_11_1.jpg,Travel,,,sub-57
Desktop or Laptop,Windows 10,Chrome 137.0.0.0,1600x900,1600x900,Temporal Distance Task,cb_09,83.0,temp_dist_trial,num_items,zn7si1,1.0,response,2_ITEM,1082.0000000001164,1066.7000000000116,1082.0000000001164,1082.0000000001164,1066.7000000000116,1082.0000000001164,1.0,0.0,0.0,,Click Response,2_count,5.0,object-49,temp_dist_trial,35.0,t_m_08_1,travel_Miami,flipflops,9.0,unique,paired,t_m_08_1.jpg,Travel,,,sub-57
Desktop or Laptop,Windows 10,Chrome 137.0.0.0,1600x900,1600x900,Temporal Distance Task,cb_09,83.0,temp_dist_trial,dist_items,qkpkxw,2.0,info,,10.499999999825377,0.0,10.499999999825377,10.499999999825377,0.0,10.499999999825377,1.0,0.0,0.0,,Slider,Slider,4.0,object-56,temp_dist_trial,35.0,t_m_08_1,travel_Miami,flipflops,9.0,unique,paired,t_m_08_1.jpg,Travel,,,sub-57
Desktop or Laptop,Windows 10,Chrome 137.0.0.0,1600x900,1600x900,Temporal Distance Task,cb_09,83.0,temp_dist_trial,dist_items,qkpkxw,2.0,continue,,3495.300000000105,3483.2999999999884,3495.300000000105,3495.300000000105,3483.2999999999884,3495.300000000105,1.0,0.0,0.0,,Click To Continue,Next button,7.0,object-60,temp_dist_trial,35.0,t_m_08_1,travel_Miami,flipflops,9.0,unique,paired,t_m_08_1.jpg,Travel,,,sub-57
Desktop or Laptop,Windows 10,Chrome 137.0.0.0,1600x900,1600x900,Temporal Distance Task,cb_09,83.0,temp_dist_trial,dist_items,qkpkxw,2.0,response,42,2033.2999999999884,3483.2999999999884,3495.800000000105,2033.2999999999884,3483.2999999999884,3495.800000000105,1.0,1462.5000000001166,0.0,,Slider,Slider,4.0,object-56,temp_dist_trial,35.0,t_m_08_1,travel_Miami,flipflops,9.0,unique,paired,t_m_08_1.jpg,Travel,,,sub-57
Desktop or Laptop,Windows 10,Chrome 137.0.0.0,1600x900,1600x900,Temporal Distance Task,cb_09,84.0,temp_dist_trial,num_items,zn7si1,1.0,response,1_ITEM,1088.199999999837,1083.3000000000468,1088.199999999837,1088.199999999837,1083.3000000000468,1088.199999999837,1.0,0.0,0.0,,Click Response,1_count,3.0,object-46,temp_dist_trial,36.0,t_i_19_1,travel_Iceland,rope,9.0,unique,paired,t_i_19_1.jpg,Travel,,,sub-57
Desktop or Laptop,Windows 10,Chrome 137.0.0.0,1600x900,1600x900,Temporal Distance Task,cb_09,85.0,temp_dist_trial,num_items,zn7si1,1.0,response,1_ITEM,1011.5,1000.0,1011.5,1011.5,1000.0,1011.5,1.0,0.0,0.0,,Click Response,1_count,3.0,object-46,temp_dist_trial,37.0,t_s_05_1,travel_shared,neck pillow,9.0,competing,single,t_s_05_1.jpg,Travel,,,sub-57
Desktop or Laptop,Windows 10,Chrome 137.0.0.0,1600x900,1600x900,Temporal Distance Task,cb_09,86.0,temp_dist_trial,num_items,zn7si1,1.0,response,2_ITEM,1357.2999999996973,1350.0999999999767,1357.2999999996973,1357.2999999996973,1350.0999999999767,1357.2999999996973,1.0,0.0,0.0,,Click Response,2_count,5.0,object-49,temp_dist_trial,38.0,t_s_13_1,travel_shared,contact lens case,9.0,competing,paired,t_s_13_1.jpg,Travel,,,sub-57
Desktop or Laptop,Windows 10,Chrome 137.0.0.0,1600x900,1600x900,Temporal Distance Task,cb_09,86.0,temp_dist_trial,dist_items,qkpkxw,2.0,info,,15.899999999790454,0.0,15.899999999790454,15.899999999790454,0.0,15.899999999790454,1.0,0.0,0.0,,Slider,Slider,4.0,object-56,temp_dist_trial,38.0,t_s_13_1,travel_shared,contact lens case,9.0,competing,paired,t_s_13_1.jpg,Travel,,,sub-57
Desktop or Laptop,Windows 10,Chrome 137.0.0.0,1600x900,1600x900,Temporal Distance Task,cb_09,86.0,temp_dist_trial,dist_items,qkpkxw,2.0,continue,,2487.499999999884,2483.399999999965,2487.499999999884,2487.499999999884,2483.399999999965,2487.499999999884,1.0,0.0,0.0,,Click To Continue,Next button,7.0,object-60,temp_dist_trial,38.0,t_s_13_1,travel_shared,contact lens case,9.0,competing,paired,t_s_13_1.jpg,Travel,,,sub-57
Desktop or Laptop,Windows 10,Chrome 137.0.0.0,1600x900,1600x900,Temporal Distance Task,cb_09,86.0,temp_dist_trial,dist_items,qkpkxw,2.0,response,65,1500.0,2483.399999999965,2495.70000000007,1500.0,2483.399999999965,2495.70000000007,1.0,995.7000000000696,0.0,,Slider,Slider,4.0,object-56,temp_dist_trial,38.0,t_s_13_1,travel_shared,contact lens case,9.0,competing,paired,t_s_13_1.jpg,Travel,,,sub-57
Desktop or Laptop,Windows 10,Chrome 137.0.0.0,1600x900,1600x900,Temporal Distance Task,cb_09,87.0,temp_dist_trial,num_items,zn7si1,1.0,response,2_ITEM,1520.2000000000116,1516.7000000000116,1520.2000000000116,1520.2000000000116,1516.7000000000116,1520.2000000000116,1.0,0.0,0.0,,Click Response,2_count,5.0,object-49,temp_dist_trial,39.0,t_s_21_1,travel_shared,umbrella,9.0,competing,paired,t_s_21_1.jpg,Travel,,,sub-57
Desktop or Laptop,Windows 10,Chrome 137.0.0.0,1600x900,1600x900,Temporal Distance Task,cb_09,87.0,temp_dist_trial,dist_items,qkpkxw,2.0,info,,10.199999999720603,0.0,10.199999999720603,10.199999999720603,0.0,10.199999999720603,1.0,0.0,0.0,,Slider,Slider,4.0,object-56,temp_dist_trial,39.0,t_s_21_1,travel_shared,umbrella,9.0,competing,paired,t_s_21_1.jpg,Travel,,,sub-57
Desktop or Laptop,Windows 10,Chrome 137.0.0.0,1600x900,1600x900,Temporal Distance Task,cb_09,87.0,temp_dist_trial,dist_items,qkpkxw,2.0,continue,,1873.6999999997208,1866.7000000000119,1873.6999999997208,1873.6999999997208,1866.7000000000119,1873.6999999997208,1.0,0.0,0.0,,Click To Continue,Next button,7.0,object-60,temp_dist_trial,39.0,t_s_21_1,travel_shared,umbrella,9.0,competing,paired,t_s_21_1.jpg,Travel,,,sub-57
Desktop or Laptop,Windows 10,Chrome 137.0.0.0,1600x900,1600x900,Temporal Distance Task,cb_09,87.0,temp_dist_trial,dist_items,qkpkxw,2.0,response,64,916.9000000000232,1866.7000000000119,1874.3999999999066,916.9000000000232,1866.7000000000119,1874.3999999999066,1.0,957.4999999998836,0.0,,Slider,Slider,4.0,object-56,temp_dist_trial,39.0,t_s_21_1,travel_shared,umbrella,9.0,competing,paired,t_s_21_1.jpg,Travel,,,sub-57
Desktop or Laptop,Windows 10,Chrome 137.0.0.0,1600x900,1600x900,Temporal Distance Task,cb_09,88.0,temp_dist_trial,num_items,zn7si1,1.0,response,1_ITEM,1525.9000000000815,1516.7000000000116,1525.9000000000815,1525.9000000000815,1516.7000000000116,1525.9000000000815,1.0,0.0,0.0,,Click Response,1_count,3.0,object-46,temp_dist_trial,40.0,t_i_12_1,travel_Iceland,tent,9.0,unique,single,t_i_12_1.jpg,Travel,,,sub-57
Desktop or Laptop,Windows 10,Chrome 137.0.0.0,1600x900,1600x900,Temporal Distance Task,cb_09,89.0,temp_dist_trial,num_items,zn7si1,1.0,response,2_ITEM,1545.2000000000698,1533.2999999999884,1545.2000000000698,1545.2000000000698,1533.2999999999884,1545.2000000000698,1.0,0.0,0.0,,Click Response,2_count,5.0,object-49,temp_dist_trial,41.0,t_s_02_1,travel_shared,water bottle,9.0,competing,paired,t_s_02_1.jpg,Travel,,,sub-57
Desktop or Laptop,Windows 10,Chrome 137.0.0.0,1600x900,1600x900,Temporal Distance Task,cb_09,89.0,temp_dist_trial,dist_items,qkpkxw,2.0,info,,11.099999999802094,0.0,11.099999999802094,11.099999999802094,0.0,11.099999999802094,1.0,0.0,0.0,,Slider,Slider,4.0,object-56,temp_dist_trial,41.0,t_s_02_1,travel_shared,water bottle,9.0,competing,paired,t_s_02_1.jpg,Travel,,,sub-57
Desktop or Laptop,Windows 10,Chrome 137.0.0.0,1600x900,1600x900,Temporal Distance Task,cb_09,89.0,temp_dist_trial,dist_items,qkpkxw,2.0,continue,,1950.2999999999884,1933.5,1950.2999999999884,1950.2999999999884,1933.5,1950.2999999999884,1.0,0.0,0.0,,Click To Continue,Next button,7.0,object-60,temp_dist_trial,41.0,t_s_02_1,travel_shared,water bottle,9.0,competing,paired,t_s_02_1.jpg,Travel,,,sub-57
Desktop or Laptop,Windows 10,Chrome 137.0.0.0,1600x900,1600x900,Temporal Distance Task,cb_09,89.0,temp_dist_trial,dist_items,qkpkxw,2.0,response,41,1183.399999999965,1933.5,1950.2999999999884,1183.399999999965,1933.5,1950.2999999999884,1.0,766.9000000000232,0.0,,Slider,Slider,4.0,object-56,temp_dist_trial,41.0,t_s_02_1,travel_shared,water bottle,9.0,competing,paired,t_s_02_1.jpg,Travel,,,sub-57
Desktop or Laptop,Windows 10,Chrome 137.0.0.0,1600x900,1600x900,Temporal Distance Task,cb_09,90.0,temp_dist_trial,num_items,zn7si1,1.0,response,2_ITEM,1364.5999999998019,1349.7999999999886,1364.5999999998019,1364.5999999998019,1349.7999999999886,1364.5999999998019,1.0,0.0,0.0,,Click Response,2_count,5.0,object-49,temp_dist_trial,42.0,t_s_14_1,travel_shared,hand sanitizer,9.0,competing,paired,t_s_14_1.jpg,Travel,,,sub-57
Desktop or Laptop,Windows 10,Chrome 137.0.0.0,1600x900,1600x900,Temporal Distance Task,cb_09,90.0,temp_dist_trial,dist_items,qkpkxw,2.0,info,,10.799999999988358,0.0,10.799999999988358,10.799999999988358,0.0,10.799999999988358,1.0,0.0,0.0,,Slider,Slider,4.0,object-56,temp_dist_trial,42.0,t_s_14_1,travel_shared,hand sanitizer,9.0,competing,paired,t_s_14_1.jpg,Travel,,,sub-57
Desktop or Laptop,Windows 10,Chrome 137.0.0.0,1600x900,1600x900,Temporal Distance Task,cb_09,90.0,temp_dist_trial,dist_items,qkpkxw,2.0,continue,,2483.100000000035,2466.5,2483.100000000035,2483.100000000035,2466.5,2483.100000000035,1.0,0.0,0.0,,Click To Continue,Next button,7.0,object-60,temp_dist_trial,42.0,t_s_14_1,travel_shared,hand sanitizer,9.0,competing,paired,t_s_14_1.jpg,Travel,,,sub-57
Desktop or Laptop,Windows 10,Chrome 137.0.0.0,1600x900,1600x900,Temporal Distance Task,cb_09,90.0,temp_dist_trial,dist_items,qkpkxw,2.0,response,57,1649.7999999999884,2466.5,2483.100000000035,1649.7999999999884,2466.5,2483.100000000035,1.0,833.3000000000467,0.0,,Slider,Slider,4.0,object-56,temp_dist_trial,42.0,t_s_14_1,travel_shared,hand sanitizer,9.0,competing,paired,t_s_14_1.jpg,Travel,,,sub-57
Desktop or Laptop,Windows 10,Chrome 137.0.0.0,1600x900,1600x900,Temporal Distance Task,cb_09,91.0,temp_dist_trial,num_items,zn7si1,1.0,response,2_ITEM,1528.7999999999884,1516.7000000000116,1528.7999999999884,1528.7999999999884,1516.7000000000116,1528.7999999999884,1.0,0.0,0.0,,Click Response,2_count,5.0,object-49,temp_dist_trial,43.0,t_m_07_1,travel_Miami,sunglasses,9.0,unique,paired,t_m_07_1.jpg,Travel,,,sub-57
Desktop or Laptop,Windows 10,Chrome 137.0.0.0,1600x900,1600x900,Temporal Distance Task,cb_09,91.0,temp_dist_trial,dist_items,qkpkxw,2.0,info,,12.999999999883585,0.0,12.999999999883585,12.999999999883585,0.0,12.999999999883585,1.0,0.0,0.0,,Slider,Slider,4.0,object-56,temp_dist_trial,43.0,t_m_07_1,travel_Miami,sunglasses,9.0,unique,paired,t_m_07_1.jpg,Travel,,,sub-57
Desktop or Laptop,Windows 10,Chrome 137.0.0.0,1600x900,1600x900,Temporal Distance Task,cb_09,91.0,temp_dist_trial,dist_items,qkpkxw,2.0,continue,,1594.0999999999767,1583.2999999999884,1594.0999999999767,1594.0999999999767,1583.2999999999884,1594.0999999999767,1.0,0.0,0.0,,Click To Continue,Next button,7.0,object-60,temp_dist_trial,43.0,t_m_07_1,travel_Miami,sunglasses,9.0,unique,paired,t_m_07_1.jpg,Travel,,,sub-57
