Participant Device,Participant OS,Participant Browser,Participant Monitor Size,Participant Viewport Size,Task Name,Current Spreadsheet,Trial Number,Display,Screen,Screen ID,Screen Counter,Response Type,Response,Onset Time,Clock Time,Reaction Time,Absolute Onset Time,Absolute Clock Time,Absolute Reaction Time,Correct,Response Duration,Proportion,Tag,Component Name,Object Name,Object Number,Object ID,Spreadsheet: display,Spreadsheet: trial,Spreadsheet: stimulus_id,Spreadsheet: expected_goal,Spreadsheet: stimulus_name,Spreadsheet: c_group,Spreadsheet: condition,Spreadsheet: paired_status,Spreadsheet: stimulus_path,Spreadsheet: block_type,Manipulation: Spreadsheet,Store: enc_test_acc,sub_label
Desktop or Laptop,Windows 10,Firefox 140.0,1920x1080,1920x1080,Temporal Distance Task,$${counterbalance_group},,,,,,info,BEGIN,,,,,,,0.0,,,,,,,,,,,,,,,,,,,,sub-52
Desktop or Laptop,Windows 10,Firefox 140.0,1920x1080,1920x1080,Temporal Distance Task,cb_08,1.0,temp_instructions,intro_screen,3tnme7,1.0,continue,,5734.68,5733.68,5734.68,5734.68,5733.68,5734.68,1.0,0.0,0.0,,Click To Continue,Continue Button,4.0,object-29,temp_instructions,,,Travel,,,,,,,,,sub-52
Desktop or Laptop,Windows 10,Firefox 140.0,1920x1080,1920x1080,Temporal Distance Task,cb_08,1.0,temp_instructions,intro_screen_2,52v7ur,2.0,continue,,9185.0,9182.36,9185.0,9185.0,9182.36,9185.0,1.0,0.0,0.0,,Click To Continue,Continue Button,4.0,object-39,temp_instructions,,,Travel,,,,,,,,,sub-52
Desktop or Laptop,Windows 10,Firefox 140.0,1920x1080,1920x1080,Temporal Distance Task,cb_08,1.0,temp_instructions,intro_screen_3,i7lvwx,3.0,continue,,6959.6399999999985,6958.0,6959.6399999999985,6959.6399999999985,6958.0,6959.6399999999985,1.0,0.0,0.0,,Click To Continue,Continue Button,4.0,object-67,temp_instructions,,,Travel,,,,,,,,,sub-52
Desktop or Laptop,Windows 10,Firefox 140.0,1920x1080,1920x1080,Temporal Distance Task,cb_08,1.0,temp_instructions,test_q1,5ieqx1,4.0,response,choice_3,6124.6399999999985,6121.559999999998,6124.6399999999985,6124.6399999999985,6121.559999999998,6124.6399999999985,1.0,0.0,0.0,,Click Response,choice_3,5.0,object-345,temp_instructions,,,Travel,,,,,,,,,sub-52
Desktop or Laptop,Windows 10,Firefox 140.0,1920x1080,1920x1080,Temporal Distance Task,cb_08,1.0,temp_instructions,score_corr,7ilvjr,5.0,continue,,1009.0800000000016,1006.1200000000026,1009.0800000000016,1009.0800000000016,1006.1200000000026,1009.0800000000016,1.0,0.0,0.0,,Click To Continue,Continue Button,3.0,object-23,temp_instructions,,,Travel,,,,,,,,,sub-52
Desktop or Laptop,Windows 10,Firefox 140.0,1920x1080,1920x1080,Temporal Distance Task,cb_08,1.0,temp_eventStart,Screen 1,dgtyxe,1.0,continue,,1126.9599999999991,1121.2799999999988,1126.9599999999991,1126.9599999999991,1121.2799999999988,1126.9599999999991,1.0,0.0,0.0,,Click To Continue,Next Button,3.0,object-43,temp_eventStart,,,Travel,,,,,,,,,sub-52
Desktop or Laptop,Windows 10,Firefox 140.0,1920x1080,1920x1080,Temporal Distance Task,cb_08,1.0,temp_dist_trial,num_items,zn7si1,1.0,response,2_ITEM,2243.6800000000007,2242.5599999999977,2243.6800000000007,2243.6800000000007,2242.5599999999977,2243.6800000000007,1.0,0.0,0.0,,Click Response,2_count,5.0,object-49,temp_dist_trial,1.0,t_s_23_1,travel_shared,ball cap,8.0,competing,paired,t_s_23_1.jpg,Travel,,,sub-52
Desktop or Laptop,Windows 10,Firefox 140.0,1920x1080,1920x1080,Temporal Distance Task,cb_08,1.0,temp_dist_trial,dist_items,qkpkxw,2.0,info,,6.07999999999447,0.0,6.07999999999447,6.07999999999447,0.0,6.07999999999447,1.0,0.0,0.0,,Slider,Slider,4.0,object-56,temp_dist_trial,1.0,t_s_23_1,travel_shared,ball cap,8.0,competing,paired,t_s_23_1.jpg,Travel,,,sub-52
Desktop or Laptop,Windows 10,Firefox 140.0,1920x1080,1920x1080,Temporal Distance Task,cb_08,1.0,temp_dist_trial,dist_items,qkpkxw,2.0,continue,,3307.6200000000026,3303.2000000000044,3307.6200000000026,3307.6200000000026,3303.2000000000044,3307.6200000000026,1.0,0.0,0.0,,Click To Continue,Next button,7.0,object-60,temp_dist_trial,1.0,t_s_23_1,travel_shared,ball cap,8.0,competing,paired,t_s_23_1.jpg,Travel,,,sub-52
Desktop or Laptop,Windows 10,Firefox 140.0,1920x1080,1920x1080,Temporal Distance Task,cb_08,1.0,temp_dist_trial,dist_items,qkpkxw,2.0,response,52,1218.2400000000052,3303.2000000000044,3307.6200000000026,1218.2400000000052,3303.2000000000044,3307.6200000000026,1.0,2089.3799999999974,0.0,,Slider,Slider,4.0,object-56,temp_dist_trial,1.0,t_s_23_1,travel_shared,ball cap,8.0,competing,paired,t_s_23_1.jpg,Travel,,,sub-52
Desktop or Laptop,Windows 10,Firefox 140.0,1920x1080,1920x1080,Temporal Distance Task,cb_08,2.0,temp_dist_trial,num_items,zn7si1,1.0,response,2_ITEM,1295.4199999999985,1291.0,1295.4199999999985,1295.4199999999985,1291.0,1295.4199999999985,1.0,0.0,0.0,,Click Response,2_count,5.0,object-49,temp_dist_trial,2.0,t_s_20_1,travel_shared,travel pill case,8.0,competing,paired,t_s_20_1.jpg,Travel,,,sub-52
Desktop or Laptop,Windows 10,Firefox 140.0,1920x1080,1920x1080,Temporal Distance Task,cb_08,2.0,temp_dist_trial,dist_items,qkpkxw,2.0,info,,6.060000000004947,0.0,6.060000000004947,6.060000000004947,0.0,6.060000000004947,1.0,0.0,0.0,,Slider,Slider,4.0,object-56,temp_dist_trial,2.0,t_s_20_1,travel_shared,travel pill case,8.0,competing,paired,t_s_20_1.jpg,Travel,,,sub-52
Desktop or Laptop,Windows 10,Firefox 140.0,1920x1080,1920x1080,Temporal Distance Task,cb_08,2.0,temp_dist_trial,dist_items,qkpkxw,2.0,continue,,2424.3800000000047,2418.32,2424.3800000000047,2424.3800000000047,2418.32,2424.3800000000047,1.0,0.0,0.0,,Click To Continue,Next button,7.0,object-60,temp_dist_trial,2.0,t_s_20_1,travel_shared,travel pill case,8.0,competing,paired,t_s_20_1.jpg,Travel,,,sub-52
Desktop or Laptop,Windows 10,Firefox 140.0,1920x1080,1920x1080,Temporal Distance Task,cb_08,2.0,temp_dist_trial,dist_items,qkpkxw,2.0,response,29,1060.6599999999962,2418.32,2424.3800000000047,1060.6599999999962,2418.32,2424.3800000000047,1.0,1363.7200000000084,0.0,,Slider,Slider,4.0,object-56,temp_dist_trial,2.0,t_s_20_1,travel_shared,travel pill case,8.0,competing,paired,t_s_20_1.jpg,Travel,,,sub-52
Desktop or Laptop,Windows 10,Firefox 140.0,1920x1080,1920x1080,Temporal Distance Task,cb_08,3.0,temp_dist_trial,num_items,zn7si1,1.0,response,2_ITEM,1903.1400000000067,1897.0800000000013,1903.1400000000067,1903.1400000000067,1897.0800000000013,1903.1400000000067,1.0,0.0,0.0,,Click Response,2_count,5.0,object-49,temp_dist_trial,3.0,t_s_17_1,travel_shared,toothbrush,8.0,competing,paired,t_s_17_1.jpg,Travel,,,sub-52
Desktop or Laptop,Windows 10,Firefox 140.0,1920x1080,1920x1080,Temporal Distance Task,cb_08,3.0,temp_dist_trial,dist_items,qkpkxw,2.0,info,,6.060000000004947,0.0,6.060000000004947,6.060000000004947,0.0,6.060000000004947,1.0,0.0,0.0,,Slider,Slider,4.0,object-56,temp_dist_trial,3.0,t_s_17_1,travel_shared,toothbrush,8.0,competing,paired,t_s_17_1.jpg,Travel,,,sub-52
Desktop or Laptop,Windows 10,Firefox 140.0,1920x1080,1920x1080,Temporal Distance Task,cb_08,3.0,temp_dist_trial,dist_items,qkpkxw,2.0,continue,,3163.8199999999933,3157.759999999995,3163.8199999999933,3163.8199999999933,3157.759999999995,3163.8199999999933,1.0,0.0,0.0,,Click To Continue,Next button,7.0,object-60,temp_dist_trial,3.0,t_s_17_1,travel_shared,toothbrush,8.0,competing,paired,t_s_17_1.jpg,Travel,,,sub-52
Desktop or Laptop,Windows 10,Firefox 140.0,1920x1080,1920x1080,Temporal Distance Task,cb_08,3.0,temp_dist_trial,dist_items,qkpkxw,2.0,response,33,1309.1800000000005,3157.759999999995,3163.8199999999933,1309.1800000000005,3157.759999999995,3163.8199999999933,1.0,1854.6399999999921,0.0,,Slider,Slider,4.0,object-56,temp_dist_trial,3.0,t_s_17_1,travel_shared,toothbrush,8.0,competing,paired,t_s_17_1.jpg,Travel,,,sub-52
Desktop or Laptop,Windows 10,Firefox 140.0,1920x1080,1920x1080,Temporal Distance Task,cb_08,4.0,temp_dist_trial,num_items,zn7si1,1.0,response,2_ITEM,1557.260000000002,1551.6200000000024,1557.260000000002,1557.260000000002,1551.6200000000024,1557.260000000002,1.0,0.0,0.0,,Click Response,2_count,5.0,object-49,temp_dist_trial,4.0,t_m_08_1,travel_Miami,flipflops,8.0,unique,paired,t_m_08_1.jpg,Travel,,,sub-52
Desktop or Laptop,Windows 10,Firefox 140.0,1920x1080,1920x1080,Temporal Distance Task,cb_08,4.0,temp_dist_trial,dist_items,qkpkxw,2.0,info,,5.139999999999418,0.0,5.139999999999418,5.139999999999418,0.0,5.139999999999418,1.0,0.0,0.0,,Slider,Slider,4.0,object-56,temp_dist_trial,4.0,t_m_08_1,travel_Miami,flipflops,8.0,unique,paired,t_m_08_1.jpg,Travel,,,sub-52
Desktop or Laptop,Windows 10,Firefox 140.0,1920x1080,1920x1080,Temporal Distance Task,cb_08,4.0,temp_dist_trial,dist_items,qkpkxw,2.0,continue,,2266.1399999999994,2260.739999999998,2266.1399999999994,2266.1399999999994,2260.739999999998,2266.1399999999994,1.0,0.0,0.0,,Click To Continue,Next button,7.0,object-60,temp_dist_trial,4.0,t_m_08_1,travel_Miami,flipflops,8.0,unique,paired,t_m_08_1.jpg,Travel,,,sub-52
Desktop or Laptop,Windows 10,Firefox 140.0,1920x1080,1920x1080,Temporal Distance Task,cb_08,4.0,temp_dist_trial,dist_items,qkpkxw,2.0,response,75,1054.5999999999983,2260.739999999998,2266.1399999999994,1054.5999999999983,2260.739999999998,2266.1399999999994,1.0,1211.5400000000009,0.0,,Slider,Slider,4.0,object-56,temp_dist_trial,4.0,t_m_08_1,travel_Miami,flipflops,8.0,unique,paired,t_m_08_1.jpg,Travel,,,sub-52
Desktop or Laptop,Windows 10,Firefox 140.0,1920x1080,1920x1080,Temporal Distance Task,cb_08,5.0,temp_dist_trial,num_items,zn7si1,1.0,response,2_ITEM,1054.5999999999983,1048.5400000000009,1054.5999999999983,1054.5999999999983,1048.5400000000009,1054.5999999999983,1.0,0.0,0.0,,Click Response,2_count,5.0,object-49,temp_dist_trial,5.0,t_s_03_1,travel_shared,portable charger,8.0,competing,single,t_s_03_1.jpg,Travel,,,sub-52
Desktop or Laptop,Windows 10,Firefox 140.0,1920x1080,1920x1080,Temporal Distance Task,cb_08,5.0,temp_dist_trial,dist_items,qkpkxw,2.0,info,,4.360000000000582,0.0,4.360000000000582,4.360000000000582,0.0,4.360000000000582,1.0,0.0,0.0,,Slider,Slider,4.0,object-56,temp_dist_trial,5.0,t_s_03_1,travel_shared,portable charger,8.0,competing,single,t_s_03_1.jpg,Travel,,,sub-52
Desktop or Laptop,Windows 10,Firefox 140.0,1920x1080,1920x1080,Temporal Distance Task,cb_08,5.0,temp_dist_trial,dist_items,qkpkxw,2.0,continue,,2318.360000000001,2315.2799999999993,2318.360000000001,2318.360000000001,2315.2799999999993,2318.360000000001,1.0,0.0,0.0,,Click To Continue,Next button,7.0,object-60,temp_dist_trial,5.0,t_s_03_1,travel_shared,portable charger,8.0,competing,single,t_s_03_1.jpg,Travel,,,sub-52
Desktop or Laptop,Windows 10,Firefox 140.0,1920x1080,1920x1080,Temporal Distance Task,cb_08,5.0,temp_dist_trial,dist_items,qkpkxw,2.0,response,62,866.7200000000012,2315.2799999999993,2319.360000000001,866.7200000000012,2315.2799999999993,2319.360000000001,1.0,1452.6399999999994,0.0,,Slider,Slider,4.0,object-56,temp_dist_trial,5.0,t_s_03_1,travel_shared,portable charger,8.0,competing,single,t_s_03_1.jpg,Travel,,,sub-52
Desktop or Laptop,Windows 10,Firefox 140.0,1920x1080,1920x1080,Temporal Distance Task,cb_08,6.0,temp_dist_trial,num_items,zn7si1,1.0,response,2_ITEM,897.0199999999968,890.9599999999991,897.0199999999968,897.0199999999968,890.9599999999991,897.0199999999968,1.0,0.0,0.0,,Click Response,2_count,5.0,object-49,temp_dist_trial,6.0,t_s_24_1,travel_shared,ear plugs,8.0,competing,paired,t_s_24_1.jpg,Travel,,,sub-52
Desktop or Laptop,Windows 10,Firefox 140.0,1920x1080,1920x1080,Temporal Distance Task,cb_08,6.0,temp_dist_trial,dist_items,qkpkxw,2.0,info,,6.0599999999976735,0.0,6.0599999999976735,6.0599999999976735,0.0,6.0599999999976735,1.0,0.0,0.0,,Slider,Slider,4.0,object-56,temp_dist_trial,6.0,t_s_24_1,travel_shared,ear plugs,8.0,competing,paired,t_s_24_1.jpg,Travel,,,sub-52
Desktop or Laptop,Windows 10,Firefox 140.0,1920x1080,1920x1080,Temporal Distance Task,cb_08,6.0,temp_dist_trial,dist_items,qkpkxw,2.0,continue,,3468.6200000000026,3466.8800000000047,3468.6200000000026,3468.6200000000026,3466.8800000000047,3468.6200000000026,1.0,0.0,0.0,,Click To Continue,Next button,7.0,object-60,temp_dist_trial,6.0,t_s_24_1,travel_shared,ear plugs,8.0,competing,paired,t_s_24_1.jpg,Travel,,,sub-52
Desktop or Laptop,Windows 10,Firefox 140.0,1920x1080,1920x1080,Temporal Distance Task,cb_08,6.0,temp_dist_trial,dist_items,qkpkxw,2.0,response,59,945.520000000004,3466.8800000000047,3469.6200000000026,945.520000000004,3466.8800000000047,3469.6200000000026,1.0,2524.0999999999985,0.0,,Slider,Slider,4.0,object-56,temp_dist_trial,6.0,t_s_24_1,travel_shared,ear plugs,8.0,competing,paired,t_s_24_1.jpg,Travel,,,sub-52
Desktop or Laptop,Windows 10,Firefox 140.0,1920x1080,1920x1080,Temporal Distance Task,cb_08,7.0,temp_dist_trial,num_items,zn7si1,1.0,response,2_ITEM,1169.7599999999948,1163.6999999999969,1169.7599999999948,1169.7599999999948,1163.6999999999969,1169.7599999999948,1.0,0.0,0.0,,Click Response,2_count,5.0,object-49,temp_dist_trial,7.0,t_i_12_1,travel_Iceland,tent,8.0,unique,paired,t_i_12_1.jpg,Travel,,,sub-52
Desktop or Laptop,Windows 10,Firefox 140.0,1920x1080,1920x1080,Temporal Distance Task,cb_08,7.0,temp_dist_trial,dist_items,qkpkxw,2.0,info,,6.0599999999976735,0.0,6.0599999999976735,6.0599999999976735,0.0,6.0599999999976735,1.0,0.0,0.0,,Slider,Slider,4.0,object-56,temp_dist_trial,7.0,t_i_12_1,travel_Iceland,tent,8.0,unique,paired,t_i_12_1.jpg,Travel,,,sub-52
Desktop or Laptop,Windows 10,Firefox 140.0,1920x1080,1920x1080,Temporal Distance Task,cb_08,7.0,temp_dist_trial,dist_items,qkpkxw,2.0,continue,,2416.540000000001,2412.2799999999993,2416.540000000001,2416.540000000001,2412.2799999999993,2416.540000000001,1.0,0.0,0.0,,Click To Continue,Next button,7.0,object-60,temp_dist_trial,7.0,t_i_12_1,travel_Iceland,tent,8.0,unique,paired,t_i_12_1.jpg,Travel,,,sub-52
Desktop or Laptop,Windows 10,Firefox 140.0,1920x1080,1920x1080,Temporal Distance Task,cb_08,7.0,temp_dist_trial,dist_items,qkpkxw,2.0,response,37,1400.0800000000015,2412.2799999999993,2417.540000000001,1400.0800000000015,2412.2799999999993,2417.540000000001,1.0,1017.4599999999992,0.0,,Slider,Slider,4.0,object-56,temp_dist_trial,7.0,t_i_12_1,travel_Iceland,tent,8.0,unique,paired,t_i_12_1.jpg,Travel,,,sub-52
Desktop or Laptop,Windows 10,Firefox 140.0,1920x1080,1920x1080,Temporal Distance Task,cb_08,8.0,temp_dist_trial,num_items,zn7si1,1.0,response,1_ITEM,1397.260000000002,1394.0,1397.260000000002,1397.260000000002,1394.0,1397.260000000002,1.0,0.0,0.0,,Click Response,1_count,3.0,object-46,temp_dist_trial,8.0,t_s_10_1,travel_shared,luggage lock,8.0,competing,paired,t_s_10_1.jpg,Travel,,,sub-52
Desktop or Laptop,Windows 10,Firefox 140.0,1920x1080,1920x1080,Temporal Distance Task,cb_08,9.0,temp_dist_trial,num_items,zn7si1,1.0,response,1_ITEM,1499.7599999999948,1497.0599999999977,1499.7599999999948,1499.7599999999948,1497.0599999999977,1499.7599999999948,1.0,0.0,0.0,,Click Response,1_count,3.0,object-46,temp_dist_trial,9.0,t_m_20_1,travel_Miami,inflatable beachball,8.0,unique,single,t_m_20_1.jpg,Travel,,,sub-52
Desktop or Laptop,Windows 10,Firefox 140.0,1920x1080,1920x1080,Temporal Distance Task,cb_08,10.0,temp_dist_trial,num_items,zn7si1,1.0,response,1_ITEM,1587.1999999999966,1581.9199999999985,1587.1999999999966,1587.1999999999966,1581.9199999999985,1587.1999999999966,1.0,0.0,0.0,,Click Response,1_count,3.0,object-46,temp_dist_trial,10.0,t_i_03_1,travel_Iceland,winter jacket,8.0,unique,single,t_i_03_1.jpg,Travel,,,sub-52
Desktop or Laptop,Windows 10,Firefox 140.0,1920x1080,1920x1080,Temporal Distance Task,cb_08,11.0,temp_dist_trial,num_items,zn7si1,1.0,response,1_ITEM,1667.7799999999988,1666.7599999999948,1667.7799999999988,1667.7799999999988,1666.7599999999948,1667.7799999999988,1.0,0.0,0.0,,Click Response,1_count,3.0,object-46,temp_dist_trial,11.0,t_s_22_1,travel_shared,belt,8.0,competing,paired,t_s_22_1.jpg,Travel,,,sub-52
Desktop or Laptop,Windows 10,Firefox 140.0,1920x1080,1920x1080,Temporal Distance Task,cb_08,12.0,temp_dist_trial,num_items,zn7si1,1.0,response,2_ITEM,2223.520000000004,2218.320000000007,2223.520000000004,2223.520000000004,2218.320000000007,2223.520000000004,1.0,0.0,0.0,,Click Response,2_count,5.0,object-49,temp_dist_trial,12.0,t_s_05_1,travel_shared,neck pillow,8.0,competing,paired,t_s_05_1.jpg,Travel,,,sub-52
Desktop or Laptop,Windows 10,Firefox 140.0,1920x1080,1920x1080,Temporal Distance Task,cb_08,12.0,temp_dist_trial,dist_items,qkpkxw,2.0,info,,6.0599999999976735,0.0,6.0599999999976735,6.0599999999976735,0.0,6.0599999999976735,1.0,0.0,0.0,,Slider,Slider,4.0,object-56,temp_dist_trial,12.0,t_s_05_1,travel_shared,neck pillow,8.0,competing,paired,t_s_05_1.jpg,Travel,,,sub-52
Desktop or Laptop,Windows 10,Firefox 140.0,1920x1080,1920x1080,Temporal Distance Task,cb_08,12.0,temp_dist_trial,dist_items,qkpkxw,2.0,continue,,2242.5599999999977,2236.5,2242.5599999999977,2242.5599999999977,2236.5,2242.5599999999977,1.0,0.0,0.0,,Click To Continue,Next button,7.0,object-60,temp_dist_trial,12.0,t_s_05_1,travel_shared,neck pillow,8.0,competing,paired,t_s_05_1.jpg,Travel,,,sub-52
Desktop or Laptop,Windows 10,Firefox 140.0,1920x1080,1920x1080,Temporal Distance Task,cb_08,12.0,temp_dist_trial,dist_items,qkpkxw,2.0,response,67,666.6999999999971,2236.5,2242.5599999999977,666.6999999999971,2236.5,2242.5599999999977,1.0,1575.8600000000006,0.0,,Slider,Slider,4.0,object-56,temp_dist_trial,12.0,t_s_05_1,travel_shared,neck pillow,8.0,competing,paired,t_s_05_1.jpg,Travel,,,sub-52
Desktop or Laptop,Windows 10,Firefox 140.0,1920x1080,1920x1080,Temporal Distance Task,cb_08,13.0,temp_dist_trial,num_items,zn7si1,1.0,response,2_ITEM,1848.1999999999966,1842.5399999999936,1848.1999999999966,1848.1999999999966,1842.5399999999936,1848.1999999999966,1.0,0.0,0.0,,Click Response,2_count,5.0,object-49,temp_dist_trial,13.0,t_s_19_1,travel_shared,pajamas,8.0,competing,paired,t_s_19_1.jpg,Travel,,,sub-52
Desktop or Laptop,Windows 10,Firefox 140.0,1920x1080,1920x1080,Temporal Distance Task,cb_08,13.0,temp_dist_trial,dist_items,qkpkxw,2.0,info,,6.0599999999976735,0.0,6.0599999999976735,6.0599999999976735,0.0,6.0599999999976735,1.0,0.0,0.0,,Slider,Slider,4.0,object-56,temp_dist_trial,13.0,t_s_19_1,travel_shared,pajamas,8.0,competing,paired,t_s_19_1.jpg,Travel,,,sub-52
Desktop or Laptop,Windows 10,Firefox 140.0,1920x1080,1920x1080,Temporal Distance Task,cb_08,13.0,temp_dist_trial,dist_items,qkpkxw,2.0,continue,,3423.1600000000035,3418.3800000000047,3423.1600000000035,3423.1600000000035,3418.3800000000047,3423.1600000000035,1.0,0.0,0.0,,Click To Continue,Next button,7.0,object-60,temp_dist_trial,13.0,t_s_19_1,travel_shared,pajamas,8.0,competing,paired,t_s_19_1.jpg,Travel,,,sub-52
Desktop or Laptop,Windows 10,Firefox 140.0,1920x1080,1920x1080,Temporal Distance Task,cb_08,13.0,temp_dist_trial,dist_items,qkpkxw,2.0,response,35,757.6000000000058,3418.3800000000047,3424.1600000000035,757.6000000000058,3418.3800000000047,3424.1600000000035,1.0,2666.5599999999977,0.0,,Slider,Slider,4.0,object-56,temp_dist_trial,13.0,t_s_19_1,travel_shared,pajamas,8.0,competing,paired,t_s_19_1.jpg,Travel,,,sub-52
Desktop or Laptop,Windows 10,Firefox 140.0,1920x1080,1920x1080,Temporal Distance Task,cb_08,14.0,temp_dist_trial,num_items,zn7si1,1.0,response,2_ITEM,1034.7799999999988,1030.3399999999963,1034.7799999999988,1034.7799999999988,1030.3399999999963,1034.7799999999988,1.0,0.0,0.0,,Click Response,2_count,5.0,object-49,temp_dist_trial,14.0,t_m_09_1,travel_Miami,beach towel,8.0,unique,paired,t_m_09_1.jpg,Travel,,,sub-52
Desktop or Laptop,Windows 10,Firefox 140.0,1920x1080,1920x1080,Temporal Distance Task,cb_08,14.0,temp_dist_trial,dist_items,qkpkxw,2.0,info,,3.9400000000023283,0.0,3.9400000000023283,3.9400000000023283,0.0,3.9400000000023283,1.0,0.0,0.0,,Slider,Slider,4.0,object-56,temp_dist_trial,14.0,t_m_09_1,travel_Miami,beach towel,8.0,unique,paired,t_m_09_1.jpg,Travel,,,sub-52
Desktop or Laptop,Windows 10,Firefox 140.0,1920x1080,1920x1080,Temporal Distance Task,cb_08,14.0,temp_dist_trial,dist_items,qkpkxw,2.0,continue,,2821.9400000000023,2818.360000000001,2821.9400000000023,2821.9400000000023,2818.360000000001,2821.9400000000023,1.0,0.0,0.0,,Click To Continue,Next button,7.0,object-60,temp_dist_trial,14.0,t_m_09_1,travel_Miami,beach towel,8.0,unique,paired,t_m_09_1.jpg,Travel,,,sub-52
Desktop or Laptop,Windows 10,Firefox 140.0,1920x1080,1920x1080,Temporal Distance Task,cb_08,14.0,temp_dist_trial,dist_items,qkpkxw,2.0,response,13,1254.6199999999953,2818.360000000001,2821.9400000000023,1254.6199999999953,2818.360000000001,2821.9400000000023,1.0,1567.320000000007,0.0,,Slider,Slider,4.0,object-56,temp_dist_trial,14.0,t_m_09_1,travel_Miami,beach towel,8.0,unique,paired,t_m_09_1.jpg,Travel,,,sub-52
Desktop or Laptop,Windows 10,Firefox 140.0,1920x1080,1920x1080,Temporal Distance Task,cb_08,15.0,temp_dist_trial,num_items,zn7si1,1.0,response,1_ITEM,1578.5800000000015,1575.8399999999967,1578.5800000000015,1578.5800000000015,1575.8399999999967,1578.5800000000015,1.0,0.0,0.0,,Click Response,1_count,3.0,object-46,temp_dist_trial,15.0,t_s_21_1,travel_shared,umbrella,8.0,competing,single,t_s_21_1.jpg,Travel,,,sub-52
Desktop or Laptop,Windows 10,Firefox 140.0,1920x1080,1920x1080,Temporal Distance Task,cb_08,16.0,temp_dist_trial,num_items,zn7si1,1.0,response,1_ITEM,1353.2400000000052,1351.6000000000058,1353.2400000000052,1353.2400000000052,1351.6000000000058,1353.2400000000052,1.0,0.0,0.0,,Click Response,1_count,3.0,object-46,temp_dist_trial,16.0,t_m_14_1,travel_Miami,swim goggles,8.0,unique,single,t_m_14_1.jpg,Travel,,,sub-52
Desktop or Laptop,Windows 10,Firefox 140.0,1920x1080,1920x1080,Temporal Distance Task,cb_08,17.0,temp_dist_trial,num_items,zn7si1,1.0,response,2_ITEM,1313.1399999999996,1309.179999999993,1313.1399999999996,1313.1399999999996,1309.179999999993,1313.1399999999996,1.0,0.0,0.0,,Click Response,2_count,5.0,object-49,temp_dist_trial,17.0,t_m_05_1,travel_Miami,sunscreen,8.0,unique,paired,t_m_05_1.jpg,Travel,,,sub-52
Desktop or Laptop,Windows 10,Firefox 140.0,1920x1080,1920x1080,Temporal Distance Task,cb_08,17.0,temp_dist_trial,dist_items,qkpkxw,2.0,info,,6.0799999999871925,0.0,6.0799999999871925,6.0799999999871925,0.0,6.0799999999871925,1.0,0.0,0.0,,Slider,Slider,4.0,object-56,temp_dist_trial,17.0,t_m_05_1,travel_Miami,sunscreen,8.0,unique,paired,t_m_05_1.jpg,Travel,,,sub-52
Desktop or Laptop,Windows 10,Firefox 140.0,1920x1080,1920x1080,Temporal Distance Task,cb_08,17.0,temp_dist_trial,dist_items,qkpkxw,2.0,continue,,2833.460000000007,2830.460000000007,2833.460000000007,2833.460000000007,2830.460000000007,2833.460000000007,1.0,0.0,0.0,,Click To Continue,Next button,7.0,object-60,temp_dist_trial,17.0,t_m_05_1,travel_Miami,sunscreen,8.0,unique,paired,t_m_05_1.jpg,Travel,,,sub-52
Desktop or Laptop,Windows 10,Firefox 140.0,1920x1080,1920x1080,Temporal Distance Task,cb_08,17.0,temp_dist_trial,dist_items,qkpkxw,2.0,response,58,818.2200000000012,2830.460000000007,2834.460000000007,818.2200000000012,2830.460000000007,2834.460000000007,1.0,2016.2400000000048,0.0,,Slider,Slider,4.0,object-56,temp_dist_trial,17.0,t_m_05_1,travel_Miami,sunscreen,8.0,unique,paired,t_m_05_1.jpg,Travel,,,sub-52
Desktop or Laptop,Windows 10,Firefox 140.0,1920x1080,1920x1080,Temporal Distance Task,cb_08,18.0,temp_dist_trial,num_items,zn7si1,1.0,response,1_ITEM,1224.0,1218.2599999999948,1224.0,1224.0,1218.2599999999948,1224.0,1.0,0.0,0.0,,Click Response,1_count,3.0,object-46,temp_dist_trial,18.0,t_i_07_1,travel_Iceland,hiking backpack,8.0,unique,single,t_i_07_1.jpg,Travel,,,sub-52
Desktop or Laptop,Windows 10,Firefox 140.0,1920x1080,1920x1080,Temporal Distance Task,cb_08,19.0,temp_dist_trial,num_items,zn7si1,1.0,response,1_ITEM,1727.3600000000006,1721.3000000000034,1727.3600000000006,1727.3600000000006,1721.3000000000034,1727.3600000000006,1.0,0.0,0.0,,Click Response,1_count,3.0,object-46,temp_dist_trial,19.0,t_m_13_1,travel_Miami,floatie,8.0,unique,paired,t_m_13_1.jpg,Travel,,,sub-52
Desktop or Laptop,Windows 10,Firefox 140.0,1920x1080,1920x1080,Temporal Distance Task,cb_08,20.0,temp_dist_trial,num_items,zn7si1,1.0,response,1_ITEM,1161.4400000000023,1157.6600000000035,1161.4400000000023,1161.4400000000023,1157.6600000000035,1161.4400000000023,1.0,0.0,0.0,,Click Response,1_count,3.0,object-46,temp_dist_trial,20.0,t_s_14_1,travel_shared,hand sanitizer,8.0,competing,single,t_s_14_1.jpg,Travel,,,sub-52
Desktop or Laptop,Windows 10,Firefox 140.0,1920x1080,1920x1080,Temporal Distance Task,cb_08,21.0,temp_dist_trial,num_items,zn7si1,1.0,response,1_ITEM,1267.2799999999988,1266.7400000000052,1267.2799999999988,1267.2799999999988,1266.7400000000052,1267.2799999999988,1.0,0.0,0.0,,Click Response,1_count,3.0,object-46,temp_dist_trial,21.0,t_s_12_1,travel_shared,clear toiletry bag,8.0,competing,single,t_s_12_1.jpg,Travel,,,sub-52
Desktop or Laptop,Windows 10,Firefox 140.0,1920x1080,1920x1080,Temporal Distance Task,cb_08,22.0,temp_dist_trial,num_items,zn7si1,1.0,response,1_ITEM,1488.0399999999936,1484.9399999999878,1488.0399999999936,1488.0399999999936,1484.9399999999878,1488.0399999999936,1.0,0.0,0.0,,Click Response,1_count,3.0,object-46,temp_dist_trial,22.0,t_s_01_1,travel_shared,fanny pack,8.0,competing,paired,t_s_01_1.jpg,Travel,,,sub-52
Desktop or Laptop,Windows 10,Firefox 140.0,1920x1080,1920x1080,Temporal Distance Task,cb_08,23.0,temp_dist_trial,num_items,zn7si1,1.0,response,1_ITEM,1212.1800000000076,1206.12000000001,1212.1800000000076,1212.1800000000076,1206.12000000001,1212.1800000000076,1.0,0.0,0.0,,Click Response,1_count,3.0,object-46,temp_dist_trial,23.0,t_s_02_1,travel_shared,water bottle,8.0,competing,single,t_s_02_1.jpg,Travel,,,sub-52
Desktop or Laptop,Windows 10,Firefox 140.0,1920x1080,1920x1080,Temporal Distance Task,cb_08,24.0,temp_dist_trial,num_items,zn7si1,1.0,response,2_ITEM,1747.979999999996,1745.5599999999977,1747.979999999996,1747.979999999996,1745.5599999999977,1747.979999999996,1.0,0.0,0.0,,Click Response,2_count,5.0,object-49,temp_dist_trial,24.0,t_m_06_1,travel_Miami,handheld fan,8.0,unique,paired,t_m_06_1.jpg,Travel,,,sub-52
Desktop or Laptop,Windows 10,Firefox 140.0,1920x1080,1920x1080,Temporal Distance Task,cb_08,24.0,temp_dist_trial,dist_items,qkpkxw,2.0,info,,3.9199999999982538,0.0,3.9199999999982538,3.9199999999982538,0.0,3.9199999999982538,1.0,0.0,0.0,,Slider,Slider,4.0,object-56,temp_dist_trial,24.0,t_m_06_1,travel_Miami,handheld fan,8.0,unique,paired,t_m_06_1.jpg,Travel,,,sub-52
Desktop or Laptop,Windows 10,Firefox 140.0,1920x1080,1920x1080,Temporal Distance Task,cb_08,24.0,temp_dist_trial,dist_items,qkpkxw,2.0,continue,,2693.9199999999983,2691.0599999999977,2693.9199999999983,2693.9199999999983,2691.0599999999977,2693.9199999999983,1.0,0.0,0.0,,Click To Continue,Next button,7.0,object-60,temp_dist_trial,24.0,t_m_06_1,travel_Miami,handheld fan,8.0,unique,paired,t_m_06_1.jpg,Travel,,,sub-52
Desktop or Laptop,Windows 10,Firefox 140.0,1920x1080,1920x1080,Temporal Distance Task,cb_08,24.0,temp_dist_trial,dist_items,qkpkxw,2.0,response,32,757.6399999999994,2691.0599999999977,2693.9199999999983,757.6399999999994,2691.0599999999977,2693.9199999999983,1.0,1936.2799999999988,0.0,,Slider,Slider,4.0,object-56,temp_dist_trial,24.0,t_m_06_1,travel_Miami,handheld fan,8.0,unique,paired,t_m_06_1.jpg,Travel,,,sub-52
Desktop or Laptop,Windows 10,Firefox 140.0,1920x1080,1920x1080,Temporal Distance Task,cb_08,25.0,temp_dist_trial,num_items,zn7si1,1.0,response,2_ITEM,2299.860000000001,2297.1000000000063,2299.860000000001,2299.860000000001,2297.1000000000063,2299.860000000001,1.0,0.0,0.0,,Click Response,2_count,5.0,object-49,temp_dist_trial,25.0,t_i_16_1,travel_Iceland,skis,8.0,unique,paired,t_i_16_1.jpg,Travel,,,sub-52
Desktop or Laptop,Windows 10,Firefox 140.0,1920x1080,1920x1080,Temporal Distance Task,cb_08,25.0,temp_dist_trial,dist_items,qkpkxw,2.0,info,,6.060000000012224,0.0,6.060000000012224,6.060000000012224,0.0,6.060000000012224,1.0,0.0,0.0,,Slider,Slider,4.0,object-56,temp_dist_trial,25.0,t_i_16_1,travel_Iceland,skis,8.0,unique,paired,t_i_16_1.jpg,Travel,,,sub-52
Desktop or Laptop,Windows 10,Firefox 140.0,1920x1080,1920x1080,Temporal Distance Task,cb_08,25.0,temp_dist_trial,dist_items,qkpkxw,2.0,continue,,1962.2599999999948,1957.6999999999966,1962.2599999999948,1962.2599999999948,1957.6999999999966,1962.2599999999948,1.0,0.0,0.0,,Click To Continue,Next button,7.0,object-60,temp_dist_trial,25.0,t_i_16_1,travel_Iceland,skis,8.0,unique,paired,t_i_16_1.jpg,Travel,,,sub-52
Desktop or Laptop,Windows 10,Firefox 140.0,1920x1080,1920x1080,Temporal Distance Task,cb_08,25.0,temp_dist_trial,dist_items,qkpkxw,2.0,response,60,884.8999999999942,1957.6999999999966,1963.2599999999948,884.8999999999942,1957.6999999999966,1963.2599999999948,1.0,1078.3600000000006,0.0,,Slider,Slider,4.0,object-56,temp_dist_trial,25.0,t_i_16_1,travel_Iceland,skis,8.0,unique,paired,t_i_16_1.jpg,Travel,,,sub-52
Desktop or Laptop,Windows 10,Firefox 140.0,1920x1080,1920x1080,Temporal Distance Task,cb_08,26.0,temp_dist_trial,num_items,zn7si1,1.0,response,2_ITEM,1300.5599999999977,1297.0399999999934,1300.5599999999977,1300.5599999999977,1297.0399999999934,1300.5599999999977,1.0,0.0,0.0,,Click Response,2_count,5.0,object-49,temp_dist_trial,26.0,t_i_01_1,travel_Iceland,gloves,8.0,unique,paired,t_i_01_1.jpg,Travel,,,sub-52
Desktop or Laptop,Windows 10,Firefox 140.0,1920x1080,1920x1080,Temporal Distance Task,cb_08,26.0,temp_dist_trial,dist_items,qkpkxw,2.0,info,,6.0599999999976735,0.0,6.0599999999976735,6.0599999999976735,0.0,6.0599999999976735,1.0,0.0,0.0,,Slider,Slider,4.0,object-56,temp_dist_trial,26.0,t_i_01_1,travel_Iceland,gloves,8.0,unique,paired,t_i_01_1.jpg,Travel,,,sub-52
Desktop or Laptop,Windows 10,Firefox 140.0,1920x1080,1920x1080,Temporal Distance Task,cb_08,26.0,temp_dist_trial,dist_items,qkpkxw,2.0,continue,,2750.020000000004,2745.6399999999994,2750.020000000004,2750.020000000004,2745.6399999999994,2750.020000000004,1.0,0.0,0.0,,Click To Continue,Next button,7.0,object-60,temp_dist_trial,26.0,t_i_01_1,travel_Iceland,gloves,8.0,unique,paired,t_i_01_1.jpg,Travel,,,sub-52
Desktop or Laptop,Windows 10,Firefox 140.0,1920x1080,1920x1080,Temporal Distance Task,cb_08,26.0,temp_dist_trial,dist_items,qkpkxw,2.0,response,40,1484.9400000000023,2745.6399999999994,2750.020000000004,1484.9400000000023,2745.6399999999994,2750.020000000004,1.0,1265.0800000000015,0.0,,Slider,Slider,4.0,object-56,temp_dist_trial,26.0,t_i_01_1,travel_Iceland,gloves,8.0,unique,paired,t_i_01_1.jpg,Travel,,,sub-52
Desktop or Laptop,Windows 10,Firefox 140.0,1920x1080,1920x1080,Temporal Distance Task,cb_08,27.0,temp_dist_trial,num_items,zn7si1,1.0,response,1_ITEM,919.3800000000048,915.2000000000116,919.3800000000048,919.3800000000048,915.2000000000116,919.3800000000048,1.0,0.0,0.0,,Click Response,1_count,3.0,object-46,temp_dist_trial,27.0,t_m_10_1,travel_Miami,tanktop,8.0,unique,single,t_m_10_1.jpg,Travel,,,sub-52
Desktop or Laptop,Windows 10,Firefox 140.0,1920x1080,1920x1080,Temporal Distance Task,cb_08,28.0,temp_dist_trial,num_items,zn7si1,1.0,response,1_ITEM,1499.679999999993,1497.0399999999936,1499.679999999993,1499.679999999993,1497.0399999999936,1499.679999999993,1.0,0.0,0.0,,Click Response,1_count,3.0,object-46,temp_dist_trial,28.0,t_s_15_1,travel_shared,luggage tag,8.0,competing,paired,t_s_15_1.jpg,Travel,,,sub-52
Desktop or Laptop,Windows 10,Firefox 140.0,1920x1080,1920x1080,Temporal Distance Task,cb_08,29.0,temp_dist_trial,num_items,zn7si1,1.0,response,2_ITEM,1478.1399999999994,1472.8000000000034,1478.1399999999994,1478.1399999999994,1472.8000000000034,1478.1399999999994,1.0,0.0,0.0,,Click Response,2_count,5.0,object-49,temp_dist_trial,29.0,t_s_13_1,travel_shared,contact lens case,8.0,competing,paired,t_s_13_1.jpg,Travel,,,sub-52
Desktop or Laptop,Windows 10,Firefox 140.0,1920x1080,1920x1080,Temporal Distance Task,cb_08,29.0,temp_dist_trial,dist_items,qkpkxw,2.0,info,,6.0599999999976735,0.0,6.0599999999976735,6.0599999999976735,0.0,6.0599999999976735,1.0,0.0,0.0,,Slider,Slider,4.0,object-56,temp_dist_trial,29.0,t_s_13_1,travel_shared,contact lens case,8.0,competing,paired,t_s_13_1.jpg,Travel,,,sub-52
Desktop or Laptop,Windows 10,Firefox 140.0,1920x1080,1920x1080,Temporal Distance Task,cb_08,29.0,temp_dist_trial,dist_items,qkpkxw,2.0,continue,,3802.839999999997,3800.2399999999907,3802.839999999997,3802.839999999997,3800.2399999999907,3802.839999999997,1.0,0.0,0.0,,Click To Continue,Next button,7.0,object-60,temp_dist_trial,29.0,t_s_13_1,travel_shared,contact lens case,8.0,competing,paired,t_s_13_1.jpg,Travel,,,sub-52
Desktop or Laptop,Windows 10,Firefox 140.0,1920x1080,1920x1080,Temporal Distance Task,cb_08,29.0,temp_dist_trial,dist_items,qkpkxw,2.0,response,61,794.0,3800.2399999999907,3803.839999999997,794.0,3800.2399999999907,3803.839999999997,1.0,3009.8399999999965,0.0,,Slider,Slider,4.0,object-56,temp_dist_trial,29.0,t_s_13_1,travel_shared,contact lens case,8.0,competing,paired,t_s_13_1.jpg,Travel,,,sub-52
Desktop or Laptop,Windows 10,Firefox 140.0,1920x1080,1920x1080,Temporal Distance Task,cb_08,30.0,temp_dist_trial,num_items,zn7si1,1.0,response,1_ITEM,1556.6000000000058,1551.6000000000058,1556.6000000000058,1556.6000000000058,1551.6000000000058,1556.6000000000058,1.0,0.0,0.0,,Click Response,1_count,3.0,object-46,temp_dist_trial,30.0,t_m_03_1,travel_Miami,wetsuit,8.0,unique,paired,t_m_03_1.jpg,Travel,,,sub-52
Desktop or Laptop,Windows 10,Firefox 140.0,1920x1080,1920x1080,Temporal Distance Task,cb_08,31.0,temp_dist_trial,num_items,zn7si1,1.0,response,1_ITEM,975.8199999999923,969.7599999999948,975.8199999999923,975.8199999999923,969.7599999999948,975.8199999999923,1.0,0.0,0.0,,Click Response,1_count,3.0,object-46,temp_dist_trial,31.0,t_i_02_1,travel_Iceland,scarf,8.0,unique,single,t_i_02_1.jpg,Travel,,,sub-52
Desktop or Laptop,Windows 10,Firefox 140.0,1920x1080,1920x1080,Temporal Distance Task,cb_08,32.0,temp_dist_trial,num_items,zn7si1,1.0,response,1_ITEM,1312.2400000000052,1309.1800000000076,1312.2400000000052,1312.2400000000052,1309.1800000000076,1312.2400000000052,1.0,0.0,0.0,,Click Response,1_count,3.0,object-46,temp_dist_trial,32.0,t_s_16_1,travel_shared,chapstick,8.0,competing,single,t_s_16_1.jpg,Travel,,,sub-52
Desktop or Laptop,Windows 10,Firefox 140.0,1920x1080,1920x1080,Temporal Distance Task,cb_08,33.0,temp_dist_trial,num_items,zn7si1,1.0,response,1_ITEM,771.5599999999977,769.7399999999907,771.5599999999977,771.5599999999977,769.7399999999907,771.5599999999977,1.0,0.0,0.0,,Click Response,1_count,3.0,object-46,temp_dist_trial,33.0,t_i_17_1,travel_Iceland,binoculars,8.0,unique,single,t_i_17_1.jpg,Travel,,,sub-52
Desktop or Laptop,Windows 10,Firefox 140.0,1920x1080,1920x1080,Temporal Distance Task,cb_08,34.0,temp_dist_trial,num_items,zn7si1,1.0,response,2_ITEM,1415.320000000007,1412.2000000000116,1415.320000000007,1415.320000000007,1412.2000000000116,1415.320000000007,1.0,0.0,0.0,,Click Response,2_count,5.0,object-49,temp_dist_trial,34.0,t_s_04_1,travel_shared,instant camera,8.0,competing,paired,t_s_04_1.jpg,Travel,,,sub-52
Desktop or Laptop,Windows 10,Firefox 140.0,1920x1080,1920x1080,Temporal Distance Task,cb_08,34.0,temp_dist_trial,dist_items,qkpkxw,2.0,info,,6.0599999999976735,0.0,6.0599999999976735,6.0599999999976735,0.0,6.0599999999976735,1.0,0.0,0.0,,Slider,Slider,4.0,object-56,temp_dist_trial,34.0,t_s_04_1,travel_shared,instant camera,8.0,competing,paired,t_s_04_1.jpg,Travel,,,sub-52
Desktop or Laptop,Windows 10,Firefox 140.0,1920x1080,1920x1080,Temporal Distance Task,cb_08,34.0,temp_dist_trial,dist_items,qkpkxw,2.0,continue,,3058.619999999996,3054.7399999999907,3058.619999999996,3058.619999999996,3054.7399999999907,3058.619999999996,1.0,0.0,0.0,,Click To Continue,Next button,7.0,object-60,temp_dist_trial,34.0,t_s_04_1,travel_shared,instant camera,8.0,competing,paired,t_s_04_1.jpg,Travel,,,sub-52
Desktop or Laptop,Windows 10,Firefox 140.0,1920x1080,1920x1080,Temporal Distance Task,cb_08,34.0,temp_dist_trial,dist_items,qkpkxw,2.0,response,63,733.3800000000048,3054.7399999999907,3060.619999999996,733.3800000000048,3054.7399999999907,3060.619999999996,1.0,2327.239999999991,0.0,,Slider,Slider,4.0,object-56,temp_dist_trial,34.0,t_s_04_1,travel_shared,instant camera,8.0,competing,paired,t_s_04_1.jpg,Travel,,,sub-52
Desktop or Laptop,Windows 10,Firefox 140.0,1920x1080,1920x1080,Temporal Distance Task,cb_08,35.0,temp_dist_trial,num_items,zn7si1,1.0,response,2_ITEM,2857.8800000000047,2854.700000000012,2857.8800000000047,2857.8800000000047,2854.700000000012,2857.8800000000047,1.0,0.0,0.0,,Click Response,2_count,5.0,object-49,temp_dist_trial,35.0,t_s_08_1,travel_shared,hand lotion,8.0,competing,paired,t_s_08_1.jpg,Travel,,,sub-52
Desktop or Laptop,Windows 10,Firefox 140.0,1920x1080,1920x1080,Temporal Distance Task,cb_08,35.0,temp_dist_trial,dist_items,qkpkxw,2.0,info,,6.0599999999976735,0.0,6.0599999999976735,6.0599999999976735,0.0,6.0599999999976735,1.0,0.0,0.0,,Slider,Slider,4.0,object-56,temp_dist_trial,35.0,t_s_08_1,travel_shared,hand lotion,8.0,competing,paired,t_s_08_1.jpg,Travel,,,sub-52
Desktop or Laptop,Windows 10,Firefox 140.0,1920x1080,1920x1080,Temporal Distance Task,cb_08,35.0,temp_dist_trial,dist_items,qkpkxw,2.0,continue,,2137.679999999993,2133.4400000000023,2137.679999999993,2137.679999999993,2133.4400000000023,2137.679999999993,1.0,0.0,0.0,,Click To Continue,Next button,7.0,object-60,temp_dist_trial,35.0,t_s_08_1,travel_shared,hand lotion,8.0,competing,paired,t_s_08_1.jpg,Travel,,,sub-52
Desktop or Laptop,Windows 10,Firefox 140.0,1920x1080,1920x1080,Temporal Distance Task,cb_08,35.0,temp_dist_trial,dist_items,qkpkxw,2.0,response,55,593.9799999999814,2133.4400000000023,2138.679999999993,593.9799999999814,2133.4400000000023,2138.679999999993,1.0,1544.7000000000116,0.0,,Slider,Slider,4.0,object-56,temp_dist_trial,35.0,t_s_08_1,travel_shared,hand lotion,8.0,competing,paired,t_s_08_1.jpg,Travel,,,sub-52
Desktop or Laptop,Windows 10,Firefox 140.0,1920x1080,1920x1080,Temporal Distance Task,cb_08,36.0,temp_dist_trial,num_items,zn7si1,1.0,response,2_ITEM,1420.2399999999911,1418.2799999999988,1420.2399999999911,1420.2399999999911,1418.2799999999988,1420.2399999999911,1.0,0.0,0.0,,Click Response,2_count,5.0,object-49,temp_dist_trial,36.0,t_i_04_1,travel_Iceland,portable camping stove,8.0,unique,paired,t_i_04_1.jpg,Travel,,,sub-52
Desktop or Laptop,Windows 10,Firefox 140.0,1920x1080,1920x1080,Temporal Distance Task,cb_08,36.0,temp_dist_trial,dist_items,qkpkxw,2.0,info,,6.080000000016298,0.0,6.080000000016298,6.080000000016298,0.0,6.080000000016298,1.0,0.0,0.0,,Slider,Slider,4.0,object-56,temp_dist_trial,36.0,t_i_04_1,travel_Iceland,portable camping stove,8.0,unique,paired,t_i_04_1.jpg,Travel,,,sub-52
Desktop or Laptop,Windows 10,Firefox 140.0,1920x1080,1920x1080,Temporal Distance Task,cb_08,36.0,temp_dist_trial,dist_items,qkpkxw,2.0,continue,,1968.459999999992,1963.7399999999911,1968.459999999992,1968.459999999992,1963.7399999999911,1968.459999999992,1.0,0.0,0.0,,Click To Continue,Next button,7.0,object-60,temp_dist_trial,36.0,t_i_04_1,travel_Iceland,portable camping stove,8.0,unique,paired,t_i_04_1.jpg,Travel,,,sub-52
Desktop or Laptop,Windows 10,Firefox 140.0,1920x1080,1920x1080,Temporal Distance Task,cb_08,36.0,temp_dist_trial,dist_items,qkpkxw,2.0,response,34,690.9400000000023,1963.7399999999911,1968.459999999992,690.9400000000023,1963.7399999999911,1968.459999999992,1.0,1277.5199999999895,0.0,,Slider,Slider,4.0,object-56,temp_dist_trial,36.0,t_i_04_1,travel_Iceland,portable camping stove,8.0,unique,paired,t_i_04_1.jpg,Travel,,,sub-52
Desktop or Laptop,Windows 10,Firefox 140.0,1920x1080,1920x1080,Temporal Distance Task,cb_08,37.0,temp_dist_trial,num_items,zn7si1,1.0,response,1_ITEM,1163.7000000000407,1157.640000000014,1163.7000000000407,1163.7000000000407,1157.640000000014,1163.7000000000407,1.0,0.0,0.0,,Click Response,1_count,3.0,object-46,temp_dist_trial,37.0,t_m_04_1,travel_Miami,UV jacket,8.0,unique,single,t_m_04_1.jpg,Travel,,,sub-52
Desktop or Laptop,Windows 10,Firefox 140.0,1920x1080,1920x1080,Temporal Distance Task,cb_08,38.0,temp_dist_trial,num_items,zn7si1,1.0,response,2_ITEM,1156.5799999999872,1151.5799999999872,1156.5799999999872,1156.5799999999872,1151.5799999999872,1156.5799999999872,1.0,0.0,0.0,,Click Response,2_count,5.0,object-49,temp_dist_trial,38.0,t_i_14_1,travel_Iceland,snow pants,8.0,unique,paired,t_i_14_1.jpg,Travel,,,sub-52
Desktop or Laptop,Windows 10,Firefox 140.0,1920x1080,1920x1080,Temporal Distance Task,cb_08,38.0,temp_dist_trial,dist_items,qkpkxw,2.0,info,,6.0599999999976735,0.0,6.0599999999976735,6.0599999999976735,0.0,6.0599999999976735,1.0,0.0,0.0,,Slider,Slider,4.0,object-56,temp_dist_trial,38.0,t_i_14_1,travel_Iceland,snow pants,8.0,unique,paired,t_i_14_1.jpg,Travel,,,sub-52
Desktop or Laptop,Windows 10,Firefox 140.0,1920x1080,1920x1080,Temporal Distance Task,cb_08,38.0,temp_dist_trial,dist_items,qkpkxw,2.0,continue,,2444.5,2442.5799999999867,2444.5,2444.5,2442.5799999999867,2444.5,1.0,0.0,0.0,,Click To Continue,Next button,7.0,object-60,temp_dist_trial,38.0,t_i_14_1,travel_Iceland,snow pants,8.0,unique,paired,t_i_14_1.jpg,Travel,,,sub-52
Desktop or Laptop,Windows 10,Firefox 140.0,1920x1080,1920x1080,Temporal Distance Task,cb_08,38.0,temp_dist_trial,dist_items,qkpkxw,2.0,response,44,1230.3800000000047,2442.5799999999867,2444.5,1230.3800000000047,2442.5799999999867,2444.5,1.0,1214.1199999999953,0.0,,Slider,Slider,4.0,object-56,temp_dist_trial,38.0,t_i_14_1,travel_Iceland,snow pants,8.0,unique,paired,t_i_14_1.jpg,Travel,,,sub-52
Desktop or Laptop,Windows 10,Firefox 140.0,1920x1080,1920x1080,Temporal Distance Task,cb_08,39.0,temp_dist_trial,num_items,zn7si1,1.0,response,1_ITEM,992.9200000000128,987.9400000000024,992.9200000000128,992.9200000000128,987.9400000000024,992.9200000000128,1.0,0.0,0.0,,Click Response,1_count,3.0,object-46,temp_dist_trial,39.0,t_i_06_1,travel_Iceland,knit hat,8.0,unique,paired,t_i_06_1.jpg,Travel,,,sub-52
Desktop or Laptop,Windows 10,Firefox 140.0,1920x1080,1920x1080,Temporal Distance Task,cb_08,40.0,temp_dist_trial,num_items,zn7si1,1.0,response,2_ITEM,1068.4800000000105,1066.7200000000012,1068.4800000000105,1068.4800000000105,1066.7200000000012,1068.4800000000105,1.0,0.0,0.0,,Click Response,2_count,5.0,object-49,temp_dist_trial,40.0,t_s_07_1,travel_shared,phone charger cable,8.0,competing,paired,t_s_07_1.jpg,Travel,,,sub-52
Desktop or Laptop,Windows 10,Firefox 140.0,1920x1080,1920x1080,Temporal Distance Task,cb_08,40.0,temp_dist_trial,dist_items,qkpkxw,2.0,info,,6.0599999999976735,0.0,6.0599999999976735,6.0599999999976735,0.0,6.0599999999976735,1.0,0.0,0.0,,Slider,Slider,4.0,object-56,temp_dist_trial,40.0,t_s_07_1,travel_shared,phone charger cable,8.0,competing,paired,t_s_07_1.jpg,Travel,,,sub-52
Desktop or Laptop,Windows 10,Firefox 140.0,1920x1080,1920x1080,Temporal Distance Task,cb_08,40.0,temp_dist_trial,dist_items,qkpkxw,2.0,continue,,1469.2600000000089,1466.7600000000089,1469.2600000000089,1469.2600000000089,1466.7600000000089,1469.2600000000089,1.0,0.0,0.0,,Click To Continue,Next button,7.0,object-60,temp_dist_trial,40.0,t_s_07_1,travel_shared,phone charger cable,8.0,competing,paired,t_s_07_1.jpg,Travel,,,sub-52
Desktop or Laptop,Windows 10,Firefox 140.0,1920x1080,1920x1080,Temporal Distance Task,cb_08,40.0,temp_dist_trial,dist_items,qkpkxw,2.0,response,65,642.460000000021,1466.7600000000089,1470.2600000000089,642.460000000021,1466.7600000000089,1470.2600000000089,1.0,827.7999999999884,0.0,,Slider,Slider,4.0,object-56,temp_dist_trial,40.0,t_s_07_1,travel_shared,phone charger cable,8.0,competing,paired,t_s_07_1.jpg,Travel,,,sub-52
Desktop or Laptop,Windows 10,Firefox 140.0,1920x1080,1920x1080,Temporal Distance Task,cb_08,41.0,temp_dist_trial,num_items,zn7si1,1.0,response,2_ITEM,1867.5,1866.7799999999988,1867.5,1867.5,1866.7799999999988,1867.5,1.0,0.0,0.0,,Click Response,2_count,5.0,object-49,temp_dist_trial,41.0,t_m_07_1,travel_Miami,sunglasses,8.0,unique,paired,t_m_07_1.jpg,Travel,,,sub-52
Desktop or Laptop,Windows 10,Firefox 140.0,1920x1080,1920x1080,Temporal Distance Task,cb_08,41.0,temp_dist_trial,dist_items,qkpkxw,2.0,info,,6.0599999999976735,0.0,6.0599999999976735,6.0599999999976735,0.0,6.0599999999976735,1.0,0.0,0.0,,Slider,Slider,4.0,object-56,temp_dist_trial,41.0,t_m_07_1,travel_Miami,sunglasses,8.0,unique,paired,t_m_07_1.jpg,Travel,,,sub-52
Desktop or Laptop,Windows 10,Firefox 140.0,1920x1080,1920x1080,Temporal Distance Task,cb_08,41.0,temp_dist_trial,dist_items,qkpkxw,2.0,continue,,1813.2200000000007,1812.2399999999911,1813.2200000000007,1813.2200000000007,1812.2399999999911,1813.2200000000007,1.0,0.0,0.0,,Click To Continue,Next button,7.0,object-60,temp_dist_trial,41.0,t_m_07_1,travel_Miami,sunglasses,8.0,unique,paired,t_m_07_1.jpg,Travel,,,sub-52
Desktop or Laptop,Windows 10,Firefox 140.0,1920x1080,1920x1080,Temporal Distance Task,cb_08,41.0,temp_dist_trial,dist_items,qkpkxw,2.0,response,38,654.5799999999873,1812.2399999999911,1813.2200000000007,654.5799999999873,1812.2399999999911,1813.2200000000007,1.0,1158.640000000014,0.0,,Slider,Slider,4.0,object-56,temp_dist_trial,41.0,t_m_07_1,travel_Miami,sunglasses,8.0,unique,paired,t_m_07_1.jpg,Travel,,,sub-52
Desktop or Laptop,Windows 10,Firefox 140.0,1920x1080,1920x1080,Temporal Distance Task,cb_08,42.0,temp_dist_trial,num_items,zn7si1,1.0,response,1_ITEM,1584.9800000000105,1581.9000000000233,1584.9800000000105,1584.9800000000105,1581.9000000000233,1584.9800000000105,1.0,0.0,0.0,,Click Response,1_count,3.0,object-46,temp_dist_trial,42.0,t_i_11_1,travel_Iceland,headlamp,8.0,unique,paired,t_i_11_1.jpg,Travel,,,sub-52
Desktop or Laptop,Windows 10,Firefox 140.0,1920x1080,1920x1080,Temporal Distance Task,cb_08,43.0,temp_dist_trial,num_items,zn7si1,1.0,response,1_ITEM,940.5799999999872,939.4599999999921,940.5799999999872,940.5799999999872,939.4599999999921,940.5799999999872,1.0,0.0,0.0,,Click Response,1_count,3.0,object-46,temp_dist_trial,43.0,t_i_18_1,travel_Iceland,ski mask,8.0,unique,paired,t_i_18_1.jpg,Travel,,,sub-52
Desktop or Laptop,Windows 10,Firefox 140.0,1920x1080,1920x1080,Temporal Distance Task,cb_08,44.0,temp_dist_trial,num_items,zn7si1,1.0,response,1_ITEM,1000.0599999999976,994.0,1000.0599999999976,1000.0599999999976,994.0,1000.0599999999976,1.0,0.0,0.0,,Click Response,1_count,3.0,object-46,temp_dist_trial,44.0,t_s_18_1,travel_shared,first aid kit,8.0,competing,paired,t_s_18_1.jpg,Travel,,,sub-52
Desktop or Laptop,Windows 10,Firefox 140.0,1920x1080,1920x1080,Temporal Distance Task,cb_08,45.0,temp_dist_trial,num_items,zn7si1,1.0,response,2_ITEM,1277.1199999999953,1272.7999999999886,1277.1199999999953,1277.1199999999953,1272.7999999999886,1277.1199999999953,1.0,0.0,0.0,,Click Response,2_count,5.0,object-49,temp_dist_trial,45.0,t_s_11_1,travel_shared,eye mask,8.0,competing,paired,t_s_11_1.jpg,Travel,,,sub-52
Desktop or Laptop,Windows 10,Firefox 140.0,1920x1080,1920x1080,Temporal Distance Task,cb_08,45.0,temp_dist_trial,dist_items,qkpkxw,2.0,info,,2.820000000006985,0.0,2.820000000006985,2.820000000006985,0.0,2.820000000006985,1.0,0.0,0.0,,Slider,Slider,4.0,object-56,temp_dist_trial,45.0,t_s_11_1,travel_shared,eye mask,8.0,competing,paired,t_s_11_1.jpg,Travel,,,sub-52
Desktop or Laptop,Windows 10,Firefox 140.0,1920x1080,1920x1080,Temporal Distance Task,cb_08,45.0,temp_dist_trial,dist_items,qkpkxw,2.0,continue,,3537.8200000000065,3533.540000000008,3537.8200000000065,3537.8200000000065,3533.540000000008,3537.8200000000065,1.0,0.0,0.0,,Click To Continue,Next button,7.0,object-60,temp_dist_trial,45.0,t_s_11_1,travel_shared,eye mask,8.0,competing,paired,t_s_11_1.jpg,Travel,,,sub-52
Desktop or Laptop,Windows 10,Firefox 140.0,1920x1080,1920x1080,Temporal Distance Task,cb_08,45.0,temp_dist_trial,dist_items,qkpkxw,2.0,response,26,763.679999999993,3533.540000000008,3539.6000000000067,763.679999999993,3533.540000000008,3539.6000000000067,1.0,2775.920000000013,0.0,,Slider,Slider,4.0,object-56,temp_dist_trial,45.0,t_s_11_1,travel_shared,eye mask,8.0,competing,paired,t_s_11_1.jpg,Travel,,,sub-52
Desktop or Laptop,Windows 10,Firefox 140.0,1920x1080,1920x1080,Temporal Distance Task,cb_08,46.0,temp_dist_trial,num_items,zn7si1,1.0,response,2_ITEM,1090.9400000000023,1084.8800000000047,1090.9400000000023,1090.9400000000023,1084.8800000000047,1090.9400000000023,1.0,0.0,0.0,,Click Response,2_count,5.0,object-49,temp_dist_trial,46.0,t_m_11_1,travel_Miami,collapsible beach chair,8.0,unique,paired,t_m_11_1.jpg,Travel,,,sub-52
Desktop or Laptop,Windows 10,Firefox 140.0,1920x1080,1920x1080,Temporal Distance Task,cb_08,46.0,temp_dist_trial,dist_items,qkpkxw,2.0,info,,6.0599999999976735,0.0,6.0599999999976735,6.0599999999976735,0.0,6.0599999999976735,1.0,0.0,0.0,,Slider,Slider,4.0,object-56,temp_dist_trial,46.0,t_m_11_1,travel_Miami,collapsible beach chair,8.0,unique,paired,t_m_11_1.jpg,Travel,,,sub-52
Desktop or Laptop,Windows 10,Firefox 140.0,1920x1080,1920x1080,Temporal Distance Task,cb_08,46.0,temp_dist_trial,dist_items,qkpkxw,2.0,continue,,2285.0,2278.9400000000023,2285.0,2285.0,2278.9400000000023,2285.0,1.0,0.0,0.0,,Click To Continue,Next button,7.0,object-60,temp_dist_trial,46.0,t_m_11_1,travel_Miami,collapsible beach chair,8.0,unique,paired,t_m_11_1.jpg,Travel,,,sub-52
Desktop or Laptop,Windows 10,Firefox 140.0,1920x1080,1920x1080,Temporal Distance Task,cb_08,46.0,temp_dist_trial,dist_items,qkpkxw,2.0,response,64,951.5799999999872,2278.9400000000023,2285.0,951.5799999999872,2278.9400000000023,2285.0,1.0,1333.4200000000128,0.0,,Slider,Slider,4.0,object-56,temp_dist_trial,46.0,t_m_11_1,travel_Miami,collapsible beach chair,8.0,unique,paired,t_m_11_1.jpg,Travel,,,sub-52
Desktop or Laptop,Windows 10,Firefox 140.0,1920x1080,1920x1080,Temporal Distance Task,cb_08,47.0,temp_dist_trial,num_items,zn7si1,1.0,response,1_ITEM,869.9599999999921,866.7200000000012,869.9599999999921,869.9599999999921,866.7200000000012,869.9599999999921,1.0,0.0,0.0,,Click Response,1_count,3.0,object-46,temp_dist_trial,47.0,t_s_09_1,travel_shared,wallet,8.0,competing,single,t_s_09_1.jpg,Travel,,,sub-52
Desktop or Laptop,Windows 10,Firefox 140.0,1920x1080,1920x1080,Temporal Distance Task,cb_08,48.0,temp_dist_trial,num_items,zn7si1,1.0,response,num_miss,3000.1799999999935,3000.1799999999935,3000.1799999999935,3000.1799999999935,3000.1799999999935,3000.1799999999935,1.0,0.0,0.0,num_miss_tag,Time Limit,screen,0.0,screen,temp_dist_trial,48.0,t_s_06_1,travel_shared,luggage,8.0,competing,single,t_s_06_1.jpg,Travel,,,sub-52
Desktop or Laptop,Windows 10,Firefox 140.0,1920x1080,1920x1080,Temporal Distance Task,cb_08,2.0,temp_eventStart,Screen 1,dgtyxe,1.0,continue,,2974.119999999996,2969.859999999986,2974.119999999996,2974.119999999996,2969.859999999986,2974.119999999996,1.0,0.0,0.0,,Click To Continue,Next Button,3.0,object-43,temp_eventStart,,,Student,,,,,,,,,sub-52
Desktop or Laptop,Windows 10,Firefox 140.0,1920x1080,1920x1080,Temporal Distance Task,cb_08,49.0,temp_dist_trial,num_items,zn7si1,1.0,response,1_ITEM,2363.7799999999993,2357.7200000000007,2363.7799999999993,2363.7799999999993,2357.7200000000007,2363.7799999999993,1.0,0.0,0.0,,Click Response,1_count,3.0,object-46,temp_dist_trial,1.0,s_sh_11_1,student_shared,pencil case,8.0,competing,single,s_sh_11_1.jpg,Student,,,sub-52
Desktop or Laptop,Windows 10,Firefox 140.0,1920x1080,1920x1080,Temporal Distance Task,cb_08,50.0,temp_dist_trial,num_items,zn7si1,1.0,response,1_ITEM,1051.040000000008,1048.5599999999977,1051.040000000008,1051.040000000008,1048.5599999999977,1051.040000000008,1.0,0.0,0.0,,Click Response,1_count,3.0,object-46,temp_dist_trial,2.0,s_a_14_1,student_art,guitar pick,8.0,unique,paired,s_a_14_1.jpg,Student,,,sub-52
Desktop or Laptop,Windows 10,Firefox 140.0,1920x1080,1920x1080,Temporal Distance Task,cb_08,51.0,temp_dist_trial,num_items,zn7si1,1.0,response,2_ITEM,1288.9800000000105,1284.9200000000128,1288.9800000000105,1288.9800000000105,1284.9200000000128,1288.9800000000105,1.0,0.0,0.0,,Click Response,2_count,5.0,object-49,temp_dist_trial,3.0,s_sh_06_1,student_shared,clipboard,8.0,competing,single,s_sh_06_1.jpg,Student,,,sub-52
Desktop or Laptop,Windows 10,Firefox 140.0,1920x1080,1920x1080,Temporal Distance Task,cb_08,51.0,temp_dist_trial,dist_items,qkpkxw,2.0,info,,6.0599999999976735,0.0,6.0599999999976735,6.0599999999976735,0.0,6.0599999999976735,1.0,0.0,0.0,,Slider,Slider,4.0,object-56,temp_dist_trial,3.0,s_sh_06_1,student_shared,clipboard,8.0,competing,single,s_sh_06_1.jpg,Student,,,sub-52
Desktop or Laptop,Windows 10,Firefox 140.0,1920x1080,1920x1080,Temporal Distance Task,cb_08,51.0,temp_dist_trial,dist_items,qkpkxw,2.0,continue,,1596.5599999999977,1594.0199999999895,1596.5599999999977,1596.5599999999977,1594.0199999999895,1596.5599999999977,1.0,0.0,0.0,,Click To Continue,Next button,7.0,object-60,temp_dist_trial,3.0,s_sh_06_1,student_shared,clipboard,8.0,competing,single,s_sh_06_1.jpg,Student,,,sub-52
Desktop or Laptop,Windows 10,Firefox 140.0,1920x1080,1920x1080,Temporal Distance Task,cb_08,51.0,temp_dist_trial,dist_items,qkpkxw,2.0,response,63,751.5599999999977,1594.0199999999895,1596.5599999999977,751.5599999999977,1594.0199999999895,1596.5599999999977,1.0,845.0,0.0,,Slider,Slider,4.0,object-56,temp_dist_trial,3.0,s_sh_06_1,student_shared,clipboard,8.0,competing,single,s_sh_06_1.jpg,Student,,,sub-52
Desktop or Laptop,Windows 10,Firefox 140.0,1920x1080,1920x1080,Temporal Distance Task,cb_08,52.0,temp_dist_trial,num_items,zn7si1,1.0,response,2_ITEM,1001.5400000000079,1000.0599999999976,1001.5400000000079,1001.5400000000079,1000.0599999999976,1001.5400000000079,1.0,0.0,0.0,,Click Response,2_count,5.0,object-49,temp_dist_trial,4.0,s_sh_16_1,student_shared,stapler,8.0,competing,paired,s_sh_16_1.jpg,Student,,,sub-52
Desktop or Laptop,Windows 10,Firefox 140.0,1920x1080,1920x1080,Temporal Distance Task,cb_08,52.0,temp_dist_trial,dist_items,qkpkxw,2.0,info,,6.0599999999976735,0.0,6.0599999999976735,6.0599999999976735,0.0,6.0599999999976735,1.0,0.0,0.0,,Slider,Slider,4.0,object-56,temp_dist_trial,4.0,s_sh_16_1,student_shared,stapler,8.0,competing,paired,s_sh_16_1.jpg,Student,,,sub-52
Desktop or Laptop,Windows 10,Firefox 140.0,1920x1080,1920x1080,Temporal Distance Task,cb_08,52.0,temp_dist_trial,dist_items,qkpkxw,2.0,continue,,3308.9800000000105,3303.2400000000202,3308.9800000000105,3308.9800000000105,3303.2400000000202,3308.9800000000105,1.0,0.0,0.0,,Click To Continue,Next button,7.0,object-60,temp_dist_trial,4.0,s_sh_16_1,student_shared,stapler,8.0,competing,paired,s_sh_16_1.jpg,Student,,,sub-52
Desktop or Laptop,Windows 10,Firefox 140.0,1920x1080,1920x1080,Temporal Distance Task,cb_08,52.0,temp_dist_trial,dist_items,qkpkxw,2.0,response,15,703.0800000000162,3303.2400000000202,3309.300000000017,703.0800000000162,3303.2400000000202,3309.300000000017,1.0,2606.2200000000007,0.0,,Slider,Slider,4.0,object-56,temp_dist_trial,4.0,s_sh_16_1,student_shared,stapler,8.0,competing,paired,s_sh_16_1.jpg,Student,,,sub-52
Desktop or Laptop,Windows 10,Firefox 140.0,1920x1080,1920x1080,Temporal Distance Task,cb_08,53.0,temp_dist_trial,num_items,zn7si1,1.0,response,1_ITEM,932.7399999999907,927.319999999978,932.7399999999907,932.7399999999907,927.319999999978,932.7399999999907,1.0,0.0,0.0,,Click Response,1_count,3.0,object-46,temp_dist_trial,5.0,s_a_12_1,student_art,saxophone,8.0,unique,paired,s_a_12_1.jpg,Student,,,sub-52
Desktop or Laptop,Windows 10,Firefox 140.0,1920x1080,1920x1080,Temporal Distance Task,cb_08,54.0,temp_dist_trial,num_items,zn7si1,1.0,response,1_ITEM,1902.9200000000128,1897.0800000000165,1902.9200000000128,1902.9200000000128,1897.0800000000165,1902.9200000000128,1.0,0.0,0.0,,Click Response,1_count,3.0,object-46,temp_dist_trial,6.0,s_a_03_1,student_art,palette,8.0,unique,single,s_a_03_1.jpg,Student,,,sub-52
Desktop or Laptop,Windows 10,Firefox 140.0,1920x1080,1920x1080,Temporal Distance Task,cb_08,55.0,temp_dist_trial,num_items,zn7si1,1.0,response,2_ITEM,2046.3399999999967,2042.5599999999977,2046.3399999999967,2046.3399999999967,2042.5599999999977,2046.3399999999967,1.0,0.0,0.0,,Click Response,2_count,5.0,object-49,temp_dist_trial,7.0,s_s_08_1,student_stem,soldering iron,8.0,unique,paired,s_s_08_1.jpg,Student,,,sub-52
Desktop or Laptop,Windows 10,Firefox 140.0,1920x1080,1920x1080,Temporal Distance Task,cb_08,55.0,temp_dist_trial,dist_items,qkpkxw,2.0,info,,6.0599999999976735,0.0,6.0599999999976735,6.0599999999976735,0.0,6.0599999999976735,1.0,0.0,0.0,,Slider,Slider,4.0,object-56,temp_dist_trial,7.0,s_s_08_1,student_stem,soldering iron,8.0,unique,paired,s_s_08_1.jpg,Student,,,sub-52
Desktop or Laptop,Windows 10,Firefox 140.0,1920x1080,1920x1080,Temporal Distance Task,cb_08,55.0,temp_dist_trial,dist_items,qkpkxw,2.0,continue,,1951.6000000000056,1945.540000000008,1951.6000000000056,1951.6000000000056,1945.540000000008,1951.6000000000056,1.0,0.0,0.0,,Click To Continue,Next button,7.0,object-60,temp_dist_trial,7.0,s_s_08_1,student_stem,soldering iron,8.0,unique,paired,s_s_08_1.jpg,Student,,,sub-52
Desktop or Laptop,Windows 10,Firefox 140.0,1920x1080,1920x1080,Temporal Distance Task,cb_08,55.0,temp_dist_trial,dist_items,qkpkxw,2.0,response,35,830.320000000007,1945.540000000008,1951.6000000000056,830.320000000007,1945.540000000008,1951.6000000000056,1.0,1121.2799999999988,0.0,,Slider,Slider,4.0,object-56,temp_dist_trial,7.0,s_s_08_1,student_stem,soldering iron,8.0,unique,paired,s_s_08_1.jpg,Student,,,sub-52
Desktop or Laptop,Windows 10,Firefox 140.0,1920x1080,1920x1080,Temporal Distance Task,cb_08,56.0,temp_dist_trial,num_items,zn7si1,1.0,response,1_ITEM,1390.7399999999911,1387.9799999999814,1390.7399999999911,1390.7399999999911,1387.9799999999814,1390.7399999999911,1.0,0.0,0.0,,Click Response,1_count,3.0,object-46,temp_dist_trial,8.0,s_s_03_1,student_stem,petri dish,8.0,unique,single,s_s_03_1.jpg,Student,,,sub-52
Desktop or Laptop,Windows 10,Firefox 140.0,1920x1080,1920x1080,Temporal Distance Task,cb_08,57.0,temp_dist_trial,num_items,zn7si1,1.0,response,1_ITEM,1138.2600000000093,1133.4000000000233,1138.2600000000093,1138.2600000000093,1133.4000000000233,1138.2600000000093,1.0,0.0,0.0,,Click Response,1_count,3.0,object-46,temp_dist_trial,9.0,s_sh_14_1,student_shared,printer,8.0,competing,single,s_sh_14_1.jpg,Student,,,sub-52
Desktop or Laptop,Windows 10,Firefox 140.0,1920x1080,1920x1080,Temporal Distance Task,cb_08,58.0,temp_dist_trial,num_items,zn7si1,1.0,response,2_ITEM,1521.2999999999884,1515.2399999999911,1521.2999999999884,1521.2999999999884,1515.2399999999911,1521.2999999999884,1.0,0.0,0.0,,Click Response,2_count,5.0,object-49,temp_dist_trial,10.0,s_sh_02_1,student_shared,eraser,8.0,competing,paired,s_sh_02_1.jpg,Student,,,sub-52
Desktop or Laptop,Windows 10,Firefox 140.0,1920x1080,1920x1080,Temporal Distance Task,cb_08,58.0,temp_dist_trial,dist_items,qkpkxw,2.0,info,,6.0599999999976735,0.0,6.0599999999976735,6.0599999999976735,0.0,6.0599999999976735,1.0,0.0,0.0,,Slider,Slider,4.0,object-56,temp_dist_trial,10.0,s_sh_02_1,student_shared,eraser,8.0,competing,paired,s_sh_02_1.jpg,Student,,,sub-52
Desktop or Laptop,Windows 10,Firefox 140.0,1920x1080,1920x1080,Temporal Distance Task,cb_08,58.0,temp_dist_trial,dist_items,qkpkxw,2.0,continue,,2344.6199999999953,2339.540000000008,2344.6199999999953,2344.6199999999953,2339.540000000008,2344.6199999999953,1.0,0.0,0.0,,Click To Continue,Next button,7.0,object-60,temp_dist_trial,10.0,s_sh_02_1,student_shared,eraser,8.0,competing,paired,s_sh_02_1.jpg,Student,,,sub-52
Desktop or Laptop,Windows 10,Firefox 140.0,1920x1080,1920x1080,Temporal Distance Task,cb_08,58.0,temp_dist_trial,dist_items,qkpkxw,2.0,response,39,921.2799999999988,2339.540000000008,2345.600000000035,921.2799999999988,2339.540000000008,2345.600000000035,1.0,1424.320000000036,0.0,,Slider,Slider,4.0,object-56,temp_dist_trial,10.0,s_sh_02_1,student_shared,eraser,8.0,competing,paired,s_sh_02_1.jpg,Student,,,sub-52
Desktop or Laptop,Windows 10,Firefox 140.0,1920x1080,1920x1080,Temporal Distance Task,cb_08,59.0,temp_dist_trial,num_items,zn7si1,1.0,response,2_ITEM,1122.0799999999872,1121.2599999999802,1122.0799999999872,1122.0799999999872,1121.2599999999802,1122.0799999999872,1.0,0.0,0.0,,Click Response,2_count,5.0,object-49,temp_dist_trial,11.0,s_s_19_1,student_stem,circuit board,8.0,unique,paired,s_s_19_1.jpg,Student,,,sub-52
Desktop or Laptop,Windows 10,Firefox 140.0,1920x1080,1920x1080,Temporal Distance Task,cb_08,59.0,temp_dist_trial,dist_items,qkpkxw,2.0,info,,6.0599999999976735,0.0,6.0599999999976735,6.0599999999976735,0.0,6.0599999999976735,1.0,0.0,0.0,,Slider,Slider,4.0,object-56,temp_dist_trial,11.0,s_s_19_1,student_stem,circuit board,8.0,unique,paired,s_s_19_1.jpg,Student,,,sub-52
Desktop or Laptop,Windows 10,Firefox 140.0,1920x1080,1920x1080,Temporal Distance Task,cb_08,59.0,temp_dist_trial,dist_items,qkpkxw,2.0,continue,,2131.320000000007,2127.3800000000047,2131.320000000007,2131.320000000007,2127.3800000000047,2131.320000000007,1.0,0.0,0.0,,Click To Continue,Next button,7.0,object-60,temp_dist_trial,11.0,s_s_19_1,student_stem,circuit board,8.0,unique,paired,s_s_19_1.jpg,Student,,,sub-52
Desktop or Laptop,Windows 10,Firefox 140.0,1920x1080,1920x1080,Temporal Distance Task,cb_08,59.0,temp_dist_trial,dist_items,qkpkxw,2.0,response,34,775.8000000000177,2127.3800000000047,2131.320000000007,775.8000000000177,2127.3800000000047,2131.320000000007,1.0,1355.5199999999895,0.0,,Slider,Slider,4.0,object-56,temp_dist_trial,11.0,s_s_19_1,student_stem,circuit board,8.0,unique,paired,s_s_19_1.jpg,Student,,,sub-52
Desktop or Laptop,Windows 10,Firefox 140.0,1920x1080,1920x1080,Temporal Distance Task,cb_08,60.0,temp_dist_trial,num_items,zn7si1,1.0,response,1_ITEM,1533.9400000000023,1533.4200000000128,1533.9400000000023,1533.9400000000023,1533.4200000000128,1533.9400000000023,1.0,0.0,0.0,,Click Response,1_count,3.0,object-46,temp_dist_trial,12.0,s_s_11_1,student_stem,scientific scale,8.0,unique,paired,s_s_11_1.jpg,Student,,,sub-52
Desktop or Laptop,Windows 10,Firefox 140.0,1920x1080,1920x1080,Temporal Distance Task,cb_08,61.0,temp_dist_trial,num_items,zn7si1,1.0,response,1_ITEM,872.7799999999988,866.7200000000012,872.7799999999988,872.7799999999988,866.7200000000012,872.7799999999988,1.0,0.0,0.0,,Click Response,1_count,3.0,object-46,temp_dist_trial,13.0,s_s_14_1,student_stem,funnel,8.0,unique,single,s_s_14_1.jpg,Student,,,sub-52
Desktop or Laptop,Windows 10,Firefox 140.0,1920x1080,1920x1080,Temporal Distance Task,cb_08,62.0,temp_dist_trial,num_items,zn7si1,1.0,response,1_ITEM,985.7999999999884,981.8799999999756,985.7999999999884,985.7999999999884,981.8799999999756,985.7999999999884,1.0,0.0,0.0,,Click Response,1_count,3.0,object-46,temp_dist_trial,14.0,s_sh_04_1,student_shared,laptop stand,8.0,competing,paired,s_sh_04_1.jpg,Student,,,sub-52
Desktop or Laptop,Windows 10,Firefox 140.0,1920x1080,1920x1080,Temporal Distance Task,cb_08,63.0,temp_dist_trial,num_items,zn7si1,1.0,response,2_ITEM,1155.4200000000128,1151.5800000000165,1155.4200000000128,1155.4200000000128,1151.5800000000165,1155.4200000000128,1.0,0.0,0.0,,Click Response,2_count,5.0,object-49,temp_dist_trial,15.0,s_a_05_1,student_art,clay,8.0,unique,paired,s_a_05_1.jpg,Student,,,sub-52
Desktop or Laptop,Windows 10,Firefox 140.0,1920x1080,1920x1080,Temporal Distance Task,cb_08,63.0,temp_dist_trial,dist_items,qkpkxw,2.0,info,,6.0599999999976735,0.0,6.0599999999976735,6.0599999999976735,0.0,6.0599999999976735,1.0,0.0,0.0,,Slider,Slider,4.0,object-56,temp_dist_trial,15.0,s_a_05_1,student_art,clay,8.0,unique,paired,s_a_05_1.jpg,Student,,,sub-52
Desktop or Laptop,Windows 10,Firefox 140.0,1920x1080,1920x1080,Temporal Distance Task,cb_08,63.0,temp_dist_trial,dist_items,qkpkxw,2.0,continue,,2021.3399999999967,2018.2999999999884,2021.3399999999967,2021.3399999999967,2018.2999999999884,2021.3399999999967,1.0,0.0,0.0,,Click To Continue,Next button,7.0,object-60,temp_dist_trial,15.0,s_a_05_1,student_art,clay,8.0,unique,paired,s_a_05_1.jpg,Student,,,sub-52
Desktop or Laptop,Windows 10,Firefox 140.0,1920x1080,1920x1080,Temporal Distance Task,cb_08,63.0,temp_dist_trial,dist_items,qkpkxw,2.0,response,58,860.6600000000035,2018.2999999999884,2021.3399999999967,860.6600000000035,2018.2999999999884,2021.3399999999967,1.0,1160.679999999993,0.0,,Slider,Slider,4.0,object-56,temp_dist_trial,15.0,s_a_05_1,student_art,clay,8.0,unique,paired,s_a_05_1.jpg,Student,,,sub-52
Desktop or Laptop,Windows 10,Firefox 140.0,1920x1080,1920x1080,Temporal Distance Task,cb_08,64.0,temp_dist_trial,num_items,zn7si1,1.0,response,2_ITEM,1226.040000000008,1224.320000000007,1226.040000000008,1226.040000000008,1224.320000000007,1226.040000000008,1.0,0.0,0.0,,Click Response,2_count,5.0,object-49,temp_dist_trial,16.0,s_sh_05_1,student_shared,laptop,8.0,competing,paired,s_sh_05_1.jpg,Student,,,sub-52
Desktop or Laptop,Windows 10,Firefox 140.0,1920x1080,1920x1080,Temporal Distance Task,cb_08,64.0,temp_dist_trial,dist_items,qkpkxw,2.0,info,,6.0599999999976735,0.0,6.0599999999976735,6.0599999999976735,0.0,6.0599999999976735,1.0,0.0,0.0,,Slider,Slider,4.0,object-56,temp_dist_trial,16.0,s_sh_05_1,student_shared,laptop,8.0,competing,paired,s_sh_05_1.jpg,Student,,,sub-52
Desktop or Laptop,Windows 10,Firefox 140.0,1920x1080,1920x1080,Temporal Distance Task,cb_08,64.0,temp_dist_trial,dist_items,qkpkxw,2.0,continue,,1640.2200000000012,1636.459999999992,1640.2200000000012,1640.2200000000012,1636.459999999992,1640.2200000000012,1.0,0.0,0.0,,Click To Continue,Next button,7.0,object-60,temp_dist_trial,16.0,s_sh_05_1,student_shared,laptop,8.0,competing,paired,s_sh_05_1.jpg,Student,,,sub-52
Desktop or Laptop,Windows 10,Firefox 140.0,1920x1080,1920x1080,Temporal Distance Task,cb_08,64.0,temp_dist_trial,dist_items,qkpkxw,2.0,response,57,787.9200000000128,1636.459999999992,1641.2200000000012,787.9200000000128,1636.459999999992,1641.2200000000012,1.0,853.2999999999884,0.0,,Slider,Slider,4.0,object-56,temp_dist_trial,16.0,s_sh_05_1,student_shared,laptop,8.0,competing,paired,s_sh_05_1.jpg,Student,,,sub-52
Desktop or Laptop,Windows 10,Firefox 140.0,1920x1080,1920x1080,Temporal Distance Task,cb_08,65.0,temp_dist_trial,num_items,zn7si1,1.0,response,1_ITEM,1235.7600000000093,1230.3800000000047,1235.7600000000093,1235.7600000000093,1230.3800000000047,1235.7600000000093,1.0,0.0,0.0,,Click Response,1_count,3.0,object-46,temp_dist_trial,17.0,s_a_06_1,student_art,pastels,8.0,unique,paired,s_a_06_1.jpg,Student,,,sub-52
Desktop or Laptop,Windows 10,Firefox 140.0,1920x1080,1920x1080,Temporal Distance Task,cb_08,66.0,temp_dist_trial,num_items,zn7si1,1.0,response,2_ITEM,1156.8800000000047,1151.5800000000165,1156.8800000000047,1156.8800000000047,1151.5800000000165,1156.8800000000047,1.0,0.0,0.0,,Click Response,2_count,5.0,object-49,temp_dist_trial,18.0,s_sh_07_1,student_shared,ruler,8.0,competing,paired,s_sh_07_1.jpg,Student,,,sub-52
Desktop or Laptop,Windows 10,Firefox 140.0,1920x1080,1920x1080,Temporal Distance Task,cb_08,66.0,temp_dist_trial,dist_items,qkpkxw,2.0,info,,6.0599999999976735,0.0,6.0599999999976735,6.0599999999976735,0.0,6.0599999999976735,1.0,0.0,0.0,,Slider,Slider,4.0,object-56,temp_dist_trial,18.0,s_sh_07_1,student_shared,ruler,8.0,competing,paired,s_sh_07_1.jpg,Student,,,sub-52
Desktop or Laptop,Windows 10,Firefox 140.0,1920x1080,1920x1080,Temporal Distance Task,cb_08,66.0,temp_dist_trial,dist_items,qkpkxw,2.0,continue,,2458.7999999999884,2454.6999999999825,2458.7999999999884,2458.7999999999884,2454.6999999999825,2458.7999999999884,1.0,0.0,0.0,,Click To Continue,Next button,7.0,object-60,temp_dist_trial,18.0,s_sh_07_1,student_shared,ruler,8.0,competing,paired,s_sh_07_1.jpg,Student,,,sub-52
Desktop or Laptop,Windows 10,Firefox 140.0,1920x1080,1920x1080,Temporal Distance Task,cb_08,66.0,temp_dist_trial,dist_items,qkpkxw,2.0,response,46,1739.5,2454.6999999999825,2459.7999999999884,1739.5,2454.6999999999825,2459.7999999999884,1.0,720.2999999999884,0.0,,Slider,Slider,4.0,object-56,temp_dist_trial,18.0,s_sh_07_1,student_shared,ruler,8.0,competing,paired,s_sh_07_1.jpg,Student,,,sub-52
Desktop or Laptop,Windows 10,Firefox 140.0,1920x1080,1920x1080,Temporal Distance Task,cb_08,67.0,temp_dist_trial,num_items,zn7si1,1.0,response,2_ITEM,2700.1000000000063,2697.140000000014,2700.1000000000063,2700.1000000000063,2697.140000000014,2700.1000000000063,1.0,0.0,0.0,,Click Response,2_count,5.0,object-49,temp_dist_trial,19.0,s_sh_21_1,student_shared,file holder,8.0,competing,paired,s_sh_21_1.jpg,Student,,,sub-52
Desktop or Laptop,Windows 10,Firefox 140.0,1920x1080,1920x1080,Temporal Distance Task,cb_08,67.0,temp_dist_trial,dist_items,qkpkxw,2.0,info,,6.0599999999976735,0.0,6.0599999999976735,6.0599999999976735,0.0,6.0599999999976735,1.0,0.0,0.0,,Slider,Slider,4.0,object-56,temp_dist_trial,19.0,s_sh_21_1,student_shared,file holder,8.0,competing,paired,s_sh_21_1.jpg,Student,,,sub-52
Desktop or Laptop,Windows 10,Firefox 140.0,1920x1080,1920x1080,Temporal Distance Task,cb_08,67.0,temp_dist_trial,dist_items,qkpkxw,2.0,continue,,1765.459999999992,1763.7399999999911,1765.459999999992,1765.459999999992,1763.7399999999911,1765.459999999992,1.0,0.0,0.0,,Click To Continue,Next button,7.0,object-60,temp_dist_trial,19.0,s_sh_21_1,student_shared,file holder,8.0,competing,paired,s_sh_21_1.jpg,Student,,,sub-52
Desktop or Laptop,Windows 10,Firefox 140.0,1920x1080,1920x1080,Temporal Distance Task,cb_08,67.0,temp_dist_trial,dist_items,qkpkxw,2.0,response,39,745.5,1763.7399999999911,1765.459999999992,745.5,1763.7399999999911,1765.459999999992,1.0,1019.9599999999921,0.0,,Slider,Slider,4.0,object-56,temp_dist_trial,19.0,s_sh_21_1,student_shared,file holder,8.0,competing,paired,s_sh_21_1.jpg,Student,,,sub-52
Desktop or Laptop,Windows 10,Firefox 140.0,1920x1080,1920x1080,Temporal Distance Task,cb_08,68.0,temp_dist_trial,num_items,zn7si1,1.0,response,1_ITEM,1165.7200000000012,1163.7000000000114,1165.7200000000012,1165.7200000000012,1163.7000000000114,1165.7200000000012,1.0,0.0,0.0,,Click Response,1_count,3.0,object-46,temp_dist_trial,20.0,s_sh_01_1,student_shared,notebook,8.0,competing,paired,s_sh_01_1.jpg,Student,,,sub-52
Desktop or Laptop,Windows 10,Firefox 140.0,1920x1080,1920x1080,Temporal Distance Task,cb_08,69.0,temp_dist_trial,num_items,zn7si1,1.0,response,1_ITEM,1063.540000000008,1060.6600000000037,1063.540000000008,1063.540000000008,1060.6600000000037,1063.540000000008,1.0,0.0,0.0,,Click Response,1_count,3.0,object-46,temp_dist_trial,21.0,s_s_13_1,student_stem,telescope,8.0,unique,single,s_s_13_1.jpg,Student,,,sub-52
Desktop or Laptop,Windows 10,Firefox 140.0,1920x1080,1920x1080,Temporal Distance Task,cb_08,70.0,temp_dist_trial,num_items,zn7si1,1.0,response,2_ITEM,1394.040000000008,1387.9800000000105,1394.040000000008,1394.040000000008,1387.9800000000105,1394.040000000008,1.0,0.0,0.0,,Click Response,2_count,5.0,object-49,temp_dist_trial,22.0,s_sh_19_1,student_shared,portable plastic drawer,8.0,competing,paired,s_sh_19_1.jpg,Student,,,sub-52
Desktop or Laptop,Windows 10,Firefox 140.0,1920x1080,1920x1080,Temporal Distance Task,cb_08,70.0,temp_dist_trial,dist_items,qkpkxw,2.0,info,,6.0599999999976735,0.0,6.0599999999976735,6.0599999999976735,0.0,6.0599999999976735,1.0,0.0,0.0,,Slider,Slider,4.0,object-56,temp_dist_trial,22.0,s_sh_19_1,student_shared,portable plastic drawer,8.0,competing,paired,s_sh_19_1.jpg,Student,,,sub-52
Desktop or Laptop,Windows 10,Firefox 140.0,1920x1080,1920x1080,Temporal Distance Task,cb_08,70.0,temp_dist_trial,dist_items,qkpkxw,2.0,continue,,2098.8999999999937,2097.0799999999867,2098.8999999999937,2098.8999999999937,2097.0799999999867,2098.8999999999937,1.0,0.0,0.0,,Click To Continue,Next button,7.0,object-60,temp_dist_trial,22.0,s_sh_19_1,student_shared,portable plastic drawer,8.0,competing,paired,s_sh_19_1.jpg,Student,,,sub-52
Desktop or Laptop,Windows 10,Firefox 140.0,1920x1080,1920x1080,Temporal Distance Task,cb_08,70.0,temp_dist_trial,dist_items,qkpkxw,2.0,response,38,727.2999999999884,2097.0799999999867,2099.8999999999937,727.2999999999884,2097.0799999999867,2099.8999999999937,1.0,1372.6000000000058,0.0,,Slider,Slider,4.0,object-56,temp_dist_trial,22.0,s_sh_19_1,student_shared,portable plastic drawer,8.0,competing,paired,s_sh_19_1.jpg,Student,,,sub-52
Desktop or Laptop,Windows 10,Firefox 140.0,1920x1080,1920x1080,Temporal Distance Task,cb_08,71.0,temp_dist_trial,num_items,zn7si1,1.0,response,1_ITEM,1785.820000000007,1781.9200000000128,1785.820000000007,1785.820000000007,1781.9200000000128,1785.820000000007,1.0,0.0,0.0,,Click Response,1_count,3.0,object-46,temp_dist_trial,23.0,s_sh_10_1,student_shared,scissors,8.0,competing,single,s_sh_10_1.jpg,Student,,,sub-52
Desktop or Laptop,Windows 10,Firefox 140.0,1920x1080,1920x1080,Temporal Distance Task,cb_08,72.0,temp_dist_trial,num_items,zn7si1,1.0,response,1_ITEM,968.3999999999942,963.6999999999823,968.3999999999942,968.3999999999942,963.6999999999823,968.3999999999942,1.0,0.0,0.0,,Click Response,1_count,3.0,object-46,temp_dist_trial,24.0,s_a_09_1,student_art,picture frame,8.0,unique,single,s_a_09_1.jpg,Student,,,sub-52
Desktop or Laptop,Windows 10,Firefox 140.0,1920x1080,1920x1080,Temporal Distance Task,cb_08,73.0,temp_dist_trial,num_items,zn7si1,1.0,response,1_ITEM,751.2000000000116,745.5,751.2000000000116,751.2000000000116,745.5,751.2000000000116,1.0,0.0,0.0,,Click Response,1_count,3.0,object-46,temp_dist_trial,25.0,s_a_13_1,student_art,violin,8.0,unique,single,s_a_13_1.jpg,Student,,,sub-52
Desktop or Laptop,Windows 10,Firefox 140.0,1920x1080,1920x1080,Temporal Distance Task,cb_08,74.0,temp_dist_trial,num_items,zn7si1,1.0,response,1_ITEM,962.2000000000116,957.6400000000141,962.2000000000116,962.2000000000116,957.6400000000141,962.2000000000116,1.0,0.0,0.0,,Click Response,1_count,3.0,object-46,temp_dist_trial,26.0,s_sh_13_1,student_shared,index cards,8.0,competing,single,s_sh_13_1.jpg,Student,,,sub-52
Desktop or Laptop,Windows 10,Firefox 140.0,1920x1080,1920x1080,Temporal Distance Task,cb_08,75.0,temp_dist_trial,num_items,zn7si1,1.0,response,1_ITEM,967.0599999999976,963.7000000000116,967.0599999999976,967.0599999999976,963.7000000000116,967.0599999999976,1.0,0.0,0.0,,Click Response,1_count,3.0,object-46,temp_dist_trial,27.0,s_sh_15_1,student_shared,usb drive,8.0,competing,single,s_sh_15_1.jpg,Student,,,sub-52
Desktop or Laptop,Windows 10,Firefox 140.0,1920x1080,1920x1080,Temporal Distance Task,cb_08,76.0,temp_dist_trial,num_items,zn7si1,1.0,response,2_ITEM,1536.859999999986,1533.3999999999942,1536.859999999986,1536.859999999986,1533.3999999999942,1536.859999999986,1.0,0.0,0.0,,Click Response,2_count,5.0,object-49,temp_dist_trial,28.0,s_sh_12_1,student_shared,binder,8.0,competing,single,s_sh_12_1.jpg,Student,,,sub-52
Desktop or Laptop,Windows 10,Firefox 140.0,1920x1080,1920x1080,Temporal Distance Task,cb_08,76.0,temp_dist_trial,dist_items,qkpkxw,2.0,info,,6.0599999999976735,0.0,6.0599999999976735,6.0599999999976735,0.0,6.0599999999976735,1.0,0.0,0.0,,Slider,Slider,4.0,object-56,temp_dist_trial,28.0,s_sh_12_1,student_shared,binder,8.0,competing,single,s_sh_12_1.jpg,Student,,,sub-52
Desktop or Laptop,Windows 10,Firefox 140.0,1920x1080,1920x1080,Temporal Distance Task,cb_08,76.0,temp_dist_trial,dist_items,qkpkxw,2.0,continue,,1824.959999999992,1824.359999999986,1824.959999999992,1824.959999999992,1824.359999999986,1824.959999999992,1.0,0.0,0.0,,Click To Continue,Next button,7.0,object-60,temp_dist_trial,28.0,s_sh_12_1,student_shared,binder,8.0,competing,single,s_sh_12_1.jpg,Student,,,sub-52
Desktop or Laptop,Windows 10,Firefox 140.0,1920x1080,1920x1080,Temporal Distance Task,cb_08,76.0,temp_dist_trial,dist_items,qkpkxw,2.0,response,42,715.1999999999823,1824.359999999986,1824.959999999992,715.1999999999823,1824.359999999986,1824.959999999992,1.0,1109.7600000000093,0.0,,Slider,Slider,4.0,object-56,temp_dist_trial,28.0,s_sh_12_1,student_shared,binder,8.0,competing,single,s_sh_12_1.jpg,Student,,,sub-52
Desktop or Laptop,Windows 10,Firefox 140.0,1920x1080,1920x1080,Temporal Distance Task,cb_08,77.0,temp_dist_trial,num_items,zn7si1,1.0,response,1_ITEM,1162.6000000000058,1157.640000000014,1162.6000000000058,1162.6000000000058,1157.640000000014,1162.6000000000058,1.0,0.0,0.0,,Click Response,1_count,3.0,object-46,temp_dist_trial,29.0,s_a_15_1,student_art,drum kit,8.0,unique,paired,s_a_15_1.jpg,Student,,,sub-52
Desktop or Laptop,Windows 10,Firefox 140.0,1920x1080,1920x1080,Temporal Distance Task,cb_08,78.0,temp_dist_trial,num_items,zn7si1,1.0,response,2_ITEM,1834.459999999992,1830.4199999999842,1834.459999999992,1834.459999999992,1830.4199999999842,1834.459999999992,1.0,0.0,0.0,,Click Response,2_count,5.0,object-49,temp_dist_trial,30.0,s_s_15_1,student_stem,jumper cables,8.0,unique,paired,s_s_15_1.jpg,Student,,,sub-52
Desktop or Laptop,Windows 10,Firefox 140.0,1920x1080,1920x1080,Temporal Distance Task,cb_08,78.0,temp_dist_trial,dist_items,qkpkxw,2.0,info,,6.0599999999976735,0.0,6.0599999999976735,6.0599999999976735,0.0,6.0599999999976735,1.0,0.0,0.0,,Slider,Slider,4.0,object-56,temp_dist_trial,30.0,s_s_15_1,student_stem,jumper cables,8.0,unique,paired,s_s_15_1.jpg,Student,,,sub-52
Desktop or Laptop,Windows 10,Firefox 140.0,1920x1080,1920x1080,Temporal Distance Task,cb_08,78.0,temp_dist_trial,dist_items,qkpkxw,2.0,continue,,3592.540000000008,3588.0800000000163,3592.540000000008,3592.540000000008,3588.0800000000163,3592.540000000008,1.0,0.0,0.0,,Click To Continue,Next button,7.0,object-60,temp_dist_trial,30.0,s_s_15_1,student_stem,jumper cables,8.0,unique,paired,s_s_15_1.jpg,Student,,,sub-52
Desktop or Laptop,Windows 10,Firefox 140.0,1920x1080,1920x1080,Temporal Distance Task,cb_08,78.0,temp_dist_trial,dist_items,qkpkxw,2.0,response,31,1715.2400000000198,3588.0800000000163,3594.140000000014,1715.2400000000198,3588.0800000000163,3594.140000000014,1.0,1878.8999999999944,0.0,,Slider,Slider,4.0,object-56,temp_dist_trial,30.0,s_s_15_1,student_stem,jumper cables,8.0,unique,paired,s_s_15_1.jpg,Student,,,sub-52
Desktop or Laptop,Windows 10,Firefox 140.0,1920x1080,1920x1080,Temporal Distance Task,cb_08,79.0,temp_dist_trial,num_items,zn7si1,1.0,response,2_ITEM,1060.679999999993,1054.6199999999953,1060.679999999993,1060.679999999993,1054.6199999999953,1060.679999999993,1.0,0.0,0.0,,Click Response,2_count,5.0,object-49,temp_dist_trial,31.0,s_sh_17_1,student_shared,wireless mouse,8.0,competing,paired,s_sh_17_1.jpg,Student,,,sub-52
Desktop or Laptop,Windows 10,Firefox 140.0,1920x1080,1920x1080,Temporal Distance Task,cb_08,79.0,temp_dist_trial,dist_items,qkpkxw,2.0,info,,6.0599999999976735,0.0,6.0599999999976735,6.0599999999976735,0.0,6.0599999999976735,1.0,0.0,0.0,,Slider,Slider,4.0,object-56,temp_dist_trial,31.0,s_sh_17_1,student_shared,wireless mouse,8.0,competing,paired,s_sh_17_1.jpg,Student,,,sub-52
Desktop or Laptop,Windows 10,Firefox 140.0,1920x1080,1920x1080,Temporal Distance Task,cb_08,79.0,temp_dist_trial,dist_items,qkpkxw,2.0,continue,,2405.3399999999965,2400.139999999985,2405.3399999999965,2405.3399999999965,2400.139999999985,2405.3399999999965,1.0,0.0,0.0,,Click To Continue,Next button,7.0,object-60,temp_dist_trial,31.0,s_sh_17_1,student_shared,wireless mouse,8.0,competing,paired,s_sh_17_1.jpg,Student,,,sub-52
Desktop or Laptop,Windows 10,Firefox 140.0,1920x1080,1920x1080,Temporal Distance Task,cb_08,79.0,temp_dist_trial,dist_items,qkpkxw,2.0,response,34,1357.6600000000035,2400.139999999985,2405.3399999999965,1357.6600000000035,2400.139999999985,2405.3399999999965,1.0,1047.679999999993,0.0,,Slider,Slider,4.0,object-56,temp_dist_trial,31.0,s_sh_17_1,student_shared,wireless mouse,8.0,competing,paired,s_sh_17_1.jpg,Student,,,sub-52
Desktop or Laptop,Windows 10,Firefox 140.0,1920x1080,1920x1080,Temporal Distance Task,cb_08,80.0,temp_dist_trial,num_items,zn7si1,1.0,response,1_ITEM,1006.1199999999952,1000.0599999999976,1006.1199999999952,1006.1199999999952,1000.0599999999976,1006.1199999999952,1.0,0.0,0.0,,Click Response,1_count,3.0,object-46,temp_dist_trial,32.0,s_s_10_1,student_stem,3d molecule,8.0,unique,paired,s_s_10_1.jpg,Student,,,sub-52
Desktop or Laptop,Windows 10,Firefox 140.0,1920x1080,1920x1080,Temporal Distance Task,cb_08,81.0,temp_dist_trial,num_items,zn7si1,1.0,response,2_ITEM,996.6400000000141,993.9800000000104,996.6400000000141,996.6400000000141,993.9800000000104,996.6400000000141,1.0,0.0,0.0,,Click Response,2_count,5.0,object-49,temp_dist_trial,33.0,s_sh_08_1,student_shared,post-its,8.0,competing,paired,s_sh_08_1.jpg,Student,,,sub-52
Desktop or Laptop,Windows 10,Firefox 140.0,1920x1080,1920x1080,Temporal Distance Task,cb_08,81.0,temp_dist_trial,dist_items,qkpkxw,2.0,info,,6.0599999999976735,0.0,6.0599999999976735,6.0599999999976735,0.0,6.0599999999976735,1.0,0.0,0.0,,Slider,Slider,4.0,object-56,temp_dist_trial,33.0,s_sh_08_1,student_shared,post-its,8.0,competing,paired,s_sh_08_1.jpg,Student,,,sub-52
Desktop or Laptop,Windows 10,Firefox 140.0,1920x1080,1920x1080,Temporal Distance Task,cb_08,81.0,temp_dist_trial,dist_items,qkpkxw,2.0,continue,,1545.1600000000033,1539.4800000000105,1545.1600000000033,1545.1600000000033,1539.4800000000105,1545.1600000000033,1.0,0.0,0.0,,Click To Continue,Next button,7.0,object-60,temp_dist_trial,33.0,s_sh_08_1,student_shared,post-its,8.0,competing,paired,s_sh_08_1.jpg,Student,,,sub-52
Desktop or Laptop,Windows 10,Firefox 140.0,1920x1080,1920x1080,Temporal Distance Task,cb_08,81.0,temp_dist_trial,dist_items,qkpkxw,2.0,response,60,739.4400000000023,1539.4800000000105,1545.540000000008,739.4400000000023,1539.4800000000105,1545.540000000008,1.0,806.1000000000058,0.0,,Slider,Slider,4.0,object-56,temp_dist_trial,33.0,s_sh_08_1,student_shared,post-its,8.0,competing,paired,s_sh_08_1.jpg,Student,,,sub-52
Desktop or Laptop,Windows 10,Firefox 140.0,1920x1080,1920x1080,Temporal Distance Task,cb_08,82.0,temp_dist_trial,num_items,zn7si1,1.0,response,1_ITEM,1403.679999999993,1400.1000000000058,1403.679999999993,1403.679999999993,1400.1000000000058,1403.679999999993,1.0,0.0,0.0,,Click Response,1_count,3.0,object-46,temp_dist_trial,34.0,s_s_17_1,student_stem,ring stand,8.0,unique,single,s_s_17_1.jpg,Student,,,sub-52
Desktop or Laptop,Windows 10,Firefox 140.0,1920x1080,1920x1080,Temporal Distance Task,cb_08,83.0,temp_dist_trial,num_items,zn7si1,1.0,response,1_ITEM,2242.0799999999867,2236.4800000000105,2242.0799999999867,2242.0799999999867,2236.4800000000105,2242.0799999999867,1.0,0.0,0.0,,Click Response,1_count,3.0,object-46,temp_dist_trial,35.0,s_s_06_1,student_stem,calculator,8.0,unique,paired,s_s_06_1.jpg,Student,,,sub-52
Desktop or Laptop,Windows 10,Firefox 140.0,1920x1080,1920x1080,Temporal Distance Task,cb_08,84.0,temp_dist_trial,num_items,zn7si1,1.0,response,1_ITEM,2212.2599999999507,2206.1999999999534,2212.2599999999507,2212.2599999999507,2206.1999999999534,2212.2599999999507,1.0,0.0,0.0,,Click Response,1_count,3.0,object-46,temp_dist_trial,36.0,s_s_20_1,student_stem,dna model,8.0,unique,paired,s_s_20_1.jpg,Student,,,sub-52
Desktop or Laptop,Windows 10,Firefox 140.0,1920x1080,1920x1080,Temporal Distance Task,cb_08,85.0,temp_dist_trial,num_items,zn7si1,1.0,response,1_ITEM,1426.4000000000233,1424.320000000007,1426.4000000000233,1426.4000000000233,1424.320000000007,1426.4000000000233,1.0,0.0,0.0,,Click Response,1_count,3.0,object-46,temp_dist_trial,37.0,s_sh_09_1,student_shared,paper clips,8.0,competing,paired,s_sh_09_1.jpg,Student,,,sub-52
Desktop or Laptop,Windows 10,Firefox 140.0,1920x1080,1920x1080,Temporal Distance Task,cb_08,86.0,temp_dist_trial,num_items,zn7si1,1.0,response,1_ITEM,1280.5800000000165,1278.8800000000047,1280.5800000000165,1280.5800000000165,1278.8800000000047,1280.5800000000165,1.0,0.0,0.0,,Click Response,1_count,3.0,object-46,temp_dist_trial,38.0,s_a_01_1,student_art,paintbrush,8.0,unique,paired,s_a_01_1.jpg,Student,,,sub-52
Desktop or Laptop,Windows 10,Firefox 140.0,1920x1080,1920x1080,Temporal Distance Task,cb_08,87.0,temp_dist_trial,num_items,zn7si1,1.0,response,1_ITEM,769.7399999999907,763.679999999993,769.7399999999907,769.7399999999907,763.679999999993,769.7399999999907,1.0,0.0,0.0,,Click Response,1_count,3.0,object-46,temp_dist_trial,39.0,s_s_16_1,student_stem,toolbox,8.0,unique,paired,s_s_16_1.jpg,Student,,,sub-52
Desktop or Laptop,Windows 10,Firefox 140.0,1920x1080,1920x1080,Temporal Distance Task,cb_08,88.0,temp_dist_trial,num_items,zn7si1,1.0,response,2_ITEM,1334.0200000000184,1333.4000000000233,1334.0200000000184,1334.0200000000184,1333.4000000000233,1334.0200000000184,1.0,0.0,0.0,,Click Response,2_count,5.0,object-49,temp_dist_trial,40.0,s_a_18_1,student_art,tutu,8.0,unique,paired,s_a_18_1.jpg,Student,,,sub-52
Desktop or Laptop,Windows 10,Firefox 140.0,1920x1080,1920x1080,Temporal Distance Task,cb_08,88.0,temp_dist_trial,dist_items,qkpkxw,2.0,info,,3.1199999999953434,0.0,3.1199999999953434,3.1199999999953434,0.0,3.1199999999953434,1.0,0.0,0.0,,Slider,Slider,4.0,object-56,temp_dist_trial,40.0,s_a_18_1,student_art,tutu,8.0,unique,paired,s_a_18_1.jpg,Student,,,sub-52
Desktop or Laptop,Windows 10,Firefox 140.0,1920x1080,1920x1080,Temporal Distance Task,cb_08,88.0,temp_dist_trial,dist_items,qkpkxw,2.0,continue,,2207.1199999999953,2206.200000000012,2207.1199999999953,2207.1199999999953,2206.200000000012,2207.1199999999953,1.0,0.0,0.0,,Click To Continue,Next button,7.0,object-60,temp_dist_trial,40.0,s_a_18_1,student_art,tutu,8.0,unique,paired,s_a_18_1.jpg,Student,,,sub-52
Desktop or Laptop,Windows 10,Firefox 140.0,1920x1080,1920x1080,Temporal Distance Task,cb_08,88.0,temp_dist_trial,dist_items,qkpkxw,2.0,response,43,654.5999999999767,2206.200000000012,2208.1199999999953,654.5999999999767,2206.200000000012,2208.1199999999953,1.0,1553.5200000000186,0.0,,Slider,Slider,4.0,object-56,temp_dist_trial,40.0,s_a_18_1,student_art,tutu,8.0,unique,paired,s_a_18_1.jpg,Student,,,sub-52
Desktop or Laptop,Windows 10,Firefox 140.0,1920x1080,1920x1080,Temporal Distance Task,cb_08,89.0,temp_dist_trial,num_items,zn7si1,1.0,response,1_ITEM,1369.7799999999695,1363.7199999999718,1369.7799999999695,1369.7799999999695,1363.7199999999718,1369.7799999999695,1.0,0.0,0.0,,Click Response,1_count,3.0,object-46,temp_dist_trial,41.0,s_sh_18_1,student_shared,wall calendar,8.0,competing,paired,s_sh_18_1.jpg,Student,,,sub-52
Desktop or Laptop,Windows 10,Firefox 140.0,1920x1080,1920x1080,Temporal Distance Task,cb_08,90.0,temp_dist_trial,num_items,zn7si1,1.0,response,1_ITEM,748.7000000000116,745.5,748.7000000000116,748.7000000000116,745.5,748.7000000000116,1.0,0.0,0.0,,Click Response,1_count,3.0,object-46,temp_dist_trial,42.0,s_a_08_1,student_art,sewing machine,8.0,unique,single,s_a_08_1.jpg,Student,,,sub-52
Desktop or Laptop,Windows 10,Firefox 140.0,1920x1080,1920x1080,Temporal Distance Task,cb_08,91.0,temp_dist_trial,num_items,zn7si1,1.0,response,1_ITEM,734.7000000000116,733.3800000000048,734.7000000000116,734.7000000000116,733.3800000000048,734.7000000000116,1.0,0.0,0.0,,Click Response,1_count,3.0,object-46,temp_dist_trial,43.0,s_sh_23_1,student_shared,ballpoint pen,8.0,competing,paired,s_sh_23_1.jpg,Student,,,sub-52
Desktop or Laptop,Windows 10,Firefox 140.0,1920x1080,1920x1080,Temporal Distance Task,cb_08,92.0,temp_dist_trial,num_items,zn7si1,1.0,response,1_ITEM,935.820000000007,933.3800000000048,935.820000000007,935.820000000007,933.3800000000048,935.820000000007,1.0,0.0,0.0,,Click Response,1_count,3.0,object-46,temp_dist_trial,44.0,s_sh_03_1,student_shared,highlighter,8.0,competing,paired,s_sh_03_1.jpg,Student,,,sub-52
Desktop or Laptop,Windows 10,Firefox 140.0,1920x1080,1920x1080,Temporal Distance Task,cb_08,93.0,temp_dist_trial,num_items,zn7si1,1.0,response,1_ITEM,756.9400000000023,751.5599999999977,756.9400000000023,756.9400000000023,751.5599999999977,756.9400000000023,1.0,0.0,0.0,,Click Response,1_count,3.0,object-46,temp_dist_trial,45.0,s_a_07_1,student_art,yarn,8.0,unique,paired,s_a_07_1.jpg,Student,,,sub-52
Desktop or Laptop,Windows 10,Firefox 140.0,1920x1080,1920x1080,Temporal Distance Task,cb_08,94.0,temp_dist_trial,num_items,zn7si1,1.0,response,1_ITEM,836.4199999999838,830.3599999999858,836.4199999999838,836.4199999999838,830.3599999999858,836.4199999999838,1.0,0.0,0.0,,Click Response,1_count,3.0,object-46,temp_dist_trial,46.0,s_sh_22_1,student_shared,hole puncher,8.0,competing,paired,s_sh_22_1.jpg,Student,,,sub-52
Desktop or Laptop,Windows 10,Firefox 140.0,1920x1080,1920x1080,Temporal Distance Task,cb_08,95.0,temp_dist_trial,num_items,zn7si1,1.0,response,1_ITEM,1651.0200000000186,1648.5800000000165,1651.0200000000186,1651.0200000000186,1648.5800000000165,1651.0200000000186,1.0,0.0,0.0,,Click Response,1_count,3.0,object-46,temp_dist_trial,47.0,s_sh_24_1,student_shared,desk organizer,8.0,competing,single,s_sh_24_1.jpg,Student,,,sub-52
Desktop or Laptop,Windows 10,Firefox 140.0,1920x1080,1920x1080,Temporal Distance Task,cb_08,96.0,temp_dist_trial,num_items,zn7si1,1.0,response,1_ITEM,1735.9400000000023,1733.4400000000023,1735.9400000000023,1735.9400000000023,1733.4400000000023,1735.9400000000023,1.0,0.0,0.0,,Click Response,1_count,3.0,object-46,temp_dist_trial,48.0,s_sh_20_1,student_shared,tape,8.0,competing,paired,s_sh_20_1.jpg,Student,,,sub-52
Desktop or Laptop,Windows 10,Firefox 140.0,1920x1080,1920x1080,Temporal Distance Task,$${counterbalance_group},,,,,,info,END,,,281970.0,,,,0.0,,,,,,,,,,,,,,,,,,,,sub-52
