Participant Device,Participant OS,Participant Browser,Participant Monitor Size,Participant Viewport Size,Task Name,Current Spreadsheet,Trial Number,Display,Screen,Screen ID,Screen Counter,Response Type,Response,Onset Time,Clock Time,Reaction Time,Absolute Onset Time,Absolute Clock Time,Absolute Reaction Time,Correct,Response Duration,Proportion,Tag,Component Name,Object Name,Object Number,Object ID,Spreadsheet: display,Spreadsheet: trial,Spreadsheet: stimulus_id,Spreadsheet: expected_goal,Spreadsheet: stimulus_name,Spreadsheet: c_group,Spreadsheet: condition,Spreadsheet: paired_status,Spreadsheet: stimulus_path,Spreadsheet: block_type,Manipulation: Spreadsheet,Store: enc_test_acc,sub_label
Desktop or Laptop,Windows 10,Chrome 138.0.0.0,1920x1080,1920x1080,Temporal Distance Task,,,,,,,info,BEGIN,,,,,,,,,,,,,,,,,,,,,,,,,$${counterbalance_group},,sub-77
Desktop or Laptop,Windows 10,Chrome 138.0.0.0,1920x1080,1920x1080,Temporal Distance Task,cb_07,1.0,temp_instructions,intro_screen,3tnme7,1.0,continue,,5074.599999856949,5068.499999999999,5074.599999856949,5074.599999856949,5068.499999999999,5074.599999856949,1.0,0.0,0.0,,Click To Continue,Continue Button,4.0,object-29,temp_instructions,,,Student,,,,,,,$${counterbalance_group},,sub-77
Desktop or Laptop,Windows 10,Chrome 138.0.0.0,1920x1080,1920x1080,Temporal Distance Task,cb_07,1.0,temp_instructions,intro_screen_2,52v7ur,2.0,continue,,10794.499999952315,10789.600000000002,10794.499999952315,10794.499999952315,10789.600000000002,10794.499999952315,1.0,0.0,0.0,,Click To Continue,Continue Button,4.0,object-39,temp_instructions,,,Student,,,,,,,$${counterbalance_group},,sub-77
Desktop or Laptop,Windows 10,Chrome 138.0.0.0,1920x1080,1920x1080,Temporal Distance Task,cb_07,1.0,temp_instructions,intro_screen_3,i7lvwx,3.0,continue,,1793.7999998092637,1791.1999999999966,1793.7999998092637,1793.7999998092637,1791.1999999999966,1793.7999998092637,1.0,0.0,0.0,,Click To Continue,Continue Button,4.0,object-67,temp_instructions,,,Student,,,,,,,$${counterbalance_group},,sub-77
Desktop or Laptop,Windows 10,Chrome 138.0.0.0,1920x1080,1920x1080,Temporal Distance Task,cb_07,1.0,temp_instructions,test_q1,5ieqx1,4.0,response,choice_3,4518.099999809267,4513.200000000002,4518.099999809267,4518.099999809267,4513.200000000002,4518.099999809267,1.0,0.0,0.0,,Click Response,choice_3,5.0,object-345,temp_instructions,,,Student,,,,,,,$${counterbalance_group},,sub-77
Desktop or Laptop,Windows 10,Chrome 138.0.0.0,1920x1080,1920x1080,Temporal Distance Task,cb_07,1.0,temp_instructions,score_corr,7ilvjr,5.0,continue,,1142.7000000000007,1138.7999999999993,1142.7000000000007,1142.7000000000007,1138.7999999999993,1142.7000000000007,1.0,0.0,0.0,,Click To Continue,Continue Button,3.0,object-23,temp_instructions,,,Student,,,,,,,$${counterbalance_group},,sub-77
Desktop or Laptop,Windows 10,Chrome 138.0.0.0,1920x1080,1920x1080,Temporal Distance Task,cb_07,1.0,temp_eventStart,Screen 1,dgtyxe,1.0,continue,,1494.999999904634,1492.6000000000022,1494.999999904634,1494.999999904634,1492.6000000000022,1494.999999904634,1.0,0.0,0.0,,Click To Continue,Next Button,3.0,object-43,temp_eventStart,,,Student,,,,,,,$${counterbalance_group},,sub-77
Desktop or Laptop,Windows 10,Chrome 138.0.0.0,1920x1080,1920x1080,Temporal Distance Task,cb_07,1.0,temp_dist_trial,num_items,zn7si1,1.0,response,2_ITEM,1536.4999998092646,1534.3999999999978,1536.4999998092646,1536.4999998092646,1534.3999999999978,1536.4999998092646,1.0,0.0,0.0,,Click Response,2_count,5.0,object-49,temp_dist_trial,1.0,s_sh_13_1,student_shared,index cards,7.0,competing,paired,s_sh_13_1.jpg,Student,$${counterbalance_group},,sub-77
Desktop or Laptop,Windows 10,Chrome 138.0.0.0,1920x1080,1920x1080,Temporal Distance Task,cb_07,1.0,temp_dist_trial,dist_items,qkpkxw,2.0,info,,3.4000000000014547,0.0,3.4000000000014547,3.4000000000014547,0.0,3.4000000000014547,1.0,0.0,0.0,,Slider,Slider,4.0,object-56,temp_dist_trial,1.0,s_sh_13_1,student_shared,index cards,7.0,competing,paired,s_sh_13_1.jpg,Student,$${counterbalance_group},,sub-77
Desktop or Laptop,Windows 10,Chrome 138.0.0.0,1920x1080,1920x1080,Temporal Distance Task,cb_07,1.0,temp_dist_trial,dist_items,qkpkxw,2.0,continue,,4313.29999985695,4311.5999999999985,4313.29999985695,4313.29999985695,4311.5999999999985,4313.29999985695,1.0,0.0,0.0,,Click To Continue,Next button,7.0,object-60,temp_dist_trial,1.0,s_sh_13_1,student_shared,index cards,7.0,competing,paired,s_sh_13_1.jpg,Student,$${counterbalance_group},,sub-77
Desktop or Laptop,Windows 10,Chrome 138.0.0.0,1920x1080,1920x1080,Temporal Distance Task,cb_07,1.0,temp_dist_trial,dist_items,qkpkxw,2.0,response,48,1124.9000000000017,4311.5999999999985,4313.499999904634,1124.9000000000017,4311.5999999999985,4313.499999904634,1.0,3188.599999904633,0.0,,Slider,Slider,4.0,object-56,temp_dist_trial,1.0,s_sh_13_1,student_shared,index cards,7.0,competing,paired,s_sh_13_1.jpg,Student,$${counterbalance_group},,sub-77
Desktop or Laptop,Windows 10,Chrome 138.0.0.0,1920x1080,1920x1080,Temporal Distance Task,cb_07,2.0,temp_dist_trial,num_items,zn7si1,1.0,response,1_ITEM,1594.3999999046357,1590.0,1594.3999999046357,1594.3999999046357,1590.0,1594.3999999046357,1.0,0.0,0.0,,Click Response,1_count,3.0,object-46,temp_dist_trial,2.0,s_a_09_1,student_art,picture frame,7.0,unique,single,s_a_09_1.jpg,Student,$${counterbalance_group},,sub-77
Desktop or Laptop,Windows 10,Chrome 138.0.0.0,1920x1080,1920x1080,Temporal Distance Task,cb_07,3.0,temp_dist_trial,num_items,zn7si1,1.0,response,2_ITEM,1377.0999999523196,1374.7000000000046,1377.0999999523196,1377.0999999523196,1374.7000000000046,1377.0999999523196,1.0,0.0,0.0,,Click Response,2_count,5.0,object-49,temp_dist_trial,3.0,s_sh_02_1,student_shared,eraser,7.0,competing,paired,s_sh_02_1.jpg,Student,$${counterbalance_group},,sub-77
Desktop or Laptop,Windows 10,Chrome 138.0.0.0,1920x1080,1920x1080,Temporal Distance Task,cb_07,3.0,temp_dist_trial,dist_items,qkpkxw,2.0,info,,2.6999999999970896,0.0,2.6999999999970896,2.6999999999970896,0.0,2.6999999999970896,1.0,0.0,0.0,,Slider,Slider,4.0,object-56,temp_dist_trial,3.0,s_sh_02_1,student_shared,eraser,7.0,competing,paired,s_sh_02_1.jpg,Student,$${counterbalance_group},,sub-77
Desktop or Laptop,Windows 10,Chrome 138.0.0.0,1920x1080,1920x1080,Temporal Distance Task,cb_07,3.0,temp_dist_trial,dist_items,qkpkxw,2.0,continue,,1981.6999999999966,1978.799999999996,1981.6999999999966,1981.6999999999966,1978.799999999996,1981.6999999999966,1.0,0.0,0.0,,Click To Continue,Next button,7.0,object-60,temp_dist_trial,3.0,s_sh_02_1,student_shared,eraser,7.0,competing,paired,s_sh_02_1.jpg,Student,$${counterbalance_group},,sub-77
Desktop or Laptop,Windows 10,Chrome 138.0.0.0,1920x1080,1920x1080,Temporal Distance Task,cb_07,3.0,temp_dist_trial,dist_items,qkpkxw,2.0,response,51,1159.5,1978.799999999996,1983.1999999999966,1159.5,1978.799999999996,1983.1999999999966,1.0,823.6999999999971,0.0,,Slider,Slider,4.0,object-56,temp_dist_trial,3.0,s_sh_02_1,student_shared,eraser,7.0,competing,paired,s_sh_02_1.jpg,Student,$${counterbalance_group},,sub-77
Desktop or Laptop,Windows 10,Chrome 138.0.0.0,1920x1080,1920x1080,Temporal Distance Task,cb_07,4.0,temp_dist_trial,num_items,zn7si1,1.0,response,1_ITEM,1173.5,1166.5,1173.5,1173.5,1166.5,1173.5,1.0,0.0,0.0,,Click Response,1_count,3.0,object-46,temp_dist_trial,4.0,s_sh_07_1,student_shared,ruler,7.0,competing,paired,s_sh_07_1.jpg,Student,$${counterbalance_group},,sub-77
Desktop or Laptop,Windows 10,Chrome 138.0.0.0,1920x1080,1920x1080,Temporal Distance Task,cb_07,5.0,temp_dist_trial,num_items,zn7si1,1.0,response,2_ITEM,920.0,916.5,920.0,920.0,916.5,920.0,1.0,0.0,0.0,,Click Response,2_count,5.0,object-49,temp_dist_trial,5.0,s_s_16_1,student_stem,toolbox,7.0,unique,paired,s_s_16_1.jpg,Student,$${counterbalance_group},,sub-77
Desktop or Laptop,Windows 10,Chrome 138.0.0.0,1920x1080,1920x1080,Temporal Distance Task,cb_07,5.0,temp_dist_trial,dist_items,qkpkxw,2.0,info,,2.8999999523148285,0.0,2.8999999523148285,2.8999999523148285,0.0,2.8999999523148285,1.0,0.0,0.0,,Slider,Slider,4.0,object-56,temp_dist_trial,5.0,s_s_16_1,student_stem,toolbox,7.0,unique,paired,s_s_16_1.jpg,Student,$${counterbalance_group},,sub-77
Desktop or Laptop,Windows 10,Chrome 138.0.0.0,1920x1080,1920x1080,Temporal Distance Task,cb_07,5.0,temp_dist_trial,dist_items,qkpkxw,2.0,continue,,1627.0999999999985,1624.7999999999954,1627.0999999999985,1627.0999999999985,1624.7999999999954,1627.0999999999985,1.0,0.0,0.0,,Click To Continue,Next button,7.0,object-60,temp_dist_trial,5.0,s_s_16_1,student_stem,toolbox,7.0,unique,paired,s_s_16_1.jpg,Student,$${counterbalance_group},,sub-77
Desktop or Laptop,Windows 10,Chrome 138.0.0.0,1920x1080,1920x1080,Temporal Distance Task,cb_07,5.0,temp_dist_trial,dist_items,qkpkxw,2.0,response,50,881.9000000000017,1624.7999999999954,1627.3999999523148,881.9000000000017,1624.7999999999954,1627.3999999523148,1.0,745.4999999523134,0.0,,Slider,Slider,4.0,object-56,temp_dist_trial,5.0,s_s_16_1,student_stem,toolbox,7.0,unique,paired,s_s_16_1.jpg,Student,$${counterbalance_group},,sub-77
Desktop or Laptop,Windows 10,Chrome 138.0.0.0,1920x1080,1920x1080,Temporal Distance Task,cb_07,6.0,temp_dist_trial,num_items,zn7si1,1.0,response,2_ITEM,1275.3000000000031,1270.4000000000015,1275.3000000000031,1275.3000000000031,1270.4000000000015,1275.3000000000031,1.0,0.0,0.0,,Click Response,2_count,5.0,object-49,temp_dist_trial,6.0,s_a_18_1,student_art,tutu,7.0,unique,paired,s_a_18_1.jpg,Student,$${counterbalance_group},,sub-77
Desktop or Laptop,Windows 10,Chrome 138.0.0.0,1920x1080,1920x1080,Temporal Distance Task,cb_07,6.0,temp_dist_trial,dist_items,qkpkxw,2.0,info,,2.5999999523191946,0.0,2.5999999523191946,2.5999999523191946,0.0,2.5999999523191946,1.0,0.0,0.0,,Slider,Slider,4.0,object-56,temp_dist_trial,6.0,s_a_18_1,student_art,tutu,7.0,unique,paired,s_a_18_1.jpg,Student,$${counterbalance_group},,sub-77
Desktop or Laptop,Windows 10,Chrome 138.0.0.0,1920x1080,1920x1080,Temporal Distance Task,cb_07,6.0,temp_dist_trial,dist_items,qkpkxw,2.0,continue,,2667.800000000003,2666.1000000000063,2667.800000000003,2667.800000000003,2666.1000000000063,2667.800000000003,1.0,0.0,0.0,,Click To Continue,Next button,7.0,object-60,temp_dist_trial,6.0,s_a_18_1,student_art,tutu,7.0,unique,paired,s_a_18_1.jpg,Student,$${counterbalance_group},,sub-77
Desktop or Laptop,Windows 10,Chrome 138.0.0.0,1920x1080,1920x1080,Temporal Distance Task,cb_07,6.0,temp_dist_trial,dist_items,qkpkxw,2.0,response,32,805.4000000000017,2666.1000000000063,2668.1999998569518,805.4000000000017,2666.1000000000063,2668.1999998569518,1.0,1862.7999998569503,0.0,,Slider,Slider,4.0,object-56,temp_dist_trial,6.0,s_a_18_1,student_art,tutu,7.0,unique,paired,s_a_18_1.jpg,Student,$${counterbalance_group},,sub-77
Desktop or Laptop,Windows 10,Chrome 138.0.0.0,1920x1080,1920x1080,Temporal Distance Task,cb_07,7.0,temp_dist_trial,num_items,zn7si1,1.0,response,2_ITEM,1438.0999998569462,1437.1999999999966,1438.0999998569462,1438.0999998569462,1437.1999999999966,1438.0999998569462,1.0,0.0,0.0,,Click Response,2_count,5.0,object-49,temp_dist_trial,7.0,s_a_05_1,student_art,clay,7.0,unique,paired,s_a_05_1.jpg,Student,$${counterbalance_group},,sub-77
Desktop or Laptop,Windows 10,Chrome 138.0.0.0,1920x1080,1920x1080,Temporal Distance Task,cb_07,7.0,temp_dist_trial,dist_items,qkpkxw,2.0,info,,2.799999809263681,0.0,2.799999809263681,2.799999809263681,0.0,2.799999809263681,1.0,0.0,0.0,,Slider,Slider,4.0,object-56,temp_dist_trial,7.0,s_a_05_1,student_art,clay,7.0,unique,paired,s_a_05_1.jpg,Student,$${counterbalance_group},,sub-77
Desktop or Laptop,Windows 10,Chrome 138.0.0.0,1920x1080,1920x1080,Temporal Distance Task,cb_07,7.0,temp_dist_trial,dist_items,qkpkxw,2.0,continue,,1754.2999998092637,1749.7999999999954,1754.2999998092637,1754.2999998092637,1749.7999999999954,1754.2999998092637,1.0,0.0,0.0,,Click To Continue,Next button,7.0,object-60,temp_dist_trial,7.0,s_a_05_1,student_art,clay,7.0,unique,paired,s_a_05_1.jpg,Student,$${counterbalance_group},,sub-77
Desktop or Laptop,Windows 10,Chrome 138.0.0.0,1920x1080,1920x1080,Temporal Distance Task,cb_07,7.0,temp_dist_trial,dist_items,qkpkxw,2.0,response,50,1097.1999999999969,1749.7999999999954,1754.4999998569476,1097.1999999999969,1749.7999999999954,1754.4999998569476,1.0,657.2999998569502,0.0,,Slider,Slider,4.0,object-56,temp_dist_trial,7.0,s_a_05_1,student_art,clay,7.0,unique,paired,s_a_05_1.jpg,Student,$${counterbalance_group},,sub-77
Desktop or Laptop,Windows 10,Chrome 138.0.0.0,1920x1080,1920x1080,Temporal Distance Task,cb_07,8.0,temp_dist_trial,num_items,zn7si1,1.0,response,1_ITEM,2304.800000000003,2298.1000000000063,2304.800000000003,2304.800000000003,2298.1000000000063,2304.800000000003,1.0,0.0,0.0,,Click Response,1_count,3.0,object-46,temp_dist_trial,8.0,s_sh_04_1,student_shared,laptop stand,7.0,competing,single,s_sh_04_1.jpg,Student,$${counterbalance_group},,sub-77
Desktop or Laptop,Windows 10,Chrome 138.0.0.0,1920x1080,1920x1080,Temporal Distance Task,cb_07,9.0,temp_dist_trial,num_items,zn7si1,1.0,response,2_ITEM,1030.0999999523192,1027.6000000000058,1030.0999999523192,1030.0999999523192,1027.6000000000058,1030.0999999523192,1.0,0.0,0.0,,Click Response,2_count,5.0,object-49,temp_dist_trial,9.0,s_a_14_1,student_art,guitar pick,7.0,unique,paired,s_a_14_1.jpg,Student,$${counterbalance_group},,sub-77
Desktop or Laptop,Windows 10,Chrome 138.0.0.0,1920x1080,1920x1080,Temporal Distance Task,cb_07,9.0,temp_dist_trial,dist_items,qkpkxw,2.0,info,,2.9999998092680467,0.0,2.9999998092680467,2.9999998092680467,0.0,2.9999998092680467,1.0,0.0,0.0,,Slider,Slider,4.0,object-56,temp_dist_trial,9.0,s_a_14_1,student_art,guitar pick,7.0,unique,paired,s_a_14_1.jpg,Student,$${counterbalance_group},,sub-77
Desktop or Laptop,Windows 10,Chrome 138.0.0.0,1920x1080,1920x1080,Temporal Distance Task,cb_07,9.0,temp_dist_trial,dist_items,qkpkxw,2.0,continue,,1351.499999809268,1347.1000000000058,1351.499999809268,1351.499999809268,1347.1000000000058,1351.499999809268,1.0,0.0,0.0,,Click To Continue,Next button,7.0,object-60,temp_dist_trial,9.0,s_a_14_1,student_art,guitar pick,7.0,unique,paired,s_a_14_1.jpg,Student,$${counterbalance_group},,sub-77
Desktop or Laptop,Windows 10,Chrome 138.0.0.0,1920x1080,1920x1080,Temporal Distance Task,cb_07,9.0,temp_dist_trial,dist_items,qkpkxw,2.0,response,51,652.9000000000016,1347.1000000000058,1351.8000000000031,652.9000000000016,1347.1000000000058,1351.8000000000031,1.0,698.9000000000017,0.0,,Slider,Slider,4.0,object-56,temp_dist_trial,9.0,s_a_14_1,student_art,guitar pick,7.0,unique,paired,s_a_14_1.jpg,Student,$${counterbalance_group},,sub-77
Desktop or Laptop,Windows 10,Chrome 138.0.0.0,1920x1080,1920x1080,Temporal Distance Task,cb_07,10.0,temp_dist_trial,num_items,zn7si1,1.0,response,1_ITEM,1682.9999999523136,1680.1999999999966,1682.9999999523136,1682.9999999523136,1680.1999999999966,1682.9999999523136,1.0,0.0,0.0,,Click Response,1_count,3.0,object-46,temp_dist_trial,10.0,s_a_01_1,student_art,paintbrush,7.0,unique,paired,s_a_01_1.jpg,Student,$${counterbalance_group},,sub-77
Desktop or Laptop,Windows 10,Chrome 138.0.0.0,1920x1080,1920x1080,Temporal Distance Task,cb_07,11.0,temp_dist_trial,num_items,zn7si1,1.0,response,2_ITEM,889.4999998569472,888.6999999999971,889.4999998569472,889.4999998569472,888.6999999999971,889.4999998569472,1.0,0.0,0.0,,Click Response,2_count,5.0,object-49,temp_dist_trial,11.0,s_sh_16_1,student_shared,stapler,7.0,competing,paired,s_sh_16_1.jpg,Student,$${counterbalance_group},,sub-77
Desktop or Laptop,Windows 10,Chrome 138.0.0.0,1920x1080,1920x1080,Temporal Distance Task,cb_07,11.0,temp_dist_trial,dist_items,qkpkxw,2.0,info,,2.5,0.0,2.5,2.5,0.0,2.5,1.0,0.0,0.0,,Slider,Slider,4.0,object-56,temp_dist_trial,11.0,s_sh_16_1,student_shared,stapler,7.0,competing,paired,s_sh_16_1.jpg,Student,$${counterbalance_group},,sub-77
Desktop or Laptop,Windows 10,Chrome 138.0.0.0,1920x1080,1920x1080,Temporal Distance Task,cb_07,11.0,temp_dist_trial,dist_items,qkpkxw,2.0,continue,,1477.0999999046326,1472.0,1477.0999999046326,1477.0999999046326,1472.0,1477.0999999046326,1.0,0.0,0.0,,Click To Continue,Next button,7.0,object-60,temp_dist_trial,11.0,s_sh_16_1,student_shared,stapler,7.0,competing,paired,s_sh_16_1.jpg,Student,$${counterbalance_group},,sub-77
Desktop or Laptop,Windows 10,Chrome 138.0.0.0,1920x1080,1920x1080,Temporal Distance Task,cb_07,11.0,temp_dist_trial,dist_items,qkpkxw,2.0,response,50,736.3000000000029,1472.0,1478.9000000000015,736.3000000000029,1472.0,1478.9000000000015,1.0,742.5999999999983,0.0,,Slider,Slider,4.0,object-56,temp_dist_trial,11.0,s_sh_16_1,student_shared,stapler,7.0,competing,paired,s_sh_16_1.jpg,Student,$${counterbalance_group},,sub-77
Desktop or Laptop,Windows 10,Chrome 138.0.0.0,1920x1080,1920x1080,Temporal Distance Task,cb_07,12.0,temp_dist_trial,num_items,zn7si1,1.0,response,2_ITEM,916.5,909.5999999999983,916.5,916.5,909.5999999999983,916.5,1.0,0.0,0.0,,Click Response,2_count,5.0,object-49,temp_dist_trial,12.0,s_a_07_1,student_art,yarn,7.0,unique,paired,s_a_07_1.jpg,Student,$${counterbalance_group},,sub-77
Desktop or Laptop,Windows 10,Chrome 138.0.0.0,1920x1080,1920x1080,Temporal Distance Task,cb_07,12.0,temp_dist_trial,dist_items,qkpkxw,2.0,info,,2.8999998569488525,0.0,2.8999998569488525,2.8999998569488525,0.0,2.8999998569488525,1.0,0.0,0.0,,Slider,Slider,4.0,object-56,temp_dist_trial,12.0,s_a_07_1,student_art,yarn,7.0,unique,paired,s_a_07_1.jpg,Student,$${counterbalance_group},,sub-77
Desktop or Laptop,Windows 10,Chrome 138.0.0.0,1920x1080,1920x1080,Temporal Distance Task,cb_07,12.0,temp_dist_trial,dist_items,qkpkxw,2.0,continue,,1344.8999998569486,1340.1999999999969,1344.8999998569486,1344.8999998569486,1340.1999999999969,1344.8999998569486,1.0,0.0,0.0,,Click To Continue,Next button,7.0,object-60,temp_dist_trial,12.0,s_a_07_1,student_art,yarn,7.0,unique,paired,s_a_07_1.jpg,Student,$${counterbalance_group},,sub-77
Desktop or Laptop,Windows 10,Chrome 138.0.0.0,1920x1080,1920x1080,Temporal Distance Task,cb_07,12.0,temp_dist_trial,dist_items,qkpkxw,2.0,response,50,757.0,1340.1999999999969,1345.0999999046326,757.0,1340.1999999999969,1345.0999999046326,1.0,588.0999999046327,0.0,,Slider,Slider,4.0,object-56,temp_dist_trial,12.0,s_a_07_1,student_art,yarn,7.0,unique,paired,s_a_07_1.jpg,Student,$${counterbalance_group},,sub-77
Desktop or Laptop,Windows 10,Chrome 138.0.0.0,1920x1080,1920x1080,Temporal Distance Task,cb_07,13.0,temp_dist_trial,num_items,zn7si1,1.0,response,2_ITEM,1495.4999998092678,1492.6000000000058,1495.4999998092678,1495.4999998092678,1492.6000000000058,1495.4999998092678,1.0,0.0,0.0,,Click Response,2_count,5.0,object-49,temp_dist_trial,13.0,s_sh_21_1,student_shared,file holder,7.0,competing,paired,s_sh_21_1.jpg,Student,$${counterbalance_group},,sub-77
Desktop or Laptop,Windows 10,Chrome 138.0.0.0,1920x1080,1920x1080,Temporal Distance Task,cb_07,13.0,temp_dist_trial,dist_items,qkpkxw,2.0,info,,2.5999998569459417,0.0,2.5999998569459417,2.5999998569459417,0.0,2.5999998569459417,1.0,0.0,0.0,,Slider,Slider,4.0,object-56,temp_dist_trial,13.0,s_sh_21_1,student_shared,file holder,7.0,competing,paired,s_sh_21_1.jpg,Student,$${counterbalance_group},,sub-77
Desktop or Laptop,Windows 10,Chrome 138.0.0.0,1920x1080,1920x1080,Temporal Distance Task,cb_07,13.0,temp_dist_trial,dist_items,qkpkxw,2.0,continue,,1656.4999999523136,1652.3999999999942,1656.4999999523136,1656.4999999523136,1652.3999999999942,1656.4999999523136,1.0,0.0,0.0,,Click To Continue,Next button,7.0,object-60,temp_dist_trial,13.0,s_sh_21_1,student_shared,file holder,7.0,competing,paired,s_sh_21_1.jpg,Student,$${counterbalance_group},,sub-77
Desktop or Laptop,Windows 10,Chrome 138.0.0.0,1920x1080,1920x1080,Temporal Distance Task,cb_07,13.0,temp_dist_trial,dist_items,qkpkxw,2.0,response,50,1013.8999999999942,1652.3999999999942,1656.6999999999966,1013.8999999999942,1652.3999999999942,1656.6999999999966,1.0,642.8000000000029,0.0,,Slider,Slider,4.0,object-56,temp_dist_trial,13.0,s_sh_21_1,student_shared,file holder,7.0,competing,paired,s_sh_21_1.jpg,Student,$${counterbalance_group},,sub-77
Desktop or Laptop,Windows 10,Chrome 138.0.0.0,1920x1080,1920x1080,Temporal Distance Task,cb_07,14.0,temp_dist_trial,num_items,zn7si1,1.0,response,2_ITEM,1011.3000000000028,1006.8000000000028,1011.3000000000028,1011.3000000000028,1006.8000000000028,1011.3000000000028,1.0,0.0,0.0,,Click Response,2_count,5.0,object-49,temp_dist_trial,14.0,s_sh_11_1,student_shared,pencil case,7.0,competing,paired,s_sh_11_1.jpg,Student,$${counterbalance_group},,sub-77
Desktop or Laptop,Windows 10,Chrome 138.0.0.0,1920x1080,1920x1080,Temporal Distance Task,cb_07,14.0,temp_dist_trial,dist_items,qkpkxw,2.0,info,,2.6000000000058208,0.0,2.6000000000058208,2.6000000000058208,0.0,2.6000000000058208,1.0,0.0,0.0,,Slider,Slider,4.0,object-56,temp_dist_trial,14.0,s_sh_11_1,student_shared,pencil case,7.0,competing,paired,s_sh_11_1.jpg,Student,$${counterbalance_group},,sub-77
Desktop or Laptop,Windows 10,Chrome 138.0.0.0,1920x1080,1920x1080,Temporal Distance Task,cb_07,14.0,temp_dist_trial,dist_items,qkpkxw,2.0,continue,,1453.799999809271,1451.3000000000034,1453.799999809271,1453.799999809271,1451.3000000000034,1453.799999809271,1.0,0.0,0.0,,Click To Continue,Next button,7.0,object-60,temp_dist_trial,14.0,s_sh_11_1,student_shared,pencil case,7.0,competing,paired,s_sh_11_1.jpg,Student,$${counterbalance_group},,sub-77
Desktop or Laptop,Windows 10,Chrome 138.0.0.0,1920x1080,1920x1080,Temporal Distance Task,cb_07,14.0,temp_dist_trial,dist_items,qkpkxw,2.0,response,49,527.8000000000029,1451.3000000000034,1454.1000000000058,527.8000000000029,1451.3000000000034,1454.1000000000058,1.0,926.3000000000028,0.0,,Slider,Slider,4.0,object-56,temp_dist_trial,14.0,s_sh_11_1,student_shared,pencil case,7.0,competing,paired,s_sh_11_1.jpg,Student,$${counterbalance_group},,sub-77
Desktop or Laptop,Windows 10,Chrome 138.0.0.0,1920x1080,1920x1080,Temporal Distance Task,cb_07,15.0,temp_dist_trial,num_items,zn7si1,1.0,response,num_miss,2999.400000000009,2999.400000000009,2999.400000000009,2999.400000000009,2999.400000000009,2999.400000000009,1.0,0.0,0.0,num_miss_tag,Time Limit,screen,0.0,screen,temp_dist_trial,15.0,s_sh_05_1,student_shared,laptop,7.0,competing,paired,s_sh_05_1.jpg,Student,$${counterbalance_group},,sub-77
Desktop or Laptop,Windows 10,Chrome 138.0.0.0,1920x1080,1920x1080,Temporal Distance Task,cb_07,16.0,temp_dist_trial,num_items,zn7si1,1.0,response,num_miss,2999.5,2999.5,2999.5,2999.5,2999.5,2999.5,1.0,0.0,0.0,num_miss_tag,Time Limit,screen,0.0,screen,temp_dist_trial,16.0,s_sh_06_1,student_shared,clipboard,7.0,competing,paired,s_sh_06_1.jpg,Student,$${counterbalance_group},,sub-77
Desktop or Laptop,Windows 10,Chrome 138.0.0.0,1920x1080,1920x1080,Temporal Distance Task,cb_07,17.0,temp_dist_trial,num_items,zn7si1,1.0,response,2_ITEM,2201.0,2194.0,2201.0,2201.0,2194.0,2201.0,1.0,0.0,0.0,,Click Response,2_count,5.0,object-49,temp_dist_trial,17.0,s_s_10_1,student_stem,3d molecule,7.0,unique,paired,s_s_10_1.jpg,Student,$${counterbalance_group},,sub-77
Desktop or Laptop,Windows 10,Chrome 138.0.0.0,1920x1080,1920x1080,Temporal Distance Task,cb_07,17.0,temp_dist_trial,dist_items,qkpkxw,2.0,info,,2.499999904626748,0.0,2.499999904626748,2.499999904626748,0.0,2.499999904626748,1.0,0.0,0.0,,Slider,Slider,4.0,object-56,temp_dist_trial,17.0,s_s_10_1,student_stem,3d molecule,7.0,unique,paired,s_s_10_1.jpg,Student,$${counterbalance_group},,sub-77
Desktop or Laptop,Windows 10,Chrome 138.0.0.0,1920x1080,1920x1080,Temporal Distance Task,cb_07,17.0,temp_dist_trial,dist_items,qkpkxw,2.0,continue,,1868.6999999523105,1867.5999999999915,1868.6999999523105,1868.6999999523105,1867.5999999999915,1868.6999999523105,1.0,0.0,0.0,,Click To Continue,Next button,7.0,object-60,temp_dist_trial,17.0,s_s_10_1,student_stem,3d molecule,7.0,unique,paired,s_s_10_1.jpg,Student,$${counterbalance_group},,sub-77
Desktop or Laptop,Windows 10,Chrome 138.0.0.0,1920x1080,1920x1080,Temporal Distance Task,cb_07,17.0,temp_dist_trial,dist_items,qkpkxw,2.0,response,51,1013.5999999999913,1867.5999999999915,1868.799999856943,1013.5999999999913,1867.5999999999915,1868.799999856943,1.0,855.1999998569518,0.0,,Slider,Slider,4.0,object-56,temp_dist_trial,17.0,s_s_10_1,student_stem,3d molecule,7.0,unique,paired,s_s_10_1.jpg,Student,$${counterbalance_group},,sub-77
Desktop or Laptop,Windows 10,Chrome 138.0.0.0,1920x1080,1920x1080,Temporal Distance Task,cb_07,18.0,temp_dist_trial,num_items,zn7si1,1.0,response,2_ITEM,1987.3000000000034,1985.6999999999966,1987.3000000000034,1987.3000000000034,1985.6999999999966,1987.3000000000034,1.0,0.0,0.0,,Click Response,2_count,5.0,object-49,temp_dist_trial,18.0,s_a_12_1,student_art,saxophone,7.0,unique,paired,s_a_12_1.jpg,Student,$${counterbalance_group},,sub-77
Desktop or Laptop,Windows 10,Chrome 138.0.0.0,1920x1080,1920x1080,Temporal Distance Task,cb_07,18.0,temp_dist_trial,dist_items,qkpkxw,2.0,info,,2.299999904629658,0.0,2.299999904629658,2.299999904629658,0.0,2.299999904629658,1.0,0.0,0.0,,Slider,Slider,4.0,object-56,temp_dist_trial,18.0,s_a_12_1,student_art,saxophone,7.0,unique,paired,s_a_12_1.jpg,Student,$${counterbalance_group},,sub-77
Desktop or Laptop,Windows 10,Chrome 138.0.0.0,1920x1080,1920x1080,Temporal Distance Task,cb_07,18.0,temp_dist_trial,dist_items,qkpkxw,2.0,continue,,2369.2999999046297,2367.5999999999913,2369.2999999046297,2369.2999999046297,2367.5999999999913,2369.2999999046297,1.0,0.0,0.0,,Click To Continue,Next button,7.0,object-60,temp_dist_trial,18.0,s_a_12_1,student_art,saxophone,7.0,unique,paired,s_a_12_1.jpg,Student,$${counterbalance_group},,sub-77
Desktop or Laptop,Windows 10,Chrome 138.0.0.0,1920x1080,1920x1080,Temporal Distance Task,cb_07,18.0,temp_dist_trial,dist_items,qkpkxw,2.0,response,51,1090.1999999999969,2367.5999999999913,2369.499999952313,1090.1999999999969,2367.5999999999913,2369.499999952313,1.0,1279.2999999523165,0.0,,Slider,Slider,4.0,object-56,temp_dist_trial,18.0,s_a_12_1,student_art,saxophone,7.0,unique,paired,s_a_12_1.jpg,Student,$${counterbalance_group},,sub-77
Desktop or Laptop,Windows 10,Chrome 138.0.0.0,1920x1080,1920x1080,Temporal Distance Task,cb_07,19.0,temp_dist_trial,num_items,zn7si1,1.0,response,2_ITEM,1703.9999998569547,1701.2000000000116,1703.9999998569547,1703.9999998569547,1701.2000000000116,1703.9999998569547,1.0,0.0,0.0,,Click Response,2_count,5.0,object-49,temp_dist_trial,19.0,s_s_15_1,student_stem,jumper cables,7.0,unique,paired,s_s_15_1.jpg,Student,$${counterbalance_group},,sub-77
Desktop or Laptop,Windows 10,Chrome 138.0.0.0,1920x1080,1920x1080,Temporal Distance Task,cb_07,19.0,temp_dist_trial,dist_items,qkpkxw,2.0,info,,2.8999998092622263,0.0,2.8999998092622263,2.8999998092622263,0.0,2.8999998092622263,1.0,0.0,0.0,,Slider,Slider,4.0,object-56,temp_dist_trial,19.0,s_s_15_1,student_stem,jumper cables,7.0,unique,paired,s_s_15_1.jpg,Student,$${counterbalance_group},,sub-77
Desktop or Laptop,Windows 10,Chrome 138.0.0.0,1920x1080,1920x1080,Temporal Distance Task,cb_07,19.0,temp_dist_trial,dist_items,qkpkxw,2.0,continue,,1497.2999999046294,1492.8999999999942,1497.2999999046294,1497.2999999046294,1492.8999999999942,1497.2999999046294,1.0,0.0,0.0,,Click To Continue,Next button,7.0,object-60,temp_dist_trial,19.0,s_s_15_1,student_stem,jumper cables,7.0,unique,paired,s_s_15_1.jpg,Student,$${counterbalance_group},,sub-77
Desktop or Laptop,Windows 10,Chrome 138.0.0.0,1920x1080,1920x1080,Temporal Distance Task,cb_07,19.0,temp_dist_trial,dist_items,qkpkxw,2.0,response,50,743.0,1492.8999999999942,1497.4999999523136,743.0,1492.8999999999942,1497.4999999523136,1.0,754.4999999523134,0.0,,Slider,Slider,4.0,object-56,temp_dist_trial,19.0,s_s_15_1,student_stem,jumper cables,7.0,unique,paired,s_s_15_1.jpg,Student,$${counterbalance_group},,sub-77
Desktop or Laptop,Windows 10,Chrome 138.0.0.0,1920x1080,1920x1080,Temporal Distance Task,cb_07,20.0,temp_dist_trial,num_items,zn7si1,1.0,response,1_ITEM,1807.199999856952,1805.1999999999966,1807.199999856952,1807.199999856952,1805.1999999999966,1807.199999856952,1.0,0.0,0.0,,Click Response,1_count,3.0,object-46,temp_dist_trial,20.0,s_s_11_1,student_stem,scientific scale,7.0,unique,paired,s_s_11_1.jpg,Student,$${counterbalance_group},,sub-77
Desktop or Laptop,Windows 10,Chrome 138.0.0.0,1920x1080,1920x1080,Temporal Distance Task,cb_07,21.0,temp_dist_trial,num_items,zn7si1,1.0,response,1_ITEM,1186.5999999523192,1180.6000000000058,1186.5999999523192,1186.5999999523192,1180.6000000000058,1186.5999999523192,1.0,0.0,0.0,,Click Response,1_count,3.0,object-46,temp_dist_trial,21.0,s_s_17_1,student_stem,ring stand,7.0,unique,single,s_s_17_1.jpg,Student,$${counterbalance_group},,sub-77
Desktop or Laptop,Windows 10,Chrome 138.0.0.0,1920x1080,1920x1080,Temporal Distance Task,cb_07,22.0,temp_dist_trial,num_items,zn7si1,1.0,response,1_ITEM,1002.5999999523192,999.9000000000087,1002.5999999523192,1002.5999999523192,999.9000000000087,1002.5999999523192,1.0,0.0,0.0,,Click Response,1_count,3.0,object-46,temp_dist_trial,22.0,s_sh_17_1,student_shared,wireless mouse,7.0,competing,single,s_sh_17_1.jpg,Student,$${counterbalance_group},,sub-77
Desktop or Laptop,Windows 10,Chrome 138.0.0.0,1920x1080,1920x1080,Temporal Distance Task,cb_07,23.0,temp_dist_trial,num_items,zn7si1,1.0,response,num_miss,2999.5,2999.5,2999.5,2999.5,2999.5,2999.5,1.0,0.0,0.0,num_miss_tag,Time Limit,screen,0.0,screen,temp_dist_trial,23.0,s_sh_20_1,student_shared,tape,7.0,competing,single,s_sh_20_1.jpg,Student,$${counterbalance_group},,sub-77
Desktop or Laptop,Windows 10,Chrome 138.0.0.0,1920x1080,1920x1080,Temporal Distance Task,cb_07,24.0,temp_dist_trial,num_items,zn7si1,1.0,response,1_ITEM,1409.1999999999966,1402.599999999991,1409.1999999999966,1409.1999999999966,1402.599999999991,1409.1999999999966,1.0,0.0,0.0,,Click Response,1_count,3.0,object-46,temp_dist_trial,24.0,s_sh_12_1,student_shared,binder,7.0,competing,paired,s_sh_12_1.jpg,Student,$${counterbalance_group},,sub-77
Desktop or Laptop,Windows 10,Chrome 138.0.0.0,1920x1080,1920x1080,Temporal Distance Task,cb_07,25.0,temp_dist_trial,num_items,zn7si1,1.0,response,1_ITEM,724.8999999523221,722.0,724.8999999523221,724.8999999523221,722.0,724.8999999523221,1.0,0.0,0.0,,Click Response,1_count,3.0,object-46,temp_dist_trial,25.0,s_s_03_1,student_stem,petri dish,7.0,unique,single,s_s_03_1.jpg,Student,$${counterbalance_group},,sub-77
Desktop or Laptop,Windows 10,Chrome 138.0.0.0,1920x1080,1920x1080,Temporal Distance Task,cb_07,26.0,temp_dist_trial,num_items,zn7si1,1.0,response,1_ITEM,695.8999999523221,694.3000000000029,695.8999999523221,695.8999999523221,694.3000000000029,695.8999999523221,1.0,0.0,0.0,,Click Response,1_count,3.0,object-46,temp_dist_trial,26.0,s_sh_01_1,student_shared,notebook,7.0,competing,single,s_sh_01_1.jpg,Student,$${counterbalance_group},,sub-77
Desktop or Laptop,Windows 10,Chrome 138.0.0.0,1920x1080,1920x1080,Temporal Distance Task,cb_07,27.0,temp_dist_trial,num_items,zn7si1,1.0,response,1_ITEM,2130.9999999046267,2124.5999999999913,2130.9999999046267,2130.9999999046267,2124.5999999999913,2130.9999999046267,1.0,0.0,0.0,,Click Response,1_count,3.0,object-46,temp_dist_trial,27.0,s_sh_18_1,student_shared,wall calendar,7.0,competing,single,s_sh_18_1.jpg,Student,$${counterbalance_group},,sub-77
Desktop or Laptop,Windows 10,Chrome 138.0.0.0,1920x1080,1920x1080,Temporal Distance Task,cb_07,28.0,temp_dist_trial,num_items,zn7si1,1.0,response,1_ITEM,970.1999998569518,965.1000000000058,970.1999998569518,970.1999998569518,965.1000000000058,970.1999998569518,1.0,0.0,0.0,,Click Response,1_count,3.0,object-46,temp_dist_trial,28.0,s_sh_10_1,student_shared,scissors,7.0,competing,paired,s_sh_10_1.jpg,Student,$${counterbalance_group},,sub-77
Desktop or Laptop,Windows 10,Chrome 138.0.0.0,1920x1080,1920x1080,Temporal Distance Task,cb_07,29.0,temp_dist_trial,num_items,zn7si1,1.0,response,1_ITEM,2381.5000000000146,2374.6000000000063,2381.5000000000146,2381.5000000000146,2374.6000000000063,2381.5000000000146,1.0,0.0,0.0,,Click Response,1_count,3.0,object-46,temp_dist_trial,29.0,s_sh_23_1,student_shared,ballpoint pen,7.0,competing,paired,s_sh_23_1.jpg,Student,$${counterbalance_group},,sub-77
Desktop or Laptop,Windows 10,Chrome 138.0.0.0,1920x1080,1920x1080,Temporal Distance Task,cb_07,30.0,temp_dist_trial,num_items,zn7si1,1.0,response,2_ITEM,1531.1999998569515,1527.400000000009,1531.1999998569515,1531.1999998569515,1527.400000000009,1531.1999998569515,1.0,0.0,0.0,,Click Response,2_count,5.0,object-49,temp_dist_trial,30.0,s_a_06_1,student_art,pastels,7.0,unique,paired,s_a_06_1.jpg,Student,$${counterbalance_group},,sub-77
Desktop or Laptop,Windows 10,Chrome 138.0.0.0,1920x1080,1920x1080,Temporal Distance Task,cb_07,30.0,temp_dist_trial,dist_items,qkpkxw,2.0,info,,2.2999998569430318,0.0,2.2999998569430318,2.2999998569430318,0.0,2.2999998569430318,1.0,0.0,0.0,,Slider,Slider,4.0,object-56,temp_dist_trial,30.0,s_a_06_1,student_art,pastels,7.0,unique,paired,s_a_06_1.jpg,Student,$${counterbalance_group},,sub-77
Desktop or Laptop,Windows 10,Chrome 138.0.0.0,1920x1080,1920x1080,Temporal Distance Task,cb_07,30.0,temp_dist_trial,dist_items,qkpkxw,2.0,continue,,4607.1999999523105,4603.399999999994,4607.1999999523105,4607.1999999523105,4603.399999999994,4607.1999999523105,1.0,0.0,0.0,,Click To Continue,Next button,7.0,object-60,temp_dist_trial,30.0,s_a_06_1,student_art,pastels,7.0,unique,paired,s_a_06_1.jpg,Student,$${counterbalance_group},,sub-77
Desktop or Laptop,Windows 10,Chrome 138.0.0.0,1920x1080,1920x1080,Temporal Distance Task,cb_07,30.0,temp_dist_trial,dist_items,qkpkxw,2.0,response,46,1159.3999999999942,4603.399999999994,4607.499999904627,1159.3999999999942,4603.399999999994,4607.499999904627,1.0,3448.099999904633,0.0,,Slider,Slider,4.0,object-56,temp_dist_trial,30.0,s_a_06_1,student_art,pastels,7.0,unique,paired,s_a_06_1.jpg,Student,$${counterbalance_group},,sub-77
Desktop or Laptop,Windows 10,Chrome 138.0.0.0,1920x1080,1920x1080,Temporal Distance Task,cb_07,31.0,temp_dist_trial,num_items,zn7si1,1.0,response,2_ITEM,1884.6999998092651,1881.3999999999944,1884.6999998092651,1884.6999998092651,1881.3999999999944,1884.6999998092651,1.0,0.0,0.0,,Click Response,2_count,5.0,object-49,temp_dist_trial,31.0,s_sh_14_1,student_shared,printer,7.0,competing,paired,s_sh_14_1.jpg,Student,$${counterbalance_group},,sub-77
Desktop or Laptop,Windows 10,Chrome 138.0.0.0,1920x1080,1920x1080,Temporal Distance Task,cb_07,31.0,temp_dist_trial,dist_items,qkpkxw,2.0,info,,2.6999999046383896,0.0,2.6999999046383896,2.6999999046383896,0.0,2.6999999046383896,1.0,0.0,0.0,,Slider,Slider,4.0,object-56,temp_dist_trial,31.0,s_sh_14_1,student_shared,printer,7.0,competing,paired,s_sh_14_1.jpg,Student,$${counterbalance_group},,sub-77
Desktop or Laptop,Windows 10,Chrome 138.0.0.0,1920x1080,1920x1080,Temporal Distance Task,cb_07,31.0,temp_dist_trial,dist_items,qkpkxw,2.0,continue,,3116.8999999523217,3110.6000000000067,3116.8999999523217,3116.8999999523217,3110.6000000000067,3116.8999999523217,1.0,0.0,0.0,,Click To Continue,Next button,7.0,object-60,temp_dist_trial,31.0,s_sh_14_1,student_shared,printer,7.0,competing,paired,s_sh_14_1.jpg,Student,$${counterbalance_group},,sub-77
Desktop or Laptop,Windows 10,Chrome 138.0.0.0,1920x1080,1920x1080,Temporal Distance Task,cb_07,31.0,temp_dist_trial,dist_items,qkpkxw,2.0,response,49,1027.7000000000116,3110.6000000000067,3117.1000000000067,1027.7000000000116,3110.6000000000067,3117.1000000000067,1.0,2089.3999999999937,0.0,,Slider,Slider,4.0,object-56,temp_dist_trial,31.0,s_sh_14_1,student_shared,printer,7.0,competing,paired,s_sh_14_1.jpg,Student,$${counterbalance_group},,sub-77
Desktop or Laptop,Windows 10,Chrome 138.0.0.0,1920x1080,1920x1080,Temporal Distance Task,cb_07,32.0,temp_dist_trial,num_items,zn7si1,1.0,response,2_ITEM,1248.6999998092654,1242.6999999999969,1248.6999998092654,1248.6999998092654,1242.6999999999969,1248.6999998092654,1.0,0.0,0.0,,Click Response,2_count,5.0,object-49,temp_dist_trial,32.0,s_sh_03_1,student_shared,highlighter,7.0,competing,paired,s_sh_03_1.jpg,Student,$${counterbalance_group},,sub-77
Desktop or Laptop,Windows 10,Chrome 138.0.0.0,1920x1080,1920x1080,Temporal Distance Task,cb_07,32.0,temp_dist_trial,dist_items,qkpkxw,2.0,info,,2.2999998569430318,0.0,2.2999998569430318,2.2999998569430318,0.0,2.2999998569430318,1.0,0.0,0.0,,Slider,Slider,4.0,object-56,temp_dist_trial,32.0,s_sh_03_1,student_shared,highlighter,7.0,competing,paired,s_sh_03_1.jpg,Student,$${counterbalance_group},,sub-77
Desktop or Laptop,Windows 10,Chrome 138.0.0.0,1920x1080,1920x1080,Temporal Distance Task,cb_07,32.0,temp_dist_trial,dist_items,qkpkxw,2.0,continue,,1286.599999809259,1284.5999999999913,1286.599999809259,1286.599999809259,1284.5999999999913,1286.599999809259,1.0,0.0,0.0,,Click To Continue,Next button,7.0,object-60,temp_dist_trial,32.0,s_sh_03_1,student_shared,highlighter,7.0,competing,paired,s_sh_03_1.jpg,Student,$${counterbalance_group},,sub-77
Desktop or Laptop,Windows 10,Chrome 138.0.0.0,1920x1080,1920x1080,Temporal Distance Task,cb_07,32.0,temp_dist_trial,dist_items,qkpkxw,2.0,response,50,562.6999999999971,1284.5999999999913,1286.8999999999942,562.6999999999971,1284.5999999999913,1286.8999999999942,1.0,724.1999999999971,0.0,,Slider,Slider,4.0,object-56,temp_dist_trial,32.0,s_sh_03_1,student_shared,highlighter,7.0,competing,paired,s_sh_03_1.jpg,Student,$${counterbalance_group},,sub-77
Desktop or Laptop,Windows 10,Chrome 138.0.0.0,1920x1080,1920x1080,Temporal Distance Task,cb_07,33.0,temp_dist_trial,num_items,zn7si1,1.0,response,1_ITEM,1143.0999999523192,1138.6999999999969,1143.0999999523192,1143.0999999523192,1138.6999999999969,1143.0999999523192,1.0,0.0,0.0,,Click Response,1_count,3.0,object-46,temp_dist_trial,33.0,s_a_08_1,student_art,sewing machine,7.0,unique,single,s_a_08_1.jpg,Student,$${counterbalance_group},,sub-77
Desktop or Laptop,Windows 10,Chrome 138.0.0.0,1920x1080,1920x1080,Temporal Distance Task,cb_07,34.0,temp_dist_trial,num_items,zn7si1,1.0,response,1_ITEM,816.999999809268,812.6000000000058,816.999999809268,816.999999809268,812.6000000000058,816.999999809268,1.0,0.0,0.0,,Click Response,1_count,3.0,object-46,temp_dist_trial,34.0,s_sh_24_1,student_shared,desk organizer,7.0,competing,paired,s_sh_24_1.jpg,Student,$${counterbalance_group},,sub-77
Desktop or Laptop,Windows 10,Chrome 138.0.0.0,1920x1080,1920x1080,Temporal Distance Task,cb_07,35.0,temp_dist_trial,num_items,zn7si1,1.0,response,2_ITEM,1176.8999999046355,1173.3000000000031,1176.8999999046355,1176.8999999046355,1173.3000000000031,1176.8999999046355,1.0,0.0,0.0,,Click Response,2_count,5.0,object-49,temp_dist_trial,35.0,s_s_08_1,student_stem,soldering iron,7.0,unique,paired,s_s_08_1.jpg,Student,$${counterbalance_group},,sub-77
Desktop or Laptop,Windows 10,Chrome 138.0.0.0,1920x1080,1920x1080,Temporal Distance Task,cb_07,35.0,temp_dist_trial,dist_items,qkpkxw,2.0,info,,2.1999998092651367,0.0,2.1999998092651367,2.1999998092651367,0.0,2.1999998092651367,1.0,0.0,0.0,,Slider,Slider,4.0,object-56,temp_dist_trial,35.0,s_s_08_1,student_stem,soldering iron,7.0,unique,paired,s_s_08_1.jpg,Student,$${counterbalance_group},,sub-77
Desktop or Laptop,Windows 10,Chrome 138.0.0.0,1920x1080,1920x1080,Temporal Distance Task,cb_07,35.0,temp_dist_trial,dist_items,qkpkxw,2.0,continue,,1940.8999998569489,1937.1000000000056,1940.8999998569489,1940.8999998569489,1937.1000000000056,1940.8999998569489,1.0,0.0,0.0,,Click To Continue,Next button,7.0,object-60,temp_dist_trial,35.0,s_s_08_1,student_stem,soldering iron,7.0,unique,paired,s_s_08_1.jpg,Student,$${counterbalance_group},,sub-77
Desktop or Laptop,Windows 10,Chrome 138.0.0.0,1920x1080,1920x1080,Temporal Distance Task,cb_07,35.0,temp_dist_trial,dist_items,qkpkxw,2.0,response,50,1027.6000000000058,1937.1000000000056,1941.0,1027.6000000000058,1937.1000000000056,1941.0,1.0,913.3999999999942,0.0,,Slider,Slider,4.0,object-56,temp_dist_trial,35.0,s_s_08_1,student_stem,soldering iron,7.0,unique,paired,s_s_08_1.jpg,Student,$${counterbalance_group},,sub-77
Desktop or Laptop,Windows 10,Chrome 138.0.0.0,1920x1080,1920x1080,Temporal Distance Task,cb_07,36.0,temp_dist_trial,num_items,zn7si1,1.0,response,1_ITEM,1320.599999809259,1319.0999999999913,1320.599999809259,1320.599999809259,1319.0999999999913,1320.599999809259,1.0,0.0,0.0,,Click Response,1_count,3.0,object-46,temp_dist_trial,36.0,s_a_03_1,student_art,palette,7.0,unique,single,s_a_03_1.jpg,Student,$${counterbalance_group},,sub-77
Desktop or Laptop,Windows 10,Chrome 138.0.0.0,1920x1080,1920x1080,Temporal Distance Task,cb_07,37.0,temp_dist_trial,num_items,zn7si1,1.0,response,2_ITEM,1103.8999999999942,1097.0,1103.8999999999942,1103.8999999999942,1097.0,1103.8999999999942,1.0,0.0,0.0,,Click Response,2_count,5.0,object-49,temp_dist_trial,37.0,s_s_20_1,student_stem,dna model,7.0,unique,paired,s_s_20_1.jpg,Student,$${counterbalance_group},,sub-77
Desktop or Laptop,Windows 10,Chrome 138.0.0.0,1920x1080,1920x1080,Temporal Distance Task,cb_07,37.0,temp_dist_trial,dist_items,qkpkxw,2.0,info,,2.199999856951764,0.0,2.199999856951764,2.199999856951764,0.0,2.199999856951764,1.0,0.0,0.0,,Slider,Slider,4.0,object-56,temp_dist_trial,37.0,s_s_20_1,student_stem,dna model,7.0,unique,paired,s_s_20_1.jpg,Student,$${counterbalance_group},,sub-77
Desktop or Laptop,Windows 10,Chrome 138.0.0.0,1920x1080,1920x1080,Temporal Distance Task,cb_07,37.0,temp_dist_trial,dist_items,qkpkxw,2.0,continue,,1362.999999809268,1360.8000000000031,1362.999999809268,1362.999999809268,1360.8000000000031,1362.999999809268,1.0,0.0,0.0,,Click To Continue,Next button,7.0,object-60,temp_dist_trial,37.0,s_s_20_1,student_stem,dna model,7.0,unique,paired,s_s_20_1.jpg,Student,$${counterbalance_group},,sub-77
Desktop or Laptop,Windows 10,Chrome 138.0.0.0,1920x1080,1920x1080,Temporal Distance Task,cb_07,37.0,temp_dist_trial,dist_items,qkpkxw,2.0,response,48,548.5,1360.8000000000031,1363.1999998569518,548.5,1360.8000000000031,1363.1999998569518,1.0,814.6999998569518,0.0,,Slider,Slider,4.0,object-56,temp_dist_trial,37.0,s_s_20_1,student_stem,dna model,7.0,unique,paired,s_s_20_1.jpg,Student,$${counterbalance_group},,sub-77
Desktop or Laptop,Windows 10,Chrome 138.0.0.0,1920x1080,1920x1080,Temporal Distance Task,cb_07,38.0,temp_dist_trial,num_items,zn7si1,1.0,response,1_ITEM,914.1999998092653,909.6000000000058,914.1999998092653,914.1999998092653,909.6000000000058,914.1999998092653,1.0,0.0,0.0,,Click Response,1_count,3.0,object-46,temp_dist_trial,38.0,s_sh_22_1,student_shared,hole puncher,7.0,competing,single,s_sh_22_1.jpg,Student,$${counterbalance_group},,sub-77
Desktop or Laptop,Windows 10,Chrome 138.0.0.0,1920x1080,1920x1080,Temporal Distance Task,cb_07,39.0,temp_dist_trial,num_items,zn7si1,1.0,response,1_ITEM,842.799999856943,840.1000000000058,842.799999856943,842.799999856943,840.1000000000058,842.799999856943,1.0,0.0,0.0,,Click Response,1_count,3.0,object-46,temp_dist_trial,39.0,s_sh_19_1,student_shared,portable plastic drawer,7.0,competing,paired,s_sh_19_1.jpg,Student,$${counterbalance_group},,sub-77
Desktop or Laptop,Windows 10,Chrome 138.0.0.0,1920x1080,1920x1080,Temporal Distance Task,cb_07,40.0,temp_dist_trial,num_items,zn7si1,1.0,response,1_ITEM,724.0999998092592,722.0,724.0999998092592,724.0999998092592,722.0,724.0999998092592,1.0,0.0,0.0,,Click Response,1_count,3.0,object-46,temp_dist_trial,40.0,s_sh_08_1,student_shared,post-its,7.0,competing,single,s_sh_08_1.jpg,Student,$${counterbalance_group},,sub-77
Desktop or Laptop,Windows 10,Chrome 138.0.0.0,1920x1080,1920x1080,Temporal Distance Task,cb_07,41.0,temp_dist_trial,num_items,zn7si1,1.0,response,2_ITEM,1169.0999999523046,1166.2999999999886,1169.0999999523046,1169.0999999523046,1166.2999999999886,1169.0999999523046,1.0,0.0,0.0,,Click Response,2_count,5.0,object-49,temp_dist_trial,41.0,s_a_15_1,student_art,drum kit,7.0,unique,paired,s_a_15_1.jpg,Student,$${counterbalance_group},,sub-77
Desktop or Laptop,Windows 10,Chrome 138.0.0.0,1920x1080,1920x1080,Temporal Distance Task,cb_07,41.0,temp_dist_trial,dist_items,qkpkxw,2.0,info,,2.4999998569546733,0.0,2.4999998569546733,2.4999998569546733,0.0,2.4999998569546733,1.0,0.0,0.0,,Slider,Slider,4.0,object-56,temp_dist_trial,41.0,s_a_15_1,student_art,drum kit,7.0,unique,paired,s_a_15_1.jpg,Student,$${counterbalance_group},,sub-77
Desktop or Laptop,Windows 10,Chrome 138.0.0.0,1920x1080,1920x1080,Temporal Distance Task,cb_07,41.0,temp_dist_trial,dist_items,qkpkxw,2.0,continue,,1460.9999998569547,1458.2000000000116,1460.9999998569547,1460.9999998569547,1458.2000000000116,1460.9999998569547,1.0,0.0,0.0,,Click To Continue,Next button,7.0,object-60,temp_dist_trial,41.0,s_a_15_1,student_art,drum kit,7.0,unique,paired,s_a_15_1.jpg,Student,$${counterbalance_group},,sub-77
Desktop or Laptop,Windows 10,Chrome 138.0.0.0,1920x1080,1920x1080,Temporal Distance Task,cb_07,41.0,temp_dist_trial,dist_items,qkpkxw,2.0,response,41,673.6000000000057,1458.2000000000116,1461.299999809271,673.6000000000057,1458.2000000000116,1461.299999809271,1.0,787.6999998092651,0.0,,Slider,Slider,4.0,object-56,temp_dist_trial,41.0,s_a_15_1,student_art,drum kit,7.0,unique,paired,s_a_15_1.jpg,Student,$${counterbalance_group},,sub-77
Desktop or Laptop,Windows 10,Chrome 138.0.0.0,1920x1080,1920x1080,Temporal Distance Task,cb_07,42.0,temp_dist_trial,num_items,zn7si1,1.0,response,1_ITEM,940.9999999046267,937.1999999999823,940.9999999046267,940.9999999046267,937.1999999999823,940.9999999046267,1.0,0.0,0.0,,Click Response,1_count,3.0,object-46,temp_dist_trial,42.0,s_s_06_1,student_stem,calculator,7.0,unique,paired,s_s_06_1.jpg,Student,$${counterbalance_group},,sub-77
Desktop or Laptop,Windows 10,Chrome 138.0.0.0,1920x1080,1920x1080,Temporal Distance Task,cb_07,43.0,temp_dist_trial,num_items,zn7si1,1.0,response,1_ITEM,969.499999952328,965.0,969.499999952328,969.499999952328,965.0,969.499999952328,1.0,0.0,0.0,,Click Response,1_count,3.0,object-46,temp_dist_trial,43.0,s_s_13_1,student_stem,telescope,7.0,unique,single,s_s_13_1.jpg,Student,$${counterbalance_group},,sub-77
Desktop or Laptop,Windows 10,Chrome 138.0.0.0,1920x1080,1920x1080,Temporal Distance Task,cb_07,44.0,temp_dist_trial,num_items,zn7si1,1.0,response,1_ITEM,921.2999999523164,916.2999999999884,921.2999999523164,921.2999999523164,916.2999999999884,921.2999999523164,1.0,0.0,0.0,,Click Response,1_count,3.0,object-46,temp_dist_trial,44.0,s_a_13_1,student_art,violin,7.0,unique,single,s_a_13_1.jpg,Student,$${counterbalance_group},,sub-77
Desktop or Laptop,Windows 10,Chrome 138.0.0.0,1920x1080,1920x1080,Temporal Distance Task,cb_07,45.0,temp_dist_trial,num_items,zn7si1,1.0,response,2_ITEM,981.0,978.7999999999884,981.0,981.0,978.7999999999884,981.0,1.0,0.0,0.0,,Click Response,2_count,5.0,object-49,temp_dist_trial,45.0,s_sh_15_1,student_shared,usb drive,7.0,competing,paired,s_sh_15_1.jpg,Student,$${counterbalance_group},,sub-77
Desktop or Laptop,Windows 10,Chrome 138.0.0.0,1920x1080,1920x1080,Temporal Distance Task,cb_07,45.0,temp_dist_trial,dist_items,qkpkxw,2.0,info,,2.199999856937211,0.0,2.199999856937211,2.199999856937211,0.0,2.199999856937211,1.0,0.0,0.0,,Slider,Slider,4.0,object-56,temp_dist_trial,45.0,s_sh_15_1,student_shared,usb drive,7.0,competing,paired,s_sh_15_1.jpg,Student,$${counterbalance_group},,sub-77
Desktop or Laptop,Windows 10,Chrome 138.0.0.0,1920x1080,1920x1080,Temporal Distance Task,cb_07,45.0,temp_dist_trial,dist_items,qkpkxw,2.0,continue,,1283.4999998092535,1277.6999999999825,1283.4999998092535,1283.4999998092535,1277.6999999999825,1283.4999998092535,1.0,0.0,0.0,,Click To Continue,Next button,7.0,object-60,temp_dist_trial,45.0,s_sh_15_1,student_shared,usb drive,7.0,competing,paired,s_sh_15_1.jpg,Student,$${counterbalance_group},,sub-77
Desktop or Laptop,Windows 10,Chrome 138.0.0.0,1920x1080,1920x1080,Temporal Distance Task,cb_07,45.0,temp_dist_trial,dist_items,qkpkxw,2.0,response,52,493.0999999999767,1277.6999999999825,1283.899999904621,493.0999999999767,1277.6999999999825,1283.899999904621,1.0,790.7999999046443,0.0,,Slider,Slider,4.0,object-56,temp_dist_trial,45.0,s_sh_15_1,student_shared,usb drive,7.0,competing,paired,s_sh_15_1.jpg,Student,$${counterbalance_group},,sub-77
Desktop or Laptop,Windows 10,Chrome 138.0.0.0,1920x1080,1920x1080,Temporal Distance Task,cb_07,46.0,temp_dist_trial,num_items,zn7si1,1.0,response,1_ITEM,794.3999999523221,791.3999999999942,794.3999999523221,794.3999999523221,791.3999999999942,794.3999999523221,1.0,0.0,0.0,,Click Response,1_count,3.0,object-46,temp_dist_trial,46.0,s_s_14_1,student_stem,funnel,7.0,unique,single,s_s_14_1.jpg,Student,$${counterbalance_group},,sub-77
Desktop or Laptop,Windows 10,Chrome 138.0.0.0,1920x1080,1920x1080,Temporal Distance Task,cb_07,47.0,temp_dist_trial,num_items,zn7si1,1.0,response,1_ITEM,565.1000000000057,562.2000000000116,565.1000000000057,565.1000000000057,562.2000000000116,565.1000000000057,1.0,0.0,0.0,,Click Response,1_count,3.0,object-46,temp_dist_trial,47.0,s_s_19_1,student_stem,circuit board,7.0,unique,paired,s_s_19_1.jpg,Student,$${counterbalance_group},,sub-77
Desktop or Laptop,Windows 10,Chrome 138.0.0.0,1920x1080,1920x1080,Temporal Distance Task,cb_07,48.0,temp_dist_trial,num_items,zn7si1,1.0,response,1_ITEM,615.9999998092535,610.8999999999943,615.9999998092535,615.9999998092535,610.8999999999943,615.9999998092535,1.0,0.0,0.0,,Click Response,1_count,3.0,object-46,temp_dist_trial,48.0,s_sh_09_1,student_shared,paper clips,7.0,competing,single,s_sh_09_1.jpg,Student,$${counterbalance_group},,sub-77
Desktop or Laptop,Windows 10,Chrome 138.0.0.0,1920x1080,1920x1080,Temporal Distance Task,cb_07,2.0,temp_eventStart,Screen 1,dgtyxe,1.0,continue,,6550.799999856943,6547.399999999994,6550.799999856943,6550.799999856943,6547.399999999994,6550.799999856943,1.0,0.0,0.0,,Click To Continue,Next Button,3.0,object-43,temp_eventStart,,,Travel,,,,,,,$${counterbalance_group},,sub-77
Desktop or Laptop,Windows 10,Chrome 138.0.0.0,1920x1080,1920x1080,Temporal Distance Task,cb_07,49.0,temp_dist_trial,num_items,zn7si1,1.0,response,1_ITEM,2196.599999904633,2193.8999999999937,2196.599999904633,2196.599999904633,2193.8999999999937,2196.599999904633,1.0,0.0,0.0,,Click Response,1_count,3.0,object-46,temp_dist_trial,1.0,t_i_04_1,travel_Iceland,portable camping stove,7.0,unique,paired,t_i_04_1.jpg,Travel,$${counterbalance_group},,sub-77
Desktop or Laptop,Windows 10,Chrome 138.0.0.0,1920x1080,1920x1080,Temporal Distance Task,cb_07,50.0,temp_dist_trial,num_items,zn7si1,1.0,response,1_ITEM,947.799999809271,944.2000000000116,947.799999809271,947.799999809271,944.2000000000116,947.799999809271,1.0,0.0,0.0,,Click Response,1_count,3.0,object-46,temp_dist_trial,2.0,t_i_17_1,travel_Iceland,binoculars,7.0,unique,single,t_i_17_1.jpg,Travel,$${counterbalance_group},,sub-77
Desktop or Laptop,Windows 10,Chrome 138.0.0.0,1920x1080,1920x1080,Temporal Distance Task,cb_07,51.0,temp_dist_trial,num_items,zn7si1,1.0,response,1_ITEM,1139.9999999046267,1138.6000000000058,1139.9999999046267,1139.9999999046267,1138.6000000000058,1139.9999999046267,1.0,0.0,0.0,,Click Response,1_count,3.0,object-46,temp_dist_trial,3.0,t_m_04_1,travel_Miami,UV jacket,7.0,unique,single,t_m_04_1.jpg,Travel,$${counterbalance_group},,sub-77
Desktop or Laptop,Windows 10,Chrome 138.0.0.0,1920x1080,1920x1080,Temporal Distance Task,cb_07,52.0,temp_dist_trial,num_items,zn7si1,1.0,response,1_ITEM,755.5999999523046,749.8999999999942,755.5999999523046,755.5999999523046,749.8999999999942,755.5999999523046,1.0,0.0,0.0,,Click Response,1_count,3.0,object-46,temp_dist_trial,4.0,t_m_20_1,travel_Miami,inflatable beachball,7.0,unique,single,t_m_20_1.jpg,Travel,$${counterbalance_group},,sub-77
Desktop or Laptop,Windows 10,Chrome 138.0.0.0,1920x1080,1920x1080,Temporal Distance Task,cb_07,53.0,temp_dist_trial,num_items,zn7si1,1.0,response,1_ITEM,964.299999856943,958.1000000000058,964.299999856943,964.299999856943,958.1000000000058,964.299999856943,1.0,0.0,0.0,,Click Response,1_count,3.0,object-46,temp_dist_trial,5.0,t_s_24_1,travel_shared,ear plugs,7.0,competing,single,t_s_24_1.jpg,Travel,$${counterbalance_group},,sub-77
Desktop or Laptop,Windows 10,Chrome 138.0.0.0,1920x1080,1920x1080,Temporal Distance Task,cb_07,54.0,temp_dist_trial,num_items,zn7si1,1.0,response,1_ITEM,1770.7000000000116,1763.6000000000058,1770.7000000000116,1770.7000000000116,1763.6000000000058,1770.7000000000116,1.0,0.0,0.0,,Click Response,1_count,3.0,object-46,temp_dist_trial,6.0,t_s_16_1,travel_shared,chapstick,7.0,competing,paired,t_s_16_1.jpg,Travel,$${counterbalance_group},,sub-77
Desktop or Laptop,Windows 10,Chrome 138.0.0.0,1920x1080,1920x1080,Temporal Distance Task,cb_07,55.0,temp_dist_trial,num_items,zn7si1,1.0,response,1_ITEM,556.8999999999942,555.3999999999942,556.8999999999942,556.8999999999942,555.3999999999942,556.8999999999942,1.0,0.0,0.0,,Click Response,1_count,3.0,object-46,temp_dist_trial,7.0,t_s_23_1,travel_shared,ball cap,7.0,competing,single,t_s_23_1.jpg,Travel,$${counterbalance_group},,sub-77
Desktop or Laptop,Windows 10,Chrome 138.0.0.0,1920x1080,1920x1080,Temporal Distance Task,cb_07,56.0,temp_dist_trial,num_items,zn7si1,1.0,response,2_ITEM,888.7999999999884,881.7999999999884,888.7999999999884,888.7999999999884,881.7999999999884,888.7999999999884,1.0,0.0,0.0,,Click Response,2_count,5.0,object-49,temp_dist_trial,8.0,t_i_11_1,travel_Iceland,headlamp,7.0,unique,paired,t_i_11_1.jpg,Travel,$${counterbalance_group},,sub-77
Desktop or Laptop,Windows 10,Chrome 138.0.0.0,1920x1080,1920x1080,Temporal Distance Task,cb_07,56.0,temp_dist_trial,dist_items,qkpkxw,2.0,info,,2.2999999999883585,0.0,2.2999999999883585,2.2999999999883585,0.0,2.2999999999883585,1.0,0.0,0.0,,Slider,Slider,4.0,object-56,temp_dist_trial,8.0,t_i_11_1,travel_Iceland,headlamp,7.0,unique,paired,t_i_11_1.jpg,Travel,$${counterbalance_group},,sub-77
Desktop or Laptop,Windows 10,Chrome 138.0.0.0,1920x1080,1920x1080,Temporal Distance Task,cb_07,56.0,temp_dist_trial,dist_items,qkpkxw,2.0,continue,,1469.6999998569372,1465.1999999999825,1469.6999998569372,1469.6999998569372,1465.1999999999825,1469.6999998569372,1.0,0.0,0.0,,Click To Continue,Next button,7.0,object-60,temp_dist_trial,8.0,t_i_11_1,travel_Iceland,headlamp,7.0,unique,paired,t_i_11_1.jpg,Travel,$${counterbalance_group},,sub-77
Desktop or Laptop,Windows 10,Chrome 138.0.0.0,1920x1080,1920x1080,Temporal Distance Task,cb_07,56.0,temp_dist_trial,dist_items,qkpkxw,2.0,response,47,652.5999999999767,1465.1999999999825,1470.0999999523044,652.5999999999767,1465.1999999999825,1470.0999999523044,1.0,817.4999999523279,0.0,,Slider,Slider,4.0,object-56,temp_dist_trial,8.0,t_i_11_1,travel_Iceland,headlamp,7.0,unique,paired,t_i_11_1.jpg,Travel,$${counterbalance_group},,sub-77
Desktop or Laptop,Windows 10,Chrome 138.0.0.0,1920x1080,1920x1080,Temporal Distance Task,cb_07,57.0,temp_dist_trial,num_items,zn7si1,1.0,response,1_ITEM,2139.6000000000063,2138.3999999999937,2139.6000000000063,2139.6000000000063,2138.3999999999937,2139.6000000000063,1.0,0.0,0.0,,Click Response,1_count,3.0,object-46,temp_dist_trial,9.0,t_i_03_1,travel_Iceland,winter jacket,7.0,unique,single,t_i_03_1.jpg,Travel,$${counterbalance_group},,sub-77
Desktop or Laptop,Windows 10,Chrome 138.0.0.0,1920x1080,1920x1080,Temporal Distance Task,cb_07,58.0,temp_dist_trial,num_items,zn7si1,1.0,response,1_ITEM,563.8999999046209,562.5,563.8999999046209,563.8999999046209,562.5,563.8999999046209,1.0,0.0,0.0,,Click Response,1_count,3.0,object-46,temp_dist_trial,10.0,t_i_12_1,travel_Iceland,tent,7.0,unique,paired,t_i_12_1.jpg,Travel,$${counterbalance_group},,sub-77
Desktop or Laptop,Windows 10,Chrome 138.0.0.0,1920x1080,1920x1080,Temporal Distance Task,cb_07,59.0,temp_dist_trial,num_items,zn7si1,1.0,response,1_ITEM,545.5999998092593,541.6000000000058,545.5999998092593,545.5999998092593,541.6000000000058,545.5999998092593,1.0,0.0,0.0,,Click Response,1_count,3.0,object-46,temp_dist_trial,11.0,t_s_15_1,travel_shared,luggage tag,7.0,competing,single,t_s_15_1.jpg,Travel,$${counterbalance_group},,sub-77
Desktop or Laptop,Windows 10,Chrome 138.0.0.0,1920x1080,1920x1080,Temporal Distance Task,cb_07,60.0,temp_dist_trial,num_items,zn7si1,1.0,response,1_ITEM,737.4999999046267,735.8999999999942,737.4999999046267,737.4999999046267,735.8999999999942,737.4999999046267,1.0,0.0,0.0,,Click Response,1_count,3.0,object-46,temp_dist_trial,12.0,t_m_05_1,travel_Miami,sunscreen,7.0,unique,paired,t_m_05_1.jpg,Travel,$${counterbalance_group},,sub-77
Desktop or Laptop,Windows 10,Chrome 138.0.0.0,1920x1080,1920x1080,Temporal Distance Task,cb_07,61.0,temp_dist_trial,num_items,zn7si1,1.0,response,1_ITEM,544.1999998092651,541.6000000000058,544.1999998092651,544.1999998092651,541.6000000000058,544.1999998092651,1.0,0.0,0.0,,Click Response,1_count,3.0,object-46,temp_dist_trial,13.0,t_s_01_1,travel_shared,fanny pack,7.0,competing,single,t_s_01_1.jpg,Travel,$${counterbalance_group},,sub-77
Desktop or Laptop,Windows 10,Chrome 138.0.0.0,1920x1080,1920x1080,Temporal Distance Task,cb_07,62.0,temp_dist_trial,num_items,zn7si1,1.0,response,2_ITEM,1041.1999999523102,1034.5,1041.1999999523102,1041.1999999523102,1034.5,1041.1999999523102,1.0,0.0,0.0,,Click Response,2_count,5.0,object-49,temp_dist_trial,14.0,t_m_09_1,travel_Miami,beach towel,7.0,unique,paired,t_m_09_1.jpg,Travel,$${counterbalance_group},,sub-77
Desktop or Laptop,Windows 10,Chrome 138.0.0.0,1920x1080,1920x1080,Temporal Distance Task,cb_07,62.0,temp_dist_trial,dist_items,qkpkxw,2.0,info,,2.1000000000058208,0.0,2.1000000000058208,2.1000000000058208,0.0,2.1000000000058208,1.0,0.0,0.0,,Slider,Slider,4.0,object-56,temp_dist_trial,14.0,t_m_09_1,travel_Miami,beach towel,7.0,unique,paired,t_m_09_1.jpg,Travel,$${counterbalance_group},,sub-77
Desktop or Laptop,Windows 10,Chrome 138.0.0.0,1920x1080,1920x1080,Temporal Distance Task,cb_07,62.0,temp_dist_trial,dist_items,qkpkxw,2.0,continue,,1189.299999809271,1187.3000000000175,1189.299999809271,1189.299999809271,1187.3000000000175,1189.299999809271,1.0,0.0,0.0,,Click To Continue,Next button,7.0,object-60,temp_dist_trial,14.0,t_m_09_1,travel_Miami,beach towel,7.0,unique,paired,t_m_09_1.jpg,Travel,$${counterbalance_group},,sub-77
Desktop or Laptop,Windows 10,Chrome 138.0.0.0,1920x1080,1920x1080,Temporal Distance Task,cb_07,62.0,temp_dist_trial,dist_items,qkpkxw,2.0,response,49,534.6000000000058,1187.3000000000175,1189.6000000000058,534.6000000000058,1187.3000000000175,1189.6000000000058,1.0,655.0,0.0,,Slider,Slider,4.0,object-56,temp_dist_trial,14.0,t_m_09_1,travel_Miami,beach towel,7.0,unique,paired,t_m_09_1.jpg,Travel,$${counterbalance_group},,sub-77
Desktop or Laptop,Windows 10,Chrome 138.0.0.0,1920x1080,1920x1080,Temporal Distance Task,cb_07,63.0,temp_dist_trial,num_items,zn7si1,1.0,response,1_ITEM,657.6999998569372,652.5999999999767,657.6999998569372,657.6999998569372,652.5999999999767,657.6999998569372,1.0,0.0,0.0,,Click Response,1_count,3.0,object-46,temp_dist_trial,15.0,t_m_07_1,travel_Miami,sunglasses,7.0,unique,paired,t_m_07_1.jpg,Travel,$${counterbalance_group},,sub-77
Desktop or Laptop,Windows 10,Chrome 138.0.0.0,1920x1080,1920x1080,Temporal Distance Task,cb_07,64.0,temp_dist_trial,num_items,zn7si1,1.0,response,2_ITEM,1093.2999999999884,1090.1999999999823,1093.2999999999884,1093.2999999999884,1090.1999999999823,1093.2999999999884,1.0,0.0,0.0,,Click Response,2_count,5.0,object-49,temp_dist_trial,16.0,t_s_09_1,travel_shared,wallet,7.0,competing,paired,t_s_09_1.jpg,Travel,$${counterbalance_group},,sub-77
Desktop or Laptop,Windows 10,Chrome 138.0.0.0,1920x1080,1920x1080,Temporal Distance Task,cb_07,64.0,temp_dist_trial,dist_items,qkpkxw,2.0,info,,2.099999856960494,0.0,2.099999856960494,2.099999856960494,0.0,2.099999856960494,1.0,0.0,0.0,,Slider,Slider,4.0,object-56,temp_dist_trial,16.0,t_s_09_1,travel_shared,wallet,7.0,competing,paired,t_s_09_1.jpg,Travel,$${counterbalance_group},,sub-77
Desktop or Laptop,Windows 10,Chrome 138.0.0.0,1920x1080,1920x1080,Temporal Distance Task,cb_07,64.0,temp_dist_trial,dist_items,qkpkxw,2.0,continue,,1976.8999998092768,1971.9000000000235,1976.8999998092768,1976.8999998092768,1971.9000000000235,1976.8999998092768,1.0,0.0,0.0,,Click To Continue,Next button,7.0,object-60,temp_dist_trial,16.0,t_s_09_1,travel_shared,wallet,7.0,competing,paired,t_s_09_1.jpg,Travel,$${counterbalance_group},,sub-77
Desktop or Laptop,Windows 10,Chrome 138.0.0.0,1920x1080,1920x1080,Temporal Distance Task,cb_07,64.0,temp_dist_trial,dist_items,qkpkxw,2.0,response,48,937.4000000000232,1971.9000000000235,1978.9000000000235,937.4000000000232,1971.9000000000235,1978.9000000000235,1.0,1041.5,0.0,,Slider,Slider,4.0,object-56,temp_dist_trial,16.0,t_s_09_1,travel_shared,wallet,7.0,competing,paired,t_s_09_1.jpg,Travel,$${counterbalance_group},,sub-77
Desktop or Laptop,Windows 10,Chrome 138.0.0.0,1920x1080,1920x1080,Temporal Distance Task,cb_07,65.0,temp_dist_trial,num_items,zn7si1,1.0,response,1_ITEM,778.3999999046208,777.5999999999768,778.3999999046208,778.3999999046208,777.5999999999768,778.3999999046208,1.0,0.0,0.0,,Click Response,1_count,3.0,object-46,temp_dist_trial,17.0,t_m_14_1,travel_Miami,swim goggles,7.0,unique,single,t_m_14_1.jpg,Travel,$${counterbalance_group},,sub-77
Desktop or Laptop,Windows 10,Chrome 138.0.0.0,1920x1080,1920x1080,Temporal Distance Task,cb_07,66.0,temp_dist_trial,num_items,zn7si1,1.0,response,2_ITEM,1032.0999998569605,1027.6000000000058,1032.0999998569605,1032.0999998569605,1027.6000000000058,1032.0999998569605,1.0,0.0,0.0,,Click Response,2_count,5.0,object-49,temp_dist_trial,18.0,t_s_03_1,travel_shared,portable charger,7.0,competing,paired,t_s_03_1.jpg,Travel,$${counterbalance_group},,sub-77
Desktop or Laptop,Windows 10,Chrome 138.0.0.0,1920x1080,1920x1080,Temporal Distance Task,cb_07,66.0,temp_dist_trial,dist_items,qkpkxw,2.0,info,,2.200000000011641,0.0,2.200000000011641,2.200000000011641,0.0,2.200000000011641,1.0,0.0,0.0,,Slider,Slider,4.0,object-56,temp_dist_trial,18.0,t_s_03_1,travel_shared,portable charger,7.0,competing,paired,t_s_03_1.jpg,Travel,$${counterbalance_group},,sub-77
Desktop or Laptop,Windows 10,Chrome 138.0.0.0,1920x1080,1920x1080,Temporal Distance Task,cb_07,66.0,temp_dist_trial,dist_items,qkpkxw,2.0,continue,,1671.2000000000116,1666.5,1671.2000000000116,1671.2000000000116,1666.5,1671.2000000000116,1.0,0.0,0.0,,Click To Continue,Next button,7.0,object-60,temp_dist_trial,18.0,t_s_03_1,travel_shared,portable charger,7.0,competing,paired,t_s_03_1.jpg,Travel,$${counterbalance_group},,sub-77
Desktop or Laptop,Windows 10,Chrome 138.0.0.0,1920x1080,1920x1080,Temporal Distance Task,cb_07,66.0,temp_dist_trial,dist_items,qkpkxw,2.0,response,50,729.1000000000058,1666.5,1671.499999952328,729.1000000000058,1666.5,1671.499999952328,1.0,942.3999999523219,0.0,,Slider,Slider,4.0,object-56,temp_dist_trial,18.0,t_s_03_1,travel_shared,portable charger,7.0,competing,paired,t_s_03_1.jpg,Travel,$${counterbalance_group},,sub-77
Desktop or Laptop,Windows 10,Chrome 138.0.0.0,1920x1080,1920x1080,Temporal Distance Task,cb_07,67.0,temp_dist_trial,num_items,zn7si1,1.0,response,2_ITEM,1264.5999998569605,1263.5,1264.5999998569605,1264.5999998569605,1263.5,1264.5999998569605,1.0,0.0,0.0,,Click Response,2_count,5.0,object-49,temp_dist_trial,19.0,t_s_20_1,travel_shared,travel pill case,7.0,competing,paired,t_s_20_1.jpg,Travel,$${counterbalance_group},,sub-77
Desktop or Laptop,Windows 10,Chrome 138.0.0.0,1920x1080,1920x1080,Temporal Distance Task,cb_07,67.0,temp_dist_trial,dist_items,qkpkxw,2.0,info,,2.199999856937211,0.0,2.199999856937211,2.199999856937211,0.0,2.199999856937211,1.0,0.0,0.0,,Slider,Slider,4.0,object-56,temp_dist_trial,19.0,t_s_20_1,travel_shared,travel pill case,7.0,competing,paired,t_s_20_1.jpg,Travel,$${counterbalance_group},,sub-77
Desktop or Laptop,Windows 10,Chrome 138.0.0.0,1920x1080,1920x1080,Temporal Distance Task,cb_07,67.0,temp_dist_trial,dist_items,qkpkxw,2.0,continue,,1794.0999999523044,1791.5,1794.0999999523044,1794.0999999523044,1791.5,1794.0999999523044,1.0,0.0,0.0,,Click To Continue,Next button,7.0,object-60,temp_dist_trial,19.0,t_s_20_1,travel_shared,travel pill case,7.0,competing,paired,t_s_20_1.jpg,Travel,$${counterbalance_group},,sub-77
Desktop or Laptop,Windows 10,Chrome 138.0.0.0,1920x1080,1920x1080,Temporal Distance Task,cb_07,67.0,temp_dist_trial,dist_items,qkpkxw,2.0,response,53,861.0,1791.5,1794.399999904621,861.0,1791.5,1794.399999904621,1.0,933.3999999046208,0.0,,Slider,Slider,4.0,object-56,temp_dist_trial,19.0,t_s_20_1,travel_shared,travel pill case,7.0,competing,paired,t_s_20_1.jpg,Travel,$${counterbalance_group},,sub-77
Desktop or Laptop,Windows 10,Chrome 138.0.0.0,1920x1080,1920x1080,Temporal Distance Task,cb_07,68.0,temp_dist_trial,num_items,zn7si1,1.0,response,2_ITEM,1055.0999999999767,1048.1999999999823,1055.0999999999767,1055.0999999999767,1048.1999999999823,1055.0999999999767,1.0,0.0,0.0,,Click Response,2_count,5.0,object-49,temp_dist_trial,20.0,t_s_21_1,travel_shared,umbrella,7.0,competing,paired,t_s_21_1.jpg,Travel,$${counterbalance_group},,sub-77
Desktop or Laptop,Windows 10,Chrome 138.0.0.0,1920x1080,1920x1080,Temporal Distance Task,cb_07,68.0,temp_dist_trial,dist_items,qkpkxw,2.0,info,,2.4999999523279257,0.0,2.4999999523279257,2.4999999523279257,0.0,2.4999999523279257,1.0,0.0,0.0,,Slider,Slider,4.0,object-56,temp_dist_trial,20.0,t_s_21_1,travel_shared,umbrella,7.0,competing,paired,t_s_21_1.jpg,Travel,$${counterbalance_group},,sub-77
Desktop or Laptop,Windows 10,Chrome 138.0.0.0,1920x1080,1920x1080,Temporal Distance Task,cb_07,68.0,temp_dist_trial,dist_items,qkpkxw,2.0,continue,,1427.2000000000116,1423.6000000000058,1427.2000000000116,1427.2000000000116,1423.6000000000058,1427.2000000000116,1.0,0.0,0.0,,Click To Continue,Next button,7.0,object-60,temp_dist_trial,20.0,t_s_21_1,travel_shared,umbrella,7.0,competing,paired,t_s_21_1.jpg,Travel,$${counterbalance_group},,sub-77
Desktop or Laptop,Windows 10,Chrome 138.0.0.0,1920x1080,1920x1080,Temporal Distance Task,cb_07,68.0,temp_dist_trial,dist_items,qkpkxw,2.0,response,59,639.0,1423.6000000000058,1427.5999998569605,639.0,1423.6000000000058,1427.5999998569605,1.0,788.5999998569605,0.0,,Slider,Slider,4.0,object-56,temp_dist_trial,20.0,t_s_21_1,travel_shared,umbrella,7.0,competing,paired,t_s_21_1.jpg,Travel,$${counterbalance_group},,sub-77
Desktop or Laptop,Windows 10,Chrome 138.0.0.0,1920x1080,1920x1080,Temporal Distance Task,cb_07,69.0,temp_dist_trial,num_items,zn7si1,1.0,response,2_ITEM,915.3999999523219,909.3999999999942,915.3999999523219,915.3999999523219,909.3999999999942,915.3999999523219,1.0,0.0,0.0,,Click Response,2_count,5.0,object-49,temp_dist_trial,21.0,t_i_16_1,travel_Iceland,skis,7.0,unique,paired,t_i_16_1.jpg,Travel,$${counterbalance_group},,sub-77
Desktop or Laptop,Windows 10,Chrome 138.0.0.0,1920x1080,1920x1080,Temporal Distance Task,cb_07,69.0,temp_dist_trial,dist_items,qkpkxw,2.0,info,,2.199999856937211,0.0,2.199999856937211,2.199999856937211,0.0,2.199999856937211,1.0,0.0,0.0,,Slider,Slider,4.0,object-56,temp_dist_trial,21.0,t_i_16_1,travel_Iceland,skis,7.0,unique,paired,t_i_16_1.jpg,Travel,$${counterbalance_group},,sub-77
Desktop or Laptop,Windows 10,Chrome 138.0.0.0,1920x1080,1920x1080,Temporal Distance Task,cb_07,69.0,temp_dist_trial,dist_items,qkpkxw,2.0,continue,,1416.6999999999825,1409.6999999999825,1416.6999999999825,1416.6999999999825,1409.6999999999825,1416.6999999999825,1.0,0.0,0.0,,Click To Continue,Next button,7.0,object-60,temp_dist_trial,21.0,t_i_16_1,travel_Iceland,skis,7.0,unique,paired,t_i_16_1.jpg,Travel,$${counterbalance_group},,sub-77
Desktop or Laptop,Windows 10,Chrome 138.0.0.0,1920x1080,1920x1080,Temporal Distance Task,cb_07,69.0,temp_dist_trial,dist_items,qkpkxw,2.0,response,42,673.5999999999767,1409.6999999999825,1416.6999999999825,673.5999999999767,1409.6999999999825,1416.6999999999825,1.0,743.1000000000058,0.0,,Slider,Slider,4.0,object-56,temp_dist_trial,21.0,t_i_16_1,travel_Iceland,skis,7.0,unique,paired,t_i_16_1.jpg,Travel,$${counterbalance_group},,sub-77
Desktop or Laptop,Windows 10,Chrome 138.0.0.0,1920x1080,1920x1080,Temporal Distance Task,cb_07,70.0,temp_dist_trial,num_items,zn7si1,1.0,response,2_ITEM,692.6999999046384,687.2000000000116,692.6999999046384,692.6999999046384,687.2000000000116,692.6999999046384,1.0,0.0,0.0,,Click Response,2_count,5.0,object-49,temp_dist_trial,22.0,t_s_06_1,travel_shared,luggage,7.0,competing,paired,t_s_06_1.jpg,Travel,$${counterbalance_group},,sub-77
Desktop or Laptop,Windows 10,Chrome 138.0.0.0,1920x1080,1920x1080,Temporal Distance Task,cb_07,70.0,temp_dist_trial,dist_items,qkpkxw,2.0,info,,2.5999999046325684,0.0,2.5999999046325684,2.5999999046325684,0.0,2.5999999046325684,1.0,0.0,0.0,,Slider,Slider,4.0,object-56,temp_dist_trial,22.0,t_s_06_1,travel_shared,luggage,7.0,competing,paired,t_s_06_1.jpg,Travel,$${counterbalance_group},,sub-77
Desktop or Laptop,Windows 10,Chrome 138.0.0.0,1920x1080,1920x1080,Temporal Distance Task,cb_07,70.0,temp_dist_trial,dist_items,qkpkxw,2.0,continue,,1480.1999998092651,1478.8999999999942,1480.1999998092651,1480.1999998092651,1478.8999999999942,1480.1999998092651,1.0,0.0,0.0,,Click To Continue,Next button,7.0,object-60,temp_dist_trial,22.0,t_s_06_1,travel_shared,luggage,7.0,competing,paired,t_s_06_1.jpg,Travel,$${counterbalance_group},,sub-77
Desktop or Laptop,Windows 10,Chrome 138.0.0.0,1920x1080,1920x1080,Temporal Distance Task,cb_07,70.0,temp_dist_trial,dist_items,qkpkxw,2.0,response,57,611.2000000000116,1478.8999999999942,1480.5,611.2000000000116,1478.8999999999942,1480.5,1.0,869.2999999999884,0.0,,Slider,Slider,4.0,object-56,temp_dist_trial,22.0,t_s_06_1,travel_shared,luggage,7.0,competing,paired,t_s_06_1.jpg,Travel,$${counterbalance_group},,sub-77
Desktop or Laptop,Windows 10,Chrome 138.0.0.0,1920x1080,1920x1080,Temporal Distance Task,cb_07,71.0,temp_dist_trial,num_items,zn7si1,1.0,response,2_ITEM,1004.299999809271,1000.0,1004.299999809271,1004.299999809271,1000.0,1004.299999809271,1.0,0.0,0.0,,Click Response,2_count,5.0,object-49,temp_dist_trial,23.0,t_s_05_1,travel_shared,neck pillow,7.0,competing,paired,t_s_05_1.jpg,Travel,$${counterbalance_group},,sub-77
Desktop or Laptop,Windows 10,Chrome 138.0.0.0,1920x1080,1920x1080,Temporal Distance Task,cb_07,71.0,temp_dist_trial,dist_items,qkpkxw,2.0,info,,2.199999856937211,0.0,2.199999856937211,2.199999856937211,0.0,2.199999856937211,1.0,0.0,0.0,,Slider,Slider,4.0,object-56,temp_dist_trial,23.0,t_s_05_1,travel_shared,neck pillow,7.0,competing,paired,t_s_05_1.jpg,Travel,$${counterbalance_group},,sub-77
Desktop or Laptop,Windows 10,Chrome 138.0.0.0,1920x1080,1920x1080,Temporal Distance Task,cb_07,71.0,temp_dist_trial,dist_items,qkpkxw,2.0,continue,,1298.0999999523046,1291.5,1298.0999999523046,1298.0999999523046,1291.5,1298.0999999523046,1.0,0.0,0.0,,Click To Continue,Next button,7.0,object-60,temp_dist_trial,23.0,t_s_05_1,travel_shared,neck pillow,7.0,competing,paired,t_s_05_1.jpg,Travel,$${counterbalance_group},,sub-77
Desktop or Laptop,Windows 10,Chrome 138.0.0.0,1920x1080,1920x1080,Temporal Distance Task,cb_07,71.0,temp_dist_trial,dist_items,qkpkxw,2.0,response,57,645.7999999999884,1291.5,1298.399999904621,645.7999999999884,1291.5,1298.399999904621,1.0,652.5999999046327,0.0,,Slider,Slider,4.0,object-56,temp_dist_trial,23.0,t_s_05_1,travel_shared,neck pillow,7.0,competing,paired,t_s_05_1.jpg,Travel,$${counterbalance_group},,sub-77
Desktop or Laptop,Windows 10,Chrome 138.0.0.0,1920x1080,1920x1080,Temporal Distance Task,cb_07,72.0,temp_dist_trial,num_items,zn7si1,1.0,response,2_ITEM,1325.899999904621,1319.0,1325.899999904621,1325.899999904621,1319.0,1325.899999904621,1.0,0.0,0.0,,Click Response,2_count,5.0,object-49,temp_dist_trial,24.0,t_s_12_1,travel_shared,clear toiletry bag,7.0,competing,paired,t_s_12_1.jpg,Travel,$${counterbalance_group},,sub-77
Desktop or Laptop,Windows 10,Chrome 138.0.0.0,1920x1080,1920x1080,Temporal Distance Task,cb_07,72.0,temp_dist_trial,dist_items,qkpkxw,2.0,info,,2.2999998569430318,0.0,2.2999998569430318,2.2999998569430318,0.0,2.2999998569430318,1.0,0.0,0.0,,Slider,Slider,4.0,object-56,temp_dist_trial,24.0,t_s_12_1,travel_shared,clear toiletry bag,7.0,competing,paired,t_s_12_1.jpg,Travel,$${counterbalance_group},,sub-77
Desktop or Laptop,Windows 10,Chrome 138.0.0.0,1920x1080,1920x1080,Temporal Distance Task,cb_07,72.0,temp_dist_trial,dist_items,qkpkxw,2.0,continue,,1370.3999999999942,1368.0,1370.3999999999942,1370.3999999999942,1368.0,1370.3999999999942,1.0,0.0,0.0,,Click To Continue,Next button,7.0,object-60,temp_dist_trial,24.0,t_s_12_1,travel_shared,clear toiletry bag,7.0,competing,paired,t_s_12_1.jpg,Travel,$${counterbalance_group},,sub-77
Desktop or Laptop,Windows 10,Chrome 138.0.0.0,1920x1080,1920x1080,Temporal Distance Task,cb_07,72.0,temp_dist_trial,dist_items,qkpkxw,2.0,response,55,604.1999999999825,1368.0,1370.799999856943,604.1999999999825,1368.0,1370.799999856943,1.0,766.5999998569605,0.0,,Slider,Slider,4.0,object-56,temp_dist_trial,24.0,t_s_12_1,travel_shared,clear toiletry bag,7.0,competing,paired,t_s_12_1.jpg,Travel,$${counterbalance_group},,sub-77
Desktop or Laptop,Windows 10,Chrome 138.0.0.0,1920x1080,1920x1080,Temporal Distance Task,cb_07,73.0,temp_dist_trial,num_items,zn7si1,1.0,response,1_ITEM,1203.9999999046267,1201.0,1203.9999999046267,1203.9999999046267,1201.0,1203.9999999046267,1.0,0.0,0.0,,Click Response,1_count,3.0,object-46,temp_dist_trial,25.0,t_s_10_1,travel_shared,luggage lock,7.0,competing,single,t_s_10_1.jpg,Travel,$${counterbalance_group},,sub-77
Desktop or Laptop,Windows 10,Chrome 138.0.0.0,1920x1080,1920x1080,Temporal Distance Task,cb_07,74.0,temp_dist_trial,num_items,zn7si1,1.0,response,2_ITEM,1064.399999904621,1062.1999999999823,1064.399999904621,1064.399999904621,1062.1999999999823,1064.399999904621,1.0,0.0,0.0,,Click Response,2_count,5.0,object-49,temp_dist_trial,26.0,t_s_22_1,travel_shared,belt,7.0,competing,paired,t_s_22_1.jpg,Travel,$${counterbalance_group},,sub-77
Desktop or Laptop,Windows 10,Chrome 138.0.0.0,1920x1080,1920x1080,Temporal Distance Task,cb_07,74.0,temp_dist_trial,dist_items,qkpkxw,2.0,info,,2.29999990464421,0.0,2.29999990464421,2.29999990464421,0.0,2.29999990464421,1.0,0.0,0.0,,Slider,Slider,4.0,object-56,temp_dist_trial,26.0,t_s_22_1,travel_shared,belt,7.0,competing,paired,t_s_22_1.jpg,Travel,$${counterbalance_group},,sub-77
Desktop or Laptop,Windows 10,Chrome 138.0.0.0,1920x1080,1920x1080,Temporal Distance Task,cb_07,74.0,temp_dist_trial,dist_items,qkpkxw,2.0,continue,,1186.0999998569605,1180.5,1186.0999998569605,1186.0999998569605,1180.5,1186.0999998569605,1.0,0.0,0.0,,Click To Continue,Next button,7.0,object-60,temp_dist_trial,26.0,t_s_22_1,travel_shared,belt,7.0,competing,paired,t_s_22_1.jpg,Travel,$${counterbalance_group},,sub-77
Desktop or Laptop,Windows 10,Chrome 138.0.0.0,1920x1080,1920x1080,Temporal Distance Task,cb_07,74.0,temp_dist_trial,dist_items,qkpkxw,2.0,response,57,520.8000000000175,1180.5,1186.2999999046442,520.8000000000175,1180.5,1186.2999999046442,1.0,665.4999999046267,0.0,,Slider,Slider,4.0,object-56,temp_dist_trial,26.0,t_s_22_1,travel_shared,belt,7.0,competing,paired,t_s_22_1.jpg,Travel,$${counterbalance_group},,sub-77
Desktop or Laptop,Windows 10,Chrome 138.0.0.0,1920x1080,1920x1080,Temporal Distance Task,cb_07,75.0,temp_dist_trial,num_items,zn7si1,1.0,response,1_ITEM,1547.0999998569605,1541.2000000000116,1547.0999998569605,1547.0999998569605,1541.2000000000116,1547.0999998569605,1.0,0.0,0.0,,Click Response,1_count,3.0,object-46,temp_dist_trial,27.0,t_s_07_1,travel_shared,phone charger cable,7.0,competing,paired,t_s_07_1.jpg,Travel,$${counterbalance_group},,sub-77
Desktop or Laptop,Windows 10,Chrome 138.0.0.0,1920x1080,1920x1080,Temporal Distance Task,cb_07,76.0,temp_dist_trial,num_items,zn7si1,1.0,response,2_ITEM,936.3999998569487,930.3999999999942,936.3999998569487,936.3999998569487,930.3999999999942,936.3999998569487,1.0,0.0,0.0,,Click Response,2_count,5.0,object-49,temp_dist_trial,28.0,t_m_03_1,travel_Miami,wetsuit,7.0,unique,paired,t_m_03_1.jpg,Travel,$${counterbalance_group},,sub-77
Desktop or Laptop,Windows 10,Chrome 138.0.0.0,1920x1080,1920x1080,Temporal Distance Task,cb_07,76.0,temp_dist_trial,dist_items,qkpkxw,2.0,info,,2.4999999523279257,0.0,2.4999999523279257,2.4999999523279257,0.0,2.4999999523279257,1.0,0.0,0.0,,Slider,Slider,4.0,object-56,temp_dist_trial,28.0,t_m_03_1,travel_Miami,wetsuit,7.0,unique,paired,t_m_03_1.jpg,Travel,$${counterbalance_group},,sub-77
Desktop or Laptop,Windows 10,Chrome 138.0.0.0,1920x1080,1920x1080,Temporal Distance Task,cb_07,76.0,temp_dist_trial,dist_items,qkpkxw,2.0,continue,,1661.0999998569605,1659.5,1661.0999998569605,1661.0999998569605,1659.5,1661.0999998569605,1.0,0.0,0.0,,Click To Continue,Next button,7.0,object-60,temp_dist_trial,28.0,t_m_03_1,travel_Miami,wetsuit,7.0,unique,paired,t_m_03_1.jpg,Travel,$${counterbalance_group},,sub-77
Desktop or Laptop,Windows 10,Chrome 138.0.0.0,1920x1080,1920x1080,Temporal Distance Task,cb_07,76.0,temp_dist_trial,dist_items,qkpkxw,2.0,response,42,507.0,1659.5,1661.2999999046442,507.0,1659.5,1661.2999999046442,1.0,1154.2999999046442,0.0,,Slider,Slider,4.0,object-56,temp_dist_trial,28.0,t_m_03_1,travel_Miami,wetsuit,7.0,unique,paired,t_m_03_1.jpg,Travel,$${counterbalance_group},,sub-77
Desktop or Laptop,Windows 10,Chrome 138.0.0.0,1920x1080,1920x1080,Temporal Distance Task,cb_07,77.0,temp_dist_trial,num_items,zn7si1,1.0,response,2_ITEM,1246.999999952328,1242.7000000000114,1246.999999952328,1246.999999952328,1242.7000000000114,1246.999999952328,1.0,0.0,0.0,,Click Response,2_count,5.0,object-49,temp_dist_trial,29.0,t_s_02_1,travel_shared,water bottle,7.0,competing,paired,t_s_02_1.jpg,Travel,$${counterbalance_group},,sub-77
Desktop or Laptop,Windows 10,Chrome 138.0.0.0,1920x1080,1920x1080,Temporal Distance Task,cb_07,77.0,temp_dist_trial,dist_items,qkpkxw,2.0,info,,2.1999998092651367,0.0,2.1999998092651367,2.1999998092651367,0.0,2.1999998092651367,1.0,0.0,0.0,,Slider,Slider,4.0,object-56,temp_dist_trial,29.0,t_s_02_1,travel_shared,water bottle,7.0,competing,paired,t_s_02_1.jpg,Travel,$${counterbalance_group},,sub-77
Desktop or Laptop,Windows 10,Chrome 138.0.0.0,1920x1080,1920x1080,Temporal Distance Task,cb_07,77.0,temp_dist_trial,dist_items,qkpkxw,2.0,continue,,1320.7999999523165,1319.2000000000114,1320.7999999523165,1320.7999999523165,1319.2000000000114,1320.7999999523165,1.0,0.0,0.0,,Click To Continue,Next button,7.0,object-60,temp_dist_trial,29.0,t_s_02_1,travel_shared,water bottle,7.0,competing,paired,t_s_02_1.jpg,Travel,$${counterbalance_group},,sub-77
Desktop or Laptop,Windows 10,Chrome 138.0.0.0,1920x1080,1920x1080,Temporal Distance Task,cb_07,77.0,temp_dist_trial,dist_items,qkpkxw,2.0,response,64,590.2999999999884,1319.2000000000114,1322.8999998569486,590.2999999999884,1319.2000000000114,1322.8999998569486,1.0,732.5999998569605,0.0,,Slider,Slider,4.0,object-56,temp_dist_trial,29.0,t_s_02_1,travel_shared,water bottle,7.0,competing,paired,t_s_02_1.jpg,Travel,$${counterbalance_group},,sub-77
Desktop or Laptop,Windows 10,Chrome 138.0.0.0,1920x1080,1920x1080,Temporal Distance Task,cb_07,78.0,temp_dist_trial,num_items,zn7si1,1.0,response,2_ITEM,831.7999999999884,826.2999999999884,831.7999999999884,831.7999999999884,826.2999999999884,831.7999999999884,1.0,0.0,0.0,,Click Response,2_count,5.0,object-49,temp_dist_trial,30.0,t_s_14_1,travel_shared,hand sanitizer,7.0,competing,paired,t_s_14_1.jpg,Travel,$${counterbalance_group},,sub-77
Desktop or Laptop,Windows 10,Chrome 138.0.0.0,1920x1080,1920x1080,Temporal Distance Task,cb_07,78.0,temp_dist_trial,dist_items,qkpkxw,2.0,info,,2.6999999046383896,0.0,2.6999999046383896,2.6999999046383896,0.0,2.6999999046383896,1.0,0.0,0.0,,Slider,Slider,4.0,object-56,temp_dist_trial,30.0,t_s_14_1,travel_shared,hand sanitizer,7.0,competing,paired,t_s_14_1.jpg,Travel,$${counterbalance_group},,sub-77
Desktop or Laptop,Windows 10,Chrome 138.0.0.0,1920x1080,1920x1080,Temporal Distance Task,cb_07,78.0,temp_dist_trial,dist_items,qkpkxw,2.0,continue,,1036.499999856955,1034.5,1036.499999856955,1036.499999856955,1034.5,1036.499999856955,1.0,0.0,0.0,,Click To Continue,Next button,7.0,object-60,temp_dist_trial,30.0,t_s_14_1,travel_shared,hand sanitizer,7.0,competing,paired,t_s_14_1.jpg,Travel,$${counterbalance_group},,sub-77
Desktop or Laptop,Windows 10,Chrome 138.0.0.0,1920x1080,1920x1080,Temporal Distance Task,cb_07,78.0,temp_dist_trial,dist_items,qkpkxw,2.0,response,46,409.7000000000117,1034.5,1036.6999999046384,409.7000000000117,1034.5,1036.6999999046384,1.0,626.9999999046267,0.0,,Slider,Slider,4.0,object-56,temp_dist_trial,30.0,t_s_14_1,travel_shared,hand sanitizer,7.0,competing,paired,t_s_14_1.jpg,Travel,$${counterbalance_group},,sub-77
Desktop or Laptop,Windows 10,Chrome 138.0.0.0,1920x1080,1920x1080,Temporal Distance Task,cb_07,79.0,temp_dist_trial,num_items,zn7si1,1.0,response,1_ITEM,1275.6000000000058,1270.6000000000058,1275.6000000000058,1275.6000000000058,1270.6000000000058,1275.6000000000058,1.0,0.0,0.0,,Click Response,1_count,3.0,object-46,temp_dist_trial,31.0,t_m_10_1,travel_Miami,tanktop,7.0,unique,single,t_m_10_1.jpg,Travel,$${counterbalance_group},,sub-77
Desktop or Laptop,Windows 10,Chrome 138.0.0.0,1920x1080,1920x1080,Temporal Distance Task,cb_07,80.0,temp_dist_trial,num_items,zn7si1,1.0,response,2_ITEM,912.5,909.6000000000058,912.5,912.5,909.6000000000058,912.5,1.0,0.0,0.0,,Click Response,2_count,5.0,object-49,temp_dist_trial,32.0,t_m_11_1,travel_Miami,collapsible beach chair,7.0,unique,paired,t_m_11_1.jpg,Travel,$${counterbalance_group},,sub-77
Desktop or Laptop,Windows 10,Chrome 138.0.0.0,1920x1080,1920x1080,Temporal Distance Task,cb_07,80.0,temp_dist_trial,dist_items,qkpkxw,2.0,info,,2.299999809270957,0.0,2.299999809270957,2.299999809270957,0.0,2.299999809270957,1.0,0.0,0.0,,Slider,Slider,4.0,object-56,temp_dist_trial,32.0,t_m_11_1,travel_Miami,collapsible beach chair,7.0,unique,paired,t_m_11_1.jpg,Travel,$${counterbalance_group},,sub-77
Desktop or Laptop,Windows 10,Chrome 138.0.0.0,1920x1080,1920x1080,Temporal Distance Task,cb_07,80.0,temp_dist_trial,dist_items,qkpkxw,2.0,continue,,1831.6999999046384,1826.2000000000119,1831.6999999046384,1831.6999999046384,1826.2000000000119,1831.6999999046384,1.0,0.0,0.0,,Click To Continue,Next button,7.0,object-60,temp_dist_trial,32.0,t_m_11_1,travel_Miami,collapsible beach chair,7.0,unique,paired,t_m_11_1.jpg,Travel,$${counterbalance_group},,sub-77
Desktop or Laptop,Windows 10,Chrome 138.0.0.0,1920x1080,1920x1080,Temporal Distance Task,cb_07,80.0,temp_dist_trial,dist_items,qkpkxw,2.0,response,54,1034.7000000000116,1826.2000000000119,1831.9999998569547,1034.7000000000116,1826.2000000000119,1831.9999998569547,1.0,797.299999856943,0.0,,Slider,Slider,4.0,object-56,temp_dist_trial,32.0,t_m_11_1,travel_Miami,collapsible beach chair,7.0,unique,paired,t_m_11_1.jpg,Travel,$${counterbalance_group},,sub-77
Desktop or Laptop,Windows 10,Chrome 138.0.0.0,1920x1080,1920x1080,Temporal Distance Task,cb_07,81.0,temp_dist_trial,num_items,zn7si1,1.0,response,1_ITEM,880.3999999999942,874.7999999999884,880.3999999999942,880.3999999999942,874.7999999999884,880.3999999999942,1.0,0.0,0.0,,Click Response,1_count,3.0,object-46,temp_dist_trial,33.0,t_s_08_1,travel_shared,hand lotion,7.0,competing,paired,t_s_08_1.jpg,Travel,$${counterbalance_group},,sub-77
Desktop or Laptop,Windows 10,Chrome 138.0.0.0,1920x1080,1920x1080,Temporal Distance Task,cb_07,82.0,temp_dist_trial,num_items,zn7si1,1.0,response,1_ITEM,603.4999998569547,597.1000000000057,603.4999998569547,603.4999998569547,597.1000000000057,603.4999998569547,1.0,0.0,0.0,,Click Response,1_count,3.0,object-46,temp_dist_trial,34.0,t_i_07_1,travel_Iceland,hiking backpack,7.0,unique,single,t_i_07_1.jpg,Travel,$${counterbalance_group},,sub-77
Desktop or Laptop,Windows 10,Chrome 138.0.0.0,1920x1080,1920x1080,Temporal Distance Task,cb_07,83.0,temp_dist_trial,num_items,zn7si1,1.0,response,1_ITEM,548.1999999046384,541.6000000000058,548.1999999046384,548.1999999046384,541.6000000000058,548.1999999046384,1.0,0.0,0.0,,Click Response,1_count,3.0,object-46,temp_dist_trial,35.0,t_s_18_1,travel_shared,first aid kit,7.0,competing,paired,t_s_18_1.jpg,Travel,$${counterbalance_group},,sub-77
Desktop or Laptop,Windows 10,Chrome 138.0.0.0,1920x1080,1920x1080,Temporal Distance Task,cb_07,84.0,temp_dist_trial,num_items,zn7si1,1.0,response,1_ITEM,723.5999998569605,722.1000000000058,723.5999998569605,723.5999998569605,722.1000000000058,723.5999998569605,1.0,0.0,0.0,,Click Response,1_count,3.0,object-46,temp_dist_trial,36.0,t_i_14_1,travel_Iceland,snow pants,7.0,unique,paired,t_i_14_1.jpg,Travel,$${counterbalance_group},,sub-77
Desktop or Laptop,Windows 10,Chrome 138.0.0.0,1920x1080,1920x1080,Temporal Distance Task,cb_07,85.0,temp_dist_trial,num_items,zn7si1,1.0,response,1_ITEM,592.6999998092651,590.2000000000116,592.6999998092651,592.6999998092651,590.2000000000116,592.6999998092651,1.0,0.0,0.0,,Click Response,1_count,3.0,object-46,temp_dist_trial,37.0,t_i_01_1,travel_Iceland,gloves,7.0,unique,paired,t_i_01_1.jpg,Travel,$${counterbalance_group},,sub-77
Desktop or Laptop,Windows 10,Chrome 138.0.0.0,1920x1080,1920x1080,Temporal Distance Task,cb_07,86.0,temp_dist_trial,num_items,zn7si1,1.0,response,1_ITEM,637.3999999999943,631.7999999999884,637.3999999999943,637.3999999999943,631.7999999999884,637.3999999999943,1.0,0.0,0.0,,Click Response,1_count,3.0,object-46,temp_dist_trial,38.0,t_i_18_1,travel_Iceland,ski mask,7.0,unique,paired,t_i_18_1.jpg,Travel,$${counterbalance_group},,sub-77
Desktop or Laptop,Windows 10,Chrome 138.0.0.0,1920x1080,1920x1080,Temporal Distance Task,cb_07,87.0,temp_dist_trial,num_items,zn7si1,1.0,response,2_ITEM,1231.6999999046386,1228.8999999999942,1231.6999999046386,1231.6999999046386,1228.8999999999942,1231.6999999046386,1.0,0.0,0.0,,Click Response,2_count,5.0,object-49,temp_dist_trial,39.0,t_m_06_1,travel_Miami,handheld fan,7.0,unique,paired,t_m_06_1.jpg,Travel,$${counterbalance_group},,sub-77
Desktop or Laptop,Windows 10,Chrome 138.0.0.0,1920x1080,1920x1080,Temporal Distance Task,cb_07,87.0,temp_dist_trial,dist_items,qkpkxw,2.0,info,,2.1999999523104634,0.0,2.1999999523104634,2.1999999523104634,0.0,2.1999999523104634,1.0,0.0,0.0,,Slider,Slider,4.0,object-56,temp_dist_trial,39.0,t_m_06_1,travel_Miami,handheld fan,7.0,unique,paired,t_m_06_1.jpg,Travel,$${counterbalance_group},,sub-77
Desktop or Laptop,Windows 10,Chrome 138.0.0.0,1920x1080,1920x1080,Temporal Distance Task,cb_07,87.0,temp_dist_trial,dist_items,qkpkxw,2.0,continue,,1370.099999809259,1368.0,1370.099999809259,1370.099999809259,1368.0,1370.099999809259,1.0,0.0,0.0,,Click To Continue,Next button,7.0,object-60,temp_dist_trial,39.0,t_m_06_1,travel_Miami,handheld fan,7.0,unique,paired,t_m_06_1.jpg,Travel,$${counterbalance_group},,sub-77
Desktop or Laptop,Windows 10,Chrome 138.0.0.0,1920x1080,1920x1080,Temporal Distance Task,cb_07,87.0,temp_dist_trial,dist_items,qkpkxw,2.0,response,38,486.1000000000058,1368.0,1370.3999999999942,486.1000000000058,1368.0,1370.3999999999942,1.0,884.2999999999884,0.0,,Slider,Slider,4.0,object-56,temp_dist_trial,39.0,t_m_06_1,travel_Miami,handheld fan,7.0,unique,paired,t_m_06_1.jpg,Travel,$${counterbalance_group},,sub-77
Desktop or Laptop,Windows 10,Chrome 138.0.0.0,1920x1080,1920x1080,Temporal Distance Task,cb_07,88.0,temp_dist_trial,num_items,zn7si1,1.0,response,1_ITEM,1549.9999999046267,1548.1000000000058,1549.9999999046267,1549.9999999046267,1548.1000000000058,1549.9999999046267,1.0,0.0,0.0,,Click Response,1_count,3.0,object-46,temp_dist_trial,40.0,t_i_06_1,travel_Iceland,knit hat,7.0,unique,paired,t_i_06_1.jpg,Travel,$${counterbalance_group},,sub-77
Desktop or Laptop,Windows 10,Chrome 138.0.0.0,1920x1080,1920x1080,Temporal Distance Task,cb_07,89.0,temp_dist_trial,num_items,zn7si1,1.0,response,2_ITEM,866.6999998569372,861.0999999999768,866.6999998569372,866.6999998569372,861.0999999999768,866.6999998569372,1.0,0.0,0.0,,Click Response,2_count,5.0,object-49,temp_dist_trial,41.0,t_s_17_1,travel_shared,toothbrush,7.0,competing,paired,t_s_17_1.jpg,Travel,$${counterbalance_group},,sub-77
Desktop or Laptop,Windows 10,Chrome 138.0.0.0,1920x1080,1920x1080,Temporal Distance Task,cb_07,89.0,temp_dist_trial,dist_items,qkpkxw,2.0,info,,2.099999809259316,0.0,2.099999809259316,2.099999809259316,0.0,2.099999809259316,1.0,0.0,0.0,,Slider,Slider,4.0,object-56,temp_dist_trial,41.0,t_s_17_1,travel_shared,toothbrush,7.0,competing,paired,t_s_17_1.jpg,Travel,$${counterbalance_group},,sub-77
Desktop or Laptop,Windows 10,Chrome 138.0.0.0,1920x1080,1920x1080,Temporal Distance Task,cb_07,89.0,temp_dist_trial,dist_items,qkpkxw,2.0,continue,,2836.7999998569426,2832.7999999999884,2836.7999998569426,2836.7999998569426,2832.7999999999884,2836.7999998569426,1.0,0.0,0.0,,Click To Continue,Next button,7.0,object-60,temp_dist_trial,41.0,t_s_17_1,travel_shared,toothbrush,7.0,competing,paired,t_s_17_1.jpg,Travel,$${counterbalance_group},,sub-77
Desktop or Laptop,Windows 10,Chrome 138.0.0.0,1920x1080,1920x1080,Temporal Distance Task,cb_07,89.0,temp_dist_trial,dist_items,qkpkxw,2.0,response,,2838.7999998569426,2832.7999999999884,2838.7999998569426,2838.7999998569426,2832.7999999999884,2838.7999998569426,1.0,0.0,0.0,,Slider,Slider,4.0,object-56,temp_dist_trial,41.0,t_s_17_1,travel_shared,toothbrush,7.0,competing,paired,t_s_17_1.jpg,Travel,$${counterbalance_group},,sub-77
Desktop or Laptop,Windows 10,Chrome 138.0.0.0,1920x1080,1920x1080,Temporal Distance Task,cb_07,90.0,temp_dist_trial,num_items,zn7si1,1.0,response,1_ITEM,977.799999809271,972.2000000000116,977.799999809271,977.799999809271,972.2000000000116,977.799999809271,1.0,0.0,0.0,,Click Response,1_count,3.0,object-46,temp_dist_trial,42.0,t_m_13_1,travel_Miami,floatie,7.0,unique,paired,t_m_13_1.jpg,Travel,$${counterbalance_group},,sub-77
Desktop or Laptop,Windows 10,Chrome 138.0.0.0,1920x1080,1920x1080,Temporal Distance Task,cb_07,91.0,temp_dist_trial,num_items,zn7si1,1.0,response,1_ITEM,1124.999999856955,1118.0,1124.999999856955,1124.999999856955,1118.0,1124.999999856955,1.0,0.0,0.0,,Click Response,1_count,3.0,object-46,temp_dist_trial,43.0,t_s_04_1,travel_shared,instant camera,7.0,competing,single,t_s_04_1.jpg,Travel,$${counterbalance_group},,sub-77
Desktop or Laptop,Windows 10,Chrome 138.0.0.0,1920x1080,1920x1080,Temporal Distance Task,cb_07,92.0,temp_dist_trial,num_items,zn7si1,1.0,response,1_ITEM,653.0,645.8999999999943,653.0,653.0,645.8999999999943,653.0,1.0,0.0,0.0,,Click Response,1_count,3.0,object-46,temp_dist_trial,44.0,t_s_13_1,travel_shared,contact lens case,7.0,competing,single,t_s_13_1.jpg,Travel,$${counterbalance_group},,sub-77
Desktop or Laptop,Windows 10,Chrome 138.0.0.0,1920x1080,1920x1080,Temporal Distance Task,cb_07,93.0,temp_dist_trial,num_items,zn7si1,1.0,response,1_ITEM,771.5999998569605,770.8000000000177,771.5999998569605,771.5999998569605,770.8000000000177,771.5999998569605,1.0,0.0,0.0,,Click Response,1_count,3.0,object-46,temp_dist_trial,45.0,t_i_02_1,travel_Iceland,scarf,7.0,unique,single,t_i_02_1.jpg,Travel,$${counterbalance_group},,sub-77
Desktop or Laptop,Windows 10,Chrome 138.0.0.0,1920x1080,1920x1080,Temporal Distance Task,cb_07,94.0,temp_dist_trial,num_items,zn7si1,1.0,response,1_ITEM,726.7999999999884,722.0,726.7999999999884,726.7999999999884,722.0,726.7999999999884,1.0,0.0,0.0,,Click Response,1_count,3.0,object-46,temp_dist_trial,46.0,t_s_11_1,travel_shared,eye mask,7.0,competing,paired,t_s_11_1.jpg,Travel,$${counterbalance_group},,sub-77
Desktop or Laptop,Windows 10,Chrome 138.0.0.0,1920x1080,1920x1080,Temporal Distance Task,cb_07,95.0,temp_dist_trial,num_items,zn7si1,1.0,response,1_ITEM,568.6999999523105,562.3999999999942,568.6999999523105,568.6999999523105,562.3999999999942,568.6999999523105,1.0,0.0,0.0,,Click Response,1_count,3.0,object-46,temp_dist_trial,47.0,t_s_19_1,travel_shared,pajamas,7.0,competing,single,t_s_19_1.jpg,Travel,$${counterbalance_group},,sub-77
Desktop or Laptop,Windows 10,Chrome 138.0.0.0,1920x1080,1920x1080,Temporal Distance Task,cb_07,96.0,temp_dist_trial,num_items,zn7si1,1.0,response,2_ITEM,932.6000000000058,930.3000000000177,932.6000000000058,932.6000000000058,930.3000000000177,932.6000000000058,1.0,0.0,0.0,,Click Response,2_count,5.0,object-49,temp_dist_trial,48.0,t_m_08_1,travel_Miami,flipflops,7.0,unique,paired,t_m_08_1.jpg,Travel,$${counterbalance_group},,sub-77
Desktop or Laptop,Windows 10,Chrome 138.0.0.0,1920x1080,1920x1080,Temporal Distance Task,cb_07,96.0,temp_dist_trial,dist_items,qkpkxw,2.0,info,,2.099999809259316,0.0,2.099999809259316,2.099999809259316,0.0,2.099999809259316,1.0,0.0,0.0,,Slider,Slider,4.0,object-56,temp_dist_trial,48.0,t_m_08_1,travel_Miami,flipflops,7.0,unique,paired,t_m_08_1.jpg,Travel,$${counterbalance_group},,sub-77
Desktop or Laptop,Windows 10,Chrome 138.0.0.0,1920x1080,1920x1080,Temporal Distance Task,cb_07,96.0,temp_dist_trial,dist_items,qkpkxw,2.0,continue,,1893.6999999523105,1888.6999999999825,1893.6999999523105,1893.6999999523105,1888.6999999999825,1893.6999999523105,1.0,0.0,0.0,,Click To Continue,Next button,7.0,object-60,temp_dist_trial,48.0,t_m_08_1,travel_Miami,flipflops,7.0,unique,paired,t_m_08_1.jpg,Travel,$${counterbalance_group},,sub-77
Desktop or Laptop,Windows 10,Chrome 138.0.0.0,1920x1080,1920x1080,Temporal Distance Task,cb_07,96.0,temp_dist_trial,dist_items,qkpkxw,2.0,response,43,1118.0,1888.6999999999825,1893.9999999046267,1118.0,1888.6999999999825,1893.9999999046267,1.0,775.9999999046267,0.0,,Slider,Slider,4.0,object-56,temp_dist_trial,48.0,t_m_08_1,travel_Miami,flipflops,7.0,unique,paired,t_m_08_1.jpg,Travel,$${counterbalance_group},,sub-77
Desktop or Laptop,Windows 10,Chrome 138.0.0.0,1920x1080,1920x1080,Temporal Distance Task,,,,,,,info,END,,,236210.0,,,,,,,,,,,,,,,,,,,,,,$${counterbalance_group},,sub-77
