Participant Device,Participant OS,Participant Browser,Participant Monitor Size,Participant Viewport Size,Task Name,Current Spreadsheet,Trial Number,Display,Screen,Screen ID,Screen Counter,Response Type,Response,Onset Time,Clock Time,Reaction Time,Absolute Onset Time,Absolute Clock Time,Absolute Reaction Time,Correct,Response Duration,Proportion,Tag,Component Name,Object Name,Object Number,Object ID,Spreadsheet: display,Spreadsheet: trial,Spreadsheet: stimulus_id,Spreadsheet: expected_goal,Spreadsheet: stimulus_name,Spreadsheet: c_group,Spreadsheet: condition,Spreadsheet: paired_status,Spreadsheet: stimulus_path,Spreadsheet: block_type,Manipulation: Spreadsheet,Store: enc_test_acc,sub_label
Desktop or Laptop,Windows 10,Chrome 138.0.0.0,1920x1080,1920x945,Temporal Distance Task,$${counterbalance_group},,,,,,info,BEGIN,,,,,,,0.0,,,,,,,,,,,,,,,,,,,,sub-43
Desktop or Laptop,Windows 10,Chrome 138.0.0.0,1920x1080,1920x945,Temporal Distance Task,cb_09,1.0,temp_instructions,intro_screen,3tnme7,1.0,continue,,9356.0,9350.0,9356.0,9356.0,9350.0,9356.0,1.0,0.0,0.0,,Click To Continue,Continue Button,4.0,object-29,temp_instructions,,,Student,,,,,,,,,sub-43
Desktop or Laptop,Windows 10,Chrome 138.0.0.0,1920x1080,1920x945,Temporal Distance Task,cb_09,1.0,temp_instructions,intro_screen_2,52v7ur,2.0,continue,,6425.600000000002,6419.600000000002,6425.600000000002,6425.600000000002,6419.600000000002,6425.600000000002,1.0,0.0,0.0,,Click To Continue,Continue Button,4.0,object-39,temp_instructions,,,Student,,,,,,,,,sub-43
Desktop or Laptop,Windows 10,Chrome 138.0.0.0,1920x1080,1920x945,Temporal Distance Task,cb_09,1.0,temp_instructions,intro_screen_3,i7lvwx,3.0,continue,,5197.0999999999985,5195.299999999998,5197.0999999999985,5197.0999999999985,5195.299999999998,5197.0999999999985,1.0,0.0,0.0,,Click To Continue,Continue Button,4.0,object-67,temp_instructions,,,Student,,,,,,,,,sub-43
Desktop or Laptop,Windows 10,Chrome 138.0.0.0,1920x1080,1920x945,Temporal Distance Task,cb_09,1.0,temp_instructions,test_q1,5ieqx1,4.0,response,choice_3,12917.900000023841,12916.899999999998,12917.900000023841,12917.900000023841,12916.899999999998,12917.900000023841,1.0,0.0,0.0,,Click Response,choice_3,5.0,object-345,temp_instructions,,,Student,,,,,,,,,sub-43
Desktop or Laptop,Windows 10,Chrome 138.0.0.0,1920x1080,1920x945,Temporal Distance Task,cb_09,1.0,temp_instructions,score_corr,7ilvjr,5.0,continue,,949.9000000000017,947.5,949.9000000000017,949.9000000000017,947.5,949.9000000000017,1.0,0.0,0.0,,Click To Continue,Continue Button,3.0,object-23,temp_instructions,,,Student,,,,,,,,,sub-43
Desktop or Laptop,Windows 10,Chrome 138.0.0.0,1920x1080,1920x945,Temporal Distance Task,cb_09,1.0,temp_eventStart,Screen 1,dgtyxe,1.0,continue,,3144.200000071527,3140.5,3144.200000071527,3144.200000071527,3140.5,3144.200000071527,1.0,0.0,0.0,,Click To Continue,Next Button,3.0,object-43,temp_eventStart,,,Student,,,,,,,,,sub-43
Desktop or Laptop,Windows 10,Chrome 138.0.0.0,1920x1080,1920x945,Temporal Distance Task,cb_09,1.0,temp_dist_trial,num_items,zn7si1,1.0,response,1_ITEM,1908.9000000000005,1903.4000000000005,1908.9000000000005,1908.9000000000005,1903.4000000000005,1908.9000000000005,1.0,0.0,0.0,,Click Response,1_count,3.0,object-46,temp_dist_trial,1.0,s_a_05_1,student_art,clay,9.0,unique,paired,s_a_05_1.jpg,Student,,,sub-43
Desktop or Laptop,Windows 10,Chrome 138.0.0.0,1920x1080,1920x945,Temporal Distance Task,cb_09,2.0,temp_dist_trial,num_items,zn7si1,1.0,response,2_ITEM,2266.5999999999985,2260.5999999999985,2266.5999999999985,2266.5999999999985,2260.5999999999985,2266.5999999999985,1.0,0.0,0.0,,Click Response,2_count,5.0,object-49,temp_dist_trial,2.0,s_sh_23_1,student_shared,ballpoint pen,9.0,competing,single,s_sh_23_1.jpg,Student,,,sub-43
Desktop or Laptop,Windows 10,Chrome 138.0.0.0,1920x1080,1920x945,Temporal Distance Task,cb_09,2.0,temp_dist_trial,dist_items,qkpkxw,2.0,info,,4.100000023841858,0.0,4.100000023841858,4.100000023841858,0.0,4.100000023841858,1.0,0.0,0.0,,Slider,Slider,4.0,object-56,temp_dist_trial,2.0,s_sh_23_1,student_shared,ballpoint pen,9.0,competing,single,s_sh_23_1.jpg,Student,,,sub-43
Desktop or Laptop,Windows 10,Chrome 138.0.0.0,1920x1080,1920x945,Temporal Distance Task,cb_09,2.0,temp_dist_trial,dist_items,qkpkxw,2.0,continue,,3970.6000000238414,3965.5,3970.6000000238414,3970.6000000238414,3965.5,3970.6000000238414,1.0,0.0,0.0,,Click To Continue,Next button,7.0,object-60,temp_dist_trial,2.0,s_sh_23_1,student_shared,ballpoint pen,9.0,competing,single,s_sh_23_1.jpg,Student,,,sub-43
Desktop or Laptop,Windows 10,Chrome 138.0.0.0,1920x1080,1920x945,Temporal Distance Task,cb_09,2.0,temp_dist_trial,dist_items,qkpkxw,2.0,response,36,2169.400000000001,3965.5,3971.5,2169.400000000001,3965.5,3971.5,1.0,1802.0999999999985,0.0,,Slider,Slider,4.0,object-56,temp_dist_trial,2.0,s_sh_23_1,student_shared,ballpoint pen,9.0,competing,single,s_sh_23_1.jpg,Student,,,sub-43
Desktop or Laptop,Windows 10,Chrome 138.0.0.0,1920x1080,1920x945,Temporal Distance Task,cb_09,3.0,temp_dist_trial,num_items,zn7si1,1.0,response,1_ITEM,2476.100000023842,2454.400000000001,2476.100000023842,2476.100000023842,2454.400000000001,2476.100000023842,1.0,0.0,0.0,,Click Response,1_count,3.0,object-46,temp_dist_trial,3.0,s_s_11_1,student_stem,scientific scale,9.0,unique,single,s_s_11_1.jpg,Student,,,sub-43
Desktop or Laptop,Windows 10,Chrome 138.0.0.0,1920x1080,1920x945,Temporal Distance Task,cb_09,4.0,temp_dist_trial,num_items,zn7si1,1.0,response,2_ITEM,2042.1999999999966,2036.0999999999985,2042.1999999999966,2042.1999999999966,2036.0999999999985,2042.1999999999966,1.0,0.0,0.0,,Click Response,2_count,5.0,object-49,temp_dist_trial,4.0,s_sh_16_1,student_shared,stapler,9.0,competing,single,s_sh_16_1.jpg,Student,,,sub-43
Desktop or Laptop,Windows 10,Chrome 138.0.0.0,1920x1080,1920x945,Temporal Distance Task,cb_09,4.0,temp_dist_trial,dist_items,qkpkxw,2.0,info,,3.499999976156688,0.0,3.499999976156688,3.499999976156688,0.0,3.499999976156688,1.0,0.0,0.0,,Slider,Slider,4.0,object-56,temp_dist_trial,4.0,s_sh_16_1,student_shared,stapler,9.0,competing,single,s_sh_16_1.jpg,Student,,,sub-43
Desktop or Laptop,Windows 10,Chrome 138.0.0.0,1920x1080,1920x945,Temporal Distance Task,cb_09,4.0,temp_dist_trial,dist_items,qkpkxw,2.0,continue,,1934.4000000000005,1928.4000000000005,1934.4000000000005,1934.4000000000005,1928.4000000000005,1934.4000000000005,1.0,0.0,0.0,,Click To Continue,Next button,7.0,object-60,temp_dist_trial,4.0,s_sh_16_1,student_shared,stapler,9.0,competing,single,s_sh_16_1.jpg,Student,,,sub-43
Desktop or Laptop,Windows 10,Chrome 138.0.0.0,1920x1080,1920x945,Temporal Distance Task,cb_09,4.0,temp_dist_trial,dist_items,qkpkxw,2.0,response,40,915.0999999999983,1928.4000000000005,1934.4000000000005,915.0999999999983,1928.4000000000005,1934.4000000000005,1.0,1019.3000000000028,0.0,,Slider,Slider,4.0,object-56,temp_dist_trial,4.0,s_sh_16_1,student_shared,stapler,9.0,competing,single,s_sh_16_1.jpg,Student,,,sub-43
Desktop or Laptop,Windows 10,Chrome 138.0.0.0,1920x1080,1920x945,Temporal Distance Task,cb_09,5.0,temp_dist_trial,num_items,zn7si1,1.0,response,1_ITEM,2361.199999999997,2357.299999999996,2361.199999999997,2361.199999999997,2357.299999999996,2361.199999999997,1.0,0.0,0.0,,Click Response,1_count,3.0,object-46,temp_dist_trial,5.0,s_sh_01_1,student_shared,notebook,9.0,competing,paired,s_sh_01_1.jpg,Student,,,sub-43
Desktop or Laptop,Windows 10,Chrome 138.0.0.0,1920x1080,1920x945,Temporal Distance Task,cb_09,6.0,temp_dist_trial,num_items,zn7si1,1.0,response,1_ITEM,2405.200000047684,2399.800000000003,2405.200000047684,2405.200000047684,2399.800000000003,2405.200000047684,1.0,0.0,0.0,,Click Response,1_count,3.0,object-46,temp_dist_trial,6.0,s_sh_19_1,student_shared,portable plastic drawer,9.0,competing,single,s_sh_19_1.jpg,Student,,,sub-43
Desktop or Laptop,Windows 10,Chrome 138.0.0.0,1920x1080,1920x945,Temporal Distance Task,cb_09,7.0,temp_dist_trial,num_items,zn7si1,1.0,response,2_ITEM,1470.4999999761567,1468.2999999999954,1470.4999999761567,1470.4999999761567,1468.2999999999954,1470.4999999761567,1.0,0.0,0.0,,Click Response,2_count,5.0,object-49,temp_dist_trial,7.0,s_sh_21_1,student_shared,file holder,9.0,competing,single,s_sh_21_1.jpg,Student,,,sub-43
Desktop or Laptop,Windows 10,Chrome 138.0.0.0,1920x1080,1920x945,Temporal Distance Task,cb_09,7.0,temp_dist_trial,dist_items,qkpkxw,2.0,info,,3.8000000476822606,0.0,3.8000000476822606,3.8000000476822606,0.0,3.8000000476822606,1.0,0.0,0.0,,Slider,Slider,4.0,object-56,temp_dist_trial,7.0,s_sh_21_1,student_shared,file holder,9.0,competing,single,s_sh_21_1.jpg,Student,,,sub-43
Desktop or Laptop,Windows 10,Chrome 138.0.0.0,1920x1080,1920x945,Temporal Distance Task,cb_09,7.0,temp_dist_trial,dist_items,qkpkxw,2.0,continue,,1847.0999999999985,1843.1999999999966,1847.0999999999985,1847.0999999999985,1843.1999999999966,1847.0999999999985,1.0,0.0,0.0,,Click To Continue,Next button,7.0,object-60,temp_dist_trial,7.0,s_sh_21_1,student_shared,file holder,9.0,competing,single,s_sh_21_1.jpg,Student,,,sub-43
Desktop or Laptop,Windows 10,Chrome 138.0.0.0,1920x1080,1920x945,Temporal Distance Task,cb_09,7.0,temp_dist_trial,dist_items,qkpkxw,2.0,response,67,830.2999999999955,1843.1999999999966,1847.4000000715241,830.2999999999955,1843.1999999999966,1847.4000000715241,1.0,1017.1000000715284,0.0,,Slider,Slider,4.0,object-56,temp_dist_trial,7.0,s_sh_21_1,student_shared,file holder,9.0,competing,single,s_sh_21_1.jpg,Student,,,sub-43
Desktop or Laptop,Windows 10,Chrome 138.0.0.0,1920x1080,1920x945,Temporal Distance Task,cb_09,8.0,temp_dist_trial,num_items,zn7si1,1.0,response,2_ITEM,1357.5000000000073,1351.4000000000015,1357.5000000000073,1357.5000000000073,1351.4000000000015,1357.5000000000073,1.0,0.0,0.0,,Click Response,2_count,5.0,object-49,temp_dist_trial,8.0,s_a_18_1,student_art,tutu,9.0,unique,paired,s_a_18_1.jpg,Student,,,sub-43
Desktop or Laptop,Windows 10,Chrome 138.0.0.0,1920x1080,1920x945,Temporal Distance Task,cb_09,8.0,temp_dist_trial,dist_items,qkpkxw,2.0,info,,4.000000023836037,0.0,4.000000023836037,4.000000023836037,0.0,4.000000023836037,1.0,0.0,0.0,,Slider,Slider,4.0,object-56,temp_dist_trial,8.0,s_a_18_1,student_art,tutu,9.0,unique,paired,s_a_18_1.jpg,Student,,,sub-43
Desktop or Laptop,Windows 10,Chrome 138.0.0.0,1920x1080,1920x945,Temporal Distance Task,cb_09,8.0,temp_dist_trial,dist_items,qkpkxw,2.0,continue,,2471.8999999999937,2467.8999999999937,2471.8999999999937,2471.8999999999937,2467.8999999999937,2471.8999999999937,1.0,0.0,0.0,,Click To Continue,Next button,7.0,object-60,temp_dist_trial,8.0,s_a_18_1,student_art,tutu,9.0,unique,paired,s_a_18_1.jpg,Student,,,sub-43
Desktop or Laptop,Windows 10,Chrome 138.0.0.0,1920x1080,1920x945,Temporal Distance Task,cb_09,8.0,temp_dist_trial,dist_items,qkpkxw,2.0,response,40,915.1999999999972,2467.8999999999937,2472.2000000715198,915.1999999999972,2467.8999999999937,2472.2000000715198,1.0,1557.0000000715231,0.0,,Slider,Slider,4.0,object-56,temp_dist_trial,8.0,s_a_18_1,student_art,tutu,9.0,unique,paired,s_a_18_1.jpg,Student,,,sub-43
Desktop or Laptop,Windows 10,Chrome 138.0.0.0,1920x1080,1920x945,Temporal Distance Task,cb_09,9.0,temp_dist_trial,num_items,zn7si1,1.0,response,2_ITEM,1714.8000000715256,1709.0,1714.8000000715256,1714.8000000715256,1709.0,1714.8000000715256,1.0,0.0,0.0,,Click Response,2_count,5.0,object-49,temp_dist_trial,9.0,s_s_07_1,student_stem,periodic table,9.0,unique,paired,s_s_07_1.jpg,Student,,,sub-43
Desktop or Laptop,Windows 10,Chrome 138.0.0.0,1920x1080,1920x945,Temporal Distance Task,cb_09,9.0,temp_dist_trial,dist_items,qkpkxw,2.0,info,,3.3999999999941792,0.0,3.3999999999941792,3.3999999999941792,0.0,3.3999999999941792,1.0,0.0,0.0,,Slider,Slider,4.0,object-56,temp_dist_trial,9.0,s_s_07_1,student_stem,periodic table,9.0,unique,paired,s_s_07_1.jpg,Student,,,sub-43
Desktop or Laptop,Windows 10,Chrome 138.0.0.0,1920x1080,1920x945,Temporal Distance Task,cb_09,9.0,temp_dist_trial,dist_items,qkpkxw,2.0,continue,,1987.2999999761525,1982.8999999999944,1987.2999999761525,1987.2999999761525,1982.8999999999944,1987.2999999761525,1.0,0.0,0.0,,Click To Continue,Next button,7.0,object-60,temp_dist_trial,9.0,s_s_07_1,student_stem,periodic table,9.0,unique,paired,s_s_07_1.jpg,Student,,,sub-43
Desktop or Laptop,Windows 10,Chrome 138.0.0.0,1920x1080,1920x945,Temporal Distance Task,cb_09,9.0,temp_dist_trial,dist_items,qkpkxw,2.0,response,38,1102.8999999999942,1982.8999999999944,1988.8999999999944,1102.8999999999942,1982.8999999999944,1988.8999999999944,1.0,886.0,0.0,,Slider,Slider,4.0,object-56,temp_dist_trial,9.0,s_s_07_1,student_stem,periodic table,9.0,unique,paired,s_s_07_1.jpg,Student,,,sub-43
Desktop or Laptop,Windows 10,Chrome 138.0.0.0,1920x1080,1920x945,Temporal Distance Task,cb_09,10.0,temp_dist_trial,num_items,zn7si1,1.0,response,1_ITEM,1345.4000000000087,1339.3000000000031,1345.4000000000087,1345.4000000000087,1339.3000000000031,1345.4000000000087,1.0,0.0,0.0,,Click Response,1_count,3.0,object-46,temp_dist_trial,10.0,s_sh_02_1,student_shared,eraser,9.0,competing,single,s_sh_02_1.jpg,Student,,,sub-43
Desktop or Laptop,Windows 10,Chrome 138.0.0.0,1920x1080,1920x945,Temporal Distance Task,cb_09,11.0,temp_dist_trial,num_items,zn7si1,1.0,response,1_ITEM,2044.6999999761608,2043.1999999999966,2044.6999999761608,2044.6999999761608,2043.1999999999966,2044.6999999761608,1.0,0.0,0.0,,Click Response,1_count,3.0,object-46,temp_dist_trial,11.0,s_sh_06_1,student_shared,clipboard,9.0,competing,paired,s_sh_06_1.jpg,Student,,,sub-43
Desktop or Laptop,Windows 10,Chrome 138.0.0.0,1920x1080,1920x945,Temporal Distance Task,cb_09,12.0,temp_dist_trial,num_items,zn7si1,1.0,response,1_ITEM,1490.8999999999796,1484.7999999999884,1490.8999999999796,1490.8999999999796,1484.7999999999884,1490.8999999999796,1.0,0.0,0.0,,Click Response,1_count,3.0,object-46,temp_dist_trial,12.0,s_sh_17_1,student_shared,wireless mouse,9.0,competing,paired,s_sh_17_1.jpg,Student,,,sub-43
Desktop or Laptop,Windows 10,Chrome 138.0.0.0,1920x1080,1920x945,Temporal Distance Task,cb_09,13.0,temp_dist_trial,num_items,zn7si1,1.0,response,2_ITEM,1890.6000000000056,1884.6000000000056,1890.6000000000056,1890.6000000000056,1884.6000000000056,1890.6000000000056,1.0,0.0,0.0,,Click Response,2_count,5.0,object-49,temp_dist_trial,13.0,s_s_20_1,student_stem,dna model,9.0,unique,single,s_s_20_1.jpg,Student,,,sub-43
Desktop or Laptop,Windows 10,Chrome 138.0.0.0,1920x1080,1920x945,Temporal Distance Task,cb_09,13.0,temp_dist_trial,dist_items,qkpkxw,2.0,info,,4.9000000476808045,0.0,4.9000000476808045,4.9000000476808045,0.0,4.9000000476808045,1.0,0.0,0.0,,Slider,Slider,4.0,object-56,temp_dist_trial,13.0,s_s_20_1,student_stem,dna model,9.0,unique,single,s_s_20_1.jpg,Student,,,sub-43
Desktop or Laptop,Windows 10,Chrome 138.0.0.0,1920x1080,1920x945,Temporal Distance Task,cb_09,13.0,temp_dist_trial,dist_items,qkpkxw,2.0,continue,,1926.0000000715231,1924.3999999999944,1926.0000000715231,1926.0000000715231,1924.3999999999944,1926.0000000715231,1.0,0.0,0.0,,Click To Continue,Next button,7.0,object-60,temp_dist_trial,13.0,s_s_20_1,student_stem,dna model,9.0,unique,single,s_s_20_1.jpg,Student,,,sub-43
Desktop or Laptop,Windows 10,Chrome 138.0.0.0,1920x1080,1920x945,Temporal Distance Task,cb_09,13.0,temp_dist_trial,dist_items,qkpkxw,2.0,response,62,1018.0999999999913,1924.3999999999944,1926.3000000238392,1018.0999999999913,1924.3999999999944,1926.3000000238392,1.0,908.2000000238477,0.0,,Slider,Slider,4.0,object-56,temp_dist_trial,13.0,s_s_20_1,student_stem,dna model,9.0,unique,single,s_s_20_1.jpg,Student,,,sub-43
Desktop or Laptop,Windows 10,Chrome 138.0.0.0,1920x1080,1920x945,Temporal Distance Task,cb_09,14.0,temp_dist_trial,num_items,zn7si1,1.0,response,1_ITEM,2282.0000000476866,2278.6000000000063,2282.0000000476866,2282.0000000476866,2278.6000000000063,2282.0000000476866,1.0,0.0,0.0,,Click Response,1_count,3.0,object-46,temp_dist_trial,14.0,s_s_16_1,student_stem,toolbox,9.0,unique,single,s_s_16_1.jpg,Student,,,sub-43
Desktop or Laptop,Windows 10,Chrome 138.0.0.0,1920x1080,1920x945,Temporal Distance Task,cb_09,15.0,temp_dist_trial,num_items,zn7si1,1.0,response,1_ITEM,940.2999999761523,939.1999999999972,940.2999999761523,940.2999999761523,939.1999999999972,940.2999999761523,1.0,0.0,0.0,,Click Response,1_count,3.0,object-46,temp_dist_trial,15.0,s_a_07_1,student_art,yarn,9.0,unique,single,s_a_07_1.jpg,Student,,,sub-43
Desktop or Laptop,Windows 10,Chrome 138.0.0.0,1920x1080,1920x945,Temporal Distance Task,cb_09,16.0,temp_dist_trial,num_items,zn7si1,1.0,response,1_ITEM,1049.2000000000116,1043.1000000000058,1049.2000000000116,1049.2000000000116,1043.1000000000058,1049.2000000000116,1.0,0.0,0.0,,Click Response,1_count,3.0,object-46,temp_dist_trial,16.0,s_sh_13_1,student_shared,index cards,9.0,competing,paired,s_sh_13_1.jpg,Student,,,sub-43
Desktop or Laptop,Windows 10,Chrome 138.0.0.0,1920x1080,1920x945,Temporal Distance Task,cb_09,17.0,temp_dist_trial,num_items,zn7si1,1.0,response,2_ITEM,1319.0000000476864,1314.9000000000087,1319.0000000476864,1319.0000000476864,1314.9000000000087,1319.0000000476864,1.0,0.0,0.0,,Click Response,2_count,5.0,object-49,temp_dist_trial,17.0,s_a_17_1,student_art,microphone,9.0,unique,paired,s_a_17_1.jpg,Student,,,sub-43
Desktop or Laptop,Windows 10,Chrome 138.0.0.0,1920x1080,1920x945,Temporal Distance Task,cb_09,17.0,temp_dist_trial,dist_items,qkpkxw,2.0,info,,6.100000000005821,0.0,6.100000000005821,6.100000000005821,0.0,6.100000000005821,1.0,0.0,0.0,,Slider,Slider,4.0,object-56,temp_dist_trial,17.0,s_a_17_1,student_art,microphone,9.0,unique,paired,s_a_17_1.jpg,Student,,,sub-43
Desktop or Laptop,Windows 10,Chrome 138.0.0.0,1920x1080,1920x945,Temporal Distance Task,cb_09,17.0,temp_dist_trial,dist_items,qkpkxw,2.0,continue,,2361.7000000715198,2359.7999999999884,2361.7000000715198,2361.7000000715198,2359.7999999999884,2361.7000000715198,1.0,0.0,0.0,,Click To Continue,Next button,7.0,object-60,temp_dist_trial,17.0,s_a_17_1,student_art,microphone,9.0,unique,paired,s_a_17_1.jpg,Student,,,sub-43
Desktop or Laptop,Windows 10,Chrome 138.0.0.0,1920x1080,1920x945,Temporal Distance Task,cb_09,17.0,temp_dist_trial,dist_items,qkpkxw,2.0,response,66,1631.1999999999966,2359.7999999999884,2361.8999999999937,1631.1999999999966,2359.7999999999884,2361.8999999999937,1.0,730.6999999999971,0.0,,Slider,Slider,4.0,object-56,temp_dist_trial,17.0,s_a_17_1,student_art,microphone,9.0,unique,paired,s_a_17_1.jpg,Student,,,sub-43
Desktop or Laptop,Windows 10,Chrome 138.0.0.0,1920x1080,1920x945,Temporal Distance Task,cb_09,18.0,temp_dist_trial,num_items,zn7si1,1.0,response,1_ITEM,1403.999999976164,1399.8000000000034,1403.999999976164,1403.999999976164,1399.8000000000034,1403.999999976164,1.0,0.0,0.0,,Click Response,1_count,3.0,object-46,temp_dist_trial,18.0,s_s_02_1,student_stem,flask,9.0,unique,paired,s_s_02_1.jpg,Student,,,sub-43
Desktop or Laptop,Windows 10,Chrome 138.0.0.0,1920x1080,1920x945,Temporal Distance Task,cb_09,19.0,temp_dist_trial,num_items,zn7si1,1.0,response,2_ITEM,1410.8000000715256,1405.8999999999942,1410.8000000715256,1410.8000000715256,1405.8999999999942,1410.8000000715256,1.0,0.0,0.0,,Click Response,2_count,5.0,object-49,temp_dist_trial,19.0,s_a_19_1,student_art,ballet shoes,9.0,unique,paired,s_a_19_1.jpg,Student,,,sub-43
Desktop or Laptop,Windows 10,Chrome 138.0.0.0,1920x1080,1920x945,Temporal Distance Task,cb_09,19.0,temp_dist_trial,dist_items,qkpkxw,2.0,info,,2.9000000238447683,0.0,2.9000000238447683,2.9000000238447683,0.0,2.9000000238447683,1.0,0.0,0.0,,Slider,Slider,4.0,object-56,temp_dist_trial,19.0,s_a_19_1,student_art,ballet shoes,9.0,unique,paired,s_a_19_1.jpg,Student,,,sub-43
Desktop or Laptop,Windows 10,Chrome 138.0.0.0,1920x1080,1920x945,Temporal Distance Task,cb_09,19.0,temp_dist_trial,dist_items,qkpkxw,2.0,continue,,2278.300000000003,2274.5,2278.300000000003,2278.300000000003,2274.5,2278.300000000003,1.0,0.0,0.0,,Click To Continue,Next button,7.0,object-60,temp_dist_trial,19.0,s_a_19_1,student_art,ballet shoes,9.0,unique,paired,s_a_19_1.jpg,Student,,,sub-43
Desktop or Laptop,Windows 10,Chrome 138.0.0.0,1920x1080,1920x945,Temporal Distance Task,cb_09,19.0,temp_dist_trial,dist_items,qkpkxw,2.0,response,70,660.4000000000087,2274.5,2280.5000000476866,660.4000000000087,2274.5,2280.5000000476866,1.0,1620.100000047678,0.0,,Slider,Slider,4.0,object-56,temp_dist_trial,19.0,s_a_19_1,student_art,ballet shoes,9.0,unique,paired,s_a_19_1.jpg,Student,,,sub-43
Desktop or Laptop,Windows 10,Chrome 138.0.0.0,1920x1080,1920x945,Temporal Distance Task,cb_09,20.0,temp_dist_trial,num_items,zn7si1,1.0,response,2_ITEM,1581.599999999991,1569.5,1581.599999999991,1581.599999999991,1569.5,1581.599999999991,1.0,0.0,0.0,,Click Response,2_count,5.0,object-49,temp_dist_trial,20.0,s_sh_12_1,student_shared,binder,9.0,competing,paired,s_sh_12_1.jpg,Student,,,sub-43
Desktop or Laptop,Windows 10,Chrome 138.0.0.0,1920x1080,1920x945,Temporal Distance Task,cb_09,20.0,temp_dist_trial,dist_items,qkpkxw,2.0,info,,3.3000000715255737,0.0,3.3000000715255737,3.3000000715255737,0.0,3.3000000715255737,1.0,0.0,0.0,,Slider,Slider,4.0,object-56,temp_dist_trial,20.0,s_sh_12_1,student_shared,binder,9.0,competing,paired,s_sh_12_1.jpg,Student,,,sub-43
Desktop or Laptop,Windows 10,Chrome 138.0.0.0,1920x1080,1920x945,Temporal Distance Task,cb_09,20.0,temp_dist_trial,dist_items,qkpkxw,2.0,continue,,1636.8999999999942,1630.8999999999942,1636.8999999999942,1636.8999999999942,1630.8999999999942,1636.8999999999942,1.0,0.0,0.0,,Click To Continue,Next button,7.0,object-60,temp_dist_trial,20.0,s_sh_12_1,student_shared,binder,9.0,competing,paired,s_sh_12_1.jpg,Student,,,sub-43
Desktop or Laptop,Windows 10,Chrome 138.0.0.0,1920x1080,1920x945,Temporal Distance Task,cb_09,20.0,temp_dist_trial,dist_items,qkpkxw,2.0,response,69,630.3000000000029,1630.8999999999942,1636.8999999999942,630.3000000000029,1630.8999999999942,1636.8999999999942,1.0,1006.5999999999913,0.0,,Slider,Slider,4.0,object-56,temp_dist_trial,20.0,s_sh_12_1,student_shared,binder,9.0,competing,paired,s_sh_12_1.jpg,Student,,,sub-43
Desktop or Laptop,Windows 10,Chrome 138.0.0.0,1920x1080,1920x945,Temporal Distance Task,cb_09,21.0,temp_dist_trial,num_items,zn7si1,1.0,response,2_ITEM,1103.3999999999942,1097.3000000000031,1103.3999999999942,1103.3999999999942,1097.3000000000031,1103.3999999999942,1.0,0.0,0.0,,Click Response,2_count,5.0,object-49,temp_dist_trial,21.0,s_a_12_1,student_art,saxophone,9.0,unique,paired,s_a_12_1.jpg,Student,,,sub-43
Desktop or Laptop,Windows 10,Chrome 138.0.0.0,1920x1080,1920x945,Temporal Distance Task,cb_09,21.0,temp_dist_trial,dist_items,qkpkxw,2.0,info,,3.6999999999970896,0.0,3.6999999999970896,3.6999999999970896,0.0,3.6999999999970896,1.0,0.0,0.0,,Slider,Slider,4.0,object-56,temp_dist_trial,21.0,s_a_12_1,student_art,saxophone,9.0,unique,paired,s_a_12_1.jpg,Student,,,sub-43
Desktop or Laptop,Windows 10,Chrome 138.0.0.0,1920x1080,1920x945,Temporal Distance Task,cb_09,21.0,temp_dist_trial,dist_items,qkpkxw,2.0,continue,,1664.9999999999854,1658.8999999999942,1664.9999999999854,1664.9999999999854,1658.8999999999942,1664.9999999999854,1.0,0.0,0.0,,Click To Continue,Next button,7.0,object-60,temp_dist_trial,21.0,s_a_12_1,student_art,saxophone,9.0,unique,paired,s_a_12_1.jpg,Student,,,sub-43
Desktop or Laptop,Windows 10,Chrome 138.0.0.0,1920x1080,1920x945,Temporal Distance Task,cb_09,21.0,temp_dist_trial,dist_items,qkpkxw,2.0,response,68,806.0,1658.8999999999942,1664.9999999999854,806.0,1658.8999999999942,1664.9999999999854,1.0,858.9999999999852,0.0,,Slider,Slider,4.0,object-56,temp_dist_trial,21.0,s_a_12_1,student_art,saxophone,9.0,unique,paired,s_a_12_1.jpg,Student,,,sub-43
Desktop or Laptop,Windows 10,Chrome 138.0.0.0,1920x1080,1920x945,Temporal Distance Task,cb_09,22.0,temp_dist_trial,num_items,zn7si1,1.0,response,2_ITEM,1420.7999999999884,1414.6999999999966,1420.7999999999884,1420.7999999999884,1414.6999999999966,1420.7999999999884,1.0,0.0,0.0,,Click Response,2_count,5.0,object-49,temp_dist_trial,22.0,s_sh_22_1,student_shared,hole puncher,9.0,competing,paired,s_sh_22_1.jpg,Student,,,sub-43
Desktop or Laptop,Windows 10,Chrome 138.0.0.0,1920x1080,1920x945,Temporal Distance Task,cb_09,22.0,temp_dist_trial,dist_items,qkpkxw,2.0,info,,3.0000000238360367,0.0,3.0000000238360367,3.0000000238360367,0.0,3.0000000238360367,1.0,0.0,0.0,,Slider,Slider,4.0,object-56,temp_dist_trial,22.0,s_sh_22_1,student_shared,hole puncher,9.0,competing,paired,s_sh_22_1.jpg,Student,,,sub-43
Desktop or Laptop,Windows 10,Chrome 138.0.0.0,1920x1080,1920x945,Temporal Distance Task,cb_09,22.0,temp_dist_trial,dist_items,qkpkxw,2.0,continue,,1720.2999999761525,1715.7999999999884,1720.2999999761525,1720.2999999761525,1715.7999999999884,1720.2999999761525,1.0,0.0,0.0,,Click To Continue,Next button,7.0,object-60,temp_dist_trial,22.0,s_sh_22_1,student_shared,hole puncher,9.0,competing,paired,s_sh_22_1.jpg,Student,,,sub-43
Desktop or Laptop,Windows 10,Chrome 138.0.0.0,1920x1080,1920x945,Temporal Distance Task,cb_09,22.0,temp_dist_trial,dist_items,qkpkxw,2.0,response,58,921.1999999999972,1715.7999999999884,1720.600000047678,921.1999999999972,1715.7999999999884,1720.600000047678,1.0,799.4000000476808,0.0,,Slider,Slider,4.0,object-56,temp_dist_trial,22.0,s_sh_22_1,student_shared,hole puncher,9.0,competing,paired,s_sh_22_1.jpg,Student,,,sub-43
Desktop or Laptop,Windows 10,Chrome 138.0.0.0,1920x1080,1920x945,Temporal Distance Task,cb_09,23.0,temp_dist_trial,num_items,zn7si1,1.0,response,2_ITEM,1394.4000000000233,1388.2000000000116,1394.4000000000233,1394.4000000000233,1388.2000000000116,1394.4000000000233,1.0,0.0,0.0,,Click Response,2_count,5.0,object-49,temp_dist_trial,23.0,s_s_06_1,student_stem,calculator,9.0,unique,single,s_s_06_1.jpg,Student,,,sub-43
Desktop or Laptop,Windows 10,Chrome 138.0.0.0,1920x1080,1920x945,Temporal Distance Task,cb_09,23.0,temp_dist_trial,dist_items,qkpkxw,2.0,info,,2.8000000238389475,0.0,2.8000000238389475,2.8000000238389475,0.0,2.8000000238389475,1.0,0.0,0.0,,Slider,Slider,4.0,object-56,temp_dist_trial,23.0,s_s_06_1,student_stem,calculator,9.0,unique,single,s_s_06_1.jpg,Student,,,sub-43
Desktop or Laptop,Windows 10,Chrome 138.0.0.0,1920x1080,1920x945,Temporal Distance Task,cb_09,23.0,temp_dist_trial,dist_items,qkpkxw,2.0,continue,,1443.5,1436.5,1443.5,1443.5,1436.5,1443.5,1.0,0.0,0.0,,Click To Continue,Next button,7.0,object-60,temp_dist_trial,23.0,s_s_06_1,student_stem,calculator,9.0,unique,single,s_s_06_1.jpg,Student,,,sub-43
Desktop or Laptop,Windows 10,Chrome 138.0.0.0,1920x1080,1920x945,Temporal Distance Task,cb_09,23.0,temp_dist_trial,dist_items,qkpkxw,2.0,response,28,636.3999999999943,1436.5,1443.5,636.3999999999943,1436.5,1443.5,1.0,807.1000000000058,0.0,,Slider,Slider,4.0,object-56,temp_dist_trial,23.0,s_s_06_1,student_stem,calculator,9.0,unique,single,s_s_06_1.jpg,Student,,,sub-43
Desktop or Laptop,Windows 10,Chrome 138.0.0.0,1920x1080,1920x945,Temporal Distance Task,cb_09,24.0,temp_dist_trial,num_items,zn7si1,1.0,response,2_ITEM,1356.6999999999969,1352.1999999999969,1356.6999999999969,1356.6999999999969,1352.1999999999969,1356.6999999999969,1.0,0.0,0.0,,Click Response,2_count,5.0,object-49,temp_dist_trial,24.0,s_s_19_1,student_stem,circuit board,9.0,unique,paired,s_s_19_1.jpg,Student,,,sub-43
Desktop or Laptop,Windows 10,Chrome 138.0.0.0,1920x1080,1920x945,Temporal Distance Task,cb_09,24.0,temp_dist_trial,dist_items,qkpkxw,2.0,info,,6.5,0.0,6.5,6.5,0.0,6.5,1.0,0.0,0.0,,Slider,Slider,4.0,object-56,temp_dist_trial,24.0,s_s_19_1,student_stem,circuit board,9.0,unique,paired,s_s_19_1.jpg,Student,,,sub-43
Desktop or Laptop,Windows 10,Chrome 138.0.0.0,1920x1080,1920x945,Temporal Distance Task,cb_09,24.0,temp_dist_trial,dist_items,qkpkxw,2.0,continue,,1214.600000023842,1212.6999999999969,1214.600000023842,1214.600000023842,1212.6999999999969,1214.600000023842,1.0,0.0,0.0,,Click To Continue,Next button,7.0,object-60,temp_dist_trial,24.0,s_s_19_1,student_stem,circuit board,9.0,unique,paired,s_s_19_1.jpg,Student,,,sub-43
Desktop or Laptop,Windows 10,Chrome 138.0.0.0,1920x1080,1920x945,Temporal Distance Task,cb_09,24.0,temp_dist_trial,dist_items,qkpkxw,2.0,response,33,454.6000000000058,1212.6999999999969,1214.899999976158,454.6000000000058,1212.6999999999969,1214.899999976158,1.0,760.2999999761522,0.0,,Slider,Slider,4.0,object-56,temp_dist_trial,24.0,s_s_19_1,student_stem,circuit board,9.0,unique,paired,s_s_19_1.jpg,Student,,,sub-43
Desktop or Laptop,Windows 10,Chrome 138.0.0.0,1920x1080,1920x945,Temporal Distance Task,cb_09,25.0,temp_dist_trial,num_items,zn7si1,1.0,response,2_ITEM,1620.6000000715287,1616.8000000000034,1620.6000000715287,1620.6000000715287,1616.8000000000034,1620.6000000715287,1.0,0.0,0.0,,Click Response,2_count,5.0,object-49,temp_dist_trial,25.0,s_a_06_1,student_art,pastels,9.0,unique,single,s_a_06_1.jpg,Student,,,sub-43
Desktop or Laptop,Windows 10,Chrome 138.0.0.0,1920x1080,1920x945,Temporal Distance Task,cb_09,25.0,temp_dist_trial,dist_items,qkpkxw,2.0,info,,2.4000000715313945,0.0,2.4000000715313945,2.4000000715313945,0.0,2.4000000715313945,1.0,0.0,0.0,,Slider,Slider,4.0,object-56,temp_dist_trial,25.0,s_a_06_1,student_art,pastels,9.0,unique,single,s_a_06_1.jpg,Student,,,sub-43
Desktop or Laptop,Windows 10,Chrome 138.0.0.0,1920x1080,1920x945,Temporal Distance Task,cb_09,25.0,temp_dist_trial,dist_items,qkpkxw,2.0,continue,,1287.8000000476895,1285.4000000000087,1287.8000000476895,1287.8000000476895,1285.4000000000087,1287.8000000476895,1.0,0.0,0.0,,Click To Continue,Next button,7.0,object-60,temp_dist_trial,25.0,s_a_06_1,student_art,pastels,9.0,unique,single,s_a_06_1.jpg,Student,,,sub-43
Desktop or Laptop,Windows 10,Chrome 138.0.0.0,1920x1080,1920x945,Temporal Distance Task,cb_09,25.0,temp_dist_trial,dist_items,qkpkxw,2.0,response,69,466.7000000000117,1285.4000000000087,1288.1000000000058,466.7000000000117,1285.4000000000087,1288.1000000000058,1.0,821.3999999999942,0.0,,Slider,Slider,4.0,object-56,temp_dist_trial,25.0,s_a_06_1,student_art,pastels,9.0,unique,single,s_a_06_1.jpg,Student,,,sub-43
Desktop or Laptop,Windows 10,Chrome 138.0.0.0,1920x1080,1920x945,Temporal Distance Task,cb_09,26.0,temp_dist_trial,num_items,zn7si1,1.0,response,1_ITEM,1488.5000000715231,1484.6999999999966,1488.5000000715231,1488.5000000715231,1484.6999999999966,1488.5000000715231,1.0,0.0,0.0,,Click Response,1_count,3.0,object-46,temp_dist_trial,26.0,s_a_01_1,student_art,paintbrush,9.0,unique,single,s_a_01_1.jpg,Student,,,sub-43
Desktop or Laptop,Windows 10,Chrome 138.0.0.0,1920x1080,1920x945,Temporal Distance Task,cb_09,27.0,temp_dist_trial,num_items,zn7si1,1.0,response,2_ITEM,970.9000000238448,969.6000000000058,970.9000000238448,970.9000000238448,969.6000000000058,970.9000000238448,1.0,0.0,0.0,,Click Response,2_count,5.0,object-49,temp_dist_trial,27.0,s_s_09_1,student_stem,multimeter,9.0,unique,paired,s_s_09_1.jpg,Student,,,sub-43
Desktop or Laptop,Windows 10,Chrome 138.0.0.0,1920x1080,1920x945,Temporal Distance Task,cb_09,27.0,temp_dist_trial,dist_items,qkpkxw,2.0,info,,2.9000000715313945,0.0,2.9000000715313945,2.9000000715313945,0.0,2.9000000715313945,1.0,0.0,0.0,,Slider,Slider,4.0,object-56,temp_dist_trial,27.0,s_s_09_1,student_stem,multimeter,9.0,unique,paired,s_s_09_1.jpg,Student,,,sub-43
Desktop or Laptop,Windows 10,Chrome 138.0.0.0,1920x1080,1920x945,Temporal Distance Task,cb_09,27.0,temp_dist_trial,dist_items,qkpkxw,2.0,continue,,2454.700000023848,2449.1000000000063,2454.700000023848,2454.700000023848,2449.1000000000063,2454.700000023848,1.0,0.0,0.0,,Click To Continue,Next button,7.0,object-60,temp_dist_trial,27.0,s_s_09_1,student_stem,multimeter,9.0,unique,paired,s_s_09_1.jpg,Student,,,sub-43
Desktop or Laptop,Windows 10,Chrome 138.0.0.0,1920x1080,1920x945,Temporal Distance Task,cb_09,27.0,temp_dist_trial,dist_items,qkpkxw,2.0,response,34,1284.8000000000031,2449.1000000000063,2454.999999976164,1284.8000000000031,2449.1000000000063,2454.999999976164,1.0,1170.199999976161,0.0,,Slider,Slider,4.0,object-56,temp_dist_trial,27.0,s_s_09_1,student_stem,multimeter,9.0,unique,paired,s_s_09_1.jpg,Student,,,sub-43
Desktop or Laptop,Windows 10,Chrome 138.0.0.0,1920x1080,1920x945,Temporal Distance Task,cb_09,28.0,temp_dist_trial,num_items,zn7si1,1.0,response,1_ITEM,1205.8999999999942,1199.8999999999942,1205.8999999999942,1205.8999999999942,1199.8999999999942,1205.8999999999942,1.0,0.0,0.0,,Click Response,1_count,3.0,object-46,temp_dist_trial,28.0,s_sh_03_1,student_shared,highlighter,9.0,competing,single,s_sh_03_1.jpg,Student,,,sub-43
Desktop or Laptop,Windows 10,Chrome 138.0.0.0,1920x1080,1920x945,Temporal Distance Task,cb_09,29.0,temp_dist_trial,num_items,zn7si1,1.0,response,1_ITEM,1230.2000000000114,1224.1000000000058,1230.2000000000114,1230.2000000000114,1224.1000000000058,1230.2000000000114,1.0,0.0,0.0,,Click Response,1_count,3.0,object-46,temp_dist_trial,29.0,s_sh_24_1,student_shared,desk organizer,9.0,competing,paired,s_sh_24_1.jpg,Student,,,sub-43
Desktop or Laptop,Windows 10,Chrome 138.0.0.0,1920x1080,1920x945,Temporal Distance Task,cb_09,30.0,temp_dist_trial,num_items,zn7si1,1.0,response,2_ITEM,2426.000000071523,2424.0,2426.000000071523,2426.000000071523,2424.0,2426.000000071523,1.0,0.0,0.0,,Click Response,2_count,5.0,object-49,temp_dist_trial,30.0,s_a_15_1,student_art,drum kit,9.0,unique,single,s_a_15_1.jpg,Student,,,sub-43
Desktop or Laptop,Windows 10,Chrome 138.0.0.0,1920x1080,1920x945,Temporal Distance Task,cb_09,30.0,temp_dist_trial,dist_items,qkpkxw,2.0,info,,2.9000000715313945,0.0,2.9000000715313945,2.9000000715313945,0.0,2.9000000715313945,1.0,0.0,0.0,,Slider,Slider,4.0,object-56,temp_dist_trial,30.0,s_a_15_1,student_art,drum kit,9.0,unique,single,s_a_15_1.jpg,Student,,,sub-43
Desktop or Laptop,Windows 10,Chrome 138.0.0.0,1920x1080,1920x945,Temporal Distance Task,cb_09,30.0,temp_dist_trial,dist_items,qkpkxw,2.0,continue,,1312.5000000000146,1306.4000000000087,1312.5000000000146,1312.5000000000146,1306.4000000000087,1312.5000000000146,1.0,0.0,0.0,,Click To Continue,Next button,7.0,object-60,temp_dist_trial,30.0,s_a_15_1,student_art,drum kit,9.0,unique,single,s_a_15_1.jpg,Student,,,sub-43
Desktop or Laptop,Windows 10,Chrome 138.0.0.0,1920x1080,1920x945,Temporal Distance Task,cb_09,30.0,temp_dist_trial,dist_items,qkpkxw,2.0,response,60,696.8000000000029,1306.4000000000087,1312.5000000000146,696.8000000000029,1306.4000000000087,1312.5000000000146,1.0,615.7000000000116,0.0,,Slider,Slider,4.0,object-56,temp_dist_trial,30.0,s_a_15_1,student_art,drum kit,9.0,unique,single,s_a_15_1.jpg,Student,,,sub-43
Desktop or Laptop,Windows 10,Chrome 138.0.0.0,1920x1080,1920x945,Temporal Distance Task,cb_09,31.0,temp_dist_trial,num_items,zn7si1,1.0,response,2_ITEM,1523.9000000476804,1521.0,1523.9000000476804,1523.9000000476804,1521.0,1523.9000000476804,1.0,0.0,0.0,,Click Response,2_count,5.0,object-49,temp_dist_trial,31.0,s_s_10_1,student_stem,3d molecule,9.0,unique,paired,s_s_10_1.jpg,Student,,,sub-43
Desktop or Laptop,Windows 10,Chrome 138.0.0.0,1920x1080,1920x945,Temporal Distance Task,cb_09,31.0,temp_dist_trial,dist_items,qkpkxw,2.0,info,,6.4000000476808045,0.0,6.4000000476808045,6.4000000476808045,0.0,6.4000000476808045,1.0,0.0,0.0,,Slider,Slider,4.0,object-56,temp_dist_trial,31.0,s_s_10_1,student_stem,3d molecule,9.0,unique,paired,s_s_10_1.jpg,Student,,,sub-43
Desktop or Laptop,Windows 10,Chrome 138.0.0.0,1920x1080,1920x945,Temporal Distance Task,cb_09,31.0,temp_dist_trial,dist_items,qkpkxw,2.0,continue,,1302.5999999761552,1298.6999999999969,1302.5999999761552,1302.5999999761552,1298.6999999999969,1302.5999999761552,1.0,0.0,0.0,,Click To Continue,Next button,7.0,object-60,temp_dist_trial,31.0,s_s_10_1,student_stem,3d molecule,9.0,unique,paired,s_s_10_1.jpg,Student,,,sub-43
Desktop or Laptop,Windows 10,Chrome 138.0.0.0,1920x1080,1920x945,Temporal Distance Task,cb_09,31.0,temp_dist_trial,dist_items,qkpkxw,2.0,response,64,509.09999999999116,1298.6999999999969,1302.6999999999969,509.09999999999116,1298.6999999999969,1302.6999999999969,1.0,793.6000000000058,0.0,,Slider,Slider,4.0,object-56,temp_dist_trial,31.0,s_s_10_1,student_stem,3d molecule,9.0,unique,paired,s_s_10_1.jpg,Student,,,sub-43
Desktop or Laptop,Windows 10,Chrome 138.0.0.0,1920x1080,1920x945,Temporal Distance Task,cb_09,32.0,temp_dist_trial,num_items,zn7si1,1.0,response,2_ITEM,975.7000000000116,969.6000000000058,975.7000000000116,975.7000000000116,969.6000000000058,975.7000000000116,1.0,0.0,0.0,,Click Response,2_count,5.0,object-49,temp_dist_trial,32.0,s_sh_14_1,student_shared,printer,9.0,competing,paired,s_sh_14_1.jpg,Student,,,sub-43
Desktop or Laptop,Windows 10,Chrome 138.0.0.0,1920x1080,1920x945,Temporal Distance Task,cb_09,32.0,temp_dist_trial,dist_items,qkpkxw,2.0,info,,5.4000000476953565,0.0,5.4000000476953565,5.4000000476953565,0.0,5.4000000476953565,1.0,0.0,0.0,,Slider,Slider,4.0,object-56,temp_dist_trial,32.0,s_sh_14_1,student_shared,printer,9.0,competing,paired,s_sh_14_1.jpg,Student,,,sub-43
Desktop or Laptop,Windows 10,Chrome 138.0.0.0,1920x1080,1920x945,Temporal Distance Task,cb_09,32.0,temp_dist_trial,dist_items,qkpkxw,2.0,continue,,1890.0000000715368,1885.9000000000235,1890.0000000715368,1890.0000000715368,1885.9000000000235,1890.0000000715368,1.0,0.0,0.0,,Click To Continue,Next button,7.0,object-60,temp_dist_trial,32.0,s_sh_14_1,student_shared,printer,9.0,competing,paired,s_sh_14_1.jpg,Student,,,sub-43
Desktop or Laptop,Windows 10,Chrome 138.0.0.0,1920x1080,1920x945,Temporal Distance Task,cb_09,32.0,temp_dist_trial,dist_items,qkpkxw,2.0,response,62,1193.8000000000175,1885.9000000000235,1890.300000023853,1193.8000000000175,1885.9000000000235,1890.300000023853,1.0,696.500000023836,0.0,,Slider,Slider,4.0,object-56,temp_dist_trial,32.0,s_sh_14_1,student_shared,printer,9.0,competing,paired,s_sh_14_1.jpg,Student,,,sub-43
Desktop or Laptop,Windows 10,Chrome 138.0.0.0,1920x1080,1920x945,Temporal Distance Task,cb_09,33.0,temp_dist_trial,num_items,zn7si1,1.0,response,2_ITEM,1353.100000071514,1351.2999999999886,1353.100000071514,1353.100000071514,1351.2999999999886,1353.100000071514,1.0,0.0,0.0,,Click Response,2_count,5.0,object-49,temp_dist_trial,33.0,s_s_15_1,student_stem,jumper cables,9.0,unique,paired,s_s_15_1.jpg,Student,,,sub-43
Desktop or Laptop,Windows 10,Chrome 138.0.0.0,1920x1080,1920x945,Temporal Distance Task,cb_09,33.0,temp_dist_trial,dist_items,qkpkxw,2.0,info,,4.7000000000116415,0.0,4.7000000000116415,4.7000000000116415,0.0,4.7000000000116415,1.0,0.0,0.0,,Slider,Slider,4.0,object-56,temp_dist_trial,33.0,s_s_15_1,student_stem,jumper cables,9.0,unique,paired,s_s_15_1.jpg,Student,,,sub-43
Desktop or Laptop,Windows 10,Chrome 138.0.0.0,1920x1080,1920x945,Temporal Distance Task,cb_09,33.0,temp_dist_trial,dist_items,qkpkxw,2.0,continue,,2104.5000000715368,2104.1000000000063,2104.5000000715368,2104.5000000715368,2104.1000000000063,2104.5000000715368,1.0,0.0,0.0,,Click To Continue,Next button,7.0,object-60,temp_dist_trial,33.0,s_s_15_1,student_stem,jumper cables,9.0,unique,paired,s_s_15_1.jpg,Student,,,sub-43
Desktop or Laptop,Windows 10,Chrome 138.0.0.0,1920x1080,1920x945,Temporal Distance Task,cb_09,33.0,temp_dist_trial,dist_items,qkpkxw,2.0,response,63,1436.2000000000116,2104.1000000000063,2104.900000047696,1436.2000000000116,2104.1000000000063,2104.900000047696,1.0,668.7000000476837,0.0,,Slider,Slider,4.0,object-56,temp_dist_trial,33.0,s_s_15_1,student_stem,jumper cables,9.0,unique,paired,s_s_15_1.jpg,Student,,,sub-43
Desktop or Laptop,Windows 10,Chrome 138.0.0.0,1920x1080,1920x945,Temporal Distance Task,cb_09,34.0,temp_dist_trial,num_items,zn7si1,1.0,response,1_ITEM,1085.499999976164,1084.8000000000177,1085.499999976164,1085.499999976164,1084.8000000000177,1085.499999976164,1.0,0.0,0.0,,Click Response,1_count,3.0,object-46,temp_dist_trial,34.0,s_sh_10_1,student_shared,scissors,9.0,competing,paired,s_sh_10_1.jpg,Student,,,sub-43
Desktop or Laptop,Windows 10,Chrome 138.0.0.0,1920x1080,1920x945,Temporal Distance Task,cb_09,35.0,temp_dist_trial,num_items,zn7si1,1.0,response,1_ITEM,1159.6999999761465,1156.5,1159.6999999761465,1159.6999999761465,1156.5,1159.6999999761465,1.0,0.0,0.0,,Click Response,1_count,3.0,object-46,temp_dist_trial,35.0,s_sh_09_1,student_shared,paper clips,9.0,competing,paired,s_sh_09_1.jpg,Student,,,sub-43
Desktop or Laptop,Windows 10,Chrome 138.0.0.0,1920x1080,1920x945,Temporal Distance Task,cb_09,36.0,temp_dist_trial,num_items,zn7si1,1.0,response,1_ITEM,974.7000000000116,970.4000000000232,974.7000000000116,974.7000000000116,970.4000000000232,974.7000000000116,1.0,0.0,0.0,,Click Response,1_count,3.0,object-46,temp_dist_trial,36.0,s_a_14_1,student_art,guitar pick,9.0,unique,paired,s_a_14_1.jpg,Student,,,sub-43
Desktop or Laptop,Windows 10,Chrome 138.0.0.0,1920x1080,1920x945,Temporal Distance Task,cb_09,37.0,temp_dist_trial,num_items,zn7si1,1.0,response,2_ITEM,1569.6000000000058,1563.5,1569.6000000000058,1569.6000000000058,1563.5,1569.6000000000058,1.0,0.0,0.0,,Click Response,2_count,5.0,object-49,temp_dist_trial,37.0,s_a_02_1,student_art,canvas,9.0,unique,paired,s_a_02_1.jpg,Student,,,sub-43
Desktop or Laptop,Windows 10,Chrome 138.0.0.0,1920x1080,1920x945,Temporal Distance Task,cb_09,37.0,temp_dist_trial,dist_items,qkpkxw,2.0,info,,3.7000000000116415,0.0,3.7000000000116415,3.7000000000116415,0.0,3.7000000000116415,1.0,0.0,0.0,,Slider,Slider,4.0,object-56,temp_dist_trial,37.0,s_a_02_1,student_art,canvas,9.0,unique,paired,s_a_02_1.jpg,Student,,,sub-43
Desktop or Laptop,Windows 10,Chrome 138.0.0.0,1920x1080,1920x945,Temporal Distance Task,cb_09,37.0,temp_dist_trial,dist_items,qkpkxw,2.0,continue,,1805.2000000000119,1788.5,1805.2000000000119,1805.2000000000119,1788.5,1805.2000000000119,1.0,0.0,0.0,,Click To Continue,Next button,7.0,object-60,temp_dist_trial,37.0,s_a_02_1,student_art,canvas,9.0,unique,paired,s_a_02_1.jpg,Student,,,sub-43
Desktop or Laptop,Windows 10,Chrome 138.0.0.0,1920x1080,1920x945,Temporal Distance Task,cb_09,37.0,temp_dist_trial,dist_items,qkpkxw,2.0,response,35,618.1000000000057,1788.5,1805.5000000715368,618.1000000000057,1788.5,1805.5000000715368,1.0,1187.4000000715316,0.0,,Slider,Slider,4.0,object-56,temp_dist_trial,37.0,s_a_02_1,student_art,canvas,9.0,unique,paired,s_a_02_1.jpg,Student,,,sub-43
Desktop or Laptop,Windows 10,Chrome 138.0.0.0,1920x1080,1920x945,Temporal Distance Task,cb_09,38.0,temp_dist_trial,num_items,zn7si1,1.0,response,1_ITEM,1551.500000000029,1545.4000000000233,1551.500000000029,1551.500000000029,1545.4000000000233,1551.500000000029,1.0,0.0,0.0,,Click Response,1_count,3.0,object-46,temp_dist_trial,38.0,s_s_01_1,student_stem,microscope,9.0,unique,paired,s_s_01_1.jpg,Student,,,sub-43
Desktop or Laptop,Windows 10,Chrome 138.0.0.0,1920x1080,1920x945,Temporal Distance Task,cb_09,39.0,temp_dist_trial,num_items,zn7si1,1.0,response,2_ITEM,1030.2999999999593,1024.1999999999823,1030.2999999999593,1030.2999999999593,1024.1999999999823,1030.2999999999593,1.0,0.0,0.0,,Click Response,2_count,5.0,object-49,temp_dist_trial,39.0,s_sh_20_1,student_shared,tape,9.0,competing,paired,s_sh_20_1.jpg,Student,,,sub-43
Desktop or Laptop,Windows 10,Chrome 138.0.0.0,1920x1080,1920x945,Temporal Distance Task,cb_09,39.0,temp_dist_trial,dist_items,qkpkxw,2.0,info,,3.000000071537216,0.0,3.000000071537216,3.000000071537216,0.0,3.000000071537216,1.0,0.0,0.0,,Slider,Slider,4.0,object-56,temp_dist_trial,39.0,s_sh_20_1,student_shared,tape,9.0,competing,paired,s_sh_20_1.jpg,Student,,,sub-43
Desktop or Laptop,Windows 10,Chrome 138.0.0.0,1920x1080,1920x945,Temporal Distance Task,cb_09,39.0,temp_dist_trial,dist_items,qkpkxw,2.0,continue,,1353.0999999761698,1351.5,1353.0999999761698,1353.0999999761698,1351.5,1353.0999999761698,1.0,0.0,0.0,,Click To Continue,Next button,7.0,object-60,temp_dist_trial,39.0,s_sh_20_1,student_shared,tape,9.0,competing,paired,s_sh_20_1.jpg,Student,,,sub-43
Desktop or Laptop,Windows 10,Chrome 138.0.0.0,1920x1080,1920x945,Temporal Distance Task,cb_09,39.0,temp_dist_trial,dist_items,qkpkxw,2.0,response,66,478.7000000000117,1351.5,1353.4000000476954,478.7000000000117,1351.5,1353.4000000476954,1.0,874.7000000476837,0.0,,Slider,Slider,4.0,object-56,temp_dist_trial,39.0,s_sh_20_1,student_shared,tape,9.0,competing,paired,s_sh_20_1.jpg,Student,,,sub-43
Desktop or Laptop,Windows 10,Chrome 138.0.0.0,1920x1080,1920x945,Temporal Distance Task,cb_09,40.0,temp_dist_trial,num_items,zn7si1,1.0,response,2_ITEM,972.4000000000232,966.4000000000232,972.4000000000232,972.4000000000232,966.4000000000232,972.4000000000232,1.0,0.0,0.0,,Click Response,2_count,5.0,object-49,temp_dist_trial,40.0,s_sh_18_1,student_shared,wall calendar,9.0,competing,paired,s_sh_18_1.jpg,Student,,,sub-43
Desktop or Laptop,Windows 10,Chrome 138.0.0.0,1920x1080,1920x945,Temporal Distance Task,cb_09,40.0,temp_dist_trial,dist_items,qkpkxw,2.0,info,,7.0000000715372135,0.0,7.0000000715372135,7.0000000715372135,0.0,7.0000000715372135,1.0,0.0,0.0,,Slider,Slider,4.0,object-56,temp_dist_trial,40.0,s_sh_18_1,student_shared,wall calendar,9.0,competing,paired,s_sh_18_1.jpg,Student,,,sub-43
Desktop or Laptop,Windows 10,Chrome 138.0.0.0,1920x1080,1920x945,Temporal Distance Task,cb_09,40.0,temp_dist_trial,dist_items,qkpkxw,2.0,continue,,1901.9000000476958,1898.0,1901.9000000476958,1901.9000000476958,1898.0,1901.9000000476958,1.0,0.0,0.0,,Click To Continue,Next button,7.0,object-60,temp_dist_trial,40.0,s_sh_18_1,student_shared,wall calendar,9.0,competing,paired,s_sh_18_1.jpg,Student,,,sub-43
Desktop or Laptop,Windows 10,Chrome 138.0.0.0,1920x1080,1920x945,Temporal Distance Task,cb_09,40.0,temp_dist_trial,dist_items,qkpkxw,2.0,response,76,727.1000000000058,1898.0,1902.099999976169,727.1000000000058,1898.0,1902.099999976169,1.0,1174.999999976164,0.0,,Slider,Slider,4.0,object-56,temp_dist_trial,40.0,s_sh_18_1,student_shared,wall calendar,9.0,competing,paired,s_sh_18_1.jpg,Student,,,sub-43
Desktop or Laptop,Windows 10,Chrome 138.0.0.0,1920x1080,1920x945,Temporal Distance Task,cb_09,41.0,temp_dist_trial,num_items,zn7si1,1.0,response,2_ITEM,1727.0,1721.0,1727.0,1727.0,1721.0,1727.0,1.0,0.0,0.0,,Click Response,2_count,5.0,object-49,temp_dist_trial,41.0,s_sh_11_1,student_shared,pencil case,9.0,competing,paired,s_sh_11_1.jpg,Student,,,sub-43
Desktop or Laptop,Windows 10,Chrome 138.0.0.0,1920x1080,1920x945,Temporal Distance Task,cb_09,41.0,temp_dist_trial,dist_items,qkpkxw,2.0,info,,4.100000071513931,0.0,4.100000071513931,4.100000071513931,0.0,4.100000071513931,1.0,0.0,0.0,,Slider,Slider,4.0,object-56,temp_dist_trial,41.0,s_sh_11_1,student_shared,pencil case,9.0,competing,paired,s_sh_11_1.jpg,Student,,,sub-43
Desktop or Laptop,Windows 10,Chrome 138.0.0.0,1920x1080,1920x945,Temporal Distance Task,cb_09,41.0,temp_dist_trial,dist_items,qkpkxw,2.0,continue,,1461.0,1455.0,1461.0,1461.0,1455.0,1461.0,1.0,0.0,0.0,,Click To Continue,Next button,7.0,object-60,temp_dist_trial,41.0,s_sh_11_1,student_shared,pencil case,9.0,competing,paired,s_sh_11_1.jpg,Student,,,sub-43
Desktop or Laptop,Windows 10,Chrome 138.0.0.0,1920x1080,1920x945,Temporal Distance Task,cb_09,41.0,temp_dist_trial,dist_items,qkpkxw,2.0,response,62,581.7999999999884,1455.0,1461.0,581.7999999999884,1455.0,1461.0,1.0,879.2000000000116,0.0,,Slider,Slider,4.0,object-56,temp_dist_trial,41.0,s_sh_11_1,student_shared,pencil case,9.0,competing,paired,s_sh_11_1.jpg,Student,,,sub-43
Desktop or Laptop,Windows 10,Chrome 138.0.0.0,1920x1080,1920x945,Temporal Distance Task,cb_09,42.0,temp_dist_trial,num_items,zn7si1,1.0,response,2_ITEM,1345.500000047672,1339.7999999999886,1345.500000047672,1345.500000047672,1339.7999999999886,1345.500000047672,1.0,0.0,0.0,,Click Response,2_count,5.0,object-49,temp_dist_trial,42.0,s_sh_04_1,student_shared,laptop stand,9.0,competing,paired,s_sh_04_1.jpg,Student,,,sub-43
Desktop or Laptop,Windows 10,Chrome 138.0.0.0,1920x1080,1920x945,Temporal Distance Task,cb_09,42.0,temp_dist_trial,dist_items,qkpkxw,2.0,info,,4.700000047683716,0.0,4.700000047683716,4.700000047683716,0.0,4.700000047683716,1.0,0.0,0.0,,Slider,Slider,4.0,object-56,temp_dist_trial,42.0,s_sh_04_1,student_shared,laptop stand,9.0,competing,paired,s_sh_04_1.jpg,Student,,,sub-43
Desktop or Laptop,Windows 10,Chrome 138.0.0.0,1920x1080,1920x945,Temporal Distance Task,cb_09,42.0,temp_dist_trial,dist_items,qkpkxw,2.0,continue,,1399.3999999761581,1394.8999999999942,1399.3999999761581,1399.3999999761581,1394.8999999999942,1399.3999999761581,1.0,0.0,0.0,,Click To Continue,Next button,7.0,object-60,temp_dist_trial,42.0,s_sh_04_1,student_shared,laptop stand,9.0,competing,paired,s_sh_04_1.jpg,Student,,,sub-43
Desktop or Laptop,Windows 10,Chrome 138.0.0.0,1920x1080,1920x945,Temporal Distance Task,cb_09,42.0,temp_dist_trial,dist_items,qkpkxw,2.0,response,77,587.1000000000057,1394.8999999999942,1399.8000000715256,587.1000000000057,1394.8999999999942,1399.8000000715256,1.0,812.7000000715198,0.0,,Slider,Slider,4.0,object-56,temp_dist_trial,42.0,s_sh_04_1,student_shared,laptop stand,9.0,competing,paired,s_sh_04_1.jpg,Student,,,sub-43
Desktop or Laptop,Windows 10,Chrome 138.0.0.0,1920x1080,1920x945,Temporal Distance Task,cb_09,43.0,temp_dist_trial,num_items,zn7si1,1.0,response,2_ITEM,943.4000000715314,939.3000000000177,943.4000000715314,943.4000000715314,939.3000000000177,943.4000000715314,1.0,0.0,0.0,,Click Response,2_count,5.0,object-49,temp_dist_trial,43.0,s_s_08_1,student_stem,soldering iron,9.0,unique,paired,s_s_08_1.jpg,Student,,,sub-43
Desktop or Laptop,Windows 10,Chrome 138.0.0.0,1920x1080,1920x945,Temporal Distance Task,cb_09,43.0,temp_dist_trial,dist_items,qkpkxw,2.0,info,,6.499999976163963,0.0,6.499999976163963,6.499999976163963,0.0,6.499999976163963,1.0,0.0,0.0,,Slider,Slider,4.0,object-56,temp_dist_trial,43.0,s_s_08_1,student_stem,soldering iron,9.0,unique,paired,s_s_08_1.jpg,Student,,,sub-43
Desktop or Laptop,Windows 10,Chrome 138.0.0.0,1920x1080,1920x945,Temporal Distance Task,cb_09,43.0,temp_dist_trial,dist_items,qkpkxw,2.0,continue,,1542.9000000715314,1540.2000000000116,1542.9000000715314,1542.9000000715314,1540.2000000000116,1542.9000000715314,1.0,0.0,0.0,,Click To Continue,Next button,7.0,object-60,temp_dist_trial,43.0,s_s_08_1,student_stem,soldering iron,9.0,unique,paired,s_s_08_1.jpg,Student,,,sub-43
Desktop or Laptop,Windows 10,Chrome 138.0.0.0,1920x1080,1920x945,Temporal Distance Task,cb_09,43.0,temp_dist_trial,dist_items,qkpkxw,2.0,response,25,660.5,1540.2000000000116,1546.2000000000116,660.5,1540.2000000000116,1546.2000000000116,1.0,885.7000000000116,0.0,,Slider,Slider,4.0,object-56,temp_dist_trial,43.0,s_s_08_1,student_stem,soldering iron,9.0,unique,paired,s_s_08_1.jpg,Student,,,sub-43
Desktop or Laptop,Windows 10,Chrome 138.0.0.0,1920x1080,1920x945,Temporal Distance Task,cb_09,44.0,temp_dist_trial,num_items,zn7si1,1.0,response,2_ITEM,1254.5,1248.3999999999942,1254.5,1254.5,1248.3999999999942,1254.5,1.0,0.0,0.0,,Click Response,2_count,5.0,object-49,temp_dist_trial,44.0,s_sh_15_1,student_shared,usb drive,9.0,competing,paired,s_sh_15_1.jpg,Student,,,sub-43
Desktop or Laptop,Windows 10,Chrome 138.0.0.0,1920x1080,1920x945,Temporal Distance Task,cb_09,44.0,temp_dist_trial,dist_items,qkpkxw,2.0,info,,8.000000071537215,0.0,8.000000071537215,8.000000071537215,0.0,8.000000071537215,1.0,0.0,0.0,,Slider,Slider,4.0,object-56,temp_dist_trial,44.0,s_sh_15_1,student_shared,usb drive,9.0,competing,paired,s_sh_15_1.jpg,Student,,,sub-43
Desktop or Laptop,Windows 10,Chrome 138.0.0.0,1920x1080,1920x945,Temporal Distance Task,cb_09,44.0,temp_dist_trial,dist_items,qkpkxw,2.0,continue,,1572.2000000000116,1569.4000000000233,1572.2000000000116,1572.2000000000116,1569.4000000000233,1572.2000000000116,1.0,0.0,0.0,,Click To Continue,Next button,7.0,object-60,temp_dist_trial,44.0,s_sh_15_1,student_shared,usb drive,9.0,competing,paired,s_sh_15_1.jpg,Student,,,sub-43
Desktop or Laptop,Windows 10,Chrome 138.0.0.0,1920x1080,1920x945,Temporal Distance Task,cb_09,44.0,temp_dist_trial,dist_items,qkpkxw,2.0,response,75,684.8000000000175,1569.4000000000233,1572.4000000476956,684.8000000000175,1569.4000000000233,1572.4000000476956,1.0,887.6000000476779,0.0,,Slider,Slider,4.0,object-56,temp_dist_trial,44.0,s_sh_15_1,student_shared,usb drive,9.0,competing,paired,s_sh_15_1.jpg,Student,,,sub-43
Desktop or Laptop,Windows 10,Chrome 138.0.0.0,1920x1080,1920x945,Temporal Distance Task,cb_09,45.0,temp_dist_trial,num_items,zn7si1,1.0,response,2_ITEM,881.0999999999768,875.0999999999768,881.0999999999768,881.0999999999768,875.0999999999768,881.0999999999768,1.0,0.0,0.0,,Click Response,2_count,5.0,object-49,temp_dist_trial,45.0,s_a_16_1,student_art,piano,9.0,unique,paired,s_a_16_1.jpg,Student,,,sub-43
Desktop or Laptop,Windows 10,Chrome 138.0.0.0,1920x1080,1920x945,Temporal Distance Task,cb_09,45.0,temp_dist_trial,dist_items,qkpkxw,2.0,info,,3.700000071519753,0.0,3.700000071519753,3.700000071519753,0.0,3.700000071519753,1.0,0.0,0.0,,Slider,Slider,4.0,object-56,temp_dist_trial,45.0,s_a_16_1,student_art,piano,9.0,unique,paired,s_a_16_1.jpg,Student,,,sub-43
Desktop or Laptop,Windows 10,Chrome 138.0.0.0,1920x1080,1920x945,Temporal Distance Task,cb_09,45.0,temp_dist_trial,dist_items,qkpkxw,2.0,continue,,1303.6000000000058,1297.5,1303.6000000000058,1303.6000000000058,1297.5,1303.6000000000058,1.0,0.0,0.0,,Click To Continue,Next button,7.0,object-60,temp_dist_trial,45.0,s_a_16_1,student_art,piano,9.0,unique,paired,s_a_16_1.jpg,Student,,,sub-43
Desktop or Laptop,Windows 10,Chrome 138.0.0.0,1920x1080,1920x945,Temporal Distance Task,cb_09,45.0,temp_dist_trial,dist_items,qkpkxw,2.0,response,72,618.1000000000057,1297.5,1303.6000000000058,618.1000000000057,1297.5,1303.6000000000058,1.0,685.5,0.0,,Slider,Slider,4.0,object-56,temp_dist_trial,45.0,s_a_16_1,student_art,piano,9.0,unique,paired,s_a_16_1.jpg,Student,,,sub-43
Desktop or Laptop,Windows 10,Chrome 138.0.0.0,1920x1080,1920x945,Temporal Distance Task,cb_09,46.0,temp_dist_trial,num_items,zn7si1,1.0,response,1_ITEM,1512.2999999761525,1508.8999999999942,1512.2999999761525,1512.2999999761525,1508.8999999999942,1512.2999999761525,1.0,0.0,0.0,,Click Response,1_count,3.0,object-46,temp_dist_trial,46.0,s_sh_08_1,student_shared,post-its,9.0,competing,paired,s_sh_08_1.jpg,Student,,,sub-43
Desktop or Laptop,Windows 10,Chrome 138.0.0.0,1920x1080,1920x945,Temporal Distance Task,cb_09,47.0,temp_dist_trial,num_items,zn7si1,1.0,response,1_ITEM,1972.8000000715256,1970.8999999999944,1972.8000000715256,1972.8000000715256,1970.8999999999944,1972.8000000715256,1.0,0.0,0.0,,Click Response,1_count,3.0,object-46,temp_dist_trial,47.0,s_sh_07_1,student_shared,ruler,9.0,competing,single,s_sh_07_1.jpg,Student,,,sub-43
Desktop or Laptop,Windows 10,Chrome 138.0.0.0,1920x1080,1920x945,Temporal Distance Task,cb_09,48.0,temp_dist_trial,num_items,zn7si1,1.0,response,1_ITEM,1987.7000000000119,1981.6000000000056,1987.7000000000119,1987.7000000000119,1981.6000000000056,1987.7000000000119,1.0,0.0,0.0,,Click Response,1_count,3.0,object-46,temp_dist_trial,48.0,s_sh_05_1,student_shared,laptop,9.0,competing,single,s_sh_05_1.jpg,Student,,,sub-43
Desktop or Laptop,Windows 10,Chrome 138.0.0.0,1920x1080,1920x945,Temporal Distance Task,cb_09,2.0,temp_eventStart,Screen 1,dgtyxe,1.0,continue,,918.9000000715314,915.1000000000058,918.9000000715314,918.9000000715314,915.1000000000058,918.9000000715314,1.0,0.0,0.0,,Click To Continue,Next Button,3.0,object-43,temp_eventStart,,,Travel,,,,,,,,,sub-43
Desktop or Laptop,Windows 10,Chrome 138.0.0.0,1920x1080,1920x945,Temporal Distance Task,cb_09,49.0,temp_dist_trial,num_items,zn7si1,1.0,response,num_miss,3000.3999999999933,3000.3999999999933,3000.3999999999933,3000.3999999999933,3000.3999999999933,3000.3999999999933,1.0,0.0,0.0,num_miss_tag,Time Limit,screen,0.0,screen,temp_dist_trial,1.0,t_i_01_1,travel_Iceland,gloves,9.0,unique,single,t_i_01_1.jpg,Travel,,,sub-43
Desktop or Laptop,Windows 10,Chrome 138.0.0.0,1920x1080,1920x945,Temporal Distance Task,cb_09,50.0,temp_dist_trial,num_items,zn7si1,1.0,response,1_ITEM,347.2999999999884,341.29999999998836,347.2999999999884,347.2999999999884,341.29999999998836,347.2999999999884,1.0,0.0,0.0,,Click Response,1_count,3.0,object-46,temp_dist_trial,2.0,t_s_08_1,travel_shared,hand lotion,9.0,competing,single,t_s_08_1.jpg,Travel,,,sub-43
Desktop or Laptop,Windows 10,Chrome 138.0.0.0,1920x1080,1920x945,Temporal Distance Task,cb_09,51.0,temp_dist_trial,num_items,zn7si1,1.0,response,2_ITEM,1502.8000000715256,1496.7999999999884,1502.8000000715256,1502.8000000715256,1496.7999999999884,1502.8000000715256,1.0,0.0,0.0,,Click Response,2_count,5.0,object-49,temp_dist_trial,3.0,t_s_24_1,travel_shared,ear plugs,9.0,competing,paired,t_s_24_1.jpg,Travel,,,sub-43
Desktop or Laptop,Windows 10,Chrome 138.0.0.0,1920x1080,1920x945,Temporal Distance Task,cb_09,51.0,temp_dist_trial,dist_items,qkpkxw,2.0,info,,5.200000023847679,0.0,5.200000023847679,5.200000023847679,0.0,5.200000023847679,1.0,0.0,0.0,,Slider,Slider,4.0,object-56,temp_dist_trial,3.0,t_s_24_1,travel_shared,ear plugs,9.0,competing,paired,t_s_24_1.jpg,Travel,,,sub-43
Desktop or Laptop,Windows 10,Chrome 138.0.0.0,1920x1080,1920x945,Temporal Distance Task,cb_09,51.0,temp_dist_trial,dist_items,qkpkxw,2.0,continue,,2195.499999976164,2189.5,2195.499999976164,2195.499999976164,2189.5,2195.499999976164,1.0,0.0,0.0,,Click To Continue,Next button,7.0,object-60,temp_dist_trial,3.0,t_s_24_1,travel_shared,ear plugs,9.0,competing,paired,t_s_24_1.jpg,Travel,,,sub-43
Desktop or Laptop,Windows 10,Chrome 138.0.0.0,1920x1080,1920x945,Temporal Distance Task,cb_09,51.0,temp_dist_trial,dist_items,qkpkxw,2.0,response,69,1521.1000000000058,2189.5,2195.6000000000063,1521.1000000000058,2189.5,2195.6000000000063,1.0,674.5,0.0,,Slider,Slider,4.0,object-56,temp_dist_trial,3.0,t_s_24_1,travel_shared,ear plugs,9.0,competing,paired,t_s_24_1.jpg,Travel,,,sub-43
Desktop or Laptop,Windows 10,Chrome 138.0.0.0,1920x1080,1920x945,Temporal Distance Task,cb_09,52.0,temp_dist_trial,num_items,zn7si1,1.0,response,1_ITEM,1199.5,1193.5,1199.5,1199.5,1193.5,1199.5,1.0,0.0,0.0,,Click Response,1_count,3.0,object-46,temp_dist_trial,4.0,t_m_13_1,travel_Miami,floatie,9.0,unique,single,t_m_13_1.jpg,Travel,,,sub-43
Desktop or Laptop,Windows 10,Chrome 138.0.0.0,1920x1080,1920x945,Temporal Distance Task,cb_09,53.0,temp_dist_trial,num_items,zn7si1,1.0,response,1_ITEM,1370.500000000029,1364.4000000000233,1370.500000000029,1370.500000000029,1364.4000000000233,1370.500000000029,1.0,0.0,0.0,,Click Response,1_count,3.0,object-46,temp_dist_trial,5.0,t_i_20_1,travel_Iceland,lantern,9.0,unique,paired,t_i_20_1.jpg,Travel,,,sub-43
Desktop or Laptop,Windows 10,Chrome 138.0.0.0,1920x1080,1920x945,Temporal Distance Task,cb_09,54.0,temp_dist_trial,num_items,zn7si1,1.0,response,2_ITEM,1465.8000000476895,1430.2000000000116,1465.8000000476895,1465.8000000476895,1430.2000000000116,1465.8000000476895,1.0,0.0,0.0,,Click Response,2_count,5.0,object-49,temp_dist_trial,6.0,t_s_12_1,travel_shared,clear toiletry bag,9.0,competing,paired,t_s_12_1.jpg,Travel,,,sub-43
Desktop or Laptop,Windows 10,Chrome 138.0.0.0,1920x1080,1920x945,Temporal Distance Task,cb_09,54.0,temp_dist_trial,dist_items,qkpkxw,2.0,info,,4.5,0.0,4.5,4.5,0.0,4.5,1.0,0.0,0.0,,Slider,Slider,4.0,object-56,temp_dist_trial,6.0,t_s_12_1,travel_shared,clear toiletry bag,9.0,competing,paired,t_s_12_1.jpg,Travel,,,sub-43
Desktop or Laptop,Windows 10,Chrome 138.0.0.0,1920x1080,1920x945,Temporal Distance Task,cb_09,54.0,temp_dist_trial,dist_items,qkpkxw,2.0,continue,,1364.3000000000175,1358.2000000000114,1364.3000000000175,1364.3000000000175,1358.2000000000114,1364.3000000000175,1.0,0.0,0.0,,Click To Continue,Next button,7.0,object-60,temp_dist_trial,6.0,t_s_12_1,travel_shared,clear toiletry bag,9.0,competing,paired,t_s_12_1.jpg,Travel,,,sub-43
Desktop or Laptop,Windows 10,Chrome 138.0.0.0,1920x1080,1920x945,Temporal Distance Task,cb_09,54.0,temp_dist_trial,dist_items,qkpkxw,2.0,response,66,636.2999999999884,1358.2000000000114,1364.3000000000175,636.2999999999884,1358.2000000000114,1364.3000000000175,1.0,728.0000000000291,0.0,,Slider,Slider,4.0,object-56,temp_dist_trial,6.0,t_s_12_1,travel_shared,clear toiletry bag,9.0,competing,paired,t_s_12_1.jpg,Travel,,,sub-43
Desktop or Laptop,Windows 10,Chrome 138.0.0.0,1920x1080,1920x945,Temporal Distance Task,cb_09,55.0,temp_dist_trial,num_items,zn7si1,1.0,response,1_ITEM,1992.6999999999528,1986.5999999999767,1992.6999999999528,1992.6999999999528,1986.5999999999767,1992.6999999999528,1.0,0.0,0.0,,Click Response,1_count,3.0,object-46,temp_dist_trial,7.0,t_m_11_1,travel_Miami,collapsible beach chair,9.0,unique,single,t_m_11_1.jpg,Travel,,,sub-43
Desktop or Laptop,Windows 10,Chrome 138.0.0.0,1920x1080,1920x945,Temporal Distance Task,cb_09,56.0,temp_dist_trial,num_items,zn7si1,1.0,response,1_ITEM,1436.1000000000058,1430.1000000000058,1436.1000000000058,1436.1000000000058,1430.1000000000058,1436.1000000000058,1.0,0.0,0.0,,Click Response,1_count,3.0,object-46,temp_dist_trial,8.0,t_m_18_1,travel_Miami,waterproof tote,9.0,unique,paired,t_m_18_1.jpg,Travel,,,sub-43
Desktop or Laptop,Windows 10,Chrome 138.0.0.0,1920x1080,1920x945,Temporal Distance Task,cb_09,57.0,temp_dist_trial,num_items,zn7si1,1.0,response,1_ITEM,1496.8000000000175,1490.7000000000116,1496.8000000000175,1496.8000000000175,1490.7000000000116,1496.8000000000175,1.0,0.0,0.0,,Click Response,1_count,3.0,object-46,temp_dist_trial,9.0,t_s_15_1,travel_shared,luggage tag,9.0,competing,paired,t_s_15_1.jpg,Travel,,,sub-43
Desktop or Laptop,Windows 10,Chrome 138.0.0.0,1920x1080,1920x945,Temporal Distance Task,cb_09,58.0,temp_dist_trial,num_items,zn7si1,1.0,response,2_ITEM,1590.2000000476835,1587.6000000000058,1590.2000000476835,1590.2000000476835,1587.6000000000058,1590.2000000476835,1.0,0.0,0.0,,Click Response,2_count,5.0,object-49,temp_dist_trial,10.0,t_i_04_1,travel_Iceland,portable camping stove,9.0,unique,paired,t_i_04_1.jpg,Travel,,,sub-43
Desktop or Laptop,Windows 10,Chrome 138.0.0.0,1920x1080,1920x945,Temporal Distance Task,cb_09,58.0,temp_dist_trial,dist_items,qkpkxw,2.0,info,,7.0,0.0,7.0,7.0,0.0,7.0,1.0,0.0,0.0,,Slider,Slider,4.0,object-56,temp_dist_trial,10.0,t_i_04_1,travel_Iceland,portable camping stove,9.0,unique,paired,t_i_04_1.jpg,Travel,,,sub-43
Desktop or Laptop,Windows 10,Chrome 138.0.0.0,1920x1080,1920x945,Temporal Distance Task,cb_09,58.0,temp_dist_trial,dist_items,qkpkxw,2.0,continue,,1268.2000000476835,1262.2000000000114,1268.2000000476835,1268.2000000476835,1262.2000000000114,1268.2000000476835,1.0,0.0,0.0,,Click To Continue,Next button,7.0,object-60,temp_dist_trial,10.0,t_i_04_1,travel_Iceland,portable camping stove,9.0,unique,paired,t_i_04_1.jpg,Travel,,,sub-43
Desktop or Laptop,Windows 10,Chrome 138.0.0.0,1920x1080,1920x945,Temporal Distance Task,cb_09,58.0,temp_dist_trial,dist_items,qkpkxw,2.0,response,69,643.7000000000116,1262.2000000000114,1268.3000000000175,643.7000000000116,1262.2000000000114,1268.3000000000175,1.0,624.6000000000057,0.0,,Slider,Slider,4.0,object-56,temp_dist_trial,10.0,t_i_04_1,travel_Iceland,portable camping stove,9.0,unique,paired,t_i_04_1.jpg,Travel,,,sub-43
Desktop or Laptop,Windows 10,Chrome 138.0.0.0,1920x1080,1920x945,Temporal Distance Task,cb_09,59.0,temp_dist_trial,num_items,zn7si1,1.0,response,2_ITEM,1388.1000000000058,1382.0,1388.1000000000058,1388.1000000000058,1382.0,1388.1000000000058,1.0,0.0,0.0,,Click Response,2_count,5.0,object-49,temp_dist_trial,11.0,t_m_05_1,travel_Miami,sunscreen,9.0,unique,single,t_m_05_1.jpg,Travel,,,sub-43
Desktop or Laptop,Windows 10,Chrome 138.0.0.0,1920x1080,1920x945,Temporal Distance Task,cb_09,59.0,temp_dist_trial,dist_items,qkpkxw,2.0,info,,2.700000047683716,0.0,2.700000047683716,2.700000047683716,0.0,2.700000047683716,1.0,0.0,0.0,,Slider,Slider,4.0,object-56,temp_dist_trial,11.0,t_m_05_1,travel_Miami,sunscreen,9.0,unique,single,t_m_05_1.jpg,Travel,,,sub-43
Desktop or Laptop,Windows 10,Chrome 138.0.0.0,1920x1080,1920x945,Temporal Distance Task,cb_09,59.0,temp_dist_trial,dist_items,qkpkxw,2.0,continue,,3055.6000000000067,3049.5,3055.6000000000067,3055.6000000000067,3049.5,3055.6000000000067,1.0,0.0,0.0,,Click To Continue,Next button,7.0,object-60,temp_dist_trial,11.0,t_m_05_1,travel_Miami,sunscreen,9.0,unique,single,t_m_05_1.jpg,Travel,,,sub-43
Desktop or Laptop,Windows 10,Chrome 138.0.0.0,1920x1080,1920x945,Temporal Distance Task,cb_09,59.0,temp_dist_trial,dist_items,qkpkxw,2.0,response,61,502.8999999999942,3049.5,3055.6000000000067,502.8999999999942,3049.5,3055.6000000000067,1.0,2552.700000000012,0.0,,Slider,Slider,4.0,object-56,temp_dist_trial,11.0,t_m_05_1,travel_Miami,sunscreen,9.0,unique,single,t_m_05_1.jpg,Travel,,,sub-43
Desktop or Laptop,Windows 10,Chrome 138.0.0.0,1920x1080,1920x945,Temporal Distance Task,cb_09,60.0,temp_dist_trial,num_items,zn7si1,1.0,response,1_ITEM,1897.3999999999944,1891.3999999999944,1897.3999999999944,1897.3999999999944,1891.3999999999944,1897.3999999999944,1.0,0.0,0.0,,Click Response,1_count,3.0,object-46,temp_dist_trial,12.0,t_s_17_1,travel_shared,toothbrush,9.0,competing,single,t_s_17_1.jpg,Travel,,,sub-43
Desktop or Laptop,Windows 10,Chrome 138.0.0.0,1920x1080,1920x945,Temporal Distance Task,cb_09,61.0,temp_dist_trial,num_items,zn7si1,1.0,response,1_ITEM,1187.8000000000175,1181.7000000000114,1187.8000000000175,1187.8000000000175,1181.7000000000114,1187.8000000000175,1.0,0.0,0.0,,Click Response,1_count,3.0,object-46,temp_dist_trial,13.0,t_s_18_1,travel_shared,first aid kit,9.0,competing,single,t_s_18_1.jpg,Travel,,,sub-43
Desktop or Laptop,Windows 10,Chrome 138.0.0.0,1920x1080,1920x945,Temporal Distance Task,cb_09,62.0,temp_dist_trial,num_items,zn7si1,1.0,response,1_ITEM,1258.8000000715256,1254.3999999999942,1258.8000000715256,1258.8000000715256,1254.3999999999942,1258.8000000715256,1.0,0.0,0.0,,Click Response,1_count,3.0,object-46,temp_dist_trial,14.0,t_s_10_1,travel_shared,luggage lock,9.0,competing,paired,t_s_10_1.jpg,Travel,,,sub-43
Desktop or Laptop,Windows 10,Chrome 138.0.0.0,1920x1080,1920x945,Temporal Distance Task,cb_09,63.0,temp_dist_trial,num_items,zn7si1,1.0,response,2_ITEM,1481.600000071514,1472.5,1481.600000071514,1481.600000071514,1472.5,1481.600000071514,1.0,0.0,0.0,,Click Response,2_count,5.0,object-49,temp_dist_trial,15.0,t_i_08_1,travel_Iceland,thick socks,9.0,unique,paired,t_i_08_1.jpg,Travel,,,sub-43
Desktop or Laptop,Windows 10,Chrome 138.0.0.0,1920x1080,1920x945,Temporal Distance Task,cb_09,63.0,temp_dist_trial,dist_items,qkpkxw,2.0,info,,3.4000000476953574,0.0,3.4000000476953574,3.4000000476953574,0.0,3.4000000476953574,1.0,0.0,0.0,,Slider,Slider,4.0,object-56,temp_dist_trial,15.0,t_i_08_1,travel_Iceland,thick socks,9.0,unique,paired,t_i_08_1.jpg,Travel,,,sub-43
Desktop or Laptop,Windows 10,Chrome 138.0.0.0,1920x1080,1920x945,Temporal Distance Task,cb_09,63.0,temp_dist_trial,dist_items,qkpkxw,2.0,continue,,1452.5999999761698,1449.2000000000116,1452.5999999761698,1452.5999999761698,1449.2000000000116,1452.5999999761698,1.0,0.0,0.0,,Click To Continue,Next button,7.0,object-60,temp_dist_trial,15.0,t_i_08_1,travel_Iceland,thick socks,9.0,unique,paired,t_i_08_1.jpg,Travel,,,sub-43
Desktop or Laptop,Windows 10,Chrome 138.0.0.0,1920x1080,1920x945,Temporal Distance Task,cb_09,63.0,temp_dist_trial,dist_items,qkpkxw,2.0,response,61,648.5,1449.2000000000116,1452.9000000476956,648.5,1449.2000000000116,1452.9000000476956,1.0,804.4000000476954,0.0,,Slider,Slider,4.0,object-56,temp_dist_trial,15.0,t_i_08_1,travel_Iceland,thick socks,9.0,unique,paired,t_i_08_1.jpg,Travel,,,sub-43
Desktop or Laptop,Windows 10,Chrome 138.0.0.0,1920x1080,1920x945,Temporal Distance Task,cb_09,64.0,temp_dist_trial,num_items,zn7si1,1.0,response,2_ITEM,1288.0,1284.7999999999886,1288.0,1288.0,1284.7999999999886,1288.0,1.0,0.0,0.0,,Click Response,2_count,5.0,object-49,temp_dist_trial,16.0,t_s_04_1,travel_shared,instant camera,9.0,competing,paired,t_s_04_1.jpg,Travel,,,sub-43
Desktop or Laptop,Windows 10,Chrome 138.0.0.0,1920x1080,1920x945,Temporal Distance Task,cb_09,64.0,temp_dist_trial,dist_items,qkpkxw,2.0,info,,2.9000000476953574,0.0,2.9000000476953574,2.9000000476953574,0.0,2.9000000476953574,1.0,0.0,0.0,,Slider,Slider,4.0,object-56,temp_dist_trial,16.0,t_s_04_1,travel_shared,instant camera,9.0,competing,paired,t_s_04_1.jpg,Travel,,,sub-43
Desktop or Laptop,Windows 10,Chrome 138.0.0.0,1920x1080,1920x945,Temporal Distance Task,cb_09,64.0,temp_dist_trial,dist_items,qkpkxw,2.0,continue,,1661.4000000000233,1655.3000000000175,1661.4000000000233,1661.4000000000233,1655.3000000000175,1661.4000000000233,1.0,0.0,0.0,,Click To Continue,Next button,7.0,object-60,temp_dist_trial,16.0,t_s_04_1,travel_shared,instant camera,9.0,competing,paired,t_s_04_1.jpg,Travel,,,sub-43
Desktop or Laptop,Windows 10,Chrome 138.0.0.0,1920x1080,1920x945,Temporal Distance Task,cb_09,64.0,temp_dist_trial,dist_items,qkpkxw,2.0,response,37,484.7000000000117,1655.3000000000175,1661.4000000000233,484.7000000000117,1655.3000000000175,1661.4000000000233,1.0,1176.7000000000114,0.0,,Slider,Slider,4.0,object-56,temp_dist_trial,16.0,t_s_04_1,travel_shared,instant camera,9.0,competing,paired,t_s_04_1.jpg,Travel,,,sub-43
Desktop or Laptop,Windows 10,Chrome 138.0.0.0,1920x1080,1920x945,Temporal Distance Task,cb_09,65.0,temp_dist_trial,num_items,zn7si1,1.0,response,1_ITEM,1318.6000000476781,1315.8999999999942,1318.6000000476781,1318.6000000476781,1315.8999999999942,1318.6000000476781,1.0,0.0,0.0,,Click Response,1_count,3.0,object-46,temp_dist_trial,17.0,t_m_15_1,travel_Miami,shorts,9.0,unique,paired,t_m_15_1.jpg,Travel,,,sub-43
Desktop or Laptop,Windows 10,Chrome 138.0.0.0,1920x1080,1920x945,Temporal Distance Task,cb_09,66.0,temp_dist_trial,num_items,zn7si1,1.0,response,1_ITEM,1117.9000000715314,1114.8999999999942,1117.9000000715314,1117.9000000715314,1114.8999999999942,1117.9000000715314,1.0,0.0,0.0,,Click Response,1_count,3.0,object-46,temp_dist_trial,18.0,t_m_09_1,travel_Miami,beach towel,9.0,unique,single,t_m_09_1.jpg,Travel,,,sub-43
Desktop or Laptop,Windows 10,Chrome 138.0.0.0,1920x1080,1920x945,Temporal Distance Task,cb_09,67.0,temp_dist_trial,num_items,zn7si1,1.0,response,1_ITEM,1056.6999999761465,1054.3999999999942,1056.6999999761465,1056.6999999761465,1054.3999999999942,1056.6999999761465,1.0,0.0,0.0,,Click Response,1_count,3.0,object-46,temp_dist_trial,19.0,t_i_18_1,travel_Iceland,ski mask,9.0,unique,paired,t_i_18_1.jpg,Travel,,,sub-43
Desktop or Laptop,Windows 10,Chrome 138.0.0.0,1920x1080,1920x945,Temporal Distance Task,cb_09,68.0,temp_dist_trial,num_items,zn7si1,1.0,response,2_ITEM,1199.4000000238302,1193.6999999999825,1199.4000000238302,1199.4000000238302,1193.6999999999825,1199.4000000238302,1.0,0.0,0.0,,Click Response,2_count,5.0,object-49,temp_dist_trial,20.0,t_s_06_1,travel_shared,luggage,9.0,competing,paired,t_s_06_1.jpg,Travel,,,sub-43
Desktop or Laptop,Windows 10,Chrome 138.0.0.0,1920x1080,1920x945,Temporal Distance Task,cb_09,68.0,temp_dist_trial,dist_items,qkpkxw,2.0,info,,9.1999999761465,0.0,9.1999999761465,9.1999999761465,0.0,9.1999999761465,1.0,0.0,0.0,,Slider,Slider,4.0,object-56,temp_dist_trial,20.0,t_s_06_1,travel_shared,luggage,9.0,competing,paired,t_s_06_1.jpg,Travel,,,sub-43
Desktop or Laptop,Windows 10,Chrome 138.0.0.0,1920x1080,1920x945,Temporal Distance Task,cb_09,68.0,temp_dist_trial,dist_items,qkpkxw,2.0,continue,,2290.100000071514,2285.599999999977,2290.100000071514,2290.100000071514,2285.599999999977,2290.100000071514,1.0,0.0,0.0,,Click To Continue,Next button,7.0,object-60,temp_dist_trial,20.0,t_s_06_1,travel_shared,luggage,9.0,competing,paired,t_s_06_1.jpg,Travel,,,sub-43
Desktop or Laptop,Windows 10,Chrome 138.0.0.0,1920x1080,1920x945,Temporal Distance Task,cb_09,68.0,temp_dist_trial,dist_items,qkpkxw,2.0,response,36,1545.1999999999825,2285.599999999977,2290.2999999999884,1545.1999999999825,2285.599999999977,2290.2999999999884,1.0,745.1000000000058,0.0,,Slider,Slider,4.0,object-56,temp_dist_trial,20.0,t_s_06_1,travel_shared,luggage,9.0,competing,paired,t_s_06_1.jpg,Travel,,,sub-43
Desktop or Laptop,Windows 10,Chrome 138.0.0.0,1920x1080,1920x945,Temporal Distance Task,cb_09,69.0,temp_dist_trial,num_items,zn7si1,1.0,response,2_ITEM,1388.4000000000233,1382.2000000000116,1388.4000000000233,1388.4000000000233,1382.2000000000116,1388.4000000000233,1.0,0.0,0.0,,Click Response,2_count,5.0,object-49,temp_dist_trial,21.0,t_s_19_1,travel_shared,pajamas,9.0,competing,paired,t_s_19_1.jpg,Travel,,,sub-43
Desktop or Laptop,Windows 10,Chrome 138.0.0.0,1920x1080,1920x945,Temporal Distance Task,cb_09,69.0,temp_dist_trial,dist_items,qkpkxw,2.0,info,,8.100000023841858,0.0,8.100000023841858,8.100000023841858,0.0,8.100000023841858,1.0,0.0,0.0,,Slider,Slider,4.0,object-56,temp_dist_trial,21.0,t_s_19_1,travel_shared,pajamas,9.0,competing,paired,t_s_19_1.jpg,Travel,,,sub-43
Desktop or Laptop,Windows 10,Chrome 138.0.0.0,1920x1080,1920x945,Temporal Distance Task,cb_09,69.0,temp_dist_trial,dist_items,qkpkxw,2.0,continue,,1758.2000000476835,1753.2000000000116,1758.2000000476835,1758.2000000476835,1753.2000000000116,1758.2000000476835,1.0,0.0,0.0,,Click To Continue,Next button,7.0,object-60,temp_dist_trial,21.0,t_s_19_1,travel_shared,pajamas,9.0,competing,paired,t_s_19_1.jpg,Travel,,,sub-43
Desktop or Laptop,Windows 10,Chrome 138.0.0.0,1920x1080,1920x945,Temporal Distance Task,cb_09,69.0,temp_dist_trial,dist_items,qkpkxw,2.0,response,69,666.6000000000057,1753.2000000000116,1758.6000000238419,666.6000000000057,1753.2000000000116,1758.6000000238419,1.0,1092.000000023836,0.0,,Slider,Slider,4.0,object-56,temp_dist_trial,21.0,t_s_19_1,travel_shared,pajamas,9.0,competing,paired,t_s_19_1.jpg,Travel,,,sub-43
Desktop or Laptop,Windows 10,Chrome 138.0.0.0,1920x1080,1920x945,Temporal Distance Task,cb_09,70.0,temp_dist_trial,num_items,zn7si1,1.0,response,1_ITEM,1218.1000000000058,1212.0,1218.1000000000058,1218.1000000000058,1212.0,1218.1000000000058,1.0,0.0,0.0,,Click Response,1_count,3.0,object-46,temp_dist_trial,22.0,t_s_01_1,travel_shared,fanny pack,9.0,competing,paired,t_s_01_1.jpg,Travel,,,sub-43
Desktop or Laptop,Windows 10,Chrome 138.0.0.0,1920x1080,1920x945,Temporal Distance Task,cb_09,71.0,temp_dist_trial,num_items,zn7si1,1.0,response,1_ITEM,957.4999999999707,951.3999999999942,957.4999999999707,957.4999999999707,951.3999999999942,957.4999999999707,1.0,0.0,0.0,,Click Response,1_count,3.0,object-46,temp_dist_trial,23.0,t_s_23_1,travel_shared,ball cap,9.0,competing,paired,t_s_23_1.jpg,Travel,,,sub-43
Desktop or Laptop,Windows 10,Chrome 138.0.0.0,1920x1080,1920x945,Temporal Distance Task,cb_09,72.0,temp_dist_trial,num_items,zn7si1,1.0,response,2_ITEM,1227.3000000715256,1224.0,1227.3000000715256,1227.3000000715256,1224.0,1227.3000000715256,1.0,0.0,0.0,,Click Response,2_count,5.0,object-49,temp_dist_trial,24.0,t_s_16_1,travel_shared,chapstick,9.0,competing,paired,t_s_16_1.jpg,Travel,,,sub-43
Desktop or Laptop,Windows 10,Chrome 138.0.0.0,1920x1080,1920x945,Temporal Distance Task,cb_09,72.0,temp_dist_trial,dist_items,qkpkxw,2.0,info,,2.7000000238476787,0.0,2.7000000238476787,2.7000000238476787,0.0,2.7000000238476787,1.0,0.0,0.0,,Slider,Slider,4.0,object-56,temp_dist_trial,24.0,t_s_16_1,travel_shared,chapstick,9.0,competing,paired,t_s_16_1.jpg,Travel,,,sub-43
Desktop or Laptop,Windows 10,Chrome 138.0.0.0,1920x1080,1920x945,Temporal Distance Task,cb_09,72.0,temp_dist_trial,dist_items,qkpkxw,2.0,continue,,2599.9000000715314,2595.300000000017,2599.9000000715314,2599.9000000715314,2595.300000000017,2599.9000000715314,1.0,0.0,0.0,,Click To Continue,Next button,7.0,object-60,temp_dist_trial,24.0,t_s_16_1,travel_shared,chapstick,9.0,competing,paired,t_s_16_1.jpg,Travel,,,sub-43
Desktop or Laptop,Windows 10,Chrome 138.0.0.0,1920x1080,1920x945,Temporal Distance Task,cb_09,72.0,temp_dist_trial,dist_items,qkpkxw,2.0,response,41,1763.3999999999942,2595.300000000017,2600.200000023848,1763.3999999999942,2595.300000000017,2600.200000023848,1.0,836.8000000238535,0.0,,Slider,Slider,4.0,object-56,temp_dist_trial,24.0,t_s_16_1,travel_shared,chapstick,9.0,competing,paired,t_s_16_1.jpg,Travel,,,sub-43
Desktop or Laptop,Windows 10,Chrome 138.0.0.0,1920x1080,1920x945,Temporal Distance Task,cb_09,73.0,temp_dist_trial,num_items,zn7si1,1.0,response,2_ITEM,1316.500000047672,1315.0,1316.500000047672,1316.500000047672,1315.0,1316.500000047672,1.0,0.0,0.0,,Click Response,2_count,5.0,object-49,temp_dist_trial,25.0,t_m_16_1,travel_Miami,flippers,9.0,unique,paired,t_m_16_1.jpg,Travel,,,sub-43
Desktop or Laptop,Windows 10,Chrome 138.0.0.0,1920x1080,1920x945,Temporal Distance Task,cb_09,73.0,temp_dist_trial,dist_items,qkpkxw,2.0,info,,4.000000047672073,0.0,4.000000047672073,4.000000047672073,0.0,4.000000047672073,1.0,0.0,0.0,,Slider,Slider,4.0,object-56,temp_dist_trial,25.0,t_m_16_1,travel_Miami,flippers,9.0,unique,paired,t_m_16_1.jpg,Travel,,,sub-43
Desktop or Laptop,Windows 10,Chrome 138.0.0.0,1920x1080,1920x945,Temporal Distance Task,cb_09,73.0,temp_dist_trial,dist_items,qkpkxw,2.0,continue,,1506.6999999761465,1500.6999999999825,1506.6999999761465,1506.6999999761465,1500.6999999999825,1506.6999999761465,1.0,0.0,0.0,,Click To Continue,Next button,7.0,object-60,temp_dist_trial,25.0,t_m_16_1,travel_Miami,flippers,9.0,unique,paired,t_m_16_1.jpg,Travel,,,sub-43
Desktop or Laptop,Windows 10,Chrome 138.0.0.0,1920x1080,1920x945,Temporal Distance Task,cb_09,73.0,temp_dist_trial,dist_items,qkpkxw,2.0,response,81,595.2999999999884,1500.6999999999825,1506.7999999999884,595.2999999999884,1500.6999999999825,1506.7999999999884,1.0,911.5,0.0,,Slider,Slider,4.0,object-56,temp_dist_trial,25.0,t_m_16_1,travel_Miami,flippers,9.0,unique,paired,t_m_16_1.jpg,Travel,,,sub-43
Desktop or Laptop,Windows 10,Chrome 138.0.0.0,1920x1080,1920x945,Temporal Distance Task,cb_09,74.0,temp_dist_trial,num_items,zn7si1,1.0,response,1_ITEM,1225.9000000715316,1222.6000000000058,1225.9000000715316,1225.9000000715316,1222.6000000000058,1225.9000000715316,1.0,0.0,0.0,,Click Response,1_count,3.0,object-46,temp_dist_trial,26.0,t_i_14_1,travel_Iceland,snow pants,9.0,unique,paired,t_i_14_1.jpg,Travel,,,sub-43
Desktop or Laptop,Windows 10,Chrome 138.0.0.0,1920x1080,1920x945,Temporal Distance Task,cb_09,75.0,temp_dist_trial,num_items,zn7si1,1.0,response,1_ITEM,1272.5,1266.5,1272.5,1272.5,1266.5,1272.5,1.0,0.0,0.0,,Click Response,1_count,3.0,object-46,temp_dist_trial,27.0,t_s_20_1,travel_shared,travel pill case,9.0,competing,single,t_s_20_1.jpg,Travel,,,sub-43
Desktop or Laptop,Windows 10,Chrome 138.0.0.0,1920x1080,1920x945,Temporal Distance Task,cb_09,76.0,temp_dist_trial,num_items,zn7si1,1.0,response,1_ITEM,1310.1000000476781,1309.1000000000058,1310.1000000476781,1310.1000000476781,1309.1000000000058,1310.1000000476781,1.0,0.0,0.0,,Click Response,1_count,3.0,object-46,temp_dist_trial,28.0,t_s_07_1,travel_shared,phone charger cable,9.0,competing,single,t_s_07_1.jpg,Travel,,,sub-43
Desktop or Laptop,Windows 10,Chrome 138.0.0.0,1920x1080,1920x945,Temporal Distance Task,cb_09,77.0,temp_dist_trial,num_items,zn7si1,1.0,response,2_ITEM,1405.8999999999942,1399.8999999999942,1405.8999999999942,1405.8999999999942,1399.8999999999942,1405.8999999999942,1.0,0.0,0.0,,Click Response,2_count,5.0,object-49,temp_dist_trial,29.0,t_i_10_1,travel_Iceland,trekking poles,9.0,unique,paired,t_i_10_1.jpg,Travel,,,sub-43
Desktop or Laptop,Windows 10,Chrome 138.0.0.0,1920x1080,1920x945,Temporal Distance Task,cb_09,77.0,temp_dist_trial,dist_items,qkpkxw,2.0,info,,3.3000000238534994,0.0,3.3000000238534994,3.3000000238534994,0.0,3.3000000238534994,1.0,0.0,0.0,,Slider,Slider,4.0,object-56,temp_dist_trial,29.0,t_i_10_1,travel_Iceland,trekking poles,9.0,unique,paired,t_i_10_1.jpg,Travel,,,sub-43
Desktop or Laptop,Windows 10,Chrome 138.0.0.0,1920x1080,1920x945,Temporal Distance Task,cb_09,77.0,temp_dist_trial,dist_items,qkpkxw,2.0,continue,,1711.000000000029,1704.9000000000233,1711.000000000029,1711.000000000029,1704.9000000000233,1711.000000000029,1.0,0.0,0.0,,Click To Continue,Next button,7.0,object-60,temp_dist_trial,29.0,t_i_10_1,travel_Iceland,trekking poles,9.0,unique,paired,t_i_10_1.jpg,Travel,,,sub-43
Desktop or Laptop,Windows 10,Chrome 138.0.0.0,1920x1080,1920x945,Temporal Distance Task,cb_09,77.0,temp_dist_trial,dist_items,qkpkxw,2.0,response,65,933.4000000000232,1704.9000000000233,1711.000000000029,933.4000000000232,1704.9000000000233,1711.000000000029,1.0,777.6000000000058,0.0,,Slider,Slider,4.0,object-56,temp_dist_trial,29.0,t_i_10_1,travel_Iceland,trekking poles,9.0,unique,paired,t_i_10_1.jpg,Travel,,,sub-43
Desktop or Laptop,Windows 10,Chrome 138.0.0.0,1920x1080,1920x945,Temporal Distance Task,cb_09,78.0,temp_dist_trial,num_items,zn7si1,1.0,response,1_ITEM,2490.599999999977,2484.599999999977,2490.599999999977,2490.599999999977,2484.599999999977,2490.599999999977,1.0,0.0,0.0,,Click Response,1_count,3.0,object-46,temp_dist_trial,30.0,t_s_03_1,travel_shared,portable charger,9.0,competing,paired,t_s_03_1.jpg,Travel,,,sub-43
Desktop or Laptop,Windows 10,Chrome 138.0.0.0,1920x1080,1920x945,Temporal Distance Task,cb_09,79.0,temp_dist_trial,num_items,zn7si1,1.0,response,1_ITEM,1435.8999999999942,1430.1999999999825,1435.8999999999942,1435.8999999999942,1430.1999999999825,1435.8999999999942,1.0,0.0,0.0,,Click Response,1_count,3.0,object-46,temp_dist_trial,31.0,t_s_09_1,travel_shared,wallet,9.0,competing,paired,t_s_09_1.jpg,Travel,,,sub-43
Desktop or Laptop,Windows 10,Chrome 138.0.0.0,1920x1080,1920x945,Temporal Distance Task,cb_09,80.0,temp_dist_trial,num_items,zn7si1,1.0,response,2_ITEM,975.7000000000116,969.6000000000058,975.7000000000116,975.7000000000116,969.6000000000058,975.7000000000116,1.0,0.0,0.0,,Click Response,2_count,5.0,object-49,temp_dist_trial,32.0,t_m_19_1,travel_Miami,surfboard,9.0,unique,paired,t_m_19_1.jpg,Travel,,,sub-43
Desktop or Laptop,Windows 10,Chrome 138.0.0.0,1920x1080,1920x945,Temporal Distance Task,cb_09,80.0,temp_dist_trial,dist_items,qkpkxw,2.0,info,,3.0000000238360367,0.0,3.0000000238360367,3.0000000238360367,0.0,3.0000000238360367,1.0,0.0,0.0,,Slider,Slider,4.0,object-56,temp_dist_trial,32.0,t_m_19_1,travel_Miami,surfboard,9.0,unique,paired,t_m_19_1.jpg,Travel,,,sub-43
Desktop or Laptop,Windows 10,Chrome 138.0.0.0,1920x1080,1920x945,Temporal Distance Task,cb_09,80.0,temp_dist_trial,dist_items,qkpkxw,2.0,continue,,2128.100000047678,2122.2999999999884,2128.100000047678,2128.100000047678,2122.2999999999884,2128.100000047678,1.0,0.0,0.0,,Click To Continue,Next button,7.0,object-60,temp_dist_trial,32.0,t_m_19_1,travel_Miami,surfboard,9.0,unique,paired,t_m_19_1.jpg,Travel,,,sub-43
Desktop or Laptop,Windows 10,Chrome 138.0.0.0,1920x1080,1920x945,Temporal Distance Task,cb_09,80.0,temp_dist_trial,dist_items,qkpkxw,2.0,response,26,830.1999999999823,2122.2999999999884,2128.299999976153,830.1999999999823,2122.2999999999884,2128.299999976153,1.0,1298.0999999761698,0.0,,Slider,Slider,4.0,object-56,temp_dist_trial,32.0,t_m_19_1,travel_Miami,surfboard,9.0,unique,paired,t_m_19_1.jpg,Travel,,,sub-43
Desktop or Laptop,Windows 10,Chrome 138.0.0.0,1920x1080,1920x945,Temporal Distance Task,cb_09,81.0,temp_dist_trial,num_items,zn7si1,1.0,response,2_ITEM,1247.9000000715316,1242.3000000000175,1247.9000000715316,1247.9000000715316,1242.3000000000175,1247.9000000715316,1.0,0.0,0.0,,Click Response,2_count,5.0,object-49,temp_dist_trial,33.0,t_m_06_1,travel_Miami,handheld fan,9.0,unique,paired,t_m_06_1.jpg,Travel,,,sub-43
Desktop or Laptop,Windows 10,Chrome 138.0.0.0,1920x1080,1920x945,Temporal Distance Task,cb_09,81.0,temp_dist_trial,dist_items,qkpkxw,2.0,info,,3.4999999761639637,0.0,3.4999999761639637,3.4999999761639637,0.0,3.4999999761639637,1.0,0.0,0.0,,Slider,Slider,4.0,object-56,temp_dist_trial,33.0,t_m_06_1,travel_Miami,handheld fan,9.0,unique,paired,t_m_06_1.jpg,Travel,,,sub-43
Desktop or Laptop,Windows 10,Chrome 138.0.0.0,1920x1080,1920x945,Temporal Distance Task,cb_09,81.0,temp_dist_trial,dist_items,qkpkxw,2.0,continue,,1562.6000000000058,1558.5,1562.6000000000058,1562.6000000000058,1558.5,1562.6000000000058,1.0,0.0,0.0,,Click To Continue,Next button,7.0,object-60,temp_dist_trial,33.0,t_m_06_1,travel_Miami,handheld fan,9.0,unique,paired,t_m_06_1.jpg,Travel,,,sub-43
Desktop or Laptop,Windows 10,Chrome 138.0.0.0,1920x1080,1920x945,Temporal Distance Task,cb_09,81.0,temp_dist_trial,dist_items,qkpkxw,2.0,response,34,697.0,1558.5,1562.9000000715314,697.0,1558.5,1562.9000000715314,1.0,865.9000000715314,0.0,,Slider,Slider,4.0,object-56,temp_dist_trial,33.0,t_m_06_1,travel_Miami,handheld fan,9.0,unique,paired,t_m_06_1.jpg,Travel,,,sub-43
Desktop or Laptop,Windows 10,Chrome 138.0.0.0,1920x1080,1920x945,Temporal Distance Task,cb_09,82.0,temp_dist_trial,num_items,zn7si1,1.0,response,1_ITEM,1036.3000000000177,1030.2000000000116,1036.3000000000177,1036.3000000000177,1030.2000000000116,1036.3000000000177,1.0,0.0,0.0,,Click Response,1_count,3.0,object-46,temp_dist_trial,34.0,t_i_11_1,travel_Iceland,headlamp,9.0,unique,single,t_i_11_1.jpg,Travel,,,sub-43
Desktop or Laptop,Windows 10,Chrome 138.0.0.0,1920x1080,1920x945,Temporal Distance Task,cb_09,83.0,temp_dist_trial,num_items,zn7si1,1.0,response,2_ITEM,858.6000000476779,856.8999999999942,858.6000000476779,858.6000000476779,856.8999999999942,858.6000000476779,1.0,0.0,0.0,,Click Response,2_count,5.0,object-49,temp_dist_trial,35.0,t_m_08_1,travel_Miami,flipflops,9.0,unique,paired,t_m_08_1.jpg,Travel,,,sub-43
Desktop or Laptop,Windows 10,Chrome 138.0.0.0,1920x1080,1920x945,Temporal Distance Task,cb_09,83.0,temp_dist_trial,dist_items,qkpkxw,2.0,info,,2.499999976163963,0.0,2.499999976163963,2.499999976163963,0.0,2.499999976163963,1.0,0.0,0.0,,Slider,Slider,4.0,object-56,temp_dist_trial,35.0,t_m_08_1,travel_Miami,flipflops,9.0,unique,paired,t_m_08_1.jpg,Travel,,,sub-43
Desktop or Laptop,Windows 10,Chrome 138.0.0.0,1920x1080,1920x945,Temporal Distance Task,cb_09,83.0,temp_dist_trial,dist_items,qkpkxw,2.0,continue,,1921.7999999999884,1915.3999999999944,1921.7999999999884,1921.7999999999884,1915.3999999999944,1921.7999999999884,1.0,0.0,0.0,,Click To Continue,Next button,7.0,object-60,temp_dist_trial,35.0,t_m_08_1,travel_Miami,flipflops,9.0,unique,paired,t_m_08_1.jpg,Travel,,,sub-43
Desktop or Laptop,Windows 10,Chrome 138.0.0.0,1920x1080,1920x945,Temporal Distance Task,cb_09,83.0,temp_dist_trial,dist_items,qkpkxw,2.0,response,61,834.1000000000058,1915.3999999999944,1921.7999999999884,834.1000000000058,1915.3999999999944,1921.7999999999884,1.0,1087.6999999999823,0.0,,Slider,Slider,4.0,object-56,temp_dist_trial,35.0,t_m_08_1,travel_Miami,flipflops,9.0,unique,paired,t_m_08_1.jpg,Travel,,,sub-43
Desktop or Laptop,Windows 10,Chrome 138.0.0.0,1920x1080,1920x945,Temporal Distance Task,cb_09,84.0,temp_dist_trial,num_items,zn7si1,1.0,response,1_ITEM,1899.200000000041,1892.9000000000235,1899.200000000041,1899.200000000041,1892.9000000000235,1899.200000000041,1.0,0.0,0.0,,Click Response,1_count,3.0,object-46,temp_dist_trial,36.0,t_i_19_1,travel_Iceland,rope,9.0,unique,paired,t_i_19_1.jpg,Travel,,,sub-43
Desktop or Laptop,Windows 10,Chrome 138.0.0.0,1920x1080,1920x945,Temporal Distance Task,cb_09,85.0,temp_dist_trial,num_items,zn7si1,1.0,response,1_ITEM,1065.2000000000407,1058.8000000000177,1065.2000000000407,1065.2000000000407,1058.8000000000177,1065.2000000000407,1.0,0.0,0.0,,Click Response,1_count,3.0,object-46,temp_dist_trial,37.0,t_s_05_1,travel_shared,neck pillow,9.0,competing,single,t_s_05_1.jpg,Travel,,,sub-43
Desktop or Laptop,Windows 10,Chrome 138.0.0.0,1920x1080,1920x945,Temporal Distance Task,cb_09,86.0,temp_dist_trial,num_items,zn7si1,1.0,response,1_ITEM,917.6000000000348,911.2000000000116,917.6000000000348,917.6000000000348,911.2000000000116,917.6000000000348,1.0,0.0,0.0,,Click Response,1_count,3.0,object-46,temp_dist_trial,38.0,t_s_13_1,travel_shared,contact lens case,9.0,competing,paired,t_s_13_1.jpg,Travel,,,sub-43
Desktop or Laptop,Windows 10,Chrome 138.0.0.0,1920x1080,1920x945,Temporal Distance Task,cb_09,87.0,temp_dist_trial,num_items,zn7si1,1.0,response,2_ITEM,2098.5,2092.0,2098.5,2098.5,2092.0,2098.5,1.0,0.0,0.0,,Click Response,2_count,5.0,object-49,temp_dist_trial,39.0,t_s_21_1,travel_shared,umbrella,9.0,competing,paired,t_s_21_1.jpg,Travel,,,sub-43
Desktop or Laptop,Windows 10,Chrome 138.0.0.0,1920x1080,1920x945,Temporal Distance Task,cb_09,87.0,temp_dist_trial,dist_items,qkpkxw,2.0,info,,2.9000000715022907,0.0,2.9000000715022907,2.9000000715022907,0.0,2.9000000715022907,1.0,0.0,0.0,,Slider,Slider,4.0,object-56,temp_dist_trial,39.0,t_s_21_1,travel_shared,umbrella,9.0,competing,paired,t_s_21_1.jpg,Travel,,,sub-43
Desktop or Laptop,Windows 10,Chrome 138.0.0.0,1920x1080,1920x945,Temporal Distance Task,cb_09,87.0,temp_dist_trial,dist_items,qkpkxw,2.0,continue,,1375.9000000000233,1369.5,1375.9000000000233,1375.9000000000233,1369.5,1375.9000000000233,1.0,0.0,0.0,,Click To Continue,Next button,7.0,object-60,temp_dist_trial,39.0,t_s_21_1,travel_shared,umbrella,9.0,competing,paired,t_s_21_1.jpg,Travel,,,sub-43
Desktop or Laptop,Windows 10,Chrome 138.0.0.0,1920x1080,1920x945,Temporal Distance Task,cb_09,87.0,temp_dist_trial,dist_items,qkpkxw,2.0,response,61,635.2999999999884,1369.5,1375.9000000000233,635.2999999999884,1369.5,1375.9000000000233,1.0,740.6000000000349,0.0,,Slider,Slider,4.0,object-56,temp_dist_trial,39.0,t_s_21_1,travel_shared,umbrella,9.0,competing,paired,t_s_21_1.jpg,Travel,,,sub-43
Desktop or Laptop,Windows 10,Chrome 138.0.0.0,1920x1080,1920x945,Temporal Distance Task,cb_09,88.0,temp_dist_trial,num_items,zn7si1,1.0,response,1_ITEM,886.499999976135,885.5999999999768,886.499999976135,886.499999976135,885.5999999999768,886.499999976135,1.0,0.0,0.0,,Click Response,1_count,3.0,object-46,temp_dist_trial,40.0,t_i_12_1,travel_Iceland,tent,9.0,unique,single,t_i_12_1.jpg,Travel,,,sub-43
Desktop or Laptop,Windows 10,Chrome 138.0.0.0,1920x1080,1920x945,Temporal Distance Task,cb_09,89.0,temp_dist_trial,num_items,zn7si1,1.0,response,1_ITEM,1251.2000000000694,1244.9000000000233,1251.2000000000694,1251.2000000000694,1244.9000000000233,1251.2000000000694,1.0,0.0,0.0,,Click Response,1_count,3.0,object-46,temp_dist_trial,41.0,t_s_02_1,travel_shared,water bottle,9.0,competing,paired,t_s_02_1.jpg,Travel,,,sub-43
Desktop or Laptop,Windows 10,Chrome 138.0.0.0,1920x1080,1920x945,Temporal Distance Task,cb_09,90.0,temp_dist_trial,num_items,zn7si1,1.0,response,2_ITEM,904.6000000715139,900.0999999999768,904.6000000715139,904.6000000715139,900.0999999999768,904.6000000715139,1.0,0.0,0.0,,Click Response,2_count,5.0,object-49,temp_dist_trial,42.0,t_s_14_1,travel_shared,hand sanitizer,9.0,competing,paired,t_s_14_1.jpg,Travel,,,sub-43
Desktop or Laptop,Windows 10,Chrome 138.0.0.0,1920x1080,1920x945,Temporal Distance Task,cb_09,90.0,temp_dist_trial,dist_items,qkpkxw,2.0,info,,4.500000023865142,0.0,4.500000023865142,4.500000023865142,0.0,4.500000023865142,1.0,0.0,0.0,,Slider,Slider,4.0,object-56,temp_dist_trial,42.0,t_s_14_1,travel_shared,hand sanitizer,9.0,competing,paired,t_s_14_1.jpg,Travel,,,sub-43
Desktop or Laptop,Windows 10,Chrome 138.0.0.0,1920x1080,1920x945,Temporal Distance Task,cb_09,90.0,temp_dist_trial,dist_items,qkpkxw,2.0,continue,,1630.7000000715489,1627.3000000000463,1630.7000000715489,1630.7000000715489,1627.3000000000463,1630.7000000715489,1.0,0.0,0.0,,Click To Continue,Next button,7.0,object-60,temp_dist_trial,42.0,t_s_14_1,travel_shared,hand sanitizer,9.0,competing,paired,t_s_14_1.jpg,Travel,,,sub-43
Desktop or Laptop,Windows 10,Chrome 138.0.0.0,1920x1080,1920x945,Temporal Distance Task,cb_09,90.0,temp_dist_trial,dist_items,qkpkxw,2.0,response,72,898.5,1627.3000000000463,1631.0000000238654,898.5,1627.3000000000463,1631.0000000238654,1.0,732.500000023865,0.0,,Slider,Slider,4.0,object-56,temp_dist_trial,42.0,t_s_14_1,travel_shared,hand sanitizer,9.0,competing,paired,t_s_14_1.jpg,Travel,,,sub-43
Desktop or Laptop,Windows 10,Chrome 138.0.0.0,1920x1080,1920x945,Temporal Distance Task,cb_09,91.0,temp_dist_trial,num_items,zn7si1,1.0,response,1_ITEM,1277.7000000000114,1271.2999999999886,1277.7000000000114,1277.7000000000114,1271.2999999999886,1277.7000000000114,1.0,0.0,0.0,,Click Response,1_count,3.0,object-46,temp_dist_trial,43.0,t_m_07_1,travel_Miami,sunglasses,9.0,unique,paired,t_m_07_1.jpg,Travel,,,sub-43
Desktop or Laptop,Windows 10,Chrome 138.0.0.0,1920x1080,1920x945,Temporal Distance Task,cb_09,92.0,temp_dist_trial,num_items,zn7si1,1.0,response,1_ITEM,1232.0999999999767,1225.7000000000114,1232.0999999999767,1232.0999999999767,1225.7000000000114,1232.0999999999767,1.0,0.0,0.0,,Click Response,1_count,3.0,object-46,temp_dist_trial,44.0,t_i_16_1,travel_Iceland,skis,9.0,unique,paired,t_i_16_1.jpg,Travel,,,sub-43
Desktop or Laptop,Windows 10,Chrome 138.0.0.0,1920x1080,1920x945,Temporal Distance Task,cb_09,93.0,temp_dist_trial,num_items,zn7si1,1.0,response,1_ITEM,1063.600000071514,1058.7999999999884,1063.600000071514,1063.600000071514,1058.7999999999884,1063.600000071514,1.0,0.0,0.0,,Click Response,1_count,3.0,object-46,temp_dist_trial,45.0,t_i_06_1,travel_Iceland,knit hat,9.0,unique,single,t_i_06_1.jpg,Travel,,,sub-43
Desktop or Laptop,Windows 10,Chrome 138.0.0.0,1920x1080,1920x945,Temporal Distance Task,cb_09,94.0,temp_dist_trial,num_items,zn7si1,1.0,response,1_ITEM,971.5999999999768,965.5999999999768,971.5999999999768,971.5999999999768,965.5999999999768,971.5999999999768,1.0,0.0,0.0,,Click Response,1_count,3.0,object-46,temp_dist_trial,46.0,t_s_22_1,travel_shared,belt,9.0,competing,single,t_s_22_1.jpg,Travel,,,sub-43
Desktop or Laptop,Windows 10,Chrome 138.0.0.0,1920x1080,1920x945,Temporal Distance Task,cb_09,95.0,temp_dist_trial,num_items,zn7si1,1.0,response,1_ITEM,1117.9000000715023,1116.5999999999767,1117.9000000715023,1117.9000000715023,1116.5999999999767,1117.9000000715023,1.0,0.0,0.0,,Click Response,1_count,3.0,object-46,temp_dist_trial,47.0,t_m_03_1,travel_Miami,wetsuit,9.0,unique,paired,t_m_03_1.jpg,Travel,,,sub-43
Desktop or Laptop,Windows 10,Chrome 138.0.0.0,1920x1080,1920x945,Temporal Distance Task,cb_09,96.0,temp_dist_trial,num_items,zn7si1,1.0,response,1_ITEM,1208.1999999761465,1195.899999999965,1208.1999999761465,1208.1999999761465,1195.899999999965,1208.1999999761465,1.0,0.0,0.0,,Click Response,1_count,3.0,object-46,temp_dist_trial,48.0,t_s_11_1,travel_shared,eye mask,9.0,competing,single,t_s_11_1.jpg,Travel,,,sub-43
Desktop or Laptop,Windows 10,Chrome 138.0.0.0,1920x1080,1920x945,Temporal Distance Task,$${counterbalance_group},,,,,,info,END,,,277599.0,,,,0.0,,,,,,,,,,,,,,,,,,,,sub-43
