Participant Device,Participant OS,Participant Browser,Participant Monitor Size,Participant Viewport Size,Task Name,Current Spreadsheet,Trial Number,Display,Screen,Screen ID,Screen Counter,Response Type,Response,Onset Time,Clock Time,Reaction Time,Absolute Onset Time,Absolute Clock Time,Absolute Reaction Time,Correct,Response Duration,Proportion,Tag,Component Name,Object Name,Object Number,Object ID,Spreadsheet: display,Spreadsheet: trial,Spreadsheet: stimulus_id,Spreadsheet: expected_goal,Spreadsheet: stimulus_name,Spreadsheet: c_group,Spreadsheet: condition,Spreadsheet: paired_status,Spreadsheet: stimulus_path,Spreadsheet: block_type,Manipulation: Spreadsheet,Store: enc_test_acc,sub_label
Desktop or Laptop,Windows 10,Chrome 138.0.0.0,1920x1080,1920x911,Temporal Distance Task,$${counterbalance_group},,,,,,info,BEGIN,,,,,,,0.0,,,,,,,,,,,,,,,,,,,,sub-51
Desktop or Laptop,Windows 10,Chrome 138.0.0.0,1920x1080,1920x911,Temporal Distance Task,cb_01,1.0,temp_instructions,intro_screen,3tnme7,1.0,continue,,10612.80000000149,10610.9,10612.80000000149,10612.80000000149,10610.9,10612.80000000149,1.0,0.0,0.0,,Click To Continue,Continue Button,4.0,object-29,temp_instructions,,,Student,,,,,,,,,sub-51
Desktop or Laptop,Windows 10,Chrome 138.0.0.0,1920x1080,1920x911,Temporal Distance Task,cb_01,1.0,temp_instructions,intro_screen_2,52v7ur,2.0,continue,,9378.3,9376.5,9378.3,9378.3,9376.5,9378.3,1.0,0.0,0.0,,Click To Continue,Continue Button,4.0,object-39,temp_instructions,,,Student,,,,,,,,,sub-51
Desktop or Laptop,Windows 10,Chrome 138.0.0.0,1920x1080,1920x911,Temporal Distance Task,cb_01,1.0,temp_instructions,intro_screen_3,i7lvwx,3.0,continue,,7109.20000000596,7106.200000000003,7109.20000000596,7109.20000000596,7106.200000000003,7109.20000000596,1.0,0.0,0.0,,Click To Continue,Continue Button,4.0,object-67,temp_instructions,,,Student,,,,,,,,,sub-51
Desktop or Laptop,Windows 10,Chrome 138.0.0.0,1920x1080,1920x911,Temporal Distance Task,cb_01,1.0,temp_instructions,test_q1,5ieqx1,4.0,response,choice_3,5625.5999999999985,5622.299999999997,5625.5999999999985,5625.5999999999985,5622.299999999997,5625.5999999999985,1.0,0.0,0.0,,Click Response,choice_3,5.0,object-345,temp_instructions,,,Student,,,,,,,,,sub-51
Desktop or Laptop,Windows 10,Chrome 138.0.0.0,1920x1080,1920x911,Temporal Distance Task,cb_01,1.0,temp_instructions,score_corr,7ilvjr,5.0,continue,,1040.2000000059634,1034.4000000000017,1040.2000000059634,1040.2000000059634,1034.4000000000017,1040.2000000059634,1.0,0.0,0.0,,Click To Continue,Continue Button,3.0,object-23,temp_instructions,,,Student,,,,,,,,,sub-51
Desktop or Laptop,Windows 10,Chrome 138.0.0.0,1920x1080,1920x911,Temporal Distance Task,cb_01,1.0,temp_eventStart,Screen 1,dgtyxe,1.0,continue,,1696.800000005962,1685.5,1696.800000005962,1696.800000005962,1685.5,1696.800000005962,1.0,0.0,0.0,,Click To Continue,Next Button,3.0,object-43,temp_eventStart,,,Student,,,,,,,,,sub-51
Desktop or Laptop,Windows 10,Chrome 138.0.0.0,1920x1080,1920x911,Temporal Distance Task,cb_01,1.0,temp_dist_trial,num_items,zn7si1,1.0,response,1_ITEM,2202.300000005962,2201.5999999999985,2202.300000005962,2202.300000005962,2201.5999999999985,2202.300000005962,1.0,0.0,0.0,,Click Response,1_count,3.0,object-46,temp_dist_trial,1.0,s_sh_22_1,student_shared,hole puncher,1.0,competing,single,s_sh_22_1.jpg,Student,,,sub-51
Desktop or Laptop,Windows 10,Chrome 138.0.0.0,1920x1080,1920x911,Temporal Distance Task,cb_01,2.0,temp_dist_trial,num_items,zn7si1,1.0,response,1_ITEM,1800.2000000029807,1785.1999999999966,1800.2000000029807,1800.2000000029807,1785.1999999999966,1800.2000000029807,1.0,0.0,0.0,,Click Response,1_count,3.0,object-46,temp_dist_trial,2.0,s_sh_08_1,student_shared,post-its,1.0,competing,single,s_sh_08_1.jpg,Student,,,sub-51
Desktop or Laptop,Windows 10,Chrome 138.0.0.0,1920x1080,1920x911,Temporal Distance Task,cb_01,3.0,temp_dist_trial,num_items,zn7si1,1.0,response,2_ITEM,1090.700000001489,1084.4000000000017,1090.700000001489,1090.700000001489,1084.4000000000017,1090.700000001489,1.0,0.0,0.0,,Click Response,2_count,5.0,object-49,temp_dist_trial,3.0,s_sh_10_1,student_shared,scissors,1.0,competing,paired,s_sh_10_1.jpg,Student,,,sub-51
Desktop or Laptop,Windows 10,Chrome 138.0.0.0,1920x1080,1920x911,Temporal Distance Task,cb_01,3.0,temp_dist_trial,dist_items,qkpkxw,2.0,info,,3.2000000044718035,0.0,3.2000000044718035,3.2000000044718035,0.0,3.2000000044718035,1.0,0.0,0.0,,Slider,Slider,4.0,object-56,temp_dist_trial,3.0,s_sh_10_1,student_shared,scissors,1.0,competing,paired,s_sh_10_1.jpg,Student,,,sub-51
Desktop or Laptop,Windows 10,Chrome 138.0.0.0,1920x1080,1920x911,Temporal Distance Task,cb_01,3.0,temp_dist_trial,dist_items,qkpkxw,2.0,continue,,2561.2000000044723,2552.5,2561.2000000044723,2561.2000000044723,2552.5,2561.2000000044723,1.0,0.0,0.0,,Click To Continue,Next button,7.0,object-60,temp_dist_trial,3.0,s_sh_10_1,student_shared,scissors,1.0,competing,paired,s_sh_10_1.jpg,Student,,,sub-51
Desktop or Laptop,Windows 10,Chrome 138.0.0.0,1920x1080,1920x911,Temporal Distance Task,cb_01,3.0,temp_dist_trial,dist_items,qkpkxw,2.0,response,74,1267.8000000000031,2552.5,2561.7000000044723,1267.8000000000031,2552.5,2561.7000000044723,1.0,1293.900000004469,0.0,,Slider,Slider,4.0,object-56,temp_dist_trial,3.0,s_sh_10_1,student_shared,scissors,1.0,competing,paired,s_sh_10_1.jpg,Student,,,sub-51
Desktop or Laptop,Windows 10,Chrome 138.0.0.0,1920x1080,1920x911,Temporal Distance Task,cb_01,4.0,temp_dist_trial,num_items,zn7si1,1.0,response,2_ITEM,1588.5000000014913,1584.9000000000015,1588.5000000014913,1588.5000000014913,1584.9000000000015,1588.5000000014913,1.0,0.0,0.0,,Click Response,2_count,5.0,object-49,temp_dist_trial,4.0,s_s_07_1,student_stem,periodic table,1.0,unique,paired,s_s_07_1.jpg,Student,,,sub-51
Desktop or Laptop,Windows 10,Chrome 138.0.0.0,1920x1080,1920x911,Temporal Distance Task,cb_01,4.0,temp_dist_trial,dist_items,qkpkxw,2.0,info,,3.1000000044732587,0.0,3.1000000044732587,3.1000000044732587,0.0,3.1000000044732587,1.0,0.0,0.0,,Slider,Slider,4.0,object-56,temp_dist_trial,4.0,s_s_07_1,student_stem,periodic table,1.0,unique,paired,s_s_07_1.jpg,Student,,,sub-51
Desktop or Laptop,Windows 10,Chrome 138.0.0.0,1920x1080,1920x911,Temporal Distance Task,cb_01,4.0,temp_dist_trial,dist_items,qkpkxw,2.0,continue,,1878.5000000029834,1868.6000000000056,1878.5000000029834,1878.5000000029834,1868.6000000000056,1878.5000000029834,1.0,0.0,0.0,,Click To Continue,Next button,7.0,object-60,temp_dist_trial,4.0,s_s_07_1,student_stem,periodic table,1.0,unique,paired,s_s_07_1.jpg,Student,,,sub-51
Desktop or Laptop,Windows 10,Chrome 138.0.0.0,1920x1080,1920x911,Temporal Distance Task,cb_01,4.0,temp_dist_trial,dist_items,qkpkxw,2.0,response,55,817.6000000000058,1868.6000000000056,1878.900000001493,817.6000000000058,1868.6000000000056,1878.900000001493,1.0,1061.3000000014872,0.0,,Slider,Slider,4.0,object-56,temp_dist_trial,4.0,s_s_07_1,student_stem,periodic table,1.0,unique,paired,s_s_07_1.jpg,Student,,,sub-51
Desktop or Laptop,Windows 10,Chrome 138.0.0.0,1920x1080,1920x911,Temporal Distance Task,cb_01,5.0,temp_dist_trial,num_items,zn7si1,1.0,response,1_ITEM,2318.1000000059576,2302.3999999999937,2318.1000000059576,2318.1000000059576,2302.3999999999937,2318.1000000059576,1.0,0.0,0.0,,Click Response,1_count,3.0,object-46,temp_dist_trial,5.0,s_sh_04_1,student_shared,laptop stand,1.0,competing,single,s_sh_04_1.jpg,Student,,,sub-51
Desktop or Laptop,Windows 10,Chrome 138.0.0.0,1920x1080,1920x911,Temporal Distance Task,cb_01,6.0,temp_dist_trial,num_items,zn7si1,1.0,response,2_ITEM,1249.1999999999969,1234.6999999999969,1249.1999999999969,1249.1999999999969,1234.6999999999969,1249.1999999999969,1.0,0.0,0.0,,Click Response,2_count,5.0,object-49,temp_dist_trial,6.0,s_sh_11_1,student_shared,pencil case,1.0,competing,paired,s_sh_11_1.jpg,Student,,,sub-51
Desktop or Laptop,Windows 10,Chrome 138.0.0.0,1920x1080,1920x911,Temporal Distance Task,cb_01,6.0,temp_dist_trial,dist_items,qkpkxw,2.0,info,,3.000000001491572,0.0,3.000000001491572,3.000000001491572,0.0,3.000000001491572,1.0,0.0,0.0,,Slider,Slider,4.0,object-56,temp_dist_trial,6.0,s_sh_11_1,student_shared,pencil case,1.0,competing,paired,s_sh_11_1.jpg,Student,,,sub-51
Desktop or Laptop,Windows 10,Chrome 138.0.0.0,1920x1080,1920x911,Temporal Distance Task,cb_01,6.0,temp_dist_trial,dist_items,qkpkxw,2.0,continue,,1465.5000000014913,1451.7000000000046,1465.5000000014913,1465.5000000014913,1451.7000000000046,1465.5000000014913,1.0,0.0,0.0,,Click To Continue,Next button,7.0,object-60,temp_dist_trial,6.0,s_sh_11_1,student_shared,pencil case,1.0,competing,paired,s_sh_11_1.jpg,Student,,,sub-51
Desktop or Laptop,Windows 10,Chrome 138.0.0.0,1920x1080,1920x911,Temporal Distance Task,cb_01,6.0,temp_dist_trial,dist_items,qkpkxw,2.0,response,58,800.8000000000029,1451.7000000000046,1465.7000000044718,800.8000000000029,1451.7000000000046,1465.7000000044718,1.0,664.9000000044689,0.0,,Slider,Slider,4.0,object-56,temp_dist_trial,6.0,s_sh_11_1,student_shared,pencil case,1.0,competing,paired,s_sh_11_1.jpg,Student,,,sub-51
Desktop or Laptop,Windows 10,Chrome 138.0.0.0,1920x1080,1920x911,Temporal Distance Task,cb_01,7.0,temp_dist_trial,num_items,zn7si1,1.0,response,2_ITEM,1741.1000000059576,1735.0,1741.1000000059576,1741.1000000059576,1735.0,1741.1000000059576,1.0,0.0,0.0,,Click Response,2_count,5.0,object-49,temp_dist_trial,7.0,s_a_10_1,student_art,tripod,1.0,unique,paired,s_a_10_1.jpg,Student,,,sub-51
Desktop or Laptop,Windows 10,Chrome 138.0.0.0,1920x1080,1920x911,Temporal Distance Task,cb_01,7.0,temp_dist_trial,dist_items,qkpkxw,2.0,info,,3.600000001490116,0.0,3.600000001490116,3.600000001490116,0.0,3.600000001490116,1.0,0.0,0.0,,Slider,Slider,4.0,object-56,temp_dist_trial,7.0,s_a_10_1,student_art,tripod,1.0,unique,paired,s_a_10_1.jpg,Student,,,sub-51
Desktop or Laptop,Windows 10,Chrome 138.0.0.0,1920x1080,1920x911,Temporal Distance Task,cb_01,7.0,temp_dist_trial,dist_items,qkpkxw,2.0,continue,,1305.1000000014901,1300.6999999999969,1305.1000000014901,1305.1000000014901,1300.6999999999969,1305.1000000014901,1.0,0.0,0.0,,Click To Continue,Next button,7.0,object-60,temp_dist_trial,7.0,s_a_10_1,student_art,tripod,1.0,unique,paired,s_a_10_1.jpg,Student,,,sub-51
Desktop or Laptop,Windows 10,Chrome 138.0.0.0,1920x1080,1920x911,Temporal Distance Task,cb_01,7.0,temp_dist_trial,dist_items,qkpkxw,2.0,response,61,666.6999999999971,1300.6999999999969,1305.4000000059605,666.6999999999971,1300.6999999999969,1305.4000000059605,1.0,638.7000000059634,0.0,,Slider,Slider,4.0,object-56,temp_dist_trial,7.0,s_a_10_1,student_art,tripod,1.0,unique,paired,s_a_10_1.jpg,Student,,,sub-51
Desktop or Laptop,Windows 10,Chrome 138.0.0.0,1920x1080,1920x911,Temporal Distance Task,cb_01,8.0,temp_dist_trial,num_items,zn7si1,1.0,response,1_ITEM,1077.1000000044733,1067.8000000000031,1077.1000000044733,1077.1000000044733,1067.8000000000031,1077.1000000044733,1.0,0.0,0.0,,Click Response,1_count,3.0,object-46,temp_dist_trial,8.0,s_a_12_1,student_art,saxophone,1.0,unique,single,s_a_12_1.jpg,Student,,,sub-51
Desktop or Laptop,Windows 10,Chrome 138.0.0.0,1920x1080,1920x911,Temporal Distance Task,cb_01,9.0,temp_dist_trial,num_items,zn7si1,1.0,response,2_ITEM,1023.3000000000028,1017.6000000000058,1023.3000000000028,1023.3000000000028,1017.6000000000058,1023.3000000000028,1.0,0.0,0.0,,Click Response,2_count,5.0,object-49,temp_dist_trial,9.0,s_s_02_1,student_stem,flask,1.0,unique,paired,s_s_02_1.jpg,Student,,,sub-51
Desktop or Laptop,Windows 10,Chrome 138.0.0.0,1920x1080,1920x911,Temporal Distance Task,cb_01,9.0,temp_dist_trial,dist_items,qkpkxw,2.0,info,,2.7000000044718035,0.0,2.7000000044718035,2.7000000044718035,0.0,2.7000000044718035,1.0,0.0,0.0,,Slider,Slider,4.0,object-56,temp_dist_trial,9.0,s_s_02_1,student_stem,flask,1.0,unique,paired,s_s_02_1.jpg,Student,,,sub-51
Desktop or Laptop,Windows 10,Chrome 138.0.0.0,1920x1080,1920x911,Temporal Distance Task,cb_01,9.0,temp_dist_trial,dist_items,qkpkxw,2.0,continue,,3338.400000000001,3336.7999999999956,3338.400000000001,3338.400000000001,3336.7999999999956,3338.400000000001,1.0,0.0,0.0,,Click To Continue,Next button,7.0,object-60,temp_dist_trial,9.0,s_s_02_1,student_stem,flask,1.0,unique,paired,s_s_02_1.jpg,Student,,,sub-51
Desktop or Laptop,Windows 10,Chrome 138.0.0.0,1920x1080,1920x911,Temporal Distance Task,cb_01,9.0,temp_dist_trial,dist_items,qkpkxw,2.0,response,73,2052.0000000000077,3336.7999999999956,3341.1000000029817,2052.0000000000077,3336.7999999999956,3341.1000000029817,1.0,1289.1000000029746,0.0,,Slider,Slider,4.0,object-56,temp_dist_trial,9.0,s_s_02_1,student_stem,flask,1.0,unique,paired,s_s_02_1.jpg,Student,,,sub-51
Desktop or Laptop,Windows 10,Chrome 138.0.0.0,1920x1080,1920x911,Temporal Distance Task,cb_01,10.0,temp_dist_trial,num_items,zn7si1,1.0,response,2_ITEM,1129.5000000059665,1117.6000000000058,1129.5000000059665,1129.5000000059665,1117.6000000000058,1129.5000000059665,1.0,0.0,0.0,,Click Response,2_count,5.0,object-49,temp_dist_trial,10.0,s_sh_03_1,student_shared,highlighter,1.0,competing,paired,s_sh_03_1.jpg,Student,,,sub-51
Desktop or Laptop,Windows 10,Chrome 138.0.0.0,1920x1080,1920x911,Temporal Distance Task,cb_01,10.0,temp_dist_trial,dist_items,qkpkxw,2.0,info,,2.9000000014930265,0.0,2.9000000014930265,2.9000000014930265,0.0,2.9000000014930265,1.0,0.0,0.0,,Slider,Slider,4.0,object-56,temp_dist_trial,10.0,s_sh_03_1,student_shared,highlighter,1.0,competing,paired,s_sh_03_1.jpg,Student,,,sub-51
Desktop or Laptop,Windows 10,Chrome 138.0.0.0,1920x1080,1920x911,Temporal Distance Task,cb_01,10.0,temp_dist_trial,dist_items,qkpkxw,2.0,continue,,1443.7000000059634,1434.8000000000034,1443.7000000059634,1443.7000000059634,1434.8000000000034,1443.7000000059634,1.0,0.0,0.0,,Click To Continue,Next button,7.0,object-60,temp_dist_trial,10.0,s_sh_03_1,student_shared,highlighter,1.0,competing,paired,s_sh_03_1.jpg,Student,,,sub-51
Desktop or Laptop,Windows 10,Chrome 138.0.0.0,1920x1080,1920x911,Temporal Distance Task,cb_01,10.0,temp_dist_trial,dist_items,qkpkxw,2.0,response,73,517.1999999999971,1434.8000000000034,1443.900000001493,517.1999999999971,1434.8000000000034,1443.900000001493,1.0,926.7000000014959,0.0,,Slider,Slider,4.0,object-56,temp_dist_trial,10.0,s_sh_03_1,student_shared,highlighter,1.0,competing,paired,s_sh_03_1.jpg,Student,,,sub-51
Desktop or Laptop,Windows 10,Chrome 138.0.0.0,1920x1080,1920x911,Temporal Distance Task,cb_01,11.0,temp_dist_trial,num_items,zn7si1,1.0,response,1_ITEM,1692.2000000029807,1685.6999999999966,1692.2000000029807,1692.2000000029807,1685.6999999999966,1692.2000000029807,1.0,0.0,0.0,,Click Response,1_count,3.0,object-46,temp_dist_trial,11.0,s_s_05_1,student_stem,lab goggles,1.0,unique,paired,s_s_05_1.jpg,Student,,,sub-51
Desktop or Laptop,Windows 10,Chrome 138.0.0.0,1920x1080,1920x911,Temporal Distance Task,cb_01,12.0,temp_dist_trial,num_items,zn7si1,1.0,response,2_ITEM,1685.7000000044645,1684.1999999999966,1685.7000000044645,1685.7000000044645,1684.1999999999966,1685.7000000044645,1.0,0.0,0.0,,Click Response,2_count,5.0,object-49,temp_dist_trial,12.0,s_s_01_1,student_stem,microscope,1.0,unique,paired,s_s_01_1.jpg,Student,,,sub-51
Desktop or Laptop,Windows 10,Chrome 138.0.0.0,1920x1080,1920x911,Temporal Distance Task,cb_01,12.0,temp_dist_trial,dist_items,qkpkxw,2.0,info,,3.8000000059546433,0.0,3.8000000059546433,3.8000000059546433,0.0,3.8000000059546433,1.0,0.0,0.0,,Slider,Slider,4.0,object-56,temp_dist_trial,12.0,s_s_01_1,student_stem,microscope,1.0,unique,paired,s_s_01_1.jpg,Student,,,sub-51
Desktop or Laptop,Windows 10,Chrome 138.0.0.0,1920x1080,1920x911,Temporal Distance Task,cb_01,12.0,temp_dist_trial,dist_items,qkpkxw,2.0,continue,,2509.2000000044645,2502.3999999999937,2509.2000000044645,2509.2000000044645,2502.3999999999937,2509.2000000044645,1.0,0.0,0.0,,Click To Continue,Next button,7.0,object-60,temp_dist_trial,12.0,s_s_01_1,student_stem,microscope,1.0,unique,paired,s_s_01_1.jpg,Student,,,sub-51
Desktop or Laptop,Windows 10,Chrome 138.0.0.0,1920x1080,1920x911,Temporal Distance Task,cb_01,12.0,temp_dist_trial,dist_items,qkpkxw,2.0,response,75,1568.1999999999966,2502.3999999999937,2509.5000000014843,1568.1999999999966,2502.3999999999937,2509.5000000014843,1.0,941.3000000014873,0.0,,Slider,Slider,4.0,object-56,temp_dist_trial,12.0,s_s_01_1,student_stem,microscope,1.0,unique,paired,s_s_01_1.jpg,Student,,,sub-51
Desktop or Laptop,Windows 10,Chrome 138.0.0.0,1920x1080,1920x911,Temporal Distance Task,cb_01,13.0,temp_dist_trial,num_items,zn7si1,1.0,response,2_ITEM,1524.7000000029807,1518.3000000000034,1524.7000000029807,1524.7000000029807,1518.3000000000034,1524.7000000029807,1.0,0.0,0.0,,Click Response,2_count,5.0,object-49,temp_dist_trial,13.0,s_a_04_1,student_art,easel,1.0,unique,paired,s_a_04_1.jpg,Student,,,sub-51
Desktop or Laptop,Windows 10,Chrome 138.0.0.0,1920x1080,1920x911,Temporal Distance Task,cb_01,13.0,temp_dist_trial,dist_items,qkpkxw,2.0,info,,2.7000000044645285,0.0,2.7000000044645285,2.7000000044645285,0.0,2.7000000044645285,1.0,0.0,0.0,,Slider,Slider,4.0,object-56,temp_dist_trial,13.0,s_a_04_1,student_art,easel,1.0,unique,paired,s_a_04_1.jpg,Student,,,sub-51
Desktop or Laptop,Windows 10,Chrome 138.0.0.0,1920x1080,1920x911,Temporal Distance Task,cb_01,13.0,temp_dist_trial,dist_items,qkpkxw,2.0,continue,,2987.3999999999933,2986.2999999999884,2987.3999999999933,2987.3999999999933,2986.2999999999884,2987.3999999999933,1.0,0.0,0.0,,Click To Continue,Next button,7.0,object-60,temp_dist_trial,13.0,s_a_04_1,student_art,easel,1.0,unique,paired,s_a_04_1.jpg,Student,,,sub-51
Desktop or Laptop,Windows 10,Chrome 138.0.0.0,1920x1080,1920x911,Temporal Distance Task,cb_01,13.0,temp_dist_trial,dist_items,qkpkxw,2.0,response,65,884.2999999999884,2986.2999999999884,2987.7000000044645,884.2999999999884,2986.2999999999884,2987.7000000044645,1.0,2103.400000004476,0.0,,Slider,Slider,4.0,object-56,temp_dist_trial,13.0,s_a_04_1,student_art,easel,1.0,unique,paired,s_a_04_1.jpg,Student,,,sub-51
Desktop or Laptop,Windows 10,Chrome 138.0.0.0,1920x1080,1920x911,Temporal Distance Task,cb_01,14.0,temp_dist_trial,num_items,zn7si1,1.0,response,1_ITEM,1202.800000002986,1201.1000000000058,1202.800000002986,1202.800000002986,1201.1000000000058,1202.800000002986,1.0,0.0,0.0,,Click Response,1_count,3.0,object-46,temp_dist_trial,14.0,s_sh_17_1,student_shared,wireless mouse,1.0,competing,single,s_sh_17_1.jpg,Student,,,sub-51
Desktop or Laptop,Windows 10,Chrome 138.0.0.0,1920x1080,1920x911,Temporal Distance Task,cb_01,15.0,temp_dist_trial,num_items,zn7si1,1.0,response,2_ITEM,1684.7000000059634,1668.5,1684.7000000059634,1684.7000000059634,1668.5,1684.7000000059634,1.0,0.0,0.0,,Click Response,2_count,5.0,object-49,temp_dist_trial,15.0,s_sh_13_1,student_shared,index cards,1.0,competing,paired,s_sh_13_1.jpg,Student,,,sub-51
Desktop or Laptop,Windows 10,Chrome 138.0.0.0,1920x1080,1920x911,Temporal Distance Task,cb_01,15.0,temp_dist_trial,dist_items,qkpkxw,2.0,info,,3.000000004467438,0.0,3.000000004467438,3.000000004467438,0.0,3.000000004467438,1.0,0.0,0.0,,Slider,Slider,4.0,object-56,temp_dist_trial,15.0,s_sh_13_1,student_shared,index cards,1.0,competing,paired,s_sh_13_1.jpg,Student,,,sub-51
Desktop or Laptop,Windows 10,Chrome 138.0.0.0,1920x1080,1920x911,Temporal Distance Task,cb_01,15.0,temp_dist_trial,dist_items,qkpkxw,2.0,continue,,1678.0000000044674,1668.3999999999942,1678.0000000044674,1678.0000000044674,1668.3999999999942,1678.0000000044674,1.0,0.0,0.0,,Click To Continue,Next button,7.0,object-60,temp_dist_trial,15.0,s_sh_13_1,student_shared,index cards,1.0,competing,paired,s_sh_13_1.jpg,Student,,,sub-51
Desktop or Laptop,Windows 10,Chrome 138.0.0.0,1920x1080,1920x911,Temporal Distance Task,cb_01,15.0,temp_dist_trial,dist_items,qkpkxw,2.0,response,86,751.0999999999913,1668.3999999999942,1678.3000000014872,751.0999999999913,1668.3999999999942,1678.3000000014872,1.0,927.2000000014959,0.0,,Slider,Slider,4.0,object-56,temp_dist_trial,15.0,s_sh_13_1,student_shared,index cards,1.0,competing,paired,s_sh_13_1.jpg,Student,,,sub-51
Desktop or Laptop,Windows 10,Chrome 138.0.0.0,1920x1080,1920x911,Temporal Distance Task,cb_01,16.0,temp_dist_trial,num_items,zn7si1,1.0,response,2_ITEM,1595.5000000029834,1584.8000000000034,1595.5000000029834,1595.5000000029834,1584.8000000000034,1595.5000000029834,1.0,0.0,0.0,,Click Response,2_count,5.0,object-49,temp_dist_trial,16.0,s_sh_06_1,student_shared,clipboard,1.0,competing,paired,s_sh_06_1.jpg,Student,,,sub-51
Desktop or Laptop,Windows 10,Chrome 138.0.0.0,1920x1080,1920x911,Temporal Distance Task,cb_01,16.0,temp_dist_trial,dist_items,qkpkxw,2.0,info,,3.000000005966285,0.0,3.000000005966285,3.000000005966285,0.0,3.000000005966285,1.0,0.0,0.0,,Slider,Slider,4.0,object-56,temp_dist_trial,16.0,s_sh_06_1,student_shared,clipboard,1.0,competing,paired,s_sh_06_1.jpg,Student,,,sub-51
Desktop or Laptop,Windows 10,Chrome 138.0.0.0,1920x1080,1920x911,Temporal Distance Task,cb_01,16.0,temp_dist_trial,dist_items,qkpkxw,2.0,continue,,1638.200000001496,1634.900000000009,1638.200000001496,1638.200000001496,1634.900000000009,1638.200000001496,1.0,0.0,0.0,,Click To Continue,Next button,7.0,object-60,temp_dist_trial,16.0,s_sh_06_1,student_shared,clipboard,1.0,competing,paired,s_sh_06_1.jpg,Student,,,sub-51
Desktop or Laptop,Windows 10,Chrome 138.0.0.0,1920x1080,1920x911,Temporal Distance Task,cb_01,16.0,temp_dist_trial,dist_items,qkpkxw,2.0,response,66,817.4000000000087,1634.900000000009,1638.5000000059665,817.4000000000087,1634.900000000009,1638.5000000059665,1.0,821.1000000059578,0.0,,Slider,Slider,4.0,object-56,temp_dist_trial,16.0,s_sh_06_1,student_shared,clipboard,1.0,competing,paired,s_sh_06_1.jpg,Student,,,sub-51
Desktop or Laptop,Windows 10,Chrome 138.0.0.0,1920x1080,1920x911,Temporal Distance Task,cb_01,17.0,temp_dist_trial,num_items,zn7si1,1.0,response,2_ITEM,1845.4000000029773,1835.1999999999966,1845.4000000029773,1845.4000000029773,1835.1999999999966,1845.4000000029773,1.0,0.0,0.0,,Click Response,2_count,5.0,object-49,temp_dist_trial,17.0,s_sh_16_1,student_shared,stapler,1.0,competing,paired,s_sh_16_1.jpg,Student,,,sub-51
Desktop or Laptop,Windows 10,Chrome 138.0.0.0,1920x1080,1920x911,Temporal Distance Task,cb_01,17.0,temp_dist_trial,dist_items,qkpkxw,2.0,info,,2.6999999999970896,0.0,2.6999999999970896,2.6999999999970896,0.0,2.6999999999970896,1.0,0.0,0.0,,Slider,Slider,4.0,object-56,temp_dist_trial,17.0,s_sh_16_1,student_shared,stapler,1.0,competing,paired,s_sh_16_1.jpg,Student,,,sub-51
Desktop or Laptop,Windows 10,Chrome 138.0.0.0,1920x1080,1920x911,Temporal Distance Task,cb_01,17.0,temp_dist_trial,dist_items,qkpkxw,2.0,continue,,1823.0000000044674,1818.3000000000034,1823.0000000044674,1823.0000000044674,1818.3000000000034,1823.0000000044674,1.0,0.0,0.0,,Click To Continue,Next button,7.0,object-60,temp_dist_trial,17.0,s_sh_16_1,student_shared,stapler,1.0,competing,paired,s_sh_16_1.jpg,Student,,,sub-51
Desktop or Laptop,Windows 10,Chrome 138.0.0.0,1920x1080,1920x911,Temporal Distance Task,cb_01,17.0,temp_dist_trial,dist_items,qkpkxw,2.0,response,34,767.6999999999971,1818.3000000000034,1823.3000000014872,767.6999999999971,1818.3000000000034,1823.3000000014872,1.0,1055.6000000014901,0.0,,Slider,Slider,4.0,object-56,temp_dist_trial,17.0,s_sh_16_1,student_shared,stapler,1.0,competing,paired,s_sh_16_1.jpg,Student,,,sub-51
Desktop or Laptop,Windows 10,Chrome 138.0.0.0,1920x1080,1920x911,Temporal Distance Task,cb_01,18.0,temp_dist_trial,num_items,zn7si1,1.0,response,1_ITEM,946.5000000014844,934.3999999999942,946.5000000014844,946.5000000014844,934.3999999999942,946.5000000014844,1.0,0.0,0.0,,Click Response,1_count,3.0,object-46,temp_dist_trial,18.0,s_a_05_1,student_art,clay,1.0,unique,single,s_a_05_1.jpg,Student,,,sub-51
Desktop or Laptop,Windows 10,Chrome 138.0.0.0,1920x1080,1920x911,Temporal Distance Task,cb_01,19.0,temp_dist_trial,num_items,zn7si1,1.0,response,2_ITEM,1077.9000000044764,1067.5,1077.9000000044764,1077.9000000044764,1067.5,1077.9000000044764,1.0,0.0,0.0,,Click Response,2_count,5.0,object-49,temp_dist_trial,19.0,s_s_12_1,student_stem,robotic arm,1.0,unique,paired,s_s_12_1.jpg,Student,,,sub-51
Desktop or Laptop,Windows 10,Chrome 138.0.0.0,1920x1080,1920x911,Temporal Distance Task,cb_01,19.0,temp_dist_trial,dist_items,qkpkxw,2.0,info,,2.9000000014930265,0.0,2.9000000014930265,2.9000000014930265,0.0,2.9000000014930265,1.0,0.0,0.0,,Slider,Slider,4.0,object-56,temp_dist_trial,19.0,s_s_12_1,student_stem,robotic arm,1.0,unique,paired,s_s_12_1.jpg,Student,,,sub-51
Desktop or Laptop,Windows 10,Chrome 138.0.0.0,1920x1080,1920x911,Temporal Distance Task,cb_01,19.0,temp_dist_trial,dist_items,qkpkxw,2.0,continue,,1332.900000001493,1317.9000000000087,1332.900000001493,1332.900000001493,1317.9000000000087,1332.900000001493,1.0,0.0,0.0,,Click To Continue,Next button,7.0,object-60,temp_dist_trial,19.0,s_s_12_1,student_stem,robotic arm,1.0,unique,paired,s_s_12_1.jpg,Student,,,sub-51
Desktop or Laptop,Windows 10,Chrome 138.0.0.0,1920x1080,1920x911,Temporal Distance Task,cb_01,19.0,temp_dist_trial,dist_items,qkpkxw,2.0,response,57,634.1000000000057,1317.9000000000087,1333.2000000059634,634.1000000000057,1317.9000000000087,1333.2000000059634,1.0,699.1000000059578,0.0,,Slider,Slider,4.0,object-56,temp_dist_trial,19.0,s_s_12_1,student_stem,robotic arm,1.0,unique,paired,s_s_12_1.jpg,Student,,,sub-51
Desktop or Laptop,Windows 10,Chrome 138.0.0.0,1920x1080,1920x911,Temporal Distance Task,cb_01,20.0,temp_dist_trial,num_items,zn7si1,1.0,response,2_ITEM,1351.1000000029746,1334.8999999999942,1351.1000000029746,1351.1000000029746,1334.8999999999942,1351.1000000029746,1.0,0.0,0.0,,Click Response,2_count,5.0,object-49,temp_dist_trial,20.0,s_sh_14_1,student_shared,printer,1.0,competing,paired,s_sh_14_1.jpg,Student,,,sub-51
Desktop or Laptop,Windows 10,Chrome 138.0.0.0,1920x1080,1920x911,Temporal Distance Task,cb_01,20.0,temp_dist_trial,dist_items,qkpkxw,2.0,info,,2.6000000029744115,0.0,2.6000000029744115,2.6000000029744115,0.0,2.6000000029744115,1.0,0.0,0.0,,Slider,Slider,4.0,object-56,temp_dist_trial,20.0,s_sh_14_1,student_shared,printer,1.0,competing,paired,s_sh_14_1.jpg,Student,,,sub-51
Desktop or Laptop,Windows 10,Chrome 138.0.0.0,1920x1080,1920x911,Temporal Distance Task,cb_01,20.0,temp_dist_trial,dist_items,qkpkxw,2.0,continue,,2355.0000000014843,2352.3999999999937,2355.0000000014843,2355.0000000014843,2352.3999999999937,2355.0000000014843,1.0,0.0,0.0,,Click To Continue,Next button,7.0,object-60,temp_dist_trial,20.0,s_sh_14_1,student_shared,printer,1.0,competing,paired,s_sh_14_1.jpg,Student,,,sub-51
Desktop or Laptop,Windows 10,Chrome 138.0.0.0,1920x1080,1920x911,Temporal Distance Task,cb_01,20.0,temp_dist_trial,dist_items,qkpkxw,2.0,response,26,1367.8999999999942,2352.3999999999937,2355.2000000044645,1367.8999999999942,2352.3999999999937,2355.2000000044645,1.0,987.3000000044703,0.0,,Slider,Slider,4.0,object-56,temp_dist_trial,20.0,s_sh_14_1,student_shared,printer,1.0,competing,paired,s_sh_14_1.jpg,Student,,,sub-51
Desktop or Laptop,Windows 10,Chrome 138.0.0.0,1920x1080,1920x911,Temporal Distance Task,cb_01,21.0,temp_dist_trial,num_items,zn7si1,1.0,response,2_ITEM,1378.4000000059605,1368.0,1378.4000000059605,1378.4000000059605,1368.0,1378.4000000059605,1.0,0.0,0.0,,Click Response,2_count,5.0,object-49,temp_dist_trial,21.0,s_sh_24_1,student_shared,desk organizer,1.0,competing,paired,s_sh_24_1.jpg,Student,,,sub-51
Desktop or Laptop,Windows 10,Chrome 138.0.0.0,1920x1080,1920x911,Temporal Distance Task,cb_01,21.0,temp_dist_trial,dist_items,qkpkxw,2.0,info,,2.500000004467438,0.0,2.500000004467438,2.500000004467438,0.0,2.500000004467438,1.0,0.0,0.0,,Slider,Slider,4.0,object-56,temp_dist_trial,21.0,s_sh_24_1,student_shared,desk organizer,1.0,competing,paired,s_sh_24_1.jpg,Student,,,sub-51
Desktop or Laptop,Windows 10,Chrome 138.0.0.0,1920x1080,1920x911,Temporal Distance Task,cb_01,21.0,temp_dist_trial,dist_items,qkpkxw,2.0,continue,,1631.3000000014872,1618.099999999991,1631.3000000014872,1631.3000000014872,1618.099999999991,1631.3000000014872,1.0,0.0,0.0,,Click To Continue,Next button,7.0,object-60,temp_dist_trial,21.0,s_sh_24_1,student_shared,desk organizer,1.0,competing,paired,s_sh_24_1.jpg,Student,,,sub-51
Desktop or Laptop,Windows 10,Chrome 138.0.0.0,1920x1080,1920x911,Temporal Distance Task,cb_01,21.0,temp_dist_trial,dist_items,qkpkxw,2.0,response,70,650.5,1618.099999999991,1631.5000000044674,650.5,1618.099999999991,1631.5000000044674,1.0,981.0000000044673,0.0,,Slider,Slider,4.0,object-56,temp_dist_trial,21.0,s_sh_24_1,student_shared,desk organizer,1.0,competing,paired,s_sh_24_1.jpg,Student,,,sub-51
Desktop or Laptop,Windows 10,Chrome 138.0.0.0,1920x1080,1920x911,Temporal Distance Task,cb_01,22.0,temp_dist_trial,num_items,zn7si1,1.0,response,2_ITEM,1298.0000000059665,1284.7000000000114,1298.0000000059665,1298.0000000059665,1284.7000000000114,1298.0000000059665,1.0,0.0,0.0,,Click Response,2_count,5.0,object-49,temp_dist_trial,22.0,s_sh_07_1,student_shared,ruler,1.0,competing,paired,s_sh_07_1.jpg,Student,,,sub-51
Desktop or Laptop,Windows 10,Chrome 138.0.0.0,1920x1080,1920x911,Temporal Distance Task,cb_01,22.0,temp_dist_trial,dist_items,qkpkxw,2.0,info,,2.6999999999970896,0.0,2.6999999999970896,2.6999999999970896,0.0,2.6999999999970896,1.0,0.0,0.0,,Slider,Slider,4.0,object-56,temp_dist_trial,22.0,s_sh_07_1,student_shared,ruler,1.0,competing,paired,s_sh_07_1.jpg,Student,,,sub-51
Desktop or Laptop,Windows 10,Chrome 138.0.0.0,1920x1080,1920x911,Temporal Distance Task,cb_01,22.0,temp_dist_trial,dist_items,qkpkxw,2.0,continue,,2585.8999999999937,2569.199999999997,2585.8999999999937,2585.8999999999937,2569.199999999997,2585.8999999999937,1.0,0.0,0.0,,Click To Continue,Next button,7.0,object-60,temp_dist_trial,22.0,s_sh_07_1,student_shared,ruler,1.0,competing,paired,s_sh_07_1.jpg,Student,,,sub-51
Desktop or Laptop,Windows 10,Chrome 138.0.0.0,1920x1080,1920x911,Temporal Distance Task,cb_01,22.0,temp_dist_trial,dist_items,qkpkxw,2.0,response,86,550.5999999999913,2569.199999999997,2585.8999999999937,550.5999999999913,2569.199999999997,2585.8999999999937,1.0,2035.3000000000034,0.0,,Slider,Slider,4.0,object-56,temp_dist_trial,22.0,s_sh_07_1,student_shared,ruler,1.0,competing,paired,s_sh_07_1.jpg,Student,,,sub-51
Desktop or Laptop,Windows 10,Chrome 138.0.0.0,1920x1080,1920x911,Temporal Distance Task,cb_01,23.0,temp_dist_trial,num_items,zn7si1,1.0,response,2_ITEM,1130.2000000029802,1117.8000000000031,1130.2000000029802,1130.2000000029802,1117.8000000000031,1130.2000000029802,1.0,0.0,0.0,,Click Response,2_count,5.0,object-49,temp_dist_trial,23.0,s_sh_12_1,student_shared,binder,1.0,competing,paired,s_sh_12_1.jpg,Student,,,sub-51
Desktop or Laptop,Windows 10,Chrome 138.0.0.0,1920x1080,1920x911,Temporal Distance Task,cb_01,23.0,temp_dist_trial,dist_items,qkpkxw,2.0,info,,3.0,0.0,3.0,3.0,0.0,3.0,1.0,0.0,0.0,,Slider,Slider,4.0,object-56,temp_dist_trial,23.0,s_sh_12_1,student_shared,binder,1.0,competing,paired,s_sh_12_1.jpg,Student,,,sub-51
Desktop or Laptop,Windows 10,Chrome 138.0.0.0,1920x1080,1920x911,Temporal Distance Task,cb_01,23.0,temp_dist_trial,dist_items,qkpkxw,2.0,continue,,1594.2000000029807,1584.8999999999942,1594.2000000029807,1594.2000000029807,1584.8999999999942,1594.2000000029807,1.0,0.0,0.0,,Click To Continue,Next button,7.0,object-60,temp_dist_trial,23.0,s_sh_12_1,student_shared,binder,1.0,competing,paired,s_sh_12_1.jpg,Student,,,sub-51
Desktop or Laptop,Windows 10,Chrome 138.0.0.0,1920x1080,1920x911,Temporal Distance Task,cb_01,23.0,temp_dist_trial,dist_items,qkpkxw,2.0,response,55,583.8999999999943,1584.8999999999942,1594.4000000059605,583.8999999999943,1584.8999999999942,1594.4000000059605,1.0,1010.5000000059663,0.0,,Slider,Slider,4.0,object-56,temp_dist_trial,23.0,s_sh_12_1,student_shared,binder,1.0,competing,paired,s_sh_12_1.jpg,Student,,,sub-51
Desktop or Laptop,Windows 10,Chrome 138.0.0.0,1920x1080,1920x911,Temporal Distance Task,cb_01,24.0,temp_dist_trial,num_items,zn7si1,1.0,response,2_ITEM,1216.9000000044764,1201.3000000000031,1216.9000000044764,1216.9000000044764,1201.3000000000031,1216.9000000044764,1.0,0.0,0.0,,Click Response,2_count,5.0,object-49,temp_dist_trial,24.0,s_sh_23_1,student_shared,ballpoint pen,1.0,competing,paired,s_sh_23_1.jpg,Student,,,sub-51
Desktop or Laptop,Windows 10,Chrome 138.0.0.0,1920x1080,1920x911,Temporal Distance Task,cb_01,24.0,temp_dist_trial,dist_items,qkpkxw,2.0,info,,2.6000000000058208,0.0,2.6000000000058208,2.6000000000058208,0.0,2.6000000000058208,1.0,0.0,0.0,,Slider,Slider,4.0,object-56,temp_dist_trial,24.0,s_sh_23_1,student_shared,ballpoint pen,1.0,competing,paired,s_sh_23_1.jpg,Student,,,sub-51
Desktop or Laptop,Windows 10,Chrome 138.0.0.0,1920x1080,1920x911,Temporal Distance Task,cb_01,24.0,temp_dist_trial,dist_items,qkpkxw,2.0,continue,,2121.400000004476,2118.800000000003,2121.400000004476,2121.400000004476,2118.800000000003,2121.400000004476,1.0,0.0,0.0,,Click To Continue,Next button,7.0,object-60,temp_dist_trial,24.0,s_sh_23_1,student_shared,ballpoint pen,1.0,competing,paired,s_sh_23_1.jpg,Student,,,sub-51
Desktop or Laptop,Windows 10,Chrome 138.0.0.0,1920x1080,1920x911,Temporal Distance Task,cb_01,24.0,temp_dist_trial,dist_items,qkpkxw,2.0,response,35,884.6000000000058,2118.800000000003,2121.700000001496,884.6000000000058,2118.800000000003,2121.700000001496,1.0,1237.1000000014901,0.0,,Slider,Slider,4.0,object-56,temp_dist_trial,24.0,s_sh_23_1,student_shared,ballpoint pen,1.0,competing,paired,s_sh_23_1.jpg,Student,,,sub-51
Desktop or Laptop,Windows 10,Chrome 138.0.0.0,1920x1080,1920x911,Temporal Distance Task,cb_01,25.0,temp_dist_trial,num_items,zn7si1,1.0,response,2_ITEM,1102.5000000029831,1101.1000000000058,1102.5000000029831,1102.5000000029831,1101.1000000000058,1102.5000000029831,1.0,0.0,0.0,,Click Response,2_count,5.0,object-49,temp_dist_trial,25.0,s_a_02_1,student_art,canvas,1.0,unique,paired,s_a_02_1.jpg,Student,,,sub-51
Desktop or Laptop,Windows 10,Chrome 138.0.0.0,1920x1080,1920x911,Temporal Distance Task,cb_01,25.0,temp_dist_trial,dist_items,qkpkxw,2.0,info,,3.000000004467438,0.0,3.000000004467438,3.000000004467438,0.0,3.000000004467438,1.0,0.0,0.0,,Slider,Slider,4.0,object-56,temp_dist_trial,25.0,s_a_02_1,student_art,canvas,1.0,unique,paired,s_a_02_1.jpg,Student,,,sub-51
Desktop or Laptop,Windows 10,Chrome 138.0.0.0,1920x1080,1920x911,Temporal Distance Task,cb_01,25.0,temp_dist_trial,dist_items,qkpkxw,2.0,continue,,1249.0000000044674,1234.3999999999942,1249.0000000044674,1249.0000000044674,1234.3999999999942,1249.0000000044674,1.0,0.0,0.0,,Click To Continue,Next button,7.0,object-60,temp_dist_trial,25.0,s_a_02_1,student_art,canvas,1.0,unique,paired,s_a_02_1.jpg,Student,,,sub-51
Desktop or Laptop,Windows 10,Chrome 138.0.0.0,1920x1080,1920x911,Temporal Distance Task,cb_01,25.0,temp_dist_trial,dist_items,qkpkxw,2.0,response,57,583.6999999999971,1234.3999999999942,1249.3000000014872,583.6999999999971,1234.3999999999942,1249.3000000014872,1.0,665.6000000014901,0.0,,Slider,Slider,4.0,object-56,temp_dist_trial,25.0,s_a_02_1,student_art,canvas,1.0,unique,paired,s_a_02_1.jpg,Student,,,sub-51
Desktop or Laptop,Windows 10,Chrome 138.0.0.0,1920x1080,1920x911,Temporal Distance Task,cb_01,26.0,temp_dist_trial,num_items,zn7si1,1.0,response,1_ITEM,1362.7000000059634,1351.3000000000031,1362.7000000059634,1362.7000000059634,1351.3000000000031,1362.7000000059634,1.0,0.0,0.0,,Click Response,1_count,3.0,object-46,temp_dist_trial,26.0,s_s_19_1,student_stem,circuit board,1.0,unique,single,s_s_19_1.jpg,Student,,,sub-51
Desktop or Laptop,Windows 10,Chrome 138.0.0.0,1920x1080,1920x911,Temporal Distance Task,cb_01,27.0,temp_dist_trial,num_items,zn7si1,1.0,response,1_ITEM,794.1000000000058,784.2000000000116,794.1000000000058,794.1000000000058,784.2000000000116,794.1000000000058,1.0,0.0,0.0,,Click Response,1_count,3.0,object-46,temp_dist_trial,27.0,s_a_14_1,student_art,guitar pick,1.0,unique,single,s_a_14_1.jpg,Student,,,sub-51
Desktop or Laptop,Windows 10,Chrome 138.0.0.0,1920x1080,1920x911,Temporal Distance Task,cb_01,28.0,temp_dist_trial,num_items,zn7si1,1.0,response,2_ITEM,1157.7000000044645,1151.0999999999913,1157.7000000044645,1157.7000000044645,1151.0999999999913,1157.7000000044645,1.0,0.0,0.0,,Click Response,2_count,5.0,object-49,temp_dist_trial,28.0,s_s_09_1,student_stem,multimeter,1.0,unique,paired,s_s_09_1.jpg,Student,,,sub-51
Desktop or Laptop,Windows 10,Chrome 138.0.0.0,1920x1080,1920x911,Temporal Distance Task,cb_01,28.0,temp_dist_trial,dist_items,qkpkxw,2.0,info,,3.100000001490116,0.0,3.100000001490116,3.100000001490116,0.0,3.100000001490116,1.0,0.0,0.0,,Slider,Slider,4.0,object-56,temp_dist_trial,28.0,s_s_09_1,student_stem,multimeter,1.0,unique,paired,s_s_09_1.jpg,Student,,,sub-51
Desktop or Laptop,Windows 10,Chrome 138.0.0.0,1920x1080,1920x911,Temporal Distance Task,cb_01,28.0,temp_dist_trial,dist_items,qkpkxw,2.0,continue,,2133.2000000029802,2118.800000000003,2133.2000000029802,2133.2000000029802,2118.800000000003,2133.2000000029802,1.0,0.0,0.0,,Click To Continue,Next button,7.0,object-60,temp_dist_trial,28.0,s_s_09_1,student_stem,multimeter,1.0,unique,paired,s_s_09_1.jpg,Student,,,sub-51
Desktop or Laptop,Windows 10,Chrome 138.0.0.0,1920x1080,1920x911,Temporal Distance Task,cb_01,28.0,temp_dist_trial,dist_items,qkpkxw,2.0,response,78,884.6000000000058,2118.800000000003,2133.5,884.6000000000058,2118.800000000003,2133.5,1.0,1248.8999999999942,0.0,,Slider,Slider,4.0,object-56,temp_dist_trial,28.0,s_s_09_1,student_stem,multimeter,1.0,unique,paired,s_s_09_1.jpg,Student,,,sub-51
Desktop or Laptop,Windows 10,Chrome 138.0.0.0,1920x1080,1920x911,Temporal Distance Task,cb_01,29.0,temp_dist_trial,num_items,zn7si1,1.0,response,2_ITEM,1470.4000000029773,1468.099999999991,1470.4000000029773,1470.4000000029773,1468.099999999991,1470.4000000029773,1.0,0.0,0.0,,Click Response,2_count,5.0,object-49,temp_dist_trial,29.0,s_a_20_1,student_art,pin cushion,1.0,unique,paired,s_a_20_1.jpg,Student,,,sub-51
Desktop or Laptop,Windows 10,Chrome 138.0.0.0,1920x1080,1920x911,Temporal Distance Task,cb_01,29.0,temp_dist_trial,dist_items,qkpkxw,2.0,info,,2.7000000044645285,0.0,2.7000000044645285,2.7000000044645285,0.0,2.7000000044645285,1.0,0.0,0.0,,Slider,Slider,4.0,object-56,temp_dist_trial,29.0,s_a_20_1,student_art,pin cushion,1.0,unique,paired,s_a_20_1.jpg,Student,,,sub-51
Desktop or Laptop,Windows 10,Chrome 138.0.0.0,1920x1080,1920x911,Temporal Distance Task,cb_01,29.0,temp_dist_trial,dist_items,qkpkxw,2.0,continue,,1409.2000000044645,1401.3999999999942,1409.2000000044645,1409.2000000044645,1401.3999999999942,1409.2000000044645,1.0,0.0,0.0,,Click To Continue,Next button,7.0,object-60,temp_dist_trial,29.0,s_a_20_1,student_art,pin cushion,1.0,unique,paired,s_a_20_1.jpg,Student,,,sub-51
Desktop or Laptop,Windows 10,Chrome 138.0.0.0,1920x1080,1920x911,Temporal Distance Task,cb_01,29.0,temp_dist_trial,dist_items,qkpkxw,2.0,response,45,684.0,1401.3999999999942,1409.5000000014843,684.0,1401.3999999999942,1409.5000000014843,1.0,725.5000000014842,0.0,,Slider,Slider,4.0,object-56,temp_dist_trial,29.0,s_a_20_1,student_art,pin cushion,1.0,unique,paired,s_a_20_1.jpg,Student,,,sub-51
Desktop or Laptop,Windows 10,Chrome 138.0.0.0,1920x1080,1920x911,Temporal Distance Task,cb_01,30.0,temp_dist_trial,num_items,zn7si1,1.0,response,2_ITEM,1399.6000000014901,1384.6999999999966,1399.6000000014901,1399.6000000014901,1384.6999999999966,1399.6000000014901,1.0,0.0,0.0,,Click Response,2_count,5.0,object-49,temp_dist_trial,30.0,s_s_18_1,student_stem,brain model,1.0,unique,paired,s_s_18_1.jpg,Student,,,sub-51
Desktop or Laptop,Windows 10,Chrome 138.0.0.0,1920x1080,1920x911,Temporal Distance Task,cb_01,30.0,temp_dist_trial,dist_items,qkpkxw,2.0,info,,2.3999999999941792,0.0,2.3999999999941792,2.3999999999941792,0.0,2.3999999999941792,1.0,0.0,0.0,,Slider,Slider,4.0,object-56,temp_dist_trial,30.0,s_s_18_1,student_stem,brain model,1.0,unique,paired,s_s_18_1.jpg,Student,,,sub-51
Desktop or Laptop,Windows 10,Chrome 138.0.0.0,1920x1080,1920x911,Temporal Distance Task,cb_01,30.0,temp_dist_trial,dist_items,qkpkxw,2.0,continue,,1503.5000000014843,1501.3999999999942,1503.5000000014843,1503.5000000014843,1501.3999999999942,1503.5000000014843,1.0,0.0,0.0,,Click To Continue,Next button,7.0,object-60,temp_dist_trial,30.0,s_s_18_1,student_stem,brain model,1.0,unique,paired,s_s_18_1.jpg,Student,,,sub-51
Desktop or Laptop,Windows 10,Chrome 138.0.0.0,1920x1080,1920x911,Temporal Distance Task,cb_01,30.0,temp_dist_trial,dist_items,qkpkxw,2.0,response,33,734.0,1501.3999999999942,1506.2000000044645,734.0,1501.3999999999942,1506.2000000044645,1.0,772.2000000044645,0.0,,Slider,Slider,4.0,object-56,temp_dist_trial,30.0,s_s_18_1,student_stem,brain model,1.0,unique,paired,s_s_18_1.jpg,Student,,,sub-51
Desktop or Laptop,Windows 10,Chrome 138.0.0.0,1920x1080,1920x911,Temporal Distance Task,cb_01,31.0,temp_dist_trial,num_items,zn7si1,1.0,response,2_ITEM,2649.5,2636.700000000012,2649.5,2649.5,2636.700000000012,2649.5,1.0,0.0,0.0,,Click Response,2_count,5.0,object-49,temp_dist_trial,31.0,s_s_04_1,student_stem,bunsen burner,1.0,unique,paired,s_s_04_1.jpg,Student,,,sub-51
Desktop or Laptop,Windows 10,Chrome 138.0.0.0,1920x1080,1920x911,Temporal Distance Task,cb_01,31.0,temp_dist_trial,dist_items,qkpkxw,2.0,info,,2.600000004458707,0.0,2.600000004458707,2.600000004458707,0.0,2.600000004458707,1.0,0.0,0.0,,Slider,Slider,4.0,object-56,temp_dist_trial,31.0,s_s_04_1,student_stem,bunsen burner,1.0,unique,paired,s_s_04_1.jpg,Student,,,sub-51
Desktop or Laptop,Windows 10,Chrome 138.0.0.0,1920x1080,1920x911,Temporal Distance Task,cb_01,31.0,temp_dist_trial,dist_items,qkpkxw,2.0,continue,,1518.0,1501.3999999999942,1518.0,1518.0,1501.3999999999942,1518.0,1.0,0.0,0.0,,Click To Continue,Next button,7.0,object-60,temp_dist_trial,31.0,s_s_04_1,student_stem,bunsen burner,1.0,unique,paired,s_s_04_1.jpg,Student,,,sub-51
Desktop or Laptop,Windows 10,Chrome 138.0.0.0,1920x1080,1920x911,Temporal Distance Task,cb_01,31.0,temp_dist_trial,dist_items,qkpkxw,2.0,response,62,634.0,1501.3999999999942,1518.0,634.0,1501.3999999999942,1518.0,1.0,884.0,0.0,,Slider,Slider,4.0,object-56,temp_dist_trial,31.0,s_s_04_1,student_stem,bunsen burner,1.0,unique,paired,s_s_04_1.jpg,Student,,,sub-51
Desktop or Laptop,Windows 10,Chrome 138.0.0.0,1920x1080,1920x911,Temporal Distance Task,cb_01,32.0,temp_dist_trial,num_items,zn7si1,1.0,response,1_ITEM,1633.6000000029746,1619.0,1633.6000000029746,1633.6000000029746,1619.0,1633.6000000029746,1.0,0.0,0.0,,Click Response,1_count,3.0,object-46,temp_dist_trial,32.0,s_a_19_1,student_art,ballet shoes,1.0,unique,paired,s_a_19_1.jpg,Student,,,sub-51
Desktop or Laptop,Windows 10,Chrome 138.0.0.0,1920x1080,1920x911,Temporal Distance Task,cb_01,33.0,temp_dist_trial,num_items,zn7si1,1.0,response,1_ITEM,1057.4000000044764,1050.7000000000116,1057.4000000044764,1057.4000000044764,1050.7000000000116,1057.4000000044764,1.0,0.0,0.0,,Click Response,1_count,3.0,object-46,temp_dist_trial,33.0,s_a_18_1,student_art,tutu,1.0,unique,single,s_a_18_1.jpg,Student,,,sub-51
Desktop or Laptop,Windows 10,Chrome 138.0.0.0,1920x1080,1920x911,Temporal Distance Task,cb_01,34.0,temp_dist_trial,num_items,zn7si1,1.0,response,2_ITEM,980.9000000014785,967.0,980.9000000014785,980.9000000014785,967.0,980.9000000014785,1.0,0.0,0.0,,Click Response,2_count,5.0,object-49,temp_dist_trial,34.0,s_sh_02_1,student_shared,eraser,1.0,competing,paired,s_sh_02_1.jpg,Student,,,sub-51
Desktop or Laptop,Windows 10,Chrome 138.0.0.0,1920x1080,1920x911,Temporal Distance Task,cb_01,34.0,temp_dist_trial,dist_items,qkpkxw,2.0,info,,2.7000000014959373,0.0,2.7000000014959373,2.7000000014959373,0.0,2.7000000014959373,1.0,0.0,0.0,,Slider,Slider,4.0,object-56,temp_dist_trial,34.0,s_sh_02_1,student_shared,eraser,1.0,competing,paired,s_sh_02_1.jpg,Student,,,sub-51
Desktop or Laptop,Windows 10,Chrome 138.0.0.0,1920x1080,1920x911,Temporal Distance Task,cb_01,34.0,temp_dist_trial,dist_items,qkpkxw,2.0,continue,,2177.6000000000063,2168.8000000000175,2177.6000000000063,2177.6000000000063,2168.8000000000175,2177.6000000000063,1.0,0.0,0.0,,Click To Continue,Next button,7.0,object-60,temp_dist_trial,34.0,s_sh_02_1,student_shared,eraser,1.0,competing,paired,s_sh_02_1.jpg,Student,,,sub-51
Desktop or Laptop,Windows 10,Chrome 138.0.0.0,1920x1080,1920x911,Temporal Distance Task,cb_01,34.0,temp_dist_trial,dist_items,qkpkxw,2.0,response,68,1202.0,2168.8000000000175,2180.1000000000063,1202.0,2168.8000000000175,2180.1000000000063,1.0,978.1000000000058,0.0,,Slider,Slider,4.0,object-56,temp_dist_trial,34.0,s_sh_02_1,student_shared,eraser,1.0,competing,paired,s_sh_02_1.jpg,Student,,,sub-51
Desktop or Laptop,Windows 10,Chrome 138.0.0.0,1920x1080,1920x911,Temporal Distance Task,cb_01,35.0,temp_dist_trial,num_items,zn7si1,1.0,response,2_ITEM,2441.000000002969,2435.6999999999825,2441.000000002969,2441.000000002969,2435.6999999999825,2441.000000002969,1.0,0.0,0.0,,Click Response,2_count,5.0,object-49,temp_dist_trial,35.0,s_sh_19_1,student_shared,portable plastic drawer,1.0,competing,paired,s_sh_19_1.jpg,Student,,,sub-51
Desktop or Laptop,Windows 10,Chrome 138.0.0.0,1920x1080,1920x911,Temporal Distance Task,cb_01,35.0,temp_dist_trial,dist_items,qkpkxw,2.0,info,,2.600000004458707,0.0,2.600000004458707,2.600000004458707,0.0,2.600000004458707,1.0,0.0,0.0,,Slider,Slider,4.0,object-56,temp_dist_trial,35.0,s_sh_19_1,student_shared,portable plastic drawer,1.0,competing,paired,s_sh_19_1.jpg,Student,,,sub-51
Desktop or Laptop,Windows 10,Chrome 138.0.0.0,1920x1080,1920x911,Temporal Distance Task,cb_01,35.0,temp_dist_trial,dist_items,qkpkxw,2.0,continue,,1900.7000000059488,1885.2999999999884,1900.7000000059488,1900.7000000059488,1885.2999999999884,1900.7000000059488,1.0,0.0,0.0,,Click To Continue,Next button,7.0,object-60,temp_dist_trial,35.0,s_sh_19_1,student_shared,portable plastic drawer,1.0,competing,paired,s_sh_19_1.jpg,Student,,,sub-51
Desktop or Laptop,Windows 10,Chrome 138.0.0.0,1920x1080,1920x911,Temporal Distance Task,cb_01,35.0,temp_dist_trial,dist_items,qkpkxw,2.0,response,30,600.6999999999825,1885.2999999999884,1901.0000000029688,600.6999999999825,1885.2999999999884,1901.0000000029688,1.0,1300.300000002986,0.0,,Slider,Slider,4.0,object-56,temp_dist_trial,35.0,s_sh_19_1,student_shared,portable plastic drawer,1.0,competing,paired,s_sh_19_1.jpg,Student,,,sub-51
Desktop or Laptop,Windows 10,Chrome 138.0.0.0,1920x1080,1920x911,Temporal Distance Task,cb_01,36.0,temp_dist_trial,num_items,zn7si1,1.0,response,1_ITEM,1639.6000000014901,1635.2000000000116,1639.6000000014901,1639.6000000014901,1635.2000000000116,1639.6000000014901,1.0,0.0,0.0,,Click Response,1_count,3.0,object-46,temp_dist_trial,36.0,s_sh_20_1,student_shared,tape,1.0,competing,single,s_sh_20_1.jpg,Student,,,sub-51
Desktop or Laptop,Windows 10,Chrome 138.0.0.0,1920x1080,1920x911,Temporal Distance Task,cb_01,37.0,temp_dist_trial,num_items,zn7si1,1.0,response,1_ITEM,958.400000002992,951.1000000000058,958.400000002992,958.400000002992,951.1000000000058,958.400000002992,1.0,0.0,0.0,,Click Response,1_count,3.0,object-46,temp_dist_trial,37.0,s_sh_09_1,student_shared,paper clips,1.0,competing,single,s_sh_09_1.jpg,Student,,,sub-51
Desktop or Laptop,Windows 10,Chrome 138.0.0.0,1920x1080,1920x911,Temporal Distance Task,cb_01,38.0,temp_dist_trial,num_items,zn7si1,1.0,response,2_ITEM,1397.200000001496,1384.7000000000116,1397.200000001496,1397.200000001496,1384.7000000000116,1397.200000001496,1.0,0.0,0.0,,Click Response,2_count,5.0,object-49,temp_dist_trial,38.0,s_sh_15_1,student_shared,usb drive,1.0,competing,paired,s_sh_15_1.jpg,Student,,,sub-51
Desktop or Laptop,Windows 10,Chrome 138.0.0.0,1920x1080,1920x911,Temporal Distance Task,cb_01,38.0,temp_dist_trial,dist_items,qkpkxw,2.0,info,,2.800000002986053,0.0,2.800000002986053,2.800000002986053,0.0,2.800000002986053,1.0,0.0,0.0,,Slider,Slider,4.0,object-56,temp_dist_trial,38.0,s_sh_15_1,student_shared,usb drive,1.0,competing,paired,s_sh_15_1.jpg,Student,,,sub-51
Desktop or Laptop,Windows 10,Chrome 138.0.0.0,1920x1080,1920x911,Temporal Distance Task,cb_01,38.0,temp_dist_trial,dist_items,qkpkxw,2.0,continue,,3056.0000000059667,3053.1000000000067,3056.0000000059667,3056.0000000059667,3053.1000000000067,3056.0000000059667,1.0,0.0,0.0,,Click To Continue,Next button,7.0,object-60,temp_dist_trial,38.0,s_sh_15_1,student_shared,usb drive,1.0,competing,paired,s_sh_15_1.jpg,Student,,,sub-51
Desktop or Laptop,Windows 10,Chrome 138.0.0.0,1920x1080,1920x911,Temporal Distance Task,cb_01,38.0,temp_dist_trial,dist_items,qkpkxw,2.0,response,74,1985.5,3053.1000000000067,3058.6000000000067,1985.5,3053.1000000000067,3058.6000000000067,1.0,1073.1000000000058,0.0,,Slider,Slider,4.0,object-56,temp_dist_trial,38.0,s_sh_15_1,student_shared,usb drive,1.0,competing,paired,s_sh_15_1.jpg,Student,,,sub-51
Desktop or Laptop,Windows 10,Chrome 138.0.0.0,1920x1080,1920x911,Temporal Distance Task,cb_01,39.0,temp_dist_trial,num_items,zn7si1,1.0,response,2_ITEM,1945.0,1935.1000000000056,1945.0,1945.0,1935.1000000000056,1945.0,1.0,0.0,0.0,,Click Response,2_count,5.0,object-49,temp_dist_trial,39.0,s_a_11_1,student_art,clapperboard,1.0,unique,paired,s_a_11_1.jpg,Student,,,sub-51
Desktop or Laptop,Windows 10,Chrome 138.0.0.0,1920x1080,1920x911,Temporal Distance Task,cb_01,39.0,temp_dist_trial,dist_items,qkpkxw,2.0,info,,2.600000005972106,0.0,2.600000005972106,2.600000005972106,0.0,2.600000005972106,1.0,0.0,0.0,,Slider,Slider,4.0,object-56,temp_dist_trial,39.0,s_a_11_1,student_art,clapperboard,1.0,unique,paired,s_a_11_1.jpg,Student,,,sub-51
Desktop or Laptop,Windows 10,Chrome 138.0.0.0,1920x1080,1920x911,Temporal Distance Task,cb_01,39.0,temp_dist_trial,dist_items,qkpkxw,2.0,continue,,1571.6000000059719,1568.3000000000175,1571.6000000059719,1571.6000000059719,1568.3000000000175,1571.6000000059719,1.0,0.0,0.0,,Click To Continue,Next button,7.0,object-60,temp_dist_trial,39.0,s_a_11_1,student_art,clapperboard,1.0,unique,paired,s_a_11_1.jpg,Student,,,sub-51
Desktop or Laptop,Windows 10,Chrome 138.0.0.0,1920x1080,1920x911,Temporal Distance Task,cb_01,39.0,temp_dist_trial,dist_items,qkpkxw,2.0,response,37,768.0,1568.3000000000175,1571.8000000015018,768.0,1568.3000000000175,1571.8000000015018,1.0,803.8000000015018,0.0,,Slider,Slider,4.0,object-56,temp_dist_trial,39.0,s_a_11_1,student_art,clapperboard,1.0,unique,paired,s_a_11_1.jpg,Student,,,sub-51
Desktop or Laptop,Windows 10,Chrome 138.0.0.0,1920x1080,1920x911,Temporal Distance Task,cb_01,40.0,temp_dist_trial,num_items,zn7si1,1.0,response,2_ITEM,2171.1000000029744,2168.7999999999884,2171.1000000029744,2171.1000000029744,2168.7999999999884,2171.1000000029744,1.0,0.0,0.0,,Click Response,2_count,5.0,object-49,temp_dist_trial,40.0,s_sh_21_1,student_shared,file holder,1.0,competing,paired,s_sh_21_1.jpg,Student,,,sub-51
Desktop or Laptop,Windows 10,Chrome 138.0.0.0,1920x1080,1920x911,Temporal Distance Task,cb_01,40.0,temp_dist_trial,dist_items,qkpkxw,2.0,info,,2.6000000029744115,0.0,2.6000000029744115,2.6000000029744115,0.0,2.6000000029744115,1.0,0.0,0.0,,Slider,Slider,4.0,object-56,temp_dist_trial,40.0,s_sh_21_1,student_shared,file holder,1.0,competing,paired,s_sh_21_1.jpg,Student,,,sub-51
Desktop or Laptop,Windows 10,Chrome 138.0.0.0,1920x1080,1920x911,Temporal Distance Task,cb_01,40.0,temp_dist_trial,dist_items,qkpkxw,2.0,continue,,1604.2000000044645,1601.6999999999825,1604.2000000044645,1604.2000000044645,1601.6999999999825,1604.2000000044645,1.0,0.0,0.0,,Click To Continue,Next button,7.0,object-60,temp_dist_trial,40.0,s_sh_21_1,student_shared,file holder,1.0,competing,paired,s_sh_21_1.jpg,Student,,,sub-51
Desktop or Laptop,Windows 10,Chrome 138.0.0.0,1920x1080,1920x911,Temporal Distance Task,cb_01,40.0,temp_dist_trial,dist_items,qkpkxw,2.0,response,64,817.6999999999823,1601.6999999999825,1604.5000000014843,817.6999999999823,1601.6999999999825,1604.5000000014843,1.0,786.8000000015018,0.0,,Slider,Slider,4.0,object-56,temp_dist_trial,40.0,s_sh_21_1,student_shared,file holder,1.0,competing,paired,s_sh_21_1.jpg,Student,,,sub-51
Desktop or Laptop,Windows 10,Chrome 138.0.0.0,1920x1080,1920x911,Temporal Distance Task,cb_01,41.0,temp_dist_trial,num_items,zn7si1,1.0,response,1_ITEM,1717.7000000000116,1702.4000000000233,1717.7000000000116,1717.7000000000116,1702.4000000000233,1717.7000000000116,1.0,0.0,0.0,,Click Response,1_count,3.0,object-46,temp_dist_trial,41.0,s_sh_05_1,student_shared,laptop,1.0,competing,paired,s_sh_05_1.jpg,Student,,,sub-51
Desktop or Laptop,Windows 10,Chrome 138.0.0.0,1920x1080,1920x911,Temporal Distance Task,cb_01,42.0,temp_dist_trial,num_items,zn7si1,1.0,response,1_ITEM,1180.9000000029919,1168.0,1180.9000000029919,1180.9000000029919,1168.0,1180.9000000029919,1.0,0.0,0.0,,Click Response,1_count,3.0,object-46,temp_dist_trial,42.0,s_s_10_1,student_stem,3d molecule,1.0,unique,single,s_s_10_1.jpg,Student,,,sub-51
Desktop or Laptop,Windows 10,Chrome 138.0.0.0,1920x1080,1920x911,Temporal Distance Task,cb_01,43.0,temp_dist_trial,num_items,zn7si1,1.0,response,1_ITEM,922.3000000015018,918.2000000000116,922.3000000015018,922.3000000015018,918.2000000000116,922.3000000015018,1.0,0.0,0.0,,Click Response,1_count,3.0,object-46,temp_dist_trial,43.0,s_s_08_1,student_stem,soldering iron,1.0,unique,single,s_s_08_1.jpg,Student,,,sub-51
Desktop or Laptop,Windows 10,Chrome 138.0.0.0,1920x1080,1920x911,Temporal Distance Task,cb_01,44.0,temp_dist_trial,num_items,zn7si1,1.0,response,1_ITEM,1608.0000000044822,1601.0,1608.0000000044822,1608.0000000044822,1601.0,1608.0000000044822,1.0,0.0,0.0,,Click Response,1_count,3.0,object-46,temp_dist_trial,44.0,s_sh_18_1,student_shared,wall calendar,1.0,competing,single,s_sh_18_1.jpg,Student,,,sub-51
Desktop or Laptop,Windows 10,Chrome 138.0.0.0,1920x1080,1920x911,Temporal Distance Task,cb_01,45.0,temp_dist_trial,num_items,zn7si1,1.0,response,1_ITEM,1059.800000002986,1051.1000000000058,1059.800000002986,1059.800000002986,1051.1000000000058,1059.800000002986,1.0,0.0,0.0,,Click Response,1_count,3.0,object-46,temp_dist_trial,45.0,s_s_15_1,student_stem,jumper cables,1.0,unique,single,s_s_15_1.jpg,Student,,,sub-51
Desktop or Laptop,Windows 10,Chrome 138.0.0.0,1920x1080,1920x911,Temporal Distance Task,cb_01,46.0,temp_dist_trial,num_items,zn7si1,1.0,response,2_ITEM,2370.600000005972,2369.200000000012,2370.600000005972,2370.600000005972,2369.200000000012,2370.600000005972,1.0,0.0,0.0,,Click Response,2_count,5.0,object-49,temp_dist_trial,46.0,s_a_17_1,student_art,microphone,1.0,unique,paired,s_a_17_1.jpg,Student,,,sub-51
Desktop or Laptop,Windows 10,Chrome 138.0.0.0,1920x1080,1920x911,Temporal Distance Task,cb_01,46.0,temp_dist_trial,dist_items,qkpkxw,2.0,info,,2.3999999999941792,0.0,2.3999999999941792,2.3999999999941792,0.0,2.3999999999941792,1.0,0.0,0.0,,Slider,Slider,4.0,object-56,temp_dist_trial,46.0,s_a_17_1,student_art,microphone,1.0,unique,paired,s_a_17_1.jpg,Student,,,sub-51
Desktop or Laptop,Windows 10,Chrome 138.0.0.0,1920x1080,1920x911,Temporal Distance Task,cb_01,46.0,temp_dist_trial,dist_items,qkpkxw,2.0,continue,,1805.1000000029746,1801.7999999999884,1805.1000000029746,1805.1000000029746,1801.7999999999884,1805.1000000029746,1.0,0.0,0.0,,Click To Continue,Next button,7.0,object-60,temp_dist_trial,46.0,s_a_17_1,student_art,microphone,1.0,unique,paired,s_a_17_1.jpg,Student,,,sub-51
Desktop or Laptop,Windows 10,Chrome 138.0.0.0,1920x1080,1920x911,Temporal Distance Task,cb_01,46.0,temp_dist_trial,dist_items,qkpkxw,2.0,response,71,684.0,1801.7999999999884,1805.3000000059546,684.0,1801.7999999999884,1805.3000000059546,1.0,1121.3000000059546,0.0,,Slider,Slider,4.0,object-56,temp_dist_trial,46.0,s_a_17_1,student_art,microphone,1.0,unique,paired,s_a_17_1.jpg,Student,,,sub-51
Desktop or Laptop,Windows 10,Chrome 138.0.0.0,1920x1080,1920x911,Temporal Distance Task,cb_01,47.0,temp_dist_trial,num_items,zn7si1,1.0,response,2_ITEM,1408.1000000000058,1401.3000000000175,1408.1000000000058,1408.1000000000058,1401.3000000000175,1408.1000000000058,1.0,0.0,0.0,,Click Response,2_count,5.0,object-49,temp_dist_trial,47.0,s_a_16_1,student_art,piano,1.0,unique,paired,s_a_16_1.jpg,Student,,,sub-51
Desktop or Laptop,Windows 10,Chrome 138.0.0.0,1920x1080,1920x911,Temporal Distance Task,cb_01,47.0,temp_dist_trial,dist_items,qkpkxw,2.0,info,,2.5,0.0,2.5,2.5,0.0,2.5,1.0,0.0,0.0,,Slider,Slider,4.0,object-56,temp_dist_trial,47.0,s_a_16_1,student_art,piano,1.0,unique,paired,s_a_16_1.jpg,Student,,,sub-51
Desktop or Laptop,Windows 10,Chrome 138.0.0.0,1920x1080,1920x911,Temporal Distance Task,cb_01,47.0,temp_dist_trial,dist_items,qkpkxw,2.0,continue,,1530.7000000029807,1518.1000000000058,1530.7000000029807,1530.7000000029807,1518.1000000000058,1530.7000000029807,1.0,0.0,0.0,,Click To Continue,Next button,7.0,object-60,temp_dist_trial,47.0,s_a_16_1,student_art,piano,1.0,unique,paired,s_a_16_1.jpg,Student,,,sub-51
Desktop or Laptop,Windows 10,Chrome 138.0.0.0,1920x1080,1920x911,Temporal Distance Task,cb_01,47.0,temp_dist_trial,dist_items,qkpkxw,2.0,response,65,784.2999999999884,1518.1000000000058,1531.0,784.2999999999884,1518.1000000000058,1531.0,1.0,746.7000000000116,0.0,,Slider,Slider,4.0,object-56,temp_dist_trial,47.0,s_a_16_1,student_art,piano,1.0,unique,paired,s_a_16_1.jpg,Student,,,sub-51
Desktop or Laptop,Windows 10,Chrome 138.0.0.0,1920x1080,1920x911,Temporal Distance Task,cb_01,48.0,temp_dist_trial,num_items,zn7si1,1.0,response,1_ITEM,1383.6000000029746,1368.2999999999886,1383.6000000029746,1383.6000000029746,1368.2999999999886,1383.6000000029746,1.0,0.0,0.0,,Click Response,1_count,3.0,object-46,temp_dist_trial,48.0,s_sh_01_1,student_shared,notebook,1.0,competing,single,s_sh_01_1.jpg,Student,,,sub-51
Desktop or Laptop,Windows 10,Chrome 138.0.0.0,1920x1080,1920x911,Temporal Distance Task,cb_01,2.0,temp_eventStart,Screen 1,dgtyxe,1.0,continue,,8069.40000000596,8058.0,8069.40000000596,8069.40000000596,8058.0,8069.40000000596,1.0,0.0,0.0,,Click To Continue,Next Button,3.0,object-43,temp_eventStart,,,Travel,,,,,,,,,sub-51
Desktop or Laptop,Windows 10,Chrome 138.0.0.0,1920x1080,1920x911,Temporal Distance Task,cb_01,49.0,temp_dist_trial,num_items,zn7si1,1.0,response,1_ITEM,1237.0,1235.2000000000114,1237.0,1237.0,1235.2000000000114,1237.0,1.0,0.0,0.0,,Click Response,1_count,3.0,object-46,temp_dist_trial,1.0,t_s_02_1,travel_shared,water bottle,1.0,competing,paired,t_s_02_1.jpg,Travel,,,sub-51
Desktop or Laptop,Windows 10,Chrome 138.0.0.0,1920x1080,1920x911,Temporal Distance Task,cb_01,50.0,temp_dist_trial,num_items,zn7si1,1.0,response,2_ITEM,1693.4000000059605,1684.2999999999884,1693.4000000059605,1693.4000000059605,1684.2999999999884,1693.4000000059605,1.0,0.0,0.0,,Click Response,2_count,5.0,object-49,temp_dist_trial,2.0,t_m_18_1,travel_Miami,waterproof tote,1.0,unique,paired,t_m_18_1.jpg,Travel,,,sub-51
Desktop or Laptop,Windows 10,Chrome 138.0.0.0,1920x1080,1920x911,Temporal Distance Task,cb_01,50.0,temp_dist_trial,dist_items,qkpkxw,2.0,info,,2.4000000014784746,0.0,2.4000000014784746,2.4000000014784746,0.0,2.4000000014784746,1.0,0.0,0.0,,Slider,Slider,4.0,object-56,temp_dist_trial,2.0,t_m_18_1,travel_Miami,waterproof tote,1.0,unique,paired,t_m_18_1.jpg,Travel,,,sub-51
Desktop or Laptop,Windows 10,Chrome 138.0.0.0,1920x1080,1920x911,Temporal Distance Task,cb_01,50.0,temp_dist_trial,dist_items,qkpkxw,2.0,continue,,2289.7000000059493,2285.3999999999937,2289.7000000059493,2289.7000000059493,2285.3999999999937,2289.7000000059493,1.0,0.0,0.0,,Click To Continue,Next button,7.0,object-60,temp_dist_trial,2.0,t_m_18_1,travel_Miami,waterproof tote,1.0,unique,paired,t_m_18_1.jpg,Travel,,,sub-51
Desktop or Laptop,Windows 10,Chrome 138.0.0.0,1920x1080,1920x911,Temporal Distance Task,cb_01,50.0,temp_dist_trial,dist_items,qkpkxw,2.0,response,73,1034.5,2285.3999999999937,2290.000000002969,1034.5,2285.3999999999937,2290.000000002969,1.0,1255.5000000029684,0.0,,Slider,Slider,4.0,object-56,temp_dist_trial,2.0,t_m_18_1,travel_Miami,waterproof tote,1.0,unique,paired,t_m_18_1.jpg,Travel,,,sub-51
Desktop or Laptop,Windows 10,Chrome 138.0.0.0,1920x1080,1920x911,Temporal Distance Task,cb_01,51.0,temp_dist_trial,num_items,zn7si1,1.0,response,1_ITEM,1311.3999999999942,1301.5,1311.3999999999942,1311.3999999999942,1301.5,1311.3999999999942,1.0,0.0,0.0,,Click Response,1_count,3.0,object-46,temp_dist_trial,3.0,t_s_01_1,travel_shared,fanny pack,1.0,competing,single,t_s_01_1.jpg,Travel,,,sub-51
Desktop or Laptop,Windows 10,Chrome 138.0.0.0,1920x1080,1920x911,Temporal Distance Task,cb_01,52.0,temp_dist_trial,num_items,zn7si1,1.0,response,1_ITEM,1177.7999999999886,1168.5,1177.7999999999886,1177.7999999999886,1168.5,1177.7999999999886,1.0,0.0,0.0,,Click Response,1_count,3.0,object-46,temp_dist_trial,4.0,t_s_12_1,travel_shared,clear toiletry bag,1.0,competing,paired,t_s_12_1.jpg,Travel,,,sub-51
Desktop or Laptop,Windows 10,Chrome 138.0.0.0,1920x1080,1920x911,Temporal Distance Task,cb_01,53.0,temp_dist_trial,num_items,zn7si1,1.0,response,2_ITEM,1396.0,1384.1000000000058,1396.0,1396.0,1384.1000000000058,1396.0,1.0,0.0,0.0,,Click Response,2_count,5.0,object-49,temp_dist_trial,5.0,t_s_06_1,travel_shared,luggage,1.0,competing,paired,t_s_06_1.jpg,Travel,,,sub-51
Desktop or Laptop,Windows 10,Chrome 138.0.0.0,1920x1080,1920x911,Temporal Distance Task,cb_01,53.0,temp_dist_trial,dist_items,qkpkxw,2.0,info,,2.4000000029918738,0.0,2.4000000029918738,2.4000000029918738,0.0,2.4000000029918738,1.0,0.0,0.0,,Slider,Slider,4.0,object-56,temp_dist_trial,5.0,t_s_06_1,travel_shared,luggage,1.0,competing,paired,t_s_06_1.jpg,Travel,,,sub-51
Desktop or Laptop,Windows 10,Chrome 138.0.0.0,1920x1080,1920x911,Temporal Distance Task,cb_01,53.0,temp_dist_trial,dist_items,qkpkxw,2.0,continue,,1437.6000000059719,1434.8000000000175,1437.6000000059719,1437.6000000059719,1434.8000000000175,1437.6000000059719,1.0,0.0,0.0,,Click To Continue,Next button,7.0,object-60,temp_dist_trial,5.0,t_s_06_1,travel_shared,luggage,1.0,competing,paired,t_s_06_1.jpg,Travel,,,sub-51
Desktop or Laptop,Windows 10,Chrome 138.0.0.0,1920x1080,1920x911,Temporal Distance Task,cb_01,53.0,temp_dist_trial,dist_items,qkpkxw,2.0,response,64,700.6000000000058,1434.8000000000175,1437.9000000029919,700.6000000000058,1434.8000000000175,1437.9000000029919,1.0,737.3000000029858,0.0,,Slider,Slider,4.0,object-56,temp_dist_trial,5.0,t_s_06_1,travel_shared,luggage,1.0,competing,paired,t_s_06_1.jpg,Travel,,,sub-51
Desktop or Laptop,Windows 10,Chrome 138.0.0.0,1920x1080,1920x911,Temporal Distance Task,cb_01,54.0,temp_dist_trial,num_items,zn7si1,1.0,response,2_ITEM,2030.7000000044645,2018.6000000000056,2030.7000000044645,2030.7000000044645,2018.6000000000056,2030.7000000044645,1.0,0.0,0.0,,Click Response,2_count,5.0,object-49,temp_dist_trial,6.0,t_i_20_1,travel_Iceland,lantern,1.0,unique,paired,t_i_20_1.jpg,Travel,,,sub-51
Desktop or Laptop,Windows 10,Chrome 138.0.0.0,1920x1080,1920x911,Temporal Distance Task,cb_01,54.0,temp_dist_trial,dist_items,qkpkxw,2.0,info,,2.9000000044761687,0.0,2.9000000044761687,2.9000000044761687,0.0,2.9000000044761687,1.0,0.0,0.0,,Slider,Slider,4.0,object-56,temp_dist_trial,6.0,t_i_20_1,travel_Iceland,lantern,1.0,unique,paired,t_i_20_1.jpg,Travel,,,sub-51
Desktop or Laptop,Windows 10,Chrome 138.0.0.0,1920x1080,1920x911,Temporal Distance Task,cb_01,54.0,temp_dist_trial,dist_items,qkpkxw,2.0,continue,,1613.300000002986,1601.6000000000058,1613.300000002986,1613.300000002986,1601.6000000000058,1613.300000002986,1.0,0.0,0.0,,Click To Continue,Next button,7.0,object-60,temp_dist_trial,6.0,t_i_20_1,travel_Iceland,lantern,1.0,unique,paired,t_i_20_1.jpg,Travel,,,sub-51
Desktop or Laptop,Windows 10,Chrome 138.0.0.0,1920x1080,1920x911,Temporal Distance Task,cb_01,54.0,temp_dist_trial,dist_items,qkpkxw,2.0,response,26,667.5,1601.6000000000058,1613.700000001496,667.5,1601.6000000000058,1613.700000001496,1.0,946.2000000014959,0.0,,Slider,Slider,4.0,object-56,temp_dist_trial,6.0,t_i_20_1,travel_Iceland,lantern,1.0,unique,paired,t_i_20_1.jpg,Travel,,,sub-51
Desktop or Laptop,Windows 10,Chrome 138.0.0.0,1920x1080,1920x911,Temporal Distance Task,cb_01,55.0,temp_dist_trial,num_items,zn7si1,1.0,response,num_miss,3003.0,3003.0,3003.0,3003.0,3003.0,3003.0,1.0,0.0,0.0,num_miss_tag,Time Limit,screen,0.0,screen,temp_dist_trial,7.0,t_s_16_1,travel_shared,chapstick,1.0,competing,paired,t_s_16_1.jpg,Travel,,,sub-51
Desktop or Laptop,Windows 10,Chrome 138.0.0.0,1920x1080,1920x911,Temporal Distance Task,cb_01,56.0,temp_dist_trial,num_items,zn7si1,1.0,response,1_ITEM,1501.3999999999942,1484.8999999999942,1501.3999999999942,1501.3999999999942,1484.8999999999942,1501.3999999999942,1.0,0.0,0.0,,Click Response,1_count,3.0,object-46,temp_dist_trial,8.0,t_s_07_1,travel_shared,phone charger cable,1.0,competing,paired,t_s_07_1.jpg,Travel,,,sub-51
Desktop or Laptop,Windows 10,Chrome 138.0.0.0,1920x1080,1920x911,Temporal Distance Task,cb_01,57.0,temp_dist_trial,num_items,zn7si1,1.0,response,2_ITEM,1254.4000000029919,1251.1000000000058,1254.4000000029919,1254.4000000029919,1251.1000000000058,1254.4000000029919,1.0,0.0,0.0,,Click Response,2_count,5.0,object-49,temp_dist_trial,9.0,t_m_17_1,travel_Miami,water gun,1.0,unique,paired,t_m_17_1.jpg,Travel,,,sub-51
Desktop or Laptop,Windows 10,Chrome 138.0.0.0,1920x1080,1920x911,Temporal Distance Task,cb_01,57.0,temp_dist_trial,dist_items,qkpkxw,2.0,info,,2.4000000014784746,0.0,2.4000000014784746,2.4000000014784746,0.0,2.4000000014784746,1.0,0.0,0.0,,Slider,Slider,4.0,object-56,temp_dist_trial,9.0,t_m_17_1,travel_Miami,water gun,1.0,unique,paired,t_m_17_1.jpg,Travel,,,sub-51
Desktop or Laptop,Windows 10,Chrome 138.0.0.0,1920x1080,1920x911,Temporal Distance Task,cb_01,57.0,temp_dist_trial,dist_items,qkpkxw,2.0,continue,,1898.1000000044587,1885.0999999999767,1898.1000000044587,1898.1000000044587,1885.0999999999767,1898.1000000044587,1.0,0.0,0.0,,Click To Continue,Next button,7.0,object-60,temp_dist_trial,9.0,t_m_17_1,travel_Miami,water gun,1.0,unique,paired,t_m_17_1.jpg,Travel,,,sub-51
Desktop or Laptop,Windows 10,Chrome 138.0.0.0,1920x1080,1920x911,Temporal Distance Task,cb_01,57.0,temp_dist_trial,dist_items,qkpkxw,2.0,response,75,683.8999999999943,1885.0999999999767,1898.4000000014785,683.8999999999943,1885.0999999999767,1898.4000000014785,1.0,1214.5000000014845,0.0,,Slider,Slider,4.0,object-56,temp_dist_trial,9.0,t_m_17_1,travel_Miami,water gun,1.0,unique,paired,t_m_17_1.jpg,Travel,,,sub-51
Desktop or Laptop,Windows 10,Chrome 138.0.0.0,1920x1080,1920x911,Temporal Distance Task,cb_01,58.0,temp_dist_trial,num_items,zn7si1,1.0,response,1_ITEM,1279.9000000029919,1268.0,1279.9000000029919,1279.9000000029919,1268.0,1279.9000000029919,1.0,0.0,0.0,,Click Response,1_count,3.0,object-46,temp_dist_trial,10.0,t_m_03_1,travel_Miami,wetsuit,1.0,unique,single,t_m_03_1.jpg,Travel,,,sub-51
Desktop or Laptop,Windows 10,Chrome 138.0.0.0,1920x1080,1920x911,Temporal Distance Task,cb_01,59.0,temp_dist_trial,num_items,zn7si1,1.0,response,1_ITEM,1199.7000000044645,1184.5,1199.7000000044645,1199.7000000044645,1184.5,1199.7000000044645,1.0,0.0,0.0,,Click Response,1_count,3.0,object-46,temp_dist_trial,11.0,t_i_16_1,travel_Iceland,skis,1.0,unique,single,t_i_16_1.jpg,Travel,,,sub-51
Desktop or Laptop,Windows 10,Chrome 138.0.0.0,1920x1080,1920x911,Temporal Distance Task,cb_01,60.0,temp_dist_trial,num_items,zn7si1,1.0,response,2_ITEM,993.8000000029859,984.2000000000116,993.8000000029859,993.8000000029859,984.2000000000116,993.8000000029859,1.0,0.0,0.0,,Click Response,2_count,5.0,object-49,temp_dist_trial,12.0,t_s_09_1,travel_shared,wallet,1.0,competing,paired,t_s_09_1.jpg,Travel,,,sub-51
Desktop or Laptop,Windows 10,Chrome 138.0.0.0,1920x1080,1920x911,Temporal Distance Task,cb_01,60.0,temp_dist_trial,dist_items,qkpkxw,2.0,info,,2.700000005948823,0.0,2.700000005948823,2.700000005948823,0.0,2.700000005948823,1.0,0.0,0.0,,Slider,Slider,4.0,object-56,temp_dist_trial,12.0,t_s_09_1,travel_shared,wallet,1.0,competing,paired,t_s_09_1.jpg,Travel,,,sub-51
Desktop or Laptop,Windows 10,Chrome 138.0.0.0,1920x1080,1920x911,Temporal Distance Task,cb_01,60.0,temp_dist_trial,dist_items,qkpkxw,2.0,continue,,1466.0000000029684,1451.0999999999767,1466.0000000029684,1466.0000000029684,1451.0999999999767,1466.0000000029684,1.0,0.0,0.0,,Click To Continue,Next button,7.0,object-60,temp_dist_trial,12.0,t_s_09_1,travel_shared,wallet,1.0,competing,paired,t_s_09_1.jpg,Travel,,,sub-51
Desktop or Laptop,Windows 10,Chrome 138.0.0.0,1920x1080,1920x911,Temporal Distance Task,cb_01,60.0,temp_dist_trial,dist_items,qkpkxw,2.0,response,64,734.0,1451.0999999999767,1466.2999999999884,734.0,1451.0999999999767,1466.2999999999884,1.0,732.2999999999884,0.0,,Slider,Slider,4.0,object-56,temp_dist_trial,12.0,t_s_09_1,travel_shared,wallet,1.0,competing,paired,t_s_09_1.jpg,Travel,,,sub-51
Desktop or Laptop,Windows 10,Chrome 138.0.0.0,1920x1080,1920x911,Temporal Distance Task,cb_01,61.0,temp_dist_trial,num_items,zn7si1,1.0,response,1_ITEM,879.000000004482,867.7000000000116,879.000000004482,879.000000004482,867.7000000000116,879.000000004482,1.0,0.0,0.0,,Click Response,1_count,3.0,object-46,temp_dist_trial,13.0,t_s_13_1,travel_shared,contact lens case,1.0,competing,single,t_s_13_1.jpg,Travel,,,sub-51
Desktop or Laptop,Windows 10,Chrome 138.0.0.0,1920x1080,1920x911,Temporal Distance Task,cb_01,62.0,temp_dist_trial,num_items,zn7si1,1.0,response,1_ITEM,825.1000000059721,817.9000000000232,825.1000000059721,825.1000000059721,817.9000000000232,825.1000000059721,1.0,0.0,0.0,,Click Response,1_count,3.0,object-46,temp_dist_trial,14.0,t_i_18_1,travel_Iceland,ski mask,1.0,unique,single,t_i_18_1.jpg,Travel,,,sub-51
Desktop or Laptop,Windows 10,Chrome 138.0.0.0,1920x1080,1920x911,Temporal Distance Task,cb_01,63.0,temp_dist_trial,num_items,zn7si1,1.0,response,2_ITEM,1135.000000004482,1134.0,1135.000000004482,1135.000000004482,1134.0,1135.000000004482,1.0,0.0,0.0,,Click Response,2_count,5.0,object-49,temp_dist_trial,15.0,t_s_05_1,travel_shared,neck pillow,1.0,competing,paired,t_s_05_1.jpg,Travel,,,sub-51
Desktop or Laptop,Windows 10,Chrome 138.0.0.0,1920x1080,1920x911,Temporal Distance Task,cb_01,63.0,temp_dist_trial,dist_items,qkpkxw,2.0,info,,3.200000002980232,0.0,3.200000002980232,3.200000002980232,0.0,3.200000002980232,1.0,0.0,0.0,,Slider,Slider,4.0,object-56,temp_dist_trial,15.0,t_s_05_1,travel_shared,neck pillow,1.0,competing,paired,t_s_05_1.jpg,Travel,,,sub-51
Desktop or Laptop,Windows 10,Chrome 138.0.0.0,1920x1080,1920x911,Temporal Distance Task,cb_01,63.0,temp_dist_trial,dist_items,qkpkxw,2.0,continue,,1710.6000000014901,1701.7999999999884,1710.6000000014901,1710.6000000014901,1701.7999999999884,1710.6000000014901,1.0,0.0,0.0,,Click To Continue,Next button,7.0,object-60,temp_dist_trial,15.0,t_s_05_1,travel_shared,neck pillow,1.0,competing,paired,t_s_05_1.jpg,Travel,,,sub-51
Desktop or Laptop,Windows 10,Chrome 138.0.0.0,1920x1080,1920x911,Temporal Distance Task,cb_01,63.0,temp_dist_trial,dist_items,qkpkxw,2.0,response,38,867.6000000000058,1701.7999999999884,1710.8000000044706,867.6000000000058,1701.7999999999884,1710.8000000044706,1.0,843.2000000044645,0.0,,Slider,Slider,4.0,object-56,temp_dist_trial,15.0,t_s_05_1,travel_shared,neck pillow,1.0,competing,paired,t_s_05_1.jpg,Travel,,,sub-51
Desktop or Laptop,Windows 10,Chrome 138.0.0.0,1920x1080,1920x911,Temporal Distance Task,cb_01,64.0,temp_dist_trial,num_items,zn7si1,1.0,response,2_ITEM,1124.8000000015018,1117.8000000000177,1124.8000000015018,1124.8000000015018,1117.8000000000177,1124.8000000015018,1.0,0.0,0.0,,Click Response,2_count,5.0,object-49,temp_dist_trial,16.0,t_i_19_1,travel_Iceland,rope,1.0,unique,paired,t_i_19_1.jpg,Travel,,,sub-51
Desktop or Laptop,Windows 10,Chrome 138.0.0.0,1920x1080,1920x911,Temporal Distance Task,cb_01,64.0,temp_dist_trial,dist_items,qkpkxw,2.0,info,,2.7000000000116415,0.0,2.7000000000116415,2.7000000000116415,0.0,2.7000000000116415,1.0,0.0,0.0,,Slider,Slider,4.0,object-56,temp_dist_trial,16.0,t_i_19_1,travel_Iceland,rope,1.0,unique,paired,t_i_19_1.jpg,Travel,,,sub-51
Desktop or Laptop,Windows 10,Chrome 138.0.0.0,1920x1080,1920x911,Temporal Distance Task,cb_01,64.0,temp_dist_trial,dist_items,qkpkxw,2.0,continue,,1356.8000000015018,1351.4000000000233,1356.8000000015018,1356.8000000015018,1351.4000000000233,1356.8000000015018,1.0,0.0,0.0,,Click To Continue,Next button,7.0,object-60,temp_dist_trial,16.0,t_i_19_1,travel_Iceland,rope,1.0,unique,paired,t_i_19_1.jpg,Travel,,,sub-51
Desktop or Laptop,Windows 10,Chrome 138.0.0.0,1920x1080,1920x911,Temporal Distance Task,cb_01,64.0,temp_dist_trial,dist_items,qkpkxw,2.0,response,57,650.9000000000233,1351.4000000000233,1357.1000000059719,650.9000000000233,1351.4000000000233,1357.1000000059719,1.0,706.2000000059488,0.0,,Slider,Slider,4.0,object-56,temp_dist_trial,16.0,t_i_19_1,travel_Iceland,rope,1.0,unique,paired,t_i_19_1.jpg,Travel,,,sub-51
Desktop or Laptop,Windows 10,Chrome 138.0.0.0,1920x1080,1920x911,Temporal Distance Task,cb_01,65.0,temp_dist_trial,num_items,zn7si1,1.0,response,1_ITEM,1820.5000000029688,1818.5999999999767,1820.5000000029688,1820.5000000029688,1818.5999999999767,1820.5000000029688,1.0,0.0,0.0,,Click Response,1_count,3.0,object-46,temp_dist_trial,17.0,t_i_08_1,travel_Iceland,thick socks,1.0,unique,paired,t_i_08_1.jpg,Travel,,,sub-51
Desktop or Laptop,Windows 10,Chrome 138.0.0.0,1920x1080,1920x911,Temporal Distance Task,cb_01,66.0,temp_dist_trial,num_items,zn7si1,1.0,response,2_ITEM,1076.700000001496,1067.7000000000116,1076.700000001496,1076.700000001496,1067.7000000000116,1076.700000001496,1.0,0.0,0.0,,Click Response,2_count,5.0,object-49,temp_dist_trial,18.0,t_m_01_1,travel_Miami,sandals,1.0,unique,paired,t_m_01_1.jpg,Travel,,,sub-51
Desktop or Laptop,Windows 10,Chrome 138.0.0.0,1920x1080,1920x911,Temporal Distance Task,cb_01,66.0,temp_dist_trial,dist_items,qkpkxw,2.0,info,,2.5,0.0,2.5,2.5,0.0,2.5,1.0,0.0,0.0,,Slider,Slider,4.0,object-56,temp_dist_trial,18.0,t_m_01_1,travel_Miami,sandals,1.0,unique,paired,t_m_01_1.jpg,Travel,,,sub-51
Desktop or Laptop,Windows 10,Chrome 138.0.0.0,1920x1080,1920x911,Temporal Distance Task,cb_01,66.0,temp_dist_trial,dist_items,qkpkxw,2.0,continue,,2078.5,2068.700000000012,2078.5,2078.5,2068.700000000012,2078.5,1.0,0.0,0.0,,Click To Continue,Next button,7.0,object-60,temp_dist_trial,18.0,t_m_01_1,travel_Miami,sandals,1.0,unique,paired,t_m_01_1.jpg,Travel,,,sub-51
Desktop or Laptop,Windows 10,Chrome 138.0.0.0,1920x1080,1920x911,Temporal Distance Task,cb_01,66.0,temp_dist_trial,dist_items,qkpkxw,2.0,response,64,1151.0,2068.700000000012,2078.8000000044703,1151.0,2068.700000000012,2078.8000000044703,1.0,927.8000000044703,0.0,,Slider,Slider,4.0,object-56,temp_dist_trial,18.0,t_m_01_1,travel_Miami,sandals,1.0,unique,paired,t_m_01_1.jpg,Travel,,,sub-51
Desktop or Laptop,Windows 10,Chrome 138.0.0.0,1920x1080,1920x911,Temporal Distance Task,cb_01,67.0,temp_dist_trial,num_items,zn7si1,1.0,response,1_ITEM,1662.0000000029684,1651.5999999999767,1662.0000000029684,1662.0000000029684,1651.5999999999767,1662.0000000029684,1.0,0.0,0.0,,Click Response,1_count,3.0,object-46,temp_dist_trial,19.0,t_i_14_1,travel_Iceland,snow pants,1.0,unique,single,t_i_14_1.jpg,Travel,,,sub-51
Desktop or Laptop,Windows 10,Chrome 138.0.0.0,1920x1080,1920x911,Temporal Distance Task,cb_01,68.0,temp_dist_trial,num_items,zn7si1,1.0,response,2_ITEM,1130.0,1117.7999999999884,1130.0,1130.0,1117.7999999999884,1130.0,1.0,0.0,0.0,,Click Response,2_count,5.0,object-49,temp_dist_trial,20.0,t_s_22_1,travel_shared,belt,1.0,competing,paired,t_s_22_1.jpg,Travel,,,sub-51
Desktop or Laptop,Windows 10,Chrome 138.0.0.0,1920x1080,1920x911,Temporal Distance Task,cb_01,68.0,temp_dist_trial,dist_items,qkpkxw,2.0,info,,3.8000000044703484,0.0,3.8000000044703484,3.8000000044703484,0.0,3.8000000044703484,1.0,0.0,0.0,,Slider,Slider,4.0,object-56,temp_dist_trial,20.0,t_s_22_1,travel_shared,belt,1.0,competing,paired,t_s_22_1.jpg,Travel,,,sub-51
Desktop or Laptop,Windows 10,Chrome 138.0.0.0,1920x1080,1920x911,Temporal Distance Task,cb_01,68.0,temp_dist_trial,dist_items,qkpkxw,2.0,continue,,2476.0,2469.1000000000063,2476.0,2476.0,2469.1000000000063,2476.0,1.0,0.0,0.0,,Click To Continue,Next button,7.0,object-60,temp_dist_trial,20.0,t_s_22_1,travel_shared,belt,1.0,competing,paired,t_s_22_1.jpg,Travel,,,sub-51
Desktop or Laptop,Windows 10,Chrome 138.0.0.0,1920x1080,1920x911,Temporal Distance Task,cb_01,68.0,temp_dist_trial,dist_items,qkpkxw,2.0,response,35,1318.5,2469.1000000000063,2476.4000000059605,1318.5,2469.1000000000063,2476.4000000059605,1.0,1157.9000000059605,0.0,,Slider,Slider,4.0,object-56,temp_dist_trial,20.0,t_s_22_1,travel_shared,belt,1.0,competing,paired,t_s_22_1.jpg,Travel,,,sub-51
Desktop or Laptop,Windows 10,Chrome 138.0.0.0,1920x1080,1920x911,Temporal Distance Task,cb_01,69.0,temp_dist_trial,num_items,zn7si1,1.0,response,1_ITEM,881.7000000044645,867.6000000000058,881.7000000044645,881.7000000044645,867.6000000000058,881.7000000044645,1.0,0.0,0.0,,Click Response,1_count,3.0,object-46,temp_dist_trial,21.0,t_i_13_1,travel_Iceland,sleeping bag,1.0,unique,paired,t_i_13_1.jpg,Travel,,,sub-51
Desktop or Laptop,Windows 10,Chrome 138.0.0.0,1920x1080,1920x911,Temporal Distance Task,cb_01,70.0,temp_dist_trial,num_items,zn7si1,1.0,response,1_ITEM,846.6000000014903,833.5,846.6000000014903,846.6000000014903,833.5,846.6000000014903,1.0,0.0,0.0,,Click Response,1_count,3.0,object-46,temp_dist_trial,22.0,t_s_24_1,travel_shared,ear plugs,1.0,competing,single,t_s_24_1.jpg,Travel,,,sub-51
Desktop or Laptop,Windows 10,Chrome 138.0.0.0,1920x1080,1920x911,Temporal Distance Task,cb_01,71.0,temp_dist_trial,num_items,zn7si1,1.0,response,2_ITEM,1696.6000000000058,1685.0,1696.6000000000058,1696.6000000000058,1685.0,1696.6000000000058,1.0,0.0,0.0,,Click Response,2_count,5.0,object-49,temp_dist_trial,23.0,t_i_10_1,travel_Iceland,trekking poles,1.0,unique,paired,t_i_10_1.jpg,Travel,,,sub-51
Desktop or Laptop,Windows 10,Chrome 138.0.0.0,1920x1080,1920x911,Temporal Distance Task,cb_01,71.0,temp_dist_trial,dist_items,qkpkxw,2.0,info,,2.800000005954644,0.0,2.800000005954644,2.800000005954644,0.0,2.800000005954644,1.0,0.0,0.0,,Slider,Slider,4.0,object-56,temp_dist_trial,23.0,t_i_10_1,travel_Iceland,trekking poles,1.0,unique,paired,t_i_10_1.jpg,Travel,,,sub-51
Desktop or Laptop,Windows 10,Chrome 138.0.0.0,1920x1080,1920x911,Temporal Distance Task,cb_01,71.0,temp_dist_trial,dist_items,qkpkxw,2.0,continue,,1949.3000000059546,1935.1000000000056,1949.3000000059546,1949.3000000059546,1935.1000000000056,1949.3000000059546,1.0,0.0,0.0,,Click To Continue,Next button,7.0,object-60,temp_dist_trial,23.0,t_i_10_1,travel_Iceland,trekking poles,1.0,unique,paired,t_i_10_1.jpg,Travel,,,sub-51
Desktop or Laptop,Windows 10,Chrome 138.0.0.0,1920x1080,1920x911,Temporal Distance Task,cb_01,71.0,temp_dist_trial,dist_items,qkpkxw,2.0,response,74,900.8999999999942,1935.1000000000056,1949.5000000014843,900.8999999999942,1935.1000000000056,1949.5000000014843,1.0,1048.6000000014901,0.0,,Slider,Slider,4.0,object-56,temp_dist_trial,23.0,t_i_10_1,travel_Iceland,trekking poles,1.0,unique,paired,t_i_10_1.jpg,Travel,,,sub-51
Desktop or Laptop,Windows 10,Chrome 138.0.0.0,1920x1080,1920x911,Temporal Distance Task,cb_01,72.0,temp_dist_trial,num_items,zn7si1,1.0,response,1_ITEM,957.1000000044588,951.0,957.1000000044588,957.1000000044588,951.0,957.1000000044588,1.0,0.0,0.0,,Click Response,1_count,3.0,object-46,temp_dist_trial,24.0,t_i_05_1,travel_Iceland,hiking boots,1.0,unique,paired,t_i_05_1.jpg,Travel,,,sub-51
Desktop or Laptop,Windows 10,Chrome 138.0.0.0,1920x1080,1920x911,Temporal Distance Task,cb_01,73.0,temp_dist_trial,num_items,zn7si1,1.0,response,1_ITEM,1779.0,1768.6000000000058,1779.0,1779.0,1768.6000000000058,1779.0,1.0,0.0,0.0,,Click Response,1_count,3.0,object-46,temp_dist_trial,25.0,t_s_10_1,travel_shared,luggage lock,1.0,competing,single,t_s_10_1.jpg,Travel,,,sub-51
Desktop or Laptop,Windows 10,Chrome 138.0.0.0,1920x1080,1920x911,Temporal Distance Task,cb_01,74.0,temp_dist_trial,num_items,zn7si1,1.0,response,1_ITEM,1340.2999999999886,1334.5999999999767,1340.2999999999886,1340.2999999999886,1334.5999999999767,1340.2999999999886,1.0,0.0,0.0,,Click Response,1_count,3.0,object-46,temp_dist_trial,26.0,t_m_07_1,travel_Miami,sunglasses,1.0,unique,single,t_m_07_1.jpg,Travel,,,sub-51
Desktop or Laptop,Windows 10,Chrome 138.0.0.0,1920x1080,1920x911,Temporal Distance Task,cb_01,75.0,temp_dist_trial,num_items,zn7si1,1.0,response,2_ITEM,1605.9000000044766,1601.3000000000175,1605.9000000044766,1605.9000000044766,1601.3000000000175,1605.9000000044766,1.0,0.0,0.0,,Click Response,2_count,5.0,object-49,temp_dist_trial,27.0,t_i_09_1,travel_Iceland,ear muffs,1.0,unique,paired,t_i_09_1.jpg,Travel,,,sub-51
Desktop or Laptop,Windows 10,Chrome 138.0.0.0,1920x1080,1920x911,Temporal Distance Task,cb_01,75.0,temp_dist_trial,dist_items,qkpkxw,2.0,info,,2.8000000044703484,0.0,2.8000000044703484,2.8000000044703484,0.0,2.8000000044703484,1.0,0.0,0.0,,Slider,Slider,4.0,object-56,temp_dist_trial,27.0,t_i_09_1,travel_Iceland,ear muffs,1.0,unique,paired,t_i_09_1.jpg,Travel,,,sub-51
Desktop or Laptop,Windows 10,Chrome 138.0.0.0,1920x1080,1920x911,Temporal Distance Task,cb_01,75.0,temp_dist_trial,dist_items,qkpkxw,2.0,continue,,2820.4000000059614,2819.5,2820.4000000059614,2820.4000000059614,2819.5,2820.4000000059614,1.0,0.0,0.0,,Click To Continue,Next button,7.0,object-60,temp_dist_trial,27.0,t_i_09_1,travel_Iceland,ear muffs,1.0,unique,paired,t_i_09_1.jpg,Travel,,,sub-51
Desktop or Laptop,Windows 10,Chrome 138.0.0.0,1920x1080,1920x911,Temporal Distance Task,cb_01,75.0,temp_dist_trial,dist_items,qkpkxw,2.0,response,64,1034.6000000000058,2819.5,2820.600000001489,1034.6000000000058,2819.5,2820.600000001489,1.0,1786.0000000014843,0.0,,Slider,Slider,4.0,object-56,temp_dist_trial,27.0,t_i_09_1,travel_Iceland,ear muffs,1.0,unique,paired,t_i_09_1.jpg,Travel,,,sub-51
Desktop or Laptop,Windows 10,Chrome 138.0.0.0,1920x1080,1920x911,Temporal Distance Task,cb_01,76.0,temp_dist_trial,num_items,zn7si1,1.0,response,1_ITEM,1558.7000000029807,1551.6000000000058,1558.7000000029807,1558.7000000029807,1551.6000000000058,1558.7000000029807,1.0,0.0,0.0,,Click Response,1_count,3.0,object-46,temp_dist_trial,28.0,t_m_06_1,travel_Miami,handheld fan,1.0,unique,single,t_m_06_1.jpg,Travel,,,sub-51
Desktop or Laptop,Windows 10,Chrome 138.0.0.0,1920x1080,1920x911,Temporal Distance Task,cb_01,77.0,temp_dist_trial,num_items,zn7si1,1.0,response,1_ITEM,2075.2000000059493,2068.6999999999825,2075.2000000059493,2075.2000000059493,2068.6999999999825,2075.2000000059493,1.0,0.0,0.0,,Click Response,1_count,3.0,object-46,temp_dist_trial,29.0,t_s_20_1,travel_shared,travel pill case,1.0,competing,paired,t_s_20_1.jpg,Travel,,,sub-51
Desktop or Laptop,Windows 10,Chrome 138.0.0.0,1920x1080,1920x911,Temporal Distance Task,cb_01,78.0,temp_dist_trial,num_items,zn7si1,1.0,response,1_ITEM,965.5000000014844,951.6000000000058,965.5000000014844,965.5000000014844,951.6000000000058,965.5000000014844,1.0,0.0,0.0,,Click Response,1_count,3.0,object-46,temp_dist_trial,30.0,t_s_23_1,travel_shared,ball cap,1.0,competing,single,t_s_23_1.jpg,Travel,,,sub-51
Desktop or Laptop,Windows 10,Chrome 138.0.0.0,1920x1080,1920x911,Temporal Distance Task,cb_01,79.0,temp_dist_trial,num_items,zn7si1,1.0,response,1_ITEM,1529.0000000029684,1517.3999999999942,1529.0000000029684,1529.0000000029684,1517.3999999999942,1529.0000000029684,1.0,0.0,0.0,,Click Response,1_count,3.0,object-46,temp_dist_trial,31.0,t_s_14_1,travel_shared,hand sanitizer,1.0,competing,paired,t_s_14_1.jpg,Travel,,,sub-51
Desktop or Laptop,Windows 10,Chrome 138.0.0.0,1920x1080,1920x911,Temporal Distance Task,cb_01,80.0,temp_dist_trial,num_items,zn7si1,1.0,response,2_ITEM,1088.1000000014901,1084.2999999999884,1088.1000000014901,1088.1000000014901,1084.2999999999884,1088.1000000014901,1.0,0.0,0.0,,Click Response,2_count,5.0,object-49,temp_dist_trial,32.0,t_s_21_1,travel_shared,umbrella,1.0,competing,paired,t_s_21_1.jpg,Travel,,,sub-51
Desktop or Laptop,Windows 10,Chrome 138.0.0.0,1920x1080,1920x911,Temporal Distance Task,cb_01,80.0,temp_dist_trial,dist_items,qkpkxw,2.0,info,,2.4000000059604645,0.0,2.4000000059604645,2.4000000059604645,0.0,2.4000000059604645,1.0,0.0,0.0,,Slider,Slider,4.0,object-56,temp_dist_trial,32.0,t_s_21_1,travel_shared,umbrella,1.0,competing,paired,t_s_21_1.jpg,Travel,,,sub-51
Desktop or Laptop,Windows 10,Chrome 138.0.0.0,1920x1080,1920x911,Temporal Distance Task,cb_01,80.0,temp_dist_trial,dist_items,qkpkxw,2.0,continue,,1430.7000000029807,1418.0,1430.7000000029807,1430.7000000029807,1418.0,1430.7000000029807,1.0,0.0,0.0,,Click To Continue,Next button,7.0,object-60,temp_dist_trial,32.0,t_s_21_1,travel_shared,umbrella,1.0,competing,paired,t_s_21_1.jpg,Travel,,,sub-51
Desktop or Laptop,Windows 10,Chrome 138.0.0.0,1920x1080,1920x911,Temporal Distance Task,cb_01,80.0,temp_dist_trial,dist_items,qkpkxw,2.0,response,85,533.8999999999942,1418.0,1430.9000000059605,533.8999999999942,1418.0,1430.9000000059605,1.0,897.0000000059662,0.0,,Slider,Slider,4.0,object-56,temp_dist_trial,32.0,t_s_21_1,travel_shared,umbrella,1.0,competing,paired,t_s_21_1.jpg,Travel,,,sub-51
Desktop or Laptop,Windows 10,Chrome 138.0.0.0,1920x1080,1920x911,Temporal Distance Task,cb_01,81.0,temp_dist_trial,num_items,zn7si1,1.0,response,1_ITEM,1121.5,1117.9000000000233,1121.5,1121.5,1117.9000000000233,1121.5,1.0,0.0,0.0,,Click Response,1_count,3.0,object-46,temp_dist_trial,33.0,t_s_08_1,travel_shared,hand lotion,1.0,competing,paired,t_s_08_1.jpg,Travel,,,sub-51
Desktop or Laptop,Windows 10,Chrome 138.0.0.0,1920x1080,1920x911,Temporal Distance Task,cb_01,82.0,temp_dist_trial,num_items,zn7si1,1.0,response,2_ITEM,1476.4000000000233,1468.2000000000116,1476.4000000000233,1476.4000000000233,1468.2000000000116,1476.4000000000233,1.0,0.0,0.0,,Click Response,2_count,5.0,object-49,temp_dist_trial,34.0,t_i_15_1,travel_Iceland,compass,1.0,unique,paired,t_i_15_1.jpg,Travel,,,sub-51
Desktop or Laptop,Windows 10,Chrome 138.0.0.0,1920x1080,1920x911,Temporal Distance Task,cb_01,82.0,temp_dist_trial,dist_items,qkpkxw,2.0,info,,2.8000000044703484,0.0,2.8000000044703484,2.8000000044703484,0.0,2.8000000044703484,1.0,0.0,0.0,,Slider,Slider,4.0,object-56,temp_dist_trial,34.0,t_i_15_1,travel_Iceland,compass,1.0,unique,paired,t_i_15_1.jpg,Travel,,,sub-51
Desktop or Laptop,Windows 10,Chrome 138.0.0.0,1920x1080,1920x911,Temporal Distance Task,cb_01,82.0,temp_dist_trial,dist_items,qkpkxw,2.0,continue,,1923.10000000149,1918.5999999999767,1923.10000000149,1923.10000000149,1918.5999999999767,1923.10000000149,1.0,0.0,0.0,,Click To Continue,Next button,7.0,object-60,temp_dist_trial,34.0,t_i_15_1,travel_Iceland,compass,1.0,unique,paired,t_i_15_1.jpg,Travel,,,sub-51
Desktop or Laptop,Windows 10,Chrome 138.0.0.0,1920x1080,1920x911,Temporal Distance Task,cb_01,82.0,temp_dist_trial,dist_items,qkpkxw,2.0,response,73,784.0999999999768,1918.5999999999767,1923.4000000059605,784.0999999999768,1918.5999999999767,1923.4000000059605,1.0,1139.3000000059835,0.0,,Slider,Slider,4.0,object-56,temp_dist_trial,34.0,t_i_15_1,travel_Iceland,compass,1.0,unique,paired,t_i_15_1.jpg,Travel,,,sub-51
Desktop or Laptop,Windows 10,Chrome 138.0.0.0,1920x1080,1920x911,Temporal Distance Task,cb_01,83.0,temp_dist_trial,num_items,zn7si1,1.0,response,1_ITEM,1194.6000000030035,1184.4000000000233,1194.6000000030035,1194.6000000030035,1184.4000000000233,1194.6000000030035,1.0,0.0,0.0,,Click Response,1_count,3.0,object-46,temp_dist_trial,35.0,t_s_03_1,travel_shared,portable charger,1.0,competing,paired,t_s_03_1.jpg,Travel,,,sub-51
Desktop or Laptop,Windows 10,Chrome 138.0.0.0,1920x1080,1920x911,Temporal Distance Task,cb_01,84.0,temp_dist_trial,num_items,zn7si1,1.0,response,1_ITEM,889.5999999999768,884.0,889.5999999999768,889.5999999999768,884.0,889.5999999999768,1.0,0.0,0.0,,Click Response,1_count,3.0,object-46,temp_dist_trial,36.0,t_s_19_1,travel_shared,pajamas,1.0,competing,single,t_s_19_1.jpg,Travel,,,sub-51
Desktop or Laptop,Windows 10,Chrome 138.0.0.0,1920x1080,1920x911,Temporal Distance Task,cb_01,85.0,temp_dist_trial,num_items,zn7si1,1.0,response,1_ITEM,1293.4000000014785,1284.7000000000114,1293.4000000014785,1293.4000000014785,1284.7000000000114,1293.4000000014785,1.0,0.0,0.0,,Click Response,1_count,3.0,object-46,temp_dist_trial,37.0,t_i_04_1,travel_Iceland,portable camping stove,1.0,unique,single,t_i_04_1.jpg,Travel,,,sub-51
Desktop or Laptop,Windows 10,Chrome 138.0.0.0,1920x1080,1920x911,Temporal Distance Task,cb_01,86.0,temp_dist_trial,num_items,zn7si1,1.0,response,2_ITEM,1217.7999999999886,1201.2000000000114,1217.7999999999886,1217.7999999999886,1201.2000000000114,1217.7999999999886,1.0,0.0,0.0,,Click Response,2_count,5.0,object-49,temp_dist_trial,38.0,t_s_17_1,travel_shared,toothbrush,1.0,competing,paired,t_s_17_1.jpg,Travel,,,sub-51
Desktop or Laptop,Windows 10,Chrome 138.0.0.0,1920x1080,1920x911,Temporal Distance Task,cb_01,86.0,temp_dist_trial,dist_items,qkpkxw,2.0,info,,2.9000000000232835,0.0,2.9000000000232835,2.9000000000232835,0.0,2.9000000000232835,1.0,0.0,0.0,,Slider,Slider,4.0,object-56,temp_dist_trial,38.0,t_s_17_1,travel_shared,toothbrush,1.0,competing,paired,t_s_17_1.jpg,Travel,,,sub-51
Desktop or Laptop,Windows 10,Chrome 138.0.0.0,1920x1080,1920x911,Temporal Distance Task,cb_01,86.0,temp_dist_trial,dist_items,qkpkxw,2.0,continue,,3362.7000000044936,3353.4000000000237,3362.7000000044936,3362.7000000044936,3353.4000000000237,3362.7000000044936,1.0,0.0,0.0,,Click To Continue,Next button,7.0,object-60,temp_dist_trial,38.0,t_s_17_1,travel_shared,toothbrush,1.0,competing,paired,t_s_17_1.jpg,Travel,,,sub-51
Desktop or Laptop,Windows 10,Chrome 138.0.0.0,1920x1080,1920x911,Temporal Distance Task,cb_01,86.0,temp_dist_trial,dist_items,qkpkxw,2.0,response,80,2586.0,3353.4000000000237,3363.000000001513,2586.0,3353.4000000000237,3363.000000001513,1.0,777.0000000015134,0.0,,Slider,Slider,4.0,object-56,temp_dist_trial,38.0,t_s_17_1,travel_shared,toothbrush,1.0,competing,paired,t_s_17_1.jpg,Travel,,,sub-51
Desktop or Laptop,Windows 10,Chrome 138.0.0.0,1920x1080,1920x911,Temporal Distance Task,cb_01,87.0,temp_dist_trial,num_items,zn7si1,1.0,response,2_ITEM,1489.3000000044706,1484.7000000000116,1489.3000000044706,1489.3000000044706,1484.7000000000116,1489.3000000044706,1.0,0.0,0.0,,Click Response,2_count,5.0,object-49,temp_dist_trial,39.0,t_m_16_1,travel_Miami,flippers,1.0,unique,paired,t_m_16_1.jpg,Travel,,,sub-51
Desktop or Laptop,Windows 10,Chrome 138.0.0.0,1920x1080,1920x911,Temporal Distance Task,cb_01,87.0,temp_dist_trial,dist_items,qkpkxw,2.0,info,,2.5,0.0,2.5,2.5,0.0,2.5,1.0,0.0,0.0,,Slider,Slider,4.0,object-56,temp_dist_trial,39.0,t_m_16_1,travel_Miami,flippers,1.0,unique,paired,t_m_16_1.jpg,Travel,,,sub-51
Desktop or Laptop,Windows 10,Chrome 138.0.0.0,1920x1080,1920x911,Temporal Distance Task,cb_01,87.0,temp_dist_trial,dist_items,qkpkxw,2.0,continue,,2274.4000000059605,2268.9000000000233,2274.4000000059605,2274.4000000059605,2268.9000000000233,2274.4000000059605,1.0,0.0,0.0,,Click To Continue,Next button,7.0,object-60,temp_dist_trial,39.0,t_m_16_1,travel_Miami,flippers,1.0,unique,paired,t_m_16_1.jpg,Travel,,,sub-51
Desktop or Laptop,Windows 10,Chrome 138.0.0.0,1920x1080,1920x911,Temporal Distance Task,cb_01,87.0,temp_dist_trial,dist_items,qkpkxw,2.0,response,76,1452.0999999999767,2268.9000000000233,2274.8000000044703,1452.0999999999767,2268.9000000000233,2274.8000000044703,1.0,822.7000000044935,0.0,,Slider,Slider,4.0,object-56,temp_dist_trial,39.0,t_m_16_1,travel_Miami,flippers,1.0,unique,paired,t_m_16_1.jpg,Travel,,,sub-51
Desktop or Laptop,Windows 10,Chrome 138.0.0.0,1920x1080,1920x911,Temporal Distance Task,cb_01,88.0,temp_dist_trial,num_items,zn7si1,1.0,response,2_ITEM,1005.4000000044472,1001.1999999999533,1005.4000000044472,1005.4000000044472,1001.1999999999533,1005.4000000044472,1.0,0.0,0.0,,Click Response,2_count,5.0,object-49,temp_dist_trial,40.0,t_s_11_1,travel_shared,eye mask,1.0,competing,paired,t_s_11_1.jpg,Travel,,,sub-51
Desktop or Laptop,Windows 10,Chrome 138.0.0.0,1920x1080,1920x911,Temporal Distance Task,cb_01,88.0,temp_dist_trial,dist_items,qkpkxw,2.0,info,,2.8000000059837475,0.0,2.8000000059837475,2.8000000059837475,0.0,2.8000000059837475,1.0,0.0,0.0,,Slider,Slider,4.0,object-56,temp_dist_trial,40.0,t_s_11_1,travel_shared,eye mask,1.0,competing,paired,t_s_11_1.jpg,Travel,,,sub-51
Desktop or Laptop,Windows 10,Chrome 138.0.0.0,1920x1080,1920x911,Temporal Distance Task,cb_01,88.0,temp_dist_trial,dist_items,qkpkxw,2.0,continue,,1120.5000000015134,1118.100000000035,1120.5000000015134,1120.5000000015134,1118.100000000035,1120.5000000015134,1.0,0.0,0.0,,Click To Continue,Next button,7.0,object-60,temp_dist_trial,40.0,t_s_11_1,travel_shared,eye mask,1.0,competing,paired,t_s_11_1.jpg,Travel,,,sub-51
Desktop or Laptop,Windows 10,Chrome 138.0.0.0,1920x1080,1920x911,Temporal Distance Task,cb_01,88.0,temp_dist_trial,dist_items,qkpkxw,2.0,response,58,400.7000000000117,1118.100000000035,1120.7000000044936,400.7000000000117,1118.100000000035,1120.7000000044936,1.0,720.000000004482,0.0,,Slider,Slider,4.0,object-56,temp_dist_trial,40.0,t_s_11_1,travel_shared,eye mask,1.0,competing,paired,t_s_11_1.jpg,Travel,,,sub-51
Desktop or Laptop,Windows 10,Chrome 138.0.0.0,1920x1080,1920x911,Temporal Distance Task,cb_01,89.0,temp_dist_trial,num_items,zn7si1,1.0,response,1_ITEM,1047.5000000029686,1034.0999999999767,1047.5000000029686,1047.5000000029686,1034.0999999999767,1047.5000000029686,1.0,0.0,0.0,,Click Response,1_count,3.0,object-46,temp_dist_trial,41.0,t_s_04_1,travel_shared,instant camera,1.0,competing,single,t_s_04_1.jpg,Travel,,,sub-51
Desktop or Laptop,Windows 10,Chrome 138.0.0.0,1920x1080,1920x911,Temporal Distance Task,cb_01,90.0,temp_dist_trial,num_items,zn7si1,1.0,response,2_ITEM,1850.0,1835.2000000000119,1850.0,1850.0,1835.2000000000119,1850.0,1.0,0.0,0.0,,Click Response,2_count,5.0,object-49,temp_dist_trial,42.0,t_m_12_1,travel_Miami,foldable pail and shovel,1.0,unique,paired,t_m_12_1.jpg,Travel,,,sub-51
Desktop or Laptop,Windows 10,Chrome 138.0.0.0,1920x1080,1920x911,Temporal Distance Task,cb_01,90.0,temp_dist_trial,dist_items,qkpkxw,2.0,info,,2.4000000014784746,0.0,2.4000000014784746,2.4000000014784746,0.0,2.4000000014784746,1.0,0.0,0.0,,Slider,Slider,4.0,object-56,temp_dist_trial,42.0,t_m_12_1,travel_Miami,foldable pail and shovel,1.0,unique,paired,t_m_12_1.jpg,Travel,,,sub-51
Desktop or Laptop,Windows 10,Chrome 138.0.0.0,1920x1080,1920x911,Temporal Distance Task,cb_01,90.0,temp_dist_trial,dist_items,qkpkxw,2.0,continue,,2239.1000000044587,2235.2999999999884,2239.1000000044587,2239.1000000044587,2235.2999999999884,2239.1000000044587,1.0,0.0,0.0,,Click To Continue,Next button,7.0,object-60,temp_dist_trial,42.0,t_m_12_1,travel_Miami,foldable pail and shovel,1.0,unique,paired,t_m_12_1.jpg,Travel,,,sub-51
Desktop or Laptop,Windows 10,Chrome 138.0.0.0,1920x1080,1920x911,Temporal Distance Task,cb_01,90.0,temp_dist_trial,dist_items,qkpkxw,2.0,response,78,1401.2000000000116,2235.2999999999884,2239.4000000014785,1401.2000000000116,2235.2999999999884,2239.4000000014785,1.0,838.2000000014667,0.0,,Slider,Slider,4.0,object-56,temp_dist_trial,42.0,t_m_12_1,travel_Miami,foldable pail and shovel,1.0,unique,paired,t_m_12_1.jpg,Travel,,,sub-51
Desktop or Laptop,Windows 10,Chrome 138.0.0.0,1920x1080,1920x911,Temporal Distance Task,cb_01,91.0,temp_dist_trial,num_items,zn7si1,1.0,response,1_ITEM,1052.7000000029802,1051.0999999999767,1052.7000000029802,1052.7000000029802,1051.0999999999767,1052.7000000029802,1.0,0.0,0.0,,Click Response,1_count,3.0,object-46,temp_dist_trial,43.0,t_m_19_1,travel_Miami,surfboard,1.0,unique,paired,t_m_19_1.jpg,Travel,,,sub-51
Desktop or Laptop,Windows 10,Chrome 138.0.0.0,1920x1080,1920x911,Temporal Distance Task,cb_01,92.0,temp_dist_trial,num_items,zn7si1,1.0,response,2_ITEM,1129.4000000029919,1117.7999999999884,1129.4000000029919,1129.4000000029919,1117.7999999999884,1129.4000000029919,1.0,0.0,0.0,,Click Response,2_count,5.0,object-49,temp_dist_trial,44.0,t_s_18_1,travel_shared,first aid kit,1.0,competing,paired,t_s_18_1.jpg,Travel,,,sub-51
Desktop or Laptop,Windows 10,Chrome 138.0.0.0,1920x1080,1920x911,Temporal Distance Task,cb_01,92.0,temp_dist_trial,dist_items,qkpkxw,2.0,info,,3.5000000044819903,0.0,3.5000000044819903,3.5000000044819903,0.0,3.5000000044819903,1.0,0.0,0.0,,Slider,Slider,4.0,object-56,temp_dist_trial,44.0,t_s_18_1,travel_shared,first aid kit,1.0,competing,paired,t_s_18_1.jpg,Travel,,,sub-51
Desktop or Laptop,Windows 10,Chrome 138.0.0.0,1920x1080,1920x911,Temporal Distance Task,cb_01,92.0,temp_dist_trial,dist_items,qkpkxw,2.0,continue,,1675.5000000044822,1668.2999999999884,1675.5000000044822,1675.5000000044822,1668.2999999999884,1675.5000000044822,1.0,0.0,0.0,,Click To Continue,Next button,7.0,object-60,temp_dist_trial,44.0,t_s_18_1,travel_shared,first aid kit,1.0,competing,paired,t_s_18_1.jpg,Travel,,,sub-51
Desktop or Laptop,Windows 10,Chrome 138.0.0.0,1920x1080,1920x911,Temporal Distance Task,cb_01,92.0,temp_dist_trial,dist_items,qkpkxw,2.0,response,65,934.5,1668.2999999999884,1678.2000000000116,934.5,1668.2999999999884,1678.2000000000116,1.0,743.7000000000116,0.0,,Slider,Slider,4.0,object-56,temp_dist_trial,44.0,t_s_18_1,travel_shared,first aid kit,1.0,competing,paired,t_s_18_1.jpg,Travel,,,sub-51
Desktop or Laptop,Windows 10,Chrome 138.0.0.0,1920x1080,1920x911,Temporal Distance Task,cb_01,93.0,temp_dist_trial,num_items,zn7si1,1.0,response,2_ITEM,1366.1000000030035,1351.5,1366.1000000030035,1366.1000000030035,1351.5,1366.1000000030035,1.0,0.0,0.0,,Click Response,2_count,5.0,object-49,temp_dist_trial,45.0,t_m_15_1,travel_Miami,shorts,1.0,unique,paired,t_m_15_1.jpg,Travel,,,sub-51
Desktop or Laptop,Windows 10,Chrome 138.0.0.0,1920x1080,1920x911,Temporal Distance Task,cb_01,93.0,temp_dist_trial,dist_items,qkpkxw,2.0,info,,2.600000005972106,0.0,2.600000005972106,2.600000005972106,0.0,2.600000005972106,1.0,0.0,0.0,,Slider,Slider,4.0,object-56,temp_dist_trial,45.0,t_m_15_1,travel_Miami,shorts,1.0,unique,paired,t_m_15_1.jpg,Travel,,,sub-51
Desktop or Laptop,Windows 10,Chrome 138.0.0.0,1920x1080,1920x911,Temporal Distance Task,cb_01,93.0,temp_dist_trial,dist_items,qkpkxw,2.0,continue,,1254.4000000029919,1251.2000000000114,1254.4000000029919,1254.4000000029919,1251.2000000000114,1254.4000000029919,1.0,0.0,0.0,,Click To Continue,Next button,7.0,object-60,temp_dist_trial,45.0,t_m_15_1,travel_Miami,shorts,1.0,unique,paired,t_m_15_1.jpg,Travel,,,sub-51
Desktop or Laptop,Windows 10,Chrome 138.0.0.0,1920x1080,1920x911,Temporal Distance Task,cb_01,93.0,temp_dist_trial,dist_items,qkpkxw,2.0,response,62,467.7999999999884,1251.2000000000114,1254.6000000059719,467.7999999999884,1251.2000000000114,1254.6000000059719,1.0,786.8000000059837,0.0,,Slider,Slider,4.0,object-56,temp_dist_trial,45.0,t_m_15_1,travel_Miami,shorts,1.0,unique,paired,t_m_15_1.jpg,Travel,,,sub-51
Desktop or Laptop,Windows 10,Chrome 138.0.0.0,1920x1080,1920x911,Temporal Distance Task,cb_01,94.0,temp_dist_trial,num_items,zn7si1,1.0,response,1_ITEM,1660.6000000014901,1652.2999999999884,1660.6000000014901,1660.6000000014901,1652.2999999999884,1660.6000000014901,1.0,0.0,0.0,,Click Response,1_count,3.0,object-46,temp_dist_trial,46.0,t_s_15_1,travel_shared,luggage tag,1.0,competing,single,t_s_15_1.jpg,Travel,,,sub-51
Desktop or Laptop,Windows 10,Chrome 138.0.0.0,1920x1080,1920x911,Temporal Distance Task,cb_01,95.0,temp_dist_trial,num_items,zn7si1,1.0,response,2_ITEM,2228.400000004447,2218.899999999965,2228.400000004447,2228.400000004447,2218.899999999965,2228.400000004447,1.0,0.0,0.0,,Click Response,2_count,5.0,object-49,temp_dist_trial,47.0,t_m_02_1,travel_Miami,t-shirt,1.0,unique,paired,t_m_02_1.jpg,Travel,,,sub-51
Desktop or Laptop,Windows 10,Chrome 138.0.0.0,1920x1080,1920x911,Temporal Distance Task,cb_01,95.0,temp_dist_trial,dist_items,qkpkxw,2.0,info,,2.3000000059837475,0.0,2.3000000059837475,2.3000000059837475,0.0,2.3000000059837475,1.0,0.0,0.0,,Slider,Slider,4.0,object-56,temp_dist_trial,47.0,t_m_02_1,travel_Miami,t-shirt,1.0,unique,paired,t_m_02_1.jpg,Travel,,,sub-51
