Participant Device,Participant OS,Participant Browser,Participant Monitor Size,Participant Viewport Size,Task Name,Current Spreadsheet,Trial Number,Display,Screen,Screen ID,Screen Counter,Response Type,Response,Onset Time,Clock Time,Reaction Time,Absolute Onset Time,Absolute Clock Time,Absolute Reaction Time,Correct,Response Duration,Proportion,Tag,Component Name,Object Name,Object Number,Object ID,Spreadsheet: display,Spreadsheet: trial,Spreadsheet: stimulus_id,Spreadsheet: expected_goal,Spreadsheet: stimulus_name,Spreadsheet: c_group,Spreadsheet: condition,Spreadsheet: paired_status,Spreadsheet: stimulus_path,Spreadsheet: block_type,Manipulation: Spreadsheet,Store: enc_test_acc,sub_label
Desktop or Laptop,Windows 10,Chrome 137.0.0.0,1536x864,1536x864,Temporal Distance Task,$${counterbalance_group},,,,,,info,BEGIN,,,,,,,0.0,,,,,,,,,,,,,,,,,,,,sub-40
Desktop or Laptop,Windows 10,Chrome 137.0.0.0,1536x864,1536x864,Temporal Distance Task,cb_06,1.0,temp_instructions,intro_screen,3tnme7,1.0,continue,,6788.900000047684,6783.900000000002,6788.900000047684,6788.900000047684,6783.900000000002,6788.900000047684,1.0,0.0,0.0,,Click To Continue,Continue Button,4.0,object-29,temp_instructions,,,Travel,,,,,,,,,sub-40
Desktop or Laptop,Windows 10,Chrome 137.0.0.0,1536x864,1536x864,Temporal Distance Task,cb_06,1.0,temp_instructions,intro_screen_2,52v7ur,2.0,continue,,18898.600000071525,18884.9,18898.600000071525,18898.600000071525,18884.9,18898.600000071525,1.0,0.0,0.0,,Click To Continue,Continue Button,4.0,object-39,temp_instructions,,,Travel,,,,,,,,,sub-40
Desktop or Laptop,Windows 10,Chrome 137.0.0.0,1536x864,1536x864,Temporal Distance Task,cb_06,1.0,temp_instructions,intro_screen_3,i7lvwx,3.0,continue,,6174.900000000002,6167.400000000002,6174.900000000002,6174.900000000002,6167.400000000002,6174.900000000002,1.0,0.0,0.0,,Click To Continue,Continue Button,4.0,object-67,temp_instructions,,,Travel,,,,,,,,,sub-40
Desktop or Laptop,Windows 10,Chrome 137.0.0.0,1536x864,1536x864,Temporal Distance Task,cb_06,1.0,temp_instructions,test_q1,5ieqx1,4.0,response,choice_3,8686.300000071526,8683.800000000003,8686.300000071526,8686.300000071526,8683.800000000003,8686.300000071526,1.0,0.0,0.0,,Click Response,choice_3,5.0,object-345,temp_instructions,,,Travel,,,,,,,,,sub-40
Desktop or Laptop,Windows 10,Chrome 137.0.0.0,1536x864,1536x864,Temporal Distance Task,cb_06,1.0,temp_instructions,score_corr,7ilvjr,5.0,continue,,1147.5000000715227,1133.5999999999985,1147.5000000715227,1147.5000000715227,1133.5999999999985,1147.5000000715227,1.0,0.0,0.0,,Click To Continue,Continue Button,3.0,object-23,temp_instructions,,,Travel,,,,,,,,,sub-40
Desktop or Laptop,Windows 10,Chrome 137.0.0.0,1536x864,1536x864,Temporal Distance Task,cb_06,1.0,temp_eventStart,Screen 1,dgtyxe,1.0,continue,,1800.4000000715241,1783.9000000000015,1800.4000000715241,1800.4000000715241,1783.9000000000015,1800.4000000715241,1.0,0.0,0.0,,Click To Continue,Next Button,3.0,object-43,temp_eventStart,,,Travel,,,,,,,,,sub-40
Desktop or Laptop,Windows 10,Chrome 137.0.0.0,1536x864,1536x864,Temporal Distance Task,cb_06,1.0,temp_dist_trial,num_items,zn7si1,1.0,response,2_ITEM,1770.1999999999966,1766.5999999999985,1770.1999999999966,1770.1999999999966,1766.5999999999985,1770.1999999999966,1.0,0.0,0.0,,Click Response,2_count,5.0,object-49,temp_dist_trial,1.0,t_i_05_1,travel_Iceland,hiking boots,6.0,unique,single,t_i_05_1.jpg,Travel,,,sub-40
Desktop or Laptop,Windows 10,Chrome 137.0.0.0,1536x864,1536x864,Temporal Distance Task,cb_06,1.0,temp_dist_trial,dist_items,qkpkxw,2.0,info,,4.8000000000029095,0.0,4.8000000000029095,4.8000000000029095,0.0,4.8000000000029095,1.0,0.0,0.0,,Slider,Slider,4.0,object-56,temp_dist_trial,1.0,t_i_05_1,travel_Iceland,hiking boots,6.0,unique,single,t_i_05_1.jpg,Travel,,,sub-40
Desktop or Laptop,Windows 10,Chrome 137.0.0.0,1536x864,1536x864,Temporal Distance Task,cb_06,1.0,temp_dist_trial,dist_items,qkpkxw,2.0,continue,,3760.699999976161,3750.200000000005,3760.699999976161,3760.699999976161,3750.200000000005,3760.699999976161,1.0,0.0,0.0,,Click To Continue,Next button,7.0,object-60,temp_dist_trial,1.0,t_i_05_1,travel_Iceland,hiking boots,6.0,unique,single,t_i_05_1.jpg,Travel,,,sub-40
Desktop or Laptop,Windows 10,Chrome 137.0.0.0,1536x864,1536x864,Temporal Distance Task,cb_06,1.0,temp_dist_trial,dist_items,qkpkxw,2.0,response,64,1633.4000000000015,3750.200000000005,3761.699999976161,1633.4000000000015,3750.200000000005,3761.699999976161,1.0,2128.29999997616,0.0,,Slider,Slider,4.0,object-56,temp_dist_trial,1.0,t_i_05_1,travel_Iceland,hiking boots,6.0,unique,single,t_i_05_1.jpg,Travel,,,sub-40
Desktop or Laptop,Windows 10,Chrome 137.0.0.0,1536x864,1536x864,Temporal Distance Task,cb_06,2.0,temp_dist_trial,num_items,zn7si1,1.0,response,1_ITEM,2452.5999999999985,2450.199999999997,2452.5999999999985,2452.5999999999985,2450.199999999997,2452.5999999999985,1.0,0.0,0.0,,Click Response,1_count,3.0,object-46,temp_dist_trial,2.0,t_s_18_1,travel_shared,first aid kit,6.0,competing,single,t_s_18_1.jpg,Travel,,,sub-40
Desktop or Laptop,Windows 10,Chrome 137.0.0.0,1536x864,1536x864,Temporal Distance Task,cb_06,3.0,temp_dist_trial,num_items,zn7si1,1.0,response,2_ITEM,1677.1000000238419,1666.4000000000015,1677.1000000238419,1677.1000000238419,1666.4000000000015,1677.1000000238419,1.0,0.0,0.0,,Click Response,2_count,5.0,object-49,temp_dist_trial,3.0,t_s_13_1,travel_shared,contact lens case,6.0,competing,paired,t_s_13_1.jpg,Travel,,,sub-40
Desktop or Laptop,Windows 10,Chrome 137.0.0.0,1536x864,1536x864,Temporal Distance Task,cb_06,3.0,temp_dist_trial,dist_items,qkpkxw,2.0,info,,4.499999976156687,0.0,4.499999976156687,4.499999976156687,0.0,4.499999976156687,1.0,0.0,0.0,,Slider,Slider,4.0,object-56,temp_dist_trial,3.0,t_s_13_1,travel_shared,contact lens case,6.0,competing,paired,t_s_13_1.jpg,Travel,,,sub-40
Desktop or Laptop,Windows 10,Chrome 137.0.0.0,1536x864,1536x864,Temporal Distance Task,cb_06,3.0,temp_dist_trial,dist_items,qkpkxw,2.0,continue,,2811.999999976157,2800.199999999997,2811.999999976157,2811.999999976157,2800.199999999997,2811.999999976157,1.0,0.0,0.0,,Click To Continue,Next button,7.0,object-60,temp_dist_trial,3.0,t_s_13_1,travel_shared,contact lens case,6.0,competing,paired,t_s_13_1.jpg,Travel,,,sub-40
Desktop or Laptop,Windows 10,Chrome 137.0.0.0,1536x864,1536x864,Temporal Distance Task,cb_06,3.0,temp_dist_trial,dist_items,qkpkxw,2.0,response,42,1483.7999999999954,2800.199999999997,2812.400000071524,1483.7999999999954,2800.199999999997,2812.400000071524,1.0,1328.6000000715285,0.0,,Slider,Slider,4.0,object-56,temp_dist_trial,3.0,t_s_13_1,travel_shared,contact lens case,6.0,competing,paired,t_s_13_1.jpg,Travel,,,sub-40
Desktop or Laptop,Windows 10,Chrome 137.0.0.0,1536x864,1536x864,Temporal Distance Task,cb_06,4.0,temp_dist_trial,num_items,zn7si1,1.0,response,1_ITEM,1836.6000000476847,1833.8000000000034,1836.6000000476847,1836.6000000476847,1833.8000000000034,1836.6000000476847,1.0,0.0,0.0,,Click Response,1_count,3.0,object-46,temp_dist_trial,4.0,t_i_11_1,travel_Iceland,headlamp,6.0,unique,paired,t_i_11_1.jpg,Travel,,,sub-40
Desktop or Laptop,Windows 10,Chrome 137.0.0.0,1536x864,1536x864,Temporal Distance Task,cb_06,5.0,temp_dist_trial,num_items,zn7si1,1.0,response,1_ITEM,1307.9000000715241,1300.0999999999985,1307.9000000715241,1307.9000000715241,1300.0999999999985,1307.9000000715241,1.0,0.0,0.0,,Click Response,1_count,3.0,object-46,temp_dist_trial,5.0,t_s_07_1,travel_shared,phone charger cable,6.0,competing,single,t_s_07_1.jpg,Travel,,,sub-40
Desktop or Laptop,Windows 10,Chrome 137.0.0.0,1536x864,1536x864,Temporal Distance Task,cb_06,6.0,temp_dist_trial,num_items,zn7si1,1.0,response,2_ITEM,1648.1999999999966,1633.6999999999966,1648.1999999999966,1648.1999999999966,1633.6999999999966,1648.1999999999966,1.0,0.0,0.0,,Click Response,2_count,5.0,object-49,temp_dist_trial,6.0,t_i_12_1,travel_Iceland,tent,6.0,unique,paired,t_i_12_1.jpg,Travel,,,sub-40
Desktop or Laptop,Windows 10,Chrome 137.0.0.0,1536x864,1536x864,Temporal Distance Task,cb_06,6.0,temp_dist_trial,dist_items,qkpkxw,2.0,info,,4.400000023844768,0.0,4.400000023844768,4.400000023844768,0.0,4.400000023844768,1.0,0.0,0.0,,Slider,Slider,4.0,object-56,temp_dist_trial,6.0,t_i_12_1,travel_Iceland,tent,6.0,unique,paired,t_i_12_1.jpg,Travel,,,sub-40
Desktop or Laptop,Windows 10,Chrome 137.0.0.0,1536x864,1536x864,Temporal Distance Task,cb_06,6.0,temp_dist_trial,dist_items,qkpkxw,2.0,continue,,2960.400000023845,2950.400000000009,2960.400000023845,2960.400000023845,2950.400000000009,2960.400000023845,1.0,0.0,0.0,,Click To Continue,Next button,7.0,object-60,temp_dist_trial,6.0,t_i_12_1,travel_Iceland,tent,6.0,unique,paired,t_i_12_1.jpg,Travel,,,sub-40
Desktop or Laptop,Windows 10,Chrome 137.0.0.0,1536x864,1536x864,Temporal Distance Task,cb_06,6.0,temp_dist_trial,dist_items,qkpkxw,2.0,response,39,1100.1999999999969,2950.400000000009,2960.699999976161,1100.1999999999969,2950.400000000009,2960.699999976161,1.0,1860.499999976164,0.0,,Slider,Slider,4.0,object-56,temp_dist_trial,6.0,t_i_12_1,travel_Iceland,tent,6.0,unique,paired,t_i_12_1.jpg,Travel,,,sub-40
Desktop or Laptop,Windows 10,Chrome 137.0.0.0,1536x864,1536x864,Temporal Distance Task,cb_06,7.0,temp_dist_trial,num_items,zn7si1,1.0,response,1_ITEM,1475.7000000715198,1466.6999999999966,1475.7000000715198,1475.7000000715198,1466.6999999999966,1475.7000000715198,1.0,0.0,0.0,,Click Response,1_count,3.0,object-46,temp_dist_trial,7.0,t_m_02_1,travel_Miami,t-shirt,6.0,unique,single,t_m_02_1.jpg,Travel,,,sub-40
Desktop or Laptop,Windows 10,Chrome 137.0.0.0,1536x864,1536x864,Temporal Distance Task,cb_06,8.0,temp_dist_trial,num_items,zn7si1,1.0,response,2_ITEM,1033.1000000000058,1016.5,1033.1000000000058,1033.1000000000058,1016.5,1033.1000000000058,1.0,0.0,0.0,,Click Response,2_count,5.0,object-49,temp_dist_trial,8.0,t_s_19_1,travel_shared,pajamas,6.0,competing,paired,t_s_19_1.jpg,Travel,,,sub-40
Desktop or Laptop,Windows 10,Chrome 137.0.0.0,1536x864,1536x864,Temporal Distance Task,cb_06,8.0,temp_dist_trial,dist_items,qkpkxw,2.0,info,,4.500000023836037,0.0,4.500000023836037,4.500000023836037,0.0,4.500000023836037,1.0,0.0,0.0,,Slider,Slider,4.0,object-56,temp_dist_trial,8.0,t_s_19_1,travel_shared,pajamas,6.0,competing,paired,t_s_19_1.jpg,Travel,,,sub-40
Desktop or Laptop,Windows 10,Chrome 137.0.0.0,1536x864,1536x864,Temporal Distance Task,cb_06,8.0,temp_dist_trial,dist_items,qkpkxw,2.0,continue,,2842.7999999761523,2833.699999999997,2842.7999999761523,2842.7999999761523,2833.699999999997,2842.7999999761523,1.0,0.0,0.0,,Click To Continue,Next button,7.0,object-60,temp_dist_trial,8.0,t_s_19_1,travel_shared,pajamas,6.0,competing,paired,t_s_19_1.jpg,Travel,,,sub-40
Desktop or Laptop,Windows 10,Chrome 137.0.0.0,1536x864,1536x864,Temporal Distance Task,cb_06,8.0,temp_dist_trial,dist_items,qkpkxw,2.0,response,55,1350.0999999999913,2833.699999999997,2843.2999999761523,1350.0999999999913,2833.699999999997,2843.2999999761523,1.0,1493.1999999761608,0.0,,Slider,Slider,4.0,object-56,temp_dist_trial,8.0,t_s_19_1,travel_shared,pajamas,6.0,competing,paired,t_s_19_1.jpg,Travel,,,sub-40
Desktop or Laptop,Windows 10,Chrome 137.0.0.0,1536x864,1536x864,Temporal Distance Task,cb_06,9.0,temp_dist_trial,num_items,zn7si1,1.0,response,1_ITEM,1731.4000000476804,1716.8000000000034,1731.4000000476804,1731.4000000476804,1716.8000000000034,1731.4000000476804,1.0,0.0,0.0,,Click Response,1_count,3.0,object-46,temp_dist_trial,9.0,t_s_11_1,travel_shared,eye mask,6.0,competing,single,t_s_11_1.jpg,Travel,,,sub-40
Desktop or Laptop,Windows 10,Chrome 137.0.0.0,1536x864,1536x864,Temporal Distance Task,cb_06,10.0,temp_dist_trial,num_items,zn7si1,1.0,response,2_ITEM,1238.500000023836,1233.6999999999969,1238.500000023836,1238.500000023836,1233.6999999999969,1238.500000023836,1.0,0.0,0.0,,Click Response,2_count,5.0,object-49,temp_dist_trial,10.0,t_s_04_1,travel_shared,instant camera,6.0,competing,paired,t_s_04_1.jpg,Travel,,,sub-40
Desktop or Laptop,Windows 10,Chrome 137.0.0.0,1536x864,1536x864,Temporal Distance Task,cb_06,10.0,temp_dist_trial,dist_items,qkpkxw,2.0,info,,4.100000071528483,0.0,4.100000071528483,4.100000071528483,0.0,4.100000071528483,1.0,0.0,0.0,,Slider,Slider,4.0,object-56,temp_dist_trial,10.0,t_s_04_1,travel_shared,instant camera,6.0,competing,paired,t_s_04_1.jpg,Travel,,,sub-40
Desktop or Laptop,Windows 10,Chrome 137.0.0.0,1536x864,1536x864,Temporal Distance Task,cb_06,10.0,temp_dist_trial,dist_items,qkpkxw,2.0,continue,,3521.0000000476866,3516.699999999997,3521.0000000476866,3521.0000000476866,3516.699999999997,3521.0000000476866,1.0,0.0,0.0,,Click To Continue,Next button,7.0,object-60,temp_dist_trial,10.0,t_s_04_1,travel_shared,instant camera,6.0,competing,paired,t_s_04_1.jpg,Travel,,,sub-40
Desktop or Laptop,Windows 10,Chrome 137.0.0.0,1536x864,1536x864,Temporal Distance Task,cb_06,10.0,temp_dist_trial,dist_items,qkpkxw,2.0,response,39,1250.1999999999969,3516.699999999997,3521.400000023845,1250.1999999999969,3516.699999999997,3521.400000023845,1.0,2271.200000023848,0.0,,Slider,Slider,4.0,object-56,temp_dist_trial,10.0,t_s_04_1,travel_shared,instant camera,6.0,competing,paired,t_s_04_1.jpg,Travel,,,sub-40
Desktop or Laptop,Windows 10,Chrome 137.0.0.0,1536x864,1536x864,Temporal Distance Task,cb_06,11.0,temp_dist_trial,num_items,zn7si1,1.0,response,1_ITEM,1862.4000000715314,1850.2000000000119,1862.4000000715314,1862.4000000715314,1850.2000000000119,1862.4000000715314,1.0,0.0,0.0,,Click Response,1_count,3.0,object-46,temp_dist_trial,11.0,t_m_20_1,travel_Miami,inflatable beachball,6.0,unique,paired,t_m_20_1.jpg,Travel,,,sub-40
Desktop or Laptop,Windows 10,Chrome 137.0.0.0,1536x864,1536x864,Temporal Distance Task,cb_06,12.0,temp_dist_trial,num_items,zn7si1,1.0,response,1_ITEM,1460.000000023836,1450.3999999999942,1460.000000023836,1460.000000023836,1450.3999999999942,1460.000000023836,1.0,0.0,0.0,,Click Response,1_count,3.0,object-46,temp_dist_trial,12.0,t_m_11_1,travel_Miami,collapsible beach chair,6.0,unique,paired,t_m_11_1.jpg,Travel,,,sub-40
Desktop or Laptop,Windows 10,Chrome 137.0.0.0,1536x864,1536x864,Temporal Distance Task,cb_06,13.0,temp_dist_trial,num_items,zn7si1,1.0,response,1_ITEM,1292.0000000715227,1283.5,1292.0000000715227,1292.0000000715227,1283.5,1292.0000000715227,1.0,0.0,0.0,,Click Response,1_count,3.0,object-46,temp_dist_trial,13.0,t_s_22_1,travel_shared,belt,6.0,competing,single,t_s_22_1.jpg,Travel,,,sub-40
Desktop or Laptop,Windows 10,Chrome 137.0.0.0,1536x864,1536x864,Temporal Distance Task,cb_06,14.0,temp_dist_trial,num_items,zn7si1,1.0,response,1_ITEM,1584.2000000715198,1583.0,1584.2000000715198,1584.2000000715198,1583.0,1584.2000000715198,1.0,0.0,0.0,,Click Response,1_count,3.0,object-46,temp_dist_trial,14.0,t_i_13_1,travel_Iceland,sleeping bag,6.0,unique,single,t_i_13_1.jpg,Travel,,,sub-40
Desktop or Laptop,Windows 10,Chrome 137.0.0.0,1536x864,1536x864,Temporal Distance Task,cb_06,15.0,temp_dist_trial,num_items,zn7si1,1.0,response,2_ITEM,1193.4000000238448,1183.4000000000087,1193.4000000238448,1193.4000000238448,1183.4000000000087,1193.4000000238448,1.0,0.0,0.0,,Click Response,2_count,5.0,object-49,temp_dist_trial,15.0,t_s_06_1,travel_shared,luggage,6.0,competing,paired,t_s_06_1.jpg,Travel,,,sub-40
Desktop or Laptop,Windows 10,Chrome 137.0.0.0,1536x864,1536x864,Temporal Distance Task,cb_06,15.0,temp_dist_trial,dist_items,qkpkxw,2.0,info,,4.099999976155233,0.0,4.099999976155233,4.099999976155233,0.0,4.099999976155233,1.0,0.0,0.0,,Slider,Slider,4.0,object-56,temp_dist_trial,15.0,t_s_06_1,travel_shared,luggage,6.0,competing,paired,t_s_06_1.jpg,Travel,,,sub-40
Desktop or Laptop,Windows 10,Chrome 137.0.0.0,1536x864,1536x864,Temporal Distance Task,cb_06,15.0,temp_dist_trial,dist_items,qkpkxw,2.0,continue,,3043.300000023839,3033.800000000003,3043.300000023839,3043.300000023839,3033.800000000003,3043.300000023839,1.0,0.0,0.0,,Click To Continue,Next button,7.0,object-60,temp_dist_trial,15.0,t_s_06_1,travel_shared,luggage,6.0,competing,paired,t_s_06_1.jpg,Travel,,,sub-40
Desktop or Laptop,Windows 10,Chrome 137.0.0.0,1536x864,1536x864,Temporal Distance Task,cb_06,15.0,temp_dist_trial,dist_items,qkpkxw,2.0,response,59,1683.3000000000034,3033.800000000003,3043.800000023839,1683.3000000000034,3033.800000000003,3043.800000023839,1.0,1360.500000023836,0.0,,Slider,Slider,4.0,object-56,temp_dist_trial,15.0,t_s_06_1,travel_shared,luggage,6.0,competing,paired,t_s_06_1.jpg,Travel,,,sub-40
Desktop or Laptop,Windows 10,Chrome 137.0.0.0,1536x864,1536x864,Temporal Distance Task,cb_06,16.0,temp_dist_trial,num_items,zn7si1,1.0,response,1_ITEM,1707.3999999999942,1699.8999999999942,1707.3999999999942,1707.3999999999942,1699.8999999999942,1707.3999999999942,1.0,0.0,0.0,,Click Response,1_count,3.0,object-46,temp_dist_trial,16.0,t_i_09_1,travel_Iceland,ear muffs,6.0,unique,single,t_i_09_1.jpg,Travel,,,sub-40
Desktop or Laptop,Windows 10,Chrome 137.0.0.0,1536x864,1536x864,Temporal Distance Task,cb_06,17.0,temp_dist_trial,num_items,zn7si1,1.0,response,2_ITEM,1175.7000000238475,1166.2000000000114,1175.7000000238475,1175.7000000238475,1166.2000000000114,1175.7000000238475,1.0,0.0,0.0,,Click Response,2_count,5.0,object-49,temp_dist_trial,17.0,t_i_03_1,travel_Iceland,winter jacket,6.0,unique,paired,t_i_03_1.jpg,Travel,,,sub-40
Desktop or Laptop,Windows 10,Chrome 137.0.0.0,1536x864,1536x864,Temporal Distance Task,cb_06,17.0,temp_dist_trial,dist_items,qkpkxw,2.0,info,,4.100000047677895,0.0,4.100000047677895,4.100000047677895,0.0,4.100000047677895,1.0,0.0,0.0,,Slider,Slider,4.0,object-56,temp_dist_trial,17.0,t_i_03_1,travel_Iceland,winter jacket,6.0,unique,paired,t_i_03_1.jpg,Travel,,,sub-40
Desktop or Laptop,Windows 10,Chrome 137.0.0.0,1536x864,1536x864,Temporal Distance Task,cb_06,17.0,temp_dist_trial,dist_items,qkpkxw,2.0,continue,,2483.0,2466.3999999999937,2483.0,2483.0,2466.3999999999937,2483.0,1.0,0.0,0.0,,Click To Continue,Next button,7.0,object-60,temp_dist_trial,17.0,t_i_03_1,travel_Iceland,winter jacket,6.0,unique,paired,t_i_03_1.jpg,Travel,,,sub-40
Desktop or Laptop,Windows 10,Chrome 137.0.0.0,1536x864,1536x864,Temporal Distance Task,cb_06,17.0,temp_dist_trial,dist_items,qkpkxw,2.0,response,37,1083.3999999999942,2466.3999999999937,2483.0,1083.3999999999942,2466.3999999999937,2483.0,1.0,1399.6000000000058,0.0,,Slider,Slider,4.0,object-56,temp_dist_trial,17.0,t_i_03_1,travel_Iceland,winter jacket,6.0,unique,paired,t_i_03_1.jpg,Travel,,,sub-40
Desktop or Laptop,Windows 10,Chrome 137.0.0.0,1536x864,1536x864,Temporal Distance Task,cb_06,18.0,temp_dist_trial,num_items,zn7si1,1.0,response,1_ITEM,1538.1000000238419,1533.5,1538.1000000238419,1538.1000000238419,1533.5,1538.1000000238419,1.0,0.0,0.0,,Click Response,1_count,3.0,object-46,temp_dist_trial,18.0,t_i_15_1,travel_Iceland,compass,6.0,unique,single,t_i_15_1.jpg,Travel,,,sub-40
Desktop or Laptop,Windows 10,Chrome 137.0.0.0,1536x864,1536x864,Temporal Distance Task,cb_06,19.0,temp_dist_trial,num_items,zn7si1,1.0,response,2_ITEM,1437.2000000476835,1433.5,1437.2000000476835,1437.2000000476835,1433.5,1437.2000000476835,1.0,0.0,0.0,,Click Response,2_count,5.0,object-49,temp_dist_trial,19.0,t_i_06_1,travel_Iceland,knit hat,6.0,unique,paired,t_i_06_1.jpg,Travel,,,sub-40
Desktop or Laptop,Windows 10,Chrome 137.0.0.0,1536x864,1536x864,Temporal Distance Task,cb_06,19.0,temp_dist_trial,dist_items,qkpkxw,2.0,info,,4.6999999761610525,0.0,4.6999999761610525,4.6999999761610525,0.0,4.6999999761610525,1.0,0.0,0.0,,Slider,Slider,4.0,object-56,temp_dist_trial,19.0,t_i_06_1,travel_Iceland,knit hat,6.0,unique,paired,t_i_06_1.jpg,Travel,,,sub-40
Desktop or Laptop,Windows 10,Chrome 137.0.0.0,1536x864,1536x864,Temporal Distance Task,cb_06,19.0,temp_dist_trial,dist_items,qkpkxw,2.0,continue,,2445.6000000715285,2433.5,2445.6000000715285,2445.6000000715285,2433.5,2445.6000000715285,1.0,0.0,0.0,,Click To Continue,Next button,7.0,object-60,temp_dist_trial,19.0,t_i_06_1,travel_Iceland,knit hat,6.0,unique,paired,t_i_06_1.jpg,Travel,,,sub-40
Desktop or Laptop,Windows 10,Chrome 137.0.0.0,1536x864,1536x864,Temporal Distance Task,cb_06,19.0,temp_dist_trial,dist_items,qkpkxw,2.0,response,38,1299.9000000000087,2433.5,2446.0000000476866,1299.9000000000087,2433.5,2446.0000000476866,1.0,1146.1000000476781,0.0,,Slider,Slider,4.0,object-56,temp_dist_trial,19.0,t_i_06_1,travel_Iceland,knit hat,6.0,unique,paired,t_i_06_1.jpg,Travel,,,sub-40
Desktop or Laptop,Windows 10,Chrome 137.0.0.0,1536x864,1536x864,Temporal Distance Task,cb_06,20.0,temp_dist_trial,num_items,zn7si1,1.0,response,1_ITEM,1197.699999976161,1183.3000000000031,1197.699999976161,1197.699999976161,1183.3000000000031,1197.699999976161,1.0,0.0,0.0,,Click Response,1_count,3.0,object-46,temp_dist_trial,20.0,t_s_03_1,travel_shared,portable charger,6.0,competing,paired,t_s_03_1.jpg,Travel,,,sub-40
Desktop or Laptop,Windows 10,Chrome 137.0.0.0,1536x864,1536x864,Temporal Distance Task,cb_06,21.0,temp_dist_trial,num_items,zn7si1,1.0,response,2_ITEM,1143.1000000000058,1133.8000000000031,1143.1000000000058,1143.1000000000058,1133.8000000000031,1143.1000000000058,1.0,0.0,0.0,,Click Response,2_count,5.0,object-49,temp_dist_trial,21.0,t_s_24_1,travel_shared,ear plugs,6.0,competing,paired,t_s_24_1.jpg,Travel,,,sub-40
Desktop or Laptop,Windows 10,Chrome 137.0.0.0,1536x864,1536x864,Temporal Distance Task,cb_06,21.0,temp_dist_trial,dist_items,qkpkxw,2.0,info,,4.3000000476895375,0.0,4.3000000476895375,4.3000000476895375,0.0,4.3000000476895375,1.0,0.0,0.0,,Slider,Slider,4.0,object-56,temp_dist_trial,21.0,t_s_24_1,travel_shared,ear plugs,6.0,competing,paired,t_s_24_1.jpg,Travel,,,sub-40
Desktop or Laptop,Windows 10,Chrome 137.0.0.0,1536x864,1536x864,Temporal Distance Task,cb_06,21.0,temp_dist_trial,dist_items,qkpkxw,2.0,continue,,2545.200000023848,2533.700000000012,2545.200000023848,2545.200000023848,2533.700000000012,2545.200000023848,1.0,0.0,0.0,,Click To Continue,Next button,7.0,object-60,temp_dist_trial,21.0,t_s_24_1,travel_shared,ear plugs,6.0,competing,paired,t_s_24_1.jpg,Travel,,,sub-40
Desktop or Laptop,Windows 10,Chrome 137.0.0.0,1536x864,1536x864,Temporal Distance Task,cb_06,21.0,temp_dist_trial,dist_items,qkpkxw,2.0,response,64,1083.5,2533.700000000012,2550.4000000000233,1083.5,2533.700000000012,2550.4000000000233,1.0,1466.9000000000233,0.0,,Slider,Slider,4.0,object-56,temp_dist_trial,21.0,t_s_24_1,travel_shared,ear plugs,6.0,competing,paired,t_s_24_1.jpg,Travel,,,sub-40
Desktop or Laptop,Windows 10,Chrome 137.0.0.0,1536x864,1536x864,Temporal Distance Task,cb_06,22.0,temp_dist_trial,num_items,zn7si1,1.0,response,1_ITEM,1567.3000000000034,1550.5,1567.3000000000034,1567.3000000000034,1550.5,1567.3000000000034,1.0,0.0,0.0,,Click Response,1_count,3.0,object-46,temp_dist_trial,22.0,t_m_09_1,travel_Miami,beach towel,6.0,unique,paired,t_m_09_1.jpg,Travel,,,sub-40
Desktop or Laptop,Windows 10,Chrome 137.0.0.0,1536x864,1536x864,Temporal Distance Task,cb_06,23.0,temp_dist_trial,num_items,zn7si1,1.0,response,1_ITEM,1377.8000000476895,1366.8000000000031,1377.8000000476895,1377.8000000476895,1366.8000000000031,1377.8000000476895,1.0,0.0,0.0,,Click Response,1_count,3.0,object-46,temp_dist_trial,23.0,t_s_20_1,travel_shared,travel pill case,6.0,competing,single,t_s_20_1.jpg,Travel,,,sub-40
Desktop or Laptop,Windows 10,Chrome 137.0.0.0,1536x864,1536x864,Temporal Distance Task,cb_06,24.0,temp_dist_trial,num_items,zn7si1,1.0,response,1_ITEM,1530.4000000715314,1516.900000000009,1530.4000000715314,1530.4000000715314,1516.900000000009,1530.4000000715314,1.0,0.0,0.0,,Click Response,1_count,3.0,object-46,temp_dist_trial,24.0,t_m_12_1,travel_Miami,foldable pail and shovel,6.0,unique,single,t_m_12_1.jpg,Travel,,,sub-40
Desktop or Laptop,Windows 10,Chrome 137.0.0.0,1536x864,1536x864,Temporal Distance Task,cb_06,25.0,temp_dist_trial,num_items,zn7si1,1.0,response,2_ITEM,1421.9000000476804,1417.099999999991,1421.9000000476804,1421.9000000476804,1417.099999999991,1421.9000000476804,1.0,0.0,0.0,,Click Response,2_count,5.0,object-49,temp_dist_trial,25.0,t_i_07_1,travel_Iceland,hiking backpack,6.0,unique,paired,t_i_07_1.jpg,Travel,,,sub-40
Desktop or Laptop,Windows 10,Chrome 137.0.0.0,1536x864,1536x864,Temporal Distance Task,cb_06,25.0,temp_dist_trial,dist_items,qkpkxw,2.0,info,,3.8000000476895366,0.0,3.8000000476895366,3.8000000476895366,0.0,3.8000000476895366,1.0,0.0,0.0,,Slider,Slider,4.0,object-56,temp_dist_trial,25.0,t_i_07_1,travel_Iceland,hiking backpack,6.0,unique,paired,t_i_07_1.jpg,Travel,,,sub-40
Desktop or Laptop,Windows 10,Chrome 137.0.0.0,1536x864,1536x864,Temporal Distance Task,cb_06,25.0,temp_dist_trial,dist_items,qkpkxw,2.0,continue,,2871.4000000715314,2866.6000000000067,2871.4000000715314,2871.4000000715314,2866.6000000000067,2871.4000000715314,1.0,0.0,0.0,,Click To Continue,Next button,7.0,object-60,temp_dist_trial,25.0,t_i_07_1,travel_Iceland,hiking backpack,6.0,unique,paired,t_i_07_1.jpg,Travel,,,sub-40
Desktop or Laptop,Windows 10,Chrome 137.0.0.0,1536x864,1536x864,Temporal Distance Task,cb_06,25.0,temp_dist_trial,dist_items,qkpkxw,2.0,response,33,1566.8000000000034,2866.6000000000067,2871.999999976164,1566.8000000000034,2866.6000000000067,2871.999999976164,1.0,1305.199999976161,0.0,,Slider,Slider,4.0,object-56,temp_dist_trial,25.0,t_i_07_1,travel_Iceland,hiking backpack,6.0,unique,paired,t_i_07_1.jpg,Travel,,,sub-40
Desktop or Laptop,Windows 10,Chrome 137.0.0.0,1536x864,1536x864,Temporal Distance Task,cb_06,26.0,temp_dist_trial,num_items,zn7si1,1.0,response,1_ITEM,1478.5,1466.8999999999942,1478.5,1478.5,1466.8999999999942,1478.5,1.0,0.0,0.0,,Click Response,1_count,3.0,object-46,temp_dist_trial,26.0,t_m_04_1,travel_Miami,UV jacket,6.0,unique,paired,t_m_04_1.jpg,Travel,,,sub-40
Desktop or Laptop,Windows 10,Chrome 137.0.0.0,1536x864,1536x864,Temporal Distance Task,cb_06,27.0,temp_dist_trial,num_items,zn7si1,1.0,response,1_ITEM,1565.5000000476864,1549.8000000000034,1565.5000000476864,1565.5000000476864,1549.8000000000034,1565.5000000476864,1.0,0.0,0.0,,Click Response,1_count,3.0,object-46,temp_dist_trial,27.0,t_i_02_1,travel_Iceland,scarf,6.0,unique,paired,t_i_02_1.jpg,Travel,,,sub-40
Desktop or Laptop,Windows 10,Chrome 137.0.0.0,1536x864,1536x864,Temporal Distance Task,cb_06,28.0,temp_dist_trial,num_items,zn7si1,1.0,response,1_ITEM,1183.399999976158,1166.8000000000031,1183.399999976158,1183.399999976158,1166.8000000000031,1183.399999976158,1.0,0.0,0.0,,Click Response,1_count,3.0,object-46,temp_dist_trial,28.0,t_s_01_1,travel_shared,fanny pack,6.0,competing,paired,t_s_01_1.jpg,Travel,,,sub-40
Desktop or Laptop,Windows 10,Chrome 137.0.0.0,1536x864,1536x864,Temporal Distance Task,cb_06,29.0,temp_dist_trial,num_items,zn7si1,1.0,response,2_ITEM,1281.0000000715227,1266.6999999999969,1281.0000000715227,1281.0000000715227,1266.6999999999969,1281.0000000715227,1.0,0.0,0.0,,Click Response,2_count,5.0,object-49,temp_dist_trial,29.0,t_s_21_1,travel_shared,umbrella,6.0,competing,paired,t_s_21_1.jpg,Travel,,,sub-40
Desktop or Laptop,Windows 10,Chrome 137.0.0.0,1536x864,1536x864,Temporal Distance Task,cb_06,29.0,temp_dist_trial,dist_items,qkpkxw,2.0,info,,3.799999976152321,0.0,3.799999976152321,3.799999976152321,0.0,3.799999976152321,1.0,0.0,0.0,,Slider,Slider,4.0,object-56,temp_dist_trial,29.0,t_s_21_1,travel_shared,umbrella,6.0,competing,paired,t_s_21_1.jpg,Travel,,,sub-40
Desktop or Laptop,Windows 10,Chrome 137.0.0.0,1536x864,1536x864,Temporal Distance Task,cb_06,29.0,temp_dist_trial,dist_items,qkpkxw,2.0,continue,,1958.600000047678,1950.3999999999944,1958.600000047678,1958.600000047678,1950.3999999999944,1958.600000047678,1.0,0.0,0.0,,Click To Continue,Next button,7.0,object-60,temp_dist_trial,29.0,t_s_21_1,travel_shared,umbrella,6.0,competing,paired,t_s_21_1.jpg,Travel,,,sub-40
Desktop or Laptop,Windows 10,Chrome 137.0.0.0,1536x864,1536x864,Temporal Distance Task,cb_06,29.0,temp_dist_trial,dist_items,qkpkxw,2.0,response,67,1000.2999999999884,1950.3999999999944,1959.2000000715198,1000.2999999999884,1950.3999999999944,1959.2000000715198,1.0,958.9000000715314,0.0,,Slider,Slider,4.0,object-56,temp_dist_trial,29.0,t_s_21_1,travel_shared,umbrella,6.0,competing,paired,t_s_21_1.jpg,Travel,,,sub-40
Desktop or Laptop,Windows 10,Chrome 137.0.0.0,1536x864,1536x864,Temporal Distance Task,cb_06,30.0,temp_dist_trial,num_items,zn7si1,1.0,response,1_ITEM,1337.399999976158,1333.3999999999942,1337.399999976158,1337.399999976158,1333.3999999999942,1337.399999976158,1.0,0.0,0.0,,Click Response,1_count,3.0,object-46,temp_dist_trial,30.0,t_m_01_1,travel_Miami,sandals,6.0,unique,single,t_m_01_1.jpg,Travel,,,sub-40
Desktop or Laptop,Windows 10,Chrome 137.0.0.0,1536x864,1536x864,Temporal Distance Task,cb_06,31.0,temp_dist_trial,num_items,zn7si1,1.0,response,1_ITEM,1719.3999999999942,1716.8999999999942,1719.3999999999942,1719.3999999999942,1716.8999999999942,1719.3999999999942,1.0,0.0,0.0,,Click Response,1_count,3.0,object-46,temp_dist_trial,31.0,t_s_10_1,travel_shared,luggage lock,6.0,competing,paired,t_s_10_1.jpg,Travel,,,sub-40
Desktop or Laptop,Windows 10,Chrome 137.0.0.0,1536x864,1536x864,Temporal Distance Task,cb_06,32.0,temp_dist_trial,num_items,zn7si1,1.0,response,1_ITEM,1433.3999999999942,1416.7999999999884,1433.3999999999942,1433.3999999999942,1416.7999999999884,1433.3999999999942,1.0,0.0,0.0,,Click Response,1_count,3.0,object-46,temp_dist_trial,32.0,t_s_12_1,travel_shared,clear toiletry bag,6.0,competing,paired,t_s_12_1.jpg,Travel,,,sub-40
Desktop or Laptop,Windows 10,Chrome 137.0.0.0,1536x864,1536x864,Temporal Distance Task,cb_06,33.0,temp_dist_trial,num_items,zn7si1,1.0,response,2_ITEM,1176.5,1166.7000000000114,1176.5,1176.5,1166.7000000000114,1176.5,1.0,0.0,0.0,,Click Response,2_count,5.0,object-49,temp_dist_trial,33.0,t_s_02_1,travel_shared,water bottle,6.0,competing,paired,t_s_02_1.jpg,Travel,,,sub-40
Desktop or Laptop,Windows 10,Chrome 137.0.0.0,1536x864,1536x864,Temporal Distance Task,cb_06,33.0,temp_dist_trial,dist_items,qkpkxw,2.0,info,,3.3000000715255737,0.0,3.3000000715255737,3.3000000715255737,0.0,3.3000000715255737,1.0,0.0,0.0,,Slider,Slider,4.0,object-56,temp_dist_trial,33.0,t_s_02_1,travel_shared,water bottle,6.0,competing,paired,t_s_02_1.jpg,Travel,,,sub-40
Desktop or Laptop,Windows 10,Chrome 137.0.0.0,1536x864,1536x864,Temporal Distance Task,cb_06,33.0,temp_dist_trial,dist_items,qkpkxw,2.0,continue,,2330.399999976158,2316.3999999999937,2330.399999976158,2330.399999976158,2316.3999999999937,2330.399999976158,1.0,0.0,0.0,,Click To Continue,Next button,7.0,object-60,temp_dist_trial,33.0,t_s_02_1,travel_shared,water bottle,6.0,competing,paired,t_s_02_1.jpg,Travel,,,sub-40
Desktop or Laptop,Windows 10,Chrome 137.0.0.0,1536x864,1536x864,Temporal Distance Task,cb_06,33.0,temp_dist_trial,dist_items,qkpkxw,2.0,response,63,1316.7000000000114,2316.3999999999937,2330.899999976158,1316.7000000000114,2316.3999999999937,2330.899999976158,1.0,1014.1999999761464,0.0,,Slider,Slider,4.0,object-56,temp_dist_trial,33.0,t_s_02_1,travel_shared,water bottle,6.0,competing,paired,t_s_02_1.jpg,Travel,,,sub-40
Desktop or Laptop,Windows 10,Chrome 137.0.0.0,1536x864,1536x864,Temporal Distance Task,cb_06,34.0,temp_dist_trial,num_items,zn7si1,1.0,response,1_ITEM,1368.2000000238475,1366.7000000000114,1368.2000000238475,1368.2000000238475,1366.7000000000114,1368.2000000238475,1.0,0.0,0.0,,Click Response,1_count,3.0,object-46,temp_dist_trial,34.0,t_s_17_1,travel_shared,toothbrush,6.0,competing,single,t_s_17_1.jpg,Travel,,,sub-40
Desktop or Laptop,Windows 10,Chrome 137.0.0.0,1536x864,1536x864,Temporal Distance Task,cb_06,35.0,temp_dist_trial,num_items,zn7si1,1.0,response,1_ITEM,1120.2000000476835,1116.6000000000058,1120.2000000476835,1120.2000000476835,1116.6000000000058,1120.2000000476835,1.0,0.0,0.0,,Click Response,1_count,3.0,object-46,temp_dist_trial,35.0,t_m_10_1,travel_Miami,tanktop,6.0,unique,paired,t_m_10_1.jpg,Travel,,,sub-40
Desktop or Laptop,Windows 10,Chrome 137.0.0.0,1536x864,1536x864,Temporal Distance Task,cb_06,36.0,temp_dist_trial,num_items,zn7si1,1.0,response,2_ITEM,1606.3000000715256,1600.8999999999942,1606.3000000715256,1606.3000000715256,1600.8999999999942,1606.3000000715256,1.0,0.0,0.0,,Click Response,2_count,5.0,object-49,temp_dist_trial,36.0,t_s_16_1,travel_shared,chapstick,6.0,competing,paired,t_s_16_1.jpg,Travel,,,sub-40
Desktop or Laptop,Windows 10,Chrome 137.0.0.0,1536x864,1536x864,Temporal Distance Task,cb_06,36.0,temp_dist_trial,dist_items,qkpkxw,2.0,info,,3.5999999761697836,0.0,3.5999999761697836,3.5999999761697836,0.0,3.5999999761697836,1.0,0.0,0.0,,Slider,Slider,4.0,object-56,temp_dist_trial,36.0,t_s_16_1,travel_shared,chapstick,6.0,competing,paired,t_s_16_1.jpg,Travel,,,sub-40
Desktop or Laptop,Windows 10,Chrome 137.0.0.0,1536x864,1536x864,Temporal Distance Task,cb_06,36.0,temp_dist_trial,dist_items,qkpkxw,2.0,continue,,2253.400000047696,2250.200000000012,2253.400000047696,2253.400000047696,2250.200000000012,2253.400000047696,1.0,0.0,0.0,,Click To Continue,Next button,7.0,object-60,temp_dist_trial,36.0,t_s_16_1,travel_shared,chapstick,6.0,competing,paired,t_s_16_1.jpg,Travel,,,sub-40
Desktop or Laptop,Windows 10,Chrome 137.0.0.0,1536x864,1536x864,Temporal Distance Task,cb_06,36.0,temp_dist_trial,dist_items,qkpkxw,2.0,response,80,1017.0,2250.200000000012,2253.800000023853,1017.0,2250.200000000012,2253.800000023853,1.0,1236.8000000238535,0.0,,Slider,Slider,4.0,object-56,temp_dist_trial,36.0,t_s_16_1,travel_shared,chapstick,6.0,competing,paired,t_s_16_1.jpg,Travel,,,sub-40
Desktop or Laptop,Windows 10,Chrome 137.0.0.0,1536x864,1536x864,Temporal Distance Task,cb_06,37.0,temp_dist_trial,num_items,zn7si1,1.0,response,1_ITEM,1237.8000000715256,1233.6000000000058,1237.8000000715256,1237.8000000715256,1233.6000000000058,1237.8000000715256,1.0,0.0,0.0,,Click Response,1_count,3.0,object-46,temp_dist_trial,37.0,t_s_08_1,travel_shared,hand lotion,6.0,competing,single,t_s_08_1.jpg,Travel,,,sub-40
Desktop or Laptop,Windows 10,Chrome 137.0.0.0,1536x864,1536x864,Temporal Distance Task,cb_06,38.0,temp_dist_trial,num_items,zn7si1,1.0,response,1_ITEM,1156.8000000238535,1150.4000000000233,1156.8000000238535,1156.8000000238535,1150.4000000000233,1156.8000000238535,1.0,0.0,0.0,,Click Response,1_count,3.0,object-46,temp_dist_trial,38.0,t_m_17_1,travel_Miami,water gun,6.0,unique,single,t_m_17_1.jpg,Travel,,,sub-40
Desktop or Laptop,Windows 10,Chrome 137.0.0.0,1536x864,1536x864,Temporal Distance Task,cb_06,39.0,temp_dist_trial,num_items,zn7si1,1.0,response,2_ITEM,1494.6000000000058,1483.5,1494.6000000000058,1494.6000000000058,1483.5,1494.6000000000058,1.0,0.0,0.0,,Click Response,2_count,5.0,object-49,temp_dist_trial,39.0,t_m_05_1,travel_Miami,sunscreen,6.0,unique,paired,t_m_05_1.jpg,Travel,,,sub-40
Desktop or Laptop,Windows 10,Chrome 137.0.0.0,1536x864,1536x864,Temporal Distance Task,cb_06,39.0,temp_dist_trial,dist_items,qkpkxw,2.0,info,,3.600000071513932,0.0,3.600000071513932,3.600000071513932,0.0,3.600000071513932,1.0,0.0,0.0,,Slider,Slider,4.0,object-56,temp_dist_trial,39.0,t_m_05_1,travel_Miami,sunscreen,6.0,unique,paired,t_m_05_1.jpg,Travel,,,sub-40
Desktop or Laptop,Windows 10,Chrome 137.0.0.0,1536x864,1536x864,Temporal Distance Task,cb_06,39.0,temp_dist_trial,dist_items,qkpkxw,2.0,continue,,2260.9000000238298,2249.8999999999937,2260.9000000238298,2260.9000000238298,2249.8999999999937,2260.9000000238298,1.0,0.0,0.0,,Click To Continue,Next button,7.0,object-60,temp_dist_trial,39.0,t_m_05_1,travel_Miami,sunscreen,6.0,unique,paired,t_m_05_1.jpg,Travel,,,sub-40
Desktop or Laptop,Windows 10,Chrome 137.0.0.0,1536x864,1536x864,Temporal Distance Task,cb_06,39.0,temp_dist_trial,dist_items,qkpkxw,2.0,response,61,1266.5,2249.8999999999937,2261.6999999761465,1266.5,2249.8999999999937,2261.6999999761465,1.0,995.1999999761464,0.0,,Slider,Slider,4.0,object-56,temp_dist_trial,39.0,t_m_05_1,travel_Miami,sunscreen,6.0,unique,paired,t_m_05_1.jpg,Travel,,,sub-40
Desktop or Laptop,Windows 10,Chrome 137.0.0.0,1536x864,1536x864,Temporal Distance Task,cb_06,40.0,temp_dist_trial,num_items,zn7si1,1.0,response,2_ITEM,1693.600000047678,1683.7999999999884,1693.600000047678,1693.600000047678,1683.7999999999884,1693.600000047678,1.0,0.0,0.0,,Click Response,2_count,5.0,object-49,temp_dist_trial,40.0,t_i_17_1,travel_Iceland,binoculars,6.0,unique,paired,t_i_17_1.jpg,Travel,,,sub-40
Desktop or Laptop,Windows 10,Chrome 137.0.0.0,1536x864,1536x864,Temporal Distance Task,cb_06,40.0,temp_dist_trial,dist_items,qkpkxw,2.0,info,,4.100000047677895,0.0,4.100000047677895,4.100000047677895,0.0,4.100000047677895,1.0,0.0,0.0,,Slider,Slider,4.0,object-56,temp_dist_trial,40.0,t_i_17_1,travel_Iceland,binoculars,6.0,unique,paired,t_i_17_1.jpg,Travel,,,sub-40
Desktop or Laptop,Windows 10,Chrome 137.0.0.0,1536x864,1536x864,Temporal Distance Task,cb_06,40.0,temp_dist_trial,dist_items,qkpkxw,2.0,continue,,1849.2000000715198,1833.1000000000056,1849.2000000715198,1849.2000000715198,1833.1000000000056,1849.2000000715198,1.0,0.0,0.0,,Click To Continue,Next button,7.0,object-60,temp_dist_trial,40.0,t_i_17_1,travel_Iceland,binoculars,6.0,unique,paired,t_i_17_1.jpg,Travel,,,sub-40
Desktop or Laptop,Windows 10,Chrome 137.0.0.0,1536x864,1536x864,Temporal Distance Task,cb_06,40.0,temp_dist_trial,dist_items,qkpkxw,2.0,response,41,933.1000000000058,1833.1000000000056,1849.500000023836,933.1000000000058,1833.1000000000056,1849.500000023836,1.0,916.4000000238302,0.0,,Slider,Slider,4.0,object-56,temp_dist_trial,40.0,t_i_17_1,travel_Iceland,binoculars,6.0,unique,paired,t_i_17_1.jpg,Travel,,,sub-40
Desktop or Laptop,Windows 10,Chrome 137.0.0.0,1536x864,1536x864,Temporal Distance Task,cb_06,41.0,temp_dist_trial,num_items,zn7si1,1.0,response,2_ITEM,1594.500000047672,1583.7999999999884,1594.500000047672,1594.500000047672,1583.7999999999884,1594.500000047672,1.0,0.0,0.0,,Click Response,2_count,5.0,object-49,temp_dist_trial,41.0,t_i_01_1,travel_Iceland,gloves,6.0,unique,paired,t_i_01_1.jpg,Travel,,,sub-40
Desktop or Laptop,Windows 10,Chrome 137.0.0.0,1536x864,1536x864,Temporal Distance Task,cb_06,41.0,temp_dist_trial,dist_items,qkpkxw,2.0,info,,4.299999976152321,0.0,4.299999976152321,4.299999976152321,0.0,4.299999976152321,1.0,0.0,0.0,,Slider,Slider,4.0,object-56,temp_dist_trial,41.0,t_i_01_1,travel_Iceland,gloves,6.0,unique,paired,t_i_01_1.jpg,Travel,,,sub-40
Desktop or Laptop,Windows 10,Chrome 137.0.0.0,1536x864,1536x864,Temporal Distance Task,cb_06,41.0,temp_dist_trial,dist_items,qkpkxw,2.0,continue,,2757.000000023836,2750.6000000000067,2757.000000023836,2757.000000023836,2750.6000000000067,2757.000000023836,1.0,0.0,0.0,,Click To Continue,Next button,7.0,object-60,temp_dist_trial,41.0,t_i_01_1,travel_Iceland,gloves,6.0,unique,paired,t_i_01_1.jpg,Travel,,,sub-40
Desktop or Laptop,Windows 10,Chrome 137.0.0.0,1536x864,1536x864,Temporal Distance Task,cb_06,41.0,temp_dist_trial,dist_items,qkpkxw,2.0,response,30,1467.0,2750.6000000000067,2757.6000000476783,1467.0,2750.6000000000067,2757.6000000476783,1.0,1290.6000000476781,0.0,,Slider,Slider,4.0,object-56,temp_dist_trial,41.0,t_i_01_1,travel_Iceland,gloves,6.0,unique,paired,t_i_01_1.jpg,Travel,,,sub-40
Desktop or Laptop,Windows 10,Chrome 137.0.0.0,1536x864,1536x864,Temporal Distance Task,cb_06,42.0,temp_dist_trial,num_items,zn7si1,1.0,response,1_ITEM,1192.4000000238302,1183.0,1192.4000000238302,1192.4000000238302,1183.0,1192.4000000238302,1.0,0.0,0.0,,Click Response,1_count,3.0,object-46,temp_dist_trial,42.0,t_s_05_1,travel_shared,neck pillow,6.0,competing,single,t_s_05_1.jpg,Travel,,,sub-40
Desktop or Laptop,Windows 10,Chrome 137.0.0.0,1536x864,1536x864,Temporal Distance Task,cb_06,43.0,temp_dist_trial,num_items,zn7si1,1.0,response,2_ITEM,1097.4000000715314,1083.3999999999942,1097.4000000715314,1097.4000000715314,1083.3999999999942,1097.4000000715314,1.0,0.0,0.0,,Click Response,2_count,5.0,object-49,temp_dist_trial,43.0,t_s_23_1,travel_shared,ball cap,6.0,competing,paired,t_s_23_1.jpg,Travel,,,sub-40
Desktop or Laptop,Windows 10,Chrome 137.0.0.0,1536x864,1536x864,Temporal Distance Task,cb_06,43.0,temp_dist_trial,dist_items,qkpkxw,2.0,info,,3.8000000238534986,0.0,3.8000000238534986,3.8000000238534986,0.0,3.8000000238534986,1.0,0.0,0.0,,Slider,Slider,4.0,object-56,temp_dist_trial,43.0,t_s_23_1,travel_shared,ball cap,6.0,competing,paired,t_s_23_1.jpg,Travel,,,sub-40
Desktop or Laptop,Windows 10,Chrome 137.0.0.0,1536x864,1536x864,Temporal Distance Task,cb_06,43.0,temp_dist_trial,dist_items,qkpkxw,2.0,continue,,2392.300000023853,2383.4000000000233,2392.300000023853,2392.300000023853,2383.4000000000233,2392.300000023853,1.0,0.0,0.0,,Click To Continue,Next button,7.0,object-60,temp_dist_trial,43.0,t_s_23_1,travel_shared,ball cap,6.0,competing,paired,t_s_23_1.jpg,Travel,,,sub-40
Desktop or Laptop,Windows 10,Chrome 137.0.0.0,1536x864,1536x864,Temporal Distance Task,cb_06,43.0,temp_dist_trial,dist_items,qkpkxw,2.0,response,21,866.8000000000177,2383.4000000000233,2398.0999999761702,866.8000000000177,2383.4000000000233,2398.0999999761702,1.0,1531.2999999761525,0.0,,Slider,Slider,4.0,object-56,temp_dist_trial,43.0,t_s_23_1,travel_shared,ball cap,6.0,competing,paired,t_s_23_1.jpg,Travel,,,sub-40
Desktop or Laptop,Windows 10,Chrome 137.0.0.0,1536x864,1536x864,Temporal Distance Task,cb_06,44.0,temp_dist_trial,num_items,zn7si1,1.0,response,2_ITEM,1354.1999999761465,1350.5999999999767,1354.1999999761465,1354.1999999761465,1350.5999999999767,1354.1999999761465,1.0,0.0,0.0,,Click Response,2_count,5.0,object-49,temp_dist_trial,44.0,t_s_15_1,travel_shared,luggage tag,6.0,competing,paired,t_s_15_1.jpg,Travel,,,sub-40
Desktop or Laptop,Windows 10,Chrome 137.0.0.0,1536x864,1536x864,Temporal Distance Task,cb_06,44.0,temp_dist_trial,dist_items,qkpkxw,2.0,info,,3.9999999761639633,0.0,3.9999999761639633,3.9999999761639633,0.0,3.9999999761639633,1.0,0.0,0.0,,Slider,Slider,4.0,object-56,temp_dist_trial,44.0,t_s_15_1,travel_shared,luggage tag,6.0,competing,paired,t_s_15_1.jpg,Travel,,,sub-40
Desktop or Laptop,Windows 10,Chrome 137.0.0.0,1536x864,1536x864,Temporal Distance Task,cb_06,44.0,temp_dist_trial,dist_items,qkpkxw,2.0,continue,,2156.200000023848,2150.3999999999937,2156.200000023848,2156.200000023848,2150.3999999999937,2156.200000023848,1.0,0.0,0.0,,Click To Continue,Next button,7.0,object-60,temp_dist_trial,44.0,t_s_15_1,travel_shared,luggage tag,6.0,competing,paired,t_s_15_1.jpg,Travel,,,sub-40
Desktop or Laptop,Windows 10,Chrome 137.0.0.0,1536x864,1536x864,Temporal Distance Task,cb_06,44.0,temp_dist_trial,dist_items,qkpkxw,2.0,response,40,1150.5,2150.3999999999937,2156.9000000715314,1150.5,2150.3999999999937,2156.9000000715314,1.0,1006.4000000715314,0.0,,Slider,Slider,4.0,object-56,temp_dist_trial,44.0,t_s_15_1,travel_shared,luggage tag,6.0,competing,paired,t_s_15_1.jpg,Travel,,,sub-40
Desktop or Laptop,Windows 10,Chrome 137.0.0.0,1536x864,1536x864,Temporal Distance Task,cb_06,45.0,temp_dist_trial,num_items,zn7si1,1.0,response,2_ITEM,1223.5999999761698,1216.9000000000233,1223.5999999761698,1223.5999999761698,1216.9000000000233,1223.5999999761698,1.0,0.0,0.0,,Click Response,2_count,5.0,object-49,temp_dist_trial,45.0,t_s_09_1,travel_shared,wallet,6.0,competing,paired,t_s_09_1.jpg,Travel,,,sub-40
Desktop or Laptop,Windows 10,Chrome 137.0.0.0,1536x864,1536x864,Temporal Distance Task,cb_06,45.0,temp_dist_trial,dist_items,qkpkxw,2.0,info,,2.9999999761639637,0.0,2.9999999761639637,2.9999999761639637,0.0,2.9999999761639637,1.0,0.0,0.0,,Slider,Slider,4.0,object-56,temp_dist_trial,45.0,t_s_09_1,travel_shared,wallet,6.0,competing,paired,t_s_09_1.jpg,Travel,,,sub-40
Desktop or Laptop,Windows 10,Chrome 137.0.0.0,1536x864,1536x864,Temporal Distance Task,cb_06,45.0,temp_dist_trial,dist_items,qkpkxw,2.0,continue,,2154.499999976164,2150.700000000012,2154.499999976164,2154.499999976164,2150.700000000012,2154.499999976164,1.0,0.0,0.0,,Click To Continue,Next button,7.0,object-60,temp_dist_trial,45.0,t_s_09_1,travel_shared,wallet,6.0,competing,paired,t_s_09_1.jpg,Travel,,,sub-40
Desktop or Laptop,Windows 10,Chrome 137.0.0.0,1536x864,1536x864,Temporal Distance Task,cb_06,45.0,temp_dist_trial,dist_items,qkpkxw,2.0,response,65,933.7000000000116,2150.700000000012,2154.9000000715314,933.7000000000116,2150.700000000012,2154.9000000715314,1.0,1221.2000000715198,0.0,,Slider,Slider,4.0,object-56,temp_dist_trial,45.0,t_s_09_1,travel_shared,wallet,6.0,competing,paired,t_s_09_1.jpg,Travel,,,sub-40
Desktop or Laptop,Windows 10,Chrome 137.0.0.0,1536x864,1536x864,Temporal Distance Task,cb_06,46.0,temp_dist_trial,num_items,zn7si1,1.0,response,1_ITEM,1268.8999999999942,1266.2999999999886,1268.8999999999942,1268.8999999999942,1266.2999999999886,1268.8999999999942,1.0,0.0,0.0,,Click Response,1_count,3.0,object-46,temp_dist_trial,46.0,t_m_13_1,travel_Miami,floatie,6.0,unique,paired,t_m_13_1.jpg,Travel,,,sub-40
Desktop or Laptop,Windows 10,Chrome 137.0.0.0,1536x864,1536x864,Temporal Distance Task,cb_06,47.0,temp_dist_trial,num_items,zn7si1,1.0,response,1_ITEM,1354.8000000238535,1350.5,1354.8000000238535,1354.8000000238535,1350.5,1354.8000000238535,1.0,0.0,0.0,,Click Response,1_count,3.0,object-46,temp_dist_trial,47.0,t_m_14_1,travel_Miami,swim goggles,6.0,unique,paired,t_m_14_1.jpg,Travel,,,sub-40
Desktop or Laptop,Windows 10,Chrome 137.0.0.0,1536x864,1536x864,Temporal Distance Task,cb_06,48.0,temp_dist_trial,num_items,zn7si1,1.0,response,2_ITEM,1436.3999999761581,1433.3999999999942,1436.3999999761581,1436.3999999761581,1433.3999999999942,1436.3999999761581,1.0,0.0,0.0,,Click Response,2_count,5.0,object-49,temp_dist_trial,48.0,t_s_14_1,travel_shared,hand sanitizer,6.0,competing,paired,t_s_14_1.jpg,Travel,,,sub-40
Desktop or Laptop,Windows 10,Chrome 137.0.0.0,1536x864,1536x864,Temporal Distance Task,cb_06,48.0,temp_dist_trial,dist_items,qkpkxw,2.0,info,,4.000000023836037,0.0,4.000000023836037,4.000000023836037,0.0,4.000000023836037,1.0,0.0,0.0,,Slider,Slider,4.0,object-56,temp_dist_trial,48.0,t_s_14_1,travel_shared,hand sanitizer,6.0,competing,paired,t_s_14_1.jpg,Travel,,,sub-40
Desktop or Laptop,Windows 10,Chrome 137.0.0.0,1536x864,1536x864,Temporal Distance Task,cb_06,48.0,temp_dist_trial,dist_items,qkpkxw,2.0,continue,,2205.000000023836,2200.3999999999937,2205.000000023836,2205.000000023836,2200.3999999999937,2205.000000023836,1.0,0.0,0.0,,Click To Continue,Next button,7.0,object-60,temp_dist_trial,48.0,t_s_14_1,travel_shared,hand sanitizer,6.0,competing,paired,t_s_14_1.jpg,Travel,,,sub-40
Desktop or Laptop,Windows 10,Chrome 137.0.0.0,1536x864,1536x864,Temporal Distance Task,cb_06,48.0,temp_dist_trial,dist_items,qkpkxw,2.0,response,64,1049.8999999999942,2200.3999999999937,2205.3999999999937,1049.8999999999942,2200.3999999999937,2205.3999999999937,1.0,1155.5,0.0,,Slider,Slider,4.0,object-56,temp_dist_trial,48.0,t_s_14_1,travel_shared,hand sanitizer,6.0,competing,paired,t_s_14_1.jpg,Travel,,,sub-40
Desktop or Laptop,Windows 10,Chrome 137.0.0.0,1536x864,1536x864,Temporal Distance Task,cb_06,2.0,temp_eventStart,Screen 1,dgtyxe,1.0,continue,,2710.700000047684,2699.7999999999884,2710.700000047684,2710.700000047684,2699.7999999999884,2710.700000047684,1.0,0.0,0.0,,Click To Continue,Next Button,3.0,object-43,temp_eventStart,,,Student,,,,,,,,,sub-40
Desktop or Laptop,Windows 10,Chrome 137.0.0.0,1536x864,1536x864,Temporal Distance Task,cb_06,49.0,temp_dist_trial,num_items,zn7si1,1.0,response,2_ITEM,1445.4000000476956,1433.7000000000116,1445.4000000476956,1445.4000000476956,1433.7000000000116,1445.4000000476956,1.0,0.0,0.0,,Click Response,2_count,5.0,object-49,temp_dist_trial,1.0,s_a_03_1,student_art,palette,6.0,unique,paired,s_a_03_1.jpg,Student,,,sub-40
Desktop or Laptop,Windows 10,Chrome 137.0.0.0,1536x864,1536x864,Temporal Distance Task,cb_06,49.0,temp_dist_trial,dist_items,qkpkxw,2.0,info,,3.899999976158142,0.0,3.899999976158142,3.899999976158142,0.0,3.899999976158142,1.0,0.0,0.0,,Slider,Slider,4.0,object-56,temp_dist_trial,1.0,s_a_03_1,student_art,palette,6.0,unique,paired,s_a_03_1.jpg,Student,,,sub-40
Desktop or Laptop,Windows 10,Chrome 137.0.0.0,1536x864,1536x864,Temporal Distance Task,cb_06,49.0,temp_dist_trial,dist_items,qkpkxw,2.0,continue,,2373.200000047684,2366.700000000012,2373.200000047684,2373.200000047684,2366.700000000012,2373.200000047684,1.0,0.0,0.0,,Click To Continue,Next button,7.0,object-60,temp_dist_trial,1.0,s_a_03_1,student_art,palette,6.0,unique,paired,s_a_03_1.jpg,Student,,,sub-40
Desktop or Laptop,Windows 10,Chrome 137.0.0.0,1536x864,1536x864,Temporal Distance Task,cb_06,49.0,temp_dist_trial,dist_items,qkpkxw,2.0,response,68,1350.1000000000058,2366.700000000012,2377.700000047684,1350.1000000000058,2366.700000000012,2377.700000047684,1.0,1027.6000000476781,0.0,,Slider,Slider,4.0,object-56,temp_dist_trial,1.0,s_a_03_1,student_art,palette,6.0,unique,paired,s_a_03_1.jpg,Student,,,sub-40
Desktop or Laptop,Windows 10,Chrome 137.0.0.0,1536x864,1536x864,Temporal Distance Task,cb_06,50.0,temp_dist_trial,num_items,zn7si1,1.0,response,1_ITEM,1528.4000000238302,1516.7999999999884,1528.4000000238302,1528.4000000238302,1516.7999999999884,1528.4000000238302,1.0,0.0,0.0,,Click Response,1_count,3.0,object-46,temp_dist_trial,2.0,s_sh_03_1,student_shared,highlighter,6.0,competing,single,s_sh_03_1.jpg,Student,,,sub-40
Desktop or Laptop,Windows 10,Chrome 137.0.0.0,1536x864,1536x864,Temporal Distance Task,cb_06,51.0,temp_dist_trial,num_items,zn7si1,1.0,response,2_ITEM,1043.7000000238477,1033.1000000000058,1043.7000000238477,1043.7000000238477,1033.1000000000058,1043.7000000238477,1.0,0.0,0.0,,Click Response,2_count,5.0,object-49,temp_dist_trial,3.0,s_s_14_1,student_stem,funnel,6.0,unique,paired,s_s_14_1.jpg,Student,,,sub-40
Desktop or Laptop,Windows 10,Chrome 137.0.0.0,1536x864,1536x864,Temporal Distance Task,cb_06,51.0,temp_dist_trial,dist_items,qkpkxw,2.0,info,,3.7000000000116415,0.0,3.7000000000116415,3.7000000000116415,0.0,3.7000000000116415,1.0,0.0,0.0,,Slider,Slider,4.0,object-56,temp_dist_trial,3.0,s_s_14_1,student_stem,funnel,6.0,unique,paired,s_s_14_1.jpg,Student,,,sub-40
Desktop or Laptop,Windows 10,Chrome 137.0.0.0,1536x864,1536x864,Temporal Distance Task,cb_06,51.0,temp_dist_trial,dist_items,qkpkxw,2.0,continue,,2132.200000000012,2116.9000000000233,2132.200000000012,2132.200000000012,2116.9000000000233,2132.200000000012,1.0,0.0,0.0,,Click To Continue,Next button,7.0,object-60,temp_dist_trial,3.0,s_s_14_1,student_stem,funnel,6.0,unique,paired,s_s_14_1.jpg,Student,,,sub-40
Desktop or Laptop,Windows 10,Chrome 137.0.0.0,1536x864,1536x864,Temporal Distance Task,cb_06,51.0,temp_dist_trial,dist_items,qkpkxw,2.0,response,42,950.3000000000177,2116.9000000000233,2132.5000000715368,950.3000000000177,2116.9000000000233,2132.5000000715368,1.0,1182.2000000715198,0.0,,Slider,Slider,4.0,object-56,temp_dist_trial,3.0,s_s_14_1,student_stem,funnel,6.0,unique,paired,s_s_14_1.jpg,Student,,,sub-40
Desktop or Laptop,Windows 10,Chrome 137.0.0.0,1536x864,1536x864,Temporal Distance Task,cb_06,52.0,temp_dist_trial,num_items,zn7si1,1.0,response,1_ITEM,1135.1999999761465,1133.3999999999942,1135.1999999761465,1135.1999999761465,1133.3999999999942,1135.1999999761465,1.0,0.0,0.0,,Click Response,1_count,3.0,object-46,temp_dist_trial,4.0,s_sh_07_1,student_shared,ruler,6.0,competing,single,s_sh_07_1.jpg,Student,,,sub-40
Desktop or Laptop,Windows 10,Chrome 137.0.0.0,1536x864,1536x864,Temporal Distance Task,cb_06,53.0,temp_dist_trial,num_items,zn7si1,1.0,response,1_ITEM,1081.6000000000058,1066.8999999999942,1081.6000000000058,1081.6000000000058,1066.8999999999942,1081.6000000000058,1.0,0.0,0.0,,Click Response,1_count,3.0,object-46,temp_dist_trial,5.0,s_s_11_1,student_stem,scientific scale,6.0,unique,paired,s_s_11_1.jpg,Student,,,sub-40
Desktop or Laptop,Windows 10,Chrome 137.0.0.0,1536x864,1536x864,Temporal Distance Task,cb_06,54.0,temp_dist_trial,num_items,zn7si1,1.0,response,1_ITEM,1119.2000000476835,1116.7000000000116,1119.2000000476835,1119.2000000476835,1116.7000000000116,1119.2000000476835,1.0,0.0,0.0,,Click Response,1_count,3.0,object-46,temp_dist_trial,6.0,s_sh_09_1,student_shared,paper clips,6.0,competing,paired,s_sh_09_1.jpg,Student,,,sub-40
Desktop or Laptop,Windows 10,Chrome 137.0.0.0,1536x864,1536x864,Temporal Distance Task,cb_06,55.0,temp_dist_trial,num_items,zn7si1,1.0,response,2_ITEM,1274.3000000476895,1266.7000000000114,1274.3000000476895,1274.3000000476895,1266.7000000000114,1274.3000000476895,1.0,0.0,0.0,,Click Response,2_count,5.0,object-49,temp_dist_trial,7.0,s_a_07_1,student_art,yarn,6.0,unique,paired,s_a_07_1.jpg,Student,,,sub-40
Desktop or Laptop,Windows 10,Chrome 137.0.0.0,1536x864,1536x864,Temporal Distance Task,cb_06,55.0,temp_dist_trial,dist_items,qkpkxw,2.0,info,,3.8000000476895366,0.0,3.8000000476895366,3.8000000476895366,0.0,3.8000000476895366,1.0,0.0,0.0,,Slider,Slider,4.0,object-56,temp_dist_trial,7.0,s_a_07_1,student_art,yarn,6.0,unique,paired,s_a_07_1.jpg,Student,,,sub-40
Desktop or Laptop,Windows 10,Chrome 137.0.0.0,1536x864,1536x864,Temporal Distance Task,cb_06,55.0,temp_dist_trial,dist_items,qkpkxw,2.0,continue,,2529.800000047689,2516.800000000017,2529.800000047689,2529.800000047689,2516.800000000017,2529.800000047689,1.0,0.0,0.0,,Click To Continue,Next button,7.0,object-60,temp_dist_trial,7.0,s_a_07_1,student_art,yarn,6.0,unique,paired,s_a_07_1.jpg,Student,,,sub-40
Desktop or Laptop,Windows 10,Chrome 137.0.0.0,1536x864,1536x864,Temporal Distance Task,cb_06,55.0,temp_dist_trial,dist_items,qkpkxw,2.0,response,38,999.7000000000116,2516.800000000017,2530.200000023848,999.7000000000116,2516.800000000017,2530.200000023848,1.0,1530.500000023836,0.0,,Slider,Slider,4.0,object-56,temp_dist_trial,7.0,s_a_07_1,student_art,yarn,6.0,unique,paired,s_a_07_1.jpg,Student,,,sub-40
Desktop or Laptop,Windows 10,Chrome 137.0.0.0,1536x864,1536x864,Temporal Distance Task,cb_06,56.0,temp_dist_trial,num_items,zn7si1,1.0,response,2_ITEM,1406.500000047672,1400.0,1406.500000047672,1406.500000047672,1400.0,1406.500000047672,1.0,0.0,0.0,,Click Response,2_count,5.0,object-49,temp_dist_trial,8.0,s_sh_11_1,student_shared,pencil case,6.0,competing,paired,s_sh_11_1.jpg,Student,,,sub-40
Desktop or Laptop,Windows 10,Chrome 137.0.0.0,1536x864,1536x864,Temporal Distance Task,cb_06,56.0,temp_dist_trial,dist_items,qkpkxw,2.0,info,,3.3000000715255737,0.0,3.3000000715255737,3.3000000715255737,0.0,3.3000000715255737,1.0,0.0,0.0,,Slider,Slider,4.0,object-56,temp_dist_trial,8.0,s_sh_11_1,student_shared,pencil case,6.0,competing,paired,s_sh_11_1.jpg,Student,,,sub-40
Desktop or Laptop,Windows 10,Chrome 137.0.0.0,1536x864,1536x864,Temporal Distance Task,cb_06,56.0,temp_dist_trial,dist_items,qkpkxw,2.0,continue,,2161.5,2150.3999999999937,2161.5,2161.5,2150.3999999999937,2161.5,1.0,0.0,0.0,,Click To Continue,Next button,7.0,object-60,temp_dist_trial,8.0,s_sh_11_1,student_shared,pencil case,6.0,competing,paired,s_sh_11_1.jpg,Student,,,sub-40
Desktop or Laptop,Windows 10,Chrome 137.0.0.0,1536x864,1536x864,Temporal Distance Task,cb_06,56.0,temp_dist_trial,dist_items,qkpkxw,2.0,response,60,1317.1000000000058,2150.3999999999937,2162.0,1317.1000000000058,2150.3999999999937,2162.0,1.0,844.8999999999942,0.0,,Slider,Slider,4.0,object-56,temp_dist_trial,8.0,s_sh_11_1,student_shared,pencil case,6.0,competing,paired,s_sh_11_1.jpg,Student,,,sub-40
Desktop or Laptop,Windows 10,Chrome 137.0.0.0,1536x864,1536x864,Temporal Distance Task,cb_06,57.0,temp_dist_trial,num_items,zn7si1,1.0,response,1_ITEM,970.2000000238477,967.1000000000058,970.2000000238477,970.2000000238477,967.1000000000058,970.2000000238477,1.0,0.0,0.0,,Click Response,1_count,3.0,object-46,temp_dist_trial,9.0,s_sh_12_1,student_shared,binder,6.0,competing,paired,s_sh_12_1.jpg,Student,,,sub-40
Desktop or Laptop,Windows 10,Chrome 137.0.0.0,1536x864,1536x864,Temporal Distance Task,cb_06,58.0,temp_dist_trial,num_items,zn7si1,1.0,response,2_ITEM,1316.0,1300.5,1316.0,1316.0,1300.5,1316.0,1.0,0.0,0.0,,Click Response,2_count,5.0,object-49,temp_dist_trial,10.0,s_sh_13_1,student_shared,index cards,6.0,competing,paired,s_sh_13_1.jpg,Student,,,sub-40
Desktop or Laptop,Windows 10,Chrome 137.0.0.0,1536x864,1536x864,Temporal Distance Task,cb_06,58.0,temp_dist_trial,dist_items,qkpkxw,2.0,info,,3.500000071537216,0.0,3.500000071537216,3.500000071537216,0.0,3.500000071537216,1.0,0.0,0.0,,Slider,Slider,4.0,object-56,temp_dist_trial,10.0,s_sh_13_1,student_shared,index cards,6.0,competing,paired,s_sh_13_1.jpg,Student,,,sub-40
Desktop or Laptop,Windows 10,Chrome 137.0.0.0,1536x864,1536x864,Temporal Distance Task,cb_06,58.0,temp_dist_trial,dist_items,qkpkxw,2.0,continue,,2089.900000047696,2083.4000000000233,2089.900000047696,2089.900000047696,2083.4000000000233,2089.900000047696,1.0,0.0,0.0,,Click To Continue,Next button,7.0,object-60,temp_dist_trial,10.0,s_sh_13_1,student_shared,index cards,6.0,competing,paired,s_sh_13_1.jpg,Student,,,sub-40
Desktop or Laptop,Windows 10,Chrome 137.0.0.0,1536x864,1536x864,Temporal Distance Task,cb_06,58.0,temp_dist_trial,dist_items,qkpkxw,2.0,response,70,916.9000000000232,2083.4000000000233,2095.0000000715368,916.9000000000232,2083.4000000000233,2095.0000000715368,1.0,1178.100000071514,0.0,,Slider,Slider,4.0,object-56,temp_dist_trial,10.0,s_sh_13_1,student_shared,index cards,6.0,competing,paired,s_sh_13_1.jpg,Student,,,sub-40
Desktop or Laptop,Windows 10,Chrome 137.0.0.0,1536x864,1536x864,Temporal Distance Task,cb_06,59.0,temp_dist_trial,num_items,zn7si1,1.0,response,1_ITEM,1296.2999999999886,1283.3999999999942,1296.2999999999886,1296.2999999999886,1283.3999999999942,1296.2999999999886,1.0,0.0,0.0,,Click Response,1_count,3.0,object-46,temp_dist_trial,11.0,s_sh_23_1,student_shared,ballpoint pen,6.0,competing,single,s_sh_23_1.jpg,Student,,,sub-40
Desktop or Laptop,Windows 10,Chrome 137.0.0.0,1536x864,1536x864,Temporal Distance Task,cb_06,60.0,temp_dist_trial,num_items,zn7si1,1.0,response,2_ITEM,1084.7999999761523,1083.3999999999942,1084.7999999761523,1084.7999999761523,1083.3999999999942,1084.7999999761523,1.0,0.0,0.0,,Click Response,2_count,5.0,object-49,temp_dist_trial,12.0,s_a_09_1,student_art,picture frame,6.0,unique,paired,s_a_09_1.jpg,Student,,,sub-40
Desktop or Laptop,Windows 10,Chrome 137.0.0.0,1536x864,1536x864,Temporal Distance Task,cb_06,60.0,temp_dist_trial,dist_items,qkpkxw,2.0,info,,3.899999976158142,0.0,3.899999976158142,3.899999976158142,0.0,3.899999976158142,1.0,0.0,0.0,,Slider,Slider,4.0,object-56,temp_dist_trial,12.0,s_a_09_1,student_art,picture frame,6.0,unique,paired,s_a_09_1.jpg,Student,,,sub-40
Desktop or Laptop,Windows 10,Chrome 137.0.0.0,1536x864,1536x864,Temporal Distance Task,cb_06,60.0,temp_dist_trial,dist_items,qkpkxw,2.0,continue,,2000.2000000000119,1983.5,2000.2000000000119,2000.2000000000119,1983.5,2000.2000000000119,1.0,0.0,0.0,,Click To Continue,Next button,7.0,object-60,temp_dist_trial,12.0,s_a_09_1,student_art,picture frame,6.0,unique,paired,s_a_09_1.jpg,Student,,,sub-40
Desktop or Laptop,Windows 10,Chrome 137.0.0.0,1536x864,1536x864,Temporal Distance Task,cb_06,60.0,temp_dist_trial,dist_items,qkpkxw,2.0,response,61,1133.3999999999942,1983.5,2000.2000000000119,1133.3999999999942,1983.5,2000.2000000000119,1.0,866.8000000000177,0.0,,Slider,Slider,4.0,object-56,temp_dist_trial,12.0,s_a_09_1,student_art,picture frame,6.0,unique,paired,s_a_09_1.jpg,Student,,,sub-40
Desktop or Laptop,Windows 10,Chrome 137.0.0.0,1536x864,1536x864,Temporal Distance Task,cb_06,61.0,temp_dist_trial,num_items,zn7si1,1.0,response,2_ITEM,1139.399999976158,1133.0,1139.399999976158,1139.399999976158,1133.0,1139.399999976158,1.0,0.0,0.0,,Click Response,2_count,5.0,object-49,temp_dist_trial,13.0,s_s_13_1,student_stem,telescope,6.0,unique,paired,s_s_13_1.jpg,Student,,,sub-40
Desktop or Laptop,Windows 10,Chrome 137.0.0.0,1536x864,1536x864,Temporal Distance Task,cb_06,61.0,temp_dist_trial,dist_items,qkpkxw,2.0,info,,3.4000000715313945,0.0,3.4000000715313945,3.4000000715313945,0.0,3.4000000715313945,1.0,0.0,0.0,,Slider,Slider,4.0,object-56,temp_dist_trial,13.0,s_s_13_1,student_stem,telescope,6.0,unique,paired,s_s_13_1.jpg,Student,,,sub-40
Desktop or Laptop,Windows 10,Chrome 137.0.0.0,1536x864,1536x864,Temporal Distance Task,cb_06,61.0,temp_dist_trial,dist_items,qkpkxw,2.0,continue,,2304.9000000715314,2300.700000000012,2304.9000000715314,2304.9000000715314,2300.700000000012,2304.9000000715314,1.0,0.0,0.0,,Click To Continue,Next button,7.0,object-60,temp_dist_trial,13.0,s_s_13_1,student_stem,telescope,6.0,unique,paired,s_s_13_1.jpg,Student,,,sub-40
Desktop or Laptop,Windows 10,Chrome 137.0.0.0,1536x864,1536x864,Temporal Distance Task,cb_06,61.0,temp_dist_trial,dist_items,qkpkxw,2.0,response,74,1233.8000000000175,2300.700000000012,2305.200000023848,1233.8000000000175,2300.700000000012,2305.200000023848,1.0,1071.4000000238302,0.0,,Slider,Slider,4.0,object-56,temp_dist_trial,13.0,s_s_13_1,student_stem,telescope,6.0,unique,paired,s_s_13_1.jpg,Student,,,sub-40
Desktop or Laptop,Windows 10,Chrome 137.0.0.0,1536x864,1536x864,Temporal Distance Task,cb_06,62.0,temp_dist_trial,num_items,zn7si1,1.0,response,1_ITEM,1414.500000023836,1399.7999999999884,1414.500000023836,1414.500000023836,1399.7999999999884,1414.500000023836,1.0,0.0,0.0,,Click Response,1_count,3.0,object-46,temp_dist_trial,14.0,s_sh_19_1,student_shared,portable plastic drawer,6.0,competing,single,s_sh_19_1.jpg,Student,,,sub-40
Desktop or Laptop,Windows 10,Chrome 137.0.0.0,1536x864,1536x864,Temporal Distance Task,cb_06,63.0,temp_dist_trial,num_items,zn7si1,1.0,response,1_ITEM,1190.6000000476781,1183.2999999999886,1190.6000000476781,1190.6000000476781,1183.2999999999886,1190.6000000476781,1.0,0.0,0.0,,Click Response,1_count,3.0,object-46,temp_dist_trial,15.0,s_a_11_1,student_art,clapperboard,6.0,unique,single,s_a_11_1.jpg,Student,,,sub-40
Desktop or Laptop,Windows 10,Chrome 137.0.0.0,1536x864,1536x864,Temporal Distance Task,cb_06,64.0,temp_dist_trial,num_items,zn7si1,1.0,response,1_ITEM,1015.3000000238536,1000.4000000000232,1015.3000000238536,1015.3000000238536,1000.4000000000232,1015.3000000238536,1.0,0.0,0.0,,Click Response,1_count,3.0,object-46,temp_dist_trial,16.0,s_s_18_1,student_stem,brain model,6.0,unique,single,s_s_18_1.jpg,Student,,,sub-40
Desktop or Laptop,Windows 10,Chrome 137.0.0.0,1536x864,1536x864,Temporal Distance Task,cb_06,65.0,temp_dist_trial,num_items,zn7si1,1.0,response,1_ITEM,1286.9000000476954,1283.1000000000058,1286.9000000476954,1286.9000000476954,1283.1000000000058,1286.9000000476954,1.0,0.0,0.0,,Click Response,1_count,3.0,object-46,temp_dist_trial,17.0,s_a_10_1,student_art,tripod,6.0,unique,single,s_a_10_1.jpg,Student,,,sub-40
Desktop or Laptop,Windows 10,Chrome 137.0.0.0,1536x864,1536x864,Temporal Distance Task,cb_06,66.0,temp_dist_trial,num_items,zn7si1,1.0,response,2_ITEM,1387.3000000715256,1383.2999999999884,1387.3000000715256,1387.3000000715256,1383.2999999999884,1387.3000000715256,1.0,0.0,0.0,,Click Response,2_count,5.0,object-49,temp_dist_trial,18.0,s_a_13_1,student_art,violin,6.0,unique,paired,s_a_13_1.jpg,Student,,,sub-40
Desktop or Laptop,Windows 10,Chrome 137.0.0.0,1536x864,1536x864,Temporal Distance Task,cb_06,66.0,temp_dist_trial,dist_items,qkpkxw,2.0,info,,3.4000000238302164,0.0,3.4000000238302164,3.4000000238302164,0.0,3.4000000238302164,1.0,0.0,0.0,,Slider,Slider,4.0,object-56,temp_dist_trial,18.0,s_a_13_1,student_art,violin,6.0,unique,paired,s_a_13_1.jpg,Student,,,sub-40
Desktop or Laptop,Windows 10,Chrome 137.0.0.0,1536x864,1536x864,Temporal Distance Task,cb_06,66.0,temp_dist_trial,dist_items,qkpkxw,2.0,continue,,2219.9000000238298,2216.5999999999767,2219.9000000238298,2219.9000000238298,2216.5999999999767,2219.9000000238298,1.0,0.0,0.0,,Click To Continue,Next button,7.0,object-60,temp_dist_trial,18.0,s_a_13_1,student_art,violin,6.0,unique,paired,s_a_13_1.jpg,Student,,,sub-40
Desktop or Laptop,Windows 10,Chrome 137.0.0.0,1536x864,1536x864,Temporal Distance Task,cb_06,66.0,temp_dist_trial,dist_items,qkpkxw,2.0,response,24,983.2999999999884,2216.5999999999767,2220.2999999999884,983.2999999999884,2216.5999999999767,2220.2999999999884,1.0,1237.0,0.0,,Slider,Slider,4.0,object-56,temp_dist_trial,18.0,s_a_13_1,student_art,violin,6.0,unique,paired,s_a_13_1.jpg,Student,,,sub-40
Desktop or Laptop,Windows 10,Chrome 137.0.0.0,1536x864,1536x864,Temporal Distance Task,cb_06,67.0,temp_dist_trial,num_items,zn7si1,1.0,response,2_ITEM,1126.4000000476954,1116.7000000000116,1126.4000000476954,1126.4000000476954,1116.7000000000116,1126.4000000476954,1.0,0.0,0.0,,Click Response,2_count,5.0,object-49,temp_dist_trial,19.0,s_a_15_1,student_art,drum kit,6.0,unique,paired,s_a_15_1.jpg,Student,,,sub-40
Desktop or Laptop,Windows 10,Chrome 137.0.0.0,1536x864,1536x864,Temporal Distance Task,cb_06,67.0,temp_dist_trial,dist_items,qkpkxw,2.0,info,,4.4000000715313945,0.0,4.4000000715313945,4.4000000715313945,0.0,4.4000000715313945,1.0,0.0,0.0,,Slider,Slider,4.0,object-56,temp_dist_trial,19.0,s_a_15_1,student_art,drum kit,6.0,unique,paired,s_a_15_1.jpg,Student,,,sub-40
Desktop or Laptop,Windows 10,Chrome 137.0.0.0,1536x864,1536x864,Temporal Distance Task,cb_06,67.0,temp_dist_trial,dist_items,qkpkxw,2.0,continue,,2546.700000023848,2534.1000000000063,2546.700000023848,2546.700000023848,2534.1000000000063,2546.700000023848,1.0,0.0,0.0,,Click To Continue,Next button,7.0,object-60,temp_dist_trial,19.0,s_a_15_1,student_art,drum kit,6.0,unique,paired,s_a_15_1.jpg,Student,,,sub-40
Desktop or Laptop,Windows 10,Chrome 137.0.0.0,1536x864,1536x864,Temporal Distance Task,cb_06,67.0,temp_dist_trial,dist_items,qkpkxw,2.0,response,18,833.6000000000058,2534.1000000000063,2550.8999999999937,833.6000000000058,2534.1000000000063,2550.8999999999937,1.0,1717.2999999999884,0.0,,Slider,Slider,4.0,object-56,temp_dist_trial,19.0,s_a_15_1,student_art,drum kit,6.0,unique,paired,s_a_15_1.jpg,Student,,,sub-40
Desktop or Laptop,Windows 10,Chrome 137.0.0.0,1536x864,1536x864,Temporal Distance Task,cb_06,68.0,temp_dist_trial,num_items,zn7si1,1.0,response,2_ITEM,1350.3999999999942,1333.3999999999942,1350.3999999999942,1350.3999999999942,1333.3999999999942,1350.3999999999942,1.0,0.0,0.0,,Click Response,2_count,5.0,object-49,temp_dist_trial,20.0,s_sh_22_1,student_shared,hole puncher,6.0,competing,paired,s_sh_22_1.jpg,Student,,,sub-40
Desktop or Laptop,Windows 10,Chrome 137.0.0.0,1536x864,1536x864,Temporal Distance Task,cb_06,68.0,temp_dist_trial,dist_items,qkpkxw,2.0,info,,3.700000023847679,0.0,3.700000023847679,3.700000023847679,0.0,3.700000023847679,1.0,0.0,0.0,,Slider,Slider,4.0,object-56,temp_dist_trial,20.0,s_sh_22_1,student_shared,hole puncher,6.0,competing,paired,s_sh_22_1.jpg,Student,,,sub-40
Desktop or Laptop,Windows 10,Chrome 137.0.0.0,1536x864,1536x864,Temporal Distance Task,cb_06,68.0,temp_dist_trial,dist_items,qkpkxw,2.0,continue,,2244.1000000000063,2233.1000000000063,2244.1000000000063,2244.1000000000063,2233.1000000000063,2244.1000000000063,1.0,0.0,0.0,,Click To Continue,Next button,7.0,object-60,temp_dist_trial,20.0,s_sh_22_1,student_shared,hole puncher,6.0,competing,paired,s_sh_22_1.jpg,Student,,,sub-40
Desktop or Laptop,Windows 10,Chrome 137.0.0.0,1536x864,1536x864,Temporal Distance Task,cb_06,68.0,temp_dist_trial,dist_items,qkpkxw,2.0,response,66,916.8000000000177,2233.1000000000063,2244.700000023848,916.8000000000177,2233.1000000000063,2244.700000023848,1.0,1327.9000000238302,0.0,,Slider,Slider,4.0,object-56,temp_dist_trial,20.0,s_sh_22_1,student_shared,hole puncher,6.0,competing,paired,s_sh_22_1.jpg,Student,,,sub-40
Desktop or Laptop,Windows 10,Chrome 137.0.0.0,1536x864,1536x864,Temporal Distance Task,cb_06,69.0,temp_dist_trial,num_items,zn7si1,1.0,response,1_ITEM,1066.100000023842,1050.2999999999884,1066.100000023842,1066.100000023842,1050.2999999999884,1066.100000023842,1.0,0.0,0.0,,Click Response,1_count,3.0,object-46,temp_dist_trial,21.0,s_s_04_1,student_stem,bunsen burner,6.0,unique,single,s_s_04_1.jpg,Student,,,sub-40
Desktop or Laptop,Windows 10,Chrome 137.0.0.0,1536x864,1536x864,Temporal Distance Task,cb_06,70.0,temp_dist_trial,num_items,zn7si1,1.0,response,2_ITEM,1176.2000000238475,1166.6000000000058,1176.2000000238475,1176.2000000238475,1166.6000000000058,1176.2000000238475,1.0,0.0,0.0,,Click Response,2_count,5.0,object-49,temp_dist_trial,22.0,s_sh_01_1,student_shared,notebook,6.0,competing,paired,s_sh_01_1.jpg,Student,,,sub-40
Desktop or Laptop,Windows 10,Chrome 137.0.0.0,1536x864,1536x864,Temporal Distance Task,cb_06,70.0,temp_dist_trial,dist_items,qkpkxw,2.0,info,,3.6000000000058208,0.0,3.6000000000058208,3.6000000000058208,0.0,3.6000000000058208,1.0,0.0,0.0,,Slider,Slider,4.0,object-56,temp_dist_trial,22.0,s_sh_01_1,student_shared,notebook,6.0,competing,paired,s_sh_01_1.jpg,Student,,,sub-40
Desktop or Laptop,Windows 10,Chrome 137.0.0.0,1536x864,1536x864,Temporal Distance Task,cb_06,70.0,temp_dist_trial,dist_items,qkpkxw,2.0,continue,,2403.4000000715314,2400.300000000017,2403.4000000715314,2403.4000000715314,2400.300000000017,2403.4000000715314,1.0,0.0,0.0,,Click To Continue,Next button,7.0,object-60,temp_dist_trial,22.0,s_sh_01_1,student_shared,notebook,6.0,competing,paired,s_sh_01_1.jpg,Student,,,sub-40
Desktop or Laptop,Windows 10,Chrome 137.0.0.0,1536x864,1536x864,Temporal Distance Task,cb_06,70.0,temp_dist_trial,dist_items,qkpkxw,2.0,response,37,1150.3999999999942,2400.300000000017,2404.200000023848,1150.3999999999942,2400.300000000017,2404.200000023848,1.0,1253.8000000238535,0.0,,Slider,Slider,4.0,object-56,temp_dist_trial,22.0,s_sh_01_1,student_shared,notebook,6.0,competing,paired,s_sh_01_1.jpg,Student,,,sub-40
Desktop or Laptop,Windows 10,Chrome 137.0.0.0,1536x864,1536x864,Temporal Distance Task,cb_06,71.0,temp_dist_trial,num_items,zn7si1,1.0,response,1_ITEM,1237.7999999999886,1233.7999999999886,1237.7999999999886,1237.7999999999886,1233.7999999999886,1237.7999999999886,1.0,0.0,0.0,,Click Response,1_count,3.0,object-46,temp_dist_trial,23.0,s_sh_21_1,student_shared,file holder,6.0,competing,single,s_sh_21_1.jpg,Student,,,sub-40
Desktop or Laptop,Windows 10,Chrome 137.0.0.0,1536x864,1536x864,Temporal Distance Task,cb_06,72.0,temp_dist_trial,num_items,zn7si1,1.0,response,1_ITEM,1066.999999999971,1050.2999999999884,1066.999999999971,1066.999999999971,1050.2999999999884,1066.999999999971,1.0,0.0,0.0,,Click Response,1_count,3.0,object-46,temp_dist_trial,24.0,s_sh_02_1,student_shared,eraser,6.0,competing,single,s_sh_02_1.jpg,Student,,,sub-40
Desktop or Laptop,Windows 10,Chrome 137.0.0.0,1536x864,1536x864,Temporal Distance Task,cb_06,73.0,temp_dist_trial,num_items,zn7si1,1.0,response,1_ITEM,1058.4000000238302,1050.3999999999942,1058.4000000238302,1058.4000000238302,1050.3999999999942,1058.4000000238302,1.0,0.0,0.0,,Click Response,1_count,3.0,object-46,temp_dist_trial,25.0,s_s_20_1,student_stem,dna model,6.0,unique,paired,s_s_20_1.jpg,Student,,,sub-40
Desktop or Laptop,Windows 10,Chrome 137.0.0.0,1536x864,1536x864,Temporal Distance Task,cb_06,74.0,temp_dist_trial,num_items,zn7si1,1.0,response,1_ITEM,1248.5999999761698,1233.7000000000114,1248.5999999761698,1248.5999999761698,1233.7000000000114,1248.5999999761698,1.0,0.0,0.0,,Click Response,1_count,3.0,object-46,temp_dist_trial,26.0,s_sh_17_1,student_shared,wireless mouse,6.0,competing,paired,s_sh_17_1.jpg,Student,,,sub-40
Desktop or Laptop,Windows 10,Chrome 137.0.0.0,1536x864,1536x864,Temporal Distance Task,cb_06,75.0,temp_dist_trial,num_items,zn7si1,1.0,response,2_ITEM,1158.9000000715316,1150.2000000000114,1158.9000000715316,1158.9000000715316,1150.2000000000114,1158.9000000715316,1.0,0.0,0.0,,Click Response,2_count,5.0,object-49,temp_dist_trial,27.0,s_sh_10_1,student_shared,scissors,6.0,competing,paired,s_sh_10_1.jpg,Student,,,sub-40
Desktop or Laptop,Windows 10,Chrome 137.0.0.0,1536x864,1536x864,Temporal Distance Task,cb_06,75.0,temp_dist_trial,dist_items,qkpkxw,2.0,info,,3.7000000000116415,0.0,3.7000000000116415,3.7000000000116415,0.0,3.7000000000116415,1.0,0.0,0.0,,Slider,Slider,4.0,object-56,temp_dist_trial,27.0,s_sh_10_1,student_shared,scissors,6.0,competing,paired,s_sh_10_1.jpg,Student,,,sub-40
Desktop or Laptop,Windows 10,Chrome 137.0.0.0,1536x864,1536x864,Temporal Distance Task,cb_06,75.0,temp_dist_trial,dist_items,qkpkxw,2.0,continue,,1648.8000000238535,1633.9000000000233,1648.8000000238535,1648.8000000238535,1633.9000000000233,1648.8000000238535,1.0,0.0,0.0,,Click To Continue,Next button,7.0,object-60,temp_dist_trial,27.0,s_sh_10_1,student_shared,scissors,6.0,competing,paired,s_sh_10_1.jpg,Student,,,sub-40
Desktop or Laptop,Windows 10,Chrome 137.0.0.0,1536x864,1536x864,Temporal Distance Task,cb_06,75.0,temp_dist_trial,dist_items,qkpkxw,2.0,response,42,816.7000000000116,1633.9000000000233,1649.3000000238535,816.7000000000116,1633.9000000000233,1649.3000000238535,1.0,832.6000000238419,0.0,,Slider,Slider,4.0,object-56,temp_dist_trial,27.0,s_sh_10_1,student_shared,scissors,6.0,competing,paired,s_sh_10_1.jpg,Student,,,sub-40
Desktop or Laptop,Windows 10,Chrome 137.0.0.0,1536x864,1536x864,Temporal Distance Task,cb_06,76.0,temp_dist_trial,num_items,zn7si1,1.0,response,1_ITEM,1425.9000000238302,1416.3999999999942,1425.9000000238302,1425.9000000238302,1416.3999999999942,1425.9000000238302,1.0,0.0,0.0,,Click Response,1_count,3.0,object-46,temp_dist_trial,28.0,s_a_08_1,student_art,sewing machine,6.0,unique,paired,s_a_08_1.jpg,Student,,,sub-40
Desktop or Laptop,Windows 10,Chrome 137.0.0.0,1536x864,1536x864,Temporal Distance Task,cb_06,77.0,temp_dist_trial,num_items,zn7si1,1.0,response,1_ITEM,1056.0999999761698,1050.0,1056.0999999761698,1056.0999999761698,1050.0,1056.0999999761698,1.0,0.0,0.0,,Click Response,1_count,3.0,object-46,temp_dist_trial,29.0,s_sh_15_1,student_shared,usb drive,6.0,competing,paired,s_sh_15_1.jpg,Student,,,sub-40
Desktop or Laptop,Windows 10,Chrome 137.0.0.0,1536x864,1536x864,Temporal Distance Task,cb_06,78.0,temp_dist_trial,num_items,zn7si1,1.0,response,1_ITEM,1326.7000000000114,1316.9000000000233,1326.7000000000114,1326.7000000000114,1316.9000000000233,1326.7000000000114,1.0,0.0,0.0,,Click Response,1_count,3.0,object-46,temp_dist_trial,30.0,s_a_06_1,student_art,pastels,6.0,unique,paired,s_a_06_1.jpg,Student,,,sub-40
Desktop or Laptop,Windows 10,Chrome 137.0.0.0,1536x864,1536x864,Temporal Distance Task,cb_06,79.0,temp_dist_trial,num_items,zn7si1,1.0,response,1_ITEM,993.2000000000116,983.4000000000232,993.2000000000116,993.2000000000116,983.4000000000232,993.2000000000116,1.0,0.0,0.0,,Click Response,1_count,3.0,object-46,temp_dist_trial,31.0,s_a_20_1,student_art,pin cushion,6.0,unique,single,s_a_20_1.jpg,Student,,,sub-40
Desktop or Laptop,Windows 10,Chrome 137.0.0.0,1536x864,1536x864,Temporal Distance Task,cb_06,80.0,temp_dist_trial,num_items,zn7si1,1.0,response,2_ITEM,1250.7000000000407,1233.8000000000175,1250.7000000000407,1250.7000000000407,1233.8000000000175,1250.7000000000407,1.0,0.0,0.0,,Click Response,2_count,5.0,object-49,temp_dist_trial,32.0,s_sh_18_1,student_shared,wall calendar,6.0,competing,paired,s_sh_18_1.jpg,Student,,,sub-40
Desktop or Laptop,Windows 10,Chrome 137.0.0.0,1536x864,1536x864,Temporal Distance Task,cb_06,80.0,temp_dist_trial,dist_items,qkpkxw,2.0,info,,4.299999976152321,0.0,4.299999976152321,4.299999976152321,0.0,4.299999976152321,1.0,0.0,0.0,,Slider,Slider,4.0,object-56,temp_dist_trial,32.0,s_sh_18_1,student_shared,wall calendar,6.0,competing,paired,s_sh_18_1.jpg,Student,,,sub-40
Desktop or Laptop,Windows 10,Chrome 137.0.0.0,1536x864,1536x864,Temporal Distance Task,cb_06,80.0,temp_dist_trial,dist_items,qkpkxw,2.0,continue,,1992.7999999761525,1983.5,1992.7999999761525,1992.7999999761525,1983.5,1992.7999999761525,1.0,0.0,0.0,,Click To Continue,Next button,7.0,object-60,temp_dist_trial,32.0,s_sh_18_1,student_shared,wall calendar,6.0,competing,paired,s_sh_18_1.jpg,Student,,,sub-40
Desktop or Laptop,Windows 10,Chrome 137.0.0.0,1536x864,1536x864,Temporal Distance Task,cb_06,80.0,temp_dist_trial,dist_items,qkpkxw,2.0,response,60,983.2999999999884,1983.5,1993.100000047678,983.2999999999884,1983.5,1993.100000047678,1.0,1009.8000000476897,0.0,,Slider,Slider,4.0,object-56,temp_dist_trial,32.0,s_sh_18_1,student_shared,wall calendar,6.0,competing,paired,s_sh_18_1.jpg,Student,,,sub-40
Desktop or Laptop,Windows 10,Chrome 137.0.0.0,1536x864,1536x864,Temporal Distance Task,cb_06,81.0,temp_dist_trial,num_items,zn7si1,1.0,response,2_ITEM,1643.3999999999942,1633.5,1643.3999999999942,1643.3999999999942,1633.5,1643.3999999999942,1.0,0.0,0.0,,Click Response,2_count,5.0,object-49,temp_dist_trial,33.0,s_sh_04_1,student_shared,laptop stand,6.0,competing,paired,s_sh_04_1.jpg,Student,,,sub-40
Desktop or Laptop,Windows 10,Chrome 137.0.0.0,1536x864,1536x864,Temporal Distance Task,cb_06,81.0,temp_dist_trial,dist_items,qkpkxw,2.0,info,,3.1999999761465014,0.0,3.1999999761465014,3.1999999761465014,0.0,3.1999999761465014,1.0,0.0,0.0,,Slider,Slider,4.0,object-56,temp_dist_trial,33.0,s_sh_04_1,student_shared,laptop stand,6.0,competing,paired,s_sh_04_1.jpg,Student,,,sub-40
Desktop or Laptop,Windows 10,Chrome 137.0.0.0,1536x864,1536x864,Temporal Distance Task,cb_06,81.0,temp_dist_trial,dist_items,qkpkxw,2.0,continue,,2251.9000000238298,2249.8999999999937,2251.9000000238298,2251.9000000238298,2249.8999999999937,2251.9000000238298,1.0,0.0,0.0,,Click To Continue,Next button,7.0,object-60,temp_dist_trial,33.0,s_sh_04_1,student_shared,laptop stand,6.0,competing,paired,s_sh_04_1.jpg,Student,,,sub-40
Desktop or Laptop,Windows 10,Chrome 137.0.0.0,1536x864,1536x864,Temporal Distance Task,cb_06,81.0,temp_dist_trial,dist_items,qkpkxw,2.0,response,64,1149.7999999999886,2249.8999999999937,2255.600000071514,1149.7999999999886,2249.8999999999937,2255.600000071514,1.0,1105.8000000715256,0.0,,Slider,Slider,4.0,object-56,temp_dist_trial,33.0,s_sh_04_1,student_shared,laptop stand,6.0,competing,paired,s_sh_04_1.jpg,Student,,,sub-40
Desktop or Laptop,Windows 10,Chrome 137.0.0.0,1536x864,1536x864,Temporal Distance Task,cb_06,82.0,temp_dist_trial,num_items,zn7si1,1.0,response,2_ITEM,1507.500000023836,1500.3999999999942,1507.500000023836,1507.500000023836,1500.3999999999942,1507.500000023836,1.0,0.0,0.0,,Click Response,2_count,5.0,object-49,temp_dist_trial,34.0,s_s_06_1,student_stem,calculator,6.0,unique,paired,s_s_06_1.jpg,Student,,,sub-40
Desktop or Laptop,Windows 10,Chrome 137.0.0.0,1536x864,1536x864,Temporal Distance Task,cb_06,82.0,temp_dist_trial,dist_items,qkpkxw,2.0,info,,3.5000000476720743,0.0,3.5000000476720743,3.5000000476720743,0.0,3.5000000476720743,1.0,0.0,0.0,,Slider,Slider,4.0,object-56,temp_dist_trial,34.0,s_s_06_1,student_stem,calculator,6.0,unique,paired,s_s_06_1.jpg,Student,,,sub-40
Desktop or Laptop,Windows 10,Chrome 137.0.0.0,1536x864,1536x864,Temporal Distance Task,cb_06,82.0,temp_dist_trial,dist_items,qkpkxw,2.0,continue,,1823.500000047672,1817.2999999999884,1823.500000047672,1823.500000047672,1817.2999999999884,1823.500000047672,1.0,0.0,0.0,,Click To Continue,Next button,7.0,object-60,temp_dist_trial,34.0,s_s_06_1,student_stem,calculator,6.0,unique,paired,s_s_06_1.jpg,Student,,,sub-40
Desktop or Laptop,Windows 10,Chrome 137.0.0.0,1536x864,1536x864,Temporal Distance Task,cb_06,82.0,temp_dist_trial,dist_items,qkpkxw,2.0,response,40,667.0,1817.2999999999884,1823.900000023831,667.0,1817.2999999999884,1823.900000023831,1.0,1156.9000000238302,0.0,,Slider,Slider,4.0,object-56,temp_dist_trial,34.0,s_s_06_1,student_stem,calculator,6.0,unique,paired,s_s_06_1.jpg,Student,,,sub-40
Desktop or Laptop,Windows 10,Chrome 137.0.0.0,1536x864,1536x864,Temporal Distance Task,cb_06,83.0,temp_dist_trial,num_items,zn7si1,1.0,response,1_ITEM,1112.2000000476835,1100.0,1112.2000000476835,1112.2000000476835,1100.0,1112.2000000476835,1.0,0.0,0.0,,Click Response,1_count,3.0,object-46,temp_dist_trial,35.0,s_a_01_1,student_art,paintbrush,6.0,unique,paired,s_a_01_1.jpg,Student,,,sub-40
Desktop or Laptop,Windows 10,Chrome 137.0.0.0,1536x864,1536x864,Temporal Distance Task,cb_06,84.0,temp_dist_trial,num_items,zn7si1,1.0,response,2_ITEM,1204.6999999761465,1200.0999999999767,1204.6999999761465,1204.6999999761465,1200.0999999999767,1204.6999999761465,1.0,0.0,0.0,,Click Response,2_count,5.0,object-49,temp_dist_trial,36.0,s_s_03_1,student_stem,petri dish,6.0,unique,paired,s_s_03_1.jpg,Student,,,sub-40
Desktop or Laptop,Windows 10,Chrome 137.0.0.0,1536x864,1536x864,Temporal Distance Task,cb_06,84.0,temp_dist_trial,dist_items,qkpkxw,2.0,info,,4.800000047660434,0.0,4.800000047660434,4.800000047660434,0.0,4.800000047660434,1.0,0.0,0.0,,Slider,Slider,4.0,object-56,temp_dist_trial,36.0,s_s_03_1,student_stem,petri dish,6.0,unique,paired,s_s_03_1.jpg,Student,,,sub-40
Desktop or Laptop,Windows 10,Chrome 137.0.0.0,1536x864,1536x864,Temporal Distance Task,cb_06,84.0,temp_dist_trial,dist_items,qkpkxw,2.0,continue,,2054.7000000238186,2050.399999999965,2054.7000000238186,2054.7000000238186,2050.399999999965,2054.7000000238186,1.0,0.0,0.0,,Click To Continue,Next button,7.0,object-60,temp_dist_trial,36.0,s_s_03_1,student_stem,petri dish,6.0,unique,paired,s_s_03_1.jpg,Student,,,sub-40
Desktop or Laptop,Windows 10,Chrome 137.0.0.0,1536x864,1536x864,Temporal Distance Task,cb_06,84.0,temp_dist_trial,dist_items,qkpkxw,2.0,response,29,1033.7999999999884,2050.399999999965,2055.499999976135,1033.7999999999884,2050.399999999965,2055.499999976135,1.0,1021.6999999761464,0.0,,Slider,Slider,4.0,object-56,temp_dist_trial,36.0,s_s_03_1,student_stem,petri dish,6.0,unique,paired,s_s_03_1.jpg,Student,,,sub-40
Desktop or Laptop,Windows 10,Chrome 137.0.0.0,1536x864,1536x864,Temporal Distance Task,cb_06,85.0,temp_dist_trial,num_items,zn7si1,1.0,response,2_ITEM,1180.9000000476954,1166.7999999999886,1180.9000000476954,1180.9000000476954,1166.7999999999886,1180.9000000476954,1.0,0.0,0.0,,Click Response,2_count,5.0,object-49,temp_dist_trial,37.0,s_sh_08_1,student_shared,post-its,6.0,competing,paired,s_sh_08_1.jpg,Student,,,sub-40
Desktop or Laptop,Windows 10,Chrome 137.0.0.0,1536x864,1536x864,Temporal Distance Task,cb_06,85.0,temp_dist_trial,dist_items,qkpkxw,2.0,info,,4.099999999976717,0.0,4.099999999976717,4.099999999976717,0.0,4.099999999976717,1.0,0.0,0.0,,Slider,Slider,4.0,object-56,temp_dist_trial,37.0,s_sh_08_1,student_shared,post-its,6.0,competing,paired,s_sh_08_1.jpg,Student,,,sub-40
Desktop or Laptop,Windows 10,Chrome 137.0.0.0,1536x864,1536x864,Temporal Distance Task,cb_06,85.0,temp_dist_trial,dist_items,qkpkxw,2.0,continue,,1735.9000000715023,1733.2999999999884,1735.9000000715023,1735.9000000715023,1733.2999999999884,1735.9000000715023,1.0,0.0,0.0,,Click To Continue,Next button,7.0,object-60,temp_dist_trial,37.0,s_sh_08_1,student_shared,post-its,6.0,competing,paired,s_sh_08_1.jpg,Student,,,sub-40
Desktop or Laptop,Windows 10,Chrome 137.0.0.0,1536x864,1536x864,Temporal Distance Task,cb_06,85.0,temp_dist_trial,dist_items,qkpkxw,2.0,response,65,833.7999999999884,1733.2999999999884,1742.0999999999767,833.7999999999884,1733.2999999999884,1742.0999999999767,1.0,908.2999999999884,0.0,,Slider,Slider,4.0,object-56,temp_dist_trial,37.0,s_sh_08_1,student_shared,post-its,6.0,competing,paired,s_sh_08_1.jpg,Student,,,sub-40
Desktop or Laptop,Windows 10,Chrome 137.0.0.0,1536x864,1536x864,Temporal Distance Task,cb_06,86.0,temp_dist_trial,num_items,zn7si1,1.0,response,1_ITEM,1202.500000047672,1200.0999999999767,1202.500000047672,1202.500000047672,1200.0999999999767,1202.500000047672,1.0,0.0,0.0,,Click Response,1_count,3.0,object-46,temp_dist_trial,38.0,s_s_12_1,student_stem,robotic arm,6.0,unique,single,s_s_12_1.jpg,Student,,,sub-40
Desktop or Laptop,Windows 10,Chrome 137.0.0.0,1536x864,1536x864,Temporal Distance Task,cb_06,87.0,temp_dist_trial,num_items,zn7si1,1.0,response,2_ITEM,1106.0999999999767,1100.5999999999767,1106.0999999999767,1106.0999999999767,1100.5999999999767,1106.0999999999767,1.0,0.0,0.0,,Click Response,2_count,5.0,object-49,temp_dist_trial,39.0,s_sh_06_1,student_shared,clipboard,6.0,competing,paired,s_sh_06_1.jpg,Student,,,sub-40
Desktop or Laptop,Windows 10,Chrome 137.0.0.0,1536x864,1536x864,Temporal Distance Task,cb_06,87.0,temp_dist_trial,dist_items,qkpkxw,2.0,info,,3.700000047683716,0.0,3.700000047683716,3.700000047683716,0.0,3.700000047683716,1.0,0.0,0.0,,Slider,Slider,4.0,object-56,temp_dist_trial,39.0,s_sh_06_1,student_shared,clipboard,6.0,competing,paired,s_sh_06_1.jpg,Student,,,sub-40
Desktop or Laptop,Windows 10,Chrome 137.0.0.0,1536x864,1536x864,Temporal Distance Task,cb_06,87.0,temp_dist_trial,dist_items,qkpkxw,2.0,continue,,1904.3000000715256,1900.4000000000235,1904.3000000715256,1904.3000000715256,1900.4000000000235,1904.3000000715256,1.0,0.0,0.0,,Click To Continue,Next button,7.0,object-60,temp_dist_trial,39.0,s_sh_06_1,student_shared,clipboard,6.0,competing,paired,s_sh_06_1.jpg,Student,,,sub-40
Desktop or Laptop,Windows 10,Chrome 137.0.0.0,1536x864,1536x864,Temporal Distance Task,cb_06,87.0,temp_dist_trial,dist_items,qkpkxw,2.0,response,78,816.9000000000232,1900.4000000000235,1904.8000000715256,816.9000000000232,1900.4000000000235,1904.8000000715256,1.0,1087.9000000715023,0.0,,Slider,Slider,4.0,object-56,temp_dist_trial,39.0,s_sh_06_1,student_shared,clipboard,6.0,competing,paired,s_sh_06_1.jpg,Student,,,sub-40
Desktop or Laptop,Windows 10,Chrome 137.0.0.0,1536x864,1536x864,Temporal Distance Task,cb_06,88.0,temp_dist_trial,num_items,zn7si1,1.0,response,2_ITEM,1157.3000000476604,1150.2999999999886,1157.3000000476604,1157.3000000476604,1150.2999999999886,1157.3000000476604,1.0,0.0,0.0,,Click Response,2_count,5.0,object-49,temp_dist_trial,40.0,s_sh_05_1,student_shared,laptop,6.0,competing,single,s_sh_05_1.jpg,Student,,,sub-40
Desktop or Laptop,Windows 10,Chrome 137.0.0.0,1536x864,1536x864,Temporal Distance Task,cb_06,88.0,temp_dist_trial,dist_items,qkpkxw,2.0,info,,3.2999999999883585,0.0,3.2999999999883585,3.2999999999883585,0.0,3.2999999999883585,1.0,0.0,0.0,,Slider,Slider,4.0,object-56,temp_dist_trial,40.0,s_sh_05_1,student_shared,laptop,6.0,competing,single,s_sh_05_1.jpg,Student,,,sub-40
Desktop or Laptop,Windows 10,Chrome 137.0.0.0,1536x864,1536x864,Temporal Distance Task,cb_06,88.0,temp_dist_trial,dist_items,qkpkxw,2.0,continue,,2481.000000047672,2467.200000000012,2481.000000047672,2481.000000047672,2467.200000000012,2481.000000047672,1.0,0.0,0.0,,Click To Continue,Next button,7.0,object-60,temp_dist_trial,40.0,s_sh_05_1,student_shared,laptop,6.0,competing,single,s_sh_05_1.jpg,Student,,,sub-40
Desktop or Laptop,Windows 10,Chrome 137.0.0.0,1536x864,1536x864,Temporal Distance Task,cb_06,88.0,temp_dist_trial,dist_items,qkpkxw,2.0,response,62,1150.2000000000114,2467.200000000012,2481.9000000238298,1150.2000000000114,2467.200000000012,2481.9000000238298,1.0,1331.7000000238186,0.0,,Slider,Slider,4.0,object-56,temp_dist_trial,40.0,s_sh_05_1,student_shared,laptop,6.0,competing,single,s_sh_05_1.jpg,Student,,,sub-40
Desktop or Laptop,Windows 10,Chrome 137.0.0.0,1536x864,1536x864,Temporal Distance Task,cb_06,89.0,temp_dist_trial,num_items,zn7si1,1.0,response,2_ITEM,1414.9000000715023,1400.0999999999767,1414.9000000715023,1414.9000000715023,1400.0999999999767,1414.9000000715023,1.0,0.0,0.0,,Click Response,2_count,5.0,object-49,temp_dist_trial,41.0,s_sh_14_1,student_shared,printer,6.0,competing,paired,s_sh_14_1.jpg,Student,,,sub-40
Desktop or Laptop,Windows 10,Chrome 137.0.0.0,1536x864,1536x864,Temporal Distance Task,cb_06,89.0,temp_dist_trial,dist_items,qkpkxw,2.0,info,,3.5000000476720743,0.0,3.5000000476720743,3.5000000476720743,0.0,3.5000000476720743,1.0,0.0,0.0,,Slider,Slider,4.0,object-56,temp_dist_trial,41.0,s_sh_14_1,student_shared,printer,6.0,competing,paired,s_sh_14_1.jpg,Student,,,sub-40
Desktop or Laptop,Windows 10,Chrome 137.0.0.0,1536x864,1536x864,Temporal Distance Task,cb_06,89.0,temp_dist_trial,dist_items,qkpkxw,2.0,continue,,2249.100000071514,2233.399999999965,2249.100000071514,2249.100000071514,2233.399999999965,2249.100000071514,1.0,0.0,0.0,,Click To Continue,Next button,7.0,object-60,temp_dist_trial,41.0,s_sh_14_1,student_shared,printer,6.0,competing,paired,s_sh_14_1.jpg,Student,,,sub-40
Desktop or Laptop,Windows 10,Chrome 137.0.0.0,1536x864,1536x864,Temporal Distance Task,cb_06,89.0,temp_dist_trial,dist_items,qkpkxw,2.0,response,38,1033.0999999999767,2233.399999999965,2249.4000000238298,1033.0999999999767,2233.399999999965,2249.4000000238298,1.0,1216.3000000238535,0.0,,Slider,Slider,4.0,object-56,temp_dist_trial,41.0,s_sh_14_1,student_shared,printer,6.0,competing,paired,s_sh_14_1.jpg,Student,,,sub-40
Desktop or Laptop,Windows 10,Chrome 137.0.0.0,1536x864,1536x864,Temporal Distance Task,cb_06,90.0,temp_dist_trial,num_items,zn7si1,1.0,response,1_ITEM,945.7000000715487,933.3000000000467,945.7000000715487,945.7000000715487,933.3000000000467,945.7000000715487,1.0,0.0,0.0,,Click Response,1_count,3.0,object-46,temp_dist_trial,42.0,s_s_05_1,student_stem,lab goggles,6.0,unique,single,s_s_05_1.jpg,Student,,,sub-40
Desktop or Laptop,Windows 10,Chrome 137.0.0.0,1536x864,1536x864,Temporal Distance Task,cb_06,91.0,temp_dist_trial,num_items,zn7si1,1.0,response,1_ITEM,1516.600000071514,1500.2999999999884,1516.600000071514,1516.600000071514,1500.2999999999884,1516.600000071514,1.0,0.0,0.0,,Click Response,1_count,3.0,object-46,temp_dist_trial,43.0,s_sh_16_1,student_shared,stapler,6.0,competing,single,s_sh_16_1.jpg,Student,,,sub-40
Desktop or Laptop,Windows 10,Chrome 137.0.0.0,1536x864,1536x864,Temporal Distance Task,cb_06,92.0,temp_dist_trial,num_items,zn7si1,1.0,response,1_ITEM,1080.5999999999767,1067.0,1080.5999999999767,1080.5999999999767,1067.0,1080.5999999999767,1.0,0.0,0.0,,Click Response,1_count,3.0,object-46,temp_dist_trial,44.0,s_sh_20_1,student_shared,tape,6.0,competing,paired,s_sh_20_1.jpg,Student,,,sub-40
Desktop or Laptop,Windows 10,Chrome 137.0.0.0,1536x864,1536x864,Temporal Distance Task,cb_06,93.0,temp_dist_trial,num_items,zn7si1,1.0,response,1_ITEM,1077.3000000476604,1066.6999999999532,1077.3000000476604,1077.3000000476604,1066.6999999999532,1077.3000000476604,1.0,0.0,0.0,,Click Response,1_count,3.0,object-46,temp_dist_trial,45.0,s_s_17_1,student_stem,ring stand,6.0,unique,paired,s_s_17_1.jpg,Student,,,sub-40
Desktop or Laptop,Windows 10,Chrome 137.0.0.0,1536x864,1536x864,Temporal Distance Task,cb_06,94.0,temp_dist_trial,num_items,zn7si1,1.0,response,1_ITEM,1194.8000000476604,1183.5,1194.8000000476604,1194.8000000476604,1183.5,1194.8000000476604,1.0,0.0,0.0,,Click Response,1_count,3.0,object-46,temp_dist_trial,46.0,s_sh_24_1,student_shared,desk organizer,6.0,competing,paired,s_sh_24_1.jpg,Student,,,sub-40
Desktop or Laptop,Windows 10,Chrome 137.0.0.0,1536x864,1536x864,Temporal Distance Task,cb_06,95.0,temp_dist_trial,num_items,zn7si1,1.0,response,2_ITEM,1075.8000000238535,1067.2000000000116,1075.8000000238535,1075.8000000238535,1067.2000000000116,1075.8000000238535,1.0,0.0,0.0,,Click Response,2_count,5.0,object-49,temp_dist_trial,47.0,s_s_16_1,student_stem,toolbox,6.0,unique,paired,s_s_16_1.jpg,Student,,,sub-40
Desktop or Laptop,Windows 10,Chrome 137.0.0.0,1536x864,1536x864,Temporal Distance Task,cb_06,95.0,temp_dist_trial,dist_items,qkpkxw,2.0,info,,4.199999976146501,0.0,4.199999976146501,4.199999976146501,0.0,4.199999976146501,1.0,0.0,0.0,,Slider,Slider,4.0,object-56,temp_dist_trial,47.0,s_s_16_1,student_stem,toolbox,6.0,unique,paired,s_s_16_1.jpg,Student,,,sub-40
Desktop or Laptop,Windows 10,Chrome 137.0.0.0,1536x864,1536x864,Temporal Distance Task,cb_06,95.0,temp_dist_trial,dist_items,qkpkxw,2.0,continue,,2208.500000047672,2200.5999999999767,2208.500000047672,2208.500000047672,2200.5999999999767,2208.500000047672,1.0,0.0,0.0,,Click To Continue,Next button,7.0,object-60,temp_dist_trial,47.0,s_s_16_1,student_stem,toolbox,6.0,unique,paired,s_s_16_1.jpg,Student,,,sub-40
Desktop or Laptop,Windows 10,Chrome 137.0.0.0,1536x864,1536x864,Temporal Distance Task,cb_06,95.0,temp_dist_trial,dist_items,qkpkxw,2.0,response,61,1017.2000000000116,2200.5999999999767,2208.9000000238298,1017.2000000000116,2200.5999999999767,2208.9000000238298,1.0,1191.7000000238186,0.0,,Slider,Slider,4.0,object-56,temp_dist_trial,47.0,s_s_16_1,student_stem,toolbox,6.0,unique,paired,s_s_16_1.jpg,Student,,,sub-40
Desktop or Laptop,Windows 10,Chrome 137.0.0.0,1536x864,1536x864,Temporal Distance Task,cb_06,96.0,temp_dist_trial,num_items,zn7si1,1.0,response,1_ITEM,1153.0000000715372,1150.0,1153.0000000715372,1153.0000000715372,1150.0,1153.0000000715372,1.0,0.0,0.0,,Click Response,1_count,3.0,object-46,temp_dist_trial,48.0,s_a_04_1,student_art,easel,6.0,unique,single,s_a_04_1.jpg,Student,,,sub-40
Desktop or Laptop,Windows 10,Chrome 137.0.0.0,1536x864,1536x864,Temporal Distance Task,$${counterbalance_group},,,,,,info,END,,,293199.0,,,,0.0,,,,,,,,,,,,,,,,,,,,sub-40
