Participant Device,Participant OS,Participant Browser,Participant Monitor Size,Participant Viewport Size,Task Name,Current Spreadsheet,Trial Number,Display,Screen,Screen ID,Screen Counter,Response Type,Response,Onset Time,Clock Time,Reaction Time,Absolute Onset Time,Absolute Clock Time,Absolute Reaction Time,Correct,Response Duration,Proportion,Tag,Component Name,Object Name,Object Number,Object ID,Spreadsheet: display,Spreadsheet: trial,Spreadsheet: stimulus_id,Spreadsheet: expected_goal,Spreadsheet: stimulus_name,Spreadsheet: c_group,Spreadsheet: condition,Spreadsheet: paired_status,Spreadsheet: stimulus_path,Spreadsheet: block_type,Manipulation: Spreadsheet,Store: enc_test_acc,sub_label
Desktop or Laptop,Windows 10,Chrome 138.0.0.0,1280x1080,1536x935,Temporal Distance Task,$${counterbalance_group},,,,,,info,BEGIN,,,,,,,0.0,,,,,,,,,,,,,,,,,,,,sub-61
Desktop or Laptop,Windows 10,Chrome 138.0.0.0,1280x1080,1536x935,Temporal Distance Task,cb_04,1.0,temp_instructions,intro_screen,3tnme7,1.0,continue,,4181.100000095367,4168.3,4181.100000095367,4181.100000095367,4168.3,4181.100000095367,1.0,0.0,0.0,,Click To Continue,Continue Button,4.0,object-29,temp_instructions,,,Travel,,,,,,,,,sub-61
Desktop or Laptop,Windows 10,Chrome 138.0.0.0,1280x1080,1536x935,Temporal Distance Task,cb_04,1.0,temp_instructions,intro_screen_2,52v7ur,2.0,continue,,7673.700000190734,7669.4,7673.700000190734,7673.700000190734,7669.4,7673.700000190734,1.0,0.0,0.0,,Click To Continue,Continue Button,4.0,object-39,temp_instructions,,,Travel,,,,,,,,,sub-61
Desktop or Laptop,Windows 10,Chrome 138.0.0.0,1280x1080,1536x935,Temporal Distance Task,cb_04,1.0,temp_instructions,intro_screen_3,i7lvwx,3.0,continue,,1845.8000001907349,1834.2000000000005,1845.8000001907349,1845.8000001907349,1834.2000000000005,1845.8000001907349,1.0,0.0,0.0,,Click To Continue,Continue Button,4.0,object-67,temp_instructions,,,Travel,,,,,,,,,sub-61
Desktop or Laptop,Windows 10,Chrome 138.0.0.0,1280x1080,1536x935,Temporal Distance Task,cb_04,1.0,temp_instructions,test_q1,5ieqx1,4.0,response,choice_3,5499.600000190732,5485.399999999998,5499.600000190732,5499.600000190732,5485.399999999998,5499.600000190732,1.0,0.0,0.0,,Click Response,choice_3,5.0,object-345,temp_instructions,,,Travel,,,,,,,,,sub-61
Desktop or Laptop,Windows 10,Chrome 138.0.0.0,1280x1080,1536x935,Temporal Distance Task,cb_04,1.0,temp_instructions,score_corr,7ilvjr,5.0,continue,,1028.6000002861038,1017.0,1028.6000002861038,1028.6000002861038,1017.0,1028.6000002861038,1.0,0.0,0.0,,Click To Continue,Continue Button,3.0,object-23,temp_instructions,,,Travel,,,,,,,,,sub-61
Desktop or Laptop,Windows 10,Chrome 138.0.0.0,1280x1080,1536x935,Temporal Distance Task,cb_04,1.0,temp_eventStart,Screen 1,dgtyxe,1.0,continue,,1516.4000000000015,1500.7000000000005,1516.4000000000015,1516.4000000000015,1500.7000000000005,1516.4000000000015,1.0,0.0,0.0,,Click To Continue,Next Button,3.0,object-43,temp_eventStart,,,Travel,,,,,,,,,sub-61
Desktop or Laptop,Windows 10,Chrome 138.0.0.0,1280x1080,1536x935,Temporal Distance Task,cb_04,1.0,temp_dist_trial,num_items,zn7si1,1.0,response,1_ITEM,1967.4000000000005,1950.7000000000005,1967.4000000000005,1967.4000000000005,1950.7000000000005,1967.4000000000005,1.0,0.0,0.0,,Click Response,1_count,3.0,object-46,temp_dist_trial,1.0,t_s_13_1,travel_shared,contact lens case,4.0,competing,single,t_s_13_1.jpg,Travel,,,sub-61
Desktop or Laptop,Windows 10,Chrome 138.0.0.0,1280x1080,1536x935,Temporal Distance Task,cb_04,2.0,temp_dist_trial,num_items,zn7si1,1.0,response,2_ITEM,1262.5,1250.5,1262.5,1262.5,1250.5,1262.5,1.0,0.0,0.0,,Click Response,2_count,5.0,object-49,temp_dist_trial,2.0,t_i_05_1,travel_Iceland,hiking boots,4.0,unique,paired,t_i_05_1.jpg,Travel,,,sub-61
Desktop or Laptop,Windows 10,Chrome 138.0.0.0,1280x1080,1536x935,Temporal Distance Task,cb_04,2.0,temp_dist_trial,dist_items,qkpkxw,2.0,info,,14.900000000001455,0.0,14.900000000001455,14.900000000001455,0.0,14.900000000001455,1.0,0.0,0.0,,Slider,Slider,4.0,object-56,temp_dist_trial,2.0,t_i_05_1,travel_Iceland,hiking boots,4.0,unique,paired,t_i_05_1.jpg,Travel,,,sub-61
Desktop or Laptop,Windows 10,Chrome 138.0.0.0,1280x1080,1536x935,Temporal Distance Task,cb_04,2.0,temp_dist_trial,dist_items,qkpkxw,2.0,continue,,2823.9999999046336,2817.700000000001,2823.9999999046336,2823.9999999046336,2817.700000000001,2823.9999999046336,1.0,0.0,0.0,,Click To Continue,Next button,7.0,object-60,temp_dist_trial,2.0,t_i_05_1,travel_Iceland,hiking boots,4.0,unique,paired,t_i_05_1.jpg,Travel,,,sub-61
Desktop or Laptop,Windows 10,Chrome 138.0.0.0,1280x1080,1536x935,Temporal Distance Task,cb_04,2.0,temp_dist_trial,dist_items,qkpkxw,2.0,response,69,1667.3000000000034,2817.700000000001,2824.4999999046336,1667.3000000000034,2817.700000000001,2824.4999999046336,1.0,1157.199999904631,0.0,,Slider,Slider,4.0,object-56,temp_dist_trial,2.0,t_i_05_1,travel_Iceland,hiking boots,4.0,unique,paired,t_i_05_1.jpg,Travel,,,sub-61
Desktop or Laptop,Windows 10,Chrome 138.0.0.0,1280x1080,1536x935,Temporal Distance Task,cb_04,3.0,temp_dist_trial,num_items,zn7si1,1.0,response,2_ITEM,1616.0000001907354,1600.7000000000005,1616.0000001907354,1616.0000001907354,1600.7000000000005,1616.0000001907354,1.0,0.0,0.0,,Click Response,2_count,5.0,object-49,temp_dist_trial,3.0,t_s_07_1,travel_shared,phone charger cable,4.0,competing,paired,t_s_07_1.jpg,Travel,,,sub-61
Desktop or Laptop,Windows 10,Chrome 138.0.0.0,1280x1080,1536x935,Temporal Distance Task,cb_04,3.0,temp_dist_trial,dist_items,qkpkxw,2.0,info,,15.900000095367432,0.0,15.900000095367432,15.900000095367432,0.0,15.900000095367432,1.0,0.0,0.0,,Slider,Slider,4.0,object-56,temp_dist_trial,3.0,t_s_07_1,travel_shared,phone charger cable,4.0,competing,paired,t_s_07_1.jpg,Travel,,,sub-61
Desktop or Laptop,Windows 10,Chrome 138.0.0.0,1280x1080,1536x935,Temporal Distance Task,cb_04,3.0,temp_dist_trial,dist_items,qkpkxw,2.0,continue,,2284.0999999999985,2267.5,2284.0999999999985,2284.0999999999985,2267.5,2284.0999999999985,1.0,0.0,0.0,,Click To Continue,Next button,7.0,object-60,temp_dist_trial,3.0,t_s_07_1,travel_shared,phone charger cable,4.0,competing,paired,t_s_07_1.jpg,Travel,,,sub-61
Desktop or Laptop,Windows 10,Chrome 138.0.0.0,1280x1080,1536x935,Temporal Distance Task,cb_04,3.0,temp_dist_trial,dist_items,qkpkxw,2.0,response,74,1183.9000000000015,2267.5,2284.0999999999985,1183.9000000000015,2267.5,2284.0999999999985,1.0,1100.1999999999969,0.0,,Slider,Slider,4.0,object-56,temp_dist_trial,3.0,t_s_07_1,travel_shared,phone charger cable,4.0,competing,paired,t_s_07_1.jpg,Travel,,,sub-61
Desktop or Laptop,Windows 10,Chrome 138.0.0.0,1280x1080,1536x935,Temporal Distance Task,cb_04,4.0,temp_dist_trial,num_items,zn7si1,1.0,response,2_ITEM,1777.2000002861025,1767.4000000000015,1777.2000002861025,1777.2000002861025,1767.4000000000015,1777.2000002861025,1.0,0.0,0.0,,Click Response,2_count,5.0,object-49,temp_dist_trial,4.0,t_m_12_1,travel_Miami,foldable pail and shovel,4.0,unique,paired,t_m_12_1.jpg,Travel,,,sub-61
Desktop or Laptop,Windows 10,Chrome 138.0.0.0,1280x1080,1536x935,Temporal Distance Task,cb_04,4.0,temp_dist_trial,dist_items,qkpkxw,2.0,info,,8.499999904634024,0.0,8.499999904634024,8.499999904634024,0.0,8.499999904634024,1.0,0.0,0.0,,Slider,Slider,4.0,object-56,temp_dist_trial,4.0,t_m_12_1,travel_Miami,foldable pail and shovel,4.0,unique,paired,t_m_12_1.jpg,Travel,,,sub-61
Desktop or Laptop,Windows 10,Chrome 138.0.0.0,1280x1080,1536x935,Temporal Distance Task,cb_04,4.0,temp_dist_trial,dist_items,qkpkxw,2.0,continue,,1959.499999904634,1950.7000000000048,1959.499999904634,1959.499999904634,1950.7000000000048,1959.499999904634,1.0,0.0,0.0,,Click To Continue,Next button,7.0,object-60,temp_dist_trial,4.0,t_m_12_1,travel_Miami,foldable pail and shovel,4.0,unique,paired,t_m_12_1.jpg,Travel,,,sub-61
Desktop or Laptop,Windows 10,Chrome 138.0.0.0,1280x1080,1536x935,Temporal Distance Task,cb_04,4.0,temp_dist_trial,dist_items,qkpkxw,2.0,response,56,966.9000000000017,1950.7000000000048,1960.499999904634,966.9000000000017,1950.7000000000048,1960.499999904634,1.0,993.5999999046326,0.0,,Slider,Slider,4.0,object-56,temp_dist_trial,4.0,t_m_12_1,travel_Miami,foldable pail and shovel,4.0,unique,paired,t_m_12_1.jpg,Travel,,,sub-61
Desktop or Laptop,Windows 10,Chrome 138.0.0.0,1280x1080,1536x935,Temporal Distance Task,cb_04,5.0,temp_dist_trial,num_items,zn7si1,1.0,response,1_ITEM,1544.6000000953643,1533.7999999999954,1544.6000000953643,1544.6000000953643,1533.7999999999954,1544.6000000953643,1.0,0.0,0.0,,Click Response,1_count,3.0,object-46,temp_dist_trial,5.0,t_s_04_1,travel_shared,instant camera,4.0,competing,single,t_s_04_1.jpg,Travel,,,sub-61
Desktop or Laptop,Windows 10,Chrome 138.0.0.0,1280x1080,1536x935,Temporal Distance Task,cb_04,6.0,temp_dist_trial,num_items,zn7si1,1.0,response,1_ITEM,1936.6000001907373,1934.1000000000056,1936.6000001907373,1936.6000001907373,1934.1000000000056,1936.6000001907373,1.0,0.0,0.0,,Click Response,1_count,3.0,object-46,temp_dist_trial,6.0,t_s_12_1,travel_shared,clear toiletry bag,4.0,competing,paired,t_s_12_1.jpg,Travel,,,sub-61
Desktop or Laptop,Windows 10,Chrome 138.0.0.0,1280x1080,1536x935,Temporal Distance Task,cb_04,7.0,temp_dist_trial,num_items,zn7si1,1.0,response,2_ITEM,1127.8000002861008,1117.0999999999983,1127.8000002861008,1127.8000002861008,1117.0999999999983,1127.8000002861008,1.0,0.0,0.0,,Click Response,2_count,5.0,object-49,temp_dist_trial,7.0,t_s_16_1,travel_shared,chapstick,4.0,competing,paired,t_s_16_1.jpg,Travel,,,sub-61
Desktop or Laptop,Windows 10,Chrome 138.0.0.0,1280x1080,1536x935,Temporal Distance Task,cb_04,7.0,temp_dist_trial,dist_items,qkpkxw,2.0,info,,13.800000095368887,0.0,13.800000095368887,13.800000095368887,0.0,13.800000095368887,1.0,0.0,0.0,,Slider,Slider,4.0,object-56,temp_dist_trial,7.0,t_s_16_1,travel_shared,chapstick,4.0,competing,paired,t_s_16_1.jpg,Travel,,,sub-61
Desktop or Laptop,Windows 10,Chrome 138.0.0.0,1280x1080,1536x935,Temporal Distance Task,cb_04,7.0,temp_dist_trial,dist_items,qkpkxw,2.0,continue,,2384.199999999997,2367.5,2384.199999999997,2384.199999999997,2367.5,2384.199999999997,1.0,0.0,0.0,,Click To Continue,Next button,7.0,object-60,temp_dist_trial,7.0,t_s_16_1,travel_shared,chapstick,4.0,competing,paired,t_s_16_1.jpg,Travel,,,sub-61
Desktop or Laptop,Windows 10,Chrome 138.0.0.0,1280x1080,1536x935,Temporal Distance Task,cb_04,7.0,temp_dist_trial,dist_items,qkpkxw,2.0,response,73,1417.2000000000046,2367.5,2384.199999999997,1417.2000000000046,2367.5,2384.199999999997,1.0,966.9999999999927,0.0,,Slider,Slider,4.0,object-56,temp_dist_trial,7.0,t_s_16_1,travel_shared,chapstick,4.0,competing,paired,t_s_16_1.jpg,Travel,,,sub-61
Desktop or Laptop,Windows 10,Chrome 138.0.0.0,1280x1080,1536x935,Temporal Distance Task,cb_04,8.0,temp_dist_trial,num_items,zn7si1,1.0,response,2_ITEM,1217.1999999999969,1200.5,1217.1999999999969,1217.1999999999969,1200.5,1217.1999999999969,1.0,0.0,0.0,,Click Response,2_count,5.0,object-49,temp_dist_trial,8.0,t_s_21_1,travel_shared,umbrella,4.0,competing,paired,t_s_21_1.jpg,Travel,,,sub-61
Desktop or Laptop,Windows 10,Chrome 138.0.0.0,1280x1080,1536x935,Temporal Distance Task,cb_04,8.0,temp_dist_trial,dist_items,qkpkxw,2.0,info,,14.100000190737774,0.0,14.100000190737774,14.100000190737774,0.0,14.100000190737774,1.0,0.0,0.0,,Slider,Slider,4.0,object-56,temp_dist_trial,8.0,t_s_21_1,travel_shared,umbrella,4.0,competing,paired,t_s_21_1.jpg,Travel,,,sub-61
Desktop or Laptop,Windows 10,Chrome 138.0.0.0,1280x1080,1536x935,Temporal Distance Task,cb_04,8.0,temp_dist_trial,dist_items,qkpkxw,2.0,continue,,1669.8000000000034,1667.2000000000046,1669.8000000000034,1669.8000000000034,1667.2000000000046,1669.8000000000034,1.0,0.0,0.0,,Click To Continue,Next button,7.0,object-60,temp_dist_trial,8.0,t_s_21_1,travel_shared,umbrella,4.0,competing,paired,t_s_21_1.jpg,Travel,,,sub-61
Desktop or Laptop,Windows 10,Chrome 138.0.0.0,1280x1080,1536x935,Temporal Distance Task,cb_04,8.0,temp_dist_trial,dist_items,qkpkxw,2.0,response,48,883.6000000000058,1667.2000000000046,1670.2000000953706,883.6000000000058,1667.2000000000046,1670.2000000953706,1.0,786.6000000953645,0.0,,Slider,Slider,4.0,object-56,temp_dist_trial,8.0,t_s_21_1,travel_shared,umbrella,4.0,competing,paired,t_s_21_1.jpg,Travel,,,sub-61
Desktop or Laptop,Windows 10,Chrome 138.0.0.0,1280x1080,1536x935,Temporal Distance Task,cb_04,9.0,temp_dist_trial,num_items,zn7si1,1.0,response,2_ITEM,1539.199999904631,1534.0,1539.199999904631,1539.199999904631,1534.0,1539.199999904631,1.0,0.0,0.0,,Click Response,2_count,5.0,object-49,temp_dist_trial,9.0,t_s_03_1,travel_shared,portable charger,4.0,competing,paired,t_s_03_1.jpg,Travel,,,sub-61
Desktop or Laptop,Windows 10,Chrome 138.0.0.0,1280x1080,1536x935,Temporal Distance Task,cb_04,9.0,temp_dist_trial,dist_items,qkpkxw,2.0,info,,12.400000095367432,0.0,12.400000095367432,12.400000095367432,0.0,12.400000095367432,1.0,0.0,0.0,,Slider,Slider,4.0,object-56,temp_dist_trial,9.0,t_s_03_1,travel_shared,portable charger,4.0,competing,paired,t_s_03_1.jpg,Travel,,,sub-61
Desktop or Laptop,Windows 10,Chrome 138.0.0.0,1280x1080,1536x935,Temporal Distance Task,cb_04,9.0,temp_dist_trial,dist_items,qkpkxw,2.0,continue,,1874.4000000953674,1867.4000000000005,1874.4000000953674,1874.4000000953674,1867.4000000000005,1874.4000000953674,1.0,0.0,0.0,,Click To Continue,Next button,7.0,object-60,temp_dist_trial,9.0,t_s_03_1,travel_shared,portable charger,4.0,competing,paired,t_s_03_1.jpg,Travel,,,sub-61
Desktop or Laptop,Windows 10,Chrome 138.0.0.0,1280x1080,1536x935,Temporal Distance Task,cb_04,9.0,temp_dist_trial,dist_items,qkpkxw,2.0,response,66,883.5999999999983,1867.4000000000005,1875.7000002861025,883.5999999999983,1867.4000000000005,1875.7000002861025,1.0,992.100000286104,0.0,,Slider,Slider,4.0,object-56,temp_dist_trial,9.0,t_s_03_1,travel_shared,portable charger,4.0,competing,paired,t_s_03_1.jpg,Travel,,,sub-61
Desktop or Laptop,Windows 10,Chrome 138.0.0.0,1280x1080,1536x935,Temporal Distance Task,cb_04,10.0,temp_dist_trial,num_items,zn7si1,1.0,response,1_ITEM,1079.199999904631,1067.0999999999983,1079.199999904631,1079.199999904631,1067.0999999999983,1079.199999904631,1.0,0.0,0.0,,Click Response,1_count,3.0,object-46,temp_dist_trial,10.0,t_i_19_1,travel_Iceland,rope,4.0,unique,single,t_i_19_1.jpg,Travel,,,sub-61
Desktop or Laptop,Windows 10,Chrome 138.0.0.0,1280x1080,1536x935,Temporal Distance Task,cb_04,11.0,temp_dist_trial,num_items,zn7si1,1.0,response,1_ITEM,2353.300000190735,2350.900000000001,2353.300000190735,2353.300000190735,2350.900000000001,2353.300000190735,1.0,0.0,0.0,,Click Response,1_count,3.0,object-46,temp_dist_trial,11.0,t_s_15_1,travel_shared,luggage tag,4.0,competing,single,t_s_15_1.jpg,Travel,,,sub-61
Desktop or Laptop,Windows 10,Chrome 138.0.0.0,1280x1080,1536x935,Temporal Distance Task,cb_04,12.0,temp_dist_trial,num_items,zn7si1,1.0,response,2_ITEM,1473.2000002861025,1467.3000000000034,1473.2000002861025,1473.2000002861025,1467.3000000000034,1473.2000002861025,1.0,0.0,0.0,,Click Response,2_count,5.0,object-49,temp_dist_trial,12.0,t_i_07_1,travel_Iceland,hiking backpack,4.0,unique,paired,t_i_07_1.jpg,Travel,,,sub-61
Desktop or Laptop,Windows 10,Chrome 138.0.0.0,1280x1080,1536x935,Temporal Distance Task,cb_04,12.0,temp_dist_trial,dist_items,qkpkxw,2.0,info,,11.80000028610084,0.0,11.80000028610084,11.80000028610084,0.0,11.80000028610084,1.0,0.0,0.0,,Slider,Slider,4.0,object-56,temp_dist_trial,12.0,t_i_07_1,travel_Iceland,hiking backpack,4.0,unique,paired,t_i_07_1.jpg,Travel,,,sub-61
Desktop or Laptop,Windows 10,Chrome 138.0.0.0,1280x1080,1536x935,Temporal Distance Task,cb_04,12.0,temp_dist_trial,dist_items,qkpkxw,2.0,continue,,2066.699999904631,2050.699999999997,2066.699999904631,2066.699999904631,2050.699999999997,2066.699999904631,1.0,0.0,0.0,,Click To Continue,Next button,7.0,object-60,temp_dist_trial,12.0,t_i_07_1,travel_Iceland,hiking backpack,4.0,unique,paired,t_i_07_1.jpg,Travel,,,sub-61
Desktop or Laptop,Windows 10,Chrome 138.0.0.0,1280x1080,1536x935,Temporal Distance Task,cb_04,12.0,temp_dist_trial,dist_items,qkpkxw,2.0,response,68,1167.0999999999985,2050.699999999997,2067.199999999997,1167.0999999999985,2050.699999999997,2067.199999999997,1.0,900.0999999999983,0.0,,Slider,Slider,4.0,object-56,temp_dist_trial,12.0,t_i_07_1,travel_Iceland,hiking backpack,4.0,unique,paired,t_i_07_1.jpg,Travel,,,sub-61
Desktop or Laptop,Windows 10,Chrome 138.0.0.0,1280x1080,1536x935,Temporal Distance Task,cb_04,13.0,temp_dist_trial,num_items,zn7si1,1.0,response,2_ITEM,1160.300000095369,1150.4000000000015,1160.300000095369,1160.300000095369,1150.4000000000015,1160.300000095369,1.0,0.0,0.0,,Click Response,2_count,5.0,object-49,temp_dist_trial,13.0,t_s_11_1,travel_shared,eye mask,4.0,competing,paired,t_s_11_1.jpg,Travel,,,sub-61
Desktop or Laptop,Windows 10,Chrome 138.0.0.0,1280x1080,1536x935,Temporal Distance Task,cb_04,13.0,temp_dist_trial,dist_items,qkpkxw,2.0,info,,11.80000000000291,0.0,11.80000000000291,11.80000000000291,0.0,11.80000000000291,1.0,0.0,0.0,,Slider,Slider,4.0,object-56,temp_dist_trial,13.0,t_s_11_1,travel_shared,eye mask,4.0,competing,paired,t_s_11_1.jpg,Travel,,,sub-61
Desktop or Laptop,Windows 10,Chrome 138.0.0.0,1280x1080,1536x935,Temporal Distance Task,cb_04,13.0,temp_dist_trial,dist_items,qkpkxw,2.0,continue,,1399.7000000953706,1383.9000000000015,1399.7000000953706,1399.7000000953706,1383.9000000000015,1399.7000000953706,1.0,0.0,0.0,,Click To Continue,Next button,7.0,object-60,temp_dist_trial,13.0,t_s_11_1,travel_shared,eye mask,4.0,competing,paired,t_s_11_1.jpg,Travel,,,sub-61
Desktop or Laptop,Windows 10,Chrome 138.0.0.0,1280x1080,1536x935,Temporal Distance Task,cb_04,13.0,temp_dist_trial,dist_items,qkpkxw,2.0,response,70,867.0,1383.9000000000015,1400.6999999999966,867.0,1383.9000000000015,1400.6999999999966,1.0,533.6999999999971,0.0,,Slider,Slider,4.0,object-56,temp_dist_trial,13.0,t_s_11_1,travel_shared,eye mask,4.0,competing,paired,t_s_11_1.jpg,Travel,,,sub-61
Desktop or Laptop,Windows 10,Chrome 138.0.0.0,1280x1080,1536x935,Temporal Distance Task,cb_04,14.0,temp_dist_trial,num_items,zn7si1,1.0,response,1_ITEM,1223.4000000000015,1216.9000000000015,1223.4000000000015,1223.4000000000015,1216.9000000000015,1223.4000000000015,1.0,0.0,0.0,,Click Response,1_count,3.0,object-46,temp_dist_trial,14.0,t_m_19_1,travel_Miami,surfboard,4.0,unique,single,t_m_19_1.jpg,Travel,,,sub-61
Desktop or Laptop,Windows 10,Chrome 138.0.0.0,1280x1080,1536x935,Temporal Distance Task,cb_04,15.0,temp_dist_trial,num_items,zn7si1,1.0,response,1_ITEM,1419.6999999999966,1417.099999999991,1419.6999999999966,1419.6999999999966,1417.099999999991,1419.6999999999966,1.0,0.0,0.0,,Click Response,1_count,3.0,object-46,temp_dist_trial,15.0,t_m_16_1,travel_Miami,flippers,4.0,unique,single,t_m_16_1.jpg,Travel,,,sub-61
Desktop or Laptop,Windows 10,Chrome 138.0.0.0,1280x1080,1536x935,Temporal Distance Task,cb_04,16.0,temp_dist_trial,num_items,zn7si1,1.0,response,2_ITEM,1310.700000190729,1300.2999999999886,1310.700000190729,1310.700000190729,1300.2999999999886,1310.700000190729,1.0,0.0,0.0,,Click Response,2_count,5.0,object-49,temp_dist_trial,16.0,t_m_01_1,travel_Miami,sandals,4.0,unique,paired,t_m_01_1.jpg,Travel,,,sub-61
Desktop or Laptop,Windows 10,Chrome 138.0.0.0,1280x1080,1536x935,Temporal Distance Task,cb_04,16.0,temp_dist_trial,dist_items,qkpkxw,2.0,info,,5.200000286102295,0.0,5.200000286102295,5.200000286102295,0.0,5.200000286102295,1.0,0.0,0.0,,Slider,Slider,4.0,object-56,temp_dist_trial,16.0,t_m_01_1,travel_Miami,sandals,4.0,unique,paired,t_m_01_1.jpg,Travel,,,sub-61
Desktop or Laptop,Windows 10,Chrome 138.0.0.0,1280x1080,1536x935,Temporal Distance Task,cb_04,16.0,temp_dist_trial,dist_items,qkpkxw,2.0,continue,,1930.3000001907349,1917.5,1930.3000001907349,1930.3000001907349,1917.5,1930.3000001907349,1.0,0.0,0.0,,Click To Continue,Next button,7.0,object-60,temp_dist_trial,16.0,t_m_01_1,travel_Miami,sandals,4.0,unique,paired,t_m_01_1.jpg,Travel,,,sub-61
Desktop or Laptop,Windows 10,Chrome 138.0.0.0,1280x1080,1536x935,Temporal Distance Task,cb_04,16.0,temp_dist_trial,dist_items,qkpkxw,2.0,response,47,1083.8000000000031,1917.5,1934.1999999999966,1083.8000000000031,1917.5,1934.1999999999966,1.0,850.3999999999942,0.0,,Slider,Slider,4.0,object-56,temp_dist_trial,16.0,t_m_01_1,travel_Miami,sandals,4.0,unique,paired,t_m_01_1.jpg,Travel,,,sub-61
Desktop or Laptop,Windows 10,Chrome 138.0.0.0,1280x1080,1536x935,Temporal Distance Task,cb_04,17.0,temp_dist_trial,num_items,zn7si1,1.0,response,2_ITEM,1108.2000002861025,1100.3999999999942,1108.2000002861025,1108.2000002861025,1100.3999999999942,1108.2000002861025,1.0,0.0,0.0,,Click Response,2_count,5.0,object-49,temp_dist_trial,17.0,t_s_22_1,travel_shared,belt,4.0,competing,paired,t_s_22_1.jpg,Travel,,,sub-61
Desktop or Laptop,Windows 10,Chrome 138.0.0.0,1280x1080,1536x935,Temporal Distance Task,cb_04,17.0,temp_dist_trial,dist_items,qkpkxw,2.0,info,,5.999999904626748,0.0,5.999999904626748,5.999999904626748,0.0,5.999999904626748,1.0,0.0,0.0,,Slider,Slider,4.0,object-56,temp_dist_trial,17.0,t_s_22_1,travel_shared,belt,4.0,competing,paired,t_s_22_1.jpg,Travel,,,sub-61
Desktop or Laptop,Windows 10,Chrome 138.0.0.0,1280x1080,1536x935,Temporal Distance Task,cb_04,17.0,temp_dist_trial,dist_items,qkpkxw,2.0,continue,,1877.3999999999944,1867.3999999999944,1877.3999999999944,1877.3999999999944,1867.3999999999944,1877.3999999999944,1.0,0.0,0.0,,Click To Continue,Next button,7.0,object-60,temp_dist_trial,17.0,t_s_22_1,travel_shared,belt,4.0,competing,paired,t_s_22_1.jpg,Travel,,,sub-61
Desktop or Laptop,Windows 10,Chrome 138.0.0.0,1280x1080,1536x935,Temporal Distance Task,cb_04,17.0,temp_dist_trial,dist_items,qkpkxw,2.0,response,75,1050.3999999999942,1867.3999999999944,1878.200000190729,1050.3999999999942,1867.3999999999944,1878.200000190729,1.0,827.8000001907349,0.0,,Slider,Slider,4.0,object-56,temp_dist_trial,17.0,t_s_22_1,travel_shared,belt,4.0,competing,paired,t_s_22_1.jpg,Travel,,,sub-61
Desktop or Laptop,Windows 10,Chrome 138.0.0.0,1280x1080,1536x935,Temporal Distance Task,cb_04,18.0,temp_dist_trial,num_items,zn7si1,1.0,response,1_ITEM,1202.7000002861025,1200.3000000000031,1202.7000002861025,1202.7000002861025,1200.3000000000031,1202.7000002861025,1.0,0.0,0.0,,Click Response,1_count,3.0,object-46,temp_dist_trial,18.0,t_s_24_1,travel_shared,ear plugs,4.0,competing,single,t_s_24_1.jpg,Travel,,,sub-61
Desktop or Laptop,Windows 10,Chrome 138.0.0.0,1280x1080,1536x935,Temporal Distance Task,cb_04,19.0,temp_dist_trial,num_items,zn7si1,1.0,response,1_ITEM,1687.5000000953733,1684.0,1687.5000000953733,1687.5000000953733,1684.0,1687.5000000953733,1.0,0.0,0.0,,Click Response,1_count,3.0,object-46,temp_dist_trial,19.0,t_i_08_1,travel_Iceland,thick socks,4.0,unique,single,t_i_08_1.jpg,Travel,,,sub-61
Desktop or Laptop,Windows 10,Chrome 138.0.0.0,1280x1080,1536x935,Temporal Distance Task,cb_04,20.0,temp_dist_trial,num_items,zn7si1,1.0,response,2_ITEM,1177.1000002860965,1167.0,1177.1000002860965,1177.1000002860965,1167.0,1177.1000002860965,1.0,0.0,0.0,,Click Response,2_count,5.0,object-49,temp_dist_trial,20.0,t_i_03_1,travel_Iceland,winter jacket,4.0,unique,paired,t_i_03_1.jpg,Travel,,,sub-61
Desktop or Laptop,Windows 10,Chrome 138.0.0.0,1280x1080,1536x935,Temporal Distance Task,cb_04,20.0,temp_dist_trial,dist_items,qkpkxw,2.0,info,,13.80000000000291,0.0,13.80000000000291,13.80000000000291,0.0,13.80000000000291,1.0,0.0,0.0,,Slider,Slider,4.0,object-56,temp_dist_trial,20.0,t_i_03_1,travel_Iceland,winter jacket,4.0,unique,paired,t_i_03_1.jpg,Travel,,,sub-61
Desktop or Laptop,Windows 10,Chrome 138.0.0.0,1280x1080,1536x935,Temporal Distance Task,cb_04,20.0,temp_dist_trial,dist_items,qkpkxw,2.0,continue,,2382.800000000003,2367.6000000000063,2382.800000000003,2382.800000000003,2367.6000000000063,2382.800000000003,1.0,0.0,0.0,,Click To Continue,Next button,7.0,object-60,temp_dist_trial,20.0,t_i_03_1,travel_Iceland,winter jacket,4.0,unique,paired,t_i_03_1.jpg,Travel,,,sub-61
Desktop or Laptop,Windows 10,Chrome 138.0.0.0,1280x1080,1536x935,Temporal Distance Task,cb_04,20.0,temp_dist_trial,dist_items,qkpkxw,2.0,response,72,1017.1000000000058,2367.6000000000063,2384.4000000000087,1017.1000000000058,2367.6000000000063,2384.4000000000087,1.0,1367.3000000000031,0.0,,Slider,Slider,4.0,object-56,temp_dist_trial,20.0,t_i_03_1,travel_Iceland,winter jacket,4.0,unique,paired,t_i_03_1.jpg,Travel,,,sub-61
Desktop or Laptop,Windows 10,Chrome 138.0.0.0,1280x1080,1536x935,Temporal Distance Task,cb_04,21.0,temp_dist_trial,num_items,zn7si1,1.0,response,1_ITEM,2679.699999999997,2667.699999999997,2679.699999999997,2679.699999999997,2667.699999999997,2679.699999999997,1.0,0.0,0.0,,Click Response,1_count,3.0,object-46,temp_dist_trial,21.0,t_s_09_1,travel_shared,wallet,4.0,competing,paired,t_s_09_1.jpg,Travel,,,sub-61
Desktop or Laptop,Windows 10,Chrome 138.0.0.0,1280x1080,1536x935,Temporal Distance Task,cb_04,22.0,temp_dist_trial,num_items,zn7si1,1.0,response,2_ITEM,1489.1999999046384,1483.0,1489.1999999046384,1489.1999999046384,1483.0,1489.1999999046384,1.0,0.0,0.0,,Click Response,2_count,5.0,object-49,temp_dist_trial,22.0,t_s_20_1,travel_shared,travel pill case,4.0,competing,paired,t_s_20_1.jpg,Travel,,,sub-61
Desktop or Laptop,Windows 10,Chrome 138.0.0.0,1280x1080,1536x935,Temporal Distance Task,cb_04,22.0,temp_dist_trial,dist_items,qkpkxw,2.0,info,,16.099999904632572,0.0,16.099999904632572,16.099999904632572,0.0,16.099999904632572,1.0,0.0,0.0,,Slider,Slider,4.0,object-56,temp_dist_trial,22.0,t_s_20_1,travel_shared,travel pill case,4.0,competing,paired,t_s_20_1.jpg,Travel,,,sub-61
Desktop or Laptop,Windows 10,Chrome 138.0.0.0,1280x1080,1536x935,Temporal Distance Task,cb_04,22.0,temp_dist_trial,dist_items,qkpkxw,2.0,continue,,2044.2000002861025,2034.1999999999966,2044.2000002861025,2044.2000002861025,2034.1999999999966,2044.2000002861025,1.0,0.0,0.0,,Click To Continue,Next button,7.0,object-60,temp_dist_trial,22.0,t_s_20_1,travel_shared,travel pill case,4.0,competing,paired,t_s_20_1.jpg,Travel,,,sub-61
Desktop or Laptop,Windows 10,Chrome 138.0.0.0,1280x1080,1536x935,Temporal Distance Task,cb_04,22.0,temp_dist_trial,dist_items,qkpkxw,2.0,response,61,1300.6000000000058,2034.1999999999966,2045.0,1300.6000000000058,2034.1999999999966,2045.0,1.0,744.3999999999942,0.0,,Slider,Slider,4.0,object-56,temp_dist_trial,22.0,t_s_20_1,travel_shared,travel pill case,4.0,competing,paired,t_s_20_1.jpg,Travel,,,sub-61
Desktop or Laptop,Windows 10,Chrome 138.0.0.0,1280x1080,1536x935,Temporal Distance Task,cb_04,23.0,temp_dist_trial,num_items,zn7si1,1.0,response,2_ITEM,1177.6000001907378,1167.0,1177.6000001907378,1177.6000001907378,1167.0,1177.6000001907378,1.0,0.0,0.0,,Click Response,2_count,5.0,object-49,temp_dist_trial,23.0,t_s_08_1,travel_shared,hand lotion,4.0,competing,paired,t_s_08_1.jpg,Travel,,,sub-61
Desktop or Laptop,Windows 10,Chrome 138.0.0.0,1280x1080,1536x935,Temporal Distance Task,cb_04,23.0,temp_dist_trial,dist_items,qkpkxw,2.0,info,,8.400000190740682,0.0,8.400000190740682,8.400000190740682,0.0,8.400000190740682,1.0,0.0,0.0,,Slider,Slider,4.0,object-56,temp_dist_trial,23.0,t_s_08_1,travel_shared,hand lotion,4.0,competing,paired,t_s_08_1.jpg,Travel,,,sub-61
Desktop or Laptop,Windows 10,Chrome 138.0.0.0,1280x1080,1536x935,Temporal Distance Task,cb_04,23.0,temp_dist_trial,dist_items,qkpkxw,2.0,continue,,1488.6999999046384,1483.8000000000034,1488.6999999046384,1488.6999999046384,1483.8000000000034,1488.6999999046384,1.0,0.0,0.0,,Click To Continue,Next button,7.0,object-60,temp_dist_trial,23.0,t_s_08_1,travel_shared,hand lotion,4.0,competing,paired,t_s_08_1.jpg,Travel,,,sub-61
Desktop or Laptop,Windows 10,Chrome 138.0.0.0,1280x1080,1536x935,Temporal Distance Task,cb_04,23.0,temp_dist_trial,dist_items,qkpkxw,2.0,response,69,883.6000000000058,1483.8000000000034,1489.8000002861081,883.6000000000058,1483.8000000000034,1489.8000002861081,1.0,606.2000002861022,0.0,,Slider,Slider,4.0,object-56,temp_dist_trial,23.0,t_s_08_1,travel_shared,hand lotion,4.0,competing,paired,t_s_08_1.jpg,Travel,,,sub-61
Desktop or Laptop,Windows 10,Chrome 138.0.0.0,1280x1080,1536x935,Temporal Distance Task,cb_04,24.0,temp_dist_trial,num_items,zn7si1,1.0,response,1_ITEM,1340.6000001907378,1333.9000000000087,1340.6000001907378,1340.6000001907378,1333.9000000000087,1340.6000001907378,1.0,0.0,0.0,,Click Response,1_count,3.0,object-46,temp_dist_trial,24.0,t_m_18_1,travel_Miami,waterproof tote,4.0,unique,single,t_m_18_1.jpg,Travel,,,sub-61
Desktop or Laptop,Windows 10,Chrome 138.0.0.0,1280x1080,1536x935,Temporal Distance Task,cb_04,25.0,temp_dist_trial,num_items,zn7si1,1.0,response,2_ITEM,1259.8000000000031,1250.4000000000087,1259.8000000000031,1259.8000000000031,1250.4000000000087,1259.8000000000031,1.0,0.0,0.0,,Click Response,2_count,5.0,object-49,temp_dist_trial,25.0,t_s_05_1,travel_shared,neck pillow,4.0,competing,paired,t_s_05_1.jpg,Travel,,,sub-61
Desktop or Laptop,Windows 10,Chrome 138.0.0.0,1280x1080,1536x935,Temporal Distance Task,cb_04,25.0,temp_dist_trial,dist_items,qkpkxw,2.0,info,,4.600000190737773,0.0,4.600000190737773,4.600000190737773,0.0,4.600000190737773,1.0,0.0,0.0,,Slider,Slider,4.0,object-56,temp_dist_trial,25.0,t_s_05_1,travel_shared,neck pillow,4.0,competing,paired,t_s_05_1.jpg,Travel,,,sub-61
Desktop or Laptop,Windows 10,Chrome 138.0.0.0,1280x1080,1536x935,Temporal Distance Task,cb_04,25.0,temp_dist_trial,dist_items,qkpkxw,2.0,continue,,1439.2000000953706,1433.900000000009,1439.2000000953706,1439.2000000953706,1433.900000000009,1439.2000000953706,1.0,0.0,0.0,,Click To Continue,Next button,7.0,object-60,temp_dist_trial,25.0,t_s_05_1,travel_shared,neck pillow,4.0,competing,paired,t_s_05_1.jpg,Travel,,,sub-61
Desktop or Laptop,Windows 10,Chrome 138.0.0.0,1280x1080,1536x935,Temporal Distance Task,cb_04,25.0,temp_dist_trial,dist_items,qkpkxw,2.0,response,54,817.0,1433.900000000009,1439.8000000000034,817.0,1433.900000000009,1439.8000000000034,1.0,622.8000000000029,0.0,,Slider,Slider,4.0,object-56,temp_dist_trial,25.0,t_s_05_1,travel_shared,neck pillow,4.0,competing,paired,t_s_05_1.jpg,Travel,,,sub-61
Desktop or Laptop,Windows 10,Chrome 138.0.0.0,1280x1080,1536x935,Temporal Distance Task,cb_04,26.0,temp_dist_trial,num_items,zn7si1,1.0,response,1_ITEM,1339.6000002860965,1333.6999999999969,1339.6000002860965,1339.6000002860965,1333.6999999999969,1339.6000002860965,1.0,0.0,0.0,,Click Response,1_count,3.0,object-46,temp_dist_trial,26.0,t_s_23_1,travel_shared,ball cap,4.0,competing,single,t_s_23_1.jpg,Travel,,,sub-61
Desktop or Laptop,Windows 10,Chrome 138.0.0.0,1280x1080,1536x935,Temporal Distance Task,cb_04,27.0,temp_dist_trial,num_items,zn7si1,1.0,response,1_ITEM,1300.6999999999825,1283.8999999999942,1300.6999999999825,1300.6999999999825,1283.8999999999942,1300.6999999999825,1.0,0.0,0.0,,Click Response,1_count,3.0,object-46,temp_dist_trial,27.0,t_i_20_1,travel_Iceland,lantern,4.0,unique,single,t_i_20_1.jpg,Travel,,,sub-61
Desktop or Laptop,Windows 10,Chrome 138.0.0.0,1280x1080,1536x935,Temporal Distance Task,cb_04,28.0,temp_dist_trial,num_items,zn7si1,1.0,response,2_ITEM,1632.0,1617.1999999999966,1632.0,1632.0,1617.1999999999966,1632.0,1.0,0.0,0.0,,Click Response,2_count,5.0,object-49,temp_dist_trial,28.0,t_i_02_1,travel_Iceland,scarf,4.0,unique,paired,t_i_02_1.jpg,Travel,,,sub-61
Desktop or Laptop,Windows 10,Chrome 138.0.0.0,1280x1080,1536x935,Temporal Distance Task,cb_04,28.0,temp_dist_trial,dist_items,qkpkxw,2.0,info,,12.500000190731953,0.0,12.500000190731953,12.500000190731953,0.0,12.500000190731953,1.0,0.0,0.0,,Slider,Slider,4.0,object-56,temp_dist_trial,28.0,t_i_02_1,travel_Iceland,scarf,4.0,unique,paired,t_i_02_1.jpg,Travel,,,sub-61
Desktop or Laptop,Windows 10,Chrome 138.0.0.0,1280x1080,1536x935,Temporal Distance Task,cb_04,28.0,temp_dist_trial,dist_items,qkpkxw,2.0,continue,,1820.2999999046292,1817.3000000000034,1820.2999999046292,1820.2999999046292,1817.3000000000034,1820.2999999046292,1.0,0.0,0.0,,Click To Continue,Next button,7.0,object-60,temp_dist_trial,28.0,t_i_02_1,travel_Iceland,scarf,4.0,unique,paired,t_i_02_1.jpg,Travel,,,sub-61
Desktop or Laptop,Windows 10,Chrome 138.0.0.0,1280x1080,1536x935,Temporal Distance Task,cb_04,28.0,temp_dist_trial,dist_items,qkpkxw,2.0,response,61,1117.1999999999969,1817.3000000000034,1821.1999999999966,1117.1999999999969,1817.3000000000034,1821.1999999999966,1.0,704.0,0.0,,Slider,Slider,4.0,object-56,temp_dist_trial,28.0,t_i_02_1,travel_Iceland,scarf,4.0,unique,paired,t_i_02_1.jpg,Travel,,,sub-61
Desktop or Laptop,Windows 10,Chrome 138.0.0.0,1280x1080,1536x935,Temporal Distance Task,cb_04,29.0,temp_dist_trial,num_items,zn7si1,1.0,response,1_ITEM,1290.3000000953614,1283.8999999999942,1290.3000000953614,1290.3000000953614,1283.8999999999942,1290.3000000953614,1.0,0.0,0.0,,Click Response,1_count,3.0,object-46,temp_dist_trial,29.0,t_s_10_1,travel_shared,luggage lock,4.0,competing,single,t_s_10_1.jpg,Travel,,,sub-61
Desktop or Laptop,Windows 10,Chrome 138.0.0.0,1280x1080,1536x935,Temporal Distance Task,cb_04,30.0,temp_dist_trial,num_items,zn7si1,1.0,response,2_ITEM,1133.1000002860965,1117.0,1133.1000002860965,1133.1000002860965,1117.0,1133.1000002860965,1.0,0.0,0.0,,Click Response,2_count,5.0,object-49,temp_dist_trial,30.0,t_m_10_1,travel_Miami,tanktop,4.0,unique,paired,t_m_10_1.jpg,Travel,,,sub-61
Desktop or Laptop,Windows 10,Chrome 138.0.0.0,1280x1080,1536x935,Temporal Distance Task,cb_04,30.0,temp_dist_trial,dist_items,qkpkxw,2.0,info,,12.200000095370342,0.0,12.200000095370342,12.200000095370342,0.0,12.200000095370342,1.0,0.0,0.0,,Slider,Slider,4.0,object-56,temp_dist_trial,30.0,t_m_10_1,travel_Miami,tanktop,4.0,unique,paired,t_m_10_1.jpg,Travel,,,sub-61
Desktop or Laptop,Windows 10,Chrome 138.0.0.0,1280x1080,1536x935,Temporal Distance Task,cb_04,30.0,temp_dist_trial,dist_items,qkpkxw,2.0,continue,,1740.1000001907375,1734.1000000000058,1740.1000001907375,1740.1000001907375,1734.1000000000058,1740.1000001907375,1.0,0.0,0.0,,Click To Continue,Next button,7.0,object-60,temp_dist_trial,30.0,t_m_10_1,travel_Miami,tanktop,4.0,unique,paired,t_m_10_1.jpg,Travel,,,sub-61
Desktop or Laptop,Windows 10,Chrome 138.0.0.0,1280x1080,1536x935,Temporal Distance Task,cb_04,30.0,temp_dist_trial,dist_items,qkpkxw,2.0,response,56,1033.8000000000031,1734.1000000000058,1740.5000002861057,1033.8000000000031,1734.1000000000058,1740.5000002861057,1.0,706.7000002861023,0.0,,Slider,Slider,4.0,object-56,temp_dist_trial,30.0,t_m_10_1,travel_Miami,tanktop,4.0,unique,paired,t_m_10_1.jpg,Travel,,,sub-61
Desktop or Laptop,Windows 10,Chrome 138.0.0.0,1280x1080,1536x935,Temporal Distance Task,cb_04,31.0,temp_dist_trial,num_items,zn7si1,1.0,response,2_ITEM,1047.000000190732,1033.6999999999969,1047.000000190732,1047.000000190732,1033.6999999999969,1047.000000190732,1.0,0.0,0.0,,Click Response,2_count,5.0,object-49,temp_dist_trial,31.0,t_i_13_1,travel_Iceland,sleeping bag,4.0,unique,paired,t_i_13_1.jpg,Travel,,,sub-61
Desktop or Laptop,Windows 10,Chrome 138.0.0.0,1280x1080,1536x935,Temporal Distance Task,cb_04,31.0,temp_dist_trial,dist_items,qkpkxw,2.0,info,,8.099999904632567,0.0,8.099999904632567,8.099999904632567,0.0,8.099999904632567,1.0,0.0,0.0,,Slider,Slider,4.0,object-56,temp_dist_trial,31.0,t_i_13_1,travel_Iceland,sleeping bag,4.0,unique,paired,t_i_13_1.jpg,Travel,,,sub-61
Desktop or Laptop,Windows 10,Chrome 138.0.0.0,1280x1080,1536x935,Temporal Distance Task,cb_04,31.0,temp_dist_trial,dist_items,qkpkxw,2.0,continue,,1514.7000002861025,1500.6000000000058,1514.7000002861025,1514.7000002861025,1500.6000000000058,1514.7000002861025,1.0,0.0,0.0,,Click To Continue,Next button,7.0,object-60,temp_dist_trial,31.0,t_i_13_1,travel_Iceland,sleeping bag,4.0,unique,paired,t_i_13_1.jpg,Travel,,,sub-61
Desktop or Laptop,Windows 10,Chrome 138.0.0.0,1280x1080,1536x935,Temporal Distance Task,cb_04,31.0,temp_dist_trial,dist_items,qkpkxw,2.0,response,56,983.6999999999972,1500.6000000000058,1515.7000002861025,983.6999999999972,1500.6000000000058,1515.7000002861025,1.0,532.0000002861052,0.0,,Slider,Slider,4.0,object-56,temp_dist_trial,31.0,t_i_13_1,travel_Iceland,sleeping bag,4.0,unique,paired,t_i_13_1.jpg,Travel,,,sub-61
Desktop or Laptop,Windows 10,Chrome 138.0.0.0,1280x1080,1536x935,Temporal Distance Task,cb_04,32.0,temp_dist_trial,num_items,zn7si1,1.0,response,1_ITEM,1246.4999999046267,1233.7999999999886,1246.4999999046267,1246.4999999046267,1233.7999999999886,1246.4999999046267,1.0,0.0,0.0,,Click Response,1_count,3.0,object-46,temp_dist_trial,32.0,t_i_10_1,travel_Iceland,trekking poles,4.0,unique,single,t_i_10_1.jpg,Travel,,,sub-61
Desktop or Laptop,Windows 10,Chrome 138.0.0.0,1280x1080,1536x935,Temporal Distance Task,cb_04,33.0,temp_dist_trial,num_items,zn7si1,1.0,response,2_ITEM,1074.4999999046267,1067.0,1074.4999999046267,1074.4999999046267,1067.0,1074.4999999046267,1.0,0.0,0.0,,Click Response,2_count,5.0,object-49,temp_dist_trial,33.0,t_i_17_1,travel_Iceland,binoculars,4.0,unique,paired,t_i_17_1.jpg,Travel,,,sub-61
Desktop or Laptop,Windows 10,Chrome 138.0.0.0,1280x1080,1536x935,Temporal Distance Task,cb_04,33.0,temp_dist_trial,dist_items,qkpkxw,2.0,info,,5.7000001907290425,0.0,5.7000001907290425,5.7000001907290425,0.0,5.7000001907290425,1.0,0.0,0.0,,Slider,Slider,4.0,object-56,temp_dist_trial,33.0,t_i_17_1,travel_Iceland,binoculars,4.0,unique,paired,t_i_17_1.jpg,Travel,,,sub-61
Desktop or Laptop,Windows 10,Chrome 138.0.0.0,1280x1080,1536x935,Temporal Distance Task,cb_04,33.0,temp_dist_trial,dist_items,qkpkxw,2.0,continue,,1381.200000190729,1367.2999999999886,1381.200000190729,1381.200000190729,1367.2999999999886,1381.200000190729,1.0,0.0,0.0,,Click To Continue,Next button,7.0,object-60,temp_dist_trial,33.0,t_i_17_1,travel_Iceland,binoculars,4.0,unique,paired,t_i_17_1.jpg,Travel,,,sub-61
Desktop or Laptop,Windows 10,Chrome 138.0.0.0,1280x1080,1536x935,Temporal Distance Task,cb_04,33.0,temp_dist_trial,dist_items,qkpkxw,2.0,response,59,883.6999999999971,1367.2999999999886,1383.9999999999854,883.6999999999971,1367.2999999999886,1383.9999999999854,1.0,500.2999999999884,0.0,,Slider,Slider,4.0,object-56,temp_dist_trial,33.0,t_i_17_1,travel_Iceland,binoculars,4.0,unique,paired,t_i_17_1.jpg,Travel,,,sub-61
Desktop or Laptop,Windows 10,Chrome 138.0.0.0,1280x1080,1536x935,Temporal Distance Task,cb_04,34.0,temp_dist_trial,num_items,zn7si1,1.0,response,1_ITEM,925.5000000953733,917.0,925.5000000953733,925.5000000953733,917.0,925.5000000953733,1.0,0.0,0.0,,Click Response,1_count,3.0,object-46,temp_dist_trial,34.0,t_s_18_1,travel_shared,first aid kit,4.0,competing,paired,t_s_18_1.jpg,Travel,,,sub-61
Desktop or Laptop,Windows 10,Chrome 138.0.0.0,1280x1080,1536x935,Temporal Distance Task,cb_04,35.0,temp_dist_trial,num_items,zn7si1,1.0,response,2_ITEM,1374.4000000953674,1367.1999999999969,1374.4000000953674,1374.4000000953674,1367.1999999999969,1374.4000000953674,1.0,0.0,0.0,,Click Response,2_count,5.0,object-49,temp_dist_trial,35.0,t_s_06_1,travel_shared,luggage,4.0,competing,paired,t_s_06_1.jpg,Travel,,,sub-61
Desktop or Laptop,Windows 10,Chrome 138.0.0.0,1280x1080,1536x935,Temporal Distance Task,cb_04,35.0,temp_dist_trial,dist_items,qkpkxw,2.0,info,,12.19999999999709,0.0,12.19999999999709,12.19999999999709,0.0,12.19999999999709,1.0,0.0,0.0,,Slider,Slider,4.0,object-56,temp_dist_trial,35.0,t_s_06_1,travel_shared,luggage,4.0,competing,paired,t_s_06_1.jpg,Travel,,,sub-61
Desktop or Laptop,Windows 10,Chrome 138.0.0.0,1280x1080,1536x935,Temporal Distance Task,cb_04,35.0,temp_dist_trial,dist_items,qkpkxw,2.0,continue,,1397.1000000953643,1383.8999999999942,1397.1000000953643,1397.1000000953643,1383.8999999999942,1397.1000000953643,1.0,0.0,0.0,,Click To Continue,Next button,7.0,object-60,temp_dist_trial,35.0,t_s_06_1,travel_shared,luggage,4.0,competing,paired,t_s_06_1.jpg,Travel,,,sub-61
Desktop or Laptop,Windows 10,Chrome 138.0.0.0,1280x1080,1536x935,Temporal Distance Task,cb_04,35.0,temp_dist_trial,dist_items,qkpkxw,2.0,response,60,783.5999999999913,1383.8999999999942,1397.9000002860996,783.5999999999913,1383.8999999999942,1397.9000002860996,1.0,614.3000002861081,0.0,,Slider,Slider,4.0,object-56,temp_dist_trial,35.0,t_s_06_1,travel_shared,luggage,4.0,competing,paired,t_s_06_1.jpg,Travel,,,sub-61
Desktop or Laptop,Windows 10,Chrome 138.0.0.0,1280x1080,1536x935,Temporal Distance Task,cb_04,36.0,temp_dist_trial,num_items,zn7si1,1.0,response,2_ITEM,1388.5000002861057,1383.8000000000034,1388.5000002861057,1388.5000002861057,1383.8000000000034,1388.5000002861057,1.0,0.0,0.0,,Click Response,2_count,5.0,object-49,temp_dist_trial,36.0,t_m_02_1,travel_Miami,t-shirt,4.0,unique,paired,t_m_02_1.jpg,Travel,,,sub-61
Desktop or Laptop,Windows 10,Chrome 138.0.0.0,1280x1080,1536x935,Temporal Distance Task,cb_04,36.0,temp_dist_trial,dist_items,qkpkxw,2.0,info,,11.999999904626751,0.0,11.999999904626751,11.999999904626751,0.0,11.999999904626751,1.0,0.0,0.0,,Slider,Slider,4.0,object-56,temp_dist_trial,36.0,t_m_02_1,travel_Miami,t-shirt,4.0,unique,paired,t_m_02_1.jpg,Travel,,,sub-61
Desktop or Laptop,Windows 10,Chrome 138.0.0.0,1280x1080,1536x935,Temporal Distance Task,cb_04,36.0,temp_dist_trial,dist_items,qkpkxw,2.0,continue,,2915.100000286097,2901.0999999999913,2915.100000286097,2915.100000286097,2901.0999999999913,2915.100000286097,1.0,0.0,0.0,,Click To Continue,Next button,7.0,object-60,temp_dist_trial,36.0,t_m_02_1,travel_Miami,t-shirt,4.0,unique,paired,t_m_02_1.jpg,Travel,,,sub-61
Desktop or Laptop,Windows 10,Chrome 138.0.0.0,1280x1080,1536x935,Temporal Distance Task,cb_04,36.0,temp_dist_trial,dist_items,qkpkxw,2.0,response,64,1900.6999999999966,2901.0999999999913,2916.3999999999933,1900.6999999999966,2901.0999999999913,2916.3999999999933,1.0,1015.6999999999972,0.0,,Slider,Slider,4.0,object-56,temp_dist_trial,36.0,t_m_02_1,travel_Miami,t-shirt,4.0,unique,paired,t_m_02_1.jpg,Travel,,,sub-61
Desktop or Laptop,Windows 10,Chrome 138.0.0.0,1280x1080,1536x935,Temporal Distance Task,cb_04,37.0,temp_dist_trial,num_items,zn7si1,1.0,response,2_ITEM,1316.9000000000087,1300.4000000000087,1316.9000000000087,1316.9000000000087,1300.4000000000087,1316.9000000000087,1.0,0.0,0.0,,Click Response,2_count,5.0,object-49,temp_dist_trial,37.0,t_m_04_1,travel_Miami,UV jacket,4.0,unique,paired,t_m_04_1.jpg,Travel,,,sub-61
Desktop or Laptop,Windows 10,Chrome 138.0.0.0,1280x1080,1536x935,Temporal Distance Task,cb_04,37.0,temp_dist_trial,dist_items,qkpkxw,2.0,info,,11.69999999999709,0.0,11.69999999999709,11.69999999999709,0.0,11.69999999999709,1.0,0.0,0.0,,Slider,Slider,4.0,object-56,temp_dist_trial,37.0,t_m_04_1,travel_Miami,UV jacket,4.0,unique,paired,t_m_04_1.jpg,Travel,,,sub-61
Desktop or Laptop,Windows 10,Chrome 138.0.0.0,1280x1080,1536x935,Temporal Distance Task,cb_04,37.0,temp_dist_trial,dist_items,qkpkxw,2.0,continue,,1430.6000000953643,1417.1999999999966,1430.6000000953643,1430.6000000953643,1417.1999999999966,1430.6000000953643,1.0,0.0,0.0,,Click To Continue,Next button,7.0,object-60,temp_dist_trial,37.0,t_m_04_1,travel_Miami,UV jacket,4.0,unique,paired,t_m_04_1.jpg,Travel,,,sub-61
Desktop or Laptop,Windows 10,Chrome 138.0.0.0,1280x1080,1536x935,Temporal Distance Task,cb_04,37.0,temp_dist_trial,dist_items,qkpkxw,2.0,response,59,883.5999999999913,1417.1999999999966,1431.1000000953643,883.5999999999913,1417.1999999999966,1431.1000000953643,1.0,547.5000000953733,0.0,,Slider,Slider,4.0,object-56,temp_dist_trial,37.0,t_m_04_1,travel_Miami,UV jacket,4.0,unique,paired,t_m_04_1.jpg,Travel,,,sub-61
Desktop or Laptop,Windows 10,Chrome 138.0.0.0,1280x1080,1536x935,Temporal Distance Task,cb_04,38.0,temp_dist_trial,num_items,zn7si1,1.0,response,1_ITEM,2116.800000190735,2100.800000000003,2116.800000190735,2116.800000190735,2100.800000000003,2116.800000190735,1.0,0.0,0.0,,Click Response,1_count,3.0,object-46,temp_dist_trial,38.0,t_s_19_1,travel_shared,pajamas,4.0,competing,single,t_s_19_1.jpg,Travel,,,sub-61
Desktop or Laptop,Windows 10,Chrome 138.0.0.0,1280x1080,1536x935,Temporal Distance Task,cb_04,39.0,temp_dist_trial,num_items,zn7si1,1.0,response,2_ITEM,1237.300000286108,1233.7000000000114,1237.300000286108,1237.300000286108,1233.7000000000114,1237.300000286108,1.0,0.0,0.0,,Click Response,2_count,5.0,object-49,temp_dist_trial,39.0,t_s_02_1,travel_shared,water bottle,4.0,competing,paired,t_s_02_1.jpg,Travel,,,sub-61
Desktop or Laptop,Windows 10,Chrome 138.0.0.0,1280x1080,1536x935,Temporal Distance Task,cb_04,39.0,temp_dist_trial,dist_items,qkpkxw,2.0,info,,4.500000286105204,0.0,4.500000286105204,4.500000286105204,0.0,4.500000286105204,1.0,0.0,0.0,,Slider,Slider,4.0,object-56,temp_dist_trial,39.0,t_s_02_1,travel_shared,water bottle,4.0,competing,paired,t_s_02_1.jpg,Travel,,,sub-61
Desktop or Laptop,Windows 10,Chrome 138.0.0.0,1280x1080,1536x935,Temporal Distance Task,cb_04,39.0,temp_dist_trial,dist_items,qkpkxw,2.0,continue,,1282.2000000953706,1267.1000000000058,1282.2000000953706,1282.2000000953706,1267.1000000000058,1282.2000000953706,1.0,0.0,0.0,,Click To Continue,Next button,7.0,object-60,temp_dist_trial,39.0,t_s_02_1,travel_shared,water bottle,4.0,competing,paired,t_s_02_1.jpg,Travel,,,sub-61
Desktop or Laptop,Windows 10,Chrome 138.0.0.0,1280x1080,1536x935,Temporal Distance Task,cb_04,39.0,temp_dist_trial,dist_items,qkpkxw,2.0,response,55,666.9000000000087,1267.1000000000058,1283.1000001907378,666.9000000000087,1267.1000000000058,1283.1000001907378,1.0,616.200000190729,0.0,,Slider,Slider,4.0,object-56,temp_dist_trial,39.0,t_s_02_1,travel_shared,water bottle,4.0,competing,paired,t_s_02_1.jpg,Travel,,,sub-61
Desktop or Laptop,Windows 10,Chrome 138.0.0.0,1280x1080,1536x935,Temporal Distance Task,cb_04,40.0,temp_dist_trial,num_items,zn7si1,1.0,response,1_ITEM,1709.5000001907322,1700.6999999999966,1709.5000001907322,1709.5000001907322,1700.6999999999966,1709.5000001907322,1.0,0.0,0.0,,Click Response,1_count,3.0,object-46,temp_dist_trial,40.0,t_m_17_1,travel_Miami,water gun,4.0,unique,paired,t_m_17_1.jpg,Travel,,,sub-61
Desktop or Laptop,Windows 10,Chrome 138.0.0.0,1280x1080,1536x935,Temporal Distance Task,cb_04,41.0,temp_dist_trial,num_items,zn7si1,1.0,response,1_ITEM,1192.6000002860965,1183.7999999999886,1192.6000002860965,1192.6000002860965,1183.7999999999886,1192.6000002860965,1.0,0.0,0.0,,Click Response,1_count,3.0,object-46,temp_dist_trial,41.0,t_s_01_1,travel_shared,fanny pack,4.0,competing,single,t_s_01_1.jpg,Travel,,,sub-61
Desktop or Laptop,Windows 10,Chrome 138.0.0.0,1280x1080,1536x935,Temporal Distance Task,cb_04,42.0,temp_dist_trial,num_items,zn7si1,1.0,response,num_miss,3001.200000000012,3001.200000000012,3001.200000000012,3001.200000000012,3001.200000000012,3001.200000000012,1.0,0.0,0.0,num_miss_tag,Time Limit,screen,0.0,screen,temp_dist_trial,42.0,t_m_14_1,travel_Miami,swim goggles,4.0,unique,paired,t_m_14_1.jpg,Travel,,,sub-61
Desktop or Laptop,Windows 10,Chrome 138.0.0.0,1280x1080,1536x935,Temporal Distance Task,cb_04,43.0,temp_dist_trial,num_items,zn7si1,1.0,response,1_ITEM,1675.4000000953674,1667.2999999999884,1675.4000000953674,1675.4000000953674,1667.2999999999884,1675.4000000953674,1.0,0.0,0.0,,Click Response,1_count,3.0,object-46,temp_dist_trial,43.0,t_s_17_1,travel_shared,toothbrush,4.0,competing,paired,t_s_17_1.jpg,Travel,,,sub-61
Desktop or Laptop,Windows 10,Chrome 138.0.0.0,1280x1080,1536x935,Temporal Distance Task,cb_04,44.0,temp_dist_trial,num_items,zn7si1,1.0,response,2_ITEM,1373.5,1367.1000000000058,1373.5,1373.5,1367.1000000000058,1373.5,1.0,0.0,0.0,,Click Response,2_count,5.0,object-49,temp_dist_trial,44.0,t_m_20_1,travel_Miami,inflatable beachball,4.0,unique,paired,t_m_20_1.jpg,Travel,,,sub-61
Desktop or Laptop,Windows 10,Chrome 138.0.0.0,1280x1080,1536x935,Temporal Distance Task,cb_04,44.0,temp_dist_trial,dist_items,qkpkxw,2.0,info,,12.100000095379071,0.0,12.100000095379071,12.100000095379071,0.0,12.100000095379071,1.0,0.0,0.0,,Slider,Slider,4.0,object-56,temp_dist_trial,44.0,t_m_20_1,travel_Miami,inflatable beachball,4.0,unique,paired,t_m_20_1.jpg,Travel,,,sub-61
Desktop or Laptop,Windows 10,Chrome 138.0.0.0,1280x1080,1536x935,Temporal Distance Task,cb_04,44.0,temp_dist_trial,dist_items,qkpkxw,2.0,continue,,1475.900000286114,1467.1000000000058,1475.900000286114,1475.900000286114,1467.1000000000058,1475.900000286114,1.0,0.0,0.0,,Click To Continue,Next button,7.0,object-60,temp_dist_trial,44.0,t_m_20_1,travel_Miami,inflatable beachball,4.0,unique,paired,t_m_20_1.jpg,Travel,,,sub-61
Desktop or Laptop,Windows 10,Chrome 138.0.0.0,1280x1080,1536x935,Temporal Distance Task,cb_04,44.0,temp_dist_trial,dist_items,qkpkxw,2.0,response,53,883.6000000000058,1467.1000000000058,1476.900000286114,883.6000000000058,1467.1000000000058,1476.900000286114,1.0,593.3000002861081,0.0,,Slider,Slider,4.0,object-56,temp_dist_trial,44.0,t_m_20_1,travel_Miami,inflatable beachball,4.0,unique,paired,t_m_20_1.jpg,Travel,,,sub-61
Desktop or Laptop,Windows 10,Chrome 138.0.0.0,1280x1080,1536x935,Temporal Distance Task,cb_04,45.0,temp_dist_trial,num_items,zn7si1,1.0,response,2_ITEM,1232.900000190741,1217.2000000000114,1232.900000190741,1232.900000190741,1217.2000000000114,1232.900000190741,1.0,0.0,0.0,,Click Response,2_count,5.0,object-49,temp_dist_trial,45.0,t_s_14_1,travel_shared,hand sanitizer,4.0,competing,paired,t_s_14_1.jpg,Travel,,,sub-61
Desktop or Laptop,Windows 10,Chrome 138.0.0.0,1280x1080,1536x935,Temporal Distance Task,cb_04,45.0,temp_dist_trial,dist_items,qkpkxw,2.0,info,,12.000000286090653,0.0,12.000000286090653,12.000000286090653,0.0,12.000000286090653,1.0,0.0,0.0,,Slider,Slider,4.0,object-56,temp_dist_trial,45.0,t_s_14_1,travel_shared,hand sanitizer,4.0,competing,paired,t_s_14_1.jpg,Travel,,,sub-61
Desktop or Laptop,Windows 10,Chrome 138.0.0.0,1280x1080,1536x935,Temporal Distance Task,cb_04,45.0,temp_dist_trial,dist_items,qkpkxw,2.0,continue,,1646.0000002860907,1634.0,1646.0000002860907,1646.0000002860907,1634.0,1646.0000002860907,1.0,0.0,0.0,,Click To Continue,Next button,7.0,object-60,temp_dist_trial,45.0,t_s_14_1,travel_shared,hand sanitizer,4.0,competing,paired,t_s_14_1.jpg,Travel,,,sub-61
Desktop or Laptop,Windows 10,Chrome 138.0.0.0,1280x1080,1536x935,Temporal Distance Task,cb_04,45.0,temp_dist_trial,dist_items,qkpkxw,2.0,response,64,700.2999999999884,1634.0,1647.2000000953558,700.2999999999884,1634.0,1647.2000000953558,1.0,946.9000000953674,0.0,,Slider,Slider,4.0,object-56,temp_dist_trial,45.0,t_s_14_1,travel_shared,hand sanitizer,4.0,competing,paired,t_s_14_1.jpg,Travel,,,sub-61
Desktop or Laptop,Windows 10,Chrome 138.0.0.0,1280x1080,1536x935,Temporal Distance Task,cb_04,46.0,temp_dist_trial,num_items,zn7si1,1.0,response,2_ITEM,2347.500000286091,2334.099999999977,2347.500000286091,2347.500000286091,2334.099999999977,2347.500000286091,1.0,0.0,0.0,,Click Response,2_count,5.0,object-49,temp_dist_trial,46.0,t_m_15_1,travel_Miami,shorts,4.0,unique,single,t_m_15_1.jpg,Travel,,,sub-61
Desktop or Laptop,Windows 10,Chrome 138.0.0.0,1280x1080,1536x935,Temporal Distance Task,cb_04,46.0,temp_dist_trial,dist_items,qkpkxw,2.0,info,,12.199999904638393,0.0,12.199999904638393,12.199999904638393,0.0,12.199999904638393,1.0,0.0,0.0,,Slider,Slider,4.0,object-56,temp_dist_trial,46.0,t_m_15_1,travel_Miami,shorts,4.0,unique,single,t_m_15_1.jpg,Travel,,,sub-61
Desktop or Laptop,Windows 10,Chrome 138.0.0.0,1280x1080,1536x935,Temporal Distance Task,cb_04,46.0,temp_dist_trial,dist_items,qkpkxw,2.0,continue,,2194.800000286108,2184.200000000012,2194.800000286108,2194.800000286108,2184.200000000012,2194.800000286108,1.0,0.0,0.0,,Click To Continue,Next button,7.0,object-60,temp_dist_trial,46.0,t_m_15_1,travel_Miami,shorts,4.0,unique,single,t_m_15_1.jpg,Travel,,,sub-61
Desktop or Laptop,Windows 10,Chrome 138.0.0.0,1280x1080,1536x935,Temporal Distance Task,cb_04,46.0,temp_dist_trial,dist_items,qkpkxw,2.0,response,51,1467.3000000000175,2184.200000000012,2195.5000000953733,1467.3000000000175,2184.200000000012,2195.5000000953733,1.0,728.2000000953557,0.0,,Slider,Slider,4.0,object-56,temp_dist_trial,46.0,t_m_15_1,travel_Miami,shorts,4.0,unique,single,t_m_15_1.jpg,Travel,,,sub-61
Desktop or Laptop,Windows 10,Chrome 138.0.0.0,1280x1080,1536x935,Temporal Distance Task,cb_04,47.0,temp_dist_trial,num_items,zn7si1,1.0,response,1_ITEM,2842.3000000953607,2834.3999999999933,2842.3000000953607,2842.3000000953607,2834.3999999999933,2842.3000000953607,1.0,0.0,0.0,,Click Response,1_count,3.0,object-46,temp_dist_trial,47.0,t_i_09_1,travel_Iceland,ear muffs,4.0,unique,paired,t_i_09_1.jpg,Travel,,,sub-61
Desktop or Laptop,Windows 10,Chrome 138.0.0.0,1280x1080,1536x935,Temporal Distance Task,cb_04,48.0,temp_dist_trial,num_items,zn7si1,1.0,response,num_miss,3001.199999999982,3001.199999999982,3001.199999999982,3001.199999999982,3001.199999999982,3001.199999999982,1.0,0.0,0.0,num_miss_tag,Time Limit,screen,0.0,screen,temp_dist_trial,48.0,t_i_15_1,travel_Iceland,compass,4.0,unique,paired,t_i_15_1.jpg,Travel,,,sub-61
Desktop or Laptop,Windows 10,Chrome 138.0.0.0,1280x1080,1536x935,Temporal Distance Task,cb_04,2.0,temp_eventStart,Screen 1,dgtyxe,1.0,continue,,29392.80000009536,29377.899999999994,29392.80000009536,29392.80000009536,29377.899999999994,29392.80000009536,1.0,0.0,0.0,,Click To Continue,Next Button,3.0,object-43,temp_eventStart,,,Student,,,,,,,,,sub-61
Desktop or Laptop,Windows 10,Chrome 138.0.0.0,1280x1080,1536x935,Temporal Distance Task,cb_04,49.0,temp_dist_trial,num_items,zn7si1,1.0,response,2_ITEM,1837.9000000953674,1834.0,1837.9000000953674,1837.9000000953674,1834.0,1837.9000000953674,1.0,0.0,0.0,,Click Response,2_count,5.0,object-49,temp_dist_trial,1.0,s_a_08_1,student_art,sewing machine,4.0,unique,paired,s_a_08_1.jpg,Student,,,sub-61
Desktop or Laptop,Windows 10,Chrome 138.0.0.0,1280x1080,1536x935,Temporal Distance Task,cb_04,49.0,temp_dist_trial,dist_items,qkpkxw,2.0,info,,5.400000190740683,0.0,5.400000190740683,5.400000190740683,0.0,5.400000190740683,1.0,0.0,0.0,,Slider,Slider,4.0,object-56,temp_dist_trial,1.0,s_a_08_1,student_art,sewing machine,4.0,unique,paired,s_a_08_1.jpg,Student,,,sub-61
Desktop or Laptop,Windows 10,Chrome 138.0.0.0,1280x1080,1536x935,Temporal Distance Task,cb_04,49.0,temp_dist_trial,dist_items,qkpkxw,2.0,continue,,1575.9000001907407,1567.3000000000175,1575.9000001907407,1575.9000001907407,1567.3000000000175,1575.9000001907407,1.0,0.0,0.0,,Click To Continue,Next button,7.0,object-60,temp_dist_trial,1.0,s_a_08_1,student_art,sewing machine,4.0,unique,paired,s_a_08_1.jpg,Student,,,sub-61
Desktop or Laptop,Windows 10,Chrome 138.0.0.0,1280x1080,1536x935,Temporal Distance Task,cb_04,49.0,temp_dist_trial,dist_items,qkpkxw,2.0,response,70,1067.0,1567.3000000000175,1576.3000002861081,1067.0,1567.3000000000175,1576.3000002861081,1.0,509.3000002861081,0.0,,Slider,Slider,4.0,object-56,temp_dist_trial,1.0,s_a_08_1,student_art,sewing machine,4.0,unique,paired,s_a_08_1.jpg,Student,,,sub-61
Desktop or Laptop,Windows 10,Chrome 138.0.0.0,1280x1080,1536x935,Temporal Distance Task,cb_04,50.0,temp_dist_trial,num_items,zn7si1,1.0,response,2_ITEM,899.7999999999884,883.7999999999884,899.7999999999884,899.7999999999884,883.7999999999884,899.7999999999884,1.0,0.0,0.0,,Click Response,2_count,5.0,object-49,temp_dist_trial,2.0,s_sh_10_1,student_shared,scissors,4.0,competing,paired,s_sh_10_1.jpg,Student,,,sub-61
Desktop or Laptop,Windows 10,Chrome 138.0.0.0,1280x1080,1536x935,Temporal Distance Task,cb_04,50.0,temp_dist_trial,dist_items,qkpkxw,2.0,info,,11.899999999994181,0.0,11.899999999994181,11.899999999994181,0.0,11.899999999994181,1.0,0.0,0.0,,Slider,Slider,4.0,object-56,temp_dist_trial,2.0,s_sh_10_1,student_shared,scissors,4.0,competing,paired,s_sh_10_1.jpg,Student,,,sub-61
Desktop or Laptop,Windows 10,Chrome 138.0.0.0,1280x1080,1536x935,Temporal Distance Task,cb_04,50.0,temp_dist_trial,dist_items,qkpkxw,2.0,continue,,1268.6000002860965,1267.0,1268.6000002860965,1268.6000002860965,1267.0,1268.6000002860965,1.0,0.0,0.0,,Click To Continue,Next button,7.0,object-60,temp_dist_trial,2.0,s_sh_10_1,student_shared,scissors,4.0,competing,paired,s_sh_10_1.jpg,Student,,,sub-61
Desktop or Laptop,Windows 10,Chrome 138.0.0.0,1280x1080,1536x935,Temporal Distance Task,cb_04,50.0,temp_dist_trial,dist_items,qkpkxw,2.0,response,62,750.1999999999823,1267.0,1269.4999999046267,750.1999999999823,1267.0,1269.4999999046267,1.0,519.2999999046442,0.0,,Slider,Slider,4.0,object-56,temp_dist_trial,2.0,s_sh_10_1,student_shared,scissors,4.0,competing,paired,s_sh_10_1.jpg,Student,,,sub-61
Desktop or Laptop,Windows 10,Chrome 138.0.0.0,1280x1080,1536x935,Temporal Distance Task,cb_04,51.0,temp_dist_trial,num_items,zn7si1,1.0,response,1_ITEM,1369.8000000953614,1367.2999999999886,1369.8000000953614,1369.8000000953614,1367.2999999999886,1369.8000000953614,1.0,0.0,0.0,,Click Response,1_count,3.0,object-46,temp_dist_trial,3.0,s_a_16_1,student_art,piano,4.0,unique,single,s_a_16_1.jpg,Student,,,sub-61
Desktop or Laptop,Windows 10,Chrome 138.0.0.0,1280x1080,1536x935,Temporal Distance Task,cb_04,52.0,temp_dist_trial,num_items,zn7si1,1.0,response,1_ITEM,1231.8000001907346,1217.1000000000058,1231.8000001907346,1231.8000001907346,1217.1000000000058,1231.8000001907346,1.0,0.0,0.0,,Click Response,1_count,3.0,object-46,temp_dist_trial,4.0,s_a_02_1,student_art,canvas,4.0,unique,single,s_a_02_1.jpg,Student,,,sub-61
Desktop or Laptop,Windows 10,Chrome 138.0.0.0,1280x1080,1536x935,Temporal Distance Task,cb_04,53.0,temp_dist_trial,num_items,zn7si1,1.0,response,1_ITEM,2076.1000001907228,2067.5,2076.1000001907228,2076.1000001907228,2067.5,2076.1000001907228,1.0,0.0,0.0,,Click Response,1_count,3.0,object-46,temp_dist_trial,5.0,s_s_01_1,student_stem,microscope,4.0,unique,single,s_s_01_1.jpg,Student,,,sub-61
Desktop or Laptop,Windows 10,Chrome 138.0.0.0,1280x1080,1536x935,Temporal Distance Task,cb_04,54.0,temp_dist_trial,num_items,zn7si1,1.0,response,2_ITEM,1126.7000000953558,1117.1999999999823,1126.7000000953558,1126.7000000953558,1117.1999999999823,1126.7000000953558,1.0,0.0,0.0,,Click Response,2_count,5.0,object-49,temp_dist_trial,6.0,s_sh_19_1,student_shared,portable plastic drawer,4.0,competing,paired,s_sh_19_1.jpg,Student,,,sub-61
Desktop or Laptop,Windows 10,Chrome 138.0.0.0,1280x1080,1536x935,Temporal Distance Task,cb_04,54.0,temp_dist_trial,dist_items,qkpkxw,2.0,info,,10.800000190734863,0.0,10.800000190734863,10.800000190734863,0.0,10.800000190734863,1.0,0.0,0.0,,Slider,Slider,4.0,object-56,temp_dist_trial,6.0,s_sh_19_1,student_shared,portable plastic drawer,4.0,competing,paired,s_sh_19_1.jpg,Student,,,sub-61
Desktop or Laptop,Windows 10,Chrome 138.0.0.0,1280x1080,1536x935,Temporal Distance Task,cb_04,54.0,temp_dist_trial,dist_items,qkpkxw,2.0,continue,,1327.3000001907346,1317.1000000000058,1327.3000001907346,1327.3000001907346,1317.1000000000058,1327.3000001907346,1.0,0.0,0.0,,Click To Continue,Next button,7.0,object-60,temp_dist_trial,6.0,s_sh_19_1,student_shared,portable plastic drawer,4.0,competing,paired,s_sh_19_1.jpg,Student,,,sub-61
Desktop or Laptop,Windows 10,Chrome 138.0.0.0,1280x1080,1536x935,Temporal Distance Task,cb_04,54.0,temp_dist_trial,dist_items,qkpkxw,2.0,response,59,750.2999999999884,1317.1000000000058,1327.9000000953674,750.2999999999884,1317.1000000000058,1327.9000000953674,1.0,577.6000000953791,0.0,,Slider,Slider,4.0,object-56,temp_dist_trial,6.0,s_sh_19_1,student_shared,portable plastic drawer,4.0,competing,paired,s_sh_19_1.jpg,Student,,,sub-61
Desktop or Laptop,Windows 10,Chrome 138.0.0.0,1280x1080,1536x935,Temporal Distance Task,cb_04,55.0,temp_dist_trial,num_items,zn7si1,1.0,response,1_ITEM,1233.7000000000114,1217.1000000000058,1233.7000000000114,1233.7000000000114,1217.1000000000058,1233.7000000000114,1.0,0.0,0.0,,Click Response,1_count,3.0,object-46,temp_dist_trial,7.0,s_sh_15_1,student_shared,usb drive,4.0,competing,paired,s_sh_15_1.jpg,Student,,,sub-61
Desktop or Laptop,Windows 10,Chrome 138.0.0.0,1280x1080,1536x935,Temporal Distance Task,cb_04,56.0,temp_dist_trial,num_items,zn7si1,1.0,response,2_ITEM,1286.6000000000058,1283.8000000000175,1286.6000000000058,1286.6000000000058,1283.8000000000175,1286.6000000000058,1.0,0.0,0.0,,Click Response,2_count,5.0,object-49,temp_dist_trial,8.0,s_sh_06_1,student_shared,clipboard,4.0,competing,paired,s_sh_06_1.jpg,Student,,,sub-61
Desktop or Laptop,Windows 10,Chrome 138.0.0.0,1280x1080,1536x935,Temporal Distance Task,cb_04,56.0,temp_dist_trial,dist_items,qkpkxw,2.0,info,,12.100000095379071,0.0,12.100000095379071,12.100000095379071,0.0,12.100000095379071,1.0,0.0,0.0,,Slider,Slider,4.0,object-56,temp_dist_trial,8.0,s_sh_06_1,student_shared,clipboard,4.0,competing,paired,s_sh_06_1.jpg,Student,,,sub-61
Desktop or Laptop,Windows 10,Chrome 138.0.0.0,1280x1080,1536x935,Temporal Distance Task,cb_04,56.0,temp_dist_trial,dist_items,qkpkxw,2.0,continue,,1680.600000095379,1667.2000000000116,1680.600000095379,1680.600000095379,1667.2000000000116,1680.600000095379,1.0,0.0,0.0,,Click To Continue,Next button,7.0,object-60,temp_dist_trial,8.0,s_sh_06_1,student_shared,clipboard,4.0,competing,paired,s_sh_06_1.jpg,Student,,,sub-61
Desktop or Laptop,Windows 10,Chrome 138.0.0.0,1280x1080,1536x935,Temporal Distance Task,cb_04,56.0,temp_dist_trial,dist_items,qkpkxw,2.0,response,54,1150.4000000000233,1667.2000000000116,1681.7000000000116,1150.4000000000233,1667.2000000000116,1681.7000000000116,1.0,531.2999999999884,0.0,,Slider,Slider,4.0,object-56,temp_dist_trial,8.0,s_sh_06_1,student_shared,clipboard,4.0,competing,paired,s_sh_06_1.jpg,Student,,,sub-61
Desktop or Laptop,Windows 10,Chrome 138.0.0.0,1280x1080,1536x935,Temporal Distance Task,cb_04,57.0,temp_dist_trial,num_items,zn7si1,1.0,response,2_ITEM,877.3000001907349,867.0,877.3000001907349,877.3000001907349,867.0,877.3000001907349,1.0,0.0,0.0,,Click Response,2_count,5.0,object-49,temp_dist_trial,9.0,s_sh_03_1,student_shared,highlighter,4.0,competing,paired,s_sh_03_1.jpg,Student,,,sub-61
Desktop or Laptop,Windows 10,Chrome 138.0.0.0,1280x1080,1536x935,Temporal Distance Task,cb_04,57.0,temp_dist_trial,dist_items,qkpkxw,2.0,info,,9.100000286096476,0.0,9.100000286096476,9.100000286096476,0.0,9.100000286096476,1.0,0.0,0.0,,Slider,Slider,4.0,object-56,temp_dist_trial,9.0,s_sh_03_1,student_shared,highlighter,4.0,competing,paired,s_sh_03_1.jpg,Student,,,sub-61
Desktop or Laptop,Windows 10,Chrome 138.0.0.0,1280x1080,1536x935,Temporal Distance Task,cb_04,57.0,temp_dist_trial,dist_items,qkpkxw,2.0,continue,,1335.6000002860965,1333.7999999999886,1335.6000002860965,1335.6000002860965,1333.7999999999886,1335.6000002860965,1.0,0.0,0.0,,Click To Continue,Next button,7.0,object-60,temp_dist_trial,9.0,s_sh_03_1,student_shared,highlighter,4.0,competing,paired,s_sh_03_1.jpg,Student,,,sub-61
Desktop or Laptop,Windows 10,Chrome 138.0.0.0,1280x1080,1536x935,Temporal Distance Task,cb_04,57.0,temp_dist_trial,dist_items,qkpkxw,2.0,response,56,717.0,1333.7999999999886,1345.1000002860965,717.0,1333.7999999999886,1345.1000002860965,1.0,628.1000002860965,0.0,,Slider,Slider,4.0,object-56,temp_dist_trial,9.0,s_sh_03_1,student_shared,highlighter,4.0,competing,paired,s_sh_03_1.jpg,Student,,,sub-61
Desktop or Laptop,Windows 10,Chrome 138.0.0.0,1280x1080,1536x935,Temporal Distance Task,cb_04,58.0,temp_dist_trial,num_items,zn7si1,1.0,response,1_ITEM,1608.5000000953733,1600.7000000000116,1608.5000000953733,1608.5000000953733,1600.7000000000116,1608.5000000953733,1.0,0.0,0.0,,Click Response,1_count,3.0,object-46,temp_dist_trial,10.0,s_sh_02_1,student_shared,eraser,4.0,competing,paired,s_sh_02_1.jpg,Student,,,sub-61
Desktop or Laptop,Windows 10,Chrome 138.0.0.0,1280x1080,1536x935,Temporal Distance Task,cb_04,59.0,temp_dist_trial,num_items,zn7si1,1.0,response,2_ITEM,1349.899999904621,1333.6999999999825,1349.899999904621,1349.899999904621,1333.6999999999825,1349.899999904621,1.0,0.0,0.0,,Click Response,2_count,5.0,object-49,temp_dist_trial,11.0,s_sh_07_1,student_shared,ruler,4.0,competing,paired,s_sh_07_1.jpg,Student,,,sub-61
Desktop or Laptop,Windows 10,Chrome 138.0.0.0,1280x1080,1536x935,Temporal Distance Task,cb_04,59.0,temp_dist_trial,dist_items,qkpkxw,2.0,info,,5.3000002861081175,0.0,5.3000002861081175,5.3000002861081175,0.0,5.3000002861081175,1.0,0.0,0.0,,Slider,Slider,4.0,object-56,temp_dist_trial,11.0,s_sh_07_1,student_shared,ruler,4.0,competing,paired,s_sh_07_1.jpg,Student,,,sub-61
Desktop or Laptop,Windows 10,Chrome 138.0.0.0,1280x1080,1536x935,Temporal Distance Task,cb_04,59.0,temp_dist_trial,dist_items,qkpkxw,2.0,continue,,2775.6000000000067,2767.8999999999933,2775.6000000000067,2775.6000000000067,2767.8999999999933,2775.6000000000067,1.0,0.0,0.0,,Click To Continue,Next button,7.0,object-60,temp_dist_trial,11.0,s_sh_07_1,student_shared,ruler,4.0,competing,paired,s_sh_07_1.jpg,Student,,,sub-61
Desktop or Laptop,Windows 10,Chrome 138.0.0.0,1280x1080,1536x935,Temporal Distance Task,cb_04,59.0,temp_dist_trial,dist_items,qkpkxw,2.0,response,54,1117.3000000000177,2767.8999999999933,2776.400000190741,1117.3000000000177,2767.8999999999933,2776.400000190741,1.0,1659.1000001907232,0.0,,Slider,Slider,4.0,object-56,temp_dist_trial,11.0,s_sh_07_1,student_shared,ruler,4.0,competing,paired,s_sh_07_1.jpg,Student,,,sub-61
Desktop or Laptop,Windows 10,Chrome 138.0.0.0,1280x1080,1536x935,Temporal Distance Task,cb_04,60.0,temp_dist_trial,num_items,zn7si1,1.0,response,1_ITEM,1223.5000001907465,1217.2000000000114,1223.5000001907465,1223.5000001907465,1217.2000000000114,1223.5000001907465,1.0,0.0,0.0,,Click Response,1_count,3.0,object-46,temp_dist_trial,12.0,s_sh_22_1,student_shared,hole puncher,4.0,competing,single,s_sh_22_1.jpg,Student,,,sub-61
Desktop or Laptop,Windows 10,Chrome 138.0.0.0,1280x1080,1536x935,Temporal Distance Task,cb_04,61.0,temp_dist_trial,num_items,zn7si1,1.0,response,2_ITEM,1307.700000190729,1300.5,1307.700000190729,1307.700000190729,1300.5,1307.700000190729,1.0,0.0,0.0,,Click Response,2_count,5.0,object-49,temp_dist_trial,13.0,s_s_03_1,student_stem,petri dish,4.0,unique,paired,s_s_03_1.jpg,Student,,,sub-61
Desktop or Laptop,Windows 10,Chrome 138.0.0.0,1280x1080,1536x935,Temporal Distance Task,cb_04,61.0,temp_dist_trial,dist_items,qkpkxw,2.0,info,,4.3999999999941775,0.0,4.3999999999941775,4.3999999999941775,0.0,4.3999999999941775,1.0,0.0,0.0,,Slider,Slider,4.0,object-56,temp_dist_trial,13.0,s_s_03_1,student_stem,petri dish,4.0,unique,paired,s_s_03_1.jpg,Student,,,sub-61
Desktop or Laptop,Windows 10,Chrome 138.0.0.0,1280x1080,1536x935,Temporal Distance Task,cb_04,61.0,temp_dist_trial,dist_items,qkpkxw,2.0,continue,,1708.9999999046267,1700.6999999999825,1708.9999999046267,1708.9999999046267,1700.6999999999825,1708.9999999046267,1.0,0.0,0.0,,Click To Continue,Next button,7.0,object-60,temp_dist_trial,13.0,s_s_03_1,student_stem,petri dish,4.0,unique,paired,s_s_03_1.jpg,Student,,,sub-61
Desktop or Laptop,Windows 10,Chrome 138.0.0.0,1280x1080,1536x935,Temporal Distance Task,cb_04,61.0,temp_dist_trial,dist_items,qkpkxw,2.0,response,70,1100.5,1700.6999999999825,1717.3999999999646,1100.5,1700.6999999999825,1717.3999999999646,1.0,616.8999999999653,0.0,,Slider,Slider,4.0,object-56,temp_dist_trial,13.0,s_s_03_1,student_stem,petri dish,4.0,unique,paired,s_s_03_1.jpg,Student,,,sub-61
Desktop or Laptop,Windows 10,Chrome 138.0.0.0,1280x1080,1536x935,Temporal Distance Task,cb_04,62.0,temp_dist_trial,num_items,zn7si1,1.0,response,2_ITEM,1240.2000000000114,1233.8000000000175,1240.2000000000114,1240.2000000000114,1233.8000000000175,1240.2000000000114,1.0,0.0,0.0,,Click Response,2_count,5.0,object-49,temp_dist_trial,14.0,s_s_12_1,student_stem,robotic arm,4.0,unique,paired,s_s_12_1.jpg,Student,,,sub-61
Desktop or Laptop,Windows 10,Chrome 138.0.0.0,1280x1080,1536x935,Temporal Distance Task,cb_04,62.0,temp_dist_trial,dist_items,qkpkxw,2.0,info,,4.399999904620927,0.0,4.399999904620927,4.399999904620927,0.0,4.399999904620927,1.0,0.0,0.0,,Slider,Slider,4.0,object-56,temp_dist_trial,14.0,s_s_12_1,student_stem,robotic arm,4.0,unique,paired,s_s_12_1.jpg,Student,,,sub-61
Desktop or Laptop,Windows 10,Chrome 138.0.0.0,1280x1080,1536x935,Temporal Distance Task,cb_04,62.0,temp_dist_trial,dist_items,qkpkxw,2.0,continue,,2708.1000001907228,2701.0,2708.1000001907228,2708.1000001907228,2701.0,2708.1000001907228,1.0,0.0,0.0,,Click To Continue,Next button,7.0,object-60,temp_dist_trial,14.0,s_s_12_1,student_stem,robotic arm,4.0,unique,paired,s_s_12_1.jpg,Student,,,sub-61
Desktop or Laptop,Windows 10,Chrome 138.0.0.0,1280x1080,1536x935,Temporal Distance Task,cb_04,62.0,temp_dist_trial,dist_items,qkpkxw,2.0,response,34,1000.2999999999884,2701.0,2708.899999904621,1000.2999999999884,2701.0,2708.899999904621,1.0,1708.5999999046326,0.0,,Slider,Slider,4.0,object-56,temp_dist_trial,14.0,s_s_12_1,student_stem,robotic arm,4.0,unique,paired,s_s_12_1.jpg,Student,,,sub-61
Desktop or Laptop,Windows 10,Chrome 138.0.0.0,1280x1080,1536x935,Temporal Distance Task,cb_04,63.0,temp_dist_trial,num_items,zn7si1,1.0,response,1_ITEM,1575.1000001907232,1567.2999999999884,1575.1000001907232,1575.1000001907232,1567.2999999999884,1575.1000001907232,1.0,0.0,0.0,,Click Response,1_count,3.0,object-46,temp_dist_trial,15.0,s_s_09_1,student_stem,multimeter,4.0,unique,single,s_s_09_1.jpg,Student,,,sub-61
Desktop or Laptop,Windows 10,Chrome 138.0.0.0,1280x1080,1536x935,Temporal Distance Task,cb_04,64.0,temp_dist_trial,num_items,zn7si1,1.0,response,1_ITEM,1733.8000001907349,1717.2999999999884,1733.8000001907349,1733.8000001907349,1717.2999999999884,1733.8000001907349,1.0,0.0,0.0,,Click Response,1_count,3.0,object-46,temp_dist_trial,16.0,s_a_10_1,student_art,tripod,4.0,unique,paired,s_a_10_1.jpg,Student,,,sub-61
Desktop or Laptop,Windows 10,Chrome 138.0.0.0,1280x1080,1536x935,Temporal Distance Task,cb_04,65.0,temp_dist_trial,num_items,zn7si1,1.0,response,2_ITEM,958.0,950.2999999999884,958.0,958.0,950.2999999999884,958.0,1.0,0.0,0.0,,Click Response,2_count,5.0,object-49,temp_dist_trial,17.0,s_s_14_1,student_stem,funnel,4.0,unique,paired,s_s_14_1.jpg,Student,,,sub-61
Desktop or Laptop,Windows 10,Chrome 138.0.0.0,1280x1080,1536x935,Temporal Distance Task,cb_04,65.0,temp_dist_trial,dist_items,qkpkxw,2.0,info,,12.700000286102295,0.0,12.700000286102295,12.700000286102295,0.0,12.700000286102295,1.0,0.0,0.0,,Slider,Slider,4.0,object-56,temp_dist_trial,17.0,s_s_14_1,student_stem,funnel,4.0,unique,paired,s_s_14_1.jpg,Student,,,sub-61
Desktop or Laptop,Windows 10,Chrome 138.0.0.0,1280x1080,1536x935,Temporal Distance Task,cb_04,65.0,temp_dist_trial,dist_items,qkpkxw,2.0,continue,,1661.0999999046326,1650.6000000000058,1661.0999999046326,1661.0999999046326,1650.6000000000058,1661.0999999046326,1.0,0.0,0.0,,Click To Continue,Next button,7.0,object-60,temp_dist_trial,17.0,s_s_14_1,student_stem,funnel,4.0,unique,paired,s_s_14_1.jpg,Student,,,sub-61
Desktop or Laptop,Windows 10,Chrome 138.0.0.0,1280x1080,1536x935,Temporal Distance Task,cb_04,65.0,temp_dist_trial,dist_items,qkpkxw,2.0,response,55,1133.7000000000114,1650.6000000000058,1667.4000000000233,1133.7000000000114,1650.6000000000058,1667.4000000000233,1.0,533.7000000000116,0.0,,Slider,Slider,4.0,object-56,temp_dist_trial,17.0,s_s_14_1,student_stem,funnel,4.0,unique,paired,s_s_14_1.jpg,Student,,,sub-61
Desktop or Laptop,Windows 10,Chrome 138.0.0.0,1280x1080,1536x935,Temporal Distance Task,cb_04,66.0,temp_dist_trial,num_items,zn7si1,1.0,response,1_ITEM,1090.1000002860962,1083.6999999999823,1090.1000002860962,1090.1000002860962,1083.6999999999823,1090.1000002860962,1.0,0.0,0.0,,Click Response,1_count,3.0,object-46,temp_dist_trial,18.0,s_s_07_1,student_stem,periodic table,4.0,unique,single,s_s_07_1.jpg,Student,,,sub-61
Desktop or Laptop,Windows 10,Chrome 138.0.0.0,1280x1080,1536x935,Temporal Distance Task,cb_04,67.0,temp_dist_trial,num_items,zn7si1,1.0,response,2_ITEM,964.6000000000058,950.3000000000177,964.6000000000058,964.6000000000058,950.3000000000177,964.6000000000058,1.0,0.0,0.0,,Click Response,2_count,5.0,object-49,temp_dist_trial,19.0,s_a_13_1,student_art,violin,4.0,unique,paired,s_a_13_1.jpg,Student,,,sub-61
Desktop or Laptop,Windows 10,Chrome 138.0.0.0,1280x1080,1536x935,Temporal Distance Task,cb_04,67.0,temp_dist_trial,dist_items,qkpkxw,2.0,info,,5.000000095373252,0.0,5.000000095373252,5.000000095373252,0.0,5.000000095373252,1.0,0.0,0.0,,Slider,Slider,4.0,object-56,temp_dist_trial,19.0,s_a_13_1,student_art,violin,4.0,unique,paired,s_a_13_1.jpg,Student,,,sub-61
Desktop or Laptop,Windows 10,Chrome 138.0.0.0,1280x1080,1536x935,Temporal Distance Task,cb_04,67.0,temp_dist_trial,dist_items,qkpkxw,2.0,continue,,1291.6000000000058,1283.8000000000175,1291.6000000000058,1291.6000000000058,1283.8000000000175,1291.6000000000058,1.0,0.0,0.0,,Click To Continue,Next button,7.0,object-60,temp_dist_trial,19.0,s_a_13_1,student_art,violin,4.0,unique,paired,s_a_13_1.jpg,Student,,,sub-61
Desktop or Laptop,Windows 10,Chrome 138.0.0.0,1280x1080,1536x935,Temporal Distance Task,cb_04,67.0,temp_dist_trial,dist_items,qkpkxw,2.0,response,67,766.8999999999942,1283.8000000000175,1292.6000000000058,766.8999999999942,1283.8000000000175,1292.6000000000058,1.0,525.7000000000116,0.0,,Slider,Slider,4.0,object-56,temp_dist_trial,19.0,s_a_13_1,student_art,violin,4.0,unique,paired,s_a_13_1.jpg,Student,,,sub-61
Desktop or Laptop,Windows 10,Chrome 138.0.0.0,1280x1080,1536x935,Temporal Distance Task,cb_04,68.0,temp_dist_trial,num_items,zn7si1,1.0,response,2_ITEM,1424.0000002860907,1417.0999999999767,1424.0000002860907,1424.0000002860907,1417.0999999999767,1424.0000002860907,1.0,0.0,0.0,,Click Response,2_count,5.0,object-49,temp_dist_trial,20.0,s_sh_24_1,student_shared,desk organizer,4.0,competing,paired,s_sh_24_1.jpg,Student,,,sub-61
Desktop or Laptop,Windows 10,Chrome 138.0.0.0,1280x1080,1536x935,Temporal Distance Task,cb_04,68.0,temp_dist_trial,dist_items,qkpkxw,2.0,info,,12.200000286102295,0.0,12.200000286102295,12.200000286102295,0.0,12.200000286102295,1.0,0.0,0.0,,Slider,Slider,4.0,object-56,temp_dist_trial,20.0,s_sh_24_1,student_shared,desk organizer,4.0,competing,paired,s_sh_24_1.jpg,Student,,,sub-61
Desktop or Laptop,Windows 10,Chrome 138.0.0.0,1280x1080,1536x935,Temporal Distance Task,cb_04,68.0,temp_dist_trial,dist_items,qkpkxw,2.0,continue,,1516.5999999046326,1500.6000000000058,1516.5999999046326,1516.5999999046326,1500.6000000000058,1516.5999999046326,1.0,0.0,0.0,,Click To Continue,Next button,7.0,object-60,temp_dist_trial,20.0,s_sh_24_1,student_shared,desk organizer,4.0,competing,paired,s_sh_24_1.jpg,Student,,,sub-61
Desktop or Laptop,Windows 10,Chrome 138.0.0.0,1280x1080,1536x935,Temporal Distance Task,cb_04,68.0,temp_dist_trial,dist_items,qkpkxw,2.0,response,42,1000.3999999999942,1500.6000000000058,1517.3000000000175,1000.3999999999942,1500.6000000000058,1517.3000000000175,1.0,516.9000000000234,0.0,,Slider,Slider,4.0,object-56,temp_dist_trial,20.0,s_sh_24_1,student_shared,desk organizer,4.0,competing,paired,s_sh_24_1.jpg,Student,,,sub-61
Desktop or Laptop,Windows 10,Chrome 138.0.0.0,1280x1080,1536x935,Temporal Distance Task,cb_04,69.0,temp_dist_trial,num_items,zn7si1,1.0,response,1_ITEM,1663.4999999046267,1650.5,1663.4999999046267,1663.4999999046267,1650.5,1663.4999999046267,1.0,0.0,0.0,,Click Response,1_count,3.0,object-46,temp_dist_trial,21.0,s_sh_08_1,student_shared,post-its,4.0,competing,single,s_sh_08_1.jpg,Student,,,sub-61
Desktop or Laptop,Windows 10,Chrome 138.0.0.0,1280x1080,1536x935,Temporal Distance Task,cb_04,70.0,temp_dist_trial,num_items,zn7si1,1.0,response,2_ITEM,2753.7999999999884,2750.8999999999933,2753.7999999999884,2753.7999999999884,2750.8999999999933,2753.7999999999884,1.0,0.0,0.0,,Click Response,2_count,5.0,object-49,temp_dist_trial,22.0,s_a_11_1,student_art,clapperboard,4.0,unique,paired,s_a_11_1.jpg,Student,,,sub-61
Desktop or Laptop,Windows 10,Chrome 138.0.0.0,1280x1080,1536x935,Temporal Distance Task,cb_04,70.0,temp_dist_trial,dist_items,qkpkxw,2.0,info,,11.500000190746505,0.0,11.500000190746505,11.500000190746505,0.0,11.500000190746505,1.0,0.0,0.0,,Slider,Slider,4.0,object-56,temp_dist_trial,22.0,s_a_11_1,student_art,clapperboard,4.0,unique,paired,s_a_11_1.jpg,Student,,,sub-61
Desktop or Laptop,Windows 10,Chrome 138.0.0.0,1280x1080,1536x935,Temporal Distance Task,cb_04,70.0,temp_dist_trial,dist_items,qkpkxw,2.0,continue,,1209.7999999046442,1200.6000000000058,1209.7999999046442,1209.7999999046442,1200.6000000000058,1209.7999999046442,1.0,0.0,0.0,,Click To Continue,Next button,7.0,object-60,temp_dist_trial,22.0,s_a_11_1,student_art,clapperboard,4.0,unique,paired,s_a_11_1.jpg,Student,,,sub-61
Desktop or Laptop,Windows 10,Chrome 138.0.0.0,1280x1080,1536x935,Temporal Distance Task,cb_04,70.0,temp_dist_trial,dist_items,qkpkxw,2.0,response,62,717.0,1200.6000000000058,1210.400000286114,717.0,1200.6000000000058,1210.400000286114,1.0,493.400000286114,0.0,,Slider,Slider,4.0,object-56,temp_dist_trial,22.0,s_a_11_1,student_art,clapperboard,4.0,unique,paired,s_a_11_1.jpg,Student,,,sub-61
Desktop or Laptop,Windows 10,Chrome 138.0.0.0,1280x1080,1536x935,Temporal Distance Task,cb_04,71.0,temp_dist_trial,num_items,zn7si1,1.0,response,2_ITEM,1809.0000000953733,1800.6000000000058,1809.0000000953733,1809.0000000953733,1800.6000000000058,1809.0000000953733,1.0,0.0,0.0,,Click Response,2_count,5.0,object-49,temp_dist_trial,23.0,s_a_20_1,student_art,pin cushion,4.0,unique,paired,s_a_20_1.jpg,Student,,,sub-61
Desktop or Laptop,Windows 10,Chrome 138.0.0.0,1280x1080,1536x935,Temporal Distance Task,cb_04,71.0,temp_dist_trial,dist_items,qkpkxw,2.0,info,,13.499999904626751,0.0,13.499999904626751,13.499999904626751,0.0,13.499999904626751,1.0,0.0,0.0,,Slider,Slider,4.0,object-56,temp_dist_trial,23.0,s_a_20_1,student_art,pin cushion,4.0,unique,paired,s_a_20_1.jpg,Student,,,sub-61
Desktop or Laptop,Windows 10,Chrome 138.0.0.0,1280x1080,1536x935,Temporal Distance Task,cb_04,71.0,temp_dist_trial,dist_items,qkpkxw,2.0,continue,,2533.999999904627,2517.6000000000063,2533.999999904627,2533.999999904627,2517.6000000000063,2533.999999904627,1.0,0.0,0.0,,Click To Continue,Next button,7.0,object-60,temp_dist_trial,23.0,s_a_20_1,student_art,pin cushion,4.0,unique,paired,s_a_20_1.jpg,Student,,,sub-61
Desktop or Laptop,Windows 10,Chrome 138.0.0.0,1280x1080,1536x935,Temporal Distance Task,cb_04,71.0,temp_dist_trial,dist_items,qkpkxw,2.0,response,45,2000.6999999999825,2517.6000000000063,2534.200000000012,2000.6999999999825,2517.6000000000063,2534.200000000012,1.0,533.5000000000291,0.0,,Slider,Slider,4.0,object-56,temp_dist_trial,23.0,s_a_20_1,student_art,pin cushion,4.0,unique,paired,s_a_20_1.jpg,Student,,,sub-61
Desktop or Laptop,Windows 10,Chrome 138.0.0.0,1280x1080,1536x935,Temporal Distance Task,cb_04,72.0,temp_dist_trial,num_items,zn7si1,1.0,response,2_ITEM,1216.2999999999886,1200.5,1216.2999999999886,1216.2999999999886,1200.5,1216.2999999999886,1.0,0.0,0.0,,Click Response,2_count,5.0,object-49,temp_dist_trial,24.0,s_sh_04_1,student_shared,laptop stand,4.0,competing,single,s_sh_04_1.jpg,Student,,,sub-61
Desktop or Laptop,Windows 10,Chrome 138.0.0.0,1280x1080,1536x935,Temporal Distance Task,cb_04,72.0,temp_dist_trial,dist_items,qkpkxw,2.0,info,,10.399999904620927,0.0,10.399999904620927,10.399999904620927,0.0,10.399999904620927,1.0,0.0,0.0,,Slider,Slider,4.0,object-56,temp_dist_trial,24.0,s_sh_04_1,student_shared,laptop stand,4.0,competing,single,s_sh_04_1.jpg,Student,,,sub-61
Desktop or Laptop,Windows 10,Chrome 138.0.0.0,1280x1080,1536x935,Temporal Distance Task,cb_04,72.0,temp_dist_trial,dist_items,qkpkxw,2.0,continue,,1539.6000001907232,1533.7999999999884,1539.6000001907232,1539.6000001907232,1533.7999999999884,1539.6000001907232,1.0,0.0,0.0,,Click To Continue,Next button,7.0,object-60,temp_dist_trial,24.0,s_sh_04_1,student_shared,laptop stand,4.0,competing,single,s_sh_04_1.jpg,Student,,,sub-61
Desktop or Laptop,Windows 10,Chrome 138.0.0.0,1280x1080,1536x935,Temporal Distance Task,cb_04,72.0,temp_dist_trial,dist_items,qkpkxw,2.0,response,42,1033.6999999999823,1533.7999999999884,1540.1000001907232,1033.6999999999823,1533.7999999999884,1540.1000001907232,1.0,506.4000001907407,0.0,,Slider,Slider,4.0,object-56,temp_dist_trial,24.0,s_sh_04_1,student_shared,laptop stand,4.0,competing,single,s_sh_04_1.jpg,Student,,,sub-61
Desktop or Laptop,Windows 10,Chrome 138.0.0.0,1280x1080,1536x935,Temporal Distance Task,cb_04,73.0,temp_dist_trial,num_items,zn7si1,1.0,response,2_ITEM,1048.0,1033.8999999999942,1048.0,1048.0,1033.8999999999942,1048.0,1.0,0.0,0.0,,Click Response,2_count,5.0,object-49,temp_dist_trial,25.0,s_a_03_1,student_art,palette,4.0,unique,paired,s_a_03_1.jpg,Student,,,sub-61
Desktop or Laptop,Windows 10,Chrome 138.0.0.0,1280x1080,1536x935,Temporal Distance Task,cb_04,73.0,temp_dist_trial,dist_items,qkpkxw,2.0,info,,4.400000190740684,0.0,4.400000190740684,4.400000190740684,0.0,4.400000190740684,1.0,0.0,0.0,,Slider,Slider,4.0,object-56,temp_dist_trial,25.0,s_a_03_1,student_art,palette,4.0,unique,paired,s_a_03_1.jpg,Student,,,sub-61
Desktop or Laptop,Windows 10,Chrome 138.0.0.0,1280x1080,1536x935,Temporal Distance Task,cb_04,73.0,temp_dist_trial,dist_items,qkpkxw,2.0,continue,,3234.6000000000067,3218.0,3234.6000000000067,3234.6000000000067,3218.0,3234.6000000000067,1.0,0.0,0.0,,Click To Continue,Next button,7.0,object-60,temp_dist_trial,25.0,s_a_03_1,student_art,palette,4.0,unique,paired,s_a_03_1.jpg,Student,,,sub-61
Desktop or Laptop,Windows 10,Chrome 138.0.0.0,1280x1080,1536x935,Temporal Distance Task,cb_04,73.0,temp_dist_trial,dist_items,qkpkxw,2.0,response,46,1534.1000000000058,3218.0,3234.6000000000067,1534.1000000000058,3218.0,3234.6000000000067,1.0,1700.5,0.0,,Slider,Slider,4.0,object-56,temp_dist_trial,25.0,s_a_03_1,student_art,palette,4.0,unique,paired,s_a_03_1.jpg,Student,,,sub-61
Desktop or Laptop,Windows 10,Chrome 138.0.0.0,1280x1080,1536x935,Temporal Distance Task,cb_04,74.0,temp_dist_trial,num_items,zn7si1,1.0,response,1_ITEM,1849.3000002861081,1834.0,1849.3000002861081,1849.3000002861081,1834.0,1849.3000002861081,1.0,0.0,0.0,,Click Response,1_count,3.0,object-46,temp_dist_trial,26.0,s_s_02_1,student_stem,flask,4.0,unique,single,s_s_02_1.jpg,Student,,,sub-61
Desktop or Laptop,Windows 10,Chrome 138.0.0.0,1280x1080,1536x935,Temporal Distance Task,cb_04,75.0,temp_dist_trial,num_items,zn7si1,1.0,response,1_ITEM,1363.3000001907346,1350.5,1363.3000001907346,1363.3000001907346,1350.5,1363.3000001907346,1.0,0.0,0.0,,Click Response,1_count,3.0,object-46,temp_dist_trial,27.0,s_a_17_1,student_art,microphone,4.0,unique,single,s_a_17_1.jpg,Student,,,sub-61
Desktop or Laptop,Windows 10,Chrome 138.0.0.0,1280x1080,1536x935,Temporal Distance Task,cb_04,76.0,temp_dist_trial,num_items,zn7si1,1.0,response,2_ITEM,1155.3000001907346,1150.5,1155.3000001907346,1155.3000001907346,1150.5,1155.3000001907346,1.0,0.0,0.0,,Click Response,2_count,5.0,object-49,temp_dist_trial,28.0,s_sh_21_1,student_shared,file holder,4.0,competing,paired,s_sh_21_1.jpg,Student,,,sub-61
Desktop or Laptop,Windows 10,Chrome 138.0.0.0,1280x1080,1536x935,Temporal Distance Task,cb_04,76.0,temp_dist_trial,dist_items,qkpkxw,2.0,info,,5.100000286096472,0.0,5.100000286096472,5.100000286096472,0.0,5.100000286096472,1.0,0.0,0.0,,Slider,Slider,4.0,object-56,temp_dist_trial,28.0,s_sh_21_1,student_shared,file holder,4.0,competing,paired,s_sh_21_1.jpg,Student,,,sub-61
Desktop or Laptop,Windows 10,Chrome 138.0.0.0,1280x1080,1536x935,Temporal Distance Task,cb_04,76.0,temp_dist_trial,dist_items,qkpkxw,2.0,continue,,1970.8000000953616,1967.5,1970.8000000953616,1970.8000000953616,1967.5,1970.8000000953616,1.0,0.0,0.0,,Click To Continue,Next button,7.0,object-60,temp_dist_trial,28.0,s_sh_21_1,student_shared,file holder,4.0,competing,paired,s_sh_21_1.jpg,Student,,,sub-61
Desktop or Laptop,Windows 10,Chrome 138.0.0.0,1280x1080,1536x935,Temporal Distance Task,cb_04,76.0,temp_dist_trial,dist_items,qkpkxw,2.0,response,59,1217.1999999999825,1967.5,1977.1000002860965,1217.1999999999825,1967.5,1977.1000002860965,1.0,759.9000002861139,0.0,,Slider,Slider,4.0,object-56,temp_dist_trial,28.0,s_sh_21_1,student_shared,file holder,4.0,competing,paired,s_sh_21_1.jpg,Student,,,sub-61
Desktop or Laptop,Windows 10,Chrome 138.0.0.0,1280x1080,1536x935,Temporal Distance Task,cb_04,77.0,temp_dist_trial,num_items,zn7si1,1.0,response,2_ITEM,1179.9999999046267,1167.0,1179.9999999046267,1179.9999999046267,1167.0,1179.9999999046267,1.0,0.0,0.0,,Click Response,2_count,5.0,object-49,temp_dist_trial,29.0,s_sh_05_1,student_shared,laptop,4.0,competing,paired,s_sh_05_1.jpg,Student,,,sub-61
Desktop or Laptop,Windows 10,Chrome 138.0.0.0,1280x1080,1536x935,Temporal Distance Task,cb_04,77.0,temp_dist_trial,dist_items,qkpkxw,2.0,info,,8.100000190723222,0.0,8.100000190723222,8.100000190723222,0.0,8.100000190723222,1.0,0.0,0.0,,Slider,Slider,4.0,object-56,temp_dist_trial,29.0,s_sh_05_1,student_shared,laptop,4.0,competing,paired,s_sh_05_1.jpg,Student,,,sub-61
Desktop or Laptop,Windows 10,Chrome 138.0.0.0,1280x1080,1536x935,Temporal Distance Task,cb_04,77.0,temp_dist_trial,dist_items,qkpkxw,2.0,continue,,1586.7000000953558,1584.0,1586.7000000953558,1586.7000000953558,1584.0,1586.7000000953558,1.0,0.0,0.0,,Click To Continue,Next button,7.0,object-60,temp_dist_trial,29.0,s_sh_05_1,student_shared,laptop,4.0,competing,paired,s_sh_05_1.jpg,Student,,,sub-61
Desktop or Laptop,Windows 10,Chrome 138.0.0.0,1280x1080,1536x935,Temporal Distance Task,cb_04,77.0,temp_dist_trial,dist_items,qkpkxw,2.0,response,58,983.7000000000116,1584.0,1587.399999904621,983.7000000000116,1584.0,1587.399999904621,1.0,603.6999999046092,0.0,,Slider,Slider,4.0,object-56,temp_dist_trial,29.0,s_sh_05_1,student_shared,laptop,4.0,competing,paired,s_sh_05_1.jpg,Student,,,sub-61
Desktop or Laptop,Windows 10,Chrome 138.0.0.0,1280x1080,1536x935,Temporal Distance Task,cb_04,78.0,temp_dist_trial,num_items,zn7si1,1.0,response,2_ITEM,1226.6000001907232,1217.0,1226.6000001907232,1226.6000001907232,1217.0,1226.6000001907232,1.0,0.0,0.0,,Click Response,2_count,5.0,object-49,temp_dist_trial,30.0,s_sh_01_1,student_shared,notebook,4.0,competing,single,s_sh_01_1.jpg,Student,,,sub-61
Desktop or Laptop,Windows 10,Chrome 138.0.0.0,1280x1080,1536x935,Temporal Distance Task,cb_04,78.0,temp_dist_trial,dist_items,qkpkxw,2.0,info,,11.900000190711577,0.0,11.900000190711577,11.900000190711577,0.0,11.900000190711577,1.0,0.0,0.0,,Slider,Slider,4.0,object-56,temp_dist_trial,30.0,s_sh_01_1,student_shared,notebook,4.0,competing,single,s_sh_01_1.jpg,Student,,,sub-61
Desktop or Laptop,Windows 10,Chrome 138.0.0.0,1280x1080,1536x935,Temporal Distance Task,cb_04,78.0,temp_dist_trial,dist_items,qkpkxw,2.0,continue,,1279.1999999046093,1267.0999999999767,1279.1999999046093,1279.1999999046093,1267.0999999999767,1279.1999999046093,1.0,0.0,0.0,,Click To Continue,Next button,7.0,object-60,temp_dist_trial,30.0,s_sh_01_1,student_shared,notebook,4.0,competing,single,s_sh_01_1.jpg,Student,,,sub-61
Desktop or Laptop,Windows 10,Chrome 138.0.0.0,1280x1080,1536x935,Temporal Distance Task,cb_04,78.0,temp_dist_trial,dist_items,qkpkxw,2.0,response,60,700.3999999999651,1267.0999999999767,1280.300000286079,700.3999999999651,1267.0999999999767,1280.300000286079,1.0,579.9000002861139,0.0,,Slider,Slider,4.0,object-56,temp_dist_trial,30.0,s_sh_01_1,student_shared,notebook,4.0,competing,single,s_sh_01_1.jpg,Student,,,sub-61
Desktop or Laptop,Windows 10,Chrome 138.0.0.0,1280x1080,1536x935,Temporal Distance Task,cb_04,79.0,temp_dist_trial,num_items,zn7si1,1.0,response,2_ITEM,1420.0999999046326,1417.2000000000116,1420.0999999046326,1420.0999999046326,1417.2000000000116,1420.0999999046326,1.0,0.0,0.0,,Click Response,2_count,5.0,object-49,temp_dist_trial,31.0,s_s_17_1,student_stem,ring stand,4.0,unique,paired,s_s_17_1.jpg,Student,,,sub-61
Desktop or Laptop,Windows 10,Chrome 138.0.0.0,1280x1080,1536x935,Temporal Distance Task,cb_04,79.0,temp_dist_trial,dist_items,qkpkxw,2.0,info,,4.29999990464421,0.0,4.29999990464421,4.29999990464421,0.0,4.29999990464421,1.0,0.0,0.0,,Slider,Slider,4.0,object-56,temp_dist_trial,31.0,s_s_17_1,student_stem,ring stand,4.0,unique,paired,s_s_17_1.jpg,Student,,,sub-61
Desktop or Laptop,Windows 10,Chrome 138.0.0.0,1280x1080,1536x935,Temporal Distance Task,cb_04,79.0,temp_dist_trial,dist_items,qkpkxw,2.0,continue,,1216.7000000000114,1200.600000000035,1216.7000000000114,1216.7000000000114,1200.600000000035,1216.7000000000114,1.0,0.0,0.0,,Click To Continue,Next button,7.0,object-60,temp_dist_trial,31.0,s_s_17_1,student_stem,ring stand,4.0,unique,paired,s_s_17_1.jpg,Student,,,sub-61
Desktop or Laptop,Windows 10,Chrome 138.0.0.0,1280x1080,1536x935,Temporal Distance Task,cb_04,79.0,temp_dist_trial,dist_items,qkpkxw,2.0,response,56,700.2000000000116,1200.600000000035,1217.4000000000815,700.2000000000116,1200.600000000035,1217.4000000000815,1.0,517.2000000000698,0.0,,Slider,Slider,4.0,object-56,temp_dist_trial,31.0,s_s_17_1,student_stem,ring stand,4.0,unique,paired,s_s_17_1.jpg,Student,,,sub-61
Desktop or Laptop,Windows 10,Chrome 138.0.0.0,1280x1080,1536x935,Temporal Distance Task,cb_04,80.0,temp_dist_trial,num_items,zn7si1,1.0,response,2_ITEM,1288.000000095344,1283.6999999999534,1288.000000095344,1288.000000095344,1283.6999999999534,1288.000000095344,1.0,0.0,0.0,,Click Response,2_count,5.0,object-49,temp_dist_trial,32.0,s_s_04_1,student_stem,bunsen burner,4.0,unique,paired,s_s_04_1.jpg,Student,,,sub-61
Desktop or Laptop,Windows 10,Chrome 138.0.0.0,1280x1080,1536x935,Temporal Distance Task,cb_04,80.0,temp_dist_trial,dist_items,qkpkxw,2.0,info,,11.500000286090653,0.0,11.500000286090653,11.500000286090653,0.0,11.500000286090653,1.0,0.0,0.0,,Slider,Slider,4.0,object-56,temp_dist_trial,32.0,s_s_04_1,student_stem,bunsen burner,4.0,unique,paired,s_s_04_1.jpg,Student,,,sub-61
Desktop or Laptop,Windows 10,Chrome 138.0.0.0,1280x1080,1536x935,Temporal Distance Task,cb_04,80.0,temp_dist_trial,dist_items,qkpkxw,2.0,continue,,2106.1000001907228,2100.700000000012,2106.1000001907228,2106.1000001907228,2100.700000000012,2106.1000001907228,1.0,0.0,0.0,,Click To Continue,Next button,7.0,object-60,temp_dist_trial,32.0,s_s_04_1,student_stem,bunsen burner,4.0,unique,paired,s_s_04_1.jpg,Student,,,sub-61
Desktop or Laptop,Windows 10,Chrome 138.0.0.0,1280x1080,1536x935,Temporal Distance Task,cb_04,80.0,temp_dist_trial,dist_items,qkpkxw,2.0,response,56,1634.0,2100.700000000012,2106.7000000953562,1634.0,2100.700000000012,2106.7000000953562,1.0,472.7000000953559,0.0,,Slider,Slider,4.0,object-56,temp_dist_trial,32.0,s_s_04_1,student_stem,bunsen burner,4.0,unique,paired,s_s_04_1.jpg,Student,,,sub-61
Desktop or Laptop,Windows 10,Chrome 138.0.0.0,1280x1080,1536x935,Temporal Distance Task,cb_04,81.0,temp_dist_trial,num_items,zn7si1,1.0,response,2_ITEM,1988.6999999046093,1984.1999999999528,1988.6999999046093,1988.6999999046093,1984.1999999999528,1988.6999999046093,1.0,0.0,0.0,,Click Response,2_count,5.0,object-49,temp_dist_trial,33.0,s_sh_13_1,student_shared,index cards,4.0,competing,paired,s_sh_13_1.jpg,Student,,,sub-61
Desktop or Laptop,Windows 10,Chrome 138.0.0.0,1280x1080,1536x935,Temporal Distance Task,cb_04,81.0,temp_dist_trial,dist_items,qkpkxw,2.0,info,,12.899999904620929,0.0,12.899999904620929,12.899999904620929,0.0,12.899999904620929,1.0,0.0,0.0,,Slider,Slider,4.0,object-56,temp_dist_trial,33.0,s_sh_13_1,student_shared,index cards,4.0,competing,paired,s_sh_13_1.jpg,Student,,,sub-61
Desktop or Laptop,Windows 10,Chrome 138.0.0.0,1280x1080,1536x935,Temporal Distance Task,cb_04,81.0,temp_dist_trial,dist_items,qkpkxw,2.0,continue,,1594.6000001907232,1583.8999999999646,1594.6000001907232,1594.6000001907232,1583.8999999999646,1594.6000001907232,1.0,0.0,0.0,,Click To Continue,Next button,7.0,object-60,temp_dist_trial,33.0,s_sh_13_1,student_shared,index cards,4.0,competing,paired,s_sh_13_1.jpg,Student,,,sub-61
Desktop or Laptop,Windows 10,Chrome 138.0.0.0,1280x1080,1536x935,Temporal Distance Task,cb_04,81.0,temp_dist_trial,dist_items,qkpkxw,2.0,response,47,1050.399999999965,1583.8999999999646,1595.5000002860907,1050.399999999965,1583.8999999999646,1595.5000002860907,1.0,545.1000002861257,0.0,,Slider,Slider,4.0,object-56,temp_dist_trial,33.0,s_sh_13_1,student_shared,index cards,4.0,competing,paired,s_sh_13_1.jpg,Student,,,sub-61
Desktop or Laptop,Windows 10,Chrome 138.0.0.0,1280x1080,1536x935,Temporal Distance Task,cb_04,82.0,temp_dist_trial,num_items,zn7si1,1.0,response,2_ITEM,890.4999999046561,883.7000000000116,890.4999999046561,890.4999999046561,883.7000000000116,890.4999999046561,1.0,0.0,0.0,,Click Response,2_count,5.0,object-49,temp_dist_trial,34.0,s_a_04_1,student_art,easel,4.0,unique,paired,s_a_04_1.jpg,Student,,,sub-61
Desktop or Laptop,Windows 10,Chrome 138.0.0.0,1280x1080,1536x935,Temporal Distance Task,cb_04,82.0,temp_dist_trial,dist_items,qkpkxw,2.0,info,,12.300000190734865,0.0,12.300000190734865,12.300000190734865,0.0,12.300000190734865,1.0,0.0,0.0,,Slider,Slider,4.0,object-56,temp_dist_trial,34.0,s_a_04_1,student_art,easel,4.0,unique,paired,s_a_04_1.jpg,Student,,,sub-61
Desktop or Laptop,Windows 10,Chrome 138.0.0.0,1280x1080,1536x935,Temporal Distance Task,cb_04,82.0,temp_dist_trial,dist_items,qkpkxw,2.0,continue,,1500.0999999046326,1483.7999999999884,1500.0999999046326,1500.0999999046326,1483.7999999999884,1500.0999999046326,1.0,0.0,0.0,,Click To Continue,Next button,7.0,object-60,temp_dist_trial,34.0,s_a_04_1,student_art,easel,4.0,unique,paired,s_a_04_1.jpg,Student,,,sub-61
Desktop or Laptop,Windows 10,Chrome 138.0.0.0,1280x1080,1536x935,Temporal Distance Task,cb_04,82.0,temp_dist_trial,dist_items,qkpkxw,2.0,response,60,983.5999999999768,1483.7999999999884,1500.5,983.5999999999768,1483.7999999999884,1500.5,1.0,516.9000000000234,0.0,,Slider,Slider,4.0,object-56,temp_dist_trial,34.0,s_a_04_1,student_art,easel,4.0,unique,paired,s_a_04_1.jpg,Student,,,sub-61
Desktop or Laptop,Windows 10,Chrome 138.0.0.0,1280x1080,1536x935,Temporal Distance Task,cb_04,83.0,temp_dist_trial,num_items,zn7si1,1.0,response,2_ITEM,1670.400000286114,1667.2000000000116,1670.400000286114,1670.400000286114,1667.2000000000116,1670.400000286114,1.0,0.0,0.0,,Click Response,2_count,5.0,object-49,temp_dist_trial,35.0,s_s_18_1,student_stem,brain model,4.0,unique,paired,s_s_18_1.jpg,Student,,,sub-61
Desktop or Laptop,Windows 10,Chrome 138.0.0.0,1280x1080,1536x935,Temporal Distance Task,cb_04,83.0,temp_dist_trial,dist_items,qkpkxw,2.0,info,,4.499999904655851,0.0,4.499999904655851,4.499999904655851,0.0,4.499999904655851,1.0,0.0,0.0,,Slider,Slider,4.0,object-56,temp_dist_trial,35.0,s_s_18_1,student_stem,brain model,4.0,unique,paired,s_s_18_1.jpg,Student,,,sub-61
Desktop or Laptop,Windows 10,Chrome 138.0.0.0,1280x1080,1536x935,Temporal Distance Task,cb_04,83.0,temp_dist_trial,dist_items,qkpkxw,2.0,continue,,1355.2000001907581,1350.5,1355.2000001907581,1355.2000001907581,1350.5,1355.2000001907581,1.0,0.0,0.0,,Click To Continue,Next button,7.0,object-60,temp_dist_trial,35.0,s_s_18_1,student_stem,brain model,4.0,unique,paired,s_s_18_1.jpg,Student,,,sub-61
Desktop or Laptop,Windows 10,Chrome 138.0.0.0,1280x1080,1536x935,Temporal Distance Task,cb_04,83.0,temp_dist_trial,dist_items,qkpkxw,2.0,response,39,816.9000000000232,1350.5,1355.7000001907581,816.9000000000232,1350.5,1355.7000001907581,1.0,538.8000001907349,0.0,,Slider,Slider,4.0,object-56,temp_dist_trial,35.0,s_s_18_1,student_stem,brain model,4.0,unique,paired,s_s_18_1.jpg,Student,,,sub-61
Desktop or Laptop,Windows 10,Chrome 138.0.0.0,1280x1080,1536x935,Temporal Distance Task,cb_04,84.0,temp_dist_trial,num_items,zn7si1,1.0,response,1_ITEM,1316.4000000000233,1300.600000000035,1316.4000000000233,1316.4000000000233,1300.600000000035,1316.4000000000233,1.0,0.0,0.0,,Click Response,1_count,3.0,object-46,temp_dist_trial,36.0,s_sh_09_1,student_shared,paper clips,4.0,competing,single,s_sh_09_1.jpg,Student,,,sub-61
Desktop or Laptop,Windows 10,Chrome 138.0.0.0,1280x1080,1536x935,Temporal Distance Task,cb_04,85.0,temp_dist_trial,num_items,zn7si1,1.0,response,1_ITEM,965.7000000000116,950.4000000000232,965.7000000000116,965.7000000000116,950.4000000000232,965.7000000000116,1.0,0.0,0.0,,Click Response,1_count,3.0,object-46,temp_dist_trial,37.0,s_s_05_1,student_stem,lab goggles,4.0,unique,paired,s_s_05_1.jpg,Student,,,sub-61
Desktop or Laptop,Windows 10,Chrome 138.0.0.0,1280x1080,1536x935,Temporal Distance Task,cb_04,86.0,temp_dist_trial,num_items,zn7si1,1.0,response,2_ITEM,1245.2999999999886,1233.7999999999886,1245.2999999999886,1245.2999999999886,1233.7999999999886,1245.2999999999886,1.0,0.0,0.0,,Click Response,2_count,5.0,object-49,temp_dist_trial,38.0,s_a_09_1,student_art,picture frame,4.0,unique,paired,s_a_09_1.jpg,Student,,,sub-61
Desktop or Laptop,Windows 10,Chrome 138.0.0.0,1280x1080,1536x935,Temporal Distance Task,cb_04,86.0,temp_dist_trial,dist_items,qkpkxw,2.0,info,,10.0,0.0,10.0,10.0,0.0,10.0,1.0,0.0,0.0,,Slider,Slider,4.0,object-56,temp_dist_trial,38.0,s_a_09_1,student_art,picture frame,4.0,unique,paired,s_a_09_1.jpg,Student,,,sub-61
Desktop or Laptop,Windows 10,Chrome 138.0.0.0,1280x1080,1536x935,Temporal Distance Task,cb_04,86.0,temp_dist_trial,dist_items,qkpkxw,2.0,continue,,2033.2000002861025,2017.5,2033.2000002861025,2033.2000002861025,2017.5,2033.2000002861025,1.0,0.0,0.0,,Click To Continue,Next button,7.0,object-60,temp_dist_trial,38.0,s_a_09_1,student_art,picture frame,4.0,unique,paired,s_a_09_1.jpg,Student,,,sub-61
Desktop or Laptop,Windows 10,Chrome 138.0.0.0,1280x1080,1536x935,Temporal Distance Task,cb_04,86.0,temp_dist_trial,dist_items,qkpkxw,2.0,response,58,1500.5999999999767,2017.5,2034.2000000000119,1500.5999999999767,2017.5,2034.2000000000119,1.0,533.6000000000348,0.0,,Slider,Slider,4.0,object-56,temp_dist_trial,38.0,s_a_09_1,student_art,picture frame,4.0,unique,paired,s_a_09_1.jpg,Student,,,sub-61
Desktop or Laptop,Windows 10,Chrome 138.0.0.0,1280x1080,1536x935,Temporal Distance Task,cb_04,87.0,temp_dist_trial,num_items,zn7si1,1.0,response,2_ITEM,1239.5,1233.9000000000233,1239.5,1239.5,1233.9000000000233,1239.5,1.0,0.0,0.0,,Click Response,2_count,5.0,object-49,temp_dist_trial,39.0,s_sh_23_1,student_shared,ballpoint pen,4.0,competing,paired,s_sh_23_1.jpg,Student,,,sub-61
Desktop or Laptop,Windows 10,Chrome 138.0.0.0,1280x1080,1536x935,Temporal Distance Task,cb_04,87.0,temp_dist_trial,dist_items,qkpkxw,2.0,info,,11.500000095344147,0.0,11.500000095344147,11.500000095344147,0.0,11.500000095344147,1.0,0.0,0.0,,Slider,Slider,4.0,object-56,temp_dist_trial,39.0,s_sh_23_1,student_shared,ballpoint pen,4.0,competing,paired,s_sh_23_1.jpg,Student,,,sub-61
Desktop or Laptop,Windows 10,Chrome 138.0.0.0,1280x1080,1536x935,Temporal Distance Task,cb_04,87.0,temp_dist_trial,dist_items,qkpkxw,2.0,continue,,1850.6000000000354,1834.0,1850.6000000000354,1850.6000000000354,1834.0,1850.6000000000354,1.0,0.0,0.0,,Click To Continue,Next button,7.0,object-60,temp_dist_trial,39.0,s_sh_23_1,student_shared,ballpoint pen,4.0,competing,paired,s_sh_23_1.jpg,Student,,,sub-61
Desktop or Laptop,Windows 10,Chrome 138.0.0.0,1280x1080,1536x935,Temporal Distance Task,cb_04,87.0,temp_dist_trial,dist_items,qkpkxw,2.0,response,42,1384.0,1834.0,1850.6000000000354,1384.0,1834.0,1850.6000000000354,1.0,466.60000000003487,0.0,,Slider,Slider,4.0,object-56,temp_dist_trial,39.0,s_sh_23_1,student_shared,ballpoint pen,4.0,competing,paired,s_sh_23_1.jpg,Student,,,sub-61
Desktop or Laptop,Windows 10,Chrome 138.0.0.0,1280x1080,1536x935,Temporal Distance Task,cb_04,88.0,temp_dist_trial,num_items,zn7si1,1.0,response,1_ITEM,1937.300000286079,1934.0999999999767,1937.300000286079,1937.300000286079,1934.0999999999767,1937.300000286079,1.0,0.0,0.0,,Click Response,1_count,3.0,object-46,temp_dist_trial,40.0,s_sh_17_1,student_shared,wireless mouse,4.0,competing,single,s_sh_17_1.jpg,Student,,,sub-61
Desktop or Laptop,Windows 10,Chrome 138.0.0.0,1280x1080,1536x935,Temporal Distance Task,cb_04,89.0,temp_dist_trial,num_items,zn7si1,1.0,response,2_ITEM,913.200000190758,900.4000000000232,913.200000190758,913.200000190758,900.4000000000232,913.200000190758,1.0,0.0,0.0,,Click Response,2_count,5.0,object-49,temp_dist_trial,41.0,s_sh_11_1,student_shared,pencil case,4.0,competing,paired,s_sh_11_1.jpg,Student,,,sub-61
Desktop or Laptop,Windows 10,Chrome 138.0.0.0,1280x1080,1536x935,Temporal Distance Task,cb_04,89.0,temp_dist_trial,dist_items,qkpkxw,2.0,info,,10.599999904632568,0.0,10.599999904632568,10.599999904632568,0.0,10.599999904632568,1.0,0.0,0.0,,Slider,Slider,4.0,object-56,temp_dist_trial,41.0,s_sh_11_1,student_shared,pencil case,4.0,competing,paired,s_sh_11_1.jpg,Student,,,sub-61
