Participant Device,Participant OS,Participant Browser,Participant Monitor Size,Participant Viewport Size,Task Name,Current Spreadsheet,Trial Number,Display,Screen,Screen ID,Screen Counter,Response Type,Response,Onset Time,Clock Time,Reaction Time,Absolute Onset Time,Absolute Clock Time,Absolute Reaction Time,Correct,Response Duration,Proportion,Tag,Component Name,Object Name,Object Number,Object ID,Spreadsheet: display,Spreadsheet: trial,Spreadsheet: stimulus_id,Spreadsheet: expected_goal,Spreadsheet: stimulus_name,Spreadsheet: c_group,Spreadsheet: condition,Spreadsheet: paired_status,Spreadsheet: stimulus_path,Spreadsheet: block_type,Manipulation: Spreadsheet,Store: enc_test_acc,sub_label
Desktop or Laptop,Mac OS 10.15.7,Chrome 128.0.0.0,1926x945,1920x942,Temporal Distance Task,$${counterbalance_group},,,,,,info,BEGIN,,,,,,,0.0,,,,,,,,,,,,,,,,,,,,sub-53
Desktop or Laptop,Mac OS 10.15.7,Chrome 128.0.0.0,1926x945,1920x942,Temporal Distance Task,cb_03,1.0,temp_instructions,intro_screen,3tnme7,1.0,continue,,11679.9,11663.2,11679.9,11679.9,11663.2,11679.9,1.0,0.0,0.0,,Click To Continue,Continue Button,4.0,object-29,temp_instructions,,,Student,,,,,,,,,sub-53
Desktop or Laptop,Mac OS 10.15.7,Chrome 128.0.0.0,1926x945,1920x942,Temporal Distance Task,cb_03,1.0,temp_instructions,intro_screen_2,52v7ur,2.0,continue,,5925.100000023842,5922.700000000003,5925.100000023842,5925.100000023842,5922.700000000003,5925.100000023842,1.0,0.0,0.0,,Click To Continue,Continue Button,4.0,object-39,temp_instructions,,,Student,,,,,,,,,sub-53
Desktop or Laptop,Mac OS 10.15.7,Chrome 128.0.0.0,1926x945,1920x942,Temporal Distance Task,cb_03,1.0,temp_instructions,intro_screen_3,i7lvwx,3.0,continue,,20181.70000003576,20173.2,20181.70000003576,20181.70000003576,20173.2,20181.70000003576,1.0,0.0,0.0,,Click To Continue,Continue Button,4.0,object-67,temp_instructions,,,Student,,,,,,,,,sub-53
Desktop or Laptop,Mac OS 10.15.7,Chrome 128.0.0.0,1926x945,1920x942,Temporal Distance Task,cb_03,1.0,temp_instructions,test_q1,5ieqx1,4.0,response,choice_3,6486.40000001192,6474.0,6486.40000001192,6486.40000001192,6474.0,6486.40000001192,1.0,0.0,0.0,,Click Response,choice_3,5.0,object-345,temp_instructions,,,Student,,,,,,,,,sub-53
Desktop or Laptop,Mac OS 10.15.7,Chrome 128.0.0.0,1926x945,1920x942,Temporal Distance Task,cb_03,1.0,temp_instructions,score_corr,7ilvjr,5.0,continue,,7807.599999999998,7792.0,7807.599999999998,7807.599999999998,7792.0,7807.599999999998,1.0,0.0,0.0,,Click To Continue,Continue Button,3.0,object-23,temp_instructions,,,Student,,,,,,,,,sub-53
Desktop or Laptop,Mac OS 10.15.7,Chrome 128.0.0.0,1926x945,1920x942,Temporal Distance Task,cb_03,1.0,temp_eventStart,Screen 1,dgtyxe,1.0,continue,,21261.500000035758,21257.3,21261.500000035758,21261.500000035758,21257.3,21261.500000035758,1.0,0.0,0.0,,Click To Continue,Next Button,3.0,object-43,temp_eventStart,,,Student,,,,,,,,,sub-53
Desktop or Laptop,Mac OS 10.15.7,Chrome 128.0.0.0,1926x945,1920x942,Temporal Distance Task,cb_03,1.0,temp_dist_trial,num_items,zn7si1,1.0,response,num_miss,3002.5,3002.5,3002.5,3002.5,3002.5,3002.5,1.0,0.0,0.0,num_miss_tag,Time Limit,screen,0.0,screen,temp_dist_trial,1.0,s_sh_21_1,student_shared,file holder,3.0,competing,single,s_sh_21_1.jpg,Student,,,sub-53
Desktop or Laptop,Mac OS 10.15.7,Chrome 128.0.0.0,1926x945,1920x942,Temporal Distance Task,cb_03,2.0,temp_dist_trial,num_items,zn7si1,1.0,response,1_ITEM,2260.300000035757,2252.5999999999913,2260.300000035757,2260.300000035757,2252.5999999999913,2260.300000035757,1.0,0.0,0.0,,Click Response,1_count,3.0,object-46,temp_dist_trial,2.0,s_a_11_1,student_art,clapperboard,3.0,unique,paired,s_a_11_1.jpg,Student,,,sub-53
Desktop or Laptop,Mac OS 10.15.7,Chrome 128.0.0.0,1926x945,1920x942,Temporal Distance Task,cb_03,3.0,temp_dist_trial,num_items,zn7si1,1.0,response,1_ITEM,1227.5,1218.0,1227.5,1227.5,1218.0,1227.5,1.0,0.0,0.0,,Click Response,1_count,3.0,object-46,temp_dist_trial,3.0,s_a_08_1,student_art,sewing machine,3.0,unique,paired,s_a_08_1.jpg,Student,,,sub-53
Desktop or Laptop,Mac OS 10.15.7,Chrome 128.0.0.0,1926x945,1920x942,Temporal Distance Task,cb_03,4.0,temp_dist_trial,num_items,zn7si1,1.0,response,2_ITEM,1173.6999999999969,1167.8999999999942,1173.6999999999969,1173.6999999999969,1167.8999999999942,1173.6999999999969,1.0,0.0,0.0,,Click Response,2_count,5.0,object-49,temp_dist_trial,4.0,s_sh_23_1,student_shared,ballpoint pen,3.0,competing,single,s_sh_23_1.jpg,Student,,,sub-53
Desktop or Laptop,Mac OS 10.15.7,Chrome 128.0.0.0,1926x945,1920x942,Temporal Distance Task,cb_03,4.0,temp_dist_trial,dist_items,qkpkxw,2.0,info,,12.500000035768604,0.0,12.500000035768604,12.500000035768604,0.0,12.500000035768604,1.0,0.0,0.0,,Slider,Slider,4.0,object-56,temp_dist_trial,4.0,s_sh_23_1,student_shared,ballpoint pen,3.0,competing,single,s_sh_23_1.jpg,Student,,,sub-53
Desktop or Laptop,Mac OS 10.15.7,Chrome 128.0.0.0,1926x945,1920x942,Temporal Distance Task,cb_03,4.0,temp_dist_trial,dist_items,qkpkxw,2.0,continue,,2859.800000047689,2853.0,2859.800000047689,2859.800000047689,2853.0,2859.800000047689,1.0,0.0,0.0,,Click To Continue,Next button,7.0,object-60,temp_dist_trial,4.0,s_sh_23_1,student_shared,ballpoint pen,3.0,competing,single,s_sh_23_1.jpg,Student,,,sub-53
Desktop or Laptop,Mac OS 10.15.7,Chrome 128.0.0.0,1926x945,1920x942,Temporal Distance Task,cb_03,4.0,temp_dist_trial,dist_items,qkpkxw,2.0,response,,2868.500000035769,2853.0,2868.500000035769,2868.500000035769,2853.0,2868.500000035769,1.0,0.0,0.0,,Slider,Slider,4.0,object-56,temp_dist_trial,4.0,s_sh_23_1,student_shared,ballpoint pen,3.0,competing,single,s_sh_23_1.jpg,Student,,,sub-53
Desktop or Laptop,Mac OS 10.15.7,Chrome 128.0.0.0,1926x945,1920x942,Temporal Distance Task,cb_03,5.0,temp_dist_trial,num_items,zn7si1,1.0,response,1_ITEM,1486.900000011927,1485.3000000000034,1486.900000011927,1486.900000011927,1485.3000000000034,1486.900000011927,1.0,0.0,0.0,,Click Response,1_count,3.0,object-46,temp_dist_trial,5.0,s_sh_16_1,student_shared,stapler,3.0,competing,single,s_sh_16_1.jpg,Student,,,sub-53
Desktop or Laptop,Mac OS 10.15.7,Chrome 128.0.0.0,1926x945,1920x942,Temporal Distance Task,cb_03,6.0,temp_dist_trial,num_items,zn7si1,1.0,response,2_ITEM,931.2000000119153,917.6999999999972,931.2000000119153,931.2000000119153,917.6999999999972,931.2000000119153,1.0,0.0,0.0,,Click Response,2_count,5.0,object-49,temp_dist_trial,6.0,s_a_10_1,student_art,tripod,3.0,unique,paired,s_a_10_1.jpg,Student,,,sub-53
Desktop or Laptop,Mac OS 10.15.7,Chrome 128.0.0.0,1926x945,1920x942,Temporal Distance Task,cb_03,6.0,temp_dist_trial,dist_items,qkpkxw,2.0,info,,7.1000000119238384,0.0,7.1000000119238384,7.1000000119238384,0.0,7.1000000119238384,1.0,0.0,0.0,,Slider,Slider,4.0,object-56,temp_dist_trial,6.0,s_a_10_1,student_art,tripod,3.0,unique,paired,s_a_10_1.jpg,Student,,,sub-53
Desktop or Laptop,Mac OS 10.15.7,Chrome 128.0.0.0,1926x945,1920x942,Temporal Distance Task,cb_03,6.0,temp_dist_trial,dist_items,qkpkxw,2.0,continue,,2755.100000011924,2753.400000000009,2755.100000011924,2755.100000011924,2753.400000000009,2755.100000011924,1.0,0.0,0.0,,Click To Continue,Next button,7.0,object-60,temp_dist_trial,6.0,s_a_10_1,student_art,tripod,3.0,unique,paired,s_a_10_1.jpg,Student,,,sub-53
Desktop or Laptop,Mac OS 10.15.7,Chrome 128.0.0.0,1926x945,1920x942,Temporal Distance Task,cb_03,6.0,temp_dist_trial,dist_items,qkpkxw,2.0,response,45,968.5,2753.400000000009,2755.5000000476866,968.5,2753.400000000009,2755.5000000476866,1.0,1787.0000000476864,0.0,,Slider,Slider,4.0,object-56,temp_dist_trial,6.0,s_a_10_1,student_art,tripod,3.0,unique,paired,s_a_10_1.jpg,Student,,,sub-53
Desktop or Laptop,Mac OS 10.15.7,Chrome 128.0.0.0,1926x945,1920x942,Temporal Distance Task,cb_03,7.0,temp_dist_trial,num_items,zn7si1,1.0,response,2_ITEM,984.7000000119153,968.1999999999972,984.7000000119153,984.7000000119153,968.1999999999972,984.7000000119153,1.0,0.0,0.0,,Click Response,2_count,5.0,object-49,temp_dist_trial,7.0,s_sh_20_1,student_shared,tape,3.0,competing,paired,s_sh_20_1.jpg,Student,,,sub-53
Desktop or Laptop,Mac OS 10.15.7,Chrome 128.0.0.0,1926x945,1920x942,Temporal Distance Task,cb_03,7.0,temp_dist_trial,dist_items,qkpkxw,2.0,info,,12.300000023838948,0.0,12.300000023838948,12.300000023838948,0.0,12.300000023838948,1.0,0.0,0.0,,Slider,Slider,4.0,object-56,temp_dist_trial,7.0,s_sh_20_1,student_shared,tape,3.0,competing,paired,s_sh_20_1.jpg,Student,,,sub-53
Desktop or Laptop,Mac OS 10.15.7,Chrome 128.0.0.0,1926x945,1920x942,Temporal Distance Task,cb_03,7.0,temp_dist_trial,dist_items,qkpkxw,2.0,continue,,2191.1000000357603,2185.800000000003,2191.1000000357603,2191.1000000357603,2185.800000000003,2191.1000000357603,1.0,0.0,0.0,,Click To Continue,Next button,7.0,object-60,temp_dist_trial,7.0,s_sh_20_1,student_shared,tape,3.0,competing,paired,s_sh_20_1.jpg,Student,,,sub-53
Desktop or Laptop,Mac OS 10.15.7,Chrome 128.0.0.0,1926x945,1920x942,Temporal Distance Task,cb_03,7.0,temp_dist_trial,dist_items,qkpkxw,2.0,response,39,1035.3000000000031,2185.800000000003,2191.699999999997,1035.3000000000031,2185.800000000003,2191.699999999997,1.0,1156.3999999999942,0.0,,Slider,Slider,4.0,object-56,temp_dist_trial,7.0,s_sh_20_1,student_shared,tape,3.0,competing,paired,s_sh_20_1.jpg,Student,,,sub-53
Desktop or Laptop,Mac OS 10.15.7,Chrome 128.0.0.0,1926x945,1920x942,Temporal Distance Task,cb_03,8.0,temp_dist_trial,num_items,zn7si1,1.0,response,2_ITEM,1383.8999999999942,1368.0999999999913,1383.8999999999942,1383.8999999999942,1368.0999999999913,1383.8999999999942,1.0,0.0,0.0,,Click Response,2_count,5.0,object-49,temp_dist_trial,8.0,s_sh_04_1,student_shared,laptop stand,3.0,competing,paired,s_sh_04_1.jpg,Student,,,sub-53
Desktop or Laptop,Mac OS 10.15.7,Chrome 128.0.0.0,1926x945,1920x942,Temporal Distance Task,cb_03,8.0,temp_dist_trial,dist_items,qkpkxw,2.0,info,,7.100000023841858,0.0,7.100000023841858,7.100000023841858,0.0,7.100000023841858,1.0,0.0,0.0,,Slider,Slider,4.0,object-56,temp_dist_trial,8.0,s_sh_04_1,student_shared,laptop stand,3.0,competing,paired,s_sh_04_1.jpg,Student,,,sub-53
Desktop or Laptop,Mac OS 10.15.7,Chrome 128.0.0.0,1926x945,1920x942,Temporal Distance Task,cb_03,8.0,temp_dist_trial,dist_items,qkpkxw,2.0,continue,,3013.7000000476837,3004.3999999999933,3013.7000000476837,3013.7000000476837,3004.3999999999933,3013.7000000476837,1.0,0.0,0.0,,Click To Continue,Next button,7.0,object-60,temp_dist_trial,8.0,s_sh_04_1,student_shared,laptop stand,3.0,competing,paired,s_sh_04_1.jpg,Student,,,sub-53
Desktop or Laptop,Mac OS 10.15.7,Chrome 128.0.0.0,1926x945,1920x942,Temporal Distance Task,cb_03,8.0,temp_dist_trial,dist_items,qkpkxw,2.0,response,36,1235.6000000000058,3004.3999999999933,3014.0,1235.6000000000058,3004.3999999999933,3014.0,1.0,1778.3999999999942,0.0,,Slider,Slider,4.0,object-56,temp_dist_trial,8.0,s_sh_04_1,student_shared,laptop stand,3.0,competing,paired,s_sh_04_1.jpg,Student,,,sub-53
Desktop or Laptop,Mac OS 10.15.7,Chrome 128.0.0.0,1926x945,1920x942,Temporal Distance Task,cb_03,9.0,temp_dist_trial,num_items,zn7si1,1.0,response,1_ITEM,1223.0000000357684,1217.0,1223.0000000357684,1223.0000000357684,1217.0,1223.0000000357684,1.0,0.0,0.0,,Click Response,1_count,3.0,object-46,temp_dist_trial,9.0,s_a_17_1,student_art,microphone,3.0,unique,single,s_a_17_1.jpg,Student,,,sub-53
Desktop or Laptop,Mac OS 10.15.7,Chrome 128.0.0.0,1926x945,1920x942,Temporal Distance Task,cb_03,10.0,temp_dist_trial,num_items,zn7si1,1.0,response,1_ITEM,949.000000011918,934.5,949.000000011918,949.000000011918,934.5,949.000000011918,1.0,0.0,0.0,,Click Response,1_count,3.0,object-46,temp_dist_trial,10.0,s_s_03_1,student_stem,petri dish,3.0,unique,paired,s_s_03_1.jpg,Student,,,sub-53
Desktop or Laptop,Mac OS 10.15.7,Chrome 128.0.0.0,1926x945,1920x942,Temporal Distance Task,cb_03,11.0,temp_dist_trial,num_items,zn7si1,1.0,response,1_ITEM,769.500000011918,767.5,769.500000011918,769.500000011918,767.5,769.500000011918,1.0,0.0,0.0,,Click Response,1_count,3.0,object-46,temp_dist_trial,11.0,s_s_02_1,student_stem,flask,3.0,unique,single,s_s_02_1.jpg,Student,,,sub-53
Desktop or Laptop,Mac OS 10.15.7,Chrome 128.0.0.0,1926x945,1920x942,Temporal Distance Task,cb_03,12.0,temp_dist_trial,num_items,zn7si1,1.0,response,1_ITEM,732.8999999999942,717.5,732.8999999999942,732.8999999999942,717.5,732.8999999999942,1.0,0.0,0.0,,Click Response,1_count,3.0,object-46,temp_dist_trial,12.0,s_s_05_1,student_stem,lab goggles,3.0,unique,paired,s_s_05_1.jpg,Student,,,sub-53
Desktop or Laptop,Mac OS 10.15.7,Chrome 128.0.0.0,1926x945,1920x942,Temporal Distance Task,cb_03,13.0,temp_dist_trial,num_items,zn7si1,1.0,response,2_ITEM,1050.8000000476898,1034.6000000000058,1050.8000000476898,1050.8000000476898,1034.6000000000058,1050.8000000476898,1.0,0.0,0.0,,Click Response,2_count,5.0,object-49,temp_dist_trial,13.0,s_sh_08_1,student_shared,post-its,3.0,competing,paired,s_sh_08_1.jpg,Student,,,sub-53
Desktop or Laptop,Mac OS 10.15.7,Chrome 128.0.0.0,1926x945,1920x942,Temporal Distance Task,cb_03,13.0,temp_dist_trial,dist_items,qkpkxw,2.0,info,,7.500000047686624,0.0,7.500000047686624,7.500000047686624,0.0,7.500000047686624,1.0,0.0,0.0,,Slider,Slider,4.0,object-56,temp_dist_trial,13.0,s_sh_08_1,student_shared,post-its,3.0,competing,paired,s_sh_08_1.jpg,Student,,,sub-53
Desktop or Laptop,Mac OS 10.15.7,Chrome 128.0.0.0,1926x945,1920x942,Temporal Distance Task,cb_03,13.0,temp_dist_trial,dist_items,qkpkxw,2.0,continue,,5211.500000047687,5206.400000000009,5211.500000047687,5211.500000047687,5206.400000000009,5211.500000047687,1.0,0.0,0.0,,Click To Continue,Next button,7.0,object-60,temp_dist_trial,13.0,s_sh_08_1,student_shared,post-its,3.0,competing,paired,s_sh_08_1.jpg,Student,,,sub-53
Desktop or Laptop,Mac OS 10.15.7,Chrome 128.0.0.0,1926x945,1920x942,Temporal Distance Task,cb_03,13.0,temp_dist_trial,dist_items,qkpkxw,2.0,response,63,1051.6999999999969,5206.400000000009,5215.300000000003,1051.6999999999969,5206.400000000009,5215.300000000003,1.0,4163.600000000006,0.0,,Slider,Slider,4.0,object-56,temp_dist_trial,13.0,s_sh_08_1,student_shared,post-its,3.0,competing,paired,s_sh_08_1.jpg,Student,,,sub-53
Desktop or Laptop,Mac OS 10.15.7,Chrome 128.0.0.0,1926x945,1920x942,Temporal Distance Task,cb_03,14.0,temp_dist_trial,num_items,zn7si1,1.0,response,1_ITEM,1315.1000000476781,1300.5,1315.1000000476781,1315.1000000476781,1300.5,1315.1000000476781,1.0,0.0,0.0,,Click Response,1_count,3.0,object-46,temp_dist_trial,14.0,s_a_03_1,student_art,palette,3.0,unique,paired,s_a_03_1.jpg,Student,,,sub-53
Desktop or Laptop,Mac OS 10.15.7,Chrome 128.0.0.0,1926x945,1920x942,Temporal Distance Task,cb_03,15.0,temp_dist_trial,num_items,zn7si1,1.0,response,2_ITEM,1166.4000000119267,1152.1000000000058,1166.4000000119267,1166.4000000119267,1152.1000000000058,1166.4000000119267,1.0,0.0,0.0,,Click Response,2_count,5.0,object-49,temp_dist_trial,15.0,s_sh_11_1,student_shared,pencil case,3.0,competing,paired,s_sh_11_1.jpg,Student,,,sub-53
Desktop or Laptop,Mac OS 10.15.7,Chrome 128.0.0.0,1926x945,1920x942,Temporal Distance Task,cb_03,15.0,temp_dist_trial,dist_items,qkpkxw,2.0,info,,6.1999999999970905,0.0,6.1999999999970905,6.1999999999970905,0.0,6.1999999999970905,1.0,0.0,0.0,,Slider,Slider,4.0,object-56,temp_dist_trial,15.0,s_sh_11_1,student_shared,pencil case,3.0,competing,paired,s_sh_11_1.jpg,Student,,,sub-53
Desktop or Laptop,Mac OS 10.15.7,Chrome 128.0.0.0,1926x945,1920x942,Temporal Distance Task,cb_03,15.0,temp_dist_trial,dist_items,qkpkxw,2.0,continue,,6194.100000035761,6190.399999999994,6194.100000035761,6194.100000035761,6190.399999999994,6194.100000035761,1.0,0.0,0.0,,Click To Continue,Next button,7.0,object-60,temp_dist_trial,15.0,s_sh_11_1,student_shared,pencil case,3.0,competing,paired,s_sh_11_1.jpg,Student,,,sub-53
Desktop or Laptop,Mac OS 10.15.7,Chrome 128.0.0.0,1926x945,1920x942,Temporal Distance Task,cb_03,15.0,temp_dist_trial,dist_items,qkpkxw,2.0,response,56,1068.0,6190.399999999994,6194.500000011918,1068.0,6190.399999999994,6194.500000011918,1.0,5126.500000011918,0.0,,Slider,Slider,4.0,object-56,temp_dist_trial,15.0,s_sh_11_1,student_shared,pencil case,3.0,competing,paired,s_sh_11_1.jpg,Student,,,sub-53
Desktop or Laptop,Mac OS 10.15.7,Chrome 128.0.0.0,1926x945,1920x942,Temporal Distance Task,cb_03,16.0,temp_dist_trial,num_items,zn7si1,1.0,response,1_ITEM,1111.7000000357657,1101.3000000000031,1111.7000000357657,1111.7000000357657,1101.3000000000031,1111.7000000357657,1.0,0.0,0.0,,Click Response,1_count,3.0,object-46,temp_dist_trial,16.0,s_s_01_1,student_stem,microscope,3.0,unique,single,s_s_01_1.jpg,Student,,,sub-53
Desktop or Laptop,Mac OS 10.15.7,Chrome 128.0.0.0,1926x945,1920x942,Temporal Distance Task,cb_03,17.0,temp_dist_trial,num_items,zn7si1,1.0,response,2_ITEM,1121.9000000238448,1117.1000000000058,1121.9000000238448,1121.9000000238448,1117.1000000000058,1121.9000000238448,1.0,0.0,0.0,,Click Response,2_count,5.0,object-49,temp_dist_trial,17.0,s_s_12_1,student_stem,robotic arm,3.0,unique,paired,s_s_12_1.jpg,Student,,,sub-53
Desktop or Laptop,Mac OS 10.15.7,Chrome 128.0.0.0,1926x945,1920x942,Temporal Distance Task,cb_03,17.0,temp_dist_trial,dist_items,qkpkxw,2.0,info,,6.900000035762787,0.0,6.900000035762787,6.900000035762787,0.0,6.900000035762787,1.0,0.0,0.0,,Slider,Slider,4.0,object-56,temp_dist_trial,17.0,s_s_12_1,student_stem,robotic arm,3.0,unique,paired,s_s_12_1.jpg,Student,,,sub-53
Desktop or Laptop,Mac OS 10.15.7,Chrome 128.0.0.0,1926x945,1920x942,Temporal Distance Task,cb_03,17.0,temp_dist_trial,dist_items,qkpkxw,2.0,continue,,2270.6999999999825,2253.3999999999937,2270.6999999999825,2270.6999999999825,2253.3999999999937,2270.6999999999825,1.0,0.0,0.0,,Click To Continue,Next button,7.0,object-60,temp_dist_trial,17.0,s_s_12_1,student_stem,robotic arm,3.0,unique,paired,s_s_12_1.jpg,Student,,,sub-53
Desktop or Laptop,Mac OS 10.15.7,Chrome 128.0.0.0,1926x945,1920x942,Temporal Distance Task,cb_03,17.0,temp_dist_trial,dist_items,qkpkxw,2.0,response,59,1202.1999999999969,2253.3999999999937,2270.6999999999825,1202.1999999999969,2253.3999999999937,2270.6999999999825,1.0,1068.4999999999854,0.0,,Slider,Slider,4.0,object-56,temp_dist_trial,17.0,s_s_12_1,student_stem,robotic arm,3.0,unique,paired,s_s_12_1.jpg,Student,,,sub-53
Desktop or Laptop,Mac OS 10.15.7,Chrome 128.0.0.0,1926x945,1920x942,Temporal Distance Task,cb_03,18.0,temp_dist_trial,num_items,zn7si1,1.0,response,2_ITEM,1212.2000000238475,1200.9000000000087,1212.2000000238475,1212.2000000238475,1200.9000000000087,1212.2000000238475,1.0,0.0,0.0,,Click Response,2_count,5.0,object-49,temp_dist_trial,18.0,s_s_18_1,student_stem,brain model,3.0,unique,paired,s_s_18_1.jpg,Student,,,sub-53
Desktop or Laptop,Mac OS 10.15.7,Chrome 128.0.0.0,1926x945,1920x942,Temporal Distance Task,cb_03,18.0,temp_dist_trial,dist_items,qkpkxw,2.0,info,,6.899999999994179,0.0,6.899999999994179,6.899999999994179,0.0,6.899999999994179,1.0,0.0,0.0,,Slider,Slider,4.0,object-56,temp_dist_trial,18.0,s_s_18_1,student_stem,brain model,3.0,unique,paired,s_s_18_1.jpg,Student,,,sub-53
Desktop or Laptop,Mac OS 10.15.7,Chrome 128.0.0.0,1926x945,1920x942,Temporal Distance Task,cb_03,18.0,temp_dist_trial,dist_items,qkpkxw,2.0,continue,,2031.7000000119147,2019.7999999999884,2031.7000000119147,2031.7000000119147,2019.7999999999884,2031.7000000119147,1.0,0.0,0.0,,Click To Continue,Next button,7.0,object-60,temp_dist_trial,18.0,s_s_18_1,student_stem,brain model,3.0,unique,paired,s_s_18_1.jpg,Student,,,sub-53
Desktop or Laptop,Mac OS 10.15.7,Chrome 128.0.0.0,1926x945,1920x942,Temporal Distance Task,cb_03,18.0,temp_dist_trial,dist_items,qkpkxw,2.0,response,75,567.2999999999884,2019.7999999999884,2032.100000047678,567.2999999999884,2019.7999999999884,2032.100000047678,1.0,1464.8000000476895,0.0,,Slider,Slider,4.0,object-56,temp_dist_trial,18.0,s_s_18_1,student_stem,brain model,3.0,unique,paired,s_s_18_1.jpg,Student,,,sub-53
Desktop or Laptop,Mac OS 10.15.7,Chrome 128.0.0.0,1926x945,1920x942,Temporal Distance Task,cb_03,19.0,temp_dist_trial,num_items,zn7si1,1.0,response,2_ITEM,1135.6000000000058,1134.3000000000175,1135.6000000000058,1135.6000000000058,1134.3000000000175,1135.6000000000058,1.0,0.0,0.0,,Click Response,2_count,5.0,object-49,temp_dist_trial,19.0,s_sh_09_1,student_shared,paper clips,3.0,competing,paired,s_sh_09_1.jpg,Student,,,sub-53
Desktop or Laptop,Mac OS 10.15.7,Chrome 128.0.0.0,1926x945,1920x942,Temporal Distance Task,cb_03,19.0,temp_dist_trial,dist_items,qkpkxw,2.0,info,,7.399999999994179,0.0,7.399999999994179,7.399999999994179,0.0,7.399999999994179,1.0,0.0,0.0,,Slider,Slider,4.0,object-56,temp_dist_trial,19.0,s_sh_09_1,student_shared,paper clips,3.0,competing,paired,s_sh_09_1.jpg,Student,,,sub-53
Desktop or Laptop,Mac OS 10.15.7,Chrome 128.0.0.0,1926x945,1920x942,Temporal Distance Task,cb_03,19.0,temp_dist_trial,dist_items,qkpkxw,2.0,continue,,2432.700000011915,2419.6000000000063,2432.700000011915,2432.700000011915,2419.6000000000063,2432.700000011915,1.0,0.0,0.0,,Click To Continue,Next button,7.0,object-60,temp_dist_trial,19.0,s_sh_09_1,student_shared,paper clips,3.0,competing,paired,s_sh_09_1.jpg,Student,,,sub-53
Desktop or Laptop,Mac OS 10.15.7,Chrome 128.0.0.0,1926x945,1920x942,Temporal Distance Task,cb_03,19.0,temp_dist_trial,dist_items,qkpkxw,2.0,response,50,1135.5,2419.6000000000063,2436.700000000012,1135.5,2419.6000000000063,2436.700000000012,1.0,1301.2000000000114,0.0,,Slider,Slider,4.0,object-56,temp_dist_trial,19.0,s_sh_09_1,student_shared,paper clips,3.0,competing,paired,s_sh_09_1.jpg,Student,,,sub-53
Desktop or Laptop,Mac OS 10.15.7,Chrome 128.0.0.0,1926x945,1920x942,Temporal Distance Task,cb_03,20.0,temp_dist_trial,num_items,zn7si1,1.0,response,1_ITEM,1051.1000000119093,1035.0999999999767,1051.1000000119093,1051.1000000119093,1035.0999999999767,1051.1000000119093,1.0,0.0,0.0,,Click Response,1_count,3.0,object-46,temp_dist_trial,20.0,s_s_07_1,student_stem,periodic table,3.0,unique,single,s_s_07_1.jpg,Student,,,sub-53
Desktop or Laptop,Mac OS 10.15.7,Chrome 128.0.0.0,1926x945,1920x942,Temporal Distance Task,cb_03,21.0,temp_dist_trial,num_items,zn7si1,1.0,response,2_ITEM,1338.600000023842,1334.7999999999886,1338.600000023842,1338.600000023842,1334.7999999999886,1338.600000023842,1.0,0.0,0.0,,Click Response,2_count,5.0,object-49,temp_dist_trial,21.0,s_sh_15_1,student_shared,usb drive,3.0,competing,paired,s_sh_15_1.jpg,Student,,,sub-53
Desktop or Laptop,Mac OS 10.15.7,Chrome 128.0.0.0,1926x945,1920x942,Temporal Distance Task,cb_03,21.0,temp_dist_trial,dist_items,qkpkxw,2.0,info,,8.00000001193257,0.0,8.00000001193257,8.00000001193257,0.0,8.00000001193257,1.0,0.0,0.0,,Slider,Slider,4.0,object-56,temp_dist_trial,21.0,s_sh_15_1,student_shared,usb drive,3.0,competing,paired,s_sh_15_1.jpg,Student,,,sub-53
Desktop or Laptop,Mac OS 10.15.7,Chrome 128.0.0.0,1926x945,1920x942,Temporal Distance Task,cb_03,21.0,temp_dist_trial,dist_items,qkpkxw,2.0,continue,,2038.300000023853,2036.4000000000235,2038.300000023853,2038.300000023853,2036.4000000000235,2038.300000023853,1.0,0.0,0.0,,Click To Continue,Next button,7.0,object-60,temp_dist_trial,21.0,s_sh_15_1,student_shared,usb drive,3.0,competing,paired,s_sh_15_1.jpg,Student,,,sub-53
Desktop or Laptop,Mac OS 10.15.7,Chrome 128.0.0.0,1926x945,1920x942,Temporal Distance Task,cb_03,21.0,temp_dist_trial,dist_items,qkpkxw,2.0,response,25,768.3000000000177,2036.4000000000235,2038.800000023853,768.3000000000177,2036.4000000000235,2038.800000023853,1.0,1270.500000023836,0.0,,Slider,Slider,4.0,object-56,temp_dist_trial,21.0,s_sh_15_1,student_shared,usb drive,3.0,competing,paired,s_sh_15_1.jpg,Student,,,sub-53
Desktop or Laptop,Mac OS 10.15.7,Chrome 128.0.0.0,1926x945,1920x942,Temporal Distance Task,cb_03,22.0,temp_dist_trial,num_items,zn7si1,1.0,response,1_ITEM,908.000000047672,900.8999999999942,908.000000047672,908.000000047672,900.8999999999942,908.000000047672,1.0,0.0,0.0,,Click Response,1_count,3.0,object-46,temp_dist_trial,22.0,s_a_16_1,student_art,piano,3.0,unique,single,s_a_16_1.jpg,Student,,,sub-53
Desktop or Laptop,Mac OS 10.15.7,Chrome 128.0.0.0,1926x945,1920x942,Temporal Distance Task,cb_03,23.0,temp_dist_trial,num_items,zn7si1,1.0,response,1_ITEM,878.9000000119267,866.8000000000177,878.9000000119267,878.9000000119267,866.8000000000177,878.9000000119267,1.0,0.0,0.0,,Click Response,1_count,3.0,object-46,temp_dist_trial,23.0,s_a_19_1,student_art,ballet shoes,3.0,unique,single,s_a_19_1.jpg,Student,,,sub-53
Desktop or Laptop,Mac OS 10.15.7,Chrome 128.0.0.0,1926x945,1920x942,Temporal Distance Task,cb_03,24.0,temp_dist_trial,num_items,zn7si1,1.0,response,2_ITEM,1361.9000000119267,1351.7000000000114,1361.9000000119267,1361.9000000119267,1351.7000000000114,1361.9000000119267,1.0,0.0,0.0,,Click Response,2_count,5.0,object-49,temp_dist_trial,24.0,s_sh_06_1,student_shared,clipboard,3.0,competing,paired,s_sh_06_1.jpg,Student,,,sub-53
Desktop or Laptop,Mac OS 10.15.7,Chrome 128.0.0.0,1926x945,1920x942,Temporal Distance Task,cb_03,24.0,temp_dist_trial,dist_items,qkpkxw,2.0,info,,5.90000001192675,0.0,5.90000001192675,5.90000001192675,0.0,5.90000001192675,1.0,0.0,0.0,,Slider,Slider,4.0,object-56,temp_dist_trial,24.0,s_sh_06_1,student_shared,clipboard,3.0,competing,paired,s_sh_06_1.jpg,Student,,,sub-53
Desktop or Laptop,Mac OS 10.15.7,Chrome 128.0.0.0,1926x945,1920x942,Temporal Distance Task,cb_03,24.0,temp_dist_trial,dist_items,qkpkxw,2.0,response,dist_miss,7007.800000000018,7007.800000000018,7007.800000000018,7007.800000000018,7007.800000000018,7007.800000000018,1.0,0.0,0.0,dist_miss_tag,Time Limit,screen,0.0,screen,temp_dist_trial,24.0,s_sh_06_1,student_shared,clipboard,3.0,competing,paired,s_sh_06_1.jpg,Student,,,sub-53
Desktop or Laptop,Mac OS 10.15.7,Chrome 128.0.0.0,1926x945,1920x942,Temporal Distance Task,cb_03,24.0,temp_dist_trial,dist_items,qkpkxw,2.0,response,42,984.3000000000177,7007.800000000018,7017.700000023848,984.3000000000177,7007.800000000018,7017.700000023848,1.0,6033.400000023829,0.0,,Slider,Slider,4.0,object-56,temp_dist_trial,24.0,s_sh_06_1,student_shared,clipboard,3.0,competing,paired,s_sh_06_1.jpg,Student,,,sub-53
Desktop or Laptop,Mac OS 10.15.7,Chrome 128.0.0.0,1926x945,1920x942,Temporal Distance Task,cb_03,25.0,temp_dist_trial,num_items,zn7si1,1.0,response,2_ITEM,2660.9000000238298,2652.3999999999937,2660.9000000238298,2660.9000000238298,2652.3999999999937,2660.9000000238298,1.0,0.0,0.0,,Click Response,2_count,5.0,object-49,temp_dist_trial,25.0,s_a_20_1,student_art,pin cushion,3.0,unique,paired,s_a_20_1.jpg,Student,,,sub-53
Desktop or Laptop,Mac OS 10.15.7,Chrome 128.0.0.0,1926x945,1920x942,Temporal Distance Task,cb_03,25.0,temp_dist_trial,dist_items,qkpkxw,2.0,info,,6.800000035756966,0.0,6.800000035756966,6.800000035756966,0.0,6.800000035756966,1.0,0.0,0.0,,Slider,Slider,4.0,object-56,temp_dist_trial,25.0,s_a_20_1,student_art,pin cushion,3.0,unique,paired,s_a_20_1.jpg,Student,,,sub-53
Desktop or Laptop,Mac OS 10.15.7,Chrome 128.0.0.0,1926x945,1920x942,Temporal Distance Task,cb_03,25.0,temp_dist_trial,dist_items,qkpkxw,2.0,continue,,3790.3999999999933,3788.3999999999933,3790.3999999999933,3790.3999999999933,3788.3999999999933,3790.3999999999933,1.0,0.0,0.0,,Click To Continue,Next button,7.0,object-60,temp_dist_trial,25.0,s_a_20_1,student_art,pin cushion,3.0,unique,paired,s_a_20_1.jpg,Student,,,sub-53
Desktop or Laptop,Mac OS 10.15.7,Chrome 128.0.0.0,1926x945,1920x942,Temporal Distance Task,cb_03,25.0,temp_dist_trial,dist_items,qkpkxw,2.0,response,44,1301.5,3788.3999999999933,3790.700000011915,1301.5,3788.3999999999933,3790.700000011915,1.0,2489.200000011915,0.0,,Slider,Slider,4.0,object-56,temp_dist_trial,25.0,s_a_20_1,student_art,pin cushion,3.0,unique,paired,s_a_20_1.jpg,Student,,,sub-53
Desktop or Laptop,Mac OS 10.15.7,Chrome 128.0.0.0,1926x945,1920x942,Temporal Distance Task,cb_03,26.0,temp_dist_trial,num_items,zn7si1,1.0,response,2_ITEM,1407.1000000238419,1401.7999999999884,1407.1000000238419,1407.1000000238419,1401.7999999999884,1407.1000000238419,1.0,0.0,0.0,,Click Response,2_count,5.0,object-49,temp_dist_trial,26.0,s_s_04_1,student_stem,bunsen burner,3.0,unique,paired,s_s_04_1.jpg,Student,,,sub-53
Desktop or Laptop,Mac OS 10.15.7,Chrome 128.0.0.0,1926x945,1920x942,Temporal Distance Task,cb_03,26.0,temp_dist_trial,dist_items,qkpkxw,2.0,info,,7.800000011920929,0.0,7.800000011920929,7.800000011920929,0.0,7.800000011920929,1.0,0.0,0.0,,Slider,Slider,4.0,object-56,temp_dist_trial,26.0,s_s_04_1,student_stem,bunsen burner,3.0,unique,paired,s_s_04_1.jpg,Student,,,sub-53
Desktop or Laptop,Mac OS 10.15.7,Chrome 128.0.0.0,1926x945,1920x942,Temporal Distance Task,cb_03,26.0,temp_dist_trial,dist_items,qkpkxw,2.0,continue,,2278.0,2269.6000000000063,2278.0,2278.0,2269.6000000000063,2278.0,1.0,0.0,0.0,,Click To Continue,Next button,7.0,object-60,temp_dist_trial,26.0,s_s_04_1,student_stem,bunsen burner,3.0,unique,paired,s_s_04_1.jpg,Student,,,sub-53
Desktop or Laptop,Mac OS 10.15.7,Chrome 128.0.0.0,1926x945,1920x942,Temporal Distance Task,cb_03,26.0,temp_dist_trial,dist_items,qkpkxw,2.0,response,78,751.6000000000058,2269.6000000000063,2281.5,751.6000000000058,2269.6000000000063,2281.5,1.0,1529.8999999999942,0.0,,Slider,Slider,4.0,object-56,temp_dist_trial,26.0,s_s_04_1,student_stem,bunsen burner,3.0,unique,paired,s_s_04_1.jpg,Student,,,sub-53
Desktop or Laptop,Mac OS 10.15.7,Chrome 128.0.0.0,1926x945,1920x942,Temporal Distance Task,cb_03,27.0,temp_dist_trial,num_items,zn7si1,1.0,response,1_ITEM,1154.3999999999942,1150.7999999999886,1154.3999999999942,1154.3999999999942,1150.7999999999886,1154.3999999999942,1.0,0.0,0.0,,Click Response,1_count,3.0,object-46,temp_dist_trial,27.0,s_sh_01_1,student_shared,notebook,3.0,competing,paired,s_sh_01_1.jpg,Student,,,sub-53
Desktop or Laptop,Mac OS 10.15.7,Chrome 128.0.0.0,1926x945,1920x942,Temporal Distance Task,cb_03,28.0,temp_dist_trial,num_items,zn7si1,1.0,response,2_ITEM,1344.6000000119093,1335.7999999999886,1344.6000000119093,1344.6000000119093,1335.7999999999886,1344.6000000119093,1.0,0.0,0.0,,Click Response,2_count,5.0,object-49,temp_dist_trial,28.0,s_a_04_1,student_art,easel,3.0,unique,paired,s_a_04_1.jpg,Student,,,sub-53
Desktop or Laptop,Mac OS 10.15.7,Chrome 128.0.0.0,1926x945,1920x942,Temporal Distance Task,cb_03,28.0,temp_dist_trial,dist_items,qkpkxw,2.0,info,,8.50000001193257,0.0,8.50000001193257,8.50000001193257,0.0,8.50000001193257,1.0,0.0,0.0,,Slider,Slider,4.0,object-56,temp_dist_trial,28.0,s_a_04_1,student_art,easel,3.0,unique,paired,s_a_04_1.jpg,Student,,,sub-53
Desktop or Laptop,Mac OS 10.15.7,Chrome 128.0.0.0,1926x945,1920x942,Temporal Distance Task,cb_03,28.0,temp_dist_trial,dist_items,qkpkxw,2.0,continue,,1708.6000000357744,1702.8000000000175,1708.6000000357744,1708.6000000357744,1702.8000000000175,1708.6000000357744,1.0,0.0,0.0,,Click To Continue,Next button,7.0,object-60,temp_dist_trial,28.0,s_a_04_1,student_art,easel,3.0,unique,paired,s_a_04_1.jpg,Student,,,sub-53
Desktop or Laptop,Mac OS 10.15.7,Chrome 128.0.0.0,1926x945,1920x942,Temporal Distance Task,cb_03,28.0,temp_dist_trial,dist_items,qkpkxw,2.0,response,46,584.9000000000233,1702.8000000000175,1708.9000000476956,584.9000000000233,1702.8000000000175,1708.9000000476956,1.0,1124.000000047672,0.0,,Slider,Slider,4.0,object-56,temp_dist_trial,28.0,s_a_04_1,student_art,easel,3.0,unique,paired,s_a_04_1.jpg,Student,,,sub-53
Desktop or Laptop,Mac OS 10.15.7,Chrome 128.0.0.0,1926x945,1920x942,Temporal Distance Task,cb_03,29.0,temp_dist_trial,num_items,zn7si1,1.0,response,2_ITEM,1136.300000035757,1134.6000000000058,1136.300000035757,1136.300000035757,1134.6000000000058,1136.300000035757,1.0,0.0,0.0,,Click Response,2_count,5.0,object-49,temp_dist_trial,29.0,s_s_14_1,student_stem,funnel,3.0,unique,paired,s_s_14_1.jpg,Student,,,sub-53
Desktop or Laptop,Mac OS 10.15.7,Chrome 128.0.0.0,1926x945,1920x942,Temporal Distance Task,cb_03,29.0,temp_dist_trial,dist_items,qkpkxw,2.0,info,,9.900000035762787,0.0,9.900000035762787,9.900000035762787,0.0,9.900000035762787,1.0,0.0,0.0,,Slider,Slider,4.0,object-56,temp_dist_trial,29.0,s_s_14_1,student_stem,funnel,3.0,unique,paired,s_s_14_1.jpg,Student,,,sub-53
Desktop or Laptop,Mac OS 10.15.7,Chrome 128.0.0.0,1926x945,1920x942,Temporal Distance Task,cb_03,29.0,temp_dist_trial,dist_items,qkpkxw,2.0,continue,,2125.600000023842,2118.2999999999884,2125.600000023842,2125.600000023842,2118.2999999999884,2125.600000023842,1.0,0.0,0.0,,Click To Continue,Next button,7.0,object-60,temp_dist_trial,29.0,s_s_14_1,student_stem,funnel,3.0,unique,paired,s_s_14_1.jpg,Student,,,sub-53
Desktop or Laptop,Mac OS 10.15.7,Chrome 128.0.0.0,1926x945,1920x942,Temporal Distance Task,cb_03,29.0,temp_dist_trial,dist_items,qkpkxw,2.0,response,49,1234.8999999999942,2118.2999999999884,2126.100000023842,1234.8999999999942,2118.2999999999884,2126.100000023842,1.0,891.2000000238478,0.0,,Slider,Slider,4.0,object-56,temp_dist_trial,29.0,s_s_14_1,student_stem,funnel,3.0,unique,paired,s_s_14_1.jpg,Student,,,sub-53
Desktop or Laptop,Mac OS 10.15.7,Chrome 128.0.0.0,1926x945,1920x942,Temporal Distance Task,cb_03,30.0,temp_dist_trial,num_items,zn7si1,1.0,response,2_ITEM,1523.6000000357744,1519.2000000000116,1523.6000000357744,1523.6000000357744,1519.2000000000116,1523.6000000357744,1.0,0.0,0.0,,Click Response,2_count,5.0,object-49,temp_dist_trial,30.0,s_sh_14_1,student_shared,printer,3.0,competing,paired,s_sh_14_1.jpg,Student,,,sub-53
Desktop or Laptop,Mac OS 10.15.7,Chrome 128.0.0.0,1926x945,1920x942,Temporal Distance Task,cb_03,30.0,temp_dist_trial,dist_items,qkpkxw,2.0,info,,6.3000000238534986,0.0,6.3000000238534986,6.3000000238534986,0.0,6.3000000238534986,1.0,0.0,0.0,,Slider,Slider,4.0,object-56,temp_dist_trial,30.0,s_sh_14_1,student_shared,printer,3.0,competing,paired,s_sh_14_1.jpg,Student,,,sub-53
Desktop or Laptop,Mac OS 10.15.7,Chrome 128.0.0.0,1926x945,1920x942,Temporal Distance Task,cb_03,30.0,temp_dist_trial,dist_items,qkpkxw,2.0,continue,,1554.7000000000116,1552.9000000000233,1554.7000000000116,1554.7000000000116,1552.9000000000233,1554.7000000000116,1.0,0.0,0.0,,Click To Continue,Next button,7.0,object-60,temp_dist_trial,30.0,s_sh_14_1,student_shared,printer,3.0,competing,paired,s_sh_14_1.jpg,Student,,,sub-53
Desktop or Laptop,Mac OS 10.15.7,Chrome 128.0.0.0,1926x945,1920x942,Temporal Distance Task,cb_03,30.0,temp_dist_trial,dist_items,qkpkxw,2.0,response,64,801.8000000000177,1552.9000000000233,1560.0000000119323,801.8000000000177,1552.9000000000233,1560.0000000119323,1.0,758.2000000119151,0.0,,Slider,Slider,4.0,object-56,temp_dist_trial,30.0,s_sh_14_1,student_shared,printer,3.0,competing,paired,s_sh_14_1.jpg,Student,,,sub-53
Desktop or Laptop,Mac OS 10.15.7,Chrome 128.0.0.0,1926x945,1920x942,Temporal Distance Task,cb_03,31.0,temp_dist_trial,num_items,zn7si1,1.0,response,1_ITEM,1259.1000000119093,1251.3999999999942,1259.1000000119093,1259.1000000119093,1251.3999999999942,1259.1000000119093,1.0,0.0,0.0,,Click Response,1_count,3.0,object-46,temp_dist_trial,31.0,s_s_17_1,student_stem,ring stand,3.0,unique,paired,s_s_17_1.jpg,Student,,,sub-53
Desktop or Laptop,Mac OS 10.15.7,Chrome 128.0.0.0,1926x945,1920x942,Temporal Distance Task,cb_03,32.0,temp_dist_trial,num_items,zn7si1,1.0,response,1_ITEM,979.4000000119267,967.8000000000177,979.4000000119267,979.4000000119267,967.8000000000177,979.4000000119267,1.0,0.0,0.0,,Click Response,1_count,3.0,object-46,temp_dist_trial,32.0,s_s_09_1,student_stem,multimeter,3.0,unique,single,s_s_09_1.jpg,Student,,,sub-53
Desktop or Laptop,Mac OS 10.15.7,Chrome 128.0.0.0,1926x945,1920x942,Temporal Distance Task,cb_03,33.0,temp_dist_trial,num_items,zn7si1,1.0,response,1_ITEM,1113.9000000238302,1101.0999999999767,1113.9000000238302,1113.9000000238302,1101.0999999999767,1113.9000000238302,1.0,0.0,0.0,,Click Response,1_count,3.0,object-46,temp_dist_trial,33.0,s_a_02_1,student_art,canvas,3.0,unique,single,s_a_02_1.jpg,Student,,,sub-53
Desktop or Laptop,Mac OS 10.15.7,Chrome 128.0.0.0,1926x945,1920x942,Temporal Distance Task,cb_03,34.0,temp_dist_trial,num_items,zn7si1,1.0,response,1_ITEM,749.7000000476837,734.1000000000058,749.7000000476837,749.7000000476837,734.1000000000058,749.7000000476837,1.0,0.0,0.0,,Click Response,1_count,3.0,object-46,temp_dist_trial,34.0,s_a_13_1,student_art,violin,3.0,unique,paired,s_a_13_1.jpg,Student,,,sub-53
Desktop or Laptop,Mac OS 10.15.7,Chrome 128.0.0.0,1926x945,1920x942,Temporal Distance Task,cb_03,35.0,temp_dist_trial,num_items,zn7si1,1.0,response,1_ITEM,924.500000023836,917.0,924.500000023836,924.500000023836,917.0,924.500000023836,1.0,0.0,0.0,,Click Response,1_count,3.0,object-46,temp_dist_trial,35.0,s_sh_10_1,student_shared,scissors,3.0,competing,paired,s_sh_10_1.jpg,Student,,,sub-53
Desktop or Laptop,Mac OS 10.15.7,Chrome 128.0.0.0,1926x945,1920x942,Temporal Distance Task,cb_03,36.0,temp_dist_trial,num_items,zn7si1,1.0,response,1_ITEM,813.4000000119267,801.8000000000177,813.4000000119267,813.4000000119267,801.8000000000177,813.4000000119267,1.0,0.0,0.0,,Click Response,1_count,3.0,object-46,temp_dist_trial,36.0,s_sh_03_1,student_shared,highlighter,3.0,competing,single,s_sh_03_1.jpg,Student,,,sub-53
Desktop or Laptop,Mac OS 10.15.7,Chrome 128.0.0.0,1926x945,1920x942,Temporal Distance Task,cb_03,37.0,temp_dist_trial,num_items,zn7si1,1.0,response,2_ITEM,932.3000000119208,917.6000000000058,932.3000000119208,932.3000000119208,917.6000000000058,932.3000000119208,1.0,0.0,0.0,,Click Response,2_count,5.0,object-49,temp_dist_trial,37.0,s_sh_12_1,student_shared,binder,3.0,competing,paired,s_sh_12_1.jpg,Student,,,sub-53
Desktop or Laptop,Mac OS 10.15.7,Chrome 128.0.0.0,1926x945,1920x942,Temporal Distance Task,cb_03,37.0,temp_dist_trial,dist_items,qkpkxw,2.0,info,,6.700000011915108,0.0,6.700000011915108,6.700000011915108,0.0,6.700000011915108,1.0,0.0,0.0,,Slider,Slider,4.0,object-56,temp_dist_trial,37.0,s_sh_12_1,student_shared,binder,3.0,competing,paired,s_sh_12_1.jpg,Student,,,sub-53
Desktop or Laptop,Mac OS 10.15.7,Chrome 128.0.0.0,1926x945,1920x942,Temporal Distance Task,cb_03,37.0,temp_dist_trial,dist_items,qkpkxw,2.0,continue,,2696.000000023836,2686.6000000000063,2696.000000023836,2696.000000023836,2686.6000000000063,2696.000000023836,1.0,0.0,0.0,,Click To Continue,Next button,7.0,object-60,temp_dist_trial,37.0,s_sh_12_1,student_shared,binder,3.0,competing,paired,s_sh_12_1.jpg,Student,,,sub-53
Desktop or Laptop,Mac OS 10.15.7,Chrome 128.0.0.0,1926x945,1920x942,Temporal Distance Task,cb_03,37.0,temp_dist_trial,dist_items,qkpkxw,2.0,response,40,634.3999999999943,2686.6000000000063,2700.200000011915,634.3999999999943,2686.6000000000063,2700.200000011915,1.0,2065.800000011921,0.0,,Slider,Slider,4.0,object-56,temp_dist_trial,37.0,s_sh_12_1,student_shared,binder,3.0,competing,paired,s_sh_12_1.jpg,Student,,,sub-53
Desktop or Laptop,Mac OS 10.15.7,Chrome 128.0.0.0,1926x945,1920x942,Temporal Distance Task,cb_03,38.0,temp_dist_trial,num_items,zn7si1,1.0,response,1_ITEM,1020.000000047672,1016.7999999999884,1020.000000047672,1020.000000047672,1016.7999999999884,1020.000000047672,1.0,0.0,0.0,,Click Response,1_count,3.0,object-46,temp_dist_trial,38.0,s_s_13_1,student_stem,telescope,3.0,unique,paired,s_s_13_1.jpg,Student,,,sub-53
Desktop or Laptop,Mac OS 10.15.7,Chrome 128.0.0.0,1926x945,1920x942,Temporal Distance Task,cb_03,39.0,temp_dist_trial,num_items,zn7si1,1.0,response,1_ITEM,995.1000000119092,985.5,995.1000000119092,995.1000000119092,985.5,995.1000000119092,1.0,0.0,0.0,,Click Response,1_count,3.0,object-46,temp_dist_trial,39.0,s_sh_19_1,student_shared,portable plastic drawer,3.0,competing,single,s_sh_19_1.jpg,Student,,,sub-53
Desktop or Laptop,Mac OS 10.15.7,Chrome 128.0.0.0,1926x945,1920x942,Temporal Distance Task,cb_03,40.0,temp_dist_trial,num_items,zn7si1,1.0,response,2_ITEM,1695.5000000357684,1685.6000000000058,1695.5000000357684,1695.5000000357684,1685.6000000000058,1695.5000000357684,1.0,0.0,0.0,,Click Response,2_count,5.0,object-49,temp_dist_trial,40.0,s_a_09_1,student_art,picture frame,3.0,unique,paired,s_a_09_1.jpg,Student,,,sub-53
Desktop or Laptop,Mac OS 10.15.7,Chrome 128.0.0.0,1926x945,1920x942,Temporal Distance Task,cb_03,40.0,temp_dist_trial,dist_items,qkpkxw,2.0,info,,6.8000000238534986,0.0,6.8000000238534986,6.8000000238534986,0.0,6.8000000238534986,1.0,0.0,0.0,,Slider,Slider,4.0,object-56,temp_dist_trial,40.0,s_a_09_1,student_art,picture frame,3.0,unique,paired,s_a_09_1.jpg,Student,,,sub-53
Desktop or Laptop,Mac OS 10.15.7,Chrome 128.0.0.0,1926x945,1920x942,Temporal Distance Task,cb_03,40.0,temp_dist_trial,dist_items,qkpkxw,2.0,continue,,2121.400000047696,2119.8000000000175,2121.400000047696,2121.400000047696,2119.8000000000175,2121.400000047696,1.0,0.0,0.0,,Click To Continue,Next button,7.0,object-60,temp_dist_trial,40.0,s_a_09_1,student_art,picture frame,3.0,unique,paired,s_a_09_1.jpg,Student,,,sub-53
Desktop or Laptop,Mac OS 10.15.7,Chrome 128.0.0.0,1926x945,1920x942,Temporal Distance Task,cb_03,40.0,temp_dist_trial,dist_items,qkpkxw,2.0,response,17,785.1000000000058,2119.8000000000175,2121.800000023853,785.1000000000058,2119.8000000000175,2121.800000023853,1.0,1336.7000000238475,0.0,,Slider,Slider,4.0,object-56,temp_dist_trial,40.0,s_a_09_1,student_art,picture frame,3.0,unique,paired,s_a_09_1.jpg,Student,,,sub-53
Desktop or Laptop,Mac OS 10.15.7,Chrome 128.0.0.0,1926x945,1920x942,Temporal Distance Task,cb_03,41.0,temp_dist_trial,num_items,zn7si1,1.0,response,1_ITEM,1111.6000000476781,1101.2999999999884,1111.6000000476781,1111.6000000476781,1101.2999999999884,1111.6000000476781,1.0,0.0,0.0,,Click Response,1_count,3.0,object-46,temp_dist_trial,41.0,s_sh_22_1,student_shared,hole puncher,3.0,competing,paired,s_sh_22_1.jpg,Student,,,sub-53
Desktop or Laptop,Mac OS 10.15.7,Chrome 128.0.0.0,1926x945,1920x942,Temporal Distance Task,cb_03,42.0,temp_dist_trial,num_items,zn7si1,1.0,response,1_ITEM,1023.9000000238302,1017.7999999999884,1023.9000000238302,1023.9000000238302,1017.7999999999884,1023.9000000238302,1.0,0.0,0.0,,Click Response,1_count,3.0,object-46,temp_dist_trial,42.0,s_sh_02_1,student_shared,eraser,3.0,competing,single,s_sh_02_1.jpg,Student,,,sub-53
Desktop or Laptop,Mac OS 10.15.7,Chrome 128.0.0.0,1926x945,1920x942,Temporal Distance Task,cb_03,43.0,temp_dist_trial,num_items,zn7si1,1.0,response,1_ITEM,862.0000000357686,849.8999999999942,862.0000000357686,862.0000000357686,849.8999999999942,862.0000000357686,1.0,0.0,0.0,,Click Response,1_count,3.0,object-46,temp_dist_trial,43.0,s_sh_18_1,student_shared,wall calendar,3.0,competing,paired,s_sh_18_1.jpg,Student,,,sub-53
Desktop or Laptop,Mac OS 10.15.7,Chrome 128.0.0.0,1926x945,1920x942,Temporal Distance Task,cb_03,44.0,temp_dist_trial,num_items,zn7si1,1.0,response,1_ITEM,1537.4000000476956,1535.8000000000175,1537.4000000476956,1537.4000000476956,1535.8000000000175,1537.4000000476956,1.0,0.0,0.0,,Click Response,1_count,3.0,object-46,temp_dist_trial,44.0,s_sh_13_1,student_shared,index cards,3.0,competing,paired,s_sh_13_1.jpg,Student,,,sub-53
Desktop or Laptop,Mac OS 10.15.7,Chrome 128.0.0.0,1926x945,1920x942,Temporal Distance Task,cb_03,45.0,temp_dist_trial,num_items,zn7si1,1.0,response,2_ITEM,1086.1000000000058,1084.7000000000116,1086.1000000000058,1086.1000000000058,1084.7000000000116,1086.1000000000058,1.0,0.0,0.0,,Click Response,2_count,5.0,object-49,temp_dist_trial,45.0,s_sh_24_1,student_shared,desk organizer,3.0,competing,paired,s_sh_24_1.jpg,Student,,,sub-53
Desktop or Laptop,Mac OS 10.15.7,Chrome 128.0.0.0,1926x945,1920x942,Temporal Distance Task,cb_03,45.0,temp_dist_trial,dist_items,qkpkxw,2.0,info,,6.900000023830216,0.0,6.900000023830216,6.900000023830216,0.0,6.900000023830216,1.0,0.0,0.0,,Slider,Slider,4.0,object-56,temp_dist_trial,45.0,s_sh_24_1,student_shared,desk organizer,3.0,competing,paired,s_sh_24_1.jpg,Student,,,sub-53
Desktop or Laptop,Mac OS 10.15.7,Chrome 128.0.0.0,1926x945,1920x942,Temporal Distance Task,cb_03,45.0,temp_dist_trial,dist_items,qkpkxw,2.0,continue,,1626.500000047672,1618.0999999999767,1626.500000047672,1626.500000047672,1618.0999999999767,1626.500000047672,1.0,0.0,0.0,,Click To Continue,Next button,7.0,object-60,temp_dist_trial,45.0,s_sh_24_1,student_shared,desk organizer,3.0,competing,paired,s_sh_24_1.jpg,Student,,,sub-53
Desktop or Laptop,Mac OS 10.15.7,Chrome 128.0.0.0,1926x945,1920x942,Temporal Distance Task,cb_03,45.0,temp_dist_trial,dist_items,qkpkxw,2.0,response,43,700.6999999999823,1618.0999999999767,1626.9000000238302,700.6999999999823,1618.0999999999767,1626.9000000238302,1.0,926.2000000238477,0.0,,Slider,Slider,4.0,object-56,temp_dist_trial,45.0,s_sh_24_1,student_shared,desk organizer,3.0,competing,paired,s_sh_24_1.jpg,Student,,,sub-53
Desktop or Laptop,Mac OS 10.15.7,Chrome 128.0.0.0,1926x945,1920x942,Temporal Distance Task,cb_03,46.0,temp_dist_trial,num_items,zn7si1,1.0,response,1_ITEM,826.5000000119327,817.9000000000232,826.5000000119327,826.5000000119327,817.9000000000232,826.5000000119327,1.0,0.0,0.0,,Click Response,1_count,3.0,object-46,temp_dist_trial,46.0,s_sh_07_1,student_shared,ruler,3.0,competing,single,s_sh_07_1.jpg,Student,,,sub-53
Desktop or Laptop,Mac OS 10.15.7,Chrome 128.0.0.0,1926x945,1920x942,Temporal Distance Task,cb_03,47.0,temp_dist_trial,num_items,zn7si1,1.0,response,2_ITEM,1200.4000000000233,1183.7000000000114,1200.4000000000233,1200.4000000000233,1183.7000000000114,1200.4000000000233,1.0,0.0,0.0,,Click Response,2_count,5.0,object-49,temp_dist_trial,47.0,s_sh_17_1,student_shared,wireless mouse,3.0,competing,paired,s_sh_17_1.jpg,Student,,,sub-53
Desktop or Laptop,Mac OS 10.15.7,Chrome 128.0.0.0,1926x945,1920x942,Temporal Distance Task,cb_03,47.0,temp_dist_trial,dist_items,qkpkxw,2.0,info,,10.50000001193257,0.0,10.50000001193257,10.50000001193257,0.0,10.50000001193257,1.0,0.0,0.0,,Slider,Slider,4.0,object-56,temp_dist_trial,47.0,s_sh_17_1,student_shared,wireless mouse,3.0,competing,paired,s_sh_17_1.jpg,Student,,,sub-53
Desktop or Laptop,Mac OS 10.15.7,Chrome 128.0.0.0,1926x945,1920x942,Temporal Distance Task,cb_03,47.0,temp_dist_trial,dist_items,qkpkxw,2.0,continue,,3642.300000023854,3637.5,3642.300000023854,3642.300000023854,3637.5,3642.300000023854,1.0,0.0,0.0,,Click To Continue,Next button,7.0,object-60,temp_dist_trial,47.0,s_sh_17_1,student_shared,wireless mouse,3.0,competing,paired,s_sh_17_1.jpg,Student,,,sub-53
Desktop or Laptop,Mac OS 10.15.7,Chrome 128.0.0.0,1926x945,1920x942,Temporal Distance Task,cb_03,47.0,temp_dist_trial,dist_items,qkpkxw,2.0,response,40,2419.5,3637.5,3645.500000011933,2419.5,3637.5,3645.500000011933,1.0,1226.0000000119326,0.0,,Slider,Slider,4.0,object-56,temp_dist_trial,47.0,s_sh_17_1,student_shared,wireless mouse,3.0,competing,paired,s_sh_17_1.jpg,Student,,,sub-53
Desktop or Laptop,Mac OS 10.15.7,Chrome 128.0.0.0,1926x945,1920x942,Temporal Distance Task,cb_03,48.0,temp_dist_trial,num_items,zn7si1,1.0,response,1_ITEM,1010.8000000238536,1000.2000000000116,1010.8000000238536,1010.8000000238536,1000.2000000000116,1010.8000000238536,1.0,0.0,0.0,,Click Response,1_count,3.0,object-46,temp_dist_trial,48.0,s_sh_05_1,student_shared,laptop,3.0,competing,single,s_sh_05_1.jpg,Student,,,sub-53
Desktop or Laptop,Mac OS 10.15.7,Chrome 128.0.0.0,1926x945,1920x942,Temporal Distance Task,cb_03,2.0,temp_eventStart,Screen 1,dgtyxe,1.0,continue,,68739.60000001191,68728.29999999999,68739.60000001191,68739.60000001191,68728.29999999999,68739.60000001191,1.0,0.0,0.0,,Click To Continue,Next Button,3.0,object-43,temp_eventStart,,,Travel,,,,,,,,,sub-53
Desktop or Laptop,Mac OS 10.15.7,Chrome 128.0.0.0,1926x945,1920x942,Temporal Distance Task,cb_03,49.0,temp_dist_trial,num_items,zn7si1,1.0,response,2_ITEM,961.0,950.4000000000232,961.0,961.0,950.4000000000232,961.0,1.0,0.0,0.0,,Click Response,2_count,5.0,object-49,temp_dist_trial,1.0,t_s_14_1,travel_shared,hand sanitizer,3.0,competing,paired,t_s_14_1.jpg,Travel,,,sub-53
Desktop or Laptop,Mac OS 10.15.7,Chrome 128.0.0.0,1926x945,1920x942,Temporal Distance Task,cb_03,49.0,temp_dist_trial,dist_items,qkpkxw,2.0,info,,6.700000047683716,0.0,6.700000047683716,6.700000047683716,0.0,6.700000047683716,1.0,0.0,0.0,,Slider,Slider,4.0,object-56,temp_dist_trial,1.0,t_s_14_1,travel_shared,hand sanitizer,3.0,competing,paired,t_s_14_1.jpg,Travel,,,sub-53
Desktop or Laptop,Mac OS 10.15.7,Chrome 128.0.0.0,1926x945,1920x942,Temporal Distance Task,cb_03,49.0,temp_dist_trial,dist_items,qkpkxw,2.0,continue,,2377.700000047684,2370.5,2377.700000047684,2377.700000047684,2370.5,2377.700000047684,1.0,0.0,0.0,,Click To Continue,Next button,7.0,object-60,temp_dist_trial,1.0,t_s_14_1,travel_shared,hand sanitizer,3.0,competing,paired,t_s_14_1.jpg,Travel,,,sub-53
Desktop or Laptop,Mac OS 10.15.7,Chrome 128.0.0.0,1926x945,1920x942,Temporal Distance Task,cb_03,49.0,temp_dist_trial,dist_items,qkpkxw,2.0,response,60,1301.7999999999886,2370.5,2378.0,1301.7999999999886,2370.5,2378.0,1.0,1076.2000000000116,0.0,,Slider,Slider,4.0,object-56,temp_dist_trial,1.0,t_s_14_1,travel_shared,hand sanitizer,3.0,competing,paired,t_s_14_1.jpg,Travel,,,sub-53
Desktop or Laptop,Mac OS 10.15.7,Chrome 128.0.0.0,1926x945,1920x942,Temporal Distance Task,cb_03,50.0,temp_dist_trial,num_items,zn7si1,1.0,response,1_ITEM,1061.100000023842,1050.2000000000116,1061.100000023842,1061.100000023842,1050.2000000000116,1061.100000023842,1.0,0.0,0.0,,Click Response,1_count,3.0,object-46,temp_dist_trial,2.0,t_s_01_1,travel_shared,fanny pack,3.0,competing,paired,t_s_01_1.jpg,Travel,,,sub-53
Desktop or Laptop,Mac OS 10.15.7,Chrome 128.0.0.0,1926x945,1920x942,Temporal Distance Task,cb_03,51.0,temp_dist_trial,num_items,zn7si1,1.0,response,2_ITEM,1464.1000000357744,1451.6000000000354,1464.1000000357744,1464.1000000357744,1451.6000000000354,1464.1000000357744,1.0,0.0,0.0,,Click Response,2_count,5.0,object-49,temp_dist_trial,3.0,t_m_16_1,travel_Miami,flippers,3.0,unique,single,t_m_16_1.jpg,Travel,,,sub-53
Desktop or Laptop,Mac OS 10.15.7,Chrome 128.0.0.0,1926x945,1920x942,Temporal Distance Task,cb_03,51.0,temp_dist_trial,dist_items,qkpkxw,2.0,info,,11.200000000011642,0.0,11.200000000011642,11.200000000011642,0.0,11.200000000011642,1.0,0.0,0.0,,Slider,Slider,4.0,object-56,temp_dist_trial,3.0,t_m_16_1,travel_Miami,flippers,3.0,unique,single,t_m_16_1.jpg,Travel,,,sub-53
Desktop or Laptop,Mac OS 10.15.7,Chrome 128.0.0.0,1926x945,1920x942,Temporal Distance Task,cb_03,51.0,temp_dist_trial,dist_items,qkpkxw,2.0,continue,,2948.1000000357744,2936.5,2948.1000000357744,2948.1000000357744,2936.5,2948.1000000357744,1.0,0.0,0.0,,Click To Continue,Next button,7.0,object-60,temp_dist_trial,3.0,t_m_16_1,travel_Miami,flippers,3.0,unique,single,t_m_16_1.jpg,Travel,,,sub-53
Desktop or Laptop,Mac OS 10.15.7,Chrome 128.0.0.0,1926x945,1920x942,Temporal Distance Task,cb_03,51.0,temp_dist_trial,dist_items,qkpkxw,2.0,response,,2948.6000000357744,2936.5,2948.6000000357744,2948.6000000357744,2936.5,2948.6000000357744,1.0,0.0,0.0,,Slider,Slider,4.0,object-56,temp_dist_trial,3.0,t_m_16_1,travel_Miami,flippers,3.0,unique,single,t_m_16_1.jpg,Travel,,,sub-53
Desktop or Laptop,Mac OS 10.15.7,Chrome 128.0.0.0,1926x945,1920x942,Temporal Distance Task,cb_03,52.0,temp_dist_trial,num_items,zn7si1,1.0,response,2_ITEM,1160.5000000119326,1152.2000000000114,1160.5000000119326,1160.5000000119326,1152.2000000000114,1160.5000000119326,1.0,0.0,0.0,,Click Response,2_count,5.0,object-49,temp_dist_trial,4.0,t_s_06_1,travel_shared,luggage,3.0,competing,paired,t_s_06_1.jpg,Travel,,,sub-53
Desktop or Laptop,Mac OS 10.15.7,Chrome 128.0.0.0,1926x945,1920x942,Temporal Distance Task,cb_03,52.0,temp_dist_trial,dist_items,qkpkxw,2.0,info,,7.400000000023283,0.0,7.400000000023283,7.400000000023283,0.0,7.400000000023283,1.0,0.0,0.0,,Slider,Slider,4.0,object-56,temp_dist_trial,4.0,t_s_06_1,travel_shared,luggage,3.0,competing,paired,t_s_06_1.jpg,Travel,,,sub-53
Desktop or Laptop,Mac OS 10.15.7,Chrome 128.0.0.0,1926x945,1920x942,Temporal Distance Task,cb_03,52.0,temp_dist_trial,dist_items,qkpkxw,2.0,continue,,1116.5000000238651,1101.4000000000233,1116.5000000238651,1116.5000000238651,1101.4000000000233,1116.5000000238651,1.0,0.0,0.0,,Click To Continue,Next button,7.0,object-60,temp_dist_trial,4.0,t_s_06_1,travel_shared,luggage,3.0,competing,paired,t_s_06_1.jpg,Travel,,,sub-53
Desktop or Laptop,Mac OS 10.15.7,Chrome 128.0.0.0,1926x945,1920x942,Temporal Distance Task,cb_03,52.0,temp_dist_trial,dist_items,qkpkxw,2.0,response,57,416.90000000002334,1101.4000000000233,1116.800000035786,416.90000000002334,1101.4000000000233,1116.800000035786,1.0,699.9000000357628,0.0,,Slider,Slider,4.0,object-56,temp_dist_trial,4.0,t_s_06_1,travel_shared,luggage,3.0,competing,paired,t_s_06_1.jpg,Travel,,,sub-53
Desktop or Laptop,Mac OS 10.15.7,Chrome 128.0.0.0,1926x945,1920x942,Temporal Distance Task,cb_03,53.0,temp_dist_trial,num_items,zn7si1,1.0,response,1_ITEM,812.2000000476837,801.5999999999768,812.2000000476837,812.2000000476837,801.5999999999768,812.2000000476837,1.0,0.0,0.0,,Click Response,1_count,3.0,object-46,temp_dist_trial,5.0,t_i_19_1,travel_Iceland,rope,3.0,unique,single,t_i_19_1.jpg,Travel,,,sub-53
Desktop or Laptop,Mac OS 10.15.7,Chrome 128.0.0.0,1926x945,1920x942,Temporal Distance Task,cb_03,54.0,temp_dist_trial,num_items,zn7si1,1.0,response,2_ITEM,894.3000000476602,884.7999999999884,894.3000000476602,894.3000000476602,884.7999999999884,894.3000000476602,1.0,0.0,0.0,,Click Response,2_count,5.0,object-49,temp_dist_trial,6.0,t_s_19_1,travel_shared,pajamas,3.0,competing,paired,t_s_19_1.jpg,Travel,,,sub-53
Desktop or Laptop,Mac OS 10.15.7,Chrome 128.0.0.0,1926x945,1920x942,Temporal Distance Task,cb_03,54.0,temp_dist_trial,dist_items,qkpkxw,2.0,info,,6.3000000238534986,0.0,6.3000000238534986,6.3000000238534986,0.0,6.3000000238534986,1.0,0.0,0.0,,Slider,Slider,4.0,object-56,temp_dist_trial,6.0,t_s_19_1,travel_shared,pajamas,3.0,competing,paired,t_s_19_1.jpg,Travel,,,sub-53
Desktop or Laptop,Mac OS 10.15.7,Chrome 128.0.0.0,1926x945,1920x942,Temporal Distance Task,cb_03,54.0,temp_dist_trial,dist_items,qkpkxw,2.0,continue,,1276.9000000476954,1267.2999999999886,1276.9000000476954,1276.9000000476954,1267.2999999999886,1276.9000000476954,1.0,0.0,0.0,,Click To Continue,Next button,7.0,object-60,temp_dist_trial,6.0,t_s_19_1,travel_shared,pajamas,3.0,competing,paired,t_s_19_1.jpg,Travel,,,sub-53
Desktop or Laptop,Mac OS 10.15.7,Chrome 128.0.0.0,1926x945,1920x942,Temporal Distance Task,cb_03,54.0,temp_dist_trial,dist_items,qkpkxw,2.0,response,74,500.7000000000117,1267.2999999999886,1277.5000000119326,500.7000000000117,1267.2999999999886,1277.5000000119326,1.0,776.8000000119209,0.0,,Slider,Slider,4.0,object-56,temp_dist_trial,6.0,t_s_19_1,travel_shared,pajamas,3.0,competing,paired,t_s_19_1.jpg,Travel,,,sub-53
Desktop or Laptop,Mac OS 10.15.7,Chrome 128.0.0.0,1926x945,1920x942,Temporal Distance Task,cb_03,55.0,temp_dist_trial,num_items,zn7si1,1.0,response,1_ITEM,927.800000035786,918.6000000000348,927.800000035786,927.800000035786,918.6000000000348,927.800000035786,1.0,0.0,0.0,,Click Response,1_count,3.0,object-46,temp_dist_trial,7.0,t_s_17_1,travel_shared,toothbrush,3.0,competing,single,t_s_17_1.jpg,Travel,,,sub-53
Desktop or Laptop,Mac OS 10.15.7,Chrome 128.0.0.0,1926x945,1920x942,Temporal Distance Task,cb_03,56.0,temp_dist_trial,num_items,zn7si1,1.0,response,1_ITEM,767.2999999999303,750.8999999999651,767.2999999999303,767.2999999999303,750.8999999999651,767.2999999999303,1.0,0.0,0.0,,Click Response,1_count,3.0,object-46,temp_dist_trial,8.0,t_s_11_1,travel_shared,eye mask,3.0,competing,single,t_s_11_1.jpg,Travel,,,sub-53
Desktop or Laptop,Mac OS 10.15.7,Chrome 128.0.0.0,1926x945,1920x942,Temporal Distance Task,cb_03,57.0,temp_dist_trial,num_items,zn7si1,1.0,response,1_ITEM,756.3000000238535,751.7000000000116,756.3000000238535,756.3000000238535,751.7000000000116,756.3000000238535,1.0,0.0,0.0,,Click Response,1_count,3.0,object-46,temp_dist_trial,9.0,t_s_23_1,travel_shared,ball cap,3.0,competing,paired,t_s_23_1.jpg,Travel,,,sub-53
Desktop or Laptop,Mac OS 10.15.7,Chrome 128.0.0.0,1926x945,1920x942,Temporal Distance Task,cb_03,58.0,temp_dist_trial,num_items,zn7si1,1.0,response,1_ITEM,988.4000000118975,984.7999999999884,988.4000000118975,988.4000000118975,984.7999999999884,988.4000000118975,1.0,0.0,0.0,,Click Response,1_count,3.0,object-46,temp_dist_trial,10.0,t_s_13_1,travel_shared,contact lens case,3.0,competing,paired,t_s_13_1.jpg,Travel,,,sub-53
Desktop or Laptop,Mac OS 10.15.7,Chrome 128.0.0.0,1926x945,1920x942,Temporal Distance Task,cb_03,59.0,temp_dist_trial,num_items,zn7si1,1.0,response,2_ITEM,979.9000000118975,967.2999999999884,979.9000000118975,979.9000000118975,967.2999999999884,979.9000000118975,1.0,0.0,0.0,,Click Response,2_count,5.0,object-49,temp_dist_trial,11.0,t_m_04_1,travel_Miami,UV jacket,3.0,unique,paired,t_m_04_1.jpg,Travel,,,sub-53
Desktop or Laptop,Mac OS 10.15.7,Chrome 128.0.0.0,1926x945,1920x942,Temporal Distance Task,cb_03,59.0,temp_dist_trial,dist_items,qkpkxw,2.0,info,,7.5000000476720725,0.0,7.5000000476720725,7.5000000476720725,0.0,7.5000000476720725,1.0,0.0,0.0,,Slider,Slider,4.0,object-56,temp_dist_trial,11.0,t_m_04_1,travel_Miami,UV jacket,3.0,unique,paired,t_m_04_1.jpg,Travel,,,sub-53
Desktop or Laptop,Mac OS 10.15.7,Chrome 128.0.0.0,1926x945,1920x942,Temporal Distance Task,cb_03,59.0,temp_dist_trial,dist_items,qkpkxw,2.0,continue,,3214.7999999999884,3203.399999999965,3214.7999999999884,3214.7999999999884,3203.399999999965,3214.7999999999884,1.0,0.0,0.0,,Click To Continue,Next button,7.0,object-60,temp_dist_trial,11.0,t_m_04_1,travel_Miami,UV jacket,3.0,unique,paired,t_m_04_1.jpg,Travel,,,sub-53
Desktop or Laptop,Mac OS 10.15.7,Chrome 128.0.0.0,1926x945,1920x942,Temporal Distance Task,cb_03,59.0,temp_dist_trial,dist_items,qkpkxw,2.0,response,42,2385.599999999977,3203.399999999965,3215.2000000357507,2385.599999999977,3203.399999999965,3215.2000000357507,1.0,829.6000000357744,0.0,,Slider,Slider,4.0,object-56,temp_dist_trial,11.0,t_m_04_1,travel_Miami,UV jacket,3.0,unique,paired,t_m_04_1.jpg,Travel,,,sub-53
Desktop or Laptop,Mac OS 10.15.7,Chrome 128.0.0.0,1926x945,1920x942,Temporal Distance Task,cb_03,60.0,temp_dist_trial,num_items,zn7si1,1.0,response,1_ITEM,962.6000000477072,950.9000000000232,962.6000000477072,962.6000000477072,950.9000000000232,962.6000000477072,1.0,0.0,0.0,,Click Response,1_count,3.0,object-46,temp_dist_trial,12.0,t_s_08_1,travel_shared,hand lotion,3.0,competing,single,t_s_08_1.jpg,Travel,,,sub-53
Desktop or Laptop,Mac OS 10.15.7,Chrome 128.0.0.0,1926x945,1920x942,Temporal Distance Task,cb_03,61.0,temp_dist_trial,num_items,zn7si1,1.0,response,1_ITEM,783.8000000119209,768.5,783.8000000119209,783.8000000119209,768.5,783.8000000119209,1.0,0.0,0.0,,Click Response,1_count,3.0,object-46,temp_dist_trial,13.0,t_m_15_1,travel_Miami,shorts,3.0,unique,single,t_m_15_1.jpg,Travel,,,sub-53
Desktop or Laptop,Mac OS 10.15.7,Chrome 128.0.0.0,1926x945,1920x942,Temporal Distance Task,cb_03,62.0,temp_dist_trial,num_items,zn7si1,1.0,response,1_ITEM,833.2000000000116,817.6000000000349,833.2000000000116,833.2000000000116,817.6000000000349,833.2000000000116,1.0,0.0,0.0,,Click Response,1_count,3.0,object-46,temp_dist_trial,14.0,t_s_22_1,travel_shared,belt,3.0,competing,single,t_s_22_1.jpg,Travel,,,sub-53
Desktop or Laptop,Mac OS 10.15.7,Chrome 128.0.0.0,1926x945,1920x942,Temporal Distance Task,cb_03,63.0,temp_dist_trial,num_items,zn7si1,1.0,response,2_ITEM,1134.600000000035,1117.9000000000233,1134.600000000035,1134.600000000035,1117.9000000000233,1134.600000000035,1.0,0.0,0.0,,Click Response,2_count,5.0,object-49,temp_dist_trial,15.0,t_m_01_1,travel_Miami,sandals,3.0,unique,paired,t_m_01_1.jpg,Travel,,,sub-53
Desktop or Laptop,Mac OS 10.15.7,Chrome 128.0.0.0,1926x945,1920x942,Temporal Distance Task,cb_03,63.0,temp_dist_trial,dist_items,qkpkxw,2.0,info,,6.800000035786071,0.0,6.800000035786071,6.800000035786071,0.0,6.800000035786071,1.0,0.0,0.0,,Slider,Slider,4.0,object-56,temp_dist_trial,15.0,t_m_01_1,travel_Miami,sandals,3.0,unique,paired,t_m_01_1.jpg,Travel,,,sub-53
Desktop or Laptop,Mac OS 10.15.7,Chrome 128.0.0.0,1926x945,1920x942,Temporal Distance Task,cb_03,63.0,temp_dist_trial,dist_items,qkpkxw,2.0,continue,,3289.4000000000237,3287.0,3289.4000000000237,3289.4000000000237,3287.0,3289.4000000000237,1.0,0.0,0.0,,Click To Continue,Next button,7.0,object-60,temp_dist_trial,15.0,t_m_01_1,travel_Miami,sandals,3.0,unique,paired,t_m_01_1.jpg,Travel,,,sub-53
Desktop or Laptop,Mac OS 10.15.7,Chrome 128.0.0.0,1926x945,1920x942,Temporal Distance Task,cb_03,63.0,temp_dist_trial,dist_items,qkpkxw,2.0,response,64,1152.100000000035,3287.0,3292.9000000000237,1152.100000000035,3287.0,3292.9000000000237,1.0,2140.7999999999884,0.0,,Slider,Slider,4.0,object-56,temp_dist_trial,15.0,t_m_01_1,travel_Miami,sandals,3.0,unique,paired,t_m_01_1.jpg,Travel,,,sub-53
Desktop or Laptop,Mac OS 10.15.7,Chrome 128.0.0.0,1926x945,1920x942,Temporal Distance Task,cb_03,64.0,temp_dist_trial,num_items,zn7si1,1.0,response,2_ITEM,1121.600000047707,1117.8000000000468,1121.600000047707,1121.600000047707,1117.8000000000468,1121.600000047707,1.0,0.0,0.0,,Click Response,2_count,5.0,object-49,temp_dist_trial,16.0,t_s_15_1,travel_shared,luggage tag,3.0,competing,paired,t_s_15_1.jpg,Travel,,,sub-53
Desktop or Laptop,Mac OS 10.15.7,Chrome 128.0.0.0,1926x945,1920x942,Temporal Distance Task,cb_03,64.0,temp_dist_trial,dist_items,qkpkxw,2.0,info,,12.600000023841858,0.0,12.600000023841858,12.600000023841858,0.0,12.600000023841858,1.0,0.0,0.0,,Slider,Slider,4.0,object-56,temp_dist_trial,16.0,t_s_15_1,travel_shared,luggage tag,3.0,competing,paired,t_s_15_1.jpg,Travel,,,sub-53
Desktop or Laptop,Mac OS 10.15.7,Chrome 128.0.0.0,1926x945,1920x942,Temporal Distance Task,cb_03,64.0,temp_dist_trial,dist_items,qkpkxw,2.0,continue,,1420.1999999999537,1402.5999999999767,1420.1999999999537,1420.1999999999537,1402.5999999999767,1420.1999999999537,1.0,0.0,0.0,,Click To Continue,Next button,7.0,object-60,temp_dist_trial,16.0,t_s_15_1,travel_shared,luggage tag,3.0,competing,paired,t_s_15_1.jpg,Travel,,,sub-53
Desktop or Laptop,Mac OS 10.15.7,Chrome 128.0.0.0,1926x945,1920x942,Temporal Distance Task,cb_03,64.0,temp_dist_trial,dist_items,qkpkxw,2.0,response,46,668.2000000000116,1402.5999999999767,1420.1999999999537,668.2000000000116,1402.5999999999767,1420.1999999999537,1.0,751.9999999999417,0.0,,Slider,Slider,4.0,object-56,temp_dist_trial,16.0,t_s_15_1,travel_shared,luggage tag,3.0,competing,paired,t_s_15_1.jpg,Travel,,,sub-53
Desktop or Laptop,Mac OS 10.15.7,Chrome 128.0.0.0,1926x945,1920x942,Temporal Distance Task,cb_03,65.0,temp_dist_trial,num_items,zn7si1,1.0,response,1_ITEM,1029.4000000000233,1017.5,1029.4000000000233,1029.4000000000233,1017.5,1029.4000000000233,1.0,0.0,0.0,,Click Response,1_count,3.0,object-46,temp_dist_trial,17.0,t_s_20_1,travel_shared,travel pill case,3.0,competing,single,t_s_20_1.jpg,Travel,,,sub-53
Desktop or Laptop,Mac OS 10.15.7,Chrome 128.0.0.0,1926x945,1920x942,Temporal Distance Task,cb_03,66.0,temp_dist_trial,num_items,zn7si1,1.0,response,1_ITEM,920.8000000119208,918.2999999999884,920.8000000119208,920.8000000119208,918.2999999999884,920.8000000119208,1.0,0.0,0.0,,Click Response,1_count,3.0,object-46,temp_dist_trial,18.0,t_i_15_1,travel_Iceland,compass,3.0,unique,paired,t_i_15_1.jpg,Travel,,,sub-53
Desktop or Laptop,Mac OS 10.15.7,Chrome 128.0.0.0,1926x945,1920x942,Temporal Distance Task,cb_03,67.0,temp_dist_trial,num_items,zn7si1,1.0,response,2_ITEM,1248.100000047707,1233.9000000000233,1248.100000047707,1248.100000047707,1233.9000000000233,1248.100000047707,1.0,0.0,0.0,,Click Response,2_count,5.0,object-49,temp_dist_trial,19.0,t_m_10_1,travel_Miami,tanktop,3.0,unique,paired,t_m_10_1.jpg,Travel,,,sub-53
Desktop or Laptop,Mac OS 10.15.7,Chrome 128.0.0.0,1926x945,1920x942,Temporal Distance Task,cb_03,67.0,temp_dist_trial,dist_items,qkpkxw,2.0,info,,6.299999999988358,0.0,6.299999999988358,6.299999999988358,0.0,6.299999999988358,1.0,0.0,0.0,,Slider,Slider,4.0,object-56,temp_dist_trial,19.0,t_m_10_1,travel_Miami,tanktop,3.0,unique,paired,t_m_10_1.jpg,Travel,,,sub-53
Desktop or Laptop,Mac OS 10.15.7,Chrome 128.0.0.0,1926x945,1920x942,Temporal Distance Task,cb_03,67.0,temp_dist_trial,dist_items,qkpkxw,2.0,continue,,1370.9000000238302,1368.899999999965,1370.9000000238302,1370.9000000238302,1368.899999999965,1370.9000000238302,1.0,0.0,0.0,,Click To Continue,Next button,7.0,object-60,temp_dist_trial,19.0,t_m_10_1,travel_Miami,tanktop,3.0,unique,paired,t_m_10_1.jpg,Travel,,,sub-53
Desktop or Laptop,Mac OS 10.15.7,Chrome 128.0.0.0,1926x945,1920x942,Temporal Distance Task,cb_03,67.0,temp_dist_trial,dist_items,qkpkxw,2.0,response,52,717.5,1368.899999999965,1371.500000047672,717.5,1368.899999999965,1371.500000047672,1.0,654.0000000476721,0.0,,Slider,Slider,4.0,object-56,temp_dist_trial,19.0,t_m_10_1,travel_Miami,tanktop,3.0,unique,paired,t_m_10_1.jpg,Travel,,,sub-53
Desktop or Laptop,Mac OS 10.15.7,Chrome 128.0.0.0,1926x945,1920x942,Temporal Distance Task,cb_03,68.0,temp_dist_trial,num_items,zn7si1,1.0,response,1_ITEM,1049.2000000119442,1034.0,1049.2000000119442,1049.2000000119442,1034.0,1049.2000000119442,1.0,0.0,0.0,,Click Response,1_count,3.0,object-46,temp_dist_trial,20.0,t_m_17_1,travel_Miami,water gun,3.0,unique,paired,t_m_17_1.jpg,Travel,,,sub-53
Desktop or Laptop,Mac OS 10.15.7,Chrome 128.0.0.0,1926x945,1920x942,Temporal Distance Task,cb_03,69.0,temp_dist_trial,num_items,zn7si1,1.0,response,1_ITEM,888.9000000238302,885.2000000000116,888.9000000238302,888.9000000238302,885.2000000000116,888.9000000238302,1.0,0.0,0.0,,Click Response,1_count,3.0,object-46,temp_dist_trial,21.0,t_s_16_1,travel_shared,chapstick,3.0,competing,paired,t_s_16_1.jpg,Travel,,,sub-53
Desktop or Laptop,Mac OS 10.15.7,Chrome 128.0.0.0,1926x945,1920x942,Temporal Distance Task,cb_03,70.0,temp_dist_trial,num_items,zn7si1,1.0,response,2_ITEM,906.100000023842,901.0,906.100000023842,906.100000023842,901.0,906.100000023842,1.0,0.0,0.0,,Click Response,2_count,5.0,object-49,temp_dist_trial,22.0,t_i_09_1,travel_Iceland,ear muffs,3.0,unique,paired,t_i_09_1.jpg,Travel,,,sub-53
Desktop or Laptop,Mac OS 10.15.7,Chrome 128.0.0.0,1926x945,1920x942,Temporal Distance Task,cb_03,70.0,temp_dist_trial,dist_items,qkpkxw,2.0,info,,6.900000023830216,0.0,6.900000023830216,6.900000023830216,0.0,6.900000023830216,1.0,0.0,0.0,,Slider,Slider,4.0,object-56,temp_dist_trial,22.0,t_i_09_1,travel_Iceland,ear muffs,3.0,unique,paired,t_i_09_1.jpg,Travel,,,sub-53
Desktop or Laptop,Mac OS 10.15.7,Chrome 128.0.0.0,1926x945,1920x942,Temporal Distance Task,cb_03,70.0,temp_dist_trial,dist_items,qkpkxw,2.0,continue,,1436.7999999999884,1435.2000000000116,1436.7999999999884,1436.7999999999884,1435.2000000000116,1436.7999999999884,1.0,0.0,0.0,,Click To Continue,Next button,7.0,object-60,temp_dist_trial,22.0,t_i_09_1,travel_Iceland,ear muffs,3.0,unique,paired,t_i_09_1.jpg,Travel,,,sub-53
Desktop or Laptop,Mac OS 10.15.7,Chrome 128.0.0.0,1926x945,1920x942,Temporal Distance Task,cb_03,70.0,temp_dist_trial,dist_items,qkpkxw,2.0,response,35,584.8999999999653,1435.2000000000116,1437.1000000119093,584.8999999999653,1435.2000000000116,1437.1000000119093,1.0,852.2000000119443,0.0,,Slider,Slider,4.0,object-56,temp_dist_trial,22.0,t_i_09_1,travel_Iceland,ear muffs,3.0,unique,paired,t_i_09_1.jpg,Travel,,,sub-53
Desktop or Laptop,Mac OS 10.15.7,Chrome 128.0.0.0,1926x945,1920x942,Temporal Distance Task,cb_03,71.0,temp_dist_trial,num_items,zn7si1,1.0,response,2_ITEM,1194.8000000476604,1185.399999999965,1194.8000000476604,1194.8000000476604,1185.399999999965,1194.8000000476604,1.0,0.0,0.0,,Click Response,2_count,5.0,object-49,temp_dist_trial,23.0,t_s_24_1,travel_shared,ear plugs,3.0,competing,paired,t_s_24_1.jpg,Travel,,,sub-53
Desktop or Laptop,Mac OS 10.15.7,Chrome 128.0.0.0,1926x945,1920x942,Temporal Distance Task,cb_03,71.0,temp_dist_trial,dist_items,qkpkxw,2.0,info,,6.299999999988358,0.0,6.299999999988358,6.299999999988358,0.0,6.299999999988358,1.0,0.0,0.0,,Slider,Slider,4.0,object-56,temp_dist_trial,23.0,t_s_24_1,travel_shared,ear plugs,3.0,competing,paired,t_s_24_1.jpg,Travel,,,sub-53
Desktop or Laptop,Mac OS 10.15.7,Chrome 128.0.0.0,1926x945,1920x942,Temporal Distance Task,cb_03,71.0,temp_dist_trial,dist_items,qkpkxw,2.0,continue,,1572.1000000119093,1568.2000000000116,1572.1000000119093,1572.1000000119093,1568.2000000000116,1572.1000000119093,1.0,0.0,0.0,,Click To Continue,Next button,7.0,object-60,temp_dist_trial,23.0,t_s_24_1,travel_shared,ear plugs,3.0,competing,paired,t_s_24_1.jpg,Travel,,,sub-53
Desktop or Laptop,Mac OS 10.15.7,Chrome 128.0.0.0,1926x945,1920x942,Temporal Distance Task,cb_03,71.0,temp_dist_trial,dist_items,qkpkxw,2.0,response,37,768.3999999999651,1568.2000000000116,1572.6000000119093,768.3999999999651,1568.2000000000116,1572.6000000119093,1.0,804.2000000119443,0.0,,Slider,Slider,4.0,object-56,temp_dist_trial,23.0,t_s_24_1,travel_shared,ear plugs,3.0,competing,paired,t_s_24_1.jpg,Travel,,,sub-53
Desktop or Laptop,Mac OS 10.15.7,Chrome 128.0.0.0,1926x945,1920x942,Temporal Distance Task,cb_03,72.0,temp_dist_trial,num_items,zn7si1,1.0,response,2_ITEM,1589.7000000238183,1586.0999999999767,1589.7000000238183,1589.7000000238183,1586.0999999999767,1589.7000000238183,1.0,0.0,0.0,,Click Response,2_count,5.0,object-49,temp_dist_trial,24.0,t_s_03_1,travel_shared,portable charger,3.0,competing,paired,t_s_03_1.jpg,Travel,,,sub-53
Desktop or Laptop,Mac OS 10.15.7,Chrome 128.0.0.0,1926x945,1920x942,Temporal Distance Task,cb_03,72.0,temp_dist_trial,dist_items,qkpkxw,2.0,info,,6.0000000119325705,0.0,6.0000000119325705,6.0000000119325705,0.0,6.0000000119325705,1.0,0.0,0.0,,Slider,Slider,4.0,object-56,temp_dist_trial,24.0,t_s_03_1,travel_shared,portable charger,3.0,competing,paired,t_s_03_1.jpg,Travel,,,sub-53
Desktop or Laptop,Mac OS 10.15.7,Chrome 128.0.0.0,1926x945,1920x942,Temporal Distance Task,cb_03,72.0,temp_dist_trial,dist_items,qkpkxw,2.0,continue,,2565.400000047696,2552.200000000012,2565.400000047696,2565.400000047696,2552.200000000012,2565.400000047696,1.0,0.0,0.0,,Click To Continue,Next button,7.0,object-60,temp_dist_trial,24.0,t_s_03_1,travel_shared,portable charger,3.0,competing,paired,t_s_03_1.jpg,Travel,,,sub-53
Desktop or Laptop,Mac OS 10.15.7,Chrome 128.0.0.0,1926x945,1920x942,Temporal Distance Task,cb_03,72.0,temp_dist_trial,dist_items,qkpkxw,2.0,response,26,1701.7999999999884,2552.200000000012,2568.5,1701.7999999999884,2552.200000000012,2568.5,1.0,866.7000000000116,0.0,,Slider,Slider,4.0,object-56,temp_dist_trial,24.0,t_s_03_1,travel_shared,portable charger,3.0,competing,paired,t_s_03_1.jpg,Travel,,,sub-53
Desktop or Laptop,Mac OS 10.15.7,Chrome 128.0.0.0,1926x945,1920x942,Temporal Distance Task,cb_03,73.0,temp_dist_trial,num_items,zn7si1,1.0,response,1_ITEM,1260.300000011921,1251.2000000000114,1260.300000011921,1260.300000011921,1251.2000000000114,1260.300000011921,1.0,0.0,0.0,,Click Response,1_count,3.0,object-46,temp_dist_trial,25.0,t_s_07_1,travel_shared,phone charger cable,3.0,competing,single,t_s_07_1.jpg,Travel,,,sub-53
Desktop or Laptop,Mac OS 10.15.7,Chrome 128.0.0.0,1926x945,1920x942,Temporal Distance Task,cb_03,74.0,temp_dist_trial,num_items,zn7si1,1.0,response,2_ITEM,946.5000000238653,935.0,946.5000000238653,946.5000000238653,935.0,946.5000000238653,1.0,0.0,0.0,,Click Response,2_count,5.0,object-49,temp_dist_trial,26.0,t_i_13_1,travel_Iceland,sleeping bag,3.0,unique,paired,t_i_13_1.jpg,Travel,,,sub-53
Desktop or Laptop,Mac OS 10.15.7,Chrome 128.0.0.0,1926x945,1920x942,Temporal Distance Task,cb_03,74.0,temp_dist_trial,dist_items,qkpkxw,2.0,info,,7.400000035762787,0.0,7.400000035762787,7.400000035762787,0.0,7.400000035762787,1.0,0.0,0.0,,Slider,Slider,4.0,object-56,temp_dist_trial,26.0,t_i_13_1,travel_Iceland,sleeping bag,3.0,unique,paired,t_i_13_1.jpg,Travel,,,sub-53
Desktop or Laptop,Mac OS 10.15.7,Chrome 128.0.0.0,1926x945,1920x942,Temporal Distance Task,cb_03,74.0,temp_dist_trial,dist_items,qkpkxw,2.0,continue,,1151.5,1135.5,1151.5,1151.5,1135.5,1151.5,1.0,0.0,0.0,,Click To Continue,Next button,7.0,object-60,temp_dist_trial,26.0,t_i_13_1,travel_Iceland,sleeping bag,3.0,unique,paired,t_i_13_1.jpg,Travel,,,sub-53
Desktop or Laptop,Mac OS 10.15.7,Chrome 128.0.0.0,1926x945,1920x942,Temporal Distance Task,cb_03,74.0,temp_dist_trial,dist_items,qkpkxw,2.0,response,50,751.7999999999884,1135.5,1151.9000000357628,751.7999999999884,1135.5,1151.9000000357628,1.0,400.10000003577437,0.0,,Slider,Slider,4.0,object-56,temp_dist_trial,26.0,t_i_13_1,travel_Iceland,sleeping bag,3.0,unique,paired,t_i_13_1.jpg,Travel,,,sub-53
Desktop or Laptop,Mac OS 10.15.7,Chrome 128.0.0.0,1926x945,1920x942,Temporal Distance Task,cb_03,75.0,temp_dist_trial,num_items,zn7si1,1.0,response,1_ITEM,1090.4000000357628,1084.7000000000116,1090.4000000357628,1090.4000000357628,1084.7000000000116,1090.4000000357628,1.0,0.0,0.0,,Click Response,1_count,3.0,object-46,temp_dist_trial,27.0,t_m_14_1,travel_Miami,swim goggles,3.0,unique,paired,t_m_14_1.jpg,Travel,,,sub-53
Desktop or Laptop,Mac OS 10.15.7,Chrome 128.0.0.0,1926x945,1920x942,Temporal Distance Task,cb_03,76.0,temp_dist_trial,num_items,zn7si1,1.0,response,2_ITEM,958.5,951.0,958.5,958.5,951.0,958.5,1.0,0.0,0.0,,Click Response,2_count,5.0,object-49,temp_dist_trial,28.0,t_i_17_1,travel_Iceland,binoculars,3.0,unique,paired,t_i_17_1.jpg,Travel,,,sub-53
Desktop or Laptop,Mac OS 10.15.7,Chrome 128.0.0.0,1926x945,1920x942,Temporal Distance Task,cb_03,76.0,temp_dist_trial,dist_items,qkpkxw,2.0,info,,7.400000011897646,0.0,7.400000011897646,7.400000011897646,0.0,7.400000011897646,1.0,0.0,0.0,,Slider,Slider,4.0,object-56,temp_dist_trial,28.0,t_i_17_1,travel_Iceland,binoculars,3.0,unique,paired,t_i_17_1.jpg,Travel,,,sub-53
Desktop or Laptop,Mac OS 10.15.7,Chrome 128.0.0.0,1926x945,1920x942,Temporal Distance Task,cb_03,76.0,temp_dist_trial,dist_items,qkpkxw,2.0,continue,,1329.4000000118974,1318.2999999999886,1329.4000000118974,1329.4000000118974,1318.2999999999886,1329.4000000118974,1.0,0.0,0.0,,Click To Continue,Next button,7.0,object-60,temp_dist_trial,28.0,t_i_17_1,travel_Iceland,binoculars,3.0,unique,paired,t_i_17_1.jpg,Travel,,,sub-53
Desktop or Laptop,Mac OS 10.15.7,Chrome 128.0.0.0,1926x945,1920x942,Temporal Distance Task,cb_03,76.0,temp_dist_trial,dist_items,qkpkxw,2.0,response,52,718.0,1318.2999999999886,1329.9000000118974,718.0,1318.2999999999886,1329.9000000118974,1.0,611.9000000118976,0.0,,Slider,Slider,4.0,object-56,temp_dist_trial,28.0,t_i_17_1,travel_Iceland,binoculars,3.0,unique,paired,t_i_17_1.jpg,Travel,,,sub-53
Desktop or Laptop,Mac OS 10.15.7,Chrome 128.0.0.0,1926x945,1920x942,Temporal Distance Task,cb_03,77.0,temp_dist_trial,num_items,zn7si1,1.0,response,1_ITEM,1247.000000047672,1234.5,1247.000000047672,1247.000000047672,1234.5,1247.000000047672,1.0,0.0,0.0,,Click Response,1_count,3.0,object-46,temp_dist_trial,29.0,t_m_18_1,travel_Miami,waterproof tote,3.0,unique,single,t_m_18_1.jpg,Travel,,,sub-53
Desktop or Laptop,Mac OS 10.15.7,Chrome 128.0.0.0,1926x945,1920x942,Temporal Distance Task,cb_03,78.0,temp_dist_trial,num_items,zn7si1,1.0,response,2_ITEM,997.3000000476603,983.5999999999768,997.3000000476603,997.3000000476603,983.5999999999768,997.3000000476603,1.0,0.0,0.0,,Click Response,2_count,5.0,object-49,temp_dist_trial,30.0,t_m_20_1,travel_Miami,inflatable beachball,3.0,unique,paired,t_m_20_1.jpg,Travel,,,sub-53
Desktop or Laptop,Mac OS 10.15.7,Chrome 128.0.0.0,1926x945,1920x942,Temporal Distance Task,cb_03,78.0,temp_dist_trial,dist_items,qkpkxw,2.0,info,,7.7000000000116415,0.0,7.7000000000116415,7.7000000000116415,0.0,7.7000000000116415,1.0,0.0,0.0,,Slider,Slider,4.0,object-56,temp_dist_trial,30.0,t_m_20_1,travel_Miami,inflatable beachball,3.0,unique,paired,t_m_20_1.jpg,Travel,,,sub-53
Desktop or Laptop,Mac OS 10.15.7,Chrome 128.0.0.0,1926x945,1920x942,Temporal Distance Task,cb_03,78.0,temp_dist_trial,dist_items,qkpkxw,2.0,continue,,1558.3000000238535,1552.2000000000116,1558.3000000238535,1558.3000000238535,1552.2000000000116,1558.3000000238535,1.0,0.0,0.0,,Click To Continue,Next button,7.0,object-60,temp_dist_trial,30.0,t_m_20_1,travel_Miami,inflatable beachball,3.0,unique,paired,t_m_20_1.jpg,Travel,,,sub-53
Desktop or Laptop,Mac OS 10.15.7,Chrome 128.0.0.0,1926x945,1920x942,Temporal Distance Task,cb_03,78.0,temp_dist_trial,dist_items,qkpkxw,2.0,response,62,501.0,1552.2000000000116,1558.6000000357744,501.0,1552.2000000000116,1558.6000000357744,1.0,1057.6000000357744,0.0,,Slider,Slider,4.0,object-56,temp_dist_trial,30.0,t_m_20_1,travel_Miami,inflatable beachball,3.0,unique,paired,t_m_20_1.jpg,Travel,,,sub-53
Desktop or Laptop,Mac OS 10.15.7,Chrome 128.0.0.0,1926x945,1920x942,Temporal Distance Task,cb_03,79.0,temp_dist_trial,num_items,zn7si1,1.0,response,1_ITEM,905.8000000119208,900.9000000000232,905.8000000119208,905.8000000119208,900.9000000000232,905.8000000119208,1.0,0.0,0.0,,Click Response,1_count,3.0,object-46,temp_dist_trial,31.0,t_s_05_1,travel_shared,neck pillow,3.0,competing,single,t_s_05_1.jpg,Travel,,,sub-53
Desktop or Laptop,Mac OS 10.15.7,Chrome 128.0.0.0,1926x945,1920x942,Temporal Distance Task,cb_03,80.0,temp_dist_trial,num_items,zn7si1,1.0,response,1_ITEM,845.7000000357511,834.5999999999768,845.7000000357511,845.7000000357511,834.5999999999768,845.7000000357511,1.0,0.0,0.0,,Click Response,1_count,3.0,object-46,temp_dist_trial,32.0,t_m_19_1,travel_Miami,surfboard,3.0,unique,single,t_m_19_1.jpg,Travel,,,sub-53
Desktop or Laptop,Mac OS 10.15.7,Chrome 128.0.0.0,1926x945,1920x942,Temporal Distance Task,cb_03,81.0,temp_dist_trial,num_items,zn7si1,1.0,response,1_ITEM,656.8000000357863,650.5,656.8000000357863,656.8000000357863,650.5,656.8000000357863,1.0,0.0,0.0,,Click Response,1_count,3.0,object-46,temp_dist_trial,33.0,t_i_20_1,travel_Iceland,lantern,3.0,unique,single,t_i_20_1.jpg,Travel,,,sub-53
Desktop or Laptop,Mac OS 10.15.7,Chrome 128.0.0.0,1926x945,1920x942,Temporal Distance Task,cb_03,82.0,temp_dist_trial,num_items,zn7si1,1.0,response,1_ITEM,980.0999999999768,967.0999999999768,980.0999999999768,980.0999999999768,967.0999999999768,980.0999999999768,1.0,0.0,0.0,,Click Response,1_count,3.0,object-46,temp_dist_trial,34.0,t_s_21_1,travel_shared,umbrella,3.0,competing,paired,t_s_21_1.jpg,Travel,,,sub-53
Desktop or Laptop,Mac OS 10.15.7,Chrome 128.0.0.0,1926x945,1920x942,Temporal Distance Task,cb_03,83.0,temp_dist_trial,num_items,zn7si1,1.0,response,1_ITEM,940.5000000119327,934.7000000000116,940.5000000119327,940.5000000119327,934.7000000000116,940.5000000119327,1.0,0.0,0.0,,Click Response,1_count,3.0,object-46,temp_dist_trial,35.0,t_i_03_1,travel_Iceland,winter jacket,3.0,unique,paired,t_i_03_1.jpg,Travel,,,sub-53
Desktop or Laptop,Mac OS 10.15.7,Chrome 128.0.0.0,1926x945,1920x942,Temporal Distance Task,cb_03,84.0,temp_dist_trial,num_items,zn7si1,1.0,response,2_ITEM,1003.000000047672,1001.0,1003.000000047672,1003.000000047672,1001.0,1003.000000047672,1.0,0.0,0.0,,Click Response,2_count,5.0,object-49,temp_dist_trial,36.0,t_m_12_1,travel_Miami,foldable pail and shovel,3.0,unique,paired,t_m_12_1.jpg,Travel,,,sub-53
Desktop or Laptop,Mac OS 10.15.7,Chrome 128.0.0.0,1926x945,1920x942,Temporal Distance Task,cb_03,84.0,temp_dist_trial,dist_items,qkpkxw,2.0,info,,7.900000035762787,0.0,7.900000035762787,7.900000035762787,0.0,7.900000035762787,1.0,0.0,0.0,,Slider,Slider,4.0,object-56,temp_dist_trial,36.0,t_m_12_1,travel_Miami,foldable pail and shovel,3.0,unique,paired,t_m_12_1.jpg,Travel,,,sub-53
Desktop or Laptop,Mac OS 10.15.7,Chrome 128.0.0.0,1926x945,1920x942,Temporal Distance Task,cb_03,84.0,temp_dist_trial,dist_items,qkpkxw,2.0,continue,,1876.8000000119207,1869.9000000000235,1876.8000000119207,1876.8000000119207,1869.9000000000235,1876.8000000119207,1.0,0.0,0.0,,Click To Continue,Next button,7.0,object-60,temp_dist_trial,36.0,t_m_12_1,travel_Miami,foldable pail and shovel,3.0,unique,paired,t_m_12_1.jpg,Travel,,,sub-53
Desktop or Laptop,Mac OS 10.15.7,Chrome 128.0.0.0,1926x945,1920x942,Temporal Distance Task,cb_03,84.0,temp_dist_trial,dist_items,qkpkxw,2.0,response,37,1085.5,1869.9000000000235,1880.8000000119207,1085.5,1869.9000000000235,1880.8000000119207,1.0,795.3000000119209,0.0,,Slider,Slider,4.0,object-56,temp_dist_trial,36.0,t_m_12_1,travel_Miami,foldable pail and shovel,3.0,unique,paired,t_m_12_1.jpg,Travel,,,sub-53
Desktop or Laptop,Mac OS 10.15.7,Chrome 128.0.0.0,1926x945,1920x942,Temporal Distance Task,cb_03,85.0,temp_dist_trial,num_items,zn7si1,1.0,response,1_ITEM,1004.9000000118975,1000.1999999999533,1004.9000000118975,1004.9000000118975,1000.1999999999533,1004.9000000118975,1.0,0.0,0.0,,Click Response,1_count,3.0,object-46,temp_dist_trial,37.0,t_i_10_1,travel_Iceland,trekking poles,3.0,unique,single,t_i_10_1.jpg,Travel,,,sub-53
Desktop or Laptop,Mac OS 10.15.7,Chrome 128.0.0.0,1926x945,1920x942,Temporal Distance Task,cb_03,86.0,temp_dist_trial,num_items,zn7si1,1.0,response,1_ITEM,1346.300000035786,1334.600000000035,1346.300000035786,1346.300000035786,1334.600000000035,1346.300000035786,1.0,0.0,0.0,,Click Response,1_count,3.0,object-46,temp_dist_trial,38.0,t_s_10_1,travel_shared,luggage lock,3.0,competing,paired,t_s_10_1.jpg,Travel,,,sub-53
Desktop or Laptop,Mac OS 10.15.7,Chrome 128.0.0.0,1926x945,1920x942,Temporal Distance Task,cb_03,87.0,temp_dist_trial,num_items,zn7si1,1.0,response,1_ITEM,734.0000000000583,717.3000000000467,734.0000000000583,734.0000000000583,717.3000000000467,734.0000000000583,1.0,0.0,0.0,,Click Response,1_count,3.0,object-46,temp_dist_trial,39.0,t_i_02_1,travel_Iceland,scarf,3.0,unique,paired,t_i_02_1.jpg,Travel,,,sub-53
Desktop or Laptop,Mac OS 10.15.7,Chrome 128.0.0.0,1926x945,1920x942,Temporal Distance Task,cb_03,88.0,temp_dist_trial,num_items,zn7si1,1.0,response,1_ITEM,998.6000000477072,984.4000000000232,998.6000000477072,998.6000000477072,984.4000000000232,998.6000000477072,1.0,0.0,0.0,,Click Response,1_count,3.0,object-46,temp_dist_trial,40.0,t_i_07_1,travel_Iceland,hiking backpack,3.0,unique,paired,t_i_07_1.jpg,Travel,,,sub-53
Desktop or Laptop,Mac OS 10.15.7,Chrome 128.0.0.0,1926x945,1920x942,Temporal Distance Task,cb_03,89.0,temp_dist_trial,num_items,zn7si1,1.0,response,2_ITEM,1301.2000000000114,1285.7000000000114,1301.2000000000114,1301.2000000000114,1285.7000000000114,1301.2000000000114,1.0,0.0,0.0,,Click Response,2_count,5.0,object-49,temp_dist_trial,41.0,t_i_05_1,travel_Iceland,hiking boots,3.0,unique,paired,t_i_05_1.jpg,Travel,,,sub-53
Desktop or Laptop,Mac OS 10.15.7,Chrome 128.0.0.0,1926x945,1920x942,Temporal Distance Task,cb_03,89.0,temp_dist_trial,dist_items,qkpkxw,2.0,info,,7.000000023865143,0.0,7.000000023865143,7.000000023865143,0.0,7.000000023865143,1.0,0.0,0.0,,Slider,Slider,4.0,object-56,temp_dist_trial,41.0,t_i_05_1,travel_Iceland,hiking boots,3.0,unique,paired,t_i_05_1.jpg,Travel,,,sub-53
Desktop or Laptop,Mac OS 10.15.7,Chrome 128.0.0.0,1926x945,1920x942,Temporal Distance Task,cb_03,89.0,temp_dist_trial,dist_items,qkpkxw,2.0,continue,,2185.2999999999884,2168.5,2185.2999999999884,2185.2999999999884,2168.5,2185.2999999999884,1.0,0.0,0.0,,Click To Continue,Next button,7.0,object-60,temp_dist_trial,41.0,t_i_05_1,travel_Iceland,hiking boots,3.0,unique,paired,t_i_05_1.jpg,Travel,,,sub-53
Desktop or Laptop,Mac OS 10.15.7,Chrome 128.0.0.0,1926x945,1920x942,Temporal Distance Task,cb_03,89.0,temp_dist_trial,dist_items,qkpkxw,2.0,response,54,1585.3000000000463,2168.5,2185.2999999999884,1585.3000000000463,2168.5,2185.2999999999884,1.0,599.9999999999418,0.0,,Slider,Slider,4.0,object-56,temp_dist_trial,41.0,t_i_05_1,travel_Iceland,hiking boots,3.0,unique,paired,t_i_05_1.jpg,Travel,,,sub-53
Desktop or Laptop,Mac OS 10.15.7,Chrome 128.0.0.0,1926x945,1920x942,Temporal Distance Task,cb_03,90.0,temp_dist_trial,num_items,zn7si1,1.0,response,1_ITEM,895.7000000119443,884.4000000000232,895.7000000119443,895.7000000119443,884.4000000000232,895.7000000119443,1.0,0.0,0.0,,Click Response,1_count,3.0,object-46,temp_dist_trial,42.0,t_s_18_1,travel_shared,first aid kit,3.0,competing,single,t_s_18_1.jpg,Travel,,,sub-53
Desktop or Laptop,Mac OS 10.15.7,Chrome 128.0.0.0,1926x945,1920x942,Temporal Distance Task,cb_03,91.0,temp_dist_trial,num_items,zn7si1,1.0,response,2_ITEM,1082.5,1067.2000000000116,1082.5,1082.5,1067.2000000000116,1082.5,1.0,0.0,0.0,,Click Response,2_count,5.0,object-49,temp_dist_trial,43.0,t_s_12_1,travel_shared,clear toiletry bag,3.0,competing,paired,t_s_12_1.jpg,Travel,,,sub-53
Desktop or Laptop,Mac OS 10.15.7,Chrome 128.0.0.0,1926x945,1920x942,Temporal Distance Task,cb_03,91.0,temp_dist_trial,dist_items,qkpkxw,2.0,info,,6.100000011909287,0.0,6.100000011909287,6.100000011909287,0.0,6.100000011909287,1.0,0.0,0.0,,Slider,Slider,4.0,object-56,temp_dist_trial,43.0,t_s_12_1,travel_shared,clear toiletry bag,3.0,competing,paired,t_s_12_1.jpg,Travel,,,sub-53
Desktop or Laptop,Mac OS 10.15.7,Chrome 128.0.0.0,1926x945,1920x942,Temporal Distance Task,cb_03,91.0,temp_dist_trial,dist_items,qkpkxw,2.0,continue,,1509.2000000357516,1501.5999999999767,1509.2000000357516,1509.2000000357516,1501.5999999999767,1509.2000000357516,1.0,0.0,0.0,,Click To Continue,Next button,7.0,object-60,temp_dist_trial,43.0,t_s_12_1,travel_shared,clear toiletry bag,3.0,competing,paired,t_s_12_1.jpg,Travel,,,sub-53
Desktop or Laptop,Mac OS 10.15.7,Chrome 128.0.0.0,1926x945,1920x942,Temporal Distance Task,cb_03,91.0,temp_dist_trial,dist_items,qkpkxw,2.0,response,40,835.0999999999768,1501.5999999999767,1509.6000000119093,835.0999999999768,1501.5999999999767,1509.6000000119093,1.0,674.5000000119326,0.0,,Slider,Slider,4.0,object-56,temp_dist_trial,43.0,t_s_12_1,travel_shared,clear toiletry bag,3.0,competing,paired,t_s_12_1.jpg,Travel,,,sub-53
Desktop or Laptop,Mac OS 10.15.7,Chrome 128.0.0.0,1926x945,1920x942,Temporal Distance Task,cb_03,92.0,temp_dist_trial,num_items,zn7si1,1.0,response,2_ITEM,1341.5000000119326,1334.9000000000233,1341.5000000119326,1341.5000000119326,1334.9000000000233,1341.5000000119326,1.0,0.0,0.0,,Click Response,2_count,5.0,object-49,temp_dist_trial,44.0,t_s_09_1,travel_shared,wallet,3.0,competing,paired,t_s_09_1.jpg,Travel,,,sub-53
Desktop or Laptop,Mac OS 10.15.7,Chrome 128.0.0.0,1926x945,1920x942,Temporal Distance Task,cb_03,92.0,temp_dist_trial,dist_items,qkpkxw,2.0,info,,7.200000035751144,0.0,7.200000035751144,7.200000035751144,0.0,7.200000035751144,1.0,0.0,0.0,,Slider,Slider,4.0,object-56,temp_dist_trial,44.0,t_s_09_1,travel_shared,wallet,3.0,competing,paired,t_s_09_1.jpg,Travel,,,sub-53
Desktop or Laptop,Mac OS 10.15.7,Chrome 128.0.0.0,1926x945,1920x942,Temporal Distance Task,cb_03,92.0,temp_dist_trial,dist_items,qkpkxw,2.0,continue,,1363.2000000357511,1351.399999999965,1363.2000000357511,1363.2000000357511,1351.399999999965,1363.2000000357511,1.0,0.0,0.0,,Click To Continue,Next button,7.0,object-60,temp_dist_trial,44.0,t_s_09_1,travel_shared,wallet,3.0,competing,paired,t_s_09_1.jpg,Travel,,,sub-53
Desktop or Laptop,Mac OS 10.15.7,Chrome 128.0.0.0,1926x945,1920x942,Temporal Distance Task,cb_03,92.0,temp_dist_trial,dist_items,qkpkxw,2.0,response,35,734.5,1351.399999999965,1363.500000047672,734.5,1351.399999999965,1363.500000047672,1.0,629.0000000476721,0.0,,Slider,Slider,4.0,object-56,temp_dist_trial,44.0,t_s_09_1,travel_shared,wallet,3.0,competing,paired,t_s_09_1.jpg,Travel,,,sub-53
Desktop or Laptop,Mac OS 10.15.7,Chrome 128.0.0.0,1926x945,1920x942,Temporal Distance Task,cb_03,93.0,temp_dist_trial,num_items,zn7si1,1.0,response,1_ITEM,957.4000000000232,952.0,957.4000000000232,957.4000000000232,952.0,957.4000000000232,1.0,0.0,0.0,,Click Response,1_count,3.0,object-46,temp_dist_trial,45.0,t_i_08_1,travel_Iceland,thick socks,3.0,unique,single,t_i_08_1.jpg,Travel,,,sub-53
Desktop or Laptop,Mac OS 10.15.7,Chrome 128.0.0.0,1926x945,1920x942,Temporal Distance Task,cb_03,94.0,temp_dist_trial,num_items,zn7si1,1.0,response,1_ITEM,1268.7000000000114,1267.2000000000114,1268.7000000000114,1268.7000000000114,1267.2000000000114,1268.7000000000114,1.0,0.0,0.0,,Click Response,1_count,3.0,object-46,temp_dist_trial,46.0,t_m_02_1,travel_Miami,t-shirt,3.0,unique,paired,t_m_02_1.jpg,Travel,,,sub-53
Desktop or Laptop,Mac OS 10.15.7,Chrome 128.0.0.0,1926x945,1920x942,Temporal Distance Task,cb_03,95.0,temp_dist_trial,num_items,zn7si1,1.0,response,2_ITEM,1279.300000035786,1268.100000000035,1279.300000035786,1279.300000035786,1268.100000000035,1279.300000035786,1.0,0.0,0.0,,Click Response,2_count,5.0,object-49,temp_dist_trial,47.0,t_s_02_1,travel_shared,water bottle,3.0,competing,paired,t_s_02_1.jpg,Travel,,,sub-53
Desktop or Laptop,Mac OS 10.15.7,Chrome 128.0.0.0,1926x945,1920x942,Temporal Distance Task,cb_03,95.0,temp_dist_trial,dist_items,qkpkxw,2.0,info,,6.200000023818575,0.0,6.200000023818575,6.200000023818575,0.0,6.200000023818575,1.0,0.0,0.0,,Slider,Slider,4.0,object-56,temp_dist_trial,47.0,t_s_02_1,travel_shared,water bottle,3.0,competing,paired,t_s_02_1.jpg,Travel,,,sub-53
Desktop or Laptop,Mac OS 10.15.7,Chrome 128.0.0.0,1926x945,1920x942,Temporal Distance Task,cb_03,95.0,temp_dist_trial,dist_items,qkpkxw,2.0,continue,,2200.2000000238186,2185.5999999999767,2200.2000000238186,2200.2000000238186,2185.5999999999767,2200.2000000238186,1.0,0.0,0.0,,Click To Continue,Next button,7.0,object-60,temp_dist_trial,47.0,t_s_02_1,travel_shared,water bottle,3.0,competing,paired,t_s_02_1.jpg,Travel,,,sub-53
Desktop or Laptop,Mac OS 10.15.7,Chrome 128.0.0.0,1926x945,1920x942,Temporal Distance Task,cb_03,95.0,temp_dist_trial,dist_items,qkpkxw,2.0,response,44,1401.6999999999537,2185.5999999999767,2202.1999999999534,1401.6999999999537,2185.5999999999767,2202.1999999999534,1.0,800.5,0.0,,Slider,Slider,4.0,object-56,temp_dist_trial,47.0,t_s_02_1,travel_shared,water bottle,3.0,competing,paired,t_s_02_1.jpg,Travel,,,sub-53
Desktop or Laptop,Mac OS 10.15.7,Chrome 128.0.0.0,1926x945,1920x942,Temporal Distance Task,cb_03,96.0,temp_dist_trial,num_items,zn7si1,1.0,response,2_ITEM,1568.2000000000698,1551.4000000000233,1568.2000000000698,1568.2000000000698,1551.4000000000233,1568.2000000000698,1.0,0.0,0.0,,Click Response,2_count,5.0,object-49,temp_dist_trial,48.0,t_s_04_1,travel_shared,instant camera,3.0,competing,paired,t_s_04_1.jpg,Travel,,,sub-53
Desktop or Laptop,Mac OS 10.15.7,Chrome 128.0.0.0,1926x945,1920x942,Temporal Distance Task,cb_03,96.0,temp_dist_trial,dist_items,qkpkxw,2.0,info,,9.8000000238535,0.0,9.8000000238535,9.8000000238535,0.0,9.8000000238535,1.0,0.0,0.0,,Slider,Slider,4.0,object-56,temp_dist_trial,48.0,t_s_04_1,travel_shared,instant camera,3.0,competing,paired,t_s_04_1.jpg,Travel,,,sub-53
Desktop or Laptop,Mac OS 10.15.7,Chrome 128.0.0.0,1926x945,1920x942,Temporal Distance Task,cb_03,96.0,temp_dist_trial,dist_items,qkpkxw,2.0,continue,,2053.700000000012,2052.2999999999884,2053.700000000012,2053.700000000012,2052.2999999999884,2053.700000000012,1.0,0.0,0.0,,Click To Continue,Next button,7.0,object-60,temp_dist_trial,48.0,t_s_04_1,travel_shared,instant camera,3.0,competing,paired,t_s_04_1.jpg,Travel,,,sub-53
Desktop or Laptop,Mac OS 10.15.7,Chrome 128.0.0.0,1926x945,1920x942,Temporal Distance Task,cb_03,96.0,temp_dist_trial,dist_items,qkpkxw,2.0,response,44,1317.5,2052.2999999999884,2054.1000000357744,1317.5,2052.2999999999884,2054.1000000357744,1.0,736.6000000357744,0.0,,Slider,Slider,4.0,object-56,temp_dist_trial,48.0,t_s_04_1,travel_shared,instant camera,3.0,competing,paired,t_s_04_1.jpg,Travel,,,sub-53
Desktop or Laptop,Mac OS 10.15.7,Chrome 128.0.0.0,1926x945,1920x942,Temporal Distance Task,$${counterbalance_group},,,,,,info,END,,,370404.0,,,,0.0,,,,,,,,,,,,,,,,,,,,sub-53
