Participant Device,Participant OS,Participant Browser,Participant Monitor Size,Participant Viewport Size,Task Name,Current Spreadsheet,Trial Number,Display,Screen,Screen ID,Screen Counter,Response Type,Response,Onset Time,Clock Time,Reaction Time,Absolute Onset Time,Absolute Clock Time,Absolute Reaction Time,Correct,Response Duration,Proportion,Tag,Component Name,Object Name,Object Number,Object ID,Spreadsheet: display,Spreadsheet: trial,Spreadsheet: stimulus_id,Spreadsheet: expected_goal,Spreadsheet: stimulus_name,Spreadsheet: c_group,Spreadsheet: condition,Spreadsheet: paired_status,Spreadsheet: stimulus_path,Spreadsheet: block_type,Manipulation: Spreadsheet,Store: enc_test_acc,sub_label
Desktop or Laptop,Windows 10,Chrome 138.0.0.0,1920x1080,941x944,Temporal Distance Task,$${counterbalance_group},,,,,,info,BEGIN,,,,,,,0.0,,,,,,,,,,,,,,,,,,,,sub-36
Desktop or Laptop,Windows 10,Chrome 138.0.0.0,1920x1080,941x944,Temporal Distance Task,cb_09,1.0,temp_instructions,intro_screen,3tnme7,1.0,continue,,7898.800000095367,7895.799999999997,7898.800000095367,7898.800000095367,7895.799999999997,7898.800000095367,1.0,0.0,0.0,,Click To Continue,Continue Button,4.0,object-29,temp_instructions,,,Student,,,,,,,,,sub-36
Desktop or Laptop,Windows 10,Chrome 138.0.0.0,1920x1080,941x944,Temporal Distance Task,cb_09,1.0,temp_instructions,intro_screen_2,52v7ur,2.0,continue,,11190.800000047682,11187.6,11190.800000047682,11190.800000047682,11187.6,11190.800000047682,1.0,0.0,0.0,,Click To Continue,Continue Button,4.0,object-39,temp_instructions,,,Student,,,,,,,,,sub-36
Desktop or Laptop,Windows 10,Chrome 138.0.0.0,1920x1080,941x944,Temporal Distance Task,cb_09,1.0,temp_instructions,intro_screen_3,i7lvwx,3.0,continue,,2134.100000023842,2132.0,2134.100000023842,2134.100000023842,2132.0,2134.100000023842,1.0,0.0,0.0,,Click To Continue,Continue Button,4.0,object-67,temp_instructions,,,Student,,,,,,,,,sub-36
Desktop or Laptop,Windows 10,Chrome 138.0.0.0,1920x1080,941x944,Temporal Distance Task,cb_09,1.0,temp_instructions,test_q1,5ieqx1,4.0,response,choice_3,7094.5,7090.0,7094.5,7094.5,7090.0,7094.5,1.0,0.0,0.0,,Click Response,choice_3,5.0,object-345,temp_instructions,,,Student,,,,,,,,,sub-36
Desktop or Laptop,Windows 10,Chrome 138.0.0.0,1920x1080,941x944,Temporal Distance Task,cb_09,1.0,temp_instructions,score_corr,7ilvjr,5.0,continue,,1016.5,1014.2000000000007,1016.5,1016.5,1014.2000000000007,1016.5,1.0,0.0,0.0,,Click To Continue,Continue Button,3.0,object-23,temp_instructions,,,Student,,,,,,,,,sub-36
Desktop or Laptop,Windows 10,Chrome 138.0.0.0,1920x1080,941x944,Temporal Distance Task,cb_09,1.0,temp_eventStart,Screen 1,dgtyxe,1.0,continue,,3109.2000000953667,3104.200000000001,3109.2000000953667,3109.2000000953667,3104.200000000001,3109.2000000953667,1.0,0.0,0.0,,Click To Continue,Next Button,3.0,object-43,temp_eventStart,,,Student,,,,,,,,,sub-36
Desktop or Laptop,Windows 10,Chrome 138.0.0.0,1920x1080,941x944,Temporal Distance Task,cb_09,1.0,temp_dist_trial,num_items,zn7si1,1.0,response,2_ITEM,1847.0999999999985,1840.299999999996,1847.0999999999985,1847.0999999999985,1840.299999999996,1847.0999999999985,1.0,0.0,0.0,,Click Response,2_count,5.0,object-49,temp_dist_trial,1.0,s_a_05_1,student_art,clay,9.0,unique,paired,s_a_05_1.jpg,Student,,,sub-36
Desktop or Laptop,Windows 10,Chrome 138.0.0.0,1920x1080,941x944,Temporal Distance Task,cb_09,1.0,temp_dist_trial,dist_items,qkpkxw,2.0,info,,3.000000071522664,0.0,3.000000071522664,3.000000071522664,0.0,3.000000071522664,1.0,0.0,0.0,,Slider,Slider,4.0,object-56,temp_dist_trial,1.0,s_a_05_1,student_art,clay,9.0,unique,paired,s_a_05_1.jpg,Student,,,sub-36
Desktop or Laptop,Windows 10,Chrome 138.0.0.0,1920x1080,941x944,Temporal Distance Task,cb_09,1.0,temp_dist_trial,dist_items,qkpkxw,2.0,continue,,2597.199999999997,2590.5999999999985,2597.199999999997,2597.199999999997,2590.5999999999985,2597.199999999997,1.0,0.0,0.0,,Click To Continue,Next button,7.0,object-60,temp_dist_trial,1.0,s_a_05_1,student_art,clay,9.0,unique,paired,s_a_05_1.jpg,Student,,,sub-36
Desktop or Laptop,Windows 10,Chrome 138.0.0.0,1920x1080,941x944,Temporal Distance Task,cb_09,1.0,temp_dist_trial,dist_items,qkpkxw,2.0,response,76,1229.3999999999942,2590.5999999999985,2597.5,1229.3999999999942,2590.5999999999985,2597.5,1.0,1368.1000000000058,0.0,,Slider,Slider,4.0,object-56,temp_dist_trial,1.0,s_a_05_1,student_art,clay,9.0,unique,paired,s_a_05_1.jpg,Student,,,sub-36
Desktop or Laptop,Windows 10,Chrome 138.0.0.0,1920x1080,941x944,Temporal Distance Task,cb_09,2.0,temp_dist_trial,num_items,zn7si1,1.0,response,1_ITEM,1600.5999999999985,1597.2999999999954,1600.5999999999985,1600.5999999999985,1597.2999999999954,1600.5999999999985,1.0,0.0,0.0,,Click Response,1_count,3.0,object-46,temp_dist_trial,2.0,s_sh_23_1,student_shared,ballpoint pen,9.0,competing,single,s_sh_23_1.jpg,Student,,,sub-36
Desktop or Laptop,Windows 10,Chrome 138.0.0.0,1920x1080,941x944,Temporal Distance Task,cb_09,3.0,temp_dist_trial,num_items,zn7si1,1.0,response,1_ITEM,2650.900000071524,2646.0999999999985,2650.900000071524,2650.900000071524,2646.0999999999985,2650.900000071524,1.0,0.0,0.0,,Click Response,1_count,3.0,object-46,temp_dist_trial,3.0,s_s_11_1,student_stem,scientific scale,9.0,unique,single,s_s_11_1.jpg,Student,,,sub-36
Desktop or Laptop,Windows 10,Chrome 138.0.0.0,1920x1080,941x944,Temporal Distance Task,cb_09,4.0,temp_dist_trial,num_items,zn7si1,1.0,response,1_ITEM,2188.8000000715256,2187.5,2188.8000000715256,2188.8000000715256,2187.5,2188.8000000715256,1.0,0.0,0.0,,Click Response,1_count,3.0,object-46,temp_dist_trial,4.0,s_sh_16_1,student_shared,stapler,9.0,competing,single,s_sh_16_1.jpg,Student,,,sub-36
Desktop or Laptop,Windows 10,Chrome 138.0.0.0,1920x1080,941x944,Temporal Distance Task,cb_09,5.0,temp_dist_trial,num_items,zn7si1,1.0,response,2_ITEM,1010.3000000715256,1006.9000000000017,1010.3000000715256,1010.3000000715256,1006.9000000000017,1010.3000000715256,1.0,0.0,0.0,,Click Response,2_count,5.0,object-49,temp_dist_trial,5.0,s_sh_01_1,student_shared,notebook,9.0,competing,paired,s_sh_01_1.jpg,Student,,,sub-36
Desktop or Laptop,Windows 10,Chrome 138.0.0.0,1920x1080,941x944,Temporal Distance Task,cb_09,5.0,temp_dist_trial,dist_items,qkpkxw,2.0,info,,2.3000000715255737,0.0,2.3000000715255737,2.3000000715255737,0.0,2.3000000715255737,1.0,0.0,0.0,,Slider,Slider,4.0,object-56,temp_dist_trial,5.0,s_sh_01_1,student_shared,notebook,9.0,competing,paired,s_sh_01_1.jpg,Student,,,sub-36
Desktop or Laptop,Windows 10,Chrome 138.0.0.0,1920x1080,941x944,Temporal Distance Task,cb_09,5.0,temp_dist_trial,dist_items,qkpkxw,2.0,continue,,3907.400000095368,3902.5,3907.400000095368,3907.400000095368,3902.5,3907.400000095368,1.0,0.0,0.0,,Click To Continue,Next button,7.0,object-60,temp_dist_trial,5.0,s_sh_01_1,student_shared,notebook,9.0,competing,paired,s_sh_01_1.jpg,Student,,,sub-36
Desktop or Laptop,Windows 10,Chrome 138.0.0.0,1920x1080,941x944,Temporal Distance Task,cb_09,5.0,temp_dist_trial,dist_items,qkpkxw,2.0,response,61,583.3000000000029,3902.5,3907.7000000476837,583.3000000000029,3902.5,3907.7000000476837,1.0,3324.4000000476813,0.0,,Slider,Slider,4.0,object-56,temp_dist_trial,5.0,s_sh_01_1,student_shared,notebook,9.0,competing,paired,s_sh_01_1.jpg,Student,,,sub-36
Desktop or Laptop,Windows 10,Chrome 138.0.0.0,1920x1080,941x944,Temporal Distance Task,cb_09,6.0,temp_dist_trial,num_items,zn7si1,1.0,response,1_ITEM,2348.9000000953674,2347.5,2348.9000000953674,2348.9000000953674,2347.5,2348.9000000953674,1.0,0.0,0.0,,Click Response,1_count,3.0,object-46,temp_dist_trial,6.0,s_sh_19_1,student_shared,portable plastic drawer,9.0,competing,single,s_sh_19_1.jpg,Student,,,sub-36
Desktop or Laptop,Windows 10,Chrome 138.0.0.0,1920x1080,941x944,Temporal Distance Task,cb_09,7.0,temp_dist_trial,num_items,zn7si1,1.0,response,1_ITEM,1490.5,1486.1999999999966,1490.5,1490.5,1486.1999999999966,1490.5,1.0,0.0,0.0,,Click Response,1_count,3.0,object-46,temp_dist_trial,7.0,s_sh_21_1,student_shared,file holder,9.0,competing,single,s_sh_21_1.jpg,Student,,,sub-36
Desktop or Laptop,Windows 10,Chrome 138.0.0.0,1920x1080,941x944,Temporal Distance Task,cb_09,8.0,temp_dist_trial,num_items,zn7si1,1.0,response,2_ITEM,1000.2999999999955,993.2999999999955,1000.2999999999955,1000.2999999999955,993.2999999999955,1000.2999999999955,1.0,0.0,0.0,,Click Response,2_count,5.0,object-49,temp_dist_trial,8.0,s_a_18_1,student_art,tutu,9.0,unique,paired,s_a_18_1.jpg,Student,,,sub-36
Desktop or Laptop,Windows 10,Chrome 138.0.0.0,1920x1080,941x944,Temporal Distance Task,cb_09,8.0,temp_dist_trial,dist_items,qkpkxw,2.0,info,,2.100000071528484,0.0,2.100000071528484,2.100000071528484,0.0,2.100000071528484,1.0,0.0,0.0,,Slider,Slider,4.0,object-56,temp_dist_trial,8.0,s_a_18_1,student_art,tutu,9.0,unique,paired,s_a_18_1.jpg,Student,,,sub-36
Desktop or Laptop,Windows 10,Chrome 138.0.0.0,1920x1080,941x944,Temporal Distance Task,cb_09,8.0,temp_dist_trial,dist_items,qkpkxw,2.0,continue,,2033.6000000715287,2027.8000000000034,2033.6000000715287,2033.6000000715287,2027.8000000000034,2033.6000000715287,1.0,0.0,0.0,,Click To Continue,Next button,7.0,object-60,temp_dist_trial,8.0,s_a_18_1,student_art,tutu,9.0,unique,paired,s_a_18_1.jpg,Student,,,sub-36
Desktop or Laptop,Windows 10,Chrome 138.0.0.0,1920x1080,941x944,Temporal Distance Task,cb_09,8.0,temp_dist_trial,dist_items,qkpkxw,2.0,response,37,722.2000000000045,2027.8000000000034,2034.0000000476864,722.2000000000045,2027.8000000000034,2034.0000000476864,1.0,1311.8000000476825,0.0,,Slider,Slider,4.0,object-56,temp_dist_trial,8.0,s_a_18_1,student_art,tutu,9.0,unique,paired,s_a_18_1.jpg,Student,,,sub-36
Desktop or Laptop,Windows 10,Chrome 138.0.0.0,1920x1080,941x944,Temporal Distance Task,cb_09,9.0,temp_dist_trial,num_items,zn7si1,1.0,response,2_ITEM,1384.4000000953674,1381.9000000000015,1384.4000000953674,1384.4000000953674,1381.9000000000015,1384.4000000953674,1.0,0.0,0.0,,Click Response,2_count,5.0,object-49,temp_dist_trial,9.0,s_s_07_1,student_stem,periodic table,9.0,unique,paired,s_s_07_1.jpg,Student,,,sub-36
Desktop or Laptop,Windows 10,Chrome 138.0.0.0,1920x1080,941x944,Temporal Distance Task,cb_09,9.0,temp_dist_trial,dist_items,qkpkxw,2.0,info,,2.0,0.0,2.0,2.0,0.0,2.0,1.0,0.0,0.0,,Slider,Slider,4.0,object-56,temp_dist_trial,9.0,s_s_07_1,student_stem,periodic table,9.0,unique,paired,s_s_07_1.jpg,Student,,,sub-36
Desktop or Laptop,Windows 10,Chrome 138.0.0.0,1920x1080,941x944,Temporal Distance Task,cb_09,9.0,temp_dist_trial,dist_items,qkpkxw,2.0,continue,,1583.8000000715256,1583.0,1583.8000000715256,1583.8000000715256,1583.0,1583.8000000715256,1.0,0.0,0.0,,Click To Continue,Next button,7.0,object-60,temp_dist_trial,9.0,s_s_07_1,student_stem,periodic table,9.0,unique,paired,s_s_07_1.jpg,Student,,,sub-36
Desktop or Laptop,Windows 10,Chrome 138.0.0.0,1920x1080,941x944,Temporal Distance Task,cb_09,9.0,temp_dist_trial,dist_items,qkpkxw,2.0,response,28,465.1999999999971,1583.0,1584.1000000238419,465.1999999999971,1583.0,1584.1000000238419,1.0,1118.9000000238448,0.0,,Slider,Slider,4.0,object-56,temp_dist_trial,9.0,s_s_07_1,student_stem,periodic table,9.0,unique,paired,s_s_07_1.jpg,Student,,,sub-36
Desktop or Laptop,Windows 10,Chrome 138.0.0.0,1920x1080,941x944,Temporal Distance Task,cb_09,10.0,temp_dist_trial,num_items,zn7si1,1.0,response,1_ITEM,1006.4000000953674,1000.3000000000028,1006.4000000953674,1006.4000000953674,1000.3000000000028,1006.4000000953674,1.0,0.0,0.0,,Click Response,1_count,3.0,object-46,temp_dist_trial,10.0,s_sh_02_1,student_shared,eraser,9.0,competing,single,s_sh_02_1.jpg,Student,,,sub-36
Desktop or Laptop,Windows 10,Chrome 138.0.0.0,1920x1080,941x944,Temporal Distance Task,cb_09,11.0,temp_dist_trial,num_items,zn7si1,1.0,response,2_ITEM,1387.6000000238419,1382.1999999999966,1387.6000000238419,1387.6000000238419,1382.1999999999966,1387.6000000238419,1.0,0.0,0.0,,Click Response,2_count,5.0,object-49,temp_dist_trial,11.0,s_sh_06_1,student_shared,clipboard,9.0,competing,paired,s_sh_06_1.jpg,Student,,,sub-36
Desktop or Laptop,Windows 10,Chrome 138.0.0.0,1920x1080,941x944,Temporal Distance Task,cb_09,11.0,temp_dist_trial,dist_items,qkpkxw,2.0,info,,2.100000071528484,0.0,2.100000071528484,2.100000071528484,0.0,2.100000071528484,1.0,0.0,0.0,,Slider,Slider,4.0,object-56,temp_dist_trial,11.0,s_sh_06_1,student_shared,clipboard,9.0,competing,paired,s_sh_06_1.jpg,Student,,,sub-36
Desktop or Laptop,Windows 10,Chrome 138.0.0.0,1920x1080,941x944,Temporal Distance Task,cb_09,11.0,temp_dist_trial,dist_items,qkpkxw,2.0,continue,,1601.4000000238445,1597.3000000000034,1601.4000000238445,1601.4000000238445,1597.3000000000034,1601.4000000238445,1.0,0.0,0.0,,Click To Continue,Next button,7.0,object-60,temp_dist_trial,11.0,s_sh_06_1,student_shared,clipboard,9.0,competing,paired,s_sh_06_1.jpg,Student,,,sub-36
Desktop or Laptop,Windows 10,Chrome 138.0.0.0,1920x1080,941x944,Temporal Distance Task,cb_09,11.0,temp_dist_trial,dist_items,qkpkxw,2.0,response,53,680.6000000000057,1597.3000000000034,1601.6000000715287,680.6000000000057,1597.3000000000034,1601.6000000715287,1.0,921.0000000715227,0.0,,Slider,Slider,4.0,object-56,temp_dist_trial,11.0,s_sh_06_1,student_shared,clipboard,9.0,competing,paired,s_sh_06_1.jpg,Student,,,sub-36
Desktop or Laptop,Windows 10,Chrome 138.0.0.0,1920x1080,941x944,Temporal Distance Task,cb_09,12.0,temp_dist_trial,num_items,zn7si1,1.0,response,2_ITEM,1220.2000000476835,1215.1999999999969,1220.2000000476835,1220.2000000476835,1215.1999999999969,1220.2000000476835,1.0,0.0,0.0,,Click Response,2_count,5.0,object-49,temp_dist_trial,12.0,s_sh_17_1,student_shared,wireless mouse,9.0,competing,paired,s_sh_17_1.jpg,Student,,,sub-36
Desktop or Laptop,Windows 10,Chrome 138.0.0.0,1920x1080,941x944,Temporal Distance Task,cb_09,12.0,temp_dist_trial,dist_items,qkpkxw,2.0,info,,2.1000000953645213,0.0,2.1000000953645213,2.1000000953645213,0.0,2.1000000953645213,1.0,0.0,0.0,,Slider,Slider,4.0,object-56,temp_dist_trial,12.0,s_sh_17_1,student_shared,wireless mouse,9.0,competing,paired,s_sh_17_1.jpg,Student,,,sub-36
Desktop or Laptop,Windows 10,Chrome 138.0.0.0,1920x1080,941x944,Temporal Distance Task,cb_09,12.0,temp_dist_trial,dist_items,qkpkxw,2.0,continue,,2323.900000047681,2319.0999999999913,2323.900000047681,2323.900000047681,2319.0999999999913,2323.900000047681,1.0,0.0,0.0,,Click To Continue,Next button,7.0,object-60,temp_dist_trial,12.0,s_sh_17_1,student_shared,wireless mouse,9.0,competing,paired,s_sh_17_1.jpg,Student,,,sub-36
Desktop or Laptop,Windows 10,Chrome 138.0.0.0,1920x1080,941x944,Temporal Distance Task,cb_09,12.0,temp_dist_trial,dist_items,qkpkxw,2.0,response,64,923.5,2319.0999999999913,2324.1000000953645,923.5,2319.0999999999913,2324.1000000953645,1.0,1400.6000000953643,0.0,,Slider,Slider,4.0,object-56,temp_dist_trial,12.0,s_sh_17_1,student_shared,wireless mouse,9.0,competing,paired,s_sh_17_1.jpg,Student,,,sub-36
Desktop or Laptop,Windows 10,Chrome 138.0.0.0,1920x1080,941x944,Temporal Distance Task,cb_09,13.0,temp_dist_trial,num_items,zn7si1,1.0,response,2_ITEM,1376.4000000715314,1375.3000000000034,1376.4000000715314,1376.4000000715314,1375.3000000000034,1376.4000000715314,1.0,0.0,0.0,,Click Response,2_count,5.0,object-49,temp_dist_trial,13.0,s_s_20_1,student_stem,dna model,9.0,unique,single,s_s_20_1.jpg,Student,,,sub-36
Desktop or Laptop,Windows 10,Chrome 138.0.0.0,1920x1080,941x944,Temporal Distance Task,cb_09,13.0,temp_dist_trial,dist_items,qkpkxw,2.0,info,,1.9000000953674319,0.0,1.9000000953674319,1.9000000953674319,0.0,1.9000000953674319,1.0,0.0,0.0,,Slider,Slider,4.0,object-56,temp_dist_trial,13.0,s_s_20_1,student_stem,dna model,9.0,unique,single,s_s_20_1.jpg,Student,,,sub-36
Desktop or Laptop,Windows 10,Chrome 138.0.0.0,1920x1080,941x944,Temporal Distance Task,cb_09,13.0,temp_dist_trial,dist_items,qkpkxw,2.0,continue,,3173.8999999999933,3166.8999999999933,3173.8999999999933,3173.8999999999933,3166.8999999999933,3173.8999999999933,1.0,0.0,0.0,,Click To Continue,Next button,7.0,object-60,temp_dist_trial,13.0,s_s_20_1,student_stem,dna model,9.0,unique,single,s_s_20_1.jpg,Student,,,sub-36
Desktop or Laptop,Windows 10,Chrome 138.0.0.0,1920x1080,941x944,Temporal Distance Task,cb_09,13.0,temp_dist_trial,dist_items,qkpkxw,2.0,response,29,944.6999999999972,3166.8999999999933,3173.8999999999933,944.6999999999972,3166.8999999999933,3173.8999999999933,1.0,2229.199999999997,0.0,,Slider,Slider,4.0,object-56,temp_dist_trial,13.0,s_s_20_1,student_stem,dna model,9.0,unique,single,s_s_20_1.jpg,Student,,,sub-36
Desktop or Laptop,Windows 10,Chrome 138.0.0.0,1920x1080,941x944,Temporal Distance Task,cb_09,14.0,temp_dist_trial,num_items,zn7si1,1.0,response,1_ITEM,1091.2000000238477,1090.3000000000031,1091.2000000238477,1091.2000000238477,1090.3000000000031,1091.2000000238477,1.0,0.0,0.0,,Click Response,1_count,3.0,object-46,temp_dist_trial,14.0,s_s_16_1,student_stem,toolbox,9.0,unique,single,s_s_16_1.jpg,Student,,,sub-36
Desktop or Laptop,Windows 10,Chrome 138.0.0.0,1920x1080,941x944,Temporal Distance Task,cb_09,15.0,temp_dist_trial,num_items,zn7si1,1.0,response,1_ITEM,1020.6999999999972,1013.8000000000028,1020.6999999999972,1020.6999999999972,1013.8000000000028,1020.6999999999972,1.0,0.0,0.0,,Click Response,1_count,3.0,object-46,temp_dist_trial,15.0,s_a_07_1,student_art,yarn,9.0,unique,single,s_a_07_1.jpg,Student,,,sub-36
Desktop or Laptop,Windows 10,Chrome 138.0.0.0,1920x1080,941x944,Temporal Distance Task,cb_09,16.0,temp_dist_trial,num_items,zn7si1,1.0,response,2_ITEM,948.8999999999942,944.3999999999942,948.8999999999942,948.8999999999942,944.3999999999942,948.8999999999942,1.0,0.0,0.0,,Click Response,2_count,5.0,object-49,temp_dist_trial,16.0,s_sh_13_1,student_shared,index cards,9.0,competing,paired,s_sh_13_1.jpg,Student,,,sub-36
Desktop or Laptop,Windows 10,Chrome 138.0.0.0,1920x1080,941x944,Temporal Distance Task,cb_09,16.0,temp_dist_trial,dist_items,qkpkxw,2.0,info,,2.1000000238418584,0.0,2.1000000238418584,2.1000000238418584,0.0,2.1000000238418584,1.0,0.0,0.0,,Slider,Slider,4.0,object-56,temp_dist_trial,16.0,s_sh_13_1,student_shared,index cards,9.0,competing,paired,s_sh_13_1.jpg,Student,,,sub-36
Desktop or Laptop,Windows 10,Chrome 138.0.0.0,1920x1080,941x944,Temporal Distance Task,cb_09,16.0,temp_dist_trial,dist_items,qkpkxw,2.0,continue,,1842.5,1840.3000000000034,1842.5,1842.5,1840.3000000000034,1842.5,1.0,0.0,0.0,,Click To Continue,Next button,7.0,object-60,temp_dist_trial,16.0,s_sh_13_1,student_shared,index cards,9.0,competing,paired,s_sh_13_1.jpg,Student,,,sub-36
Desktop or Laptop,Windows 10,Chrome 138.0.0.0,1920x1080,941x944,Temporal Distance Task,cb_09,16.0,temp_dist_trial,dist_items,qkpkxw,2.0,response,40,861.1999999999971,1840.3000000000034,1842.700000047684,861.1999999999971,1840.3000000000034,1842.700000047684,1.0,981.5000000476866,0.0,,Slider,Slider,4.0,object-56,temp_dist_trial,16.0,s_sh_13_1,student_shared,index cards,9.0,competing,paired,s_sh_13_1.jpg,Student,,,sub-36
Desktop or Laptop,Windows 10,Chrome 138.0.0.0,1920x1080,941x944,Temporal Distance Task,cb_09,17.0,temp_dist_trial,num_items,zn7si1,1.0,response,2_ITEM,1349.300000023839,1347.1999999999969,1349.300000023839,1349.300000023839,1347.1999999999969,1349.300000023839,1.0,0.0,0.0,,Click Response,2_count,5.0,object-49,temp_dist_trial,17.0,s_a_17_1,student_art,microphone,9.0,unique,paired,s_a_17_1.jpg,Student,,,sub-36
Desktop or Laptop,Windows 10,Chrome 138.0.0.0,1920x1080,941x944,Temporal Distance Task,cb_09,17.0,temp_dist_trial,dist_items,qkpkxw,2.0,info,,2.100000047677895,0.0,2.100000047677895,2.100000047677895,0.0,2.100000047677895,1.0,0.0,0.0,,Slider,Slider,4.0,object-56,temp_dist_trial,17.0,s_a_17_1,student_art,microphone,9.0,unique,paired,s_a_17_1.jpg,Student,,,sub-36
Desktop or Laptop,Windows 10,Chrome 138.0.0.0,1920x1080,941x944,Temporal Distance Task,cb_09,17.0,temp_dist_trial,dist_items,qkpkxw,2.0,continue,,1500.2000000715198,1499.6999999999966,1500.2000000715198,1500.2000000715198,1499.6999999999966,1500.2000000715198,1.0,0.0,0.0,,Click To Continue,Next button,7.0,object-60,temp_dist_trial,17.0,s_a_17_1,student_art,microphone,9.0,unique,paired,s_a_17_1.jpg,Student,,,sub-36
Desktop or Laptop,Windows 10,Chrome 138.0.0.0,1920x1080,941x944,Temporal Distance Task,cb_09,17.0,temp_dist_trial,dist_items,qkpkxw,2.0,response,63,423.5,1499.6999999999966,1500.8000000953616,423.5,1499.6999999999966,1500.8000000953616,1.0,1077.3000000953616,0.0,,Slider,Slider,4.0,object-56,temp_dist_trial,17.0,s_a_17_1,student_art,microphone,9.0,unique,paired,s_a_17_1.jpg,Student,,,sub-36
Desktop or Laptop,Windows 10,Chrome 138.0.0.0,1920x1080,941x944,Temporal Distance Task,cb_09,18.0,temp_dist_trial,num_items,zn7si1,1.0,response,1_ITEM,1622.4000000476804,1618.3000000000034,1622.4000000476804,1622.4000000476804,1618.3000000000034,1622.4000000476804,1.0,0.0,0.0,,Click Response,1_count,3.0,object-46,temp_dist_trial,18.0,s_s_02_1,student_stem,flask,9.0,unique,paired,s_s_02_1.jpg,Student,,,sub-36
Desktop or Laptop,Windows 10,Chrome 138.0.0.0,1920x1080,941x944,Temporal Distance Task,cb_09,19.0,temp_dist_trial,num_items,zn7si1,1.0,response,1_ITEM,1455.100000047678,1451.3999999999942,1455.100000047678,1455.100000047678,1451.3999999999942,1455.100000047678,1.0,0.0,0.0,,Click Response,1_count,3.0,object-46,temp_dist_trial,19.0,s_a_19_1,student_art,ballet shoes,9.0,unique,paired,s_a_19_1.jpg,Student,,,sub-36
Desktop or Laptop,Windows 10,Chrome 138.0.0.0,1920x1080,941x944,Temporal Distance Task,cb_09,20.0,temp_dist_trial,num_items,zn7si1,1.0,response,2_ITEM,1208.1000000715285,1201.6999999999969,1208.1000000715285,1208.1000000715285,1201.6999999999969,1208.1000000715285,1.0,0.0,0.0,,Click Response,2_count,5.0,object-49,temp_dist_trial,20.0,s_sh_12_1,student_shared,binder,9.0,competing,paired,s_sh_12_1.jpg,Student,,,sub-36
Desktop or Laptop,Windows 10,Chrome 138.0.0.0,1920x1080,941x944,Temporal Distance Task,cb_09,20.0,temp_dist_trial,dist_items,qkpkxw,2.0,info,,2.100000047677895,0.0,2.100000047677895,2.100000047677895,0.0,2.100000047677895,1.0,0.0,0.0,,Slider,Slider,4.0,object-56,temp_dist_trial,20.0,s_sh_12_1,student_shared,binder,9.0,competing,paired,s_sh_12_1.jpg,Student,,,sub-36
Desktop or Laptop,Windows 10,Chrome 138.0.0.0,1920x1080,941x944,Temporal Distance Task,cb_09,20.0,temp_dist_trial,dist_items,qkpkxw,2.0,continue,,1727.8000000953616,1722.599999999991,1727.8000000953616,1727.8000000953616,1722.599999999991,1727.8000000953616,1.0,0.0,0.0,,Click To Continue,Next button,7.0,object-60,temp_dist_trial,20.0,s_sh_12_1,student_shared,binder,9.0,competing,paired,s_sh_12_1.jpg,Student,,,sub-36
Desktop or Laptop,Windows 10,Chrome 138.0.0.0,1920x1080,941x944,Temporal Distance Task,cb_09,20.0,temp_dist_trial,dist_items,qkpkxw,2.0,response,34,444.7999999999884,1722.599999999991,1728.000000023836,444.7999999999884,1722.599999999991,1728.000000023836,1.0,1283.2000000238475,0.0,,Slider,Slider,4.0,object-56,temp_dist_trial,20.0,s_sh_12_1,student_shared,binder,9.0,competing,paired,s_sh_12_1.jpg,Student,,,sub-36
Desktop or Laptop,Windows 10,Chrome 138.0.0.0,1920x1080,941x944,Temporal Distance Task,cb_09,21.0,temp_dist_trial,num_items,zn7si1,1.0,response,2_ITEM,1030.1000000715283,1027.6999999999969,1030.1000000715283,1030.1000000715283,1027.6999999999969,1030.1000000715283,1.0,0.0,0.0,,Click Response,2_count,5.0,object-49,temp_dist_trial,21.0,s_a_12_1,student_art,saxophone,9.0,unique,paired,s_a_12_1.jpg,Student,,,sub-36
Desktop or Laptop,Windows 10,Chrome 138.0.0.0,1920x1080,941x944,Temporal Distance Task,cb_09,21.0,temp_dist_trial,dist_items,qkpkxw,2.0,info,,1.8999999999941792,0.0,1.8999999999941792,1.8999999999941792,0.0,1.8999999999941792,1.0,0.0,0.0,,Slider,Slider,4.0,object-56,temp_dist_trial,21.0,s_a_12_1,student_art,saxophone,9.0,unique,paired,s_a_12_1.jpg,Student,,,sub-36
Desktop or Laptop,Windows 10,Chrome 138.0.0.0,1920x1080,941x944,Temporal Distance Task,cb_09,21.0,temp_dist_trial,dist_items,qkpkxw,2.0,continue,,1712.2000000715198,1708.3999999999942,1712.2000000715198,1712.2000000715198,1708.3999999999942,1712.2000000715198,1.0,0.0,0.0,,Click To Continue,Next button,7.0,object-60,temp_dist_trial,21.0,s_a_12_1,student_art,saxophone,9.0,unique,paired,s_a_12_1.jpg,Student,,,sub-36
Desktop or Laptop,Windows 10,Chrome 138.0.0.0,1920x1080,941x944,Temporal Distance Task,cb_09,21.0,temp_dist_trial,dist_items,qkpkxw,2.0,response,63,701.6999999999971,1708.3999999999942,1712.500000023836,701.6999999999971,1708.3999999999942,1712.500000023836,1.0,1010.800000023839,0.0,,Slider,Slider,4.0,object-56,temp_dist_trial,21.0,s_a_12_1,student_art,saxophone,9.0,unique,paired,s_a_12_1.jpg,Student,,,sub-36
Desktop or Laptop,Windows 10,Chrome 138.0.0.0,1920x1080,941x944,Temporal Distance Task,cb_09,22.0,temp_dist_trial,num_items,zn7si1,1.0,response,1_ITEM,1523.4000000953674,1520.8000000000034,1523.4000000953674,1523.4000000953674,1520.8000000000034,1523.4000000953674,1.0,0.0,0.0,,Click Response,1_count,3.0,object-46,temp_dist_trial,22.0,s_sh_22_1,student_shared,hole puncher,9.0,competing,paired,s_sh_22_1.jpg,Student,,,sub-36
Desktop or Laptop,Windows 10,Chrome 138.0.0.0,1920x1080,941x944,Temporal Distance Task,cb_09,23.0,temp_dist_trial,num_items,zn7si1,1.0,response,1_ITEM,1096.3999999999942,1090.1999999999969,1096.3999999999942,1096.3999999999942,1090.1999999999969,1096.3999999999942,1.0,0.0,0.0,,Click Response,1_count,3.0,object-46,temp_dist_trial,23.0,s_s_06_1,student_stem,calculator,9.0,unique,single,s_s_06_1.jpg,Student,,,sub-36
Desktop or Laptop,Windows 10,Chrome 138.0.0.0,1920x1080,941x944,Temporal Distance Task,cb_09,24.0,temp_dist_trial,num_items,zn7si1,1.0,response,num_miss,3000.0,3000.0,3000.0,3000.0,3000.0,3000.0,1.0,0.0,0.0,num_miss_tag,Time Limit,screen,0.0,screen,temp_dist_trial,24.0,s_s_19_1,student_stem,circuit board,9.0,unique,paired,s_s_19_1.jpg,Student,,,sub-36
Desktop or Laptop,Windows 10,Chrome 138.0.0.0,1920x1080,941x944,Temporal Distance Task,cb_09,25.0,temp_dist_trial,num_items,zn7si1,1.0,response,1_ITEM,2222.0,2215.199999999997,2222.0,2222.0,2215.199999999997,2222.0,1.0,0.0,0.0,,Click Response,1_count,3.0,object-46,temp_dist_trial,25.0,s_a_06_1,student_art,pastels,9.0,unique,single,s_a_06_1.jpg,Student,,,sub-36
Desktop or Laptop,Windows 10,Chrome 138.0.0.0,1920x1080,941x944,Temporal Distance Task,cb_09,26.0,temp_dist_trial,num_items,zn7si1,1.0,response,1_ITEM,1770.7000000000116,1763.8000000000034,1770.7000000000116,1770.7000000000116,1763.8000000000034,1770.7000000000116,1.0,0.0,0.0,,Click Response,1_count,3.0,object-46,temp_dist_trial,26.0,s_a_01_1,student_art,paintbrush,9.0,unique,single,s_a_01_1.jpg,Student,,,sub-36
Desktop or Laptop,Windows 10,Chrome 138.0.0.0,1920x1080,941x944,Temporal Distance Task,cb_09,27.0,temp_dist_trial,num_items,zn7si1,1.0,response,2_ITEM,1348.1000000476781,1347.1999999999969,1348.1000000476781,1348.1000000476781,1347.1999999999969,1348.1000000476781,1.0,0.0,0.0,,Click Response,2_count,5.0,object-49,temp_dist_trial,27.0,s_s_09_1,student_stem,multimeter,9.0,unique,paired,s_s_09_1.jpg,Student,,,sub-36
Desktop or Laptop,Windows 10,Chrome 138.0.0.0,1920x1080,941x944,Temporal Distance Task,cb_09,27.0,temp_dist_trial,dist_items,qkpkxw,2.0,info,,2.300000095361611,0.0,2.300000095361611,2.300000095361611,0.0,2.300000095361611,1.0,0.0,0.0,,Slider,Slider,4.0,object-56,temp_dist_trial,27.0,s_s_09_1,student_stem,multimeter,9.0,unique,paired,s_s_09_1.jpg,Student,,,sub-36
Desktop or Laptop,Windows 10,Chrome 138.0.0.0,1920x1080,941x944,Temporal Distance Task,cb_09,27.0,temp_dist_trial,dist_items,qkpkxw,2.0,continue,,1738.3000000953616,1736.3999999999942,1738.3000000953616,1738.3000000953616,1736.3999999999942,1738.3000000953616,1.0,0.0,0.0,,Click To Continue,Next button,7.0,object-60,temp_dist_trial,27.0,s_s_09_1,student_stem,multimeter,9.0,unique,paired,s_s_09_1.jpg,Student,,,sub-36
Desktop or Laptop,Windows 10,Chrome 138.0.0.0,1920x1080,941x944,Temporal Distance Task,cb_09,27.0,temp_dist_trial,dist_items,qkpkxw,2.0,response,33,771.1999999999971,1736.3999999999942,1739.8000000953616,771.1999999999971,1736.3999999999942,1739.8000000953616,1.0,968.6000000953644,0.0,,Slider,Slider,4.0,object-56,temp_dist_trial,27.0,s_s_09_1,student_stem,multimeter,9.0,unique,paired,s_s_09_1.jpg,Student,,,sub-36
Desktop or Laptop,Windows 10,Chrome 138.0.0.0,1920x1080,941x944,Temporal Distance Task,cb_09,28.0,temp_dist_trial,num_items,zn7si1,1.0,response,1_ITEM,1125.7000000476835,1124.8000000000031,1125.7000000476835,1125.7000000476835,1124.8000000000031,1125.7000000476835,1.0,0.0,0.0,,Click Response,1_count,3.0,object-46,temp_dist_trial,28.0,s_sh_03_1,student_shared,highlighter,9.0,competing,single,s_sh_03_1.jpg,Student,,,sub-36
Desktop or Laptop,Windows 10,Chrome 138.0.0.0,1920x1080,941x944,Temporal Distance Task,cb_09,29.0,temp_dist_trial,num_items,zn7si1,1.0,response,2_ITEM,1320.0000000715227,1319.5999999999913,1320.0000000715227,1320.0000000715227,1319.5999999999913,1320.0000000715227,1.0,0.0,0.0,,Click Response,2_count,5.0,object-49,temp_dist_trial,29.0,s_sh_24_1,student_shared,desk organizer,9.0,competing,paired,s_sh_24_1.jpg,Student,,,sub-36
Desktop or Laptop,Windows 10,Chrome 138.0.0.0,1920x1080,941x944,Temporal Distance Task,cb_09,29.0,temp_dist_trial,dist_items,qkpkxw,2.0,info,,1.8000000715255735,0.0,1.8000000715255735,1.8000000715255735,0.0,1.8000000715255735,1.0,0.0,0.0,,Slider,Slider,4.0,object-56,temp_dist_trial,29.0,s_sh_24_1,student_shared,desk organizer,9.0,competing,paired,s_sh_24_1.jpg,Student,,,sub-36
Desktop or Laptop,Windows 10,Chrome 138.0.0.0,1920x1080,941x944,Temporal Distance Task,cb_09,29.0,temp_dist_trial,dist_items,qkpkxw,2.0,continue,,1562.3999999999942,1555.5,1562.3999999999942,1562.3999999999942,1555.5,1562.3999999999942,1.0,0.0,0.0,,Click To Continue,Next button,7.0,object-60,temp_dist_trial,29.0,s_sh_24_1,student_shared,desk organizer,9.0,competing,paired,s_sh_24_1.jpg,Student,,,sub-36
Desktop or Laptop,Windows 10,Chrome 138.0.0.0,1920x1080,941x944,Temporal Distance Task,cb_09,29.0,temp_dist_trial,dist_items,qkpkxw,2.0,response,59,576.3000000000029,1555.5,1562.3999999999942,576.3000000000029,1555.5,1562.3999999999942,1.0,986.0999999999913,0.0,,Slider,Slider,4.0,object-56,temp_dist_trial,29.0,s_sh_24_1,student_shared,desk organizer,9.0,competing,paired,s_sh_24_1.jpg,Student,,,sub-36
Desktop or Laptop,Windows 10,Chrome 138.0.0.0,1920x1080,941x944,Temporal Distance Task,cb_09,30.0,temp_dist_trial,num_items,zn7si1,1.0,response,1_ITEM,1073.100000023842,1069.3999999999942,1073.100000023842,1073.100000023842,1069.3999999999942,1073.100000023842,1.0,0.0,0.0,,Click Response,1_count,3.0,object-46,temp_dist_trial,30.0,s_a_15_1,student_art,drum kit,9.0,unique,single,s_a_15_1.jpg,Student,,,sub-36
Desktop or Laptop,Windows 10,Chrome 138.0.0.0,1920x1080,941x944,Temporal Distance Task,cb_09,31.0,temp_dist_trial,num_items,zn7si1,1.0,response,2_ITEM,1836.5,1833.3000000000034,1836.5,1836.5,1833.3000000000034,1836.5,1.0,0.0,0.0,,Click Response,2_count,5.0,object-49,temp_dist_trial,31.0,s_s_10_1,student_stem,3d molecule,9.0,unique,paired,s_s_10_1.jpg,Student,,,sub-36
Desktop or Laptop,Windows 10,Chrome 138.0.0.0,1920x1080,941x944,Temporal Distance Task,cb_09,31.0,temp_dist_trial,dist_items,qkpkxw,2.0,info,,1.9000000715313945,0.0,1.9000000715313945,1.9000000715313945,0.0,1.9000000715313945,1.0,0.0,0.0,,Slider,Slider,4.0,object-56,temp_dist_trial,31.0,s_s_10_1,student_stem,3d molecule,9.0,unique,paired,s_s_10_1.jpg,Student,,,sub-36
Desktop or Laptop,Windows 10,Chrome 138.0.0.0,1920x1080,941x944,Temporal Distance Task,cb_09,31.0,temp_dist_trial,dist_items,qkpkxw,2.0,continue,,1356.3000000476895,1354.1000000000058,1356.3000000476895,1356.3000000476895,1354.1000000000058,1356.3000000476895,1.0,0.0,0.0,,Click To Continue,Next button,7.0,object-60,temp_dist_trial,31.0,s_s_10_1,student_stem,3d molecule,9.0,unique,paired,s_s_10_1.jpg,Student,,,sub-36
Desktop or Laptop,Windows 10,Chrome 138.0.0.0,1920x1080,941x944,Temporal Distance Task,cb_09,31.0,temp_dist_trial,dist_items,qkpkxw,2.0,response,26,409.7000000000117,1354.1000000000058,1356.6000000000058,409.7000000000117,1354.1000000000058,1356.6000000000058,1.0,946.8999999999942,0.0,,Slider,Slider,4.0,object-56,temp_dist_trial,31.0,s_s_10_1,student_stem,3d molecule,9.0,unique,paired,s_s_10_1.jpg,Student,,,sub-36
Desktop or Laptop,Windows 10,Chrome 138.0.0.0,1920x1080,941x944,Temporal Distance Task,cb_09,32.0,temp_dist_trial,num_items,zn7si1,1.0,response,2_ITEM,1310.0,1305.3000000000031,1310.0,1310.0,1305.3000000000031,1310.0,1.0,0.0,0.0,,Click Response,2_count,5.0,object-49,temp_dist_trial,32.0,s_sh_14_1,student_shared,printer,9.0,competing,paired,s_sh_14_1.jpg,Student,,,sub-36
Desktop or Laptop,Windows 10,Chrome 138.0.0.0,1920x1080,941x944,Temporal Distance Task,cb_09,32.0,temp_dist_trial,dist_items,qkpkxw,2.0,info,,1.8000000238389475,0.0,1.8000000238389475,1.8000000238389475,0.0,1.8000000238389475,1.0,0.0,0.0,,Slider,Slider,4.0,object-56,temp_dist_trial,32.0,s_sh_14_1,student_shared,printer,9.0,competing,paired,s_sh_14_1.jpg,Student,,,sub-36
Desktop or Laptop,Windows 10,Chrome 138.0.0.0,1920x1080,941x944,Temporal Distance Task,cb_09,32.0,temp_dist_trial,dist_items,qkpkxw,2.0,continue,,1459.1000000953643,1458.3999999999942,1459.1000000953643,1459.1000000953643,1458.3999999999942,1459.1000000953643,1.0,0.0,0.0,,Click To Continue,Next button,7.0,object-60,temp_dist_trial,32.0,s_sh_14_1,student_shared,printer,9.0,competing,paired,s_sh_14_1.jpg,Student,,,sub-36
Desktop or Laptop,Windows 10,Chrome 138.0.0.0,1920x1080,941x944,Temporal Distance Task,cb_09,32.0,temp_dist_trial,dist_items,qkpkxw,2.0,response,40,528.0,1458.3999999999942,1459.3000000238392,528.0,1458.3999999999942,1459.3000000238392,1.0,931.300000023839,0.0,,Slider,Slider,4.0,object-56,temp_dist_trial,32.0,s_sh_14_1,student_shared,printer,9.0,competing,paired,s_sh_14_1.jpg,Student,,,sub-36
Desktop or Laptop,Windows 10,Chrome 138.0.0.0,1920x1080,941x944,Temporal Distance Task,cb_09,33.0,temp_dist_trial,num_items,zn7si1,1.0,response,2_ITEM,1307.6000000715285,1305.8000000000031,1307.6000000715285,1307.6000000715285,1305.8000000000031,1307.6000000715285,1.0,0.0,0.0,,Click Response,2_count,5.0,object-49,temp_dist_trial,33.0,s_s_15_1,student_stem,jumper cables,9.0,unique,paired,s_s_15_1.jpg,Student,,,sub-36
Desktop or Laptop,Windows 10,Chrome 138.0.0.0,1920x1080,941x944,Temporal Distance Task,cb_09,33.0,temp_dist_trial,dist_items,qkpkxw,2.0,info,,2.000000047686626,0.0,2.000000047686626,2.000000047686626,0.0,2.000000047686626,1.0,0.0,0.0,,Slider,Slider,4.0,object-56,temp_dist_trial,33.0,s_s_15_1,student_stem,jumper cables,9.0,unique,paired,s_s_15_1.jpg,Student,,,sub-36
Desktop or Laptop,Windows 10,Chrome 138.0.0.0,1920x1080,941x944,Temporal Distance Task,cb_09,33.0,temp_dist_trial,dist_items,qkpkxw,2.0,continue,,1473.0000000476864,1472.5,1473.0000000476864,1473.0000000476864,1472.5,1473.0000000476864,1.0,0.0,0.0,,Click To Continue,Next button,7.0,object-60,temp_dist_trial,33.0,s_s_15_1,student_stem,jumper cables,9.0,unique,paired,s_s_15_1.jpg,Student,,,sub-36
Desktop or Laptop,Windows 10,Chrome 138.0.0.0,1920x1080,941x944,Temporal Distance Task,cb_09,33.0,temp_dist_trial,dist_items,qkpkxw,2.0,response,36,687.6999999999971,1472.5,1473.2000000953706,687.6999999999971,1472.5,1473.2000000953706,1.0,785.5000000953733,0.0,,Slider,Slider,4.0,object-56,temp_dist_trial,33.0,s_s_15_1,student_stem,jumper cables,9.0,unique,paired,s_s_15_1.jpg,Student,,,sub-36
Desktop or Laptop,Windows 10,Chrome 138.0.0.0,1920x1080,941x944,Temporal Distance Task,cb_09,34.0,temp_dist_trial,num_items,zn7si1,1.0,response,2_ITEM,993.5000000476866,992.8000000000028,993.5000000476866,993.5000000476866,992.8000000000028,993.5000000476866,1.0,0.0,0.0,,Click Response,2_count,5.0,object-49,temp_dist_trial,34.0,s_sh_10_1,student_shared,scissors,9.0,competing,paired,s_sh_10_1.jpg,Student,,,sub-36
Desktop or Laptop,Windows 10,Chrome 138.0.0.0,1920x1080,941x944,Temporal Distance Task,cb_09,34.0,temp_dist_trial,dist_items,qkpkxw,2.0,info,,1.8000000238389475,0.0,1.8000000238389475,1.8000000238389475,0.0,1.8000000238389475,1.0,0.0,0.0,,Slider,Slider,4.0,object-56,temp_dist_trial,34.0,s_sh_10_1,student_shared,scissors,9.0,competing,paired,s_sh_10_1.jpg,Student,,,sub-36
Desktop or Laptop,Windows 10,Chrome 138.0.0.0,1920x1080,941x944,Temporal Distance Task,cb_09,34.0,temp_dist_trial,dist_items,qkpkxw,2.0,continue,,1693.6000000953643,1687.5,1693.6000000953643,1693.6000000953643,1687.5,1693.6000000953643,1.0,0.0,0.0,,Click To Continue,Next button,7.0,object-60,temp_dist_trial,34.0,s_sh_10_1,student_shared,scissors,9.0,competing,paired,s_sh_10_1.jpg,Student,,,sub-36
Desktop or Laptop,Windows 10,Chrome 138.0.0.0,1920x1080,941x944,Temporal Distance Task,cb_09,34.0,temp_dist_trial,dist_items,qkpkxw,2.0,response,61,819.3000000000029,1687.5,1694.0000000715231,819.3000000000029,1687.5,1694.0000000715231,1.0,874.7000000715198,0.0,,Slider,Slider,4.0,object-56,temp_dist_trial,34.0,s_sh_10_1,student_shared,scissors,9.0,competing,paired,s_sh_10_1.jpg,Student,,,sub-36
Desktop or Laptop,Windows 10,Chrome 138.0.0.0,1920x1080,941x944,Temporal Distance Task,cb_09,35.0,temp_dist_trial,num_items,zn7si1,1.0,response,1_ITEM,1293.0000000715227,1291.5999999999913,1293.0000000715227,1293.0000000715227,1291.5999999999913,1293.0000000715227,1.0,0.0,0.0,,Click Response,1_count,3.0,object-46,temp_dist_trial,35.0,s_sh_09_1,student_shared,paper clips,9.0,competing,paired,s_sh_09_1.jpg,Student,,,sub-36
Desktop or Laptop,Windows 10,Chrome 138.0.0.0,1920x1080,941x944,Temporal Distance Task,cb_09,36.0,temp_dist_trial,num_items,zn7si1,1.0,response,1_ITEM,887.6000000000058,882.0,887.6000000000058,887.6000000000058,882.0,887.6000000000058,1.0,0.0,0.0,,Click Response,1_count,3.0,object-46,temp_dist_trial,36.0,s_a_14_1,student_art,guitar pick,9.0,unique,paired,s_a_14_1.jpg,Student,,,sub-36
Desktop or Laptop,Windows 10,Chrome 138.0.0.0,1920x1080,941x944,Temporal Distance Task,cb_09,37.0,temp_dist_trial,num_items,zn7si1,1.0,response,2_ITEM,955.6000000000058,951.4000000000087,955.6000000000058,955.6000000000058,951.4000000000087,955.6000000000058,1.0,0.0,0.0,,Click Response,2_count,5.0,object-49,temp_dist_trial,37.0,s_a_02_1,student_art,canvas,9.0,unique,paired,s_a_02_1.jpg,Student,,,sub-36
Desktop or Laptop,Windows 10,Chrome 138.0.0.0,1920x1080,941x944,Temporal Distance Task,cb_09,37.0,temp_dist_trial,dist_items,qkpkxw,2.0,info,,1.8000000238389475,0.0,1.8000000238389475,1.8000000238389475,0.0,1.8000000238389475,1.0,0.0,0.0,,Slider,Slider,4.0,object-56,temp_dist_trial,37.0,s_a_02_1,student_art,canvas,9.0,unique,paired,s_a_02_1.jpg,Student,,,sub-36
Desktop or Laptop,Windows 10,Chrome 138.0.0.0,1920x1080,941x944,Temporal Distance Task,cb_09,37.0,temp_dist_trial,dist_items,qkpkxw,2.0,continue,,2092.1000000953645,2090.300000000003,2092.1000000953645,2092.1000000953645,2090.300000000003,2092.1000000953645,1.0,0.0,0.0,,Click To Continue,Next button,7.0,object-60,temp_dist_trial,37.0,s_a_02_1,student_art,canvas,9.0,unique,paired,s_a_02_1.jpg,Student,,,sub-36
Desktop or Laptop,Windows 10,Chrome 138.0.0.0,1920x1080,941x944,Temporal Distance Task,cb_09,37.0,temp_dist_trial,dist_items,qkpkxw,2.0,response,66,493.0,2090.300000000003,2092.300000023839,493.0,2090.300000000003,2092.300000023839,1.0,1599.3000000238392,0.0,,Slider,Slider,4.0,object-56,temp_dist_trial,37.0,s_a_02_1,student_art,canvas,9.0,unique,paired,s_a_02_1.jpg,Student,,,sub-36
Desktop or Laptop,Windows 10,Chrome 138.0.0.0,1920x1080,941x944,Temporal Distance Task,cb_09,38.0,temp_dist_trial,num_items,zn7si1,1.0,response,1_ITEM,1165.000000023836,1159.6999999999825,1165.000000023836,1165.000000023836,1159.6999999999825,1165.000000023836,1.0,0.0,0.0,,Click Response,1_count,3.0,object-46,temp_dist_trial,38.0,s_s_01_1,student_stem,microscope,9.0,unique,paired,s_s_01_1.jpg,Student,,,sub-36
Desktop or Laptop,Windows 10,Chrome 138.0.0.0,1920x1080,941x944,Temporal Distance Task,cb_09,39.0,temp_dist_trial,num_items,zn7si1,1.0,response,2_ITEM,1256.1000000000058,1249.8999999999942,1256.1000000000058,1256.1000000000058,1249.8999999999942,1256.1000000000058,1.0,0.0,0.0,,Click Response,2_count,5.0,object-49,temp_dist_trial,39.0,s_sh_20_1,student_shared,tape,9.0,competing,paired,s_sh_20_1.jpg,Student,,,sub-36
Desktop or Laptop,Windows 10,Chrome 138.0.0.0,1920x1080,941x944,Temporal Distance Task,cb_09,39.0,temp_dist_trial,dist_items,qkpkxw,2.0,info,,1.8000000238534994,0.0,1.8000000238534994,1.8000000238534994,0.0,1.8000000238534994,1.0,0.0,0.0,,Slider,Slider,4.0,object-56,temp_dist_trial,39.0,s_sh_20_1,student_shared,tape,9.0,competing,paired,s_sh_20_1.jpg,Student,,,sub-36
Desktop or Laptop,Windows 10,Chrome 138.0.0.0,1920x1080,941x944,Temporal Distance Task,cb_09,39.0,temp_dist_trial,dist_items,qkpkxw,2.0,continue,,1514.2000000000116,1513.9000000000233,1514.2000000000116,1514.2000000000116,1513.9000000000233,1514.2000000000116,1.0,0.0,0.0,,Click To Continue,Next button,7.0,object-60,temp_dist_trial,39.0,s_sh_20_1,student_shared,tape,9.0,competing,paired,s_sh_20_1.jpg,Student,,,sub-36
Desktop or Laptop,Windows 10,Chrome 138.0.0.0,1920x1080,941x944,Temporal Distance Task,cb_09,39.0,temp_dist_trial,dist_items,qkpkxw,2.0,response,36,534.7000000000116,1513.9000000000233,1514.5000000715372,534.7000000000116,1513.9000000000233,1514.5000000715372,1.0,979.8000000715256,0.0,,Slider,Slider,4.0,object-56,temp_dist_trial,39.0,s_sh_20_1,student_shared,tape,9.0,competing,paired,s_sh_20_1.jpg,Student,,,sub-36
Desktop or Laptop,Windows 10,Chrome 138.0.0.0,1920x1080,941x944,Temporal Distance Task,cb_09,40.0,temp_dist_trial,num_items,zn7si1,1.0,response,1_ITEM,2046.7999999999884,2041.3999999999944,2046.7999999999884,2046.7999999999884,2041.3999999999944,2046.7999999999884,1.0,0.0,0.0,,Click Response,1_count,3.0,object-46,temp_dist_trial,40.0,s_sh_18_1,student_shared,wall calendar,9.0,competing,paired,s_sh_18_1.jpg,Student,,,sub-36
Desktop or Laptop,Windows 10,Chrome 138.0.0.0,1920x1080,941x944,Temporal Distance Task,cb_09,41.0,temp_dist_trial,num_items,zn7si1,1.0,response,2_ITEM,1115.9000000476954,1111.2000000000116,1115.9000000476954,1115.9000000476954,1111.2000000000116,1115.9000000476954,1.0,0.0,0.0,,Click Response,2_count,5.0,object-49,temp_dist_trial,41.0,s_sh_11_1,student_shared,pencil case,9.0,competing,paired,s_sh_11_1.jpg,Student,,,sub-36
Desktop or Laptop,Windows 10,Chrome 138.0.0.0,1920x1080,941x944,Temporal Distance Task,cb_09,41.0,temp_dist_trial,dist_items,qkpkxw,2.0,info,,1.9000000953674319,0.0,1.9000000953674319,1.9000000953674319,0.0,1.9000000953674319,1.0,0.0,0.0,,Slider,Slider,4.0,object-56,temp_dist_trial,41.0,s_sh_11_1,student_shared,pencil case,9.0,competing,paired,s_sh_11_1.jpg,Student,,,sub-36
Desktop or Laptop,Windows 10,Chrome 138.0.0.0,1920x1080,941x944,Temporal Distance Task,cb_09,41.0,temp_dist_trial,dist_items,qkpkxw,2.0,continue,,1769.7000000476835,1763.6000000000058,1769.7000000476835,1769.7000000476835,1763.6000000000058,1769.7000000476835,1.0,0.0,0.0,,Click To Continue,Next button,7.0,object-60,temp_dist_trial,41.0,s_sh_11_1,student_shared,pencil case,9.0,competing,paired,s_sh_11_1.jpg,Student,,,sub-36
Desktop or Laptop,Windows 10,Chrome 138.0.0.0,1920x1080,941x944,Temporal Distance Task,cb_09,41.0,temp_dist_trial,dist_items,qkpkxw,2.0,response,13,638.8999999999943,1763.6000000000058,1770.0,638.8999999999943,1763.6000000000058,1770.0,1.0,1131.1000000000058,0.0,,Slider,Slider,4.0,object-56,temp_dist_trial,41.0,s_sh_11_1,student_shared,pencil case,9.0,competing,paired,s_sh_11_1.jpg,Student,,,sub-36
Desktop or Laptop,Windows 10,Chrome 138.0.0.0,1920x1080,941x944,Temporal Distance Task,cb_09,42.0,temp_dist_trial,num_items,zn7si1,1.0,response,2_ITEM,1800.2000000715198,1799.0,1800.2000000715198,1800.2000000715198,1799.0,1800.2000000715198,1.0,0.0,0.0,,Click Response,2_count,5.0,object-49,temp_dist_trial,42.0,s_sh_04_1,student_shared,laptop stand,9.0,competing,paired,s_sh_04_1.jpg,Student,,,sub-36
Desktop or Laptop,Windows 10,Chrome 138.0.0.0,1920x1080,941x944,Temporal Distance Task,cb_09,42.0,temp_dist_trial,dist_items,qkpkxw,2.0,info,,2.0,0.0,2.0,2.0,0.0,2.0,1.0,0.0,0.0,,Slider,Slider,4.0,object-56,temp_dist_trial,42.0,s_sh_04_1,student_shared,laptop stand,9.0,competing,paired,s_sh_04_1.jpg,Student,,,sub-36
Desktop or Laptop,Windows 10,Chrome 138.0.0.0,1920x1080,941x944,Temporal Distance Task,cb_09,42.0,temp_dist_trial,dist_items,qkpkxw,2.0,continue,,1271.3000000715256,1270.6000000000058,1271.3000000715256,1271.3000000715256,1270.6000000000058,1271.3000000715256,1.0,0.0,0.0,,Click To Continue,Next button,7.0,object-60,temp_dist_trial,42.0,s_sh_04_1,student_shared,laptop stand,9.0,competing,paired,s_sh_04_1.jpg,Student,,,sub-36
Desktop or Laptop,Windows 10,Chrome 138.0.0.0,1920x1080,941x944,Temporal Distance Task,cb_09,42.0,temp_dist_trial,dist_items,qkpkxw,2.0,response,42,430.5,1270.6000000000058,1271.5,430.5,1270.6000000000058,1271.5,1.0,841.0,0.0,,Slider,Slider,4.0,object-56,temp_dist_trial,42.0,s_sh_04_1,student_shared,laptop stand,9.0,competing,paired,s_sh_04_1.jpg,Student,,,sub-36
Desktop or Laptop,Windows 10,Chrome 138.0.0.0,1920x1080,941x944,Temporal Distance Task,cb_09,43.0,temp_dist_trial,num_items,zn7si1,1.0,response,2_ITEM,1510.8000000953616,1507.2999999999884,1510.8000000953616,1510.8000000953616,1507.2999999999884,1510.8000000953616,1.0,0.0,0.0,,Click Response,2_count,5.0,object-49,temp_dist_trial,43.0,s_s_08_1,student_stem,soldering iron,9.0,unique,paired,s_s_08_1.jpg,Student,,,sub-36
Desktop or Laptop,Windows 10,Chrome 138.0.0.0,1920x1080,941x944,Temporal Distance Task,cb_09,43.0,temp_dist_trial,dist_items,qkpkxw,2.0,info,,1.8000000953616109,0.0,1.8000000953616109,1.8000000953616109,0.0,1.8000000953616109,1.0,0.0,0.0,,Slider,Slider,4.0,object-56,temp_dist_trial,43.0,s_s_08_1,student_stem,soldering iron,9.0,unique,paired,s_s_08_1.jpg,Student,,,sub-36
Desktop or Laptop,Windows 10,Chrome 138.0.0.0,1920x1080,941x944,Temporal Distance Task,cb_09,43.0,temp_dist_trial,dist_items,qkpkxw,2.0,continue,,1631.7000000715198,1625.1999999999825,1631.7000000715198,1631.7000000715198,1625.1999999999825,1631.7000000715198,1.0,0.0,0.0,,Click To Continue,Next button,7.0,object-60,temp_dist_trial,43.0,s_s_08_1,student_stem,soldering iron,9.0,unique,paired,s_s_08_1.jpg,Student,,,sub-36
Desktop or Laptop,Windows 10,Chrome 138.0.0.0,1920x1080,941x944,Temporal Distance Task,cb_09,43.0,temp_dist_trial,dist_items,qkpkxw,2.0,response,26,576.6000000000057,1625.1999999999825,1632.0999999999767,576.6000000000057,1625.1999999999825,1632.0999999999767,1.0,1055.499999999971,0.0,,Slider,Slider,4.0,object-56,temp_dist_trial,43.0,s_s_08_1,student_stem,soldering iron,9.0,unique,paired,s_s_08_1.jpg,Student,,,sub-36
Desktop or Laptop,Windows 10,Chrome 138.0.0.0,1920x1080,941x944,Temporal Distance Task,cb_09,44.0,temp_dist_trial,num_items,zn7si1,1.0,response,2_ITEM,1942.4000000476958,1937.3000000000175,1942.4000000476958,1942.4000000476958,1937.3000000000175,1942.4000000476958,1.0,0.0,0.0,,Click Response,2_count,5.0,object-49,temp_dist_trial,44.0,s_sh_15_1,student_shared,usb drive,9.0,competing,paired,s_sh_15_1.jpg,Student,,,sub-36
Desktop or Laptop,Windows 10,Chrome 138.0.0.0,1920x1080,941x944,Temporal Distance Task,cb_09,44.0,temp_dist_trial,dist_items,qkpkxw,2.0,info,,2.0,0.0,2.0,2.0,0.0,2.0,1.0,0.0,0.0,,Slider,Slider,4.0,object-56,temp_dist_trial,44.0,s_sh_15_1,student_shared,usb drive,9.0,competing,paired,s_sh_15_1.jpg,Student,,,sub-36
Desktop or Laptop,Windows 10,Chrome 138.0.0.0,1920x1080,941x944,Temporal Distance Task,cb_09,44.0,temp_dist_trial,dist_items,qkpkxw,2.0,continue,,1972.4000000953674,1965.6000000000056,1972.4000000953674,1972.4000000953674,1965.6000000000056,1972.4000000953674,1.0,0.0,0.0,,Click To Continue,Next button,7.0,object-60,temp_dist_trial,44.0,s_sh_15_1,student_shared,usb drive,9.0,competing,paired,s_sh_15_1.jpg,Student,,,sub-36
Desktop or Laptop,Windows 10,Chrome 138.0.0.0,1920x1080,941x944,Temporal Distance Task,cb_09,44.0,temp_dist_trial,dist_items,qkpkxw,2.0,response,65,625.2999999999884,1965.6000000000056,1972.6000000000056,625.2999999999884,1965.6000000000056,1972.6000000000056,1.0,1347.3000000000175,0.0,,Slider,Slider,4.0,object-56,temp_dist_trial,44.0,s_sh_15_1,student_shared,usb drive,9.0,competing,paired,s_sh_15_1.jpg,Student,,,sub-36
Desktop or Laptop,Windows 10,Chrome 138.0.0.0,1920x1080,941x944,Temporal Distance Task,cb_09,45.0,temp_dist_trial,num_items,zn7si1,1.0,response,1_ITEM,1949.000000023836,1944.5,1949.000000023836,1949.000000023836,1944.5,1949.000000023836,1.0,0.0,0.0,,Click Response,1_count,3.0,object-46,temp_dist_trial,45.0,s_a_16_1,student_art,piano,9.0,unique,paired,s_a_16_1.jpg,Student,,,sub-36
Desktop or Laptop,Windows 10,Chrome 138.0.0.0,1920x1080,941x944,Temporal Distance Task,cb_09,46.0,temp_dist_trial,num_items,zn7si1,1.0,response,num_miss,3000.0,3000.0,3000.0,3000.0,3000.0,3000.0,1.0,0.0,0.0,num_miss_tag,Time Limit,screen,0.0,screen,temp_dist_trial,46.0,s_sh_08_1,student_shared,post-its,9.0,competing,paired,s_sh_08_1.jpg,Student,,,sub-36
Desktop or Laptop,Windows 10,Chrome 138.0.0.0,1920x1080,941x944,Temporal Distance Task,cb_09,47.0,temp_dist_trial,num_items,zn7si1,1.0,response,2_ITEM,451.3000000953616,444.5,451.3000000953616,451.3000000953616,444.5,451.3000000953616,1.0,0.0,0.0,,Click Response,2_count,5.0,object-49,temp_dist_trial,47.0,s_sh_07_1,student_shared,ruler,9.0,competing,single,s_sh_07_1.jpg,Student,,,sub-36
Desktop or Laptop,Windows 10,Chrome 138.0.0.0,1920x1080,941x944,Temporal Distance Task,cb_09,47.0,temp_dist_trial,dist_items,qkpkxw,2.0,info,,1.8000000953616109,0.0,1.8000000953616109,1.8000000953616109,0.0,1.8000000953616109,1.0,0.0,0.0,,Slider,Slider,4.0,object-56,temp_dist_trial,47.0,s_sh_07_1,student_shared,ruler,9.0,competing,single,s_sh_07_1.jpg,Student,,,sub-36
Desktop or Laptop,Windows 10,Chrome 138.0.0.0,1920x1080,941x944,Temporal Distance Task,cb_09,47.0,temp_dist_trial,dist_items,qkpkxw,2.0,continue,,2299.600000047678,2298.6000000000063,2299.600000047678,2299.600000047678,2298.6000000000063,2299.600000047678,1.0,0.0,0.0,,Click To Continue,Next button,7.0,object-60,temp_dist_trial,47.0,s_sh_07_1,student_shared,ruler,9.0,competing,single,s_sh_07_1.jpg,Student,,,sub-36
Desktop or Laptop,Windows 10,Chrome 138.0.0.0,1920x1080,941x944,Temporal Distance Task,cb_09,47.0,temp_dist_trial,dist_items,qkpkxw,2.0,response,44,1319.3999999999942,2298.6000000000063,2299.8000000953616,1319.3999999999942,2298.6000000000063,2299.8000000953616,1.0,980.4000000953674,0.0,,Slider,Slider,4.0,object-56,temp_dist_trial,47.0,s_sh_07_1,student_shared,ruler,9.0,competing,single,s_sh_07_1.jpg,Student,,,sub-36
Desktop or Laptop,Windows 10,Chrome 138.0.0.0,1920x1080,941x944,Temporal Distance Task,cb_09,48.0,temp_dist_trial,num_items,zn7si1,1.0,response,1_ITEM,2473.500000047672,2472.2999999999884,2473.500000047672,2473.500000047672,2472.2999999999884,2473.500000047672,1.0,0.0,0.0,,Click Response,1_count,3.0,object-46,temp_dist_trial,48.0,s_sh_05_1,student_shared,laptop,9.0,competing,single,s_sh_05_1.jpg,Student,,,sub-36
Desktop or Laptop,Windows 10,Chrome 138.0.0.0,1920x1080,941x944,Temporal Distance Task,cb_09,2.0,temp_eventStart,Screen 1,dgtyxe,1.0,continue,,7316.100000000006,7312.600000000006,7316.100000000006,7316.100000000006,7312.600000000006,7316.100000000006,1.0,0.0,0.0,,Click To Continue,Next Button,3.0,object-43,temp_eventStart,,,Travel,,,,,,,,,sub-36
Desktop or Laptop,Windows 10,Chrome 138.0.0.0,1920x1080,941x944,Temporal Distance Task,cb_09,49.0,temp_dist_trial,num_items,zn7si1,1.0,response,1_ITEM,1562.0,1555.7000000000116,1562.0,1562.0,1555.7000000000116,1562.0,1.0,0.0,0.0,,Click Response,1_count,3.0,object-46,temp_dist_trial,1.0,t_i_01_1,travel_Iceland,gloves,9.0,unique,single,t_i_01_1.jpg,Travel,,,sub-36
Desktop or Laptop,Windows 10,Chrome 138.0.0.0,1920x1080,941x944,Temporal Distance Task,cb_09,50.0,temp_dist_trial,num_items,zn7si1,1.0,response,2_ITEM,1059.500000023836,1055.5,1059.500000023836,1059.500000023836,1055.5,1059.500000023836,1.0,0.0,0.0,,Click Response,2_count,5.0,object-49,temp_dist_trial,2.0,t_s_08_1,travel_shared,hand lotion,9.0,competing,single,t_s_08_1.jpg,Travel,,,sub-36
Desktop or Laptop,Windows 10,Chrome 138.0.0.0,1920x1080,941x944,Temporal Distance Task,cb_09,50.0,temp_dist_trial,dist_items,qkpkxw,2.0,info,,2.500000023836037,0.0,2.500000023836037,2.500000023836037,0.0,2.500000023836037,1.0,0.0,0.0,,Slider,Slider,4.0,object-56,temp_dist_trial,2.0,t_s_08_1,travel_shared,hand lotion,9.0,competing,single,t_s_08_1.jpg,Travel,,,sub-36
Desktop or Laptop,Windows 10,Chrome 138.0.0.0,1920x1080,941x944,Temporal Distance Task,cb_09,50.0,temp_dist_trial,dist_items,qkpkxw,2.0,continue,,1517.8999999999942,1513.8999999999942,1517.8999999999942,1517.8999999999942,1513.8999999999942,1517.8999999999942,1.0,0.0,0.0,,Click To Continue,Next button,7.0,object-60,temp_dist_trial,2.0,t_s_08_1,travel_shared,hand lotion,9.0,competing,single,t_s_08_1.jpg,Travel,,,sub-36
Desktop or Laptop,Windows 10,Chrome 138.0.0.0,1920x1080,941x944,Temporal Distance Task,cb_09,50.0,temp_dist_trial,dist_items,qkpkxw,2.0,response,38,652.7999999999884,1513.8999999999942,1518.2000000715198,652.7999999999884,1513.8999999999942,1518.2000000715198,1.0,865.4000000715314,0.0,,Slider,Slider,4.0,object-56,temp_dist_trial,2.0,t_s_08_1,travel_shared,hand lotion,9.0,competing,single,t_s_08_1.jpg,Travel,,,sub-36
Desktop or Laptop,Windows 10,Chrome 138.0.0.0,1920x1080,941x944,Temporal Distance Task,cb_09,51.0,temp_dist_trial,num_items,zn7si1,1.0,response,2_ITEM,1348.2000000476835,1347.2000000000114,1348.2000000476835,1348.2000000476835,1347.2000000000114,1348.2000000476835,1.0,0.0,0.0,,Click Response,2_count,5.0,object-49,temp_dist_trial,3.0,t_s_24_1,travel_shared,ear plugs,9.0,competing,paired,t_s_24_1.jpg,Travel,,,sub-36
Desktop or Laptop,Windows 10,Chrome 138.0.0.0,1920x1080,941x944,Temporal Distance Task,cb_09,51.0,temp_dist_trial,dist_items,qkpkxw,2.0,info,,1.9000000953674319,0.0,1.9000000953674319,1.9000000953674319,0.0,1.9000000953674319,1.0,0.0,0.0,,Slider,Slider,4.0,object-56,temp_dist_trial,3.0,t_s_24_1,travel_shared,ear plugs,9.0,competing,paired,t_s_24_1.jpg,Travel,,,sub-36
Desktop or Laptop,Windows 10,Chrome 138.0.0.0,1920x1080,941x944,Temporal Distance Task,cb_09,51.0,temp_dist_trial,dist_items,qkpkxw,2.0,continue,,1059.100000023842,1055.7999999999884,1059.100000023842,1059.100000023842,1055.7999999999884,1059.100000023842,1.0,0.0,0.0,,Click To Continue,Next button,7.0,object-60,temp_dist_trial,3.0,t_s_24_1,travel_shared,ear plugs,9.0,competing,paired,t_s_24_1.jpg,Travel,,,sub-36
Desktop or Laptop,Windows 10,Chrome 138.0.0.0,1920x1080,941x944,Temporal Distance Task,cb_09,51.0,temp_dist_trial,dist_items,qkpkxw,2.0,response,52,430.7999999999884,1055.7999999999884,1059.3000000715256,430.7999999999884,1055.7999999999884,1059.3000000715256,1.0,628.5000000715372,0.0,,Slider,Slider,4.0,object-56,temp_dist_trial,3.0,t_s_24_1,travel_shared,ear plugs,9.0,competing,paired,t_s_24_1.jpg,Travel,,,sub-36
Desktop or Laptop,Windows 10,Chrome 138.0.0.0,1920x1080,941x944,Temporal Distance Task,cb_09,52.0,temp_dist_trial,num_items,zn7si1,1.0,response,1_ITEM,1369.5000000715372,1368.0,1369.5000000715372,1369.5000000715372,1368.0,1369.5000000715372,1.0,0.0,0.0,,Click Response,1_count,3.0,object-46,temp_dist_trial,4.0,t_m_13_1,travel_Miami,floatie,9.0,unique,single,t_m_13_1.jpg,Travel,,,sub-36
Desktop or Laptop,Windows 10,Chrome 138.0.0.0,1920x1080,941x944,Temporal Distance Task,cb_09,53.0,temp_dist_trial,num_items,zn7si1,1.0,response,2_ITEM,2038.500000047672,2034.8999999999944,2038.500000047672,2038.500000047672,2034.8999999999944,2038.500000047672,1.0,0.0,0.0,,Click Response,2_count,5.0,object-49,temp_dist_trial,5.0,t_i_20_1,travel_Iceland,lantern,9.0,unique,paired,t_i_20_1.jpg,Travel,,,sub-36
Desktop or Laptop,Windows 10,Chrome 138.0.0.0,1920x1080,941x944,Temporal Distance Task,cb_09,53.0,temp_dist_trial,dist_items,qkpkxw,2.0,info,,2.100000047677895,0.0,2.100000047677895,2.100000047677895,0.0,2.100000047677895,1.0,0.0,0.0,,Slider,Slider,4.0,object-56,temp_dist_trial,5.0,t_i_20_1,travel_Iceland,lantern,9.0,unique,paired,t_i_20_1.jpg,Travel,,,sub-36
Desktop or Laptop,Windows 10,Chrome 138.0.0.0,1920x1080,941x944,Temporal Distance Task,cb_09,53.0,temp_dist_trial,dist_items,qkpkxw,2.0,continue,,1371.6000000476781,1368.0,1371.6000000476781,1371.6000000476781,1368.0,1371.6000000476781,1.0,0.0,0.0,,Click To Continue,Next button,7.0,object-60,temp_dist_trial,5.0,t_i_20_1,travel_Iceland,lantern,9.0,unique,paired,t_i_20_1.jpg,Travel,,,sub-36
Desktop or Laptop,Windows 10,Chrome 138.0.0.0,1920x1080,941x944,Temporal Distance Task,cb_09,53.0,temp_dist_trial,dist_items,qkpkxw,2.0,response,42,562.5,1368.0,1371.8000000953614,562.5,1368.0,1371.8000000953614,1.0,809.3000000953616,0.0,,Slider,Slider,4.0,object-56,temp_dist_trial,5.0,t_i_20_1,travel_Iceland,lantern,9.0,unique,paired,t_i_20_1.jpg,Travel,,,sub-36
Desktop or Laptop,Windows 10,Chrome 138.0.0.0,1920x1080,941x944,Temporal Distance Task,cb_09,54.0,temp_dist_trial,num_items,zn7si1,1.0,response,2_ITEM,1494.2000000715198,1493.1999999999825,1494.2000000715198,1494.2000000715198,1493.1999999999825,1494.2000000715198,1.0,0.0,0.0,,Click Response,2_count,5.0,object-49,temp_dist_trial,6.0,t_s_12_1,travel_shared,clear toiletry bag,9.0,competing,paired,t_s_12_1.jpg,Travel,,,sub-36
Desktop or Laptop,Windows 10,Chrome 138.0.0.0,1920x1080,941x944,Temporal Distance Task,cb_09,54.0,temp_dist_trial,dist_items,qkpkxw,2.0,info,,1.9000000238302164,0.0,1.9000000238302164,1.9000000238302164,0.0,1.9000000238302164,1.0,0.0,0.0,,Slider,Slider,4.0,object-56,temp_dist_trial,6.0,t_s_12_1,travel_shared,clear toiletry bag,9.0,competing,paired,t_s_12_1.jpg,Travel,,,sub-36
Desktop or Laptop,Windows 10,Chrome 138.0.0.0,1920x1080,941x944,Temporal Distance Task,cb_09,54.0,temp_dist_trial,dist_items,qkpkxw,2.0,continue,,1902.6999999999825,1895.7999999999884,1902.6999999999825,1902.6999999999825,1895.7999999999884,1902.6999999999825,1.0,0.0,0.0,,Click To Continue,Next button,7.0,object-60,temp_dist_trial,6.0,t_s_12_1,travel_shared,clear toiletry bag,9.0,competing,paired,t_s_12_1.jpg,Travel,,,sub-36
Desktop or Laptop,Windows 10,Chrome 138.0.0.0,1920x1080,941x944,Temporal Distance Task,cb_09,54.0,temp_dist_trial,dist_items,qkpkxw,2.0,response,15,569.5,1895.7999999999884,1902.6999999999825,569.5,1895.7999999999884,1902.6999999999825,1.0,1333.1999999999825,0.0,,Slider,Slider,4.0,object-56,temp_dist_trial,6.0,t_s_12_1,travel_shared,clear toiletry bag,9.0,competing,paired,t_s_12_1.jpg,Travel,,,sub-36
Desktop or Laptop,Windows 10,Chrome 138.0.0.0,1920x1080,941x944,Temporal Distance Task,cb_09,55.0,temp_dist_trial,num_items,zn7si1,1.0,response,1_ITEM,1325.9000000953674,1319.5,1325.9000000953674,1325.9000000953674,1319.5,1325.9000000953674,1.0,0.0,0.0,,Click Response,1_count,3.0,object-46,temp_dist_trial,7.0,t_m_11_1,travel_Miami,collapsible beach chair,9.0,unique,single,t_m_11_1.jpg,Travel,,,sub-36
Desktop or Laptop,Windows 10,Chrome 138.0.0.0,1920x1080,941x944,Temporal Distance Task,cb_09,56.0,temp_dist_trial,num_items,zn7si1,1.0,response,2_ITEM,1750.7000000476835,1750.1000000000058,1750.7000000476835,1750.7000000476835,1750.1000000000058,1750.7000000476835,1.0,0.0,0.0,,Click Response,2_count,5.0,object-49,temp_dist_trial,8.0,t_m_18_1,travel_Miami,waterproof tote,9.0,unique,paired,t_m_18_1.jpg,Travel,,,sub-36
Desktop or Laptop,Windows 10,Chrome 138.0.0.0,1920x1080,941x944,Temporal Distance Task,cb_09,56.0,temp_dist_trial,dist_items,qkpkxw,2.0,info,,1.9000000953674319,0.0,1.9000000953674319,1.9000000953674319,0.0,1.9000000953674319,1.0,0.0,0.0,,Slider,Slider,4.0,object-56,temp_dist_trial,8.0,t_m_18_1,travel_Miami,waterproof tote,9.0,unique,paired,t_m_18_1.jpg,Travel,,,sub-36
Desktop or Laptop,Windows 10,Chrome 138.0.0.0,1920x1080,941x944,Temporal Distance Task,cb_09,56.0,temp_dist_trial,dist_items,qkpkxw,2.0,continue,,1673.6000000000354,1666.7000000000116,1673.6000000000354,1673.6000000000354,1666.7000000000116,1673.6000000000354,1.0,0.0,0.0,,Click To Continue,Next button,7.0,object-60,temp_dist_trial,8.0,t_m_18_1,travel_Miami,waterproof tote,9.0,unique,paired,t_m_18_1.jpg,Travel,,,sub-36
Desktop or Laptop,Windows 10,Chrome 138.0.0.0,1920x1080,941x944,Temporal Distance Task,cb_09,56.0,temp_dist_trial,dist_items,qkpkxw,2.0,response,27,729.2000000000116,1666.7000000000116,1673.6000000000354,729.2000000000116,1666.7000000000116,1673.6000000000354,1.0,944.4000000000232,0.0,,Slider,Slider,4.0,object-56,temp_dist_trial,8.0,t_m_18_1,travel_Miami,waterproof tote,9.0,unique,paired,t_m_18_1.jpg,Travel,,,sub-36
Desktop or Laptop,Windows 10,Chrome 138.0.0.0,1920x1080,941x944,Temporal Distance Task,cb_09,57.0,temp_dist_trial,num_items,zn7si1,1.0,response,2_ITEM,1127.9000000238302,1125.0,1127.9000000238302,1127.9000000238302,1125.0,1127.9000000238302,1.0,0.0,0.0,,Click Response,2_count,5.0,object-49,temp_dist_trial,9.0,t_s_15_1,travel_shared,luggage tag,9.0,competing,paired,t_s_15_1.jpg,Travel,,,sub-36
Desktop or Laptop,Windows 10,Chrome 138.0.0.0,1920x1080,941x944,Temporal Distance Task,cb_09,57.0,temp_dist_trial,dist_items,qkpkxw,2.0,info,,1.9000000238302164,0.0,1.9000000238302164,1.9000000238302164,0.0,1.9000000238302164,1.0,0.0,0.0,,Slider,Slider,4.0,object-56,temp_dist_trial,9.0,t_s_15_1,travel_shared,luggage tag,9.0,competing,paired,t_s_15_1.jpg,Travel,,,sub-36
Desktop or Laptop,Windows 10,Chrome 138.0.0.0,1920x1080,941x944,Temporal Distance Task,cb_09,57.0,temp_dist_trial,dist_items,qkpkxw,2.0,continue,,1647.9000000238302,1645.8999999999942,1647.9000000238302,1647.9000000238302,1645.8999999999942,1647.9000000238302,1.0,0.0,0.0,,Click To Continue,Next button,7.0,object-60,temp_dist_trial,9.0,t_s_15_1,travel_shared,luggage tag,9.0,competing,paired,t_s_15_1.jpg,Travel,,,sub-36
Desktop or Laptop,Windows 10,Chrome 138.0.0.0,1920x1080,941x944,Temporal Distance Task,cb_09,57.0,temp_dist_trial,dist_items,qkpkxw,2.0,response,18,444.3999999999942,1645.8999999999942,1648.2000000953558,444.3999999999942,1645.8999999999942,1648.2000000953558,1.0,1203.8000000953614,0.0,,Slider,Slider,4.0,object-56,temp_dist_trial,9.0,t_s_15_1,travel_shared,luggage tag,9.0,competing,paired,t_s_15_1.jpg,Travel,,,sub-36
Desktop or Laptop,Windows 10,Chrome 138.0.0.0,1920x1080,941x944,Temporal Distance Task,cb_09,58.0,temp_dist_trial,num_items,zn7si1,1.0,response,2_ITEM,1401.2000000715198,1395.7999999999884,1401.2000000715198,1401.2000000715198,1395.7999999999884,1401.2000000715198,1.0,0.0,0.0,,Click Response,2_count,5.0,object-49,temp_dist_trial,10.0,t_i_04_1,travel_Iceland,portable camping stove,9.0,unique,paired,t_i_04_1.jpg,Travel,,,sub-36
Desktop or Laptop,Windows 10,Chrome 138.0.0.0,1920x1080,941x944,Temporal Distance Task,cb_09,58.0,temp_dist_trial,dist_items,qkpkxw,2.0,info,,2.0000000953732524,0.0,2.0000000953732524,2.0000000953732524,0.0,2.0000000953732524,1.0,0.0,0.0,,Slider,Slider,4.0,object-56,temp_dist_trial,10.0,t_i_04_1,travel_Iceland,portable camping stove,9.0,unique,paired,t_i_04_1.jpg,Travel,,,sub-36
Desktop or Laptop,Windows 10,Chrome 138.0.0.0,1920x1080,941x944,Temporal Distance Task,cb_09,58.0,temp_dist_trial,dist_items,qkpkxw,2.0,continue,,1491.4000000715314,1486.1000000000058,1491.4000000715314,1491.4000000715314,1486.1000000000058,1491.4000000715314,1.0,0.0,0.0,,Click To Continue,Next button,7.0,object-60,temp_dist_trial,10.0,t_i_04_1,travel_Iceland,portable camping stove,9.0,unique,paired,t_i_04_1.jpg,Travel,,,sub-36
Desktop or Laptop,Windows 10,Chrome 138.0.0.0,1920x1080,941x944,Temporal Distance Task,cb_09,58.0,temp_dist_trial,dist_items,qkpkxw,2.0,response,17,541.6000000000058,1486.1000000000058,1491.6000000000058,541.6000000000058,1486.1000000000058,1491.6000000000058,1.0,950.0,0.0,,Slider,Slider,4.0,object-56,temp_dist_trial,10.0,t_i_04_1,travel_Iceland,portable camping stove,9.0,unique,paired,t_i_04_1.jpg,Travel,,,sub-36
Desktop or Laptop,Windows 10,Chrome 138.0.0.0,1920x1080,941x944,Temporal Distance Task,cb_09,59.0,temp_dist_trial,num_items,zn7si1,1.0,response,2_ITEM,1642.2000000476835,1638.8999999999942,1642.2000000476835,1642.2000000476835,1638.8999999999942,1642.2000000476835,1.0,0.0,0.0,,Click Response,2_count,5.0,object-49,temp_dist_trial,11.0,t_m_05_1,travel_Miami,sunscreen,9.0,unique,single,t_m_05_1.jpg,Travel,,,sub-36
Desktop or Laptop,Windows 10,Chrome 138.0.0.0,1920x1080,941x944,Temporal Distance Task,cb_09,59.0,temp_dist_trial,dist_items,qkpkxw,2.0,info,,1.8000000476895366,0.0,1.8000000476895366,1.8000000476895366,0.0,1.8000000476895366,1.0,0.0,0.0,,Slider,Slider,4.0,object-56,temp_dist_trial,11.0,t_m_05_1,travel_Miami,sunscreen,9.0,unique,single,t_m_05_1.jpg,Travel,,,sub-36
Desktop or Laptop,Windows 10,Chrome 138.0.0.0,1920x1080,941x944,Temporal Distance Task,cb_09,59.0,temp_dist_trial,dist_items,qkpkxw,2.0,continue,,1907.4000000715314,1902.6000000000056,1907.4000000715314,1907.4000000715314,1902.6000000000056,1907.4000000715314,1.0,0.0,0.0,,Click To Continue,Next button,7.0,object-60,temp_dist_trial,11.0,t_m_05_1,travel_Miami,sunscreen,9.0,unique,single,t_m_05_1.jpg,Travel,,,sub-36
Desktop or Laptop,Windows 10,Chrome 138.0.0.0,1920x1080,941x944,Temporal Distance Task,cb_09,59.0,temp_dist_trial,dist_items,qkpkxw,2.0,response,27,861.2000000000116,1902.6000000000056,1907.700000023848,861.2000000000116,1902.6000000000056,1907.700000023848,1.0,1046.500000023836,0.0,,Slider,Slider,4.0,object-56,temp_dist_trial,11.0,t_m_05_1,travel_Miami,sunscreen,9.0,unique,single,t_m_05_1.jpg,Travel,,,sub-36
Desktop or Laptop,Windows 10,Chrome 138.0.0.0,1920x1080,941x944,Temporal Distance Task,cb_09,60.0,temp_dist_trial,num_items,zn7si1,1.0,response,1_ITEM,1088.100000023842,1083.6000000000058,1088.100000023842,1088.100000023842,1083.6000000000058,1088.100000023842,1.0,0.0,0.0,,Click Response,1_count,3.0,object-46,temp_dist_trial,12.0,t_s_17_1,travel_shared,toothbrush,9.0,competing,single,t_s_17_1.jpg,Travel,,,sub-36
Desktop or Laptop,Windows 10,Chrome 138.0.0.0,1920x1080,941x944,Temporal Distance Task,cb_09,61.0,temp_dist_trial,num_items,zn7si1,1.0,response,1_ITEM,934.3000000953616,930.5,934.3000000953616,934.3000000953616,930.5,934.3000000953616,1.0,0.0,0.0,,Click Response,1_count,3.0,object-46,temp_dist_trial,13.0,t_s_18_1,travel_shared,first aid kit,9.0,competing,single,t_s_18_1.jpg,Travel,,,sub-36
Desktop or Laptop,Windows 10,Chrome 138.0.0.0,1920x1080,941x944,Temporal Distance Task,cb_09,62.0,temp_dist_trial,num_items,zn7si1,1.0,response,2_ITEM,2044.0000000715368,2042.0,2044.0000000715368,2044.0000000715368,2042.0,2044.0000000715368,1.0,0.0,0.0,,Click Response,2_count,5.0,object-49,temp_dist_trial,14.0,t_s_10_1,travel_shared,luggage lock,9.0,competing,paired,t_s_10_1.jpg,Travel,,,sub-36
Desktop or Laptop,Windows 10,Chrome 138.0.0.0,1920x1080,941x944,Temporal Distance Task,cb_09,62.0,temp_dist_trial,dist_items,qkpkxw,2.0,info,,2.100000071513932,0.0,2.100000071513932,2.100000071513932,0.0,2.100000071513932,1.0,0.0,0.0,,Slider,Slider,4.0,object-56,temp_dist_trial,14.0,t_s_10_1,travel_shared,luggage lock,9.0,competing,paired,t_s_10_1.jpg,Travel,,,sub-36
Desktop or Laptop,Windows 10,Chrome 138.0.0.0,1920x1080,941x944,Temporal Distance Task,cb_09,62.0,temp_dist_trial,dist_items,qkpkxw,2.0,continue,,1384.2999999999884,1382.0,1384.2999999999884,1384.2999999999884,1382.0,1384.2999999999884,1.0,0.0,0.0,,Click To Continue,Next button,7.0,object-60,temp_dist_trial,14.0,t_s_10_1,travel_shared,luggage lock,9.0,competing,paired,t_s_10_1.jpg,Travel,,,sub-36
Desktop or Laptop,Windows 10,Chrome 138.0.0.0,1920x1080,941x944,Temporal Distance Task,cb_09,62.0,temp_dist_trial,dist_items,qkpkxw,2.0,response,54,562.5999999999766,1382.0,1384.500000047672,562.5999999999766,1382.0,1384.500000047672,1.0,821.9000000476954,0.0,,Slider,Slider,4.0,object-56,temp_dist_trial,14.0,t_s_10_1,travel_shared,luggage lock,9.0,competing,paired,t_s_10_1.jpg,Travel,,,sub-36
Desktop or Laptop,Windows 10,Chrome 138.0.0.0,1920x1080,941x944,Temporal Distance Task,cb_09,63.0,temp_dist_trial,num_items,zn7si1,1.0,response,2_ITEM,1313.500000047672,1312.5999999999767,1313.500000047672,1313.500000047672,1312.5999999999767,1313.500000047672,1.0,0.0,0.0,,Click Response,2_count,5.0,object-49,temp_dist_trial,15.0,t_i_08_1,travel_Iceland,thick socks,9.0,unique,paired,t_i_08_1.jpg,Travel,,,sub-36
Desktop or Laptop,Windows 10,Chrome 138.0.0.0,1920x1080,941x944,Temporal Distance Task,cb_09,63.0,temp_dist_trial,dist_items,qkpkxw,2.0,info,,2.0000000476720743,0.0,2.0000000476720743,2.0000000476720743,0.0,2.0000000476720743,1.0,0.0,0.0,,Slider,Slider,4.0,object-56,temp_dist_trial,15.0,t_i_08_1,travel_Iceland,thick socks,9.0,unique,paired,t_i_08_1.jpg,Travel,,,sub-36
Desktop or Laptop,Windows 10,Chrome 138.0.0.0,1920x1080,941x944,Temporal Distance Task,cb_09,63.0,temp_dist_trial,dist_items,qkpkxw,2.0,continue,,1609.7999999999884,1604.0,1609.7999999999884,1609.7999999999884,1604.0,1609.7999999999884,1.0,0.0,0.0,,Click To Continue,Next button,7.0,object-60,temp_dist_trial,15.0,t_i_08_1,travel_Iceland,thick socks,9.0,unique,paired,t_i_08_1.jpg,Travel,,,sub-36
Desktop or Laptop,Windows 10,Chrome 138.0.0.0,1920x1080,941x944,Temporal Distance Task,cb_09,63.0,temp_dist_trial,dist_items,qkpkxw,2.0,response,29,500.0999999999767,1604.0,1610.2000000953558,500.0999999999767,1604.0,1610.2000000953558,1.0,1110.100000095379,0.0,,Slider,Slider,4.0,object-56,temp_dist_trial,15.0,t_i_08_1,travel_Iceland,thick socks,9.0,unique,paired,t_i_08_1.jpg,Travel,,,sub-36
Desktop or Laptop,Windows 10,Chrome 138.0.0.0,1920x1080,941x944,Temporal Distance Task,cb_09,64.0,temp_dist_trial,num_items,zn7si1,1.0,response,2_ITEM,1245.7999999999886,1243.2999999999886,1245.7999999999886,1245.7999999999886,1243.2999999999886,1245.7999999999886,1.0,0.0,0.0,,Click Response,2_count,5.0,object-49,temp_dist_trial,16.0,t_s_04_1,travel_shared,instant camera,9.0,competing,paired,t_s_04_1.jpg,Travel,,,sub-36
Desktop or Laptop,Windows 10,Chrome 138.0.0.0,1920x1080,941x944,Temporal Distance Task,cb_09,64.0,temp_dist_trial,dist_items,qkpkxw,2.0,info,,1.9000000953674319,0.0,1.9000000953674319,1.9000000953674319,0.0,1.9000000953674319,1.0,0.0,0.0,,Slider,Slider,4.0,object-56,temp_dist_trial,16.0,t_s_04_1,travel_shared,instant camera,9.0,competing,paired,t_s_04_1.jpg,Travel,,,sub-36
Desktop or Laptop,Windows 10,Chrome 138.0.0.0,1920x1080,941x944,Temporal Distance Task,cb_09,64.0,temp_dist_trial,dist_items,qkpkxw,2.0,continue,,1536.6000000238419,1534.3999999999942,1536.6000000238419,1536.6000000238419,1534.3999999999942,1536.6000000238419,1.0,0.0,0.0,,Click To Continue,Next button,7.0,object-60,temp_dist_trial,16.0,t_s_04_1,travel_shared,instant camera,9.0,competing,paired,t_s_04_1.jpg,Travel,,,sub-36
Desktop or Laptop,Windows 10,Chrome 138.0.0.0,1920x1080,941x944,Temporal Distance Task,cb_09,64.0,temp_dist_trial,dist_items,qkpkxw,2.0,response,67,430.6000000000058,1534.3999999999942,1538.9000000953674,430.6000000000058,1534.3999999999942,1538.9000000953674,1.0,1108.3000000953616,0.0,,Slider,Slider,4.0,object-56,temp_dist_trial,16.0,t_s_04_1,travel_shared,instant camera,9.0,competing,paired,t_s_04_1.jpg,Travel,,,sub-36
Desktop or Laptop,Windows 10,Chrome 138.0.0.0,1920x1080,941x944,Temporal Distance Task,cb_09,65.0,temp_dist_trial,num_items,zn7si1,1.0,response,2_ITEM,1106.2000000238477,1104.5,1106.2000000238477,1106.2000000238477,1104.5,1106.2000000238477,1.0,0.0,0.0,,Click Response,2_count,5.0,object-49,temp_dist_trial,17.0,t_m_15_1,travel_Miami,shorts,9.0,unique,paired,t_m_15_1.jpg,Travel,,,sub-36
Desktop or Laptop,Windows 10,Chrome 138.0.0.0,1920x1080,941x944,Temporal Distance Task,cb_09,65.0,temp_dist_trial,dist_items,qkpkxw,2.0,info,,1.9000000715313945,0.0,1.9000000715313945,1.9000000715313945,0.0,1.9000000715313945,1.0,0.0,0.0,,Slider,Slider,4.0,object-56,temp_dist_trial,17.0,t_m_15_1,travel_Miami,shorts,9.0,unique,paired,t_m_15_1.jpg,Travel,,,sub-36
Desktop or Laptop,Windows 10,Chrome 138.0.0.0,1920x1080,941x944,Temporal Distance Task,cb_09,65.0,temp_dist_trial,dist_items,qkpkxw,2.0,continue,,1498.9000000715314,1493.1000000000058,1498.9000000715314,1498.9000000715314,1493.1000000000058,1498.9000000715314,1.0,0.0,0.0,,Click To Continue,Next button,7.0,object-60,temp_dist_trial,17.0,t_m_15_1,travel_Miami,shorts,9.0,unique,paired,t_m_15_1.jpg,Travel,,,sub-36
Desktop or Laptop,Windows 10,Chrome 138.0.0.0,1920x1080,941x944,Temporal Distance Task,cb_09,65.0,temp_dist_trial,dist_items,qkpkxw,2.0,response,69,611.1000000000057,1493.1000000000058,1499.1000000000058,611.1000000000057,1493.1000000000058,1499.1000000000058,1.0,888.0,0.0,,Slider,Slider,4.0,object-56,temp_dist_trial,17.0,t_m_15_1,travel_Miami,shorts,9.0,unique,paired,t_m_15_1.jpg,Travel,,,sub-36
Desktop or Laptop,Windows 10,Chrome 138.0.0.0,1920x1080,941x944,Temporal Distance Task,cb_09,66.0,temp_dist_trial,num_items,zn7si1,1.0,response,1_ITEM,858.6000000238419,853.8999999999942,858.6000000238419,858.6000000238419,853.8999999999942,858.6000000238419,1.0,0.0,0.0,,Click Response,1_count,3.0,object-46,temp_dist_trial,18.0,t_m_09_1,travel_Miami,beach towel,9.0,unique,single,t_m_09_1.jpg,Travel,,,sub-36
Desktop or Laptop,Windows 10,Chrome 138.0.0.0,1920x1080,941x944,Temporal Distance Task,cb_09,67.0,temp_dist_trial,num_items,zn7si1,1.0,response,2_ITEM,1460.600000071514,1458.1999999999825,1460.600000071514,1460.600000071514,1458.1999999999825,1460.600000071514,1.0,0.0,0.0,,Click Response,2_count,5.0,object-49,temp_dist_trial,19.0,t_i_18_1,travel_Iceland,ski mask,9.0,unique,paired,t_i_18_1.jpg,Travel,,,sub-36
Desktop or Laptop,Windows 10,Chrome 138.0.0.0,1920x1080,941x944,Temporal Distance Task,cb_09,67.0,temp_dist_trial,dist_items,qkpkxw,2.0,info,,1.9000000238302164,0.0,1.9000000238302164,1.9000000238302164,0.0,1.9000000238302164,1.0,0.0,0.0,,Slider,Slider,4.0,object-56,temp_dist_trial,19.0,t_i_18_1,travel_Iceland,ski mask,9.0,unique,paired,t_i_18_1.jpg,Travel,,,sub-36
Desktop or Laptop,Windows 10,Chrome 138.0.0.0,1920x1080,941x944,Temporal Distance Task,cb_09,67.0,temp_dist_trial,dist_items,qkpkxw,2.0,continue,,1224.600000071514,1222.5,1224.600000071514,1224.600000071514,1222.5,1224.600000071514,1.0,0.0,0.0,,Click To Continue,Next button,7.0,object-60,temp_dist_trial,19.0,t_i_18_1,travel_Iceland,ski mask,9.0,unique,paired,t_i_18_1.jpg,Travel,,,sub-36
Desktop or Laptop,Windows 10,Chrome 138.0.0.0,1920x1080,941x944,Temporal Distance Task,cb_09,67.0,temp_dist_trial,dist_items,qkpkxw,2.0,response,25,486.2999999999884,1222.5,1224.9000000238302,486.2999999999884,1222.5,1224.9000000238302,1.0,738.6000000238419,0.0,,Slider,Slider,4.0,object-56,temp_dist_trial,19.0,t_i_18_1,travel_Iceland,ski mask,9.0,unique,paired,t_i_18_1.jpg,Travel,,,sub-36
Desktop or Laptop,Windows 10,Chrome 138.0.0.0,1920x1080,941x944,Temporal Distance Task,cb_09,68.0,temp_dist_trial,num_items,zn7si1,1.0,response,1_ITEM,1475.100000071514,1472.1999999999825,1475.100000071514,1475.100000071514,1472.1999999999825,1475.100000071514,1.0,0.0,0.0,,Click Response,1_count,3.0,object-46,temp_dist_trial,20.0,t_s_06_1,travel_shared,luggage,9.0,competing,paired,t_s_06_1.jpg,Travel,,,sub-36
Desktop or Laptop,Windows 10,Chrome 138.0.0.0,1920x1080,941x944,Temporal Distance Task,cb_09,69.0,temp_dist_trial,num_items,zn7si1,1.0,response,1_ITEM,2413.200000023848,2409.800000000017,2413.200000023848,2413.200000023848,2409.800000000017,2413.200000023848,1.0,0.0,0.0,,Click Response,1_count,3.0,object-46,temp_dist_trial,21.0,t_s_19_1,travel_shared,pajamas,9.0,competing,paired,t_s_19_1.jpg,Travel,,,sub-36
Desktop or Laptop,Windows 10,Chrome 138.0.0.0,1920x1080,941x944,Temporal Distance Task,cb_09,70.0,temp_dist_trial,num_items,zn7si1,1.0,response,2_ITEM,1097.0999999999767,1090.1999999999823,1097.0999999999767,1097.0999999999767,1090.1999999999823,1097.0999999999767,1.0,0.0,0.0,,Click Response,2_count,5.0,object-49,temp_dist_trial,22.0,t_s_01_1,travel_shared,fanny pack,9.0,competing,paired,t_s_01_1.jpg,Travel,,,sub-36
Desktop or Laptop,Windows 10,Chrome 138.0.0.0,1920x1080,941x944,Temporal Distance Task,cb_09,70.0,temp_dist_trial,dist_items,qkpkxw,2.0,info,,1.7000000476837158,0.0,1.7000000476837158,1.7000000476837158,0.0,1.7000000476837158,1.0,0.0,0.0,,Slider,Slider,4.0,object-56,temp_dist_trial,22.0,t_s_01_1,travel_shared,fanny pack,9.0,competing,paired,t_s_01_1.jpg,Travel,,,sub-36
Desktop or Laptop,Windows 10,Chrome 138.0.0.0,1920x1080,941x944,Temporal Distance Task,cb_09,70.0,temp_dist_trial,dist_items,qkpkxw,2.0,continue,,1012.100000023842,1006.8999999999942,1012.100000023842,1012.100000023842,1006.8999999999942,1012.100000023842,1.0,0.0,0.0,,Click To Continue,Next button,7.0,object-60,temp_dist_trial,22.0,t_s_01_1,travel_shared,fanny pack,9.0,competing,paired,t_s_01_1.jpg,Travel,,,sub-36
Desktop or Laptop,Windows 10,Chrome 138.0.0.0,1920x1080,941x944,Temporal Distance Task,cb_09,70.0,temp_dist_trial,dist_items,qkpkxw,2.0,response,28,395.7999999999884,1006.8999999999942,1012.3000000715256,395.7999999999884,1006.8999999999942,1012.3000000715256,1.0,616.5000000715372,0.0,,Slider,Slider,4.0,object-56,temp_dist_trial,22.0,t_s_01_1,travel_shared,fanny pack,9.0,competing,paired,t_s_01_1.jpg,Travel,,,sub-36
Desktop or Laptop,Windows 10,Chrome 138.0.0.0,1920x1080,941x944,Temporal Distance Task,cb_09,71.0,temp_dist_trial,num_items,zn7si1,1.0,response,2_ITEM,1415.0000000953733,1409.7000000000116,1415.0000000953733,1415.0000000953733,1409.7000000000116,1415.0000000953733,1.0,0.0,0.0,,Click Response,2_count,5.0,object-49,temp_dist_trial,23.0,t_s_23_1,travel_shared,ball cap,9.0,competing,paired,t_s_23_1.jpg,Travel,,,sub-36
Desktop or Laptop,Windows 10,Chrome 138.0.0.0,1920x1080,941x944,Temporal Distance Task,cb_09,71.0,temp_dist_trial,dist_items,qkpkxw,2.0,info,,2.1000000000058208,0.0,2.1000000000058208,2.1000000000058208,0.0,2.1000000000058208,1.0,0.0,0.0,,Slider,Slider,4.0,object-56,temp_dist_trial,23.0,t_s_23_1,travel_shared,ball cap,9.0,competing,paired,t_s_23_1.jpg,Travel,,,sub-36
Desktop or Laptop,Windows 10,Chrome 138.0.0.0,1920x1080,941x944,Temporal Distance Task,cb_09,71.0,temp_dist_trial,dist_items,qkpkxw,2.0,continue,,1327.6000000000058,1326.6000000000058,1327.6000000000058,1327.6000000000058,1326.6000000000058,1327.6000000000058,1.0,0.0,0.0,,Click To Continue,Next button,7.0,object-60,temp_dist_trial,23.0,t_s_23_1,travel_shared,ball cap,9.0,competing,paired,t_s_23_1.jpg,Travel,,,sub-36
Desktop or Laptop,Windows 10,Chrome 138.0.0.0,1920x1080,941x944,Temporal Distance Task,cb_09,71.0,temp_dist_trial,dist_items,qkpkxw,2.0,response,31,493.2000000000117,1326.6000000000058,1327.8000000476895,493.2000000000117,1326.6000000000058,1327.8000000476895,1.0,834.6000000476779,0.0,,Slider,Slider,4.0,object-56,temp_dist_trial,23.0,t_s_23_1,travel_shared,ball cap,9.0,competing,paired,t_s_23_1.jpg,Travel,,,sub-36
Desktop or Laptop,Windows 10,Chrome 138.0.0.0,1920x1080,941x944,Temporal Distance Task,cb_09,72.0,temp_dist_trial,num_items,zn7si1,1.0,response,2_ITEM,884.0,882.0,884.0,884.0,882.0,884.0,1.0,0.0,0.0,,Click Response,2_count,5.0,object-49,temp_dist_trial,24.0,t_s_16_1,travel_shared,chapstick,9.0,competing,paired,t_s_16_1.jpg,Travel,,,sub-36
Desktop or Laptop,Windows 10,Chrome 138.0.0.0,1920x1080,941x944,Temporal Distance Task,cb_09,72.0,temp_dist_trial,dist_items,qkpkxw,2.0,info,,1.9000000953674319,0.0,1.9000000953674319,1.9000000953674319,0.0,1.9000000953674319,1.0,0.0,0.0,,Slider,Slider,4.0,object-56,temp_dist_trial,24.0,t_s_16_1,travel_shared,chapstick,9.0,competing,paired,t_s_16_1.jpg,Travel,,,sub-36
Desktop or Laptop,Windows 10,Chrome 138.0.0.0,1920x1080,941x944,Temporal Distance Task,cb_09,72.0,temp_dist_trial,dist_items,qkpkxw,2.0,continue,,1373.100000023842,1368.0,1373.100000023842,1373.100000023842,1368.0,1373.100000023842,1.0,0.0,0.0,,Click To Continue,Next button,7.0,object-60,temp_dist_trial,24.0,t_s_16_1,travel_shared,chapstick,9.0,competing,paired,t_s_16_1.jpg,Travel,,,sub-36
Desktop or Laptop,Windows 10,Chrome 138.0.0.0,1920x1080,941x944,Temporal Distance Task,cb_09,72.0,temp_dist_trial,dist_items,qkpkxw,2.0,response,16,493.1000000000058,1368.0,1373.4000000953674,493.1000000000058,1368.0,1373.4000000953674,1.0,880.3000000953616,0.0,,Slider,Slider,4.0,object-56,temp_dist_trial,24.0,t_s_16_1,travel_shared,chapstick,9.0,competing,paired,t_s_16_1.jpg,Travel,,,sub-36
Desktop or Laptop,Windows 10,Chrome 138.0.0.0,1920x1080,941x944,Temporal Distance Task,cb_09,73.0,temp_dist_trial,num_items,zn7si1,1.0,response,2_ITEM,1356.0,1354.2000000000114,1356.0,1356.0,1354.2000000000114,1356.0,1.0,0.0,0.0,,Click Response,2_count,5.0,object-49,temp_dist_trial,25.0,t_m_16_1,travel_Miami,flippers,9.0,unique,paired,t_m_16_1.jpg,Travel,,,sub-36
Desktop or Laptop,Windows 10,Chrome 138.0.0.0,1920x1080,941x944,Temporal Distance Task,cb_09,73.0,temp_dist_trial,dist_items,qkpkxw,2.0,info,,2.100000071513932,0.0,2.100000071513932,2.100000071513932,0.0,2.100000071513932,1.0,0.0,0.0,,Slider,Slider,4.0,object-56,temp_dist_trial,25.0,t_m_16_1,travel_Miami,flippers,9.0,unique,paired,t_m_16_1.jpg,Travel,,,sub-36
Desktop or Laptop,Windows 10,Chrome 138.0.0.0,1920x1080,941x944,Temporal Distance Task,cb_09,73.0,temp_dist_trial,dist_items,qkpkxw,2.0,continue,,1909.6999999999825,1902.7999999999884,1909.6999999999825,1909.6999999999825,1902.7999999999884,1909.6999999999825,1.0,0.0,0.0,,Click To Continue,Next button,7.0,object-60,temp_dist_trial,25.0,t_m_16_1,travel_Miami,flippers,9.0,unique,paired,t_m_16_1.jpg,Travel,,,sub-36
Desktop or Laptop,Windows 10,Chrome 138.0.0.0,1920x1080,941x944,Temporal Distance Task,cb_09,73.0,temp_dist_trial,dist_items,qkpkxw,2.0,response,12,562.5,1902.7999999999884,1909.6999999999825,562.5,1902.7999999999884,1909.6999999999825,1.0,1347.1999999999825,0.0,,Slider,Slider,4.0,object-56,temp_dist_trial,25.0,t_m_16_1,travel_Miami,flippers,9.0,unique,paired,t_m_16_1.jpg,Travel,,,sub-36
Desktop or Laptop,Windows 10,Chrome 138.0.0.0,1920x1080,941x944,Temporal Distance Task,cb_09,74.0,temp_dist_trial,num_items,zn7si1,1.0,response,1_ITEM,1015.2000000476836,1013.8999999999942,1015.2000000476836,1015.2000000476836,1013.8999999999942,1015.2000000476836,1.0,0.0,0.0,,Click Response,1_count,3.0,object-46,temp_dist_trial,26.0,t_i_14_1,travel_Iceland,snow pants,9.0,unique,paired,t_i_14_1.jpg,Travel,,,sub-36
Desktop or Laptop,Windows 10,Chrome 138.0.0.0,1920x1080,941x944,Temporal Distance Task,cb_09,75.0,temp_dist_trial,num_items,zn7si1,1.0,response,1_ITEM,1346.6000000000058,1340.2000000000114,1346.6000000000058,1346.6000000000058,1340.2000000000114,1346.6000000000058,1.0,0.0,0.0,,Click Response,1_count,3.0,object-46,temp_dist_trial,27.0,t_s_20_1,travel_shared,travel pill case,9.0,competing,single,t_s_20_1.jpg,Travel,,,sub-36
Desktop or Laptop,Windows 10,Chrome 138.0.0.0,1920x1080,941x944,Temporal Distance Task,cb_09,76.0,temp_dist_trial,num_items,zn7si1,1.0,response,1_ITEM,1002.4000000715314,1000.3000000000177,1002.4000000715314,1002.4000000715314,1000.3000000000177,1002.4000000715314,1.0,0.0,0.0,,Click Response,1_count,3.0,object-46,temp_dist_trial,28.0,t_s_07_1,travel_shared,phone charger cable,9.0,competing,single,t_s_07_1.jpg,Travel,,,sub-36
Desktop or Laptop,Windows 10,Chrome 138.0.0.0,1920x1080,941x944,Temporal Distance Task,cb_09,77.0,temp_dist_trial,num_items,zn7si1,1.0,response,1_ITEM,1296.5,1291.8999999999942,1296.5,1296.5,1291.8999999999942,1296.5,1.0,0.0,0.0,,Click Response,1_count,3.0,object-46,temp_dist_trial,29.0,t_i_10_1,travel_Iceland,trekking poles,9.0,unique,paired,t_i_10_1.jpg,Travel,,,sub-36
Desktop or Laptop,Windows 10,Chrome 138.0.0.0,1920x1080,941x944,Temporal Distance Task,cb_09,78.0,temp_dist_trial,num_items,zn7si1,1.0,response,1_ITEM,2298.800000000017,2291.800000000017,2298.800000000017,2298.800000000017,2291.800000000017,2298.800000000017,1.0,0.0,0.0,,Click Response,1_count,3.0,object-46,temp_dist_trial,30.0,t_s_03_1,travel_shared,portable charger,9.0,competing,paired,t_s_03_1.jpg,Travel,,,sub-36
Desktop or Laptop,Windows 10,Chrome 138.0.0.0,1920x1080,941x944,Temporal Distance Task,cb_09,79.0,temp_dist_trial,num_items,zn7si1,1.0,response,1_ITEM,1195.3999999999942,1194.3999999999942,1195.3999999999942,1195.3999999999942,1194.3999999999942,1195.3999999999942,1.0,0.0,0.0,,Click Response,1_count,3.0,object-46,temp_dist_trial,31.0,t_s_09_1,travel_shared,wallet,9.0,competing,paired,t_s_09_1.jpg,Travel,,,sub-36
Desktop or Laptop,Windows 10,Chrome 138.0.0.0,1920x1080,941x944,Temporal Distance Task,cb_09,80.0,temp_dist_trial,num_items,zn7si1,1.0,response,2_ITEM,1222.000000000029,1215.2000000000114,1222.000000000029,1222.000000000029,1215.2000000000114,1222.000000000029,1.0,0.0,0.0,,Click Response,2_count,5.0,object-49,temp_dist_trial,32.0,t_m_19_1,travel_Miami,surfboard,9.0,unique,paired,t_m_19_1.jpg,Travel,,,sub-36
Desktop or Laptop,Windows 10,Chrome 138.0.0.0,1920x1080,941x944,Temporal Distance Task,cb_09,80.0,temp_dist_trial,dist_items,qkpkxw,2.0,info,,2.20000009535579,0.0,2.20000009535579,2.20000009535579,0.0,2.20000009535579,1.0,0.0,0.0,,Slider,Slider,4.0,object-56,temp_dist_trial,32.0,t_m_19_1,travel_Miami,surfboard,9.0,unique,paired,t_m_19_1.jpg,Travel,,,sub-36
Desktop or Laptop,Windows 10,Chrome 138.0.0.0,1920x1080,941x944,Temporal Distance Task,cb_09,80.0,temp_dist_trial,dist_items,qkpkxw,2.0,continue,,2017.2999999999884,2014.0,2017.2999999999884,2017.2999999999884,2014.0,2017.2999999999884,1.0,0.0,0.0,,Click To Continue,Next button,7.0,object-60,temp_dist_trial,32.0,t_m_19_1,travel_Miami,surfboard,9.0,unique,paired,t_m_19_1.jpg,Travel,,,sub-36
Desktop or Laptop,Windows 10,Chrome 138.0.0.0,1920x1080,941x944,Temporal Distance Task,cb_09,80.0,temp_dist_trial,dist_items,qkpkxw,2.0,response,65,680.5999999999767,2014.0,2017.600000071514,680.5999999999767,2014.0,2017.600000071514,1.0,1337.0000000715372,0.0,,Slider,Slider,4.0,object-56,temp_dist_trial,32.0,t_m_19_1,travel_Miami,surfboard,9.0,unique,paired,t_m_19_1.jpg,Travel,,,sub-36
Desktop or Laptop,Windows 10,Chrome 138.0.0.0,1920x1080,941x944,Temporal Distance Task,cb_09,81.0,temp_dist_trial,num_items,zn7si1,1.0,response,2_ITEM,1308.2999999999886,1305.5,1308.2999999999886,1308.2999999999886,1305.5,1308.2999999999886,1.0,0.0,0.0,,Click Response,2_count,5.0,object-49,temp_dist_trial,33.0,t_m_06_1,travel_Miami,handheld fan,9.0,unique,paired,t_m_06_1.jpg,Travel,,,sub-36
Desktop or Laptop,Windows 10,Chrome 138.0.0.0,1920x1080,941x944,Temporal Distance Task,cb_09,81.0,temp_dist_trial,dist_items,qkpkxw,2.0,info,,1.7999999999883585,0.0,1.7999999999883585,1.7999999999883585,0.0,1.7999999999883585,1.0,0.0,0.0,,Slider,Slider,4.0,object-56,temp_dist_trial,33.0,t_m_06_1,travel_Miami,handheld fan,9.0,unique,paired,t_m_06_1.jpg,Travel,,,sub-36
Desktop or Laptop,Windows 10,Chrome 138.0.0.0,1920x1080,941x944,Temporal Distance Task,cb_09,81.0,temp_dist_trial,dist_items,qkpkxw,2.0,continue,,1313.9000000238302,1312.5999999999767,1313.9000000238302,1313.9000000238302,1312.5999999999767,1313.9000000238302,1.0,0.0,0.0,,Click To Continue,Next button,7.0,object-60,temp_dist_trial,33.0,t_m_06_1,travel_Miami,handheld fan,9.0,unique,paired,t_m_06_1.jpg,Travel,,,sub-36
Desktop or Laptop,Windows 10,Chrome 138.0.0.0,1920x1080,941x944,Temporal Distance Task,cb_09,81.0,temp_dist_trial,dist_items,qkpkxw,2.0,response,36,527.8999999999942,1312.5999999999767,1314.2000000953558,527.8999999999942,1312.5999999999767,1314.2000000953558,1.0,786.3000000953616,0.0,,Slider,Slider,4.0,object-56,temp_dist_trial,33.0,t_m_06_1,travel_Miami,handheld fan,9.0,unique,paired,t_m_06_1.jpg,Travel,,,sub-36
Desktop or Laptop,Windows 10,Chrome 138.0.0.0,1920x1080,941x944,Temporal Distance Task,cb_09,82.0,temp_dist_trial,num_items,zn7si1,1.0,response,1_ITEM,1098.2000000000116,1097.2000000000116,1098.2000000000116,1098.2000000000116,1097.2000000000116,1098.2000000000116,1.0,0.0,0.0,,Click Response,1_count,3.0,object-46,temp_dist_trial,34.0,t_i_11_1,travel_Iceland,headlamp,9.0,unique,single,t_i_11_1.jpg,Travel,,,sub-36
Desktop or Laptop,Windows 10,Chrome 138.0.0.0,1920x1080,941x944,Temporal Distance Task,cb_09,83.0,temp_dist_trial,num_items,zn7si1,1.0,response,2_ITEM,1626.2000000476835,1625.0,1626.2000000476835,1626.2000000476835,1625.0,1626.2000000476835,1.0,0.0,0.0,,Click Response,2_count,5.0,object-49,temp_dist_trial,35.0,t_m_08_1,travel_Miami,flipflops,9.0,unique,paired,t_m_08_1.jpg,Travel,,,sub-36
Desktop or Laptop,Windows 10,Chrome 138.0.0.0,1920x1080,941x944,Temporal Distance Task,cb_09,83.0,temp_dist_trial,dist_items,qkpkxw,2.0,info,,1.9000000953674319,0.0,1.9000000953674319,1.9000000953674319,0.0,1.9000000953674319,1.0,0.0,0.0,,Slider,Slider,4.0,object-56,temp_dist_trial,35.0,t_m_08_1,travel_Miami,flipflops,9.0,unique,paired,t_m_08_1.jpg,Travel,,,sub-36
Desktop or Laptop,Windows 10,Chrome 138.0.0.0,1920x1080,941x944,Temporal Distance Task,cb_09,83.0,temp_dist_trial,dist_items,qkpkxw,2.0,continue,,1342.4000000953674,1340.2000000000114,1342.4000000953674,1342.4000000953674,1340.2000000000114,1342.4000000953674,1.0,0.0,0.0,,Click To Continue,Next button,7.0,object-60,temp_dist_trial,35.0,t_m_08_1,travel_Miami,flipflops,9.0,unique,paired,t_m_08_1.jpg,Travel,,,sub-36
Desktop or Laptop,Windows 10,Chrome 138.0.0.0,1920x1080,941x944,Temporal Distance Task,cb_09,83.0,temp_dist_trial,dist_items,qkpkxw,2.0,response,63,437.5,1340.2000000000114,1342.8000000715256,437.5,1340.2000000000114,1342.8000000715256,1.0,905.3000000715256,0.0,,Slider,Slider,4.0,object-56,temp_dist_trial,35.0,t_m_08_1,travel_Miami,flipflops,9.0,unique,paired,t_m_08_1.jpg,Travel,,,sub-36
Desktop or Laptop,Windows 10,Chrome 138.0.0.0,1920x1080,941x944,Temporal Distance Task,cb_09,84.0,temp_dist_trial,num_items,zn7si1,1.0,response,2_ITEM,949.000000047672,944.2999999999884,949.000000047672,949.000000047672,944.2999999999884,949.000000047672,1.0,0.0,0.0,,Click Response,2_count,5.0,object-49,temp_dist_trial,36.0,t_i_19_1,travel_Iceland,rope,9.0,unique,paired,t_i_19_1.jpg,Travel,,,sub-36
Desktop or Laptop,Windows 10,Chrome 138.0.0.0,1920x1080,941x944,Temporal Distance Task,cb_09,84.0,temp_dist_trial,dist_items,qkpkxw,2.0,info,,1.8000000238534994,0.0,1.8000000238534994,1.8000000238534994,0.0,1.8000000238534994,1.0,0.0,0.0,,Slider,Slider,4.0,object-56,temp_dist_trial,36.0,t_i_19_1,travel_Iceland,rope,9.0,unique,paired,t_i_19_1.jpg,Travel,,,sub-36
Desktop or Laptop,Windows 10,Chrome 138.0.0.0,1920x1080,941x944,Temporal Distance Task,cb_09,84.0,temp_dist_trial,dist_items,qkpkxw,2.0,continue,,1092.5000000715372,1090.2000000000116,1092.5000000715372,1092.5000000715372,1090.2000000000116,1092.5000000715372,1.0,0.0,0.0,,Click To Continue,Next button,7.0,object-60,temp_dist_trial,36.0,t_i_19_1,travel_Iceland,rope,9.0,unique,paired,t_i_19_1.jpg,Travel,,,sub-36
Desktop or Laptop,Windows 10,Chrome 138.0.0.0,1920x1080,941x944,Temporal Distance Task,cb_09,84.0,temp_dist_trial,dist_items,qkpkxw,2.0,response,52,493.0,1090.2000000000116,1092.7000000000116,493.0,1090.2000000000116,1092.7000000000116,1.0,599.7000000000116,0.0,,Slider,Slider,4.0,object-56,temp_dist_trial,36.0,t_i_19_1,travel_Iceland,rope,9.0,unique,paired,t_i_19_1.jpg,Travel,,,sub-36
Desktop or Laptop,Windows 10,Chrome 138.0.0.0,1920x1080,941x944,Temporal Distance Task,cb_09,85.0,temp_dist_trial,num_items,zn7si1,1.0,response,1_ITEM,1068.3000000715256,1062.6000000000058,1068.3000000715256,1068.3000000715256,1062.6000000000058,1068.3000000715256,1.0,0.0,0.0,,Click Response,1_count,3.0,object-46,temp_dist_trial,37.0,t_s_05_1,travel_shared,neck pillow,9.0,competing,single,t_s_05_1.jpg,Travel,,,sub-36
Desktop or Laptop,Windows 10,Chrome 138.0.0.0,1920x1080,941x944,Temporal Distance Task,cb_09,86.0,temp_dist_trial,num_items,zn7si1,1.0,response,1_ITEM,1195.4000000953674,1194.5,1195.4000000953674,1195.4000000953674,1194.5,1195.4000000953674,1.0,0.0,0.0,,Click Response,1_count,3.0,object-46,temp_dist_trial,38.0,t_s_13_1,travel_shared,contact lens case,9.0,competing,paired,t_s_13_1.jpg,Travel,,,sub-36
Desktop or Laptop,Windows 10,Chrome 138.0.0.0,1920x1080,941x944,Temporal Distance Task,cb_09,87.0,temp_dist_trial,num_items,zn7si1,1.0,response,1_ITEM,1524.7000000238183,1520.8999999999646,1524.7000000238183,1524.7000000238183,1520.8999999999646,1524.7000000238183,1.0,0.0,0.0,,Click Response,1_count,3.0,object-46,temp_dist_trial,39.0,t_s_21_1,travel_shared,umbrella,9.0,competing,paired,t_s_21_1.jpg,Travel,,,sub-36
Desktop or Laptop,Windows 10,Chrome 138.0.0.0,1920x1080,941x944,Temporal Distance Task,cb_09,88.0,temp_dist_trial,num_items,zn7si1,1.0,response,1_ITEM,1074.0000000238651,1069.600000000035,1074.0000000238651,1074.0000000238651,1069.600000000035,1074.0000000238651,1.0,0.0,0.0,,Click Response,1_count,3.0,object-46,temp_dist_trial,40.0,t_i_12_1,travel_Iceland,tent,9.0,unique,single,t_i_12_1.jpg,Travel,,,sub-36
Desktop or Laptop,Windows 10,Chrome 138.0.0.0,1920x1080,941x944,Temporal Distance Task,cb_09,89.0,temp_dist_trial,num_items,zn7si1,1.0,response,2_ITEM,1474.2999999999884,1472.2999999999884,1474.2999999999884,1474.2999999999884,1472.2999999999884,1474.2999999999884,1.0,0.0,0.0,,Click Response,2_count,5.0,object-49,temp_dist_trial,41.0,t_s_02_1,travel_shared,water bottle,9.0,competing,paired,t_s_02_1.jpg,Travel,,,sub-36
Desktop or Laptop,Windows 10,Chrome 138.0.0.0,1920x1080,941x944,Temporal Distance Task,cb_09,89.0,temp_dist_trial,dist_items,qkpkxw,2.0,info,,1.8000000715255735,0.0,1.8000000715255735,1.8000000715255735,0.0,1.8000000715255735,1.0,0.0,0.0,,Slider,Slider,4.0,object-56,temp_dist_trial,41.0,t_s_02_1,travel_shared,water bottle,9.0,competing,paired,t_s_02_1.jpg,Travel,,,sub-36
Desktop or Laptop,Windows 10,Chrome 138.0.0.0,1920x1080,941x944,Temporal Distance Task,cb_09,89.0,temp_dist_trial,dist_items,qkpkxw,2.0,continue,,1484.1000000238419,1479.2000000000116,1484.1000000238419,1484.1000000238419,1479.2000000000116,1484.1000000238419,1.0,0.0,0.0,,Click To Continue,Next button,7.0,object-60,temp_dist_trial,41.0,t_s_02_1,travel_shared,water bottle,9.0,competing,paired,t_s_02_1.jpg,Travel,,,sub-36
Desktop or Laptop,Windows 10,Chrome 138.0.0.0,1920x1080,941x944,Temporal Distance Task,cb_09,89.0,temp_dist_trial,dist_items,qkpkxw,2.0,response,43,701.4000000000232,1479.2000000000116,1486.0,701.4000000000232,1479.2000000000116,1486.0,1.0,784.5999999999768,0.0,,Slider,Slider,4.0,object-56,temp_dist_trial,41.0,t_s_02_1,travel_shared,water bottle,9.0,competing,paired,t_s_02_1.jpg,Travel,,,sub-36
Desktop or Laptop,Windows 10,Chrome 138.0.0.0,1920x1080,941x944,Temporal Distance Task,cb_09,90.0,temp_dist_trial,num_items,zn7si1,1.0,response,2_ITEM,982.7999999999884,979.0999999999768,982.7999999999884,982.7999999999884,979.0999999999768,982.7999999999884,1.0,0.0,0.0,,Click Response,2_count,5.0,object-49,temp_dist_trial,42.0,t_s_14_1,travel_shared,hand sanitizer,9.0,competing,paired,t_s_14_1.jpg,Travel,,,sub-36
Desktop or Laptop,Windows 10,Chrome 138.0.0.0,1920x1080,941x944,Temporal Distance Task,cb_09,90.0,temp_dist_trial,dist_items,qkpkxw,2.0,info,,1.9000000953674319,0.0,1.9000000953674319,1.9000000953674319,0.0,1.9000000953674319,1.0,0.0,0.0,,Slider,Slider,4.0,object-56,temp_dist_trial,42.0,t_s_14_1,travel_shared,hand sanitizer,9.0,competing,paired,t_s_14_1.jpg,Travel,,,sub-36
Desktop or Laptop,Windows 10,Chrome 138.0.0.0,1920x1080,941x944,Temporal Distance Task,cb_09,90.0,temp_dist_trial,dist_items,qkpkxw,2.0,continue,,1237.3000000715256,1236.4000000000233,1237.3000000715256,1237.3000000715256,1236.4000000000233,1237.3000000715256,1.0,0.0,0.0,,Click To Continue,Next button,7.0,object-60,temp_dist_trial,42.0,t_s_14_1,travel_shared,hand sanitizer,9.0,competing,paired,t_s_14_1.jpg,Travel,,,sub-36
Desktop or Laptop,Windows 10,Chrome 138.0.0.0,1920x1080,941x944,Temporal Distance Task,cb_09,90.0,temp_dist_trial,dist_items,qkpkxw,2.0,response,29,347.5,1236.4000000000233,1237.5,347.5,1236.4000000000233,1237.5,1.0,890.0,0.0,,Slider,Slider,4.0,object-56,temp_dist_trial,42.0,t_s_14_1,travel_shared,hand sanitizer,9.0,competing,paired,t_s_14_1.jpg,Travel,,,sub-36
Desktop or Laptop,Windows 10,Chrome 138.0.0.0,1920x1080,941x944,Temporal Distance Task,cb_09,91.0,temp_dist_trial,num_items,zn7si1,1.0,response,2_ITEM,1102.8000000476604,1097.1999999999532,1102.8000000476604,1102.8000000476604,1097.1999999999532,1102.8000000476604,1.0,0.0,0.0,,Click Response,2_count,5.0,object-49,temp_dist_trial,43.0,t_m_07_1,travel_Miami,sunglasses,9.0,unique,paired,t_m_07_1.jpg,Travel,,,sub-36
Desktop or Laptop,Windows 10,Chrome 138.0.0.0,1920x1080,941x944,Temporal Distance Task,cb_09,91.0,temp_dist_trial,dist_items,qkpkxw,2.0,info,,2.4000000238302164,0.0,2.4000000238302164,2.4000000238302164,0.0,2.4000000238302164,1.0,0.0,0.0,,Slider,Slider,4.0,object-56,temp_dist_trial,43.0,t_m_07_1,travel_Miami,sunglasses,9.0,unique,paired,t_m_07_1.jpg,Travel,,,sub-36
Desktop or Laptop,Windows 10,Chrome 138.0.0.0,1920x1080,941x944,Temporal Distance Task,cb_09,91.0,temp_dist_trial,dist_items,qkpkxw,2.0,continue,,1190.500000047672,1187.399999999965,1190.500000047672,1190.500000047672,1187.399999999965,1190.500000047672,1.0,0.0,0.0,,Click To Continue,Next button,7.0,object-60,temp_dist_trial,43.0,t_m_07_1,travel_Miami,sunglasses,9.0,unique,paired,t_m_07_1.jpg,Travel,,,sub-36
Desktop or Laptop,Windows 10,Chrome 138.0.0.0,1920x1080,941x944,Temporal Distance Task,cb_09,91.0,temp_dist_trial,dist_items,qkpkxw,2.0,response,30,340.20000000001164,1187.399999999965,1190.7000000953558,340.20000000001164,1187.399999999965,1190.7000000953558,1.0,850.5000000953439,0.0,,Slider,Slider,4.0,object-56,temp_dist_trial,43.0,t_m_07_1,travel_Miami,sunglasses,9.0,unique,paired,t_m_07_1.jpg,Travel,,,sub-36
Desktop or Laptop,Windows 10,Chrome 138.0.0.0,1920x1080,941x944,Temporal Distance Task,cb_09,92.0,temp_dist_trial,num_items,zn7si1,1.0,response,1_ITEM,865.2000000715491,860.9000000000232,865.2000000715491,865.2000000715491,860.9000000000232,865.2000000715491,1.0,0.0,0.0,,Click Response,1_count,3.0,object-46,temp_dist_trial,44.0,t_i_16_1,travel_Iceland,skis,9.0,unique,paired,t_i_16_1.jpg,Travel,,,sub-36
Desktop or Laptop,Windows 10,Chrome 138.0.0.0,1920x1080,941x944,Temporal Distance Task,cb_09,93.0,temp_dist_trial,num_items,zn7si1,1.0,response,1_ITEM,1424.3000000476604,1423.5999999999767,1424.3000000476604,1424.3000000476604,1423.5999999999767,1424.3000000476604,1.0,0.0,0.0,,Click Response,1_count,3.0,object-46,temp_dist_trial,45.0,t_i_06_1,travel_Iceland,knit hat,9.0,unique,single,t_i_06_1.jpg,Travel,,,sub-36
Desktop or Laptop,Windows 10,Chrome 138.0.0.0,1920x1080,941x944,Temporal Distance Task,cb_09,94.0,temp_dist_trial,num_items,zn7si1,1.0,response,1_ITEM,863.7000000238188,861.1999999999533,863.7000000238188,863.7000000238188,861.1999999999533,863.7000000238188,1.0,0.0,0.0,,Click Response,1_count,3.0,object-46,temp_dist_trial,46.0,t_s_22_1,travel_shared,belt,9.0,competing,single,t_s_22_1.jpg,Travel,,,sub-36
Desktop or Laptop,Windows 10,Chrome 138.0.0.0,1920x1080,941x944,Temporal Distance Task,cb_09,95.0,temp_dist_trial,num_items,zn7si1,1.0,response,2_ITEM,1342.3000000715256,1340.2999999999886,1342.3000000715256,1342.3000000715256,1340.2999999999886,1342.3000000715256,1.0,0.0,0.0,,Click Response,2_count,5.0,object-49,temp_dist_trial,47.0,t_m_03_1,travel_Miami,wetsuit,9.0,unique,paired,t_m_03_1.jpg,Travel,,,sub-36
Desktop or Laptop,Windows 10,Chrome 138.0.0.0,1920x1080,941x944,Temporal Distance Task,cb_09,95.0,temp_dist_trial,dist_items,qkpkxw,2.0,info,,1.900000047695357,0.0,1.900000047695357,1.900000047695357,0.0,1.900000047695357,1.0,0.0,0.0,,Slider,Slider,4.0,object-56,temp_dist_trial,47.0,t_m_03_1,travel_Miami,wetsuit,9.0,unique,paired,t_m_03_1.jpg,Travel,,,sub-36
Desktop or Laptop,Windows 10,Chrome 138.0.0.0,1920x1080,941x944,Temporal Distance Task,cb_09,95.0,temp_dist_trial,dist_items,qkpkxw,2.0,continue,,1227.0000000715372,1222.2000000000114,1227.0000000715372,1227.0000000715372,1222.2000000000114,1227.0000000715372,1.0,0.0,0.0,,Click To Continue,Next button,7.0,object-60,temp_dist_trial,47.0,t_m_03_1,travel_Miami,wetsuit,9.0,unique,paired,t_m_03_1.jpg,Travel,,,sub-36
