Participant Device,Participant OS,Participant Browser,Participant Monitor Size,Participant Viewport Size,Task Name,Current Spreadsheet,Trial Number,Display,Screen,Screen ID,Screen Counter,Response Type,Response,Onset Time,Clock Time,Reaction Time,Absolute Onset Time,Absolute Clock Time,Absolute Reaction Time,Correct,Response Duration,Proportion,Tag,Component Name,Object Name,Object Number,Object ID,Spreadsheet: display,Spreadsheet: trial,Spreadsheet: stimulus_id,Spreadsheet: expected_goal,Spreadsheet: stimulus_name,Spreadsheet: c_group,Spreadsheet: condition,Spreadsheet: paired_status,Spreadsheet: stimulus_path,Spreadsheet: block_type,Manipulation: Spreadsheet,Store: enc_test_acc,sub_label
Desktop or Laptop,Windows 10,Chrome 138.0.0.0,1536x864,1536x730,Temporal Distance Task,$${counterbalance_group},,,,,,info,BEGIN,,,,,,,0.0,,,,,,,,,,,,,,,,,,,,sub-11
Desktop or Laptop,Windows 10,Chrome 138.0.0.0,1536x864,1536x730,Temporal Distance Task,cb_01,1.0,temp_instructions,intro_screen,3tnme7,1.0,continue,,11043.400000071526,11032.7,11043.400000071526,11043.400000071526,11032.7,11043.400000071526,1.0,0.0,0.0,,Click To Continue,Continue Button,4.0,object-29,temp_instructions,,,Student,,,,,,,,,sub-11
Desktop or Laptop,Windows 10,Chrome 138.0.0.0,1536x864,1536x730,Temporal Distance Task,cb_01,1.0,temp_instructions,intro_screen_2,52v7ur,2.0,continue,,6130.4,6116.699999999999,6130.4,6130.4,6116.699999999999,6130.4,1.0,0.0,0.0,,Click To Continue,Continue Button,4.0,object-39,temp_instructions,,,Student,,,,,,,,,sub-11
Desktop or Laptop,Windows 10,Chrome 138.0.0.0,1536x864,1536x730,Temporal Distance Task,cb_01,1.0,temp_instructions,intro_screen_3,i7lvwx,3.0,continue,,3292.9000000476844,3282.6000000000013,3292.9000000476844,3292.9000000476844,3282.6000000000013,3292.9000000476844,1.0,0.0,0.0,,Click To Continue,Continue Button,4.0,object-67,temp_instructions,,,Student,,,,,,,,,sub-11
Desktop or Laptop,Windows 10,Chrome 138.0.0.0,1536x864,1536x730,Temporal Distance Task,cb_01,1.0,temp_instructions,test_q1,5ieqx1,4.0,response,choice_3,3761.999999976157,3749.8999999999987,3761.999999976157,3761.999999976157,3749.8999999999987,3761.999999976157,1.0,0.0,0.0,,Click Response,choice_3,5.0,object-345,temp_instructions,,,Student,,,,,,,,,sub-11
Desktop or Laptop,Windows 10,Chrome 138.0.0.0,1536x864,1536x730,Temporal Distance Task,cb_01,1.0,temp_instructions,score_corr,7ilvjr,5.0,continue,,1275.5000000715265,1266.6000000000022,1275.5000000715265,1275.5000000715265,1266.6000000000022,1275.5000000715265,1.0,0.0,0.0,,Click To Continue,Continue Button,3.0,object-23,temp_instructions,,,Student,,,,,,,,,sub-11
Desktop or Laptop,Windows 10,Chrome 138.0.0.0,1536x864,1536x730,Temporal Distance Task,cb_01,1.0,temp_eventStart,Screen 1,dgtyxe,1.0,continue,,1800.5,1783.5,1800.5,1800.5,1783.5,1800.5,1.0,0.0,0.0,,Click To Continue,Next Button,3.0,object-43,temp_eventStart,,,Student,,,,,,,,,sub-11
Desktop or Laptop,Windows 10,Chrome 138.0.0.0,1536x864,1536x730,Temporal Distance Task,cb_01,1.0,temp_dist_trial,num_items,zn7si1,1.0,response,1_ITEM,1577.7000000238406,1566.2999999999995,1577.7000000238406,1577.7000000238406,1566.2999999999995,1577.7000000238406,1.0,0.0,0.0,,Click Response,1_count,3.0,object-46,temp_dist_trial,1.0,s_sh_22_1,student_shared,hole puncher,1.0,competing,single,s_sh_22_1.jpg,Student,,,sub-11
Desktop or Laptop,Windows 10,Chrome 138.0.0.0,1536x864,1536x730,Temporal Distance Task,cb_01,2.0,temp_dist_trial,num_items,zn7si1,1.0,response,1_ITEM,976.1000000476853,966.2000000000007,976.1000000476853,976.1000000476853,966.2000000000007,976.1000000476853,1.0,0.0,0.0,,Click Response,1_count,3.0,object-46,temp_dist_trial,2.0,s_sh_08_1,student_shared,post-its,1.0,competing,single,s_sh_08_1.jpg,Student,,,sub-11
Desktop or Laptop,Windows 10,Chrome 138.0.0.0,1536x864,1536x730,Temporal Distance Task,cb_01,3.0,temp_dist_trial,num_items,zn7si1,1.0,response,1_ITEM,2008.0999999761555,2000.1999999999966,2008.0999999761555,2008.0999999761555,2000.1999999999966,2008.0999999761555,1.0,0.0,0.0,,Click Response,1_count,3.0,object-46,temp_dist_trial,3.0,s_sh_10_1,student_shared,scissors,1.0,competing,paired,s_sh_10_1.jpg,Student,,,sub-11
Desktop or Laptop,Windows 10,Chrome 138.0.0.0,1536x864,1536x730,Temporal Distance Task,cb_01,4.0,temp_dist_trial,num_items,zn7si1,1.0,response,2_ITEM,1645.0000000476864,1633.2000000000046,1645.0000000476864,1645.0000000476864,1633.2000000000046,1645.0000000476864,1.0,0.0,0.0,,Click Response,2_count,5.0,object-49,temp_dist_trial,4.0,s_s_07_1,student_stem,periodic table,1.0,unique,paired,s_s_07_1.jpg,Student,,,sub-11
Desktop or Laptop,Windows 10,Chrome 138.0.0.0,1536x864,1536x730,Temporal Distance Task,cb_01,4.0,temp_dist_trial,dist_items,qkpkxw,2.0,info,,5.400000071524119,0.0,5.400000071524119,5.400000071524119,0.0,5.400000071524119,1.0,0.0,0.0,,Slider,Slider,4.0,object-56,temp_dist_trial,4.0,s_s_07_1,student_stem,periodic table,1.0,unique,paired,s_s_07_1.jpg,Student,,,sub-11
Desktop or Laptop,Windows 10,Chrome 138.0.0.0,1536x864,1536x730,Temporal Distance Task,cb_01,4.0,temp_dist_trial,dist_items,qkpkxw,2.0,continue,,2106.0999999999985,2099.900000000001,2106.0999999999985,2106.0999999999985,2099.900000000001,2106.0999999999985,1.0,0.0,0.0,,Click To Continue,Next button,7.0,object-60,temp_dist_trial,4.0,s_s_07_1,student_stem,periodic table,1.0,unique,paired,s_s_07_1.jpg,Student,,,sub-11
Desktop or Laptop,Windows 10,Chrome 138.0.0.0,1536x864,1536x730,Temporal Distance Task,cb_01,4.0,temp_dist_trial,dist_items,qkpkxw,2.0,response,72,1249.9000000000015,2099.900000000001,2106.5999999999985,1249.9000000000015,2099.900000000001,2106.5999999999985,1.0,856.6999999999971,0.0,,Slider,Slider,4.0,object-56,temp_dist_trial,4.0,s_s_07_1,student_stem,periodic table,1.0,unique,paired,s_s_07_1.jpg,Student,,,sub-11
Desktop or Laptop,Windows 10,Chrome 138.0.0.0,1536x864,1536x730,Temporal Distance Task,cb_01,5.0,temp_dist_trial,num_items,zn7si1,1.0,response,1_ITEM,1390.0999999761555,1383.1999999999966,1390.0999999761555,1390.0999999761555,1383.1999999999966,1390.0999999761555,1.0,0.0,0.0,,Click Response,1_count,3.0,object-46,temp_dist_trial,5.0,s_sh_04_1,student_shared,laptop stand,1.0,competing,single,s_sh_04_1.jpg,Student,,,sub-11
Desktop or Laptop,Windows 10,Chrome 138.0.0.0,1536x864,1536x730,Temporal Distance Task,cb_01,6.0,temp_dist_trial,num_items,zn7si1,1.0,response,2_ITEM,1252.0000000238433,1250.2000000000044,1252.0000000238433,1252.0000000238433,1250.2000000000044,1252.0000000238433,1.0,0.0,0.0,,Click Response,2_count,5.0,object-49,temp_dist_trial,6.0,s_sh_11_1,student_shared,pencil case,1.0,competing,paired,s_sh_11_1.jpg,Student,,,sub-11
Desktop or Laptop,Windows 10,Chrome 138.0.0.0,1536x864,1536x730,Temporal Distance Task,cb_01,6.0,temp_dist_trial,dist_items,qkpkxw,2.0,info,,4.599999976155232,0.0,4.599999976155232,4.599999976155232,0.0,4.599999976155232,1.0,0.0,0.0,,Slider,Slider,4.0,object-56,temp_dist_trial,6.0,s_sh_11_1,student_shared,pencil case,1.0,competing,paired,s_sh_11_1.jpg,Student,,,sub-11
Desktop or Laptop,Windows 10,Chrome 138.0.0.0,1536x864,1536x730,Temporal Distance Task,cb_01,6.0,temp_dist_trial,dist_items,qkpkxw,2.0,continue,,1736.3000000238392,1733.2999999999954,1736.3000000238392,1736.3000000238392,1733.2999999999954,1736.3000000238392,1.0,0.0,0.0,,Click To Continue,Next button,7.0,object-60,temp_dist_trial,6.0,s_sh_11_1,student_shared,pencil case,1.0,competing,paired,s_sh_11_1.jpg,Student,,,sub-11
Desktop or Laptop,Windows 10,Chrome 138.0.0.0,1536x864,1536x730,Temporal Distance Task,cb_01,6.0,temp_dist_trial,dist_items,qkpkxw,2.0,response,60,950.0999999999983,1733.2999999999954,1736.6999999999966,950.0999999999983,1733.2999999999954,1736.6999999999966,1.0,786.5999999999983,0.0,,Slider,Slider,4.0,object-56,temp_dist_trial,6.0,s_sh_11_1,student_shared,pencil case,1.0,competing,paired,s_sh_11_1.jpg,Student,,,sub-11
Desktop or Laptop,Windows 10,Chrome 138.0.0.0,1536x864,1536x730,Temporal Distance Task,cb_01,7.0,temp_dist_trial,num_items,zn7si1,1.0,response,2_ITEM,1363.2999999761596,1350.0,1363.2999999761596,1363.2999999761596,1350.0,1363.2999999761596,1.0,0.0,0.0,,Click Response,2_count,5.0,object-49,temp_dist_trial,7.0,s_a_10_1,student_art,tripod,1.0,unique,paired,s_a_10_1.jpg,Student,,,sub-11
Desktop or Laptop,Windows 10,Chrome 138.0.0.0,1536x864,1536x730,Temporal Distance Task,cb_01,7.0,temp_dist_trial,dist_items,qkpkxw,2.0,info,,4.299999976159596,0.0,4.299999976159596,4.299999976159596,0.0,4.299999976159596,1.0,0.0,0.0,,Slider,Slider,4.0,object-56,temp_dist_trial,7.0,s_a_10_1,student_art,tripod,1.0,unique,paired,s_a_10_1.jpg,Student,,,sub-11
Desktop or Laptop,Windows 10,Chrome 138.0.0.0,1536x864,1536x730,Temporal Distance Task,cb_01,7.0,temp_dist_trial,dist_items,qkpkxw,2.0,continue,,2970.700000071527,2966.400000000001,2970.700000071527,2970.700000071527,2966.400000000001,2970.700000071527,1.0,0.0,0.0,,Click To Continue,Next button,7.0,object-60,temp_dist_trial,7.0,s_a_10_1,student_art,tripod,1.0,unique,paired,s_a_10_1.jpg,Student,,,sub-11
Desktop or Laptop,Windows 10,Chrome 138.0.0.0,1536x864,1536x730,Temporal Distance Task,cb_01,7.0,temp_dist_trial,dist_items,qkpkxw,2.0,response,83,983.3000000000028,2966.400000000001,2974.1000000476847,983.3000000000028,2966.400000000001,2974.1000000476847,1.0,1990.8000000476825,0.0,,Slider,Slider,4.0,object-56,temp_dist_trial,7.0,s_a_10_1,student_art,tripod,1.0,unique,paired,s_a_10_1.jpg,Student,,,sub-11
Desktop or Laptop,Windows 10,Chrome 138.0.0.0,1536x864,1536x730,Temporal Distance Task,cb_01,8.0,temp_dist_trial,num_items,zn7si1,1.0,response,1_ITEM,980.3000000715256,966.6999999999972,980.3000000715256,980.3000000715256,966.6999999999972,980.3000000715256,1.0,0.0,0.0,,Click Response,1_count,3.0,object-46,temp_dist_trial,8.0,s_a_12_1,student_art,saxophone,1.0,unique,single,s_a_12_1.jpg,Student,,,sub-11
Desktop or Laptop,Windows 10,Chrome 138.0.0.0,1536x864,1536x730,Temporal Distance Task,cb_01,9.0,temp_dist_trial,num_items,zn7si1,1.0,response,1_ITEM,675.9000000715241,666.5999999999984,675.9000000715241,675.9000000715241,666.5999999999984,675.9000000715241,1.0,0.0,0.0,,Click Response,1_count,3.0,object-46,temp_dist_trial,9.0,s_s_02_1,student_stem,flask,1.0,unique,paired,s_s_02_1.jpg,Student,,,sub-11
Desktop or Laptop,Windows 10,Chrome 138.0.0.0,1536x864,1536x730,Temporal Distance Task,cb_01,10.0,temp_dist_trial,num_items,zn7si1,1.0,response,2_ITEM,1190.5000000476864,1183.4000000000015,1190.5000000476864,1190.5000000476864,1183.4000000000015,1190.5000000476864,1.0,0.0,0.0,,Click Response,2_count,5.0,object-49,temp_dist_trial,10.0,s_sh_03_1,student_shared,highlighter,1.0,competing,paired,s_sh_03_1.jpg,Student,,,sub-11
Desktop or Laptop,Windows 10,Chrome 138.0.0.0,1536x864,1536x730,Temporal Distance Task,cb_01,10.0,temp_dist_trial,dist_items,qkpkxw,2.0,info,,4.400000071524119,0.0,4.400000071524119,4.400000071524119,0.0,4.400000071524119,1.0,0.0,0.0,,Slider,Slider,4.0,object-56,temp_dist_trial,10.0,s_sh_03_1,student_shared,highlighter,1.0,competing,paired,s_sh_03_1.jpg,Student,,,sub-11
Desktop or Laptop,Windows 10,Chrome 138.0.0.0,1536x864,1536x730,Temporal Distance Task,cb_01,10.0,temp_dist_trial,dist_items,qkpkxw,2.0,continue,,2357.700000023841,2350.0,2357.700000023841,2357.700000023841,2350.0,2357.700000023841,1.0,0.0,0.0,,Click To Continue,Next button,7.0,object-60,temp_dist_trial,10.0,s_sh_03_1,student_shared,highlighter,1.0,competing,paired,s_sh_03_1.jpg,Student,,,sub-11
Desktop or Laptop,Windows 10,Chrome 138.0.0.0,1536x864,1536x730,Temporal Distance Task,cb_01,10.0,temp_dist_trial,dist_items,qkpkxw,2.0,response,76,983.5,2350.0,2358.200000023841,983.5,2350.0,2358.200000023841,1.0,1374.7000000238406,0.0,,Slider,Slider,4.0,object-56,temp_dist_trial,10.0,s_sh_03_1,student_shared,highlighter,1.0,competing,paired,s_sh_03_1.jpg,Student,,,sub-11
Desktop or Laptop,Windows 10,Chrome 138.0.0.0,1536x864,1536x730,Temporal Distance Task,cb_01,11.0,temp_dist_trial,num_items,zn7si1,1.0,response,1_ITEM,968.0999999999983,966.5999999999983,968.0999999999983,968.0999999999983,966.5999999999983,968.0999999999983,1.0,0.0,0.0,,Click Response,1_count,3.0,object-46,temp_dist_trial,11.0,s_s_05_1,student_stem,lab goggles,1.0,unique,paired,s_s_05_1.jpg,Student,,,sub-11
Desktop or Laptop,Windows 10,Chrome 138.0.0.0,1536x864,1536x730,Temporal Distance Task,cb_01,12.0,temp_dist_trial,num_items,zn7si1,1.0,response,1_ITEM,622.5000000715228,616.2999999999956,622.5000000715228,622.5000000715228,616.2999999999956,622.5000000715228,1.0,0.0,0.0,,Click Response,1_count,3.0,object-46,temp_dist_trial,12.0,s_s_01_1,student_stem,microscope,1.0,unique,paired,s_s_01_1.jpg,Student,,,sub-11
Desktop or Laptop,Windows 10,Chrome 138.0.0.0,1536x864,1536x730,Temporal Distance Task,cb_01,13.0,temp_dist_trial,num_items,zn7si1,1.0,response,1_ITEM,916.0999999999983,899.7999999999955,916.0999999999983,916.0999999999983,899.7999999999955,916.0999999999983,1.0,0.0,0.0,,Click Response,1_count,3.0,object-46,temp_dist_trial,13.0,s_a_04_1,student_art,easel,1.0,unique,paired,s_a_04_1.jpg,Student,,,sub-11
Desktop or Laptop,Windows 10,Chrome 138.0.0.0,1536x864,1536x730,Temporal Distance Task,cb_01,14.0,temp_dist_trial,num_items,zn7si1,1.0,response,1_ITEM,861.8000000715256,850.5,861.8000000715256,861.8000000715256,850.5,861.8000000715256,1.0,0.0,0.0,,Click Response,1_count,3.0,object-46,temp_dist_trial,14.0,s_sh_17_1,student_shared,wireless mouse,1.0,competing,single,s_sh_17_1.jpg,Student,,,sub-11
Desktop or Laptop,Windows 10,Chrome 138.0.0.0,1536x864,1536x730,Temporal Distance Task,cb_01,15.0,temp_dist_trial,num_items,zn7si1,1.0,response,2_ITEM,2217.8000000476827,2216.699999999997,2217.8000000476827,2217.8000000476827,2216.699999999997,2217.8000000476827,1.0,0.0,0.0,,Click Response,2_count,5.0,object-49,temp_dist_trial,15.0,s_sh_13_1,student_shared,index cards,1.0,competing,paired,s_sh_13_1.jpg,Student,,,sub-11
Desktop or Laptop,Windows 10,Chrome 138.0.0.0,1536x864,1536x730,Temporal Distance Task,cb_01,15.0,temp_dist_trial,dist_items,qkpkxw,2.0,info,,3.900000000001455,0.0,3.900000000001455,3.900000000001455,0.0,3.900000000001455,1.0,0.0,0.0,,Slider,Slider,4.0,object-56,temp_dist_trial,15.0,s_sh_13_1,student_shared,index cards,1.0,competing,paired,s_sh_13_1.jpg,Student,,,sub-11
Desktop or Laptop,Windows 10,Chrome 138.0.0.0,1536x864,1536x730,Temporal Distance Task,cb_01,15.0,temp_dist_trial,dist_items,qkpkxw,2.0,continue,,2782.1000000476847,2766.400000000001,2782.1000000476847,2782.1000000476847,2766.400000000001,2782.1000000476847,1.0,0.0,0.0,,Click To Continue,Next button,7.0,object-60,temp_dist_trial,15.0,s_sh_13_1,student_shared,index cards,1.0,competing,paired,s_sh_13_1.jpg,Student,,,sub-11
Desktop or Laptop,Windows 10,Chrome 138.0.0.0,1536x864,1536x730,Temporal Distance Task,cb_01,15.0,temp_dist_trial,dist_items,qkpkxw,2.0,response,66,983.2000000000045,2766.400000000001,2782.5000000238433,983.2000000000045,2766.400000000001,2782.5000000238433,1.0,1799.3000000238392,0.0,,Slider,Slider,4.0,object-56,temp_dist_trial,15.0,s_sh_13_1,student_shared,index cards,1.0,competing,paired,s_sh_13_1.jpg,Student,,,sub-11
Desktop or Laptop,Windows 10,Chrome 138.0.0.0,1536x864,1536x730,Temporal Distance Task,cb_01,16.0,temp_dist_trial,num_items,zn7si1,1.0,response,1_ITEM,904.2000000476836,900.0,904.2000000476836,904.2000000476836,900.0,904.2000000476836,1.0,0.0,0.0,,Click Response,1_count,3.0,object-46,temp_dist_trial,16.0,s_sh_06_1,student_shared,clipboard,1.0,competing,paired,s_sh_06_1.jpg,Student,,,sub-11
Desktop or Laptop,Windows 10,Chrome 138.0.0.0,1536x864,1536x730,Temporal Distance Task,cb_01,17.0,temp_dist_trial,num_items,zn7si1,1.0,response,1_ITEM,946.100000023842,933.1999999999972,946.100000023842,946.100000023842,933.1999999999972,946.100000023842,1.0,0.0,0.0,,Click Response,1_count,3.0,object-46,temp_dist_trial,17.0,s_sh_16_1,student_shared,stapler,1.0,competing,paired,s_sh_16_1.jpg,Student,,,sub-11
Desktop or Laptop,Windows 10,Chrome 138.0.0.0,1536x864,1536x730,Temporal Distance Task,cb_01,18.0,temp_dist_trial,num_items,zn7si1,1.0,response,1_ITEM,522.8000000476895,516.5,522.8000000476895,522.8000000476895,516.5,522.8000000476895,1.0,0.0,0.0,,Click Response,1_count,3.0,object-46,temp_dist_trial,18.0,s_a_05_1,student_art,clay,1.0,unique,single,s_a_05_1.jpg,Student,,,sub-11
Desktop or Laptop,Windows 10,Chrome 138.0.0.0,1536x864,1536x730,Temporal Distance Task,cb_01,19.0,temp_dist_trial,num_items,zn7si1,1.0,response,1_ITEM,612.3999999999943,600.0,612.3999999999943,612.3999999999943,600.0,612.3999999999943,1.0,0.0,0.0,,Click Response,1_count,3.0,object-46,temp_dist_trial,19.0,s_s_12_1,student_stem,robotic arm,1.0,unique,paired,s_s_12_1.jpg,Student,,,sub-11
Desktop or Laptop,Windows 10,Chrome 138.0.0.0,1536x864,1536x730,Temporal Distance Task,cb_01,20.0,temp_dist_trial,num_items,zn7si1,1.0,response,1_ITEM,826.0999999761552,817.0999999999913,826.0999999761552,826.0999999761552,817.0999999999913,826.0999999761552,1.0,0.0,0.0,,Click Response,1_count,3.0,object-46,temp_dist_trial,20.0,s_sh_14_1,student_shared,printer,1.0,competing,paired,s_sh_14_1.jpg,Student,,,sub-11
Desktop or Laptop,Windows 10,Chrome 138.0.0.0,1536x864,1536x730,Temporal Distance Task,cb_01,21.0,temp_dist_trial,num_items,zn7si1,1.0,response,2_ITEM,1391.6000000000058,1383.6000000000058,1391.6000000000058,1391.6000000000058,1383.6000000000058,1391.6000000000058,1.0,0.0,0.0,,Click Response,2_count,5.0,object-49,temp_dist_trial,21.0,s_sh_24_1,student_shared,desk organizer,1.0,competing,paired,s_sh_24_1.jpg,Student,,,sub-11
Desktop or Laptop,Windows 10,Chrome 138.0.0.0,1536x864,1536x730,Temporal Distance Task,cb_01,21.0,temp_dist_trial,dist_items,qkpkxw,2.0,info,,4.300000071525574,0.0,4.300000071525574,4.300000071525574,0.0,4.300000071525574,1.0,0.0,0.0,,Slider,Slider,4.0,object-56,temp_dist_trial,21.0,s_sh_24_1,student_shared,desk organizer,1.0,competing,paired,s_sh_24_1.jpg,Student,,,sub-11
Desktop or Laptop,Windows 10,Chrome 138.0.0.0,1536x864,1536x730,Temporal Distance Task,cb_01,21.0,temp_dist_trial,dist_items,qkpkxw,2.0,continue,,2253.899999976158,2250.0,2253.899999976158,2253.899999976158,2250.0,2253.899999976158,1.0,0.0,0.0,,Click To Continue,Next button,7.0,object-60,temp_dist_trial,21.0,s_sh_24_1,student_shared,desk organizer,1.0,competing,paired,s_sh_24_1.jpg,Student,,,sub-11
Desktop or Laptop,Windows 10,Chrome 138.0.0.0,1536x864,1536x730,Temporal Distance Task,cb_01,21.0,temp_dist_trial,dist_items,qkpkxw,2.0,response,90,900.1000000000058,2250.0,2254.200000047684,900.1000000000058,2250.0,2254.200000047684,1.0,1354.1000000476781,0.0,,Slider,Slider,4.0,object-56,temp_dist_trial,21.0,s_sh_24_1,student_shared,desk organizer,1.0,competing,paired,s_sh_24_1.jpg,Student,,,sub-11
Desktop or Laptop,Windows 10,Chrome 138.0.0.0,1536x864,1536x730,Temporal Distance Task,cb_01,22.0,temp_dist_trial,num_items,zn7si1,1.0,response,1_ITEM,2163.399999976158,2150.1000000000063,2163.399999976158,2163.399999976158,2150.1000000000063,2163.399999976158,1.0,0.0,0.0,,Click Response,1_count,3.0,object-46,temp_dist_trial,22.0,s_sh_07_1,student_shared,ruler,1.0,competing,paired,s_sh_07_1.jpg,Student,,,sub-11
Desktop or Laptop,Windows 10,Chrome 138.0.0.0,1536x864,1536x730,Temporal Distance Task,cb_01,23.0,temp_dist_trial,num_items,zn7si1,1.0,response,2_ITEM,1347.7000000238475,1333.2000000000114,1347.7000000238475,1347.7000000238475,1333.2000000000114,1347.7000000238475,1.0,0.0,0.0,,Click Response,2_count,5.0,object-49,temp_dist_trial,23.0,s_sh_12_1,student_shared,binder,1.0,competing,paired,s_sh_12_1.jpg,Student,,,sub-11
Desktop or Laptop,Windows 10,Chrome 138.0.0.0,1536x864,1536x730,Temporal Distance Task,cb_01,23.0,temp_dist_trial,dist_items,qkpkxw,2.0,info,,4.300000071525574,0.0,4.300000071525574,4.300000071525574,0.0,4.300000071525574,1.0,0.0,0.0,,Slider,Slider,4.0,object-56,temp_dist_trial,23.0,s_sh_12_1,student_shared,binder,1.0,competing,paired,s_sh_12_1.jpg,Student,,,sub-11
Desktop or Laptop,Windows 10,Chrome 138.0.0.0,1536x864,1536x730,Temporal Distance Task,cb_01,23.0,temp_dist_trial,dist_items,qkpkxw,2.0,continue,,2908.300000071525,2900.300000000003,2908.300000071525,2908.300000071525,2900.300000000003,2908.300000071525,1.0,0.0,0.0,,Click To Continue,Next button,7.0,object-60,temp_dist_trial,23.0,s_sh_12_1,student_shared,binder,1.0,competing,paired,s_sh_12_1.jpg,Student,,,sub-11
Desktop or Laptop,Windows 10,Chrome 138.0.0.0,1536x864,1536x730,Temporal Distance Task,cb_01,23.0,temp_dist_trial,dist_items,qkpkxw,2.0,response,65,1950.3000000000034,2900.300000000003,2910.8999999761572,1950.3000000000034,2900.300000000003,2910.8999999761572,1.0,960.5999999761552,0.0,,Slider,Slider,4.0,object-56,temp_dist_trial,23.0,s_sh_12_1,student_shared,binder,1.0,competing,paired,s_sh_12_1.jpg,Student,,,sub-11
Desktop or Laptop,Windows 10,Chrome 138.0.0.0,1536x864,1536x730,Temporal Distance Task,cb_01,24.0,temp_dist_trial,num_items,zn7si1,1.0,response,1_ITEM,1055.5999999761552,1050.0,1055.5999999761552,1055.5999999761552,1050.0,1055.5999999761552,1.0,0.0,0.0,,Click Response,1_count,3.0,object-46,temp_dist_trial,24.0,s_sh_23_1,student_shared,ballpoint pen,1.0,competing,paired,s_sh_23_1.jpg,Student,,,sub-11
Desktop or Laptop,Windows 10,Chrome 138.0.0.0,1536x864,1536x730,Temporal Distance Task,cb_01,25.0,temp_dist_trial,num_items,zn7si1,1.0,response,1_ITEM,1027.0000000715227,1016.6999999999972,1027.0000000715227,1027.0000000715227,1016.6999999999972,1027.0000000715227,1.0,0.0,0.0,,Click Response,1_count,3.0,object-46,temp_dist_trial,25.0,s_a_02_1,student_art,canvas,1.0,unique,paired,s_a_02_1.jpg,Student,,,sub-11
Desktop or Laptop,Windows 10,Chrome 138.0.0.0,1536x864,1536x730,Temporal Distance Task,cb_01,26.0,temp_dist_trial,num_items,zn7si1,1.0,response,1_ITEM,936.100000023842,933.3000000000028,936.100000023842,936.100000023842,933.3000000000028,936.100000023842,1.0,0.0,0.0,,Click Response,1_count,3.0,object-46,temp_dist_trial,26.0,s_s_19_1,student_stem,circuit board,1.0,unique,single,s_s_19_1.jpg,Student,,,sub-11
Desktop or Laptop,Windows 10,Chrome 138.0.0.0,1536x864,1536x730,Temporal Distance Task,cb_01,27.0,temp_dist_trial,num_items,zn7si1,1.0,response,1_ITEM,769.0000000476866,766.6999999999971,769.0000000476866,769.0000000476866,766.6999999999971,769.0000000476866,1.0,0.0,0.0,,Click Response,1_count,3.0,object-46,temp_dist_trial,27.0,s_a_14_1,student_art,guitar pick,1.0,unique,single,s_a_14_1.jpg,Student,,,sub-11
Desktop or Laptop,Windows 10,Chrome 138.0.0.0,1536x864,1536x730,Temporal Distance Task,cb_01,28.0,temp_dist_trial,num_items,zn7si1,1.0,response,1_ITEM,1159.3999999999942,1149.8999999999942,1159.3999999999942,1159.3999999999942,1149.8999999999942,1159.3999999999942,1.0,0.0,0.0,,Click Response,1_count,3.0,object-46,temp_dist_trial,28.0,s_s_09_1,student_stem,multimeter,1.0,unique,paired,s_s_09_1.jpg,Student,,,sub-11
Desktop or Laptop,Windows 10,Chrome 138.0.0.0,1536x864,1536x730,Temporal Distance Task,cb_01,29.0,temp_dist_trial,num_items,zn7si1,1.0,response,1_ITEM,639.6999999999971,633.1999999999971,639.6999999999971,639.6999999999971,633.1999999999971,639.6999999999971,1.0,0.0,0.0,,Click Response,1_count,3.0,object-46,temp_dist_trial,29.0,s_a_20_1,student_art,pin cushion,1.0,unique,paired,s_a_20_1.jpg,Student,,,sub-11
Desktop or Laptop,Windows 10,Chrome 138.0.0.0,1536x864,1536x730,Temporal Distance Task,cb_01,30.0,temp_dist_trial,num_items,zn7si1,1.0,response,1_ITEM,829.1000000238419,817.0,829.1000000238419,829.1000000238419,817.0,829.1000000238419,1.0,0.0,0.0,,Click Response,1_count,3.0,object-46,temp_dist_trial,30.0,s_s_18_1,student_stem,brain model,1.0,unique,paired,s_s_18_1.jpg,Student,,,sub-11
Desktop or Laptop,Windows 10,Chrome 138.0.0.0,1536x864,1536x730,Temporal Distance Task,cb_01,31.0,temp_dist_trial,num_items,zn7si1,1.0,response,1_ITEM,1233.5,1216.6999999999969,1233.5,1233.5,1216.6999999999969,1233.5,1.0,0.0,0.0,,Click Response,1_count,3.0,object-46,temp_dist_trial,31.0,s_s_04_1,student_stem,bunsen burner,1.0,unique,paired,s_s_04_1.jpg,Student,,,sub-11
Desktop or Laptop,Windows 10,Chrome 138.0.0.0,1536x864,1536x730,Temporal Distance Task,cb_01,32.0,temp_dist_trial,num_items,zn7si1,1.0,response,1_ITEM,1429.999999976164,1415.900000000009,1429.999999976164,1429.999999976164,1415.900000000009,1429.999999976164,1.0,0.0,0.0,,Click Response,1_count,3.0,object-46,temp_dist_trial,32.0,s_a_19_1,student_art,ballet shoes,1.0,unique,paired,s_a_19_1.jpg,Student,,,sub-11
Desktop or Laptop,Windows 10,Chrome 138.0.0.0,1536x864,1536x730,Temporal Distance Task,cb_01,33.0,temp_dist_trial,num_items,zn7si1,1.0,response,1_ITEM,628.1000000476779,616.5999999999913,628.1000000476779,628.1000000476779,616.5999999999913,628.1000000476779,1.0,0.0,0.0,,Click Response,1_count,3.0,object-46,temp_dist_trial,33.0,s_a_18_1,student_art,tutu,1.0,unique,single,s_a_18_1.jpg,Student,,,sub-11
Desktop or Laptop,Windows 10,Chrome 138.0.0.0,1536x864,1536x730,Temporal Distance Task,cb_01,34.0,temp_dist_trial,num_items,zn7si1,1.0,response,1_ITEM,913.1000000000058,899.5,913.1000000000058,913.1000000000058,899.5,913.1000000000058,1.0,0.0,0.0,,Click Response,1_count,3.0,object-46,temp_dist_trial,34.0,s_sh_02_1,student_shared,eraser,1.0,competing,paired,s_sh_02_1.jpg,Student,,,sub-11
Desktop or Laptop,Windows 10,Chrome 138.0.0.0,1536x864,1536x730,Temporal Distance Task,cb_01,35.0,temp_dist_trial,num_items,zn7si1,1.0,response,1_ITEM,2123.300000047689,2116.5,2123.300000047689,2123.300000047689,2116.5,2123.300000047689,1.0,0.0,0.0,,Click Response,1_count,3.0,object-46,temp_dist_trial,35.0,s_sh_19_1,student_shared,portable plastic drawer,1.0,competing,paired,s_sh_19_1.jpg,Student,,,sub-11
Desktop or Laptop,Windows 10,Chrome 138.0.0.0,1536x864,1536x730,Temporal Distance Task,cb_01,36.0,temp_dist_trial,num_items,zn7si1,1.0,response,1_ITEM,964.3000000476897,949.9000000000087,964.3000000476897,964.3000000476897,949.9000000000087,964.3000000476897,1.0,0.0,0.0,,Click Response,1_count,3.0,object-46,temp_dist_trial,36.0,s_sh_20_1,student_shared,tape,1.0,competing,single,s_sh_20_1.jpg,Student,,,sub-11
Desktop or Laptop,Windows 10,Chrome 138.0.0.0,1536x864,1536x730,Temporal Distance Task,cb_01,37.0,temp_dist_trial,num_items,zn7si1,1.0,response,1_ITEM,892.6999999999971,883.3000000000029,892.6999999999971,892.6999999999971,883.3000000000029,892.6999999999971,1.0,0.0,0.0,,Click Response,1_count,3.0,object-46,temp_dist_trial,37.0,s_sh_09_1,student_shared,paper clips,1.0,competing,single,s_sh_09_1.jpg,Student,,,sub-11
Desktop or Laptop,Windows 10,Chrome 138.0.0.0,1536x864,1536x730,Temporal Distance Task,cb_01,38.0,temp_dist_trial,num_items,zn7si1,1.0,response,1_ITEM,615.4000000238448,599.8000000000029,615.4000000238448,615.4000000238448,599.8000000000029,615.4000000238448,1.0,0.0,0.0,,Click Response,1_count,3.0,object-46,temp_dist_trial,38.0,s_sh_15_1,student_shared,usb drive,1.0,competing,paired,s_sh_15_1.jpg,Student,,,sub-11
Desktop or Laptop,Windows 10,Chrome 138.0.0.0,1536x864,1536x730,Temporal Distance Task,cb_01,39.0,temp_dist_trial,num_items,zn7si1,1.0,response,1_ITEM,2596.600000047678,2583.5,2596.600000047678,2596.600000047678,2583.5,2596.600000047678,1.0,0.0,0.0,,Click Response,1_count,3.0,object-46,temp_dist_trial,39.0,s_a_11_1,student_art,clapperboard,1.0,unique,paired,s_a_11_1.jpg,Student,,,sub-11
Desktop or Laptop,Windows 10,Chrome 138.0.0.0,1536x864,1536x730,Temporal Distance Task,cb_01,40.0,temp_dist_trial,num_items,zn7si1,1.0,response,2_ITEM,1794.4000000715314,1783.0,1794.4000000715314,1794.4000000715314,1783.0,1794.4000000715314,1.0,0.0,0.0,,Click Response,2_count,5.0,object-49,temp_dist_trial,40.0,s_sh_21_1,student_shared,file holder,1.0,competing,paired,s_sh_21_1.jpg,Student,,,sub-11
Desktop or Laptop,Windows 10,Chrome 138.0.0.0,1536x864,1536x730,Temporal Distance Task,cb_01,40.0,temp_dist_trial,dist_items,qkpkxw,2.0,info,,5.0,0.0,5.0,5.0,0.0,5.0,1.0,0.0,0.0,,Slider,Slider,4.0,object-56,temp_dist_trial,40.0,s_sh_21_1,student_shared,file holder,1.0,competing,paired,s_sh_21_1.jpg,Student,,,sub-11
Desktop or Laptop,Windows 10,Chrome 138.0.0.0,1536x864,1536x730,Temporal Distance Task,cb_01,40.0,temp_dist_trial,dist_items,qkpkxw,2.0,continue,,1953.700000047684,1949.8999999999944,1953.700000047684,1953.700000047684,1949.8999999999944,1953.700000047684,1.0,0.0,0.0,,Click To Continue,Next button,7.0,object-60,temp_dist_trial,40.0,s_sh_21_1,student_shared,file holder,1.0,competing,paired,s_sh_21_1.jpg,Student,,,sub-11
Desktop or Laptop,Windows 10,Chrome 138.0.0.0,1536x864,1536x730,Temporal Distance Task,cb_01,40.0,temp_dist_trial,dist_items,qkpkxw,2.0,response,74,916.8000000000028,1949.8999999999944,1954.0,916.8000000000028,1949.8999999999944,1954.0,1.0,1037.1999999999969,0.0,,Slider,Slider,4.0,object-56,temp_dist_trial,40.0,s_sh_21_1,student_shared,file holder,1.0,competing,paired,s_sh_21_1.jpg,Student,,,sub-11
Desktop or Laptop,Windows 10,Chrome 138.0.0.0,1536x864,1536x730,Temporal Distance Task,cb_01,41.0,temp_dist_trial,num_items,zn7si1,1.0,response,2_ITEM,1387.4000000715314,1383.2000000000116,1387.4000000715314,1387.4000000715314,1383.2000000000116,1387.4000000715314,1.0,0.0,0.0,,Click Response,2_count,5.0,object-49,temp_dist_trial,41.0,s_sh_05_1,student_shared,laptop,1.0,competing,paired,s_sh_05_1.jpg,Student,,,sub-11
Desktop or Laptop,Windows 10,Chrome 138.0.0.0,1536x864,1536x730,Temporal Distance Task,cb_01,41.0,temp_dist_trial,dist_items,qkpkxw,2.0,info,,3.600000023841858,0.0,3.600000023841858,3.600000023841858,0.0,3.600000023841858,1.0,0.0,0.0,,Slider,Slider,4.0,object-56,temp_dist_trial,41.0,s_sh_05_1,student_shared,laptop,1.0,competing,paired,s_sh_05_1.jpg,Student,,,sub-11
Desktop or Laptop,Windows 10,Chrome 138.0.0.0,1536x864,1536x730,Temporal Distance Task,cb_01,41.0,temp_dist_trial,dist_items,qkpkxw,2.0,continue,,2114.100000023842,2100.0,2114.100000023842,2114.100000023842,2100.0,2114.100000023842,1.0,0.0,0.0,,Click To Continue,Next button,7.0,object-60,temp_dist_trial,41.0,s_sh_05_1,student_shared,laptop,1.0,competing,paired,s_sh_05_1.jpg,Student,,,sub-11
Desktop or Laptop,Windows 10,Chrome 138.0.0.0,1536x864,1536x730,Temporal Distance Task,cb_01,41.0,temp_dist_trial,dist_items,qkpkxw,2.0,response,79,1083.3000000000031,2100.0,2114.5,1083.3000000000031,2100.0,2114.5,1.0,1031.1999999999969,0.0,,Slider,Slider,4.0,object-56,temp_dist_trial,41.0,s_sh_05_1,student_shared,laptop,1.0,competing,paired,s_sh_05_1.jpg,Student,,,sub-11
Desktop or Laptop,Windows 10,Chrome 138.0.0.0,1536x864,1536x730,Temporal Distance Task,cb_01,42.0,temp_dist_trial,num_items,zn7si1,1.0,response,1_ITEM,813.7000000476837,800.1999999999971,813.7000000476837,813.7000000476837,800.1999999999971,813.7000000476837,1.0,0.0,0.0,,Click Response,1_count,3.0,object-46,temp_dist_trial,42.0,s_s_10_1,student_stem,3d molecule,1.0,unique,single,s_s_10_1.jpg,Student,,,sub-11
Desktop or Laptop,Windows 10,Chrome 138.0.0.0,1536x864,1536x730,Temporal Distance Task,cb_01,43.0,temp_dist_trial,num_items,zn7si1,1.0,response,1_ITEM,739.9000000715314,733.5,739.9000000715314,739.9000000715314,733.5,739.9000000715314,1.0,0.0,0.0,,Click Response,1_count,3.0,object-46,temp_dist_trial,43.0,s_s_08_1,student_stem,soldering iron,1.0,unique,single,s_s_08_1.jpg,Student,,,sub-11
Desktop or Laptop,Windows 10,Chrome 138.0.0.0,1536x864,1536x730,Temporal Distance Task,cb_01,44.0,temp_dist_trial,num_items,zn7si1,1.0,response,1_ITEM,611.3999999761581,599.6999999999971,611.3999999761581,611.3999999761581,599.6999999999971,611.3999999761581,1.0,0.0,0.0,,Click Response,1_count,3.0,object-46,temp_dist_trial,44.0,s_sh_18_1,student_shared,wall calendar,1.0,competing,single,s_sh_18_1.jpg,Student,,,sub-11
Desktop or Laptop,Windows 10,Chrome 138.0.0.0,1536x864,1536x730,Temporal Distance Task,cb_01,45.0,temp_dist_trial,num_items,zn7si1,1.0,response,1_ITEM,473.4000000715314,466.5,473.4000000715314,473.4000000715314,466.5,473.4000000715314,1.0,0.0,0.0,,Click Response,1_count,3.0,object-46,temp_dist_trial,45.0,s_s_15_1,student_stem,jumper cables,1.0,unique,single,s_s_15_1.jpg,Student,,,sub-11
Desktop or Laptop,Windows 10,Chrome 138.0.0.0,1536x864,1536x730,Temporal Distance Task,cb_01,46.0,temp_dist_trial,num_items,zn7si1,1.0,response,1_ITEM,773.1999999999971,766.5,773.1999999999971,773.1999999999971,766.5,773.1999999999971,1.0,0.0,0.0,,Click Response,1_count,3.0,object-46,temp_dist_trial,46.0,s_a_17_1,student_art,microphone,1.0,unique,paired,s_a_17_1.jpg,Student,,,sub-11
Desktop or Laptop,Windows 10,Chrome 138.0.0.0,1536x864,1536x730,Temporal Distance Task,cb_01,47.0,temp_dist_trial,num_items,zn7si1,1.0,response,1_ITEM,580.5,566.5,580.5,580.5,566.5,580.5,1.0,0.0,0.0,,Click Response,1_count,3.0,object-46,temp_dist_trial,47.0,s_a_16_1,student_art,piano,1.0,unique,paired,s_a_16_1.jpg,Student,,,sub-11
Desktop or Laptop,Windows 10,Chrome 138.0.0.0,1536x864,1536x730,Temporal Distance Task,cb_01,48.0,temp_dist_trial,num_items,zn7si1,1.0,response,1_ITEM,724.6000000000058,716.7000000000116,724.6000000000058,724.6000000000058,716.7000000000116,724.6000000000058,1.0,0.0,0.0,,Click Response,1_count,3.0,object-46,temp_dist_trial,48.0,s_sh_01_1,student_shared,notebook,1.0,competing,single,s_sh_01_1.jpg,Student,,,sub-11
Desktop or Laptop,Windows 10,Chrome 138.0.0.0,1536x864,1536x730,Temporal Distance Task,cb_01,2.0,temp_eventStart,Screen 1,dgtyxe,1.0,continue,,1492.8000000715256,1483.6000000000058,1492.8000000715256,1492.8000000715256,1483.6000000000058,1492.8000000715256,1.0,0.0,0.0,,Click To Continue,Next Button,3.0,object-43,temp_eventStart,,,Travel,,,,,,,,,sub-11
Desktop or Laptop,Windows 10,Chrome 138.0.0.0,1536x864,1536x730,Temporal Distance Task,cb_01,49.0,temp_dist_trial,num_items,zn7si1,1.0,response,1_ITEM,961.000000023836,949.5999999999913,961.000000023836,961.000000023836,949.5999999999913,961.000000023836,1.0,0.0,0.0,,Click Response,1_count,3.0,object-46,temp_dist_trial,1.0,t_s_02_1,travel_shared,water bottle,1.0,competing,paired,t_s_02_1.jpg,Travel,,,sub-11
Desktop or Laptop,Windows 10,Chrome 138.0.0.0,1536x864,1536x730,Temporal Distance Task,cb_01,50.0,temp_dist_trial,num_items,zn7si1,1.0,response,1_ITEM,977.699999976161,966.6000000000058,977.699999976161,977.699999976161,966.6000000000058,977.699999976161,1.0,0.0,0.0,,Click Response,1_count,3.0,object-46,temp_dist_trial,2.0,t_m_18_1,travel_Miami,waterproof tote,1.0,unique,paired,t_m_18_1.jpg,Travel,,,sub-11
Desktop or Laptop,Windows 10,Chrome 138.0.0.0,1536x864,1536x730,Temporal Distance Task,cb_01,51.0,temp_dist_trial,num_items,zn7si1,1.0,response,1_ITEM,985.800000023839,983.8000000000028,985.800000023839,985.800000023839,983.8000000000028,985.800000023839,1.0,0.0,0.0,,Click Response,1_count,3.0,object-46,temp_dist_trial,3.0,t_s_01_1,travel_shared,fanny pack,1.0,competing,single,t_s_01_1.jpg,Travel,,,sub-11
Desktop or Laptop,Windows 10,Chrome 138.0.0.0,1536x864,1536x730,Temporal Distance Task,cb_01,52.0,temp_dist_trial,num_items,zn7si1,1.0,response,1_ITEM,631.000000023836,616.7999999999884,631.000000023836,631.000000023836,616.7999999999884,631.000000023836,1.0,0.0,0.0,,Click Response,1_count,3.0,object-46,temp_dist_trial,4.0,t_s_12_1,travel_shared,clear toiletry bag,1.0,competing,paired,t_s_12_1.jpg,Travel,,,sub-11
Desktop or Laptop,Windows 10,Chrome 138.0.0.0,1536x864,1536x730,Temporal Distance Task,cb_01,53.0,temp_dist_trial,num_items,zn7si1,1.0,response,2_ITEM,2300.0,2283.300000000003,2300.0,2300.0,2283.300000000003,2300.0,1.0,0.0,0.0,,Click Response,2_count,5.0,object-49,temp_dist_trial,5.0,t_s_06_1,travel_shared,luggage,1.0,competing,paired,t_s_06_1.jpg,Travel,,,sub-11
Desktop or Laptop,Windows 10,Chrome 138.0.0.0,1536x864,1536x730,Temporal Distance Task,cb_01,53.0,temp_dist_trial,dist_items,qkpkxw,2.0,info,,3.700000023847679,0.0,3.700000023847679,3.700000023847679,0.0,3.700000023847679,1.0,0.0,0.0,,Slider,Slider,4.0,object-56,temp_dist_trial,5.0,t_s_06_1,travel_shared,luggage,1.0,competing,paired,t_s_06_1.jpg,Travel,,,sub-11
Desktop or Laptop,Windows 10,Chrome 138.0.0.0,1536x864,1536x730,Temporal Distance Task,cb_01,53.0,temp_dist_trial,dist_items,qkpkxw,2.0,continue,,1464.1000000000058,1450.0,1464.1000000000058,1464.1000000000058,1450.0,1464.1000000000058,1.0,0.0,0.0,,Click To Continue,Next button,7.0,object-60,temp_dist_trial,5.0,t_s_06_1,travel_shared,luggage,1.0,competing,paired,t_s_06_1.jpg,Travel,,,sub-11
Desktop or Laptop,Windows 10,Chrome 138.0.0.0,1536x864,1536x730,Temporal Distance Task,cb_01,53.0,temp_dist_trial,dist_items,qkpkxw,2.0,response,77,650.3000000000029,1450.0,1464.3000000476895,650.3000000000029,1450.0,1464.3000000476895,1.0,814.0000000476866,0.0,,Slider,Slider,4.0,object-56,temp_dist_trial,5.0,t_s_06_1,travel_shared,luggage,1.0,competing,paired,t_s_06_1.jpg,Travel,,,sub-11
Desktop or Laptop,Windows 10,Chrome 138.0.0.0,1536x864,1536x730,Temporal Distance Task,cb_01,54.0,temp_dist_trial,num_items,zn7si1,1.0,response,1_ITEM,1061.499999976164,1049.8000000000031,1061.499999976164,1061.499999976164,1049.8000000000031,1061.499999976164,1.0,0.0,0.0,,Click Response,1_count,3.0,object-46,temp_dist_trial,6.0,t_i_20_1,travel_Iceland,lantern,1.0,unique,paired,t_i_20_1.jpg,Travel,,,sub-11
Desktop or Laptop,Windows 10,Chrome 138.0.0.0,1536x864,1536x730,Temporal Distance Task,cb_01,55.0,temp_dist_trial,num_items,zn7si1,1.0,response,1_ITEM,497.6999999999971,483.1999999999971,497.6999999999971,497.6999999999971,483.1999999999971,497.6999999999971,1.0,0.0,0.0,,Click Response,1_count,3.0,object-46,temp_dist_trial,7.0,t_s_16_1,travel_shared,chapstick,1.0,competing,paired,t_s_16_1.jpg,Travel,,,sub-11
Desktop or Laptop,Windows 10,Chrome 138.0.0.0,1536x864,1536x730,Temporal Distance Task,cb_01,56.0,temp_dist_trial,num_items,zn7si1,1.0,response,1_ITEM,1852.1000000238416,1850.3000000000034,1852.1000000238416,1852.1000000238416,1850.3000000000034,1852.1000000238416,1.0,0.0,0.0,,Click Response,1_count,3.0,object-46,temp_dist_trial,8.0,t_s_07_1,travel_shared,phone charger cable,1.0,competing,paired,t_s_07_1.jpg,Travel,,,sub-11
Desktop or Laptop,Windows 10,Chrome 138.0.0.0,1536x864,1536x730,Temporal Distance Task,cb_01,57.0,temp_dist_trial,num_items,zn7si1,1.0,response,1_ITEM,895.699999976161,883.0,895.699999976161,895.699999976161,883.0,895.699999976161,1.0,0.0,0.0,,Click Response,1_count,3.0,object-46,temp_dist_trial,9.0,t_m_17_1,travel_Miami,water gun,1.0,unique,paired,t_m_17_1.jpg,Travel,,,sub-11
Desktop or Laptop,Windows 10,Chrome 138.0.0.0,1536x864,1536x730,Temporal Distance Task,cb_01,58.0,temp_dist_trial,num_items,zn7si1,1.0,response,1_ITEM,1235.0000000476864,1233.5000000000146,1235.0000000476864,1235.0000000476864,1233.5000000000146,1235.0000000476864,1.0,0.0,0.0,,Click Response,1_count,3.0,object-46,temp_dist_trial,10.0,t_m_03_1,travel_Miami,wetsuit,1.0,unique,single,t_m_03_1.jpg,Travel,,,sub-11
Desktop or Laptop,Windows 10,Chrome 138.0.0.0,1536x864,1536x730,Temporal Distance Task,cb_01,59.0,temp_dist_trial,num_items,zn7si1,1.0,response,1_ITEM,671.5,666.5,671.5,671.5,666.5,671.5,1.0,0.0,0.0,,Click Response,1_count,3.0,object-46,temp_dist_trial,11.0,t_i_16_1,travel_Iceland,skis,1.0,unique,single,t_i_16_1.jpg,Travel,,,sub-11
Desktop or Laptop,Windows 10,Chrome 138.0.0.0,1536x864,1536x730,Temporal Distance Task,cb_01,60.0,temp_dist_trial,num_items,zn7si1,1.0,response,2_ITEM,1794.8000000238535,1782.9000000000233,1794.8000000238535,1794.8000000238535,1782.9000000000233,1794.8000000238535,1.0,0.0,0.0,,Click Response,2_count,5.0,object-49,temp_dist_trial,12.0,t_s_09_1,travel_shared,wallet,1.0,competing,paired,t_s_09_1.jpg,Travel,,,sub-11
Desktop or Laptop,Windows 10,Chrome 138.0.0.0,1536x864,1536x730,Temporal Distance Task,cb_01,60.0,temp_dist_trial,dist_items,qkpkxw,2.0,info,,4.2999999999883585,0.0,4.2999999999883585,4.2999999999883585,0.0,4.2999999999883585,1.0,0.0,0.0,,Slider,Slider,4.0,object-56,temp_dist_trial,12.0,t_s_09_1,travel_shared,wallet,1.0,competing,paired,t_s_09_1.jpg,Travel,,,sub-11
Desktop or Laptop,Windows 10,Chrome 138.0.0.0,1536x864,1536x730,Temporal Distance Task,cb_01,60.0,temp_dist_trial,dist_items,qkpkxw,2.0,continue,,4137.1999999761465,4133.099999999977,4137.1999999761465,4137.1999999761465,4133.099999999977,4137.1999999761465,1.0,0.0,0.0,,Click To Continue,Next button,7.0,object-60,temp_dist_trial,12.0,t_s_09_1,travel_shared,wallet,1.0,competing,paired,t_s_09_1.jpg,Travel,,,sub-11
Desktop or Laptop,Windows 10,Chrome 138.0.0.0,1536x864,1536x730,Temporal Distance Task,cb_01,60.0,temp_dist_trial,dist_items,qkpkxw,2.0,response,86,2149.8999999999937,4133.099999999977,4137.40000002383,2149.8999999999937,4133.099999999977,4137.40000002383,1.0,1987.500000023836,0.0,,Slider,Slider,4.0,object-56,temp_dist_trial,12.0,t_s_09_1,travel_shared,wallet,1.0,competing,paired,t_s_09_1.jpg,Travel,,,sub-11
Desktop or Laptop,Windows 10,Chrome 138.0.0.0,1536x864,1536x730,Temporal Distance Task,cb_01,61.0,temp_dist_trial,num_items,zn7si1,1.0,response,1_ITEM,924.7000000000116,916.8000000000177,924.7000000000116,924.7000000000116,916.8000000000177,924.7000000000116,1.0,0.0,0.0,,Click Response,1_count,3.0,object-46,temp_dist_trial,13.0,t_s_13_1,travel_shared,contact lens case,1.0,competing,single,t_s_13_1.jpg,Travel,,,sub-11
Desktop or Laptop,Windows 10,Chrome 138.0.0.0,1536x864,1536x730,Temporal Distance Task,cb_01,62.0,temp_dist_trial,num_items,zn7si1,1.0,response,1_ITEM,725.5000000476721,716.2999999999884,725.5000000476721,725.5000000476721,716.2999999999884,725.5000000476721,1.0,0.0,0.0,,Click Response,1_count,3.0,object-46,temp_dist_trial,14.0,t_i_18_1,travel_Iceland,ski mask,1.0,unique,single,t_i_18_1.jpg,Travel,,,sub-11
Desktop or Laptop,Windows 10,Chrome 138.0.0.0,1536x864,1536x730,Temporal Distance Task,cb_01,63.0,temp_dist_trial,num_items,zn7si1,1.0,response,2_ITEM,1439.1000000000058,1433.0,1439.1000000000058,1439.1000000000058,1433.0,1439.1000000000058,1.0,0.0,0.0,,Click Response,2_count,5.0,object-49,temp_dist_trial,15.0,t_s_05_1,travel_shared,neck pillow,1.0,competing,paired,t_s_05_1.jpg,Travel,,,sub-11
Desktop or Laptop,Windows 10,Chrome 138.0.0.0,1536x864,1536x730,Temporal Distance Task,cb_01,63.0,temp_dist_trial,dist_items,qkpkxw,2.0,info,,3.4000000238302164,0.0,3.4000000238302164,3.4000000238302164,0.0,3.4000000238302164,1.0,0.0,0.0,,Slider,Slider,4.0,object-56,temp_dist_trial,15.0,t_s_05_1,travel_shared,neck pillow,1.0,competing,paired,t_s_05_1.jpg,Travel,,,sub-11
Desktop or Laptop,Windows 10,Chrome 138.0.0.0,1536x864,1536x730,Temporal Distance Task,cb_01,63.0,temp_dist_trial,dist_items,qkpkxw,2.0,continue,,1627.1999999761465,1616.6999999999825,1627.1999999761465,1627.1999999761465,1616.6999999999825,1627.1999999761465,1.0,0.0,0.0,,Click To Continue,Next button,7.0,object-60,temp_dist_trial,15.0,t_s_05_1,travel_shared,neck pillow,1.0,competing,paired,t_s_05_1.jpg,Travel,,,sub-11
Desktop or Laptop,Windows 10,Chrome 138.0.0.0,1536x864,1536x730,Temporal Distance Task,cb_01,63.0,temp_dist_trial,dist_items,qkpkxw,2.0,response,85,866.7999999999884,1616.6999999999825,1628.000000047672,866.7999999999884,1616.6999999999825,1628.000000047672,1.0,761.2000000476837,0.0,,Slider,Slider,4.0,object-56,temp_dist_trial,15.0,t_s_05_1,travel_shared,neck pillow,1.0,competing,paired,t_s_05_1.jpg,Travel,,,sub-11
Desktop or Laptop,Windows 10,Chrome 138.0.0.0,1536x864,1536x730,Temporal Distance Task,cb_01,64.0,temp_dist_trial,num_items,zn7si1,1.0,response,1_ITEM,882.6000000000058,866.6000000000058,882.6000000000058,882.6000000000058,866.6000000000058,882.6000000000058,1.0,0.0,0.0,,Click Response,1_count,3.0,object-46,temp_dist_trial,16.0,t_i_19_1,travel_Iceland,rope,1.0,unique,paired,t_i_19_1.jpg,Travel,,,sub-11
Desktop or Laptop,Windows 10,Chrome 138.0.0.0,1536x864,1536x730,Temporal Distance Task,cb_01,65.0,temp_dist_trial,num_items,zn7si1,1.0,response,1_ITEM,1014.100000023842,1000.2999999999884,1014.100000023842,1014.100000023842,1000.2999999999884,1014.100000023842,1.0,0.0,0.0,,Click Response,1_count,3.0,object-46,temp_dist_trial,17.0,t_i_08_1,travel_Iceland,thick socks,1.0,unique,paired,t_i_08_1.jpg,Travel,,,sub-11
Desktop or Laptop,Windows 10,Chrome 138.0.0.0,1536x864,1536x730,Temporal Distance Task,cb_01,66.0,temp_dist_trial,num_items,zn7si1,1.0,response,1_ITEM,684.4000000715314,683.3000000000175,684.4000000715314,684.4000000715314,683.3000000000175,684.4000000715314,1.0,0.0,0.0,,Click Response,1_count,3.0,object-46,temp_dist_trial,18.0,t_m_01_1,travel_Miami,sandals,1.0,unique,paired,t_m_01_1.jpg,Travel,,,sub-11
Desktop or Laptop,Windows 10,Chrome 138.0.0.0,1536x864,1536x730,Temporal Distance Task,cb_01,67.0,temp_dist_trial,num_items,zn7si1,1.0,response,1_ITEM,799.1000000715138,783.5999999999768,799.1000000715138,799.1000000715138,783.5999999999768,799.1000000715138,1.0,0.0,0.0,,Click Response,1_count,3.0,object-46,temp_dist_trial,19.0,t_i_14_1,travel_Iceland,snow pants,1.0,unique,single,t_i_14_1.jpg,Travel,,,sub-11
Desktop or Laptop,Windows 10,Chrome 138.0.0.0,1536x864,1536x730,Temporal Distance Task,cb_01,68.0,temp_dist_trial,num_items,zn7si1,1.0,response,2_ITEM,1604.7000000238475,1599.5,1604.7000000238475,1604.7000000238475,1599.5,1604.7000000238475,1.0,0.0,0.0,,Click Response,2_count,5.0,object-49,temp_dist_trial,20.0,t_s_22_1,travel_shared,belt,1.0,competing,paired,t_s_22_1.jpg,Travel,,,sub-11
Desktop or Laptop,Windows 10,Chrome 138.0.0.0,1536x864,1536x730,Temporal Distance Task,cb_01,68.0,temp_dist_trial,dist_items,qkpkxw,2.0,info,,4.099999976169784,0.0,4.099999976169784,4.099999976169784,0.0,4.099999976169784,1.0,0.0,0.0,,Slider,Slider,4.0,object-56,temp_dist_trial,20.0,t_s_22_1,travel_shared,belt,1.0,competing,paired,t_s_22_1.jpg,Travel,,,sub-11
Desktop or Laptop,Windows 10,Chrome 138.0.0.0,1536x864,1536x730,Temporal Distance Task,cb_01,68.0,temp_dist_trial,dist_items,qkpkxw,2.0,continue,,2930.9000000476954,2916.5,2930.9000000476954,2930.9000000476954,2916.5,2930.9000000476954,1.0,0.0,0.0,,Click To Continue,Next button,7.0,object-60,temp_dist_trial,20.0,t_s_22_1,travel_shared,belt,1.0,competing,paired,t_s_22_1.jpg,Travel,,,sub-11
Desktop or Laptop,Windows 10,Chrome 138.0.0.0,1536x864,1536x730,Temporal Distance Task,cb_01,68.0,temp_dist_trial,dist_items,qkpkxw,2.0,response,86,2050.0,2916.5,2931.300000023853,2050.0,2916.5,2931.300000023853,1.0,881.3000000238535,0.0,,Slider,Slider,4.0,object-56,temp_dist_trial,20.0,t_s_22_1,travel_shared,belt,1.0,competing,paired,t_s_22_1.jpg,Travel,,,sub-11
Desktop or Laptop,Windows 10,Chrome 138.0.0.0,1536x864,1536x730,Temporal Distance Task,cb_01,69.0,temp_dist_trial,num_items,zn7si1,1.0,response,1_ITEM,982.5999999761698,966.6000000000058,982.5999999761698,982.5999999761698,966.6000000000058,982.5999999761698,1.0,0.0,0.0,,Click Response,1_count,3.0,object-46,temp_dist_trial,21.0,t_i_13_1,travel_Iceland,sleeping bag,1.0,unique,paired,t_i_13_1.jpg,Travel,,,sub-11
Desktop or Laptop,Windows 10,Chrome 138.0.0.0,1536x864,1536x730,Temporal Distance Task,cb_01,70.0,temp_dist_trial,num_items,zn7si1,1.0,response,1_ITEM,653.5,650.2999999999884,653.5,653.5,650.2999999999884,653.5,1.0,0.0,0.0,,Click Response,1_count,3.0,object-46,temp_dist_trial,22.0,t_s_24_1,travel_shared,ear plugs,1.0,competing,single,t_s_24_1.jpg,Travel,,,sub-11
Desktop or Laptop,Windows 10,Chrome 138.0.0.0,1536x864,1536x730,Temporal Distance Task,cb_01,71.0,temp_dist_trial,num_items,zn7si1,1.0,response,1_ITEM,1857.200000023848,1849.8999999999944,1857.200000023848,1857.200000023848,1849.8999999999944,1857.200000023848,1.0,0.0,0.0,,Click Response,1_count,3.0,object-46,temp_dist_trial,23.0,t_i_10_1,travel_Iceland,trekking poles,1.0,unique,paired,t_i_10_1.jpg,Travel,,,sub-11
Desktop or Laptop,Windows 10,Chrome 138.0.0.0,1536x864,1536x730,Temporal Distance Task,cb_01,72.0,temp_dist_trial,num_items,zn7si1,1.0,response,1_ITEM,637.5999999761698,633.3000000000175,637.5999999761698,637.5999999761698,633.3000000000175,637.5999999761698,1.0,0.0,0.0,,Click Response,1_count,3.0,object-46,temp_dist_trial,24.0,t_i_05_1,travel_Iceland,hiking boots,1.0,unique,paired,t_i_05_1.jpg,Travel,,,sub-11
Desktop or Laptop,Windows 10,Chrome 138.0.0.0,1536x864,1536x730,Temporal Distance Task,cb_01,73.0,temp_dist_trial,num_items,zn7si1,1.0,response,1_ITEM,2409.7999999999884,2399.6999999999825,2409.7999999999884,2409.7999999999884,2399.6999999999825,2409.7999999999884,1.0,0.0,0.0,,Click Response,1_count,3.0,object-46,temp_dist_trial,25.0,t_s_10_1,travel_shared,luggage lock,1.0,competing,single,t_s_10_1.jpg,Travel,,,sub-11
Desktop or Laptop,Windows 10,Chrome 138.0.0.0,1536x864,1536x730,Temporal Distance Task,cb_01,74.0,temp_dist_trial,num_items,zn7si1,1.0,response,1_ITEM,727.8999999761581,717.0,727.8999999761581,727.8999999761581,717.0,727.8999999761581,1.0,0.0,0.0,,Click Response,1_count,3.0,object-46,temp_dist_trial,26.0,t_m_07_1,travel_Miami,sunglasses,1.0,unique,single,t_m_07_1.jpg,Travel,,,sub-11
Desktop or Laptop,Windows 10,Chrome 138.0.0.0,1536x864,1536x730,Temporal Distance Task,cb_01,75.0,temp_dist_trial,num_items,zn7si1,1.0,response,1_ITEM,481.1000000238418,466.7000000000117,481.1000000238418,481.1000000238418,466.7000000000117,481.1000000238418,1.0,0.0,0.0,,Click Response,1_count,3.0,object-46,temp_dist_trial,27.0,t_i_09_1,travel_Iceland,ear muffs,1.0,unique,paired,t_i_09_1.jpg,Travel,,,sub-11
Desktop or Laptop,Windows 10,Chrome 138.0.0.0,1536x864,1536x730,Temporal Distance Task,cb_01,76.0,temp_dist_trial,num_items,zn7si1,1.0,response,1_ITEM,899.7999999999884,883.3999999999942,899.7999999999884,899.7999999999884,883.3999999999942,899.7999999999884,1.0,0.0,0.0,,Click Response,1_count,3.0,object-46,temp_dist_trial,28.0,t_m_06_1,travel_Miami,handheld fan,1.0,unique,single,t_m_06_1.jpg,Travel,,,sub-11
Desktop or Laptop,Windows 10,Chrome 138.0.0.0,1536x864,1536x730,Temporal Distance Task,cb_01,77.0,temp_dist_trial,num_items,zn7si1,1.0,response,2_ITEM,1678.2000000476835,1666.6000000000058,1678.2000000476835,1678.2000000476835,1666.6000000000058,1678.2000000476835,1.0,0.0,0.0,,Click Response,2_count,5.0,object-49,temp_dist_trial,29.0,t_s_20_1,travel_shared,travel pill case,1.0,competing,paired,t_s_20_1.jpg,Travel,,,sub-11
Desktop or Laptop,Windows 10,Chrome 138.0.0.0,1536x864,1536x730,Temporal Distance Task,cb_01,77.0,temp_dist_trial,dist_items,qkpkxw,2.0,info,,3.8000000476895366,0.0,3.8000000476895366,3.8000000476895366,0.0,3.8000000476895366,1.0,0.0,0.0,,Slider,Slider,4.0,object-56,temp_dist_trial,29.0,t_s_20_1,travel_shared,travel pill case,1.0,competing,paired,t_s_20_1.jpg,Travel,,,sub-11
Desktop or Laptop,Windows 10,Chrome 138.0.0.0,1536x864,1536x730,Temporal Distance Task,cb_01,77.0,temp_dist_trial,dist_items,qkpkxw,2.0,continue,,2802.200000023848,2800.1000000000067,2802.200000023848,2802.200000023848,2800.1000000000067,2802.200000023848,1.0,0.0,0.0,,Click To Continue,Next button,7.0,object-60,temp_dist_trial,29.0,t_s_20_1,travel_shared,travel pill case,1.0,competing,paired,t_s_20_1.jpg,Travel,,,sub-11
Desktop or Laptop,Windows 10,Chrome 138.0.0.0,1536x864,1536x730,Temporal Distance Task,cb_01,77.0,temp_dist_trial,dist_items,qkpkxw,2.0,response,82,1733.3999999999942,2800.1000000000067,2802.499999976164,1733.3999999999942,2800.1000000000067,2802.499999976164,1.0,1069.0999999761698,0.0,,Slider,Slider,4.0,object-56,temp_dist_trial,29.0,t_s_20_1,travel_shared,travel pill case,1.0,competing,paired,t_s_20_1.jpg,Travel,,,sub-11
Desktop or Laptop,Windows 10,Chrome 138.0.0.0,1536x864,1536x730,Temporal Distance Task,cb_01,78.0,temp_dist_trial,num_items,zn7si1,1.0,response,1_ITEM,1128.899999976158,1116.6000000000058,1128.899999976158,1128.899999976158,1116.6000000000058,1128.899999976158,1.0,0.0,0.0,,Click Response,1_count,3.0,object-46,temp_dist_trial,30.0,t_s_23_1,travel_shared,ball cap,1.0,competing,single,t_s_23_1.jpg,Travel,,,sub-11
Desktop or Laptop,Windows 10,Chrome 138.0.0.0,1536x864,1536x730,Temporal Distance Task,cb_01,79.0,temp_dist_trial,num_items,zn7si1,1.0,response,2_ITEM,1050.2999999999884,1033.3999999999942,1050.2999999999884,1050.2999999999884,1033.3999999999942,1050.2999999999884,1.0,0.0,0.0,,Click Response,2_count,5.0,object-49,temp_dist_trial,31.0,t_s_14_1,travel_shared,hand sanitizer,1.0,competing,paired,t_s_14_1.jpg,Travel,,,sub-11
Desktop or Laptop,Windows 10,Chrome 138.0.0.0,1536x864,1536x730,Temporal Distance Task,cb_01,79.0,temp_dist_trial,dist_items,qkpkxw,2.0,info,,4.000000047672073,0.0,4.000000047672073,4.000000047672073,0.0,4.000000047672073,1.0,0.0,0.0,,Slider,Slider,4.0,object-56,temp_dist_trial,31.0,t_s_14_1,travel_shared,hand sanitizer,1.0,competing,paired,t_s_14_1.jpg,Travel,,,sub-11
Desktop or Laptop,Windows 10,Chrome 138.0.0.0,1536x864,1536x730,Temporal Distance Task,cb_01,79.0,temp_dist_trial,dist_items,qkpkxw,2.0,continue,,1511.6999999761465,1499.7999999999884,1511.6999999761465,1511.6999999761465,1499.7999999999884,1511.6999999761465,1.0,0.0,0.0,,Click To Continue,Next button,7.0,object-60,temp_dist_trial,31.0,t_s_14_1,travel_shared,hand sanitizer,1.0,competing,paired,t_s_14_1.jpg,Travel,,,sub-11
Desktop or Laptop,Windows 10,Chrome 138.0.0.0,1536x864,1536x730,Temporal Distance Task,cb_01,79.0,temp_dist_trial,dist_items,qkpkxw,2.0,response,69,650.0,1499.7999999999884,1512.000000047672,650.0,1499.7999999999884,1512.000000047672,1.0,862.0000000476721,0.0,,Slider,Slider,4.0,object-56,temp_dist_trial,31.0,t_s_14_1,travel_shared,hand sanitizer,1.0,competing,paired,t_s_14_1.jpg,Travel,,,sub-11
Desktop or Laptop,Windows 10,Chrome 138.0.0.0,1536x864,1536x730,Temporal Distance Task,cb_01,80.0,temp_dist_trial,num_items,zn7si1,1.0,response,1_ITEM,931.0,916.7000000000116,931.0,931.0,916.7000000000116,931.0,1.0,0.0,0.0,,Click Response,1_count,3.0,object-46,temp_dist_trial,32.0,t_s_21_1,travel_shared,umbrella,1.0,competing,paired,t_s_21_1.jpg,Travel,,,sub-11
Desktop or Laptop,Windows 10,Chrome 138.0.0.0,1536x864,1536x730,Temporal Distance Task,cb_01,81.0,temp_dist_trial,num_items,zn7si1,1.0,response,2_ITEM,1268.100000023842,1266.2999999999886,1268.100000023842,1268.100000023842,1266.2999999999886,1268.100000023842,1.0,0.0,0.0,,Click Response,2_count,5.0,object-49,temp_dist_trial,33.0,t_s_08_1,travel_shared,hand lotion,1.0,competing,paired,t_s_08_1.jpg,Travel,,,sub-11
Desktop or Laptop,Windows 10,Chrome 138.0.0.0,1536x864,1536x730,Temporal Distance Task,cb_01,81.0,temp_dist_trial,dist_items,qkpkxw,2.0,info,,3.5999999761697836,0.0,3.5999999761697836,3.5999999761697836,0.0,3.5999999761697836,1.0,0.0,0.0,,Slider,Slider,4.0,object-56,temp_dist_trial,33.0,t_s_08_1,travel_shared,hand lotion,1.0,competing,paired,t_s_08_1.jpg,Travel,,,sub-11
Desktop or Laptop,Windows 10,Chrome 138.0.0.0,1536x864,1536x730,Temporal Distance Task,cb_01,81.0,temp_dist_trial,dist_items,qkpkxw,2.0,continue,,3551.0000000715368,3549.700000000012,3551.0000000715368,3551.0000000715368,3549.700000000012,3551.0000000715368,1.0,0.0,0.0,,Click To Continue,Next button,7.0,object-60,temp_dist_trial,33.0,t_s_08_1,travel_shared,hand lotion,1.0,competing,paired,t_s_08_1.jpg,Travel,,,sub-11
Desktop or Laptop,Windows 10,Chrome 138.0.0.0,1536x864,1536x730,Temporal Distance Task,cb_01,81.0,temp_dist_trial,dist_items,qkpkxw,2.0,response,73,2733.200000000012,3549.700000000012,3554.5999999761707,2733.200000000012,3549.700000000012,3554.5999999761707,1.0,821.3999999761581,0.0,,Slider,Slider,4.0,object-56,temp_dist_trial,33.0,t_s_08_1,travel_shared,hand lotion,1.0,competing,paired,t_s_08_1.jpg,Travel,,,sub-11
Desktop or Laptop,Windows 10,Chrome 138.0.0.0,1536x864,1536x730,Temporal Distance Task,cb_01,82.0,temp_dist_trial,num_items,zn7si1,1.0,response,1_ITEM,1456.1000000238419,1449.8999999999942,1456.1000000238419,1456.1000000238419,1449.8999999999942,1456.1000000238419,1.0,0.0,0.0,,Click Response,1_count,3.0,object-46,temp_dist_trial,34.0,t_i_15_1,travel_Iceland,compass,1.0,unique,paired,t_i_15_1.jpg,Travel,,,sub-11
Desktop or Laptop,Windows 10,Chrome 138.0.0.0,1536x864,1536x730,Temporal Distance Task,cb_01,83.0,temp_dist_trial,num_items,zn7si1,1.0,response,1_ITEM,588.8000000238535,583.3000000000175,588.8000000238535,588.8000000238535,583.3000000000175,588.8000000238535,1.0,0.0,0.0,,Click Response,1_count,3.0,object-46,temp_dist_trial,35.0,t_s_03_1,travel_shared,portable charger,1.0,competing,paired,t_s_03_1.jpg,Travel,,,sub-11
Desktop or Laptop,Windows 10,Chrome 138.0.0.0,1536x864,1536x730,Temporal Distance Task,cb_01,84.0,temp_dist_trial,num_items,zn7si1,1.0,response,1_ITEM,690.5000000715373,683.2000000000116,690.5000000715373,690.5000000715373,683.2000000000116,690.5000000715373,1.0,0.0,0.0,,Click Response,1_count,3.0,object-46,temp_dist_trial,36.0,t_s_19_1,travel_shared,pajamas,1.0,competing,single,t_s_19_1.jpg,Travel,,,sub-11
Desktop or Laptop,Windows 10,Chrome 138.0.0.0,1536x864,1536x730,Temporal Distance Task,cb_01,85.0,temp_dist_trial,num_items,zn7si1,1.0,response,1_ITEM,845.1000000000058,833.0,845.1000000000058,845.1000000000058,833.0,845.1000000000058,1.0,0.0,0.0,,Click Response,1_count,3.0,object-46,temp_dist_trial,37.0,t_i_04_1,travel_Iceland,portable camping stove,1.0,unique,single,t_i_04_1.jpg,Travel,,,sub-11
Desktop or Laptop,Windows 10,Chrome 138.0.0.0,1536x864,1536x730,Temporal Distance Task,cb_01,86.0,temp_dist_trial,num_items,zn7si1,1.0,response,1_ITEM,729.6000000238419,716.5,729.6000000238419,729.6000000238419,716.5,729.6000000238419,1.0,0.0,0.0,,Click Response,1_count,3.0,object-46,temp_dist_trial,38.0,t_s_17_1,travel_shared,toothbrush,1.0,competing,paired,t_s_17_1.jpg,Travel,,,sub-11
Desktop or Laptop,Windows 10,Chrome 138.0.0.0,1536x864,1536x730,Temporal Distance Task,cb_01,87.0,temp_dist_trial,num_items,zn7si1,1.0,response,1_ITEM,1315.600000071514,1299.8999999999942,1315.600000071514,1315.600000071514,1299.8999999999942,1315.600000071514,1.0,0.0,0.0,,Click Response,1_count,3.0,object-46,temp_dist_trial,39.0,t_m_16_1,travel_Miami,flippers,1.0,unique,paired,t_m_16_1.jpg,Travel,,,sub-11
Desktop or Laptop,Windows 10,Chrome 138.0.0.0,1536x864,1536x730,Temporal Distance Task,cb_01,88.0,temp_dist_trial,num_items,zn7si1,1.0,response,1_ITEM,620.6000000715139,616.7999999999884,620.6000000715139,620.6000000715139,616.7999999999884,620.6000000715139,1.0,0.0,0.0,,Click Response,1_count,3.0,object-46,temp_dist_trial,40.0,t_s_11_1,travel_shared,eye mask,1.0,competing,paired,t_s_11_1.jpg,Travel,,,sub-11
Desktop or Laptop,Windows 10,Chrome 138.0.0.0,1536x864,1536x730,Temporal Distance Task,cb_01,89.0,temp_dist_trial,num_items,zn7si1,1.0,response,1_ITEM,1425.7000000238475,1416.2000000000116,1425.7000000238475,1425.7000000238475,1416.2000000000116,1425.7000000238475,1.0,0.0,0.0,,Click Response,1_count,3.0,object-46,temp_dist_trial,41.0,t_s_04_1,travel_shared,instant camera,1.0,competing,single,t_s_04_1.jpg,Travel,,,sub-11
Desktop or Laptop,Windows 10,Chrome 138.0.0.0,1536x864,1536x730,Temporal Distance Task,cb_01,90.0,temp_dist_trial,num_items,zn7si1,1.0,response,2_ITEM,2318.600000023842,2316.5,2318.600000023842,2318.600000023842,2316.5,2318.600000023842,1.0,0.0,0.0,,Click Response,2_count,5.0,object-49,temp_dist_trial,42.0,t_m_12_1,travel_Miami,foldable pail and shovel,1.0,unique,paired,t_m_12_1.jpg,Travel,,,sub-11
Desktop or Laptop,Windows 10,Chrome 138.0.0.0,1536x864,1536x730,Temporal Distance Task,cb_01,90.0,temp_dist_trial,dist_items,qkpkxw,2.0,info,,3.4000000238302164,0.0,3.4000000238302164,3.4000000238302164,0.0,3.4000000238302164,1.0,0.0,0.0,,Slider,Slider,4.0,object-56,temp_dist_trial,42.0,t_m_12_1,travel_Miami,foldable pail and shovel,1.0,unique,paired,t_m_12_1.jpg,Travel,,,sub-11
Desktop or Laptop,Windows 10,Chrome 138.0.0.0,1536x864,1536x730,Temporal Distance Task,cb_01,90.0,temp_dist_trial,dist_items,qkpkxw,2.0,continue,,3318.9000000238293,3316.2999999999884,3318.9000000238293,3318.9000000238293,3316.2999999999884,3318.9000000238293,1.0,0.0,0.0,,Click To Continue,Next button,7.0,object-60,temp_dist_trial,42.0,t_m_12_1,travel_Miami,foldable pail and shovel,1.0,unique,paired,t_m_12_1.jpg,Travel,,,sub-11
Desktop or Laptop,Windows 10,Chrome 138.0.0.0,1536x864,1536x730,Temporal Distance Task,cb_01,90.0,temp_dist_trial,dist_items,qkpkxw,2.0,response,78,1816.3999999999944,3316.2999999999884,3319.2999999999884,1816.3999999999944,3316.2999999999884,3319.2999999999884,1.0,1502.8999999999942,0.0,,Slider,Slider,4.0,object-56,temp_dist_trial,42.0,t_m_12_1,travel_Miami,foldable pail and shovel,1.0,unique,paired,t_m_12_1.jpg,Travel,,,sub-11
Desktop or Laptop,Windows 10,Chrome 138.0.0.0,1536x864,1536x730,Temporal Distance Task,cb_01,91.0,temp_dist_trial,num_items,zn7si1,1.0,response,1_ITEM,1402.8000000715256,1400.0,1402.8000000715256,1402.8000000715256,1400.0,1402.8000000715256,1.0,0.0,0.0,,Click Response,1_count,3.0,object-46,temp_dist_trial,43.0,t_m_19_1,travel_Miami,surfboard,1.0,unique,paired,t_m_19_1.jpg,Travel,,,sub-11
Desktop or Laptop,Windows 10,Chrome 138.0.0.0,1536x864,1536x730,Temporal Distance Task,cb_01,92.0,temp_dist_trial,num_items,zn7si1,1.0,response,1_ITEM,728.8000000238535,716.3000000000177,728.8000000238535,728.8000000238535,716.3000000000177,728.8000000238535,1.0,0.0,0.0,,Click Response,1_count,3.0,object-46,temp_dist_trial,44.0,t_s_18_1,travel_shared,first aid kit,1.0,competing,paired,t_s_18_1.jpg,Travel,,,sub-11
Desktop or Laptop,Windows 10,Chrome 138.0.0.0,1536x864,1536x730,Temporal Distance Task,cb_01,93.0,temp_dist_trial,num_items,zn7si1,1.0,response,1_ITEM,714.8999999999942,700.1999999999823,714.8999999999942,714.8999999999942,700.1999999999823,714.8999999999942,1.0,0.0,0.0,,Click Response,1_count,3.0,object-46,temp_dist_trial,45.0,t_m_15_1,travel_Miami,shorts,1.0,unique,paired,t_m_15_1.jpg,Travel,,,sub-11
Desktop or Laptop,Windows 10,Chrome 138.0.0.0,1536x864,1536x730,Temporal Distance Task,cb_01,94.0,temp_dist_trial,num_items,zn7si1,1.0,response,1_ITEM,1843.6000000000056,1833.1000000000056,1843.6000000000056,1843.6000000000056,1833.1000000000056,1843.6000000000056,1.0,0.0,0.0,,Click Response,1_count,3.0,object-46,temp_dist_trial,46.0,t_s_15_1,travel_shared,luggage tag,1.0,competing,single,t_s_15_1.jpg,Travel,,,sub-11
Desktop or Laptop,Windows 10,Chrome 138.0.0.0,1536x864,1536x730,Temporal Distance Task,cb_01,95.0,temp_dist_trial,num_items,zn7si1,1.0,response,1_ITEM,777.4000000715314,766.3000000000177,777.4000000715314,777.4000000715314,766.3000000000177,777.4000000715314,1.0,0.0,0.0,,Click Response,1_count,3.0,object-46,temp_dist_trial,47.0,t_m_02_1,travel_Miami,t-shirt,1.0,unique,paired,t_m_02_1.jpg,Travel,,,sub-11
Desktop or Laptop,Windows 10,Chrome 138.0.0.0,1536x864,1536x730,Temporal Distance Task,cb_01,96.0,temp_dist_trial,num_items,zn7si1,1.0,response,1_ITEM,1192.9000000476954,1183.6000000000058,1192.9000000476954,1192.9000000476954,1183.6000000000058,1192.9000000476954,1.0,0.0,0.0,,Click Response,1_count,3.0,object-46,temp_dist_trial,48.0,t_m_08_1,travel_Miami,flipflops,1.0,unique,single,t_m_08_1.jpg,Travel,,,sub-11
Desktop or Laptop,Windows 10,Chrome 138.0.0.0,1536x864,1536x730,Temporal Distance Task,$${counterbalance_group},,,,,,info,END,,,200658.0,,,,0.0,,,,,,,,,,,,,,,,,,,,sub-11
