Participant Device,Participant OS,Participant Browser,Participant Monitor Size,Participant Viewport Size,Task Name,Current Spreadsheet,Trial Number,Display,Screen,Screen ID,Screen Counter,Response Type,Response,Onset Time,Clock Time,Reaction Time,Absolute Onset Time,Absolute Clock Time,Absolute Reaction Time,Correct,Response Duration,Proportion,Tag,Component Name,Object Name,Object Number,Object ID,Spreadsheet: display,Spreadsheet: trial,Spreadsheet: stimulus_id,Spreadsheet: expected_goal,Spreadsheet: stimulus_name,Spreadsheet: c_group,Spreadsheet: condition,Spreadsheet: paired_status,Spreadsheet: stimulus_path,Spreadsheet: block_type,Manipulation: Spreadsheet,Store: enc_test_acc,sub_label
Desktop or Laptop,Windows 10,AVG Secure Browser 137.0.0.0,1920x1080,1920x959,Temporal Distance Task,$${counterbalance_group},,,,,,info,BEGIN,,,,,,,0.0,,,,,,,,,,,,,,,,,,,,sub-48
Desktop or Laptop,Windows 10,AVG Secure Browser 137.0.0.0,1920x1080,1920x959,Temporal Distance Task,cb_07,1.0,temp_instructions,intro_screen,3tnme7,1.0,continue,,8334.0,8321.7,8334.0,8334.0,8321.7,8334.0,1.0,0.0,0.0,,Click To Continue,Continue Button,4.0,object-29,temp_instructions,,,Student,,,,,,,,,sub-48
Desktop or Laptop,Windows 10,AVG Secure Browser 137.0.0.0,1920x1080,1920x959,Temporal Distance Task,cb_07,1.0,temp_instructions,intro_screen_2,52v7ur,2.0,continue,,7997.7000000022335,7989.299999999997,7997.7000000022335,7997.7000000022335,7989.299999999997,7997.7000000022335,1.0,0.0,0.0,,Click To Continue,Continue Button,4.0,object-39,temp_instructions,,,Student,,,,,,,,,sub-48
Desktop or Laptop,Windows 10,AVG Secure Browser 137.0.0.0,1920x1080,1920x959,Temporal Distance Task,cb_07,1.0,temp_instructions,intro_screen_3,i7lvwx,3.0,continue,,5487.200000002979,5481.700000000002,5487.200000002979,5487.200000002979,5481.700000000002,5487.200000002979,1.0,0.0,0.0,,Click To Continue,Continue Button,4.0,object-67,temp_instructions,,,Student,,,,,,,,,sub-48
Desktop or Laptop,Windows 10,AVG Secure Browser 137.0.0.0,1920x1080,1920x959,Temporal Distance Task,cb_07,1.0,temp_instructions,test_q1,5ieqx1,4.0,response,choice_3,3821.4000000014894,3819.599999999999,3821.4000000014894,3821.4000000014894,3819.599999999999,3821.4000000014894,1.0,0.0,0.0,,Click Response,choice_3,5.0,object-345,temp_instructions,,,Student,,,,,,,,,sub-48
Desktop or Laptop,Windows 10,AVG Secure Browser 137.0.0.0,1920x1080,1920x959,Temporal Distance Task,cb_07,1.0,temp_instructions,score_corr,7ilvjr,5.0,continue,,1134.8000000014908,1129.6000000000022,1134.8000000014908,1134.8000000014908,1129.6000000000022,1134.8000000014908,1.0,0.0,0.0,,Click To Continue,Continue Button,3.0,object-23,temp_instructions,,,Student,,,,,,,,,sub-48
Desktop or Laptop,Windows 10,AVG Secure Browser 137.0.0.0,1920x1080,1920x959,Temporal Distance Task,cb_07,1.0,temp_eventStart,Screen 1,dgtyxe,1.0,continue,,1652.5000000022335,1644.3999999999978,1652.5000000022335,1652.5000000022335,1644.3999999999978,1652.5000000022335,1.0,0.0,0.0,,Click To Continue,Next Button,3.0,object-43,temp_eventStart,,,Student,,,,,,,,,sub-48
Desktop or Laptop,Windows 10,AVG Secure Browser 137.0.0.0,1920x1080,1920x959,Temporal Distance Task,cb_07,1.0,temp_dist_trial,num_items,zn7si1,1.0,response,2_ITEM,954.3000000014907,946.6000000000024,954.3000000014907,954.3000000014907,946.6000000000024,954.3000000014907,1.0,0.0,0.0,,Click Response,2_count,5.0,object-49,temp_dist_trial,1.0,s_sh_13_1,student_shared,index cards,7.0,competing,paired,s_sh_13_1.jpg,Student,,,sub-48
Desktop or Laptop,Windows 10,AVG Secure Browser 137.0.0.0,1920x1080,1920x959,Temporal Distance Task,cb_07,1.0,temp_dist_trial,dist_items,qkpkxw,2.0,info,,6.1000000007443305,0.0,6.1000000007443305,6.1000000007443305,0.0,6.1000000007443305,1.0,0.0,0.0,,Slider,Slider,4.0,object-56,temp_dist_trial,1.0,s_sh_13_1,student_shared,index cards,7.0,competing,paired,s_sh_13_1.jpg,Student,,,sub-48
Desktop or Laptop,Windows 10,AVG Secure Browser 137.0.0.0,1920x1080,1920x959,Temporal Distance Task,cb_07,1.0,temp_dist_trial,dist_items,qkpkxw,2.0,continue,,2490.7999999999993,2474.999999999997,2490.7999999999993,2490.7999999999993,2474.999999999997,2490.7999999999993,1.0,0.0,0.0,,Click To Continue,Next button,7.0,object-60,temp_dist_trial,1.0,s_sh_13_1,student_shared,index cards,7.0,competing,paired,s_sh_13_1.jpg,Student,,,sub-48
Desktop or Laptop,Windows 10,AVG Secure Browser 137.0.0.0,1920x1080,1920x959,Temporal Distance Task,cb_07,1.0,temp_dist_trial,dist_items,qkpkxw,2.0,response,36,1578.2000000000005,2474.999999999997,2491.2999999999993,1578.2000000000005,2474.999999999997,2491.2999999999993,1.0,913.0999999999983,0.0,,Slider,Slider,4.0,object-56,temp_dist_trial,1.0,s_sh_13_1,student_shared,index cards,7.0,competing,paired,s_sh_13_1.jpg,Student,,,sub-48
Desktop or Laptop,Windows 10,AVG Secure Browser 137.0.0.0,1920x1080,1920x959,Temporal Distance Task,cb_07,2.0,temp_dist_trial,num_items,zn7si1,1.0,response,1_ITEM,1926.3000000000034,1910.0,1926.3000000000034,1926.3000000000034,1910.0,1926.3000000000034,1.0,0.0,0.0,,Click Response,1_count,3.0,object-46,temp_dist_trial,2.0,s_a_09_1,student_art,picture frame,7.0,unique,single,s_a_09_1.jpg,Student,,,sub-48
Desktop or Laptop,Windows 10,AVG Secure Browser 137.0.0.0,1920x1080,1920x959,Temporal Distance Task,cb_07,3.0,temp_dist_trial,num_items,zn7si1,1.0,response,2_ITEM,1445.9000000029773,1445.0999999999985,1445.9000000029773,1445.9000000029773,1445.0999999999985,1445.9000000029773,1.0,0.0,0.0,,Click Response,2_count,5.0,object-49,temp_dist_trial,3.0,s_sh_02_1,student_shared,eraser,7.0,competing,paired,s_sh_02_1.jpg,Student,,,sub-48
Desktop or Laptop,Windows 10,AVG Secure Browser 137.0.0.0,1920x1080,1920x959,Temporal Distance Task,cb_07,3.0,temp_dist_trial,dist_items,qkpkxw,2.0,info,,7.900000002235174,0.0,7.900000002235174,7.900000002235174,0.0,7.900000002235174,1.0,0.0,0.0,,Slider,Slider,4.0,object-56,temp_dist_trial,3.0,s_sh_02_1,student_shared,eraser,7.0,competing,paired,s_sh_02_1.jpg,Student,,,sub-48
Desktop or Laptop,Windows 10,AVG Secure Browser 137.0.0.0,1920x1080,1920x959,Temporal Distance Task,cb_07,3.0,temp_dist_trial,dist_items,qkpkxw,2.0,continue,,4794.900000002235,4783.5999999999985,4794.900000002235,4794.900000002235,4783.5999999999985,4794.900000002235,1.0,0.0,0.0,,Click To Continue,Next button,7.0,object-60,temp_dist_trial,3.0,s_sh_02_1,student_shared,eraser,7.0,competing,paired,s_sh_02_1.jpg,Student,,,sub-48
Desktop or Laptop,Windows 10,AVG Secure Browser 137.0.0.0,1920x1080,1920x959,Temporal Distance Task,cb_07,3.0,temp_dist_trial,dist_items,qkpkxw,2.0,response,26,1627.9000000000015,4783.5999999999985,4798.800000000745,1627.9000000000015,4783.5999999999985,4798.800000000745,1.0,3170.900000000744,0.0,,Slider,Slider,4.0,object-56,temp_dist_trial,3.0,s_sh_02_1,student_shared,eraser,7.0,competing,paired,s_sh_02_1.jpg,Student,,,sub-48
Desktop or Laptop,Windows 10,AVG Secure Browser 137.0.0.0,1920x1080,1920x959,Temporal Distance Task,cb_07,4.0,temp_dist_trial,num_items,zn7si1,1.0,response,2_ITEM,1428.3000000000034,1411.8000000000034,1428.3000000000034,1428.3000000000034,1411.8000000000034,1428.3000000000034,1.0,0.0,0.0,,Click Response,2_count,5.0,object-49,temp_dist_trial,4.0,s_sh_07_1,student_shared,ruler,7.0,competing,paired,s_sh_07_1.jpg,Student,,,sub-48
Desktop or Laptop,Windows 10,AVG Secure Browser 137.0.0.0,1920x1080,1920x959,Temporal Distance Task,cb_07,4.0,temp_dist_trial,dist_items,qkpkxw,2.0,info,,4.800000002236629,0.0,4.800000002236629,4.800000002236629,0.0,4.800000002236629,1.0,0.0,0.0,,Slider,Slider,4.0,object-56,temp_dist_trial,4.0,s_sh_07_1,student_shared,ruler,7.0,competing,paired,s_sh_07_1.jpg,Student,,,sub-48
Desktop or Laptop,Windows 10,AVG Secure Browser 137.0.0.0,1920x1080,1920x959,Temporal Distance Task,cb_07,4.0,temp_dist_trial,dist_items,qkpkxw,2.0,continue,,1760.8999999999942,1744.0999999999985,1760.8999999999942,1760.8999999999942,1744.0999999999985,1760.8999999999942,1.0,0.0,0.0,,Click To Continue,Next button,7.0,object-60,temp_dist_trial,4.0,s_sh_07_1,student_shared,ruler,7.0,competing,paired,s_sh_07_1.jpg,Student,,,sub-48
Desktop or Laptop,Windows 10,AVG Secure Browser 137.0.0.0,1920x1080,1920x959,Temporal Distance Task,cb_07,4.0,temp_dist_trial,dist_items,qkpkxw,2.0,response,37,880.3000000000029,1744.0999999999985,1760.8999999999942,880.3000000000029,1744.0999999999985,1760.8999999999942,1.0,880.5999999999913,0.0,,Slider,Slider,4.0,object-56,temp_dist_trial,4.0,s_sh_07_1,student_shared,ruler,7.0,competing,paired,s_sh_07_1.jpg,Student,,,sub-48
Desktop or Laptop,Windows 10,AVG Secure Browser 137.0.0.0,1920x1080,1920x959,Temporal Distance Task,cb_07,5.0,temp_dist_trial,num_items,zn7si1,1.0,response,2_ITEM,1314.400000001493,1312.1000000000058,1314.400000001493,1314.400000001493,1312.1000000000058,1314.400000001493,1.0,0.0,0.0,,Click Response,2_count,5.0,object-49,temp_dist_trial,5.0,s_s_16_1,student_stem,toolbox,7.0,unique,paired,s_s_16_1.jpg,Student,,,sub-48
Desktop or Laptop,Windows 10,AVG Secure Browser 137.0.0.0,1920x1080,1920x959,Temporal Distance Task,cb_07,5.0,temp_dist_trial,dist_items,qkpkxw,2.0,info,,4.0,0.0,4.0,4.0,0.0,4.0,1.0,0.0,0.0,,Slider,Slider,4.0,object-56,temp_dist_trial,5.0,s_s_16_1,student_stem,toolbox,7.0,unique,paired,s_s_16_1.jpg,Student,,,sub-48
Desktop or Laptop,Windows 10,AVG Secure Browser 137.0.0.0,1920x1080,1920x959,Temporal Distance Task,cb_07,5.0,temp_dist_trial,dist_items,qkpkxw,2.0,continue,,1724.9000000022352,1710.8000000000034,1724.9000000022352,1724.9000000022352,1710.8000000000034,1724.9000000022352,1.0,0.0,0.0,,Click To Continue,Next button,7.0,object-60,temp_dist_trial,5.0,s_s_16_1,student_stem,toolbox,7.0,unique,paired,s_s_16_1.jpg,Student,,,sub-48
Desktop or Laptop,Windows 10,AVG Secure Browser 137.0.0.0,1920x1080,1920x959,Temporal Distance Task,cb_07,5.0,temp_dist_trial,dist_items,qkpkxw,2.0,response,73,697.5,1710.8000000000034,1725.2000000029807,697.5,1710.8000000000034,1725.2000000029807,1.0,1027.7000000029802,0.0,,Slider,Slider,4.0,object-56,temp_dist_trial,5.0,s_s_16_1,student_stem,toolbox,7.0,unique,paired,s_s_16_1.jpg,Student,,,sub-48
Desktop or Laptop,Windows 10,AVG Secure Browser 137.0.0.0,1920x1080,1920x959,Temporal Distance Task,cb_07,6.0,temp_dist_trial,num_items,zn7si1,1.0,response,2_ITEM,757.8000000014873,747.5,757.8000000014873,757.8000000014873,747.5,757.8000000014873,1.0,0.0,0.0,,Click Response,2_count,5.0,object-49,temp_dist_trial,6.0,s_a_18_1,student_art,tutu,7.0,unique,paired,s_a_18_1.jpg,Student,,,sub-48
Desktop or Laptop,Windows 10,AVG Secure Browser 137.0.0.0,1920x1080,1920x959,Temporal Distance Task,cb_07,6.0,temp_dist_trial,dist_items,qkpkxw,2.0,info,,4.100000002232264,0.0,4.100000002232264,4.100000002232264,0.0,4.100000002232264,1.0,0.0,0.0,,Slider,Slider,4.0,object-56,temp_dist_trial,6.0,s_a_18_1,student_art,tutu,7.0,unique,paired,s_a_18_1.jpg,Student,,,sub-48
Desktop or Laptop,Windows 10,AVG Secure Browser 137.0.0.0,1920x1080,1920x959,Temporal Distance Task,cb_07,6.0,temp_dist_trial,dist_items,qkpkxw,2.0,continue,,1714.1000000022323,1710.8999999999942,1714.1000000022323,1714.1000000022323,1710.8999999999942,1714.1000000022323,1.0,0.0,0.0,,Click To Continue,Next button,7.0,object-60,temp_dist_trial,6.0,s_a_18_1,student_art,tutu,7.0,unique,paired,s_a_18_1.jpg,Student,,,sub-48
Desktop or Laptop,Windows 10,AVG Secure Browser 137.0.0.0,1920x1080,1920x959,Temporal Distance Task,cb_07,6.0,temp_dist_trial,dist_items,qkpkxw,2.0,response,15,697.5999999999983,1710.8999999999942,1714.500000000742,697.5999999999983,1710.8999999999942,1714.500000000742,1.0,1016.9000000007436,0.0,,Slider,Slider,4.0,object-56,temp_dist_trial,6.0,s_a_18_1,student_art,tutu,7.0,unique,paired,s_a_18_1.jpg,Student,,,sub-48
Desktop or Laptop,Windows 10,AVG Secure Browser 137.0.0.0,1920x1080,1920x959,Temporal Distance Task,cb_07,7.0,temp_dist_trial,num_items,zn7si1,1.0,response,2_ITEM,810.2000000022383,797.4000000000017,810.2000000022383,810.2000000022383,797.4000000000017,810.2000000022383,1.0,0.0,0.0,,Click Response,2_count,5.0,object-49,temp_dist_trial,7.0,s_a_05_1,student_art,clay,7.0,unique,paired,s_a_05_1.jpg,Student,,,sub-48
Desktop or Laptop,Windows 10,AVG Secure Browser 137.0.0.0,1920x1080,1920x959,Temporal Distance Task,cb_07,7.0,temp_dist_trial,dist_items,qkpkxw,2.0,info,,5.099999999998545,0.0,5.099999999998545,5.099999999998545,0.0,5.099999999998545,1.0,0.0,0.0,,Slider,Slider,4.0,object-56,temp_dist_trial,7.0,s_a_05_1,student_art,clay,7.0,unique,paired,s_a_05_1.jpg,Student,,,sub-48
Desktop or Laptop,Windows 10,AVG Secure Browser 137.0.0.0,1920x1080,1920x959,Temporal Distance Task,cb_07,7.0,temp_dist_trial,dist_items,qkpkxw,2.0,continue,,1466.8000000029788,1461.9000000000015,1466.8000000029788,1466.8000000029788,1461.9000000000015,1466.8000000029788,1.0,0.0,0.0,,Click To Continue,Next button,7.0,object-60,temp_dist_trial,7.0,s_a_05_1,student_art,clay,7.0,unique,paired,s_a_05_1.jpg,Student,,,sub-48
Desktop or Laptop,Windows 10,AVG Secure Browser 137.0.0.0,1920x1080,1920x959,Temporal Distance Task,cb_07,7.0,temp_dist_trial,dist_items,qkpkxw,2.0,response,,1467.3000000029788,1461.9000000000015,1467.3000000029788,1467.3000000029788,1461.9000000000015,1467.3000000029788,1.0,0.0,0.0,,Slider,Slider,4.0,object-56,temp_dist_trial,7.0,s_a_05_1,student_art,clay,7.0,unique,paired,s_a_05_1.jpg,Student,,,sub-48
Desktop or Laptop,Windows 10,AVG Secure Browser 137.0.0.0,1920x1080,1920x959,Temporal Distance Task,cb_07,8.0,temp_dist_trial,num_items,zn7si1,1.0,response,1_ITEM,2368.699999999997,2358.8999999999937,2368.699999999997,2368.699999999997,2358.8999999999937,2368.699999999997,1.0,0.0,0.0,,Click Response,1_count,3.0,object-46,temp_dist_trial,8.0,s_sh_04_1,student_shared,laptop stand,7.0,competing,single,s_sh_04_1.jpg,Student,,,sub-48
Desktop or Laptop,Windows 10,AVG Secure Browser 137.0.0.0,1920x1080,1920x959,Temporal Distance Task,cb_07,9.0,temp_dist_trial,num_items,zn7si1,1.0,response,2_ITEM,1387.5000000014913,1378.5999999999985,1387.5000000014913,1387.5000000014913,1378.5999999999985,1387.5000000014913,1.0,0.0,0.0,,Click Response,2_count,5.0,object-49,temp_dist_trial,9.0,s_a_14_1,student_art,guitar pick,7.0,unique,paired,s_a_14_1.jpg,Student,,,sub-48
Desktop or Laptop,Windows 10,AVG Secure Browser 137.0.0.0,1920x1080,1920x959,Temporal Distance Task,cb_07,9.0,temp_dist_trial,dist_items,qkpkxw,2.0,info,,6.600000000747968,0.0,6.600000000747968,6.600000000747968,0.0,6.600000000747968,1.0,0.0,0.0,,Slider,Slider,4.0,object-56,temp_dist_trial,9.0,s_a_14_1,student_art,guitar pick,7.0,unique,paired,s_a_14_1.jpg,Student,,,sub-48
Desktop or Laptop,Windows 10,AVG Secure Browser 137.0.0.0,1920x1080,1920x959,Temporal Distance Task,cb_07,9.0,temp_dist_trial,dist_items,qkpkxw,2.0,continue,,2375.0999999999985,2358.5,2375.0999999999985,2375.0999999999985,2358.5,2375.0999999999985,1.0,0.0,0.0,,Click To Continue,Next button,7.0,object-60,temp_dist_trial,9.0,s_a_14_1,student_art,guitar pick,7.0,unique,paired,s_a_14_1.jpg,Student,,,sub-48
Desktop or Laptop,Windows 10,AVG Secure Browser 137.0.0.0,1920x1080,1920x959,Temporal Distance Task,cb_07,9.0,temp_dist_trial,dist_items,qkpkxw,2.0,response,30,1627.8000000000034,2358.5,2375.0999999999985,1627.8000000000034,2358.5,2375.0999999999985,1.0,747.2999999999955,0.0,,Slider,Slider,4.0,object-56,temp_dist_trial,9.0,s_a_14_1,student_art,guitar pick,7.0,unique,paired,s_a_14_1.jpg,Student,,,sub-48
Desktop or Laptop,Windows 10,AVG Secure Browser 137.0.0.0,1920x1080,1920x959,Temporal Distance Task,cb_07,10.0,temp_dist_trial,num_items,zn7si1,1.0,response,2_ITEM,1000.100000000748,996.8000000000028,1000.100000000748,1000.100000000748,996.8000000000028,1000.100000000748,1.0,0.0,0.0,,Click Response,2_count,5.0,object-49,temp_dist_trial,10.0,s_a_01_1,student_art,paintbrush,7.0,unique,paired,s_a_01_1.jpg,Student,,,sub-48
Desktop or Laptop,Windows 10,AVG Secure Browser 137.0.0.0,1920x1080,1920x959,Temporal Distance Task,cb_07,10.0,temp_dist_trial,dist_items,qkpkxw,2.0,info,,4.500000002233719,0.0,4.500000002233719,4.500000002233719,0.0,4.500000002233719,1.0,0.0,0.0,,Slider,Slider,4.0,object-56,temp_dist_trial,10.0,s_a_01_1,student_art,paintbrush,7.0,unique,paired,s_a_01_1.jpg,Student,,,sub-48
Desktop or Laptop,Windows 10,AVG Secure Browser 137.0.0.0,1920x1080,1920x959,Temporal Distance Task,cb_07,10.0,temp_dist_trial,dist_items,qkpkxw,2.0,continue,,2021.400000000744,2009.9000000000005,2021.400000000744,2021.400000000744,2009.9000000000005,2021.400000000744,1.0,0.0,0.0,,Click To Continue,Next button,7.0,object-60,temp_dist_trial,10.0,s_a_01_1,student_art,paintbrush,7.0,unique,paired,s_a_01_1.jpg,Student,,,sub-48
Desktop or Laptop,Windows 10,AVG Secure Browser 137.0.0.0,1920x1080,1920x959,Temporal Distance Task,cb_07,10.0,temp_dist_trial,dist_items,qkpkxw,2.0,response,68,1312.4000000000015,2009.9000000000005,2026.3000000000034,1312.4000000000015,2009.9000000000005,2026.3000000000034,1.0,713.9000000000017,0.0,,Slider,Slider,4.0,object-56,temp_dist_trial,10.0,s_a_01_1,student_art,paintbrush,7.0,unique,paired,s_a_01_1.jpg,Student,,,sub-48
Desktop or Laptop,Windows 10,AVG Secure Browser 137.0.0.0,1920x1080,1920x959,Temporal Distance Task,cb_07,11.0,temp_dist_trial,num_items,zn7si1,1.0,response,2_ITEM,2678.900000002977,2674.300000000003,2678.900000002977,2678.900000002977,2674.300000000003,2678.900000002977,1.0,0.0,0.0,,Click Response,2_count,5.0,object-49,temp_dist_trial,11.0,s_sh_16_1,student_shared,stapler,7.0,competing,paired,s_sh_16_1.jpg,Student,,,sub-48
Desktop or Laptop,Windows 10,AVG Secure Browser 137.0.0.0,1920x1080,1920x959,Temporal Distance Task,cb_07,11.0,temp_dist_trial,dist_items,qkpkxw,2.0,info,,3.4000000014930265,0.0,3.4000000014930265,3.4000000014930265,0.0,3.4000000014930265,1.0,0.0,0.0,,Slider,Slider,4.0,object-56,temp_dist_trial,11.0,s_sh_16_1,student_shared,stapler,7.0,competing,paired,s_sh_16_1.jpg,Student,,,sub-48
Desktop or Laptop,Windows 10,AVG Secure Browser 137.0.0.0,1920x1080,1920x959,Temporal Distance Task,cb_07,11.0,temp_dist_trial,dist_items,qkpkxw,2.0,continue,,2150.800000000003,2142.699999999997,2150.800000000003,2150.800000000003,2142.699999999997,2150.800000000003,1.0,0.0,0.0,,Click To Continue,Next button,7.0,object-60,temp_dist_trial,11.0,s_sh_16_1,student_shared,stapler,7.0,competing,paired,s_sh_16_1.jpg,Student,,,sub-48
Desktop or Laptop,Windows 10,AVG Secure Browser 137.0.0.0,1920x1080,1920x959,Temporal Distance Task,cb_07,11.0,temp_dist_trial,dist_items,qkpkxw,2.0,response,36,1345.5,2142.699999999997,2151.300000000003,1345.5,2142.699999999997,2151.300000000003,1.0,805.8000000000029,0.0,,Slider,Slider,4.0,object-56,temp_dist_trial,11.0,s_sh_16_1,student_shared,stapler,7.0,competing,paired,s_sh_16_1.jpg,Student,,,sub-48
Desktop or Laptop,Windows 10,AVG Secure Browser 137.0.0.0,1920x1080,1920x959,Temporal Distance Task,cb_07,12.0,temp_dist_trial,num_items,zn7si1,1.0,response,2_ITEM,1125.1000000000058,1112.9000000000087,1125.1000000000058,1125.1000000000058,1112.9000000000087,1125.1000000000058,1.0,0.0,0.0,,Click Response,2_count,5.0,object-49,temp_dist_trial,12.0,s_a_07_1,student_art,yarn,7.0,unique,paired,s_a_07_1.jpg,Student,,,sub-48
Desktop or Laptop,Windows 10,AVG Secure Browser 137.0.0.0,1920x1080,1920x959,Temporal Distance Task,cb_07,12.0,temp_dist_trial,dist_items,qkpkxw,2.0,info,,3.600000002232264,0.0,3.600000002232264,3.600000002232264,0.0,3.600000002232264,1.0,0.0,0.0,,Slider,Slider,4.0,object-56,temp_dist_trial,12.0,s_a_07_1,student_art,yarn,7.0,unique,paired,s_a_07_1.jpg,Student,,,sub-48
Desktop or Laptop,Windows 10,AVG Secure Browser 137.0.0.0,1920x1080,1920x959,Temporal Distance Task,cb_07,12.0,temp_dist_trial,dist_items,qkpkxw,2.0,continue,,1637.000000000742,1627.8999999999942,1637.000000000742,1637.000000000742,1627.8999999999942,1637.000000000742,1.0,0.0,0.0,,Click To Continue,Next button,7.0,object-60,temp_dist_trial,12.0,s_a_07_1,student_art,yarn,7.0,unique,paired,s_a_07_1.jpg,Student,,,sub-48
Desktop or Laptop,Windows 10,AVG Secure Browser 137.0.0.0,1920x1080,1920x959,Temporal Distance Task,cb_07,12.0,temp_dist_trial,dist_items,qkpkxw,2.0,response,77,946.8999999999942,1627.8999999999942,1637.3000000014872,946.8999999999942,1627.8999999999942,1637.3000000014872,1.0,690.400000001493,0.0,,Slider,Slider,4.0,object-56,temp_dist_trial,12.0,s_a_07_1,student_art,yarn,7.0,unique,paired,s_a_07_1.jpg,Student,,,sub-48
Desktop or Laptop,Windows 10,AVG Secure Browser 137.0.0.0,1920x1080,1920x959,Temporal Distance Task,cb_07,13.0,temp_dist_trial,num_items,zn7si1,1.0,response,2_ITEM,995.3000000000028,980.0,995.3000000000028,995.3000000000028,980.0,995.3000000000028,1.0,0.0,0.0,,Click Response,2_count,5.0,object-49,temp_dist_trial,13.0,s_sh_21_1,student_shared,file holder,7.0,competing,paired,s_sh_21_1.jpg,Student,,,sub-48
Desktop or Laptop,Windows 10,AVG Secure Browser 137.0.0.0,1920x1080,1920x959,Temporal Distance Task,cb_07,13.0,temp_dist_trial,dist_items,qkpkxw,2.0,info,,5.100000000747968,0.0,5.100000000747968,5.100000000747968,0.0,5.100000000747968,1.0,0.0,0.0,,Slider,Slider,4.0,object-56,temp_dist_trial,13.0,s_sh_21_1,student_shared,file holder,7.0,competing,paired,s_sh_21_1.jpg,Student,,,sub-48
Desktop or Laptop,Windows 10,AVG Secure Browser 137.0.0.0,1920x1080,1920x959,Temporal Distance Task,cb_07,13.0,temp_dist_trial,dist_items,qkpkxw,2.0,continue,,2500.400000001493,2491.5,2500.400000001493,2500.400000001493,2491.5,2500.400000001493,1.0,0.0,0.0,,Click To Continue,Next button,7.0,object-60,temp_dist_trial,13.0,s_sh_21_1,student_shared,file holder,7.0,competing,paired,s_sh_21_1.jpg,Student,,,sub-48
Desktop or Laptop,Windows 10,AVG Secure Browser 137.0.0.0,1920x1080,1920x959,Temporal Distance Task,cb_07,13.0,temp_dist_trial,dist_items,qkpkxw,2.0,response,99,1046.6999999999969,2491.5,2503.900000001493,1046.6999999999969,2491.5,2503.900000001493,1.0,1457.200000001496,0.0,,Slider,Slider,4.0,object-56,temp_dist_trial,13.0,s_sh_21_1,student_shared,file holder,7.0,competing,paired,s_sh_21_1.jpg,Student,,,sub-48
Desktop or Laptop,Windows 10,AVG Secure Browser 137.0.0.0,1920x1080,1920x959,Temporal Distance Task,cb_07,14.0,temp_dist_trial,num_items,zn7si1,1.0,response,2_ITEM,1577.0000000029834,1561.400000000009,1577.0000000029834,1577.0000000029834,1561.400000000009,1577.0000000029834,1.0,0.0,0.0,,Click Response,2_count,5.0,object-49,temp_dist_trial,14.0,s_sh_11_1,student_shared,pencil case,7.0,competing,paired,s_sh_11_1.jpg,Student,,,sub-48
Desktop or Laptop,Windows 10,AVG Secure Browser 137.0.0.0,1920x1080,1920x959,Temporal Distance Task,cb_07,14.0,temp_dist_trial,dist_items,qkpkxw,2.0,info,,6.1999999999970905,0.0,6.1999999999970905,6.1999999999970905,0.0,6.1999999999970905,1.0,0.0,0.0,,Slider,Slider,4.0,object-56,temp_dist_trial,14.0,s_sh_11_1,student_shared,pencil case,7.0,competing,paired,s_sh_11_1.jpg,Student,,,sub-48
Desktop or Laptop,Windows 10,AVG Secure Browser 137.0.0.0,1920x1080,1920x959,Temporal Distance Task,cb_07,14.0,temp_dist_trial,dist_items,qkpkxw,2.0,continue,,1800.500000000742,1793.6999999999966,1800.500000000742,1800.500000000742,1793.6999999999966,1800.500000000742,1.0,0.0,0.0,,Click To Continue,Next button,7.0,object-60,temp_dist_trial,14.0,s_sh_11_1,student_shared,pencil case,7.0,competing,paired,s_sh_11_1.jpg,Student,,,sub-48
Desktop or Laptop,Windows 10,AVG Secure Browser 137.0.0.0,1920x1080,1920x959,Temporal Distance Task,cb_07,14.0,temp_dist_trial,dist_items,qkpkxw,2.0,response,37,1146.0999999999913,1793.6999999999966,1801.000000000742,1146.0999999999913,1793.6999999999966,1801.000000000742,1.0,654.9000000007509,0.0,,Slider,Slider,4.0,object-56,temp_dist_trial,14.0,s_sh_11_1,student_shared,pencil case,7.0,competing,paired,s_sh_11_1.jpg,Student,,,sub-48
Desktop or Laptop,Windows 10,AVG Secure Browser 137.0.0.0,1920x1080,1920x959,Temporal Distance Task,cb_07,15.0,temp_dist_trial,num_items,zn7si1,1.0,response,2_ITEM,861.1000000014903,847.3000000000029,861.1000000014903,861.1000000014903,847.3000000000029,861.1000000014903,1.0,0.0,0.0,,Click Response,2_count,5.0,object-49,temp_dist_trial,15.0,s_sh_05_1,student_shared,laptop,7.0,competing,paired,s_sh_05_1.jpg,Student,,,sub-48
Desktop or Laptop,Windows 10,AVG Secure Browser 137.0.0.0,1920x1080,1920x959,Temporal Distance Task,cb_07,15.0,temp_dist_trial,dist_items,qkpkxw,2.0,info,,5.200000000739237,0.0,5.200000000739237,5.200000000739237,0.0,5.200000000739237,1.0,0.0,0.0,,Slider,Slider,4.0,object-56,temp_dist_trial,15.0,s_sh_05_1,student_shared,laptop,7.0,competing,paired,s_sh_05_1.jpg,Student,,,sub-48
Desktop or Laptop,Windows 10,AVG Secure Browser 137.0.0.0,1920x1080,1920x959,Temporal Distance Task,cb_07,15.0,temp_dist_trial,dist_items,qkpkxw,2.0,continue,,3063.8999999999933,3056.3999999999933,3063.8999999999933,3063.8999999999933,3056.3999999999933,3063.8999999999933,1.0,0.0,0.0,,Click To Continue,Next button,7.0,object-60,temp_dist_trial,15.0,s_sh_05_1,student_shared,laptop,7.0,competing,paired,s_sh_05_1.jpg,Student,,,sub-48
Desktop or Laptop,Windows 10,AVG Secure Browser 137.0.0.0,1920x1080,1920x959,Temporal Distance Task,cb_07,15.0,temp_dist_trial,dist_items,qkpkxw,2.0,response,75,1262.5,3056.3999999999933,3064.300000002229,1262.5,3056.3999999999933,3064.300000002229,1.0,1801.8000000022294,0.0,,Slider,Slider,4.0,object-56,temp_dist_trial,15.0,s_sh_05_1,student_shared,laptop,7.0,competing,paired,s_sh_05_1.jpg,Student,,,sub-48
Desktop or Laptop,Windows 10,AVG Secure Browser 137.0.0.0,1920x1080,1920x959,Temporal Distance Task,cb_07,16.0,temp_dist_trial,num_items,zn7si1,1.0,response,2_ITEM,1689.5,1677.6999999999966,1689.5,1689.5,1677.6999999999966,1689.5,1.0,0.0,0.0,,Click Response,2_count,5.0,object-49,temp_dist_trial,16.0,s_sh_06_1,student_shared,clipboard,7.0,competing,paired,s_sh_06_1.jpg,Student,,,sub-48
Desktop or Laptop,Windows 10,AVG Secure Browser 137.0.0.0,1920x1080,1920x959,Temporal Distance Task,cb_07,16.0,temp_dist_trial,dist_items,qkpkxw,2.0,info,,4.1000000029744115,0.0,4.1000000029744115,4.1000000029744115,0.0,4.1000000029744115,1.0,0.0,0.0,,Slider,Slider,4.0,object-56,temp_dist_trial,16.0,s_sh_06_1,student_shared,clipboard,7.0,competing,paired,s_sh_06_1.jpg,Student,,,sub-48
Desktop or Laptop,Windows 10,AVG Secure Browser 137.0.0.0,1920x1080,1920x959,Temporal Distance Task,cb_07,16.0,temp_dist_trial,dist_items,qkpkxw,2.0,continue,,3083.3999999999933,3072.7999999999884,3083.3999999999933,3083.3999999999933,3072.7999999999884,3083.3999999999933,1.0,0.0,0.0,,Click To Continue,Next button,7.0,object-60,temp_dist_trial,16.0,s_sh_06_1,student_shared,clipboard,7.0,competing,paired,s_sh_06_1.jpg,Student,,,sub-48
Desktop or Laptop,Windows 10,AVG Secure Browser 137.0.0.0,1920x1080,1920x959,Temporal Distance Task,cb_07,16.0,temp_dist_trial,dist_items,qkpkxw,2.0,response,74,1644.6999999999966,3072.7999999999884,3087.7000000007392,1644.6999999999966,3072.7999999999884,3087.7000000007392,1.0,1443.000000000742,0.0,,Slider,Slider,4.0,object-56,temp_dist_trial,16.0,s_sh_06_1,student_shared,clipboard,7.0,competing,paired,s_sh_06_1.jpg,Student,,,sub-48
Desktop or Laptop,Windows 10,AVG Secure Browser 137.0.0.0,1920x1080,1920x959,Temporal Distance Task,cb_07,17.0,temp_dist_trial,num_items,zn7si1,1.0,response,2_ITEM,1668.4000000007507,1661.0,1668.4000000007507,1668.4000000007507,1661.0,1668.4000000007507,1.0,0.0,0.0,,Click Response,2_count,5.0,object-49,temp_dist_trial,17.0,s_s_10_1,student_stem,3d molecule,7.0,unique,paired,s_s_10_1.jpg,Student,,,sub-48
Desktop or Laptop,Windows 10,AVG Secure Browser 137.0.0.0,1920x1080,1920x959,Temporal Distance Task,cb_07,17.0,temp_dist_trial,dist_items,qkpkxw,2.0,info,,4.700000000739237,0.0,4.700000000739237,4.700000000739237,0.0,4.700000000739237,1.0,0.0,0.0,,Slider,Slider,4.0,object-56,temp_dist_trial,17.0,s_s_10_1,student_stem,3d molecule,7.0,unique,paired,s_s_10_1.jpg,Student,,,sub-48
Desktop or Laptop,Windows 10,AVG Secure Browser 137.0.0.0,1920x1080,1920x959,Temporal Distance Task,cb_07,17.0,temp_dist_trial,dist_items,qkpkxw,2.0,continue,,2946.2000000007392,2939.8999999999933,2946.2000000007392,2946.2000000007392,2939.8999999999933,2946.2000000007392,1.0,0.0,0.0,,Click To Continue,Next button,7.0,object-60,temp_dist_trial,17.0,s_s_10_1,student_stem,3d molecule,7.0,unique,paired,s_s_10_1.jpg,Student,,,sub-48
Desktop or Laptop,Windows 10,AVG Secure Browser 137.0.0.0,1920x1080,1920x959,Temporal Distance Task,cb_07,17.0,temp_dist_trial,dist_items,qkpkxw,2.0,response,65,1611.2999999999884,2939.8999999999933,2946.7000000007392,1611.2999999999884,2939.8999999999933,2946.7000000007392,1.0,1335.4000000007507,0.0,,Slider,Slider,4.0,object-56,temp_dist_trial,17.0,s_s_10_1,student_stem,3d molecule,7.0,unique,paired,s_s_10_1.jpg,Student,,,sub-48
Desktop or Laptop,Windows 10,AVG Secure Browser 137.0.0.0,1920x1080,1920x959,Temporal Distance Task,cb_07,18.0,temp_dist_trial,num_items,zn7si1,1.0,response,2_ITEM,1423.5,1412.0,1423.5,1423.5,1412.0,1423.5,1.0,0.0,0.0,,Click Response,2_count,5.0,object-49,temp_dist_trial,18.0,s_a_12_1,student_art,saxophone,7.0,unique,paired,s_a_12_1.jpg,Student,,,sub-48
Desktop or Laptop,Windows 10,AVG Secure Browser 137.0.0.0,1920x1080,1920x959,Temporal Distance Task,cb_07,18.0,temp_dist_trial,dist_items,qkpkxw,2.0,info,,5.000000002983144,0.0,5.000000002983144,5.000000002983144,0.0,5.000000002983144,1.0,0.0,0.0,,Slider,Slider,4.0,object-56,temp_dist_trial,18.0,s_a_12_1,student_art,saxophone,7.0,unique,paired,s_a_12_1.jpg,Student,,,sub-48
Desktop or Laptop,Windows 10,AVG Secure Browser 137.0.0.0,1920x1080,1920x959,Temporal Distance Task,cb_07,18.0,temp_dist_trial,dist_items,qkpkxw,2.0,continue,,2178.800000000003,2175.9000000000087,2178.800000000003,2178.800000000003,2175.9000000000087,2178.800000000003,1.0,0.0,0.0,,Click To Continue,Next button,7.0,object-60,temp_dist_trial,18.0,s_a_12_1,student_art,saxophone,7.0,unique,paired,s_a_12_1.jpg,Student,,,sub-48
Desktop or Laptop,Windows 10,AVG Secure Browser 137.0.0.0,1920x1080,1920x959,Temporal Distance Task,cb_07,18.0,temp_dist_trial,dist_items,qkpkxw,2.0,response,40,1378.6000000000058,2175.9000000000087,2179.2000000022376,1378.6000000000058,2175.9000000000087,2179.2000000022376,1.0,800.6000000022323,0.0,,Slider,Slider,4.0,object-56,temp_dist_trial,18.0,s_a_12_1,student_art,saxophone,7.0,unique,paired,s_a_12_1.jpg,Student,,,sub-48
Desktop or Laptop,Windows 10,AVG Secure Browser 137.0.0.0,1920x1080,1920x959,Temporal Distance Task,cb_07,19.0,temp_dist_trial,num_items,zn7si1,1.0,response,2_ITEM,901.8000000022294,896.8999999999942,901.8000000022294,901.8000000022294,896.8999999999942,901.8000000022294,1.0,0.0,0.0,,Click Response,2_count,5.0,object-49,temp_dist_trial,19.0,s_s_15_1,student_stem,jumper cables,7.0,unique,paired,s_s_15_1.jpg,Student,,,sub-48
Desktop or Laptop,Windows 10,AVG Secure Browser 137.0.0.0,1920x1080,1920x959,Temporal Distance Task,cb_07,19.0,temp_dist_trial,dist_items,qkpkxw,2.0,info,,4.8999999999941775,0.0,4.8999999999941775,4.8999999999941775,0.0,4.8999999999941775,1.0,0.0,0.0,,Slider,Slider,4.0,object-56,temp_dist_trial,19.0,s_s_15_1,student_stem,jumper cables,7.0,unique,paired,s_s_15_1.jpg,Student,,,sub-48
Desktop or Laptop,Windows 10,AVG Secure Browser 137.0.0.0,1920x1080,1920x959,Temporal Distance Task,cb_07,19.0,temp_dist_trial,dist_items,qkpkxw,2.0,continue,,6141.800000002229,6129.099999999991,6141.800000002229,6141.800000002229,6129.099999999991,6141.800000002229,1.0,0.0,0.0,,Click To Continue,Next button,7.0,object-60,temp_dist_trial,19.0,s_s_15_1,student_stem,jumper cables,7.0,unique,paired,s_s_15_1.jpg,Student,,,sub-48
Desktop or Laptop,Windows 10,AVG Secure Browser 137.0.0.0,1920x1080,1920x959,Temporal Distance Task,cb_07,19.0,temp_dist_trial,dist_items,qkpkxw,2.0,response,0,697.7999999999884,6129.099999999991,6145.7999999999865,697.7999999999884,6129.099999999991,6145.7999999999865,1.0,5448.0,0.0,,Slider,Slider,4.0,object-56,temp_dist_trial,19.0,s_s_15_1,student_stem,jumper cables,7.0,unique,paired,s_s_15_1.jpg,Student,,,sub-48
Desktop or Laptop,Windows 10,AVG Secure Browser 137.0.0.0,1920x1080,1920x959,Temporal Distance Task,cb_07,20.0,temp_dist_trial,num_items,zn7si1,1.0,response,1_ITEM,1306.600000000748,1295.5,1306.600000000748,1306.600000000748,1295.5,1306.600000000748,1.0,0.0,0.0,,Click Response,1_count,3.0,object-46,temp_dist_trial,20.0,s_s_11_1,student_stem,scientific scale,7.0,unique,paired,s_s_11_1.jpg,Student,,,sub-48
Desktop or Laptop,Windows 10,AVG Secure Browser 137.0.0.0,1920x1080,1920x959,Temporal Distance Task,cb_07,21.0,temp_dist_trial,num_items,zn7si1,1.0,response,1_ITEM,1516.6000000000058,1511.5,1516.6000000000058,1516.6000000000058,1511.5,1516.6000000000058,1.0,0.0,0.0,,Click Response,1_count,3.0,object-46,temp_dist_trial,21.0,s_s_17_1,student_stem,ring stand,7.0,unique,single,s_s_17_1.jpg,Student,,,sub-48
Desktop or Laptop,Windows 10,AVG Secure Browser 137.0.0.0,1920x1080,1920x959,Temporal Distance Task,cb_07,22.0,temp_dist_trial,num_items,zn7si1,1.0,response,1_ITEM,998.0,996.5,998.0,998.0,996.5,998.0,1.0,0.0,0.0,,Click Response,1_count,3.0,object-46,temp_dist_trial,22.0,s_sh_17_1,student_shared,wireless mouse,7.0,competing,single,s_sh_17_1.jpg,Student,,,sub-48
Desktop or Laptop,Windows 10,AVG Secure Browser 137.0.0.0,1920x1080,1920x959,Temporal Distance Task,cb_07,23.0,temp_dist_trial,num_items,zn7si1,1.0,response,1_ITEM,820.2000000014958,813.7000000000116,820.2000000014958,820.2000000014958,813.7000000000116,820.2000000014958,1.0,0.0,0.0,,Click Response,1_count,3.0,object-46,temp_dist_trial,23.0,s_sh_20_1,student_shared,tape,7.0,competing,single,s_sh_20_1.jpg,Student,,,sub-48
Desktop or Laptop,Windows 10,AVG Secure Browser 137.0.0.0,1920x1080,1920x959,Temporal Distance Task,cb_07,24.0,temp_dist_trial,num_items,zn7si1,1.0,response,1_ITEM,996.4999999999852,979.8999999999942,996.4999999999852,996.4999999999852,979.8999999999942,996.4999999999852,1.0,0.0,0.0,,Click Response,1_count,3.0,object-46,temp_dist_trial,24.0,s_sh_12_1,student_shared,binder,7.0,competing,paired,s_sh_12_1.jpg,Student,,,sub-48
Desktop or Laptop,Windows 10,AVG Secure Browser 137.0.0.0,1920x1080,1920x959,Temporal Distance Task,cb_07,25.0,temp_dist_trial,num_items,zn7si1,1.0,response,1_ITEM,1124.8000000014872,1113.0999999999913,1124.8000000014872,1124.8000000014872,1113.0999999999913,1124.8000000014872,1.0,0.0,0.0,,Click Response,1_count,3.0,object-46,temp_dist_trial,25.0,s_s_03_1,student_stem,petri dish,7.0,unique,single,s_s_03_1.jpg,Student,,,sub-48
Desktop or Laptop,Windows 10,AVG Secure Browser 137.0.0.0,1920x1080,1920x959,Temporal Distance Task,cb_07,26.0,temp_dist_trial,num_items,zn7si1,1.0,response,1_ITEM,1471.9000000007507,1461.7000000000116,1471.9000000007507,1471.9000000007507,1461.7000000000116,1471.9000000007507,1.0,0.0,0.0,,Click Response,1_count,3.0,object-46,temp_dist_trial,26.0,s_sh_01_1,student_shared,notebook,7.0,competing,single,s_sh_01_1.jpg,Student,,,sub-48
Desktop or Laptop,Windows 10,AVG Secure Browser 137.0.0.0,1920x1080,1920x959,Temporal Distance Task,cb_07,27.0,temp_dist_trial,num_items,zn7si1,1.0,response,1_ITEM,1905.5000000029834,1893.400000000009,1905.5000000029834,1905.5000000029834,1893.400000000009,1905.5000000029834,1.0,0.0,0.0,,Click Response,1_count,3.0,object-46,temp_dist_trial,27.0,s_sh_18_1,student_shared,wall calendar,7.0,competing,single,s_sh_18_1.jpg,Student,,,sub-48
Desktop or Laptop,Windows 10,AVG Secure Browser 137.0.0.0,1920x1080,1920x959,Temporal Distance Task,cb_07,28.0,temp_dist_trial,num_items,zn7si1,1.0,response,2_ITEM,1435.3000000022296,1428.0,1435.3000000022296,1435.3000000022296,1428.0,1435.3000000022296,1.0,0.0,0.0,,Click Response,2_count,5.0,object-49,temp_dist_trial,28.0,s_sh_10_1,student_shared,scissors,7.0,competing,paired,s_sh_10_1.jpg,Student,,,sub-48
Desktop or Laptop,Windows 10,AVG Secure Browser 137.0.0.0,1920x1080,1920x959,Temporal Distance Task,cb_07,28.0,temp_dist_trial,dist_items,qkpkxw,2.0,info,,6.200000002980232,0.0,6.200000002980232,6.200000002980232,0.0,6.200000002980232,1.0,0.0,0.0,,Slider,Slider,4.0,object-56,temp_dist_trial,28.0,s_sh_10_1,student_shared,scissors,7.0,competing,paired,s_sh_10_1.jpg,Student,,,sub-48
Desktop or Laptop,Windows 10,AVG Secure Browser 137.0.0.0,1920x1080,1920x959,Temporal Distance Task,cb_07,28.0,temp_dist_trial,dist_items,qkpkxw,2.0,continue,,4013.100000001489,4002.8999999999933,4013.100000001489,4013.100000001489,4002.8999999999933,4013.100000001489,1.0,0.0,0.0,,Click To Continue,Next button,7.0,object-60,temp_dist_trial,28.0,s_sh_10_1,student_shared,scissors,7.0,competing,paired,s_sh_10_1.jpg,Student,,,sub-48
Desktop or Laptop,Windows 10,AVG Secure Browser 137.0.0.0,1920x1080,1920x959,Temporal Distance Task,cb_07,28.0,temp_dist_trial,dist_items,qkpkxw,2.0,response,72,1478.1999999999966,4002.8999999999933,4013.5,1478.1999999999966,4002.8999999999933,4013.5,1.0,2535.300000000003,0.0,,Slider,Slider,4.0,object-56,temp_dist_trial,28.0,s_sh_10_1,student_shared,scissors,7.0,competing,paired,s_sh_10_1.jpg,Student,,,sub-48
Desktop or Laptop,Windows 10,AVG Secure Browser 137.0.0.0,1920x1080,1920x959,Temporal Distance Task,cb_07,29.0,temp_dist_trial,num_items,zn7si1,1.0,response,2_ITEM,1390.000000002241,1378.6000000000058,1390.000000002241,1390.000000002241,1378.6000000000058,1390.000000002241,1.0,0.0,0.0,,Click Response,2_count,5.0,object-49,temp_dist_trial,29.0,s_sh_23_1,student_shared,ballpoint pen,7.0,competing,paired,s_sh_23_1.jpg,Student,,,sub-48
Desktop or Laptop,Windows 10,AVG Secure Browser 137.0.0.0,1920x1080,1920x959,Temporal Distance Task,cb_07,29.0,temp_dist_trial,dist_items,qkpkxw,2.0,info,,3.100000001490116,0.0,3.100000001490116,3.100000001490116,0.0,3.100000001490116,1.0,0.0,0.0,,Slider,Slider,4.0,object-56,temp_dist_trial,29.0,s_sh_23_1,student_shared,ballpoint pen,7.0,competing,paired,s_sh_23_1.jpg,Student,,,sub-48
Desktop or Laptop,Windows 10,AVG Secure Browser 137.0.0.0,1920x1080,1920x959,Temporal Distance Task,cb_07,29.0,temp_dist_trial,dist_items,qkpkxw,2.0,continue,,1996.20000000298,1993.1999999999966,1996.20000000298,1996.20000000298,1993.1999999999966,1996.20000000298,1.0,0.0,0.0,,Click To Continue,Next button,7.0,object-60,temp_dist_trial,29.0,s_sh_23_1,student_shared,ballpoint pen,7.0,competing,paired,s_sh_23_1.jpg,Student,,,sub-48
Desktop or Laptop,Windows 10,AVG Secure Browser 137.0.0.0,1920x1080,1920x959,Temporal Distance Task,cb_07,29.0,temp_dist_trial,dist_items,qkpkxw,2.0,response,15,946.8999999999942,1993.1999999999966,1996.5,946.8999999999942,1993.1999999999966,1996.5,1.0,1049.6000000000058,0.0,,Slider,Slider,4.0,object-56,temp_dist_trial,29.0,s_sh_23_1,student_shared,ballpoint pen,7.0,competing,paired,s_sh_23_1.jpg,Student,,,sub-48
Desktop or Laptop,Windows 10,AVG Secure Browser 137.0.0.0,1920x1080,1920x959,Temporal Distance Task,cb_07,30.0,temp_dist_trial,num_items,zn7si1,1.0,response,2_ITEM,760.600000000748,747.8000000000029,760.600000000748,760.600000000748,747.8000000000029,760.600000000748,1.0,0.0,0.0,,Click Response,2_count,5.0,object-49,temp_dist_trial,30.0,s_a_06_1,student_art,pastels,7.0,unique,paired,s_a_06_1.jpg,Student,,,sub-48
Desktop or Laptop,Windows 10,AVG Secure Browser 137.0.0.0,1920x1080,1920x959,Temporal Distance Task,cb_07,30.0,temp_dist_trial,dist_items,qkpkxw,2.0,info,,3.7000000022380846,0.0,3.7000000022380846,3.7000000022380846,0.0,3.7000000022380846,1.0,0.0,0.0,,Slider,Slider,4.0,object-56,temp_dist_trial,30.0,s_a_06_1,student_art,pastels,7.0,unique,paired,s_a_06_1.jpg,Student,,,sub-48
Desktop or Laptop,Windows 10,AVG Secure Browser 137.0.0.0,1920x1080,1920x959,Temporal Distance Task,cb_07,30.0,temp_dist_trial,dist_items,qkpkxw,2.0,continue,,1571.900000001493,1561.400000000009,1571.900000001493,1571.900000001493,1561.400000000009,1571.900000001493,1.0,0.0,0.0,,Click To Continue,Next button,7.0,object-60,temp_dist_trial,30.0,s_a_06_1,student_art,pastels,7.0,unique,paired,s_a_06_1.jpg,Student,,,sub-48
Desktop or Laptop,Windows 10,AVG Secure Browser 137.0.0.0,1920x1080,1920x959,Temporal Distance Task,cb_07,30.0,temp_dist_trial,dist_items,qkpkxw,2.0,response,27,730.9000000000087,1561.400000000009,1572.3000000000034,730.9000000000087,1561.400000000009,1572.3000000000034,1.0,841.3999999999942,0.0,,Slider,Slider,4.0,object-56,temp_dist_trial,30.0,s_a_06_1,student_art,pastels,7.0,unique,paired,s_a_06_1.jpg,Student,,,sub-48
Desktop or Laptop,Windows 10,AVG Secure Browser 137.0.0.0,1920x1080,1920x959,Temporal Distance Task,cb_07,31.0,temp_dist_trial,num_items,zn7si1,1.0,response,2_ITEM,1405.3999999999942,1395.3999999999942,1405.3999999999942,1405.3999999999942,1395.3999999999942,1405.3999999999942,1.0,0.0,0.0,,Click Response,2_count,5.0,object-49,temp_dist_trial,31.0,s_sh_14_1,student_shared,printer,7.0,competing,paired,s_sh_14_1.jpg,Student,,,sub-48
Desktop or Laptop,Windows 10,AVG Secure Browser 137.0.0.0,1920x1080,1920x959,Temporal Distance Task,cb_07,31.0,temp_dist_trial,dist_items,qkpkxw,2.0,info,,4.3000000000029095,0.0,4.3000000000029095,4.3000000000029095,0.0,4.3000000000029095,1.0,0.0,0.0,,Slider,Slider,4.0,object-56,temp_dist_trial,31.0,s_sh_14_1,student_shared,printer,7.0,competing,paired,s_sh_14_1.jpg,Student,,,sub-48
Desktop or Laptop,Windows 10,AVG Secure Browser 137.0.0.0,1920x1080,1920x959,Temporal Distance Task,cb_07,31.0,temp_dist_trial,dist_items,qkpkxw,2.0,continue,,2464.000000002983,2458.0000000000146,2464.000000002983,2464.000000002983,2458.0000000000146,2464.000000002983,1.0,0.0,0.0,,Click To Continue,Next button,7.0,object-60,temp_dist_trial,31.0,s_sh_14_1,student_shared,printer,7.0,competing,paired,s_sh_14_1.jpg,Student,,,sub-48
Desktop or Laptop,Windows 10,AVG Secure Browser 137.0.0.0,1920x1080,1920x959,Temporal Distance Task,cb_07,31.0,temp_dist_trial,dist_items,qkpkxw,2.0,response,15,1046.3000000000031,2458.0000000000146,2464.300000000003,1046.3000000000031,2458.0000000000146,2464.300000000003,1.0,1418.0,0.0,,Slider,Slider,4.0,object-56,temp_dist_trial,31.0,s_sh_14_1,student_shared,printer,7.0,competing,paired,s_sh_14_1.jpg,Student,,,sub-48
Desktop or Laptop,Windows 10,AVG Secure Browser 137.0.0.0,1920x1080,1920x959,Temporal Distance Task,cb_07,32.0,temp_dist_trial,num_items,zn7si1,1.0,response,2_ITEM,798.4000000014785,797.1999999999823,798.4000000014785,798.4000000014785,797.1999999999823,798.4000000014785,1.0,0.0,0.0,,Click Response,2_count,5.0,object-49,temp_dist_trial,32.0,s_sh_03_1,student_shared,highlighter,7.0,competing,paired,s_sh_03_1.jpg,Student,,,sub-48
Desktop or Laptop,Windows 10,AVG Secure Browser 137.0.0.0,1920x1080,1920x959,Temporal Distance Task,cb_07,32.0,temp_dist_trial,dist_items,qkpkxw,2.0,info,,3.8000000015017577,0.0,3.8000000015017577,3.8000000015017577,0.0,3.8000000015017577,1.0,0.0,0.0,,Slider,Slider,4.0,object-56,temp_dist_trial,32.0,s_sh_03_1,student_shared,highlighter,7.0,competing,paired,s_sh_03_1.jpg,Student,,,sub-48
Desktop or Laptop,Windows 10,AVG Secure Browser 137.0.0.0,1920x1080,1920x959,Temporal Distance Task,cb_07,32.0,temp_dist_trial,dist_items,qkpkxw,2.0,continue,,1775.9000000029919,1760.5,1775.9000000029919,1775.9000000029919,1760.5,1775.9000000029919,1.0,0.0,0.0,,Click To Continue,Next button,7.0,object-60,temp_dist_trial,32.0,s_sh_03_1,student_shared,highlighter,7.0,competing,paired,s_sh_03_1.jpg,Student,,,sub-48
Desktop or Laptop,Windows 10,AVG Secure Browser 137.0.0.0,1920x1080,1920x959,Temporal Distance Task,cb_07,32.0,temp_dist_trial,dist_items,qkpkxw,2.0,response,83,913.5,1760.5,1776.3000000015018,913.5,1760.5,1776.3000000015018,1.0,862.8000000015018,0.0,,Slider,Slider,4.0,object-56,temp_dist_trial,32.0,s_sh_03_1,student_shared,highlighter,7.0,competing,paired,s_sh_03_1.jpg,Student,,,sub-48
Desktop or Laptop,Windows 10,AVG Secure Browser 137.0.0.0,1920x1080,1920x959,Temporal Distance Task,cb_07,33.0,temp_dist_trial,num_items,zn7si1,1.0,response,1_ITEM,1148.0000000007567,1146.2000000000114,1148.0000000007567,1148.0000000007567,1146.2000000000114,1148.0000000007567,1.0,0.0,0.0,,Click Response,1_count,3.0,object-46,temp_dist_trial,33.0,s_a_08_1,student_art,sewing machine,7.0,unique,single,s_a_08_1.jpg,Student,,,sub-48
Desktop or Laptop,Windows 10,AVG Secure Browser 137.0.0.0,1920x1080,1920x959,Temporal Distance Task,cb_07,34.0,temp_dist_trial,num_items,zn7si1,1.0,response,2_ITEM,1500.5000000029684,1494.8999999999942,1500.5000000029684,1500.5000000029684,1494.8999999999942,1500.5000000029684,1.0,0.0,0.0,,Click Response,2_count,5.0,object-49,temp_dist_trial,34.0,s_sh_24_1,student_shared,desk organizer,7.0,competing,paired,s_sh_24_1.jpg,Student,,,sub-48
Desktop or Laptop,Windows 10,AVG Secure Browser 137.0.0.0,1920x1080,1920x959,Temporal Distance Task,cb_07,34.0,temp_dist_trial,dist_items,qkpkxw,2.0,info,,5.700000002223532,0.0,5.700000002223532,5.700000002223532,0.0,5.700000002223532,1.0,0.0,0.0,,Slider,Slider,4.0,object-56,temp_dist_trial,34.0,s_sh_24_1,student_shared,desk organizer,7.0,competing,paired,s_sh_24_1.jpg,Student,,,sub-48
Desktop or Laptop,Windows 10,AVG Secure Browser 137.0.0.0,1920x1080,1920x959,Temporal Distance Task,cb_07,34.0,temp_dist_trial,dist_items,qkpkxw,2.0,continue,,2120.6000000007334,2109.1999999999825,2120.6000000007334,2120.6000000007334,2109.1999999999825,2120.6000000007334,1.0,0.0,0.0,,Click To Continue,Next button,7.0,object-60,temp_dist_trial,34.0,s_sh_24_1,student_shared,desk organizer,7.0,competing,paired,s_sh_24_1.jpg,Student,,,sub-48
Desktop or Laptop,Windows 10,AVG Secure Browser 137.0.0.0,1920x1080,1920x959,Temporal Distance Task,cb_07,34.0,temp_dist_trial,dist_items,qkpkxw,2.0,response,27,1328.6999999999825,2109.1999999999825,2121.0000000029686,1328.6999999999825,2109.1999999999825,2121.0000000029686,1.0,792.3000000029858,0.0,,Slider,Slider,4.0,object-56,temp_dist_trial,34.0,s_sh_24_1,student_shared,desk organizer,7.0,competing,paired,s_sh_24_1.jpg,Student,,,sub-48
Desktop or Laptop,Windows 10,AVG Secure Browser 137.0.0.0,1920x1080,1920x959,Temporal Distance Task,cb_07,35.0,temp_dist_trial,num_items,zn7si1,1.0,response,2_ITEM,1434.1000000000058,1428.6000000000058,1434.1000000000058,1434.1000000000058,1428.6000000000058,1434.1000000000058,1.0,0.0,0.0,,Click Response,2_count,5.0,object-49,temp_dist_trial,35.0,s_s_08_1,student_stem,soldering iron,7.0,unique,paired,s_s_08_1.jpg,Student,,,sub-48
Desktop or Laptop,Windows 10,AVG Secure Browser 137.0.0.0,1920x1080,1920x959,Temporal Distance Task,cb_07,35.0,temp_dist_trial,dist_items,qkpkxw,2.0,info,,5.100000001490116,0.0,5.100000001490116,5.100000001490116,0.0,5.100000001490116,1.0,0.0,0.0,,Slider,Slider,4.0,object-56,temp_dist_trial,35.0,s_s_08_1,student_stem,soldering iron,7.0,unique,paired,s_s_08_1.jpg,Student,,,sub-48
Desktop or Laptop,Windows 10,AVG Secure Browser 137.0.0.0,1920x1080,1920x959,Temporal Distance Task,cb_07,35.0,temp_dist_trial,dist_items,qkpkxw,2.0,continue,,1879.60000000149,1877.1000000000056,1879.60000000149,1879.60000000149,1877.1000000000056,1879.60000000149,1.0,0.0,0.0,,Click To Continue,Next button,7.0,object-60,temp_dist_trial,35.0,s_s_08_1,student_stem,soldering iron,7.0,unique,paired,s_s_08_1.jpg,Student,,,sub-48
Desktop or Laptop,Windows 10,AVG Secure Browser 137.0.0.0,1920x1080,1920x959,Temporal Distance Task,cb_07,35.0,temp_dist_trial,dist_items,qkpkxw,2.0,response,12,897.2999999999884,1877.1000000000056,1880.0,897.2999999999884,1877.1000000000056,1880.0,1.0,982.7000000000116,0.0,,Slider,Slider,4.0,object-56,temp_dist_trial,35.0,s_s_08_1,student_stem,soldering iron,7.0,unique,paired,s_s_08_1.jpg,Student,,,sub-48
Desktop or Laptop,Windows 10,AVG Secure Browser 137.0.0.0,1920x1080,1920x959,Temporal Distance Task,cb_07,36.0,temp_dist_trial,num_items,zn7si1,1.0,response,1_ITEM,1690.5000000014843,1677.5,1690.5000000014843,1690.5000000014843,1677.5,1690.5000000014843,1.0,0.0,0.0,,Click Response,1_count,3.0,object-46,temp_dist_trial,36.0,s_a_03_1,student_art,palette,7.0,unique,single,s_a_03_1.jpg,Student,,,sub-48
Desktop or Laptop,Windows 10,AVG Secure Browser 137.0.0.0,1920x1080,1920x959,Temporal Distance Task,cb_07,37.0,temp_dist_trial,num_items,zn7si1,1.0,response,2_ITEM,902.5000000029686,897.0,902.5000000029686,902.5000000029686,897.0,902.5000000029686,1.0,0.0,0.0,,Click Response,2_count,5.0,object-49,temp_dist_trial,37.0,s_s_20_1,student_stem,dna model,7.0,unique,paired,s_s_20_1.jpg,Student,,,sub-48
Desktop or Laptop,Windows 10,AVG Secure Browser 137.0.0.0,1920x1080,1920x959,Temporal Distance Task,cb_07,37.0,temp_dist_trial,dist_items,qkpkxw,2.0,info,,3.2000000014959373,0.0,3.2000000014959373,3.2000000014959373,0.0,3.2000000014959373,1.0,0.0,0.0,,Slider,Slider,4.0,object-56,temp_dist_trial,37.0,s_s_20_1,student_stem,dna model,7.0,unique,paired,s_s_20_1.jpg,Student,,,sub-48
Desktop or Laptop,Windows 10,AVG Secure Browser 137.0.0.0,1920x1080,1920x959,Temporal Distance Task,cb_07,37.0,temp_dist_trial,dist_items,qkpkxw,2.0,continue,,2901.300000002986,2890.200000000012,2901.300000002986,2901.300000002986,2890.200000000012,2901.300000002986,1.0,0.0,0.0,,Click To Continue,Next button,7.0,object-60,temp_dist_trial,37.0,s_s_20_1,student_stem,dna model,7.0,unique,paired,s_s_20_1.jpg,Student,,,sub-48
Desktop or Laptop,Windows 10,AVG Secure Browser 137.0.0.0,1920x1080,1920x959,Temporal Distance Task,cb_07,37.0,temp_dist_trial,dist_items,qkpkxw,2.0,response,87,1544.5,2890.200000000012,2906.500000002241,1544.5,2890.200000000012,2906.500000002241,1.0,1362.000000002241,0.0,,Slider,Slider,4.0,object-56,temp_dist_trial,37.0,s_s_20_1,student_stem,dna model,7.0,unique,paired,s_s_20_1.jpg,Student,,,sub-48
Desktop or Laptop,Windows 10,AVG Secure Browser 137.0.0.0,1920x1080,1920x959,Temporal Distance Task,cb_07,38.0,temp_dist_trial,num_items,zn7si1,1.0,response,1_ITEM,1830.3999999999944,1827.0,1830.3999999999944,1830.3999999999944,1827.0,1830.3999999999944,1.0,0.0,0.0,,Click Response,1_count,3.0,object-46,temp_dist_trial,38.0,s_sh_22_1,student_shared,hole puncher,7.0,competing,single,s_sh_22_1.jpg,Student,,,sub-48
Desktop or Laptop,Windows 10,AVG Secure Browser 137.0.0.0,1920x1080,1920x959,Temporal Distance Task,cb_07,39.0,temp_dist_trial,num_items,zn7si1,1.0,response,2_ITEM,1497.0000000007572,1494.8000000000175,1497.0000000007572,1497.0000000007572,1494.8000000000175,1497.0000000007572,1.0,0.0,0.0,,Click Response,2_count,5.0,object-49,temp_dist_trial,39.0,s_sh_19_1,student_shared,portable plastic drawer,7.0,competing,paired,s_sh_19_1.jpg,Student,,,sub-48
Desktop or Laptop,Windows 10,AVG Secure Browser 137.0.0.0,1920x1080,1920x959,Temporal Distance Task,cb_07,39.0,temp_dist_trial,dist_items,qkpkxw,2.0,info,,4.8999999999941775,0.0,4.8999999999941775,4.8999999999941775,0.0,4.8999999999941775,1.0,0.0,0.0,,Slider,Slider,4.0,object-56,temp_dist_trial,39.0,s_sh_19_1,student_shared,portable plastic drawer,7.0,competing,paired,s_sh_19_1.jpg,Student,,,sub-48
Desktop or Laptop,Windows 10,AVG Secure Browser 137.0.0.0,1920x1080,1920x959,Temporal Distance Task,cb_07,39.0,temp_dist_trial,dist_items,qkpkxw,2.0,continue,,2508.1000000029744,2491.5,2508.1000000029744,2508.1000000029744,2491.5,2508.1000000029744,1.0,0.0,0.0,,Click To Continue,Next button,7.0,object-60,temp_dist_trial,39.0,s_sh_19_1,student_shared,portable plastic drawer,7.0,competing,paired,s_sh_19_1.jpg,Student,,,sub-48
Desktop or Laptop,Windows 10,AVG Secure Browser 137.0.0.0,1920x1080,1920x959,Temporal Distance Task,cb_07,39.0,temp_dist_trial,dist_items,qkpkxw,2.0,response,28,1362.3999999999942,2491.5,2508.200000000012,1362.3999999999942,2491.5,2508.200000000012,1.0,1145.8000000000175,0.0,,Slider,Slider,4.0,object-56,temp_dist_trial,39.0,s_sh_19_1,student_shared,portable plastic drawer,7.0,competing,paired,s_sh_19_1.jpg,Student,,,sub-48
Desktop or Laptop,Windows 10,AVG Secure Browser 137.0.0.0,1920x1080,1920x959,Temporal Distance Task,cb_07,40.0,temp_dist_trial,num_items,zn7si1,1.0,response,2_ITEM,1506.1000000029746,1494.8999999999942,1506.1000000029746,1506.1000000029746,1494.8999999999942,1506.1000000029746,1.0,0.0,0.0,,Click Response,2_count,5.0,object-49,temp_dist_trial,40.0,s_sh_08_1,student_shared,post-its,7.0,competing,single,s_sh_08_1.jpg,Student,,,sub-48
Desktop or Laptop,Windows 10,AVG Secure Browser 137.0.0.0,1920x1080,1920x959,Temporal Distance Task,cb_07,40.0,temp_dist_trial,dist_items,qkpkxw,2.0,info,,4.0000000029685925,0.0,4.0000000029685925,4.0000000029685925,0.0,4.0000000029685925,1.0,0.0,0.0,,Slider,Slider,4.0,object-56,temp_dist_trial,40.0,s_sh_08_1,student_shared,post-its,7.0,competing,single,s_sh_08_1.jpg,Student,,,sub-48
Desktop or Laptop,Windows 10,AVG Secure Browser 137.0.0.0,1920x1080,1920x959,Temporal Distance Task,cb_07,40.0,temp_dist_trial,dist_items,qkpkxw,2.0,continue,,3069.2000000022235,3056.199999999982,3069.2000000022235,3069.2000000022235,3056.199999999982,3069.2000000022235,1.0,0.0,0.0,,Click To Continue,Next button,7.0,object-60,temp_dist_trial,40.0,s_sh_08_1,student_shared,post-its,7.0,competing,single,s_sh_08_1.jpg,Student,,,sub-48
Desktop or Laptop,Windows 10,AVG Secure Browser 137.0.0.0,1920x1080,1920x959,Temporal Distance Task,cb_07,40.0,temp_dist_trial,dist_items,qkpkxw,2.0,response,43,2341.8999999999937,3056.199999999982,3072.5000000029686,2341.8999999999937,3056.199999999982,3072.5000000029686,1.0,730.6000000029744,0.0,,Slider,Slider,4.0,object-56,temp_dist_trial,40.0,s_sh_08_1,student_shared,post-its,7.0,competing,single,s_sh_08_1.jpg,Student,,,sub-48
Desktop or Laptop,Windows 10,AVG Secure Browser 137.0.0.0,1920x1080,1920x959,Temporal Distance Task,cb_07,41.0,temp_dist_trial,num_items,zn7si1,1.0,response,1_ITEM,1152.6000000000058,1146.0,1152.6000000000058,1152.6000000000058,1146.0,1152.6000000000058,1.0,0.0,0.0,,Click Response,1_count,3.0,object-46,temp_dist_trial,41.0,s_a_15_1,student_art,drum kit,7.0,unique,paired,s_a_15_1.jpg,Student,,,sub-48
Desktop or Laptop,Windows 10,AVG Secure Browser 137.0.0.0,1920x1080,1920x959,Temporal Distance Task,cb_07,42.0,temp_dist_trial,num_items,zn7si1,1.0,response,2_ITEM,808.7000000022235,797.2999999999884,808.7000000022235,808.7000000022235,797.2999999999884,808.7000000022235,1.0,0.0,0.0,,Click Response,2_count,5.0,object-49,temp_dist_trial,42.0,s_s_06_1,student_stem,calculator,7.0,unique,paired,s_s_06_1.jpg,Student,,,sub-48
Desktop or Laptop,Windows 10,AVG Secure Browser 137.0.0.0,1920x1080,1920x959,Temporal Distance Task,cb_07,42.0,temp_dist_trial,dist_items,qkpkxw,2.0,info,,4.7000000000116415,0.0,4.7000000000116415,4.7000000000116415,0.0,4.7000000000116415,1.0,0.0,0.0,,Slider,Slider,4.0,object-56,temp_dist_trial,42.0,s_s_06_1,student_stem,calculator,7.0,unique,paired,s_s_06_1.jpg,Student,,,sub-48
Desktop or Laptop,Windows 10,AVG Secure Browser 137.0.0.0,1920x1080,1920x959,Temporal Distance Task,cb_07,42.0,temp_dist_trial,dist_items,qkpkxw,2.0,continue,,2125.700000000012,2109.1000000000063,2125.700000000012,2125.700000000012,2109.1000000000063,2125.700000000012,1.0,0.0,0.0,,Click To Continue,Next button,7.0,object-60,temp_dist_trial,42.0,s_s_06_1,student_stem,calculator,7.0,unique,paired,s_s_06_1.jpg,Student,,,sub-48
Desktop or Laptop,Windows 10,AVG Secure Browser 137.0.0.0,1920x1080,1920x959,Temporal Distance Task,cb_07,42.0,temp_dist_trial,dist_items,qkpkxw,2.0,response,77,1328.5,2109.1000000000063,2125.700000000012,1328.5,2109.1000000000063,2125.700000000012,1.0,797.2000000000116,0.0,,Slider,Slider,4.0,object-56,temp_dist_trial,42.0,s_s_06_1,student_stem,calculator,7.0,unique,paired,s_s_06_1.jpg,Student,,,sub-48
Desktop or Laptop,Windows 10,AVG Secure Browser 137.0.0.0,1920x1080,1920x959,Temporal Distance Task,cb_07,43.0,temp_dist_trial,num_items,zn7si1,1.0,response,1_ITEM,1133.300000002986,1129.5,1133.300000002986,1133.300000002986,1129.5,1133.300000002986,1.0,0.0,0.0,,Click Response,1_count,3.0,object-46,temp_dist_trial,43.0,s_s_13_1,student_stem,telescope,7.0,unique,single,s_s_13_1.jpg,Student,,,sub-48
Desktop or Laptop,Windows 10,AVG Secure Browser 137.0.0.0,1920x1080,1920x959,Temporal Distance Task,cb_07,44.0,temp_dist_trial,num_items,zn7si1,1.0,response,1_ITEM,1097.6000000007334,1096.0999999999767,1097.6000000007334,1097.6000000007334,1096.0999999999767,1097.6000000007334,1.0,0.0,0.0,,Click Response,1_count,3.0,object-46,temp_dist_trial,44.0,s_a_13_1,student_art,violin,7.0,unique,single,s_a_13_1.jpg,Student,,,sub-48
Desktop or Laptop,Windows 10,AVG Secure Browser 137.0.0.0,1920x1080,1920x959,Temporal Distance Task,cb_07,45.0,temp_dist_trial,num_items,zn7si1,1.0,response,2_ITEM,1132.3999999999942,1129.3999999999942,1132.3999999999942,1132.3999999999942,1129.3999999999942,1132.3999999999942,1.0,0.0,0.0,,Click Response,2_count,5.0,object-49,temp_dist_trial,45.0,s_sh_15_1,student_shared,usb drive,7.0,competing,paired,s_sh_15_1.jpg,Student,,,sub-48
Desktop or Laptop,Windows 10,AVG Secure Browser 137.0.0.0,1920x1080,1920x959,Temporal Distance Task,cb_07,45.0,temp_dist_trial,dist_items,qkpkxw,2.0,info,,4.900000002235173,0.0,4.900000002235173,4.900000002235173,0.0,4.900000002235173,1.0,0.0,0.0,,Slider,Slider,4.0,object-56,temp_dist_trial,45.0,s_sh_15_1,student_shared,usb drive,7.0,competing,paired,s_sh_15_1.jpg,Student,,,sub-48
Desktop or Laptop,Windows 10,AVG Secure Browser 137.0.0.0,1920x1080,1920x959,Temporal Distance Task,cb_07,45.0,temp_dist_trial,dist_items,qkpkxw,2.0,continue,,2228.1000000014897,2225.8999999999937,2228.1000000014897,2228.1000000014897,2225.8999999999937,2228.1000000014897,1.0,0.0,0.0,,Click To Continue,Next button,7.0,object-60,temp_dist_trial,45.0,s_sh_15_1,student_shared,usb drive,7.0,competing,paired,s_sh_15_1.jpg,Student,,,sub-48
Desktop or Laptop,Windows 10,AVG Secure Browser 137.0.0.0,1920x1080,1920x959,Temporal Distance Task,cb_07,45.0,temp_dist_trial,dist_items,qkpkxw,2.0,response,80,1345.5,2225.8999999999937,2231.800000000745,1345.5,2225.8999999999937,2231.800000000745,1.0,886.3000000007451,0.0,,Slider,Slider,4.0,object-56,temp_dist_trial,45.0,s_sh_15_1,student_shared,usb drive,7.0,competing,paired,s_sh_15_1.jpg,Student,,,sub-48
Desktop or Laptop,Windows 10,AVG Secure Browser 137.0.0.0,1920x1080,1920x959,Temporal Distance Task,cb_07,46.0,temp_dist_trial,num_items,zn7si1,1.0,response,1_ITEM,1171.6000000000058,1162.6000000000058,1171.6000000000058,1171.6000000000058,1162.6000000000058,1171.6000000000058,1.0,0.0,0.0,,Click Response,1_count,3.0,object-46,temp_dist_trial,46.0,s_s_14_1,student_stem,funnel,7.0,unique,single,s_s_14_1.jpg,Student,,,sub-48
Desktop or Laptop,Windows 10,AVG Secure Browser 137.0.0.0,1920x1080,1920x959,Temporal Distance Task,cb_07,47.0,temp_dist_trial,num_items,zn7si1,1.0,response,2_ITEM,1370.7000000007392,1361.8999999999942,1370.7000000007392,1370.7000000007392,1361.8999999999942,1370.7000000007392,1.0,0.0,0.0,,Click Response,2_count,5.0,object-49,temp_dist_trial,47.0,s_s_19_1,student_stem,circuit board,7.0,unique,paired,s_s_19_1.jpg,Student,,,sub-48
Desktop or Laptop,Windows 10,AVG Secure Browser 137.0.0.0,1920x1080,1920x959,Temporal Distance Task,cb_07,47.0,temp_dist_trial,dist_items,qkpkxw,2.0,info,,4.800000001501759,0.0,4.800000001501759,4.800000001501759,0.0,4.800000001501759,1.0,0.0,0.0,,Slider,Slider,4.0,object-56,temp_dist_trial,47.0,s_s_19_1,student_stem,circuit board,7.0,unique,paired,s_s_19_1.jpg,Student,,,sub-48
Desktop or Laptop,Windows 10,AVG Secure Browser 137.0.0.0,1920x1080,1920x959,Temporal Distance Task,cb_07,47.0,temp_dist_trial,dist_items,qkpkxw,2.0,response,dist_miss,6992.7000000000135,6992.7000000000135,6992.7000000000135,6992.7000000000135,6992.7000000000135,6992.7000000000135,1.0,0.0,0.0,dist_miss_tag,Time Limit,screen,0.0,screen,temp_dist_trial,47.0,s_s_19_1,student_stem,circuit board,7.0,unique,paired,s_s_19_1.jpg,Student,,,sub-48
Desktop or Laptop,Windows 10,AVG Secure Browser 137.0.0.0,1920x1080,1920x959,Temporal Distance Task,cb_07,47.0,temp_dist_trial,dist_items,qkpkxw,2.0,response,87,1262.5,6992.7000000000135,6995.900000002992,1262.5,6992.7000000000135,6995.900000002992,1.0,5733.400000002992,0.0,,Slider,Slider,4.0,object-56,temp_dist_trial,47.0,s_s_19_1,student_stem,circuit board,7.0,unique,paired,s_s_19_1.jpg,Student,,,sub-48
Desktop or Laptop,Windows 10,AVG Secure Browser 137.0.0.0,1920x1080,1920x959,Temporal Distance Task,cb_07,48.0,temp_dist_trial,num_items,zn7si1,1.0,response,1_ITEM,2294.7000000029802,2292.1000000000063,2294.7000000029802,2294.7000000029802,2292.1000000000063,2294.7000000029802,1.0,0.0,0.0,,Click Response,1_count,3.0,object-46,temp_dist_trial,48.0,s_sh_09_1,student_shared,paper clips,7.0,competing,single,s_sh_09_1.jpg,Student,,,sub-48
Desktop or Laptop,Windows 10,AVG Secure Browser 137.0.0.0,1920x1080,1920x959,Temporal Distance Task,cb_07,2.0,temp_eventStart,Screen 1,dgtyxe,1.0,continue,,1304.5000000007567,1295.7000000000114,1304.5000000007567,1304.5000000007567,1295.7000000000114,1304.5000000007567,1.0,0.0,0.0,,Click To Continue,Next Button,3.0,object-43,temp_eventStart,,,Travel,,,,,,,,,sub-48
Desktop or Laptop,Windows 10,AVG Secure Browser 137.0.0.0,1920x1080,1920x959,Temporal Distance Task,cb_07,49.0,temp_dist_trial,num_items,zn7si1,1.0,response,2_ITEM,1247.4000000022352,1245.7000000000114,1247.4000000022352,1247.4000000022352,1245.7000000000114,1247.4000000022352,1.0,0.0,0.0,,Click Response,2_count,5.0,object-49,temp_dist_trial,1.0,t_i_04_1,travel_Iceland,portable camping stove,7.0,unique,paired,t_i_04_1.jpg,Travel,,,sub-48
Desktop or Laptop,Windows 10,AVG Secure Browser 137.0.0.0,1920x1080,1920x959,Temporal Distance Task,cb_07,49.0,temp_dist_trial,dist_items,qkpkxw,2.0,info,,5.5,0.0,5.5,5.5,0.0,5.5,1.0,0.0,0.0,,Slider,Slider,4.0,object-56,temp_dist_trial,1.0,t_i_04_1,travel_Iceland,portable camping stove,7.0,unique,paired,t_i_04_1.jpg,Travel,,,sub-48
Desktop or Laptop,Windows 10,AVG Secure Browser 137.0.0.0,1920x1080,1920x959,Temporal Distance Task,cb_07,49.0,temp_dist_trial,dist_items,qkpkxw,2.0,continue,,2752.7000000029802,2740.5,2752.7000000029802,2752.7000000029802,2740.5,2752.7000000029802,1.0,0.0,0.0,,Click To Continue,Next button,7.0,object-60,temp_dist_trial,1.0,t_i_04_1,travel_Iceland,portable camping stove,7.0,unique,paired,t_i_04_1.jpg,Travel,,,sub-48
Desktop or Laptop,Windows 10,AVG Secure Browser 137.0.0.0,1920x1080,1920x959,Temporal Distance Task,cb_07,49.0,temp_dist_trial,dist_items,qkpkxw,2.0,response,14,1677.3999999999942,2740.5,2753.2000000029802,1677.3999999999942,2740.5,2753.2000000029802,1.0,1075.800000002986,0.0,,Slider,Slider,4.0,object-56,temp_dist_trial,1.0,t_i_04_1,travel_Iceland,portable camping stove,7.0,unique,paired,t_i_04_1.jpg,Travel,,,sub-48
Desktop or Laptop,Windows 10,AVG Secure Browser 137.0.0.0,1920x1080,1920x959,Temporal Distance Task,cb_07,50.0,temp_dist_trial,num_items,zn7si1,1.0,response,1_ITEM,1161.3000000007448,1145.8999999999942,1161.3000000007448,1161.3000000007448,1145.8999999999942,1161.3000000007448,1.0,0.0,0.0,,Click Response,1_count,3.0,object-46,temp_dist_trial,2.0,t_i_17_1,travel_Iceland,binoculars,7.0,unique,single,t_i_17_1.jpg,Travel,,,sub-48
Desktop or Laptop,Windows 10,AVG Secure Browser 137.0.0.0,1920x1080,1920x959,Temporal Distance Task,cb_07,51.0,temp_dist_trial,num_items,zn7si1,1.0,response,1_ITEM,1540.5000000014843,1528.0,1540.5000000014843,1540.5000000014843,1528.0,1540.5000000014843,1.0,0.0,0.0,,Click Response,1_count,3.0,object-46,temp_dist_trial,3.0,t_m_04_1,travel_Miami,UV jacket,7.0,unique,single,t_m_04_1.jpg,Travel,,,sub-48
Desktop or Laptop,Windows 10,AVG Secure Browser 137.0.0.0,1920x1080,1920x959,Temporal Distance Task,cb_07,52.0,temp_dist_trial,num_items,zn7si1,1.0,response,1_ITEM,1265.4000000029919,1262.5,1265.4000000029919,1265.4000000029919,1262.5,1265.4000000029919,1.0,0.0,0.0,,Click Response,1_count,3.0,object-46,temp_dist_trial,4.0,t_m_20_1,travel_Miami,inflatable beachball,7.0,unique,single,t_m_20_1.jpg,Travel,,,sub-48
Desktop or Laptop,Windows 10,AVG Secure Browser 137.0.0.0,1920x1080,1920x959,Temporal Distance Task,cb_07,53.0,temp_dist_trial,num_items,zn7si1,1.0,response,1_ITEM,1019.1000000022467,1013.1000000000058,1019.1000000022467,1019.1000000022467,1013.1000000000058,1019.1000000022467,1.0,0.0,0.0,,Click Response,1_count,3.0,object-46,temp_dist_trial,5.0,t_s_24_1,travel_shared,ear plugs,7.0,competing,single,t_s_24_1.jpg,Travel,,,sub-48
Desktop or Laptop,Windows 10,AVG Secure Browser 137.0.0.0,1920x1080,1920x959,Temporal Distance Task,cb_07,54.0,temp_dist_trial,num_items,zn7si1,1.0,response,2_ITEM,1094.6000000022468,1079.4000000000233,1094.6000000022468,1094.6000000022468,1079.4000000000233,1094.6000000022468,1.0,0.0,0.0,,Click Response,2_count,5.0,object-49,temp_dist_trial,6.0,t_s_16_1,travel_shared,chapstick,7.0,competing,paired,t_s_16_1.jpg,Travel,,,sub-48
Desktop or Laptop,Windows 10,AVG Secure Browser 137.0.0.0,1920x1080,1920x959,Temporal Distance Task,cb_07,54.0,temp_dist_trial,dist_items,qkpkxw,2.0,info,,4.500000002968591,0.0,4.500000002968591,4.500000002968591,0.0,4.500000002968591,1.0,0.0,0.0,,Slider,Slider,4.0,object-56,temp_dist_trial,6.0,t_s_16_1,travel_shared,chapstick,7.0,competing,paired,t_s_16_1.jpg,Travel,,,sub-48
Desktop or Laptop,Windows 10,AVG Secure Browser 137.0.0.0,1920x1080,1920x959,Temporal Distance Task,cb_07,54.0,temp_dist_trial,dist_items,qkpkxw,2.0,continue,,2417.9000000014785,2408.1999999999825,2417.9000000014785,2417.9000000014785,2408.1999999999825,2417.9000000014785,1.0,0.0,0.0,,Click To Continue,Next button,7.0,object-60,temp_dist_trial,6.0,t_s_16_1,travel_shared,chapstick,7.0,competing,paired,t_s_16_1.jpg,Travel,,,sub-48
Desktop or Laptop,Windows 10,AVG Secure Browser 137.0.0.0,1920x1080,1920x959,Temporal Distance Task,cb_07,54.0,temp_dist_trial,dist_items,qkpkxw,2.0,response,14,1328.5,2408.1999999999825,2418.2999999999884,1328.5,2408.1999999999825,2418.2999999999884,1.0,1089.7999999999884,0.0,,Slider,Slider,4.0,object-56,temp_dist_trial,6.0,t_s_16_1,travel_shared,chapstick,7.0,competing,paired,t_s_16_1.jpg,Travel,,,sub-48
Desktop or Laptop,Windows 10,AVG Secure Browser 137.0.0.0,1920x1080,1920x959,Temporal Distance Task,cb_07,55.0,temp_dist_trial,num_items,zn7si1,1.0,response,num_miss,3006.300000000017,3006.300000000017,3006.300000000017,3006.300000000017,3006.300000000017,3006.300000000017,1.0,0.0,0.0,num_miss_tag,Time Limit,screen,0.0,screen,temp_dist_trial,7.0,t_s_23_1,travel_shared,ball cap,7.0,competing,single,t_s_23_1.jpg,Travel,,,sub-48
Desktop or Laptop,Windows 10,AVG Secure Browser 137.0.0.0,1920x1080,1920x959,Temporal Distance Task,cb_07,56.0,temp_dist_trial,num_items,zn7si1,1.0,response,2_ITEM,958.2000000022236,946.7999999999884,958.2000000022236,958.2000000022236,946.7999999999884,958.2000000022236,1.0,0.0,0.0,,Click Response,2_count,5.0,object-49,temp_dist_trial,8.0,t_i_11_1,travel_Iceland,headlamp,7.0,unique,paired,t_i_11_1.jpg,Travel,,,sub-48
Desktop or Laptop,Windows 10,AVG Secure Browser 137.0.0.0,1920x1080,1920x959,Temporal Distance Task,cb_07,56.0,temp_dist_trial,dist_items,qkpkxw,2.0,info,,4.500000001484295,0.0,4.500000001484295,4.500000001484295,0.0,4.500000001484295,1.0,0.0,0.0,,Slider,Slider,4.0,object-56,temp_dist_trial,8.0,t_i_11_1,travel_Iceland,headlamp,7.0,unique,paired,t_i_11_1.jpg,Travel,,,sub-48
Desktop or Laptop,Windows 10,AVG Secure Browser 137.0.0.0,1920x1080,1920x959,Temporal Distance Task,cb_07,56.0,temp_dist_trial,dist_items,qkpkxw,2.0,response,dist_miss,6993.100000000006,6993.100000000006,6993.100000000006,6993.100000000006,6993.100000000006,6993.100000000006,1.0,0.0,0.0,dist_miss_tag,Time Limit,screen,0.0,screen,temp_dist_trial,8.0,t_i_11_1,travel_Iceland,headlamp,7.0,unique,paired,t_i_11_1.jpg,Travel,,,sub-48
Desktop or Laptop,Windows 10,AVG Secure Browser 137.0.0.0,1920x1080,1920x959,Temporal Distance Task,cb_07,56.0,temp_dist_trial,dist_items,qkpkxw,2.0,response,72,3089.6000000000067,6993.100000000006,6994.399999999994,3089.6000000000067,6993.100000000006,6994.399999999994,1.0,3904.799999999989,0.0,,Slider,Slider,4.0,object-56,temp_dist_trial,8.0,t_i_11_1,travel_Iceland,headlamp,7.0,unique,paired,t_i_11_1.jpg,Travel,,,sub-48
Desktop or Laptop,Windows 10,AVG Secure Browser 137.0.0.0,1920x1080,1920x959,Temporal Distance Task,cb_07,57.0,temp_dist_trial,num_items,zn7si1,1.0,response,1_ITEM,1448.7999999999884,1444.6999999999825,1448.7999999999884,1448.7999999999884,1444.6999999999825,1448.7999999999884,1.0,0.0,0.0,,Click Response,1_count,3.0,object-46,temp_dist_trial,9.0,t_i_03_1,travel_Iceland,winter jacket,7.0,unique,single,t_i_03_1.jpg,Travel,,,sub-48
Desktop or Laptop,Windows 10,AVG Secure Browser 137.0.0.0,1920x1080,1920x959,Temporal Distance Task,cb_07,58.0,temp_dist_trial,num_items,zn7si1,1.0,response,2_ITEM,1207.3000000022294,1196.1000000000058,1207.3000000022294,1207.3000000022294,1196.1000000000058,1207.3000000022294,1.0,0.0,0.0,,Click Response,2_count,5.0,object-49,temp_dist_trial,10.0,t_i_12_1,travel_Iceland,tent,7.0,unique,paired,t_i_12_1.jpg,Travel,,,sub-48
Desktop or Laptop,Windows 10,AVG Secure Browser 137.0.0.0,1920x1080,1920x959,Temporal Distance Task,cb_07,58.0,temp_dist_trial,dist_items,qkpkxw,2.0,info,,6.900000001478474,0.0,6.900000001478474,6.900000001478474,0.0,6.900000001478474,1.0,0.0,0.0,,Slider,Slider,4.0,object-56,temp_dist_trial,10.0,t_i_12_1,travel_Iceland,tent,7.0,unique,paired,t_i_12_1.jpg,Travel,,,sub-48
Desktop or Laptop,Windows 10,AVG Secure Browser 137.0.0.0,1920x1080,1920x959,Temporal Distance Task,cb_07,58.0,temp_dist_trial,dist_items,qkpkxw,2.0,continue,,1876.7999999999884,1860.1999999999825,1876.7999999999884,1876.7999999999884,1860.1999999999825,1876.7999999999884,1.0,0.0,0.0,,Click To Continue,Next button,7.0,object-60,temp_dist_trial,10.0,t_i_12_1,travel_Iceland,tent,7.0,unique,paired,t_i_12_1.jpg,Travel,,,sub-48
Desktop or Laptop,Windows 10,AVG Secure Browser 137.0.0.0,1920x1080,1920x959,Temporal Distance Task,cb_07,58.0,temp_dist_trial,dist_items,qkpkxw,2.0,response,14,963.5,1860.1999999999825,1876.7999999999884,963.5,1860.1999999999825,1876.7999999999884,1.0,913.2999999999884,0.0,,Slider,Slider,4.0,object-56,temp_dist_trial,10.0,t_i_12_1,travel_Iceland,tent,7.0,unique,paired,t_i_12_1.jpg,Travel,,,sub-48
Desktop or Laptop,Windows 10,AVG Secure Browser 137.0.0.0,1920x1080,1920x959,Temporal Distance Task,cb_07,59.0,temp_dist_trial,num_items,zn7si1,1.0,response,1_ITEM,893.3000000029858,880.5,893.3000000029858,893.3000000029858,880.5,893.3000000029858,1.0,0.0,0.0,,Click Response,1_count,3.0,object-46,temp_dist_trial,11.0,t_s_15_1,travel_shared,luggage tag,7.0,competing,single,t_s_15_1.jpg,Travel,,,sub-48
Desktop or Laptop,Windows 10,AVG Secure Browser 137.0.0.0,1920x1080,1920x959,Temporal Distance Task,cb_07,60.0,temp_dist_trial,num_items,zn7si1,1.0,response,2_ITEM,769.3000000022294,764.0,769.3000000022294,769.3000000022294,764.0,769.3000000022294,1.0,0.0,0.0,,Click Response,2_count,5.0,object-49,temp_dist_trial,12.0,t_m_05_1,travel_Miami,sunscreen,7.0,unique,paired,t_m_05_1.jpg,Travel,,,sub-48
Desktop or Laptop,Windows 10,AVG Secure Browser 137.0.0.0,1920x1080,1920x959,Temporal Distance Task,cb_07,60.0,temp_dist_trial,dist_items,qkpkxw,2.0,info,,4.5,0.0,4.5,4.5,0.0,4.5,1.0,0.0,0.0,,Slider,Slider,4.0,object-56,temp_dist_trial,12.0,t_m_05_1,travel_Miami,sunscreen,7.0,unique,paired,t_m_05_1.jpg,Travel,,,sub-48
Desktop or Laptop,Windows 10,AVG Secure Browser 137.0.0.0,1920x1080,1920x959,Temporal Distance Task,cb_07,60.0,temp_dist_trial,dist_items,qkpkxw,2.0,continue,,2028.8000000007446,2026.1000000000056,2028.8000000007446,2028.8000000007446,2026.1000000000056,2028.8000000007446,1.0,0.0,0.0,,Click To Continue,Next button,7.0,object-60,temp_dist_trial,12.0,t_m_05_1,travel_Miami,sunscreen,7.0,unique,paired,t_m_05_1.jpg,Travel,,,sub-48
Desktop or Laptop,Windows 10,AVG Secure Browser 137.0.0.0,1920x1080,1920x959,Temporal Distance Task,cb_07,60.0,temp_dist_trial,dist_items,qkpkxw,2.0,response,23,1262.0,2026.1000000000056,2029.3000000007446,1262.0,2026.1000000000056,2029.3000000007446,1.0,767.3000000007451,0.0,,Slider,Slider,4.0,object-56,temp_dist_trial,12.0,t_m_05_1,travel_Miami,sunscreen,7.0,unique,paired,t_m_05_1.jpg,Travel,,,sub-48
Desktop or Laptop,Windows 10,AVG Secure Browser 137.0.0.0,1920x1080,1920x959,Temporal Distance Task,cb_07,61.0,temp_dist_trial,num_items,zn7si1,1.0,response,1_ITEM,1006.3999999999942,996.3999999999942,1006.3999999999942,1006.3999999999942,996.3999999999942,1006.3999999999942,1.0,0.0,0.0,,Click Response,1_count,3.0,object-46,temp_dist_trial,13.0,t_s_01_1,travel_shared,fanny pack,7.0,competing,single,t_s_01_1.jpg,Travel,,,sub-48
Desktop or Laptop,Windows 10,AVG Secure Browser 137.0.0.0,1920x1080,1920x959,Temporal Distance Task,cb_07,62.0,temp_dist_trial,num_items,zn7si1,1.0,response,2_ITEM,1060.0000000029686,1046.3999999999942,1060.0000000029686,1060.0000000029686,1046.3999999999942,1060.0000000029686,1.0,0.0,0.0,,Click Response,2_count,5.0,object-49,temp_dist_trial,14.0,t_m_09_1,travel_Miami,beach towel,7.0,unique,paired,t_m_09_1.jpg,Travel,,,sub-48
Desktop or Laptop,Windows 10,AVG Secure Browser 137.0.0.0,1920x1080,1920x959,Temporal Distance Task,cb_07,62.0,temp_dist_trial,dist_items,qkpkxw,2.0,info,,4.800000000745059,0.0,4.800000000745059,4.800000000745059,0.0,4.800000000745059,1.0,0.0,0.0,,Slider,Slider,4.0,object-56,temp_dist_trial,14.0,t_m_09_1,travel_Miami,beach towel,7.0,unique,paired,t_m_09_1.jpg,Travel,,,sub-48
Desktop or Laptop,Windows 10,AVG Secure Browser 137.0.0.0,1920x1080,1920x959,Temporal Distance Task,cb_07,62.0,temp_dist_trial,dist_items,qkpkxw,2.0,continue,,3205.2999999999884,3188.7999999999884,3205.2999999999884,3205.2999999999884,3188.7999999999884,3205.2999999999884,1.0,0.0,0.0,,Click To Continue,Next button,7.0,object-60,temp_dist_trial,14.0,t_m_09_1,travel_Miami,beach towel,7.0,unique,paired,t_m_09_1.jpg,Travel,,,sub-48
Desktop or Laptop,Windows 10,AVG Secure Browser 137.0.0.0,1920x1080,1920x959,Temporal Distance Task,cb_07,62.0,temp_dist_trial,dist_items,qkpkxw,2.0,response,53,2258.7999999999884,3188.7999999999884,3205.2999999999884,2258.7999999999884,3188.7999999999884,3205.2999999999884,1.0,946.5,0.0,,Slider,Slider,4.0,object-56,temp_dist_trial,14.0,t_m_09_1,travel_Miami,beach towel,7.0,unique,paired,t_m_09_1.jpg,Travel,,,sub-48
Desktop or Laptop,Windows 10,AVG Secure Browser 137.0.0.0,1920x1080,1920x959,Temporal Distance Task,cb_07,63.0,temp_dist_trial,num_items,zn7si1,1.0,response,2_ITEM,1218.9000000029919,1212.7000000000114,1218.9000000029919,1218.9000000029919,1212.7000000000114,1218.9000000029919,1.0,0.0,0.0,,Click Response,2_count,5.0,object-49,temp_dist_trial,15.0,t_m_07_1,travel_Miami,sunglasses,7.0,unique,paired,t_m_07_1.jpg,Travel,,,sub-48
Desktop or Laptop,Windows 10,AVG Secure Browser 137.0.0.0,1920x1080,1920x959,Temporal Distance Task,cb_07,63.0,temp_dist_trial,dist_items,qkpkxw,2.0,info,,3.700000000739237,0.0,3.700000000739237,3.700000000739237,0.0,3.700000000739237,1.0,0.0,0.0,,Slider,Slider,4.0,object-56,temp_dist_trial,15.0,t_m_07_1,travel_Miami,sunglasses,7.0,unique,paired,t_m_07_1.jpg,Travel,,,sub-48
Desktop or Laptop,Windows 10,AVG Secure Browser 137.0.0.0,1920x1080,1920x959,Temporal Distance Task,cb_07,63.0,temp_dist_trial,dist_items,qkpkxw,2.0,continue,,1794.1000000029746,1777.3999999999942,1794.1000000029746,1794.1000000029746,1777.3999999999942,1794.1000000029746,1.0,0.0,0.0,,Click To Continue,Next button,7.0,object-60,temp_dist_trial,15.0,t_m_07_1,travel_Miami,sunglasses,7.0,unique,paired,t_m_07_1.jpg,Travel,,,sub-48
Desktop or Laptop,Windows 10,AVG Secure Browser 137.0.0.0,1920x1080,1920x959,Temporal Distance Task,cb_07,63.0,temp_dist_trial,dist_items,qkpkxw,2.0,response,42,963.2999999999884,1777.3999999999942,1794.1999999999825,963.2999999999884,1777.3999999999942,1794.1999999999825,1.0,830.8999999999942,0.0,,Slider,Slider,4.0,object-56,temp_dist_trial,15.0,t_m_07_1,travel_Miami,sunglasses,7.0,unique,paired,t_m_07_1.jpg,Travel,,,sub-48
Desktop or Laptop,Windows 10,AVG Secure Browser 137.0.0.0,1920x1080,1920x959,Temporal Distance Task,cb_07,64.0,temp_dist_trial,num_items,zn7si1,1.0,response,1_ITEM,1517.1000000014901,1511.5,1517.1000000014901,1517.1000000014901,1511.5,1517.1000000014901,1.0,0.0,0.0,,Click Response,1_count,3.0,object-46,temp_dist_trial,16.0,t_s_09_1,travel_shared,wallet,7.0,competing,paired,t_s_09_1.jpg,Travel,,,sub-48
Desktop or Laptop,Windows 10,AVG Secure Browser 137.0.0.0,1920x1080,1920x959,Temporal Distance Task,cb_07,65.0,temp_dist_trial,num_items,zn7si1,1.0,response,1_ITEM,1416.5000000014843,1411.6999999999825,1416.5000000014843,1416.5000000014843,1411.6999999999825,1416.5000000014843,1.0,0.0,0.0,,Click Response,1_count,3.0,object-46,temp_dist_trial,17.0,t_m_14_1,travel_Miami,swim goggles,7.0,unique,single,t_m_14_1.jpg,Travel,,,sub-48
Desktop or Laptop,Windows 10,AVG Secure Browser 137.0.0.0,1920x1080,1920x959,Temporal Distance Task,cb_07,66.0,temp_dist_trial,num_items,zn7si1,1.0,response,2_ITEM,1008.2000000000116,996.8000000000177,1008.2000000000116,1008.2000000000116,996.8000000000177,1008.2000000000116,1.0,0.0,0.0,,Click Response,2_count,5.0,object-49,temp_dist_trial,18.0,t_s_03_1,travel_shared,portable charger,7.0,competing,paired,t_s_03_1.jpg,Travel,,,sub-48
Desktop or Laptop,Windows 10,AVG Secure Browser 137.0.0.0,1920x1080,1920x959,Temporal Distance Task,cb_07,66.0,temp_dist_trial,dist_items,qkpkxw,2.0,info,,4.900000001478475,0.0,4.900000001478475,4.900000001478475,0.0,4.900000001478475,1.0,0.0,0.0,,Slider,Slider,4.0,object-56,temp_dist_trial,18.0,t_s_03_1,travel_shared,portable charger,7.0,competing,paired,t_s_03_1.jpg,Travel,,,sub-48
Desktop or Laptop,Windows 10,AVG Secure Browser 137.0.0.0,1920x1080,1920x959,Temporal Distance Task,cb_07,66.0,temp_dist_trial,dist_items,qkpkxw,2.0,continue,,2537.500000002969,2524.599999999977,2537.500000002969,2537.500000002969,2524.599999999977,2537.500000002969,1.0,0.0,0.0,,Click To Continue,Next button,7.0,object-60,temp_dist_trial,18.0,t_s_03_1,travel_shared,portable charger,7.0,competing,paired,t_s_03_1.jpg,Travel,,,sub-48
Desktop or Laptop,Windows 10,AVG Secure Browser 137.0.0.0,1920x1080,1920x959,Temporal Distance Task,cb_07,66.0,temp_dist_trial,dist_items,qkpkxw,2.0,response,0,1445.1999999999825,2524.599999999977,2541.000000002969,1445.1999999999825,2524.599999999977,2541.000000002969,1.0,1095.800000002986,0.0,,Slider,Slider,4.0,object-56,temp_dist_trial,18.0,t_s_03_1,travel_shared,portable charger,7.0,competing,paired,t_s_03_1.jpg,Travel,,,sub-48
Desktop or Laptop,Windows 10,AVG Secure Browser 137.0.0.0,1920x1080,1920x959,Temporal Distance Task,cb_07,67.0,temp_dist_trial,num_items,zn7si1,1.0,response,2_ITEM,1415.6000000022468,1411.8000000000175,1415.6000000022468,1415.6000000022468,1411.8000000000175,1415.6000000022468,1.0,0.0,0.0,,Click Response,2_count,5.0,object-49,temp_dist_trial,19.0,t_s_20_1,travel_shared,travel pill case,7.0,competing,paired,t_s_20_1.jpg,Travel,,,sub-48
Desktop or Laptop,Windows 10,AVG Secure Browser 137.0.0.0,1920x1080,1920x959,Temporal Distance Task,cb_07,67.0,temp_dist_trial,dist_items,qkpkxw,2.0,info,,4.5000000007567005,0.0,4.5000000007567005,4.5000000007567005,0.0,4.5000000007567005,1.0,0.0,0.0,,Slider,Slider,4.0,object-56,temp_dist_trial,19.0,t_s_20_1,travel_shared,travel pill case,7.0,competing,paired,t_s_20_1.jpg,Travel,,,sub-48
Desktop or Laptop,Windows 10,AVG Secure Browser 137.0.0.0,1920x1080,1920x959,Temporal Distance Task,cb_07,67.0,temp_dist_trial,dist_items,qkpkxw,2.0,continue,,1906.9000000029919,1893.6000000000056,1906.9000000029919,1906.9000000029919,1893.6000000000056,1906.9000000029919,1.0,0.0,0.0,,Click To Continue,Next button,7.0,object-60,temp_dist_trial,19.0,t_s_20_1,travel_shared,travel pill case,7.0,competing,paired,t_s_20_1.jpg,Travel,,,sub-48
Desktop or Laptop,Windows 10,AVG Secure Browser 137.0.0.0,1920x1080,1920x959,Temporal Distance Task,cb_07,67.0,temp_dist_trial,dist_items,qkpkxw,2.0,response,0,996.6000000000058,1893.6000000000056,1907.300000001501,996.6000000000058,1893.6000000000056,1907.300000001501,1.0,910.7000000014959,0.0,,Slider,Slider,4.0,object-56,temp_dist_trial,19.0,t_s_20_1,travel_shared,travel pill case,7.0,competing,paired,t_s_20_1.jpg,Travel,,,sub-48
Desktop or Laptop,Windows 10,AVG Secure Browser 137.0.0.0,1920x1080,1920x959,Temporal Distance Task,cb_07,68.0,temp_dist_trial,num_items,zn7si1,1.0,response,2_ITEM,1166.9000000007507,1162.8000000000175,1166.9000000007507,1166.9000000007507,1162.8000000000175,1166.9000000007507,1.0,0.0,0.0,,Click Response,2_count,5.0,object-49,temp_dist_trial,20.0,t_s_21_1,travel_shared,umbrella,7.0,competing,paired,t_s_21_1.jpg,Travel,,,sub-48
Desktop or Laptop,Windows 10,AVG Secure Browser 137.0.0.0,1920x1080,1920x959,Temporal Distance Task,cb_07,68.0,temp_dist_trial,dist_items,qkpkxw,2.0,info,,5.400000002235174,0.0,5.400000002235174,5.400000002235174,0.0,5.400000002235174,1.0,0.0,0.0,,Slider,Slider,4.0,object-56,temp_dist_trial,20.0,t_s_21_1,travel_shared,umbrella,7.0,competing,paired,t_s_21_1.jpg,Travel,,,sub-48
Desktop or Laptop,Windows 10,AVG Secure Browser 137.0.0.0,1920x1080,1920x959,Temporal Distance Task,cb_07,68.0,temp_dist_trial,dist_items,qkpkxw,2.0,continue,,1796.0,1793.5,1796.0,1796.0,1793.5,1796.0,1.0,0.0,0.0,,Click To Continue,Next button,7.0,object-60,temp_dist_trial,20.0,t_s_21_1,travel_shared,umbrella,7.0,competing,paired,t_s_21_1.jpg,Travel,,,sub-48
Desktop or Laptop,Windows 10,AVG Secure Browser 137.0.0.0,1920x1080,1920x959,Temporal Distance Task,cb_07,68.0,temp_dist_trial,dist_items,qkpkxw,2.0,response,81,996.2999999999884,1793.5,1796.3000000007446,996.2999999999884,1793.5,1796.3000000007446,1.0,800.0000000007567,0.0,,Slider,Slider,4.0,object-56,temp_dist_trial,20.0,t_s_21_1,travel_shared,umbrella,7.0,competing,paired,t_s_21_1.jpg,Travel,,,sub-48
Desktop or Laptop,Windows 10,AVG Secure Browser 137.0.0.0,1920x1080,1920x959,Temporal Distance Task,cb_07,69.0,temp_dist_trial,num_items,zn7si1,1.0,response,2_ITEM,1186.1000000014901,1179.2999999999886,1186.1000000014901,1186.1000000014901,1179.2999999999886,1186.1000000014901,1.0,0.0,0.0,,Click Response,2_count,5.0,object-49,temp_dist_trial,21.0,t_i_16_1,travel_Iceland,skis,7.0,unique,paired,t_i_16_1.jpg,Travel,,,sub-48
Desktop or Laptop,Windows 10,AVG Secure Browser 137.0.0.0,1920x1080,1920x959,Temporal Distance Task,cb_07,69.0,temp_dist_trial,dist_items,qkpkxw,2.0,info,,5.200000002980231,0.0,5.200000002980231,5.200000002980231,0.0,5.200000002980231,1.0,0.0,0.0,,Slider,Slider,4.0,object-56,temp_dist_trial,21.0,t_i_16_1,travel_Iceland,skis,7.0,unique,paired,t_i_16_1.jpg,Travel,,,sub-48
Desktop or Laptop,Windows 10,AVG Secure Browser 137.0.0.0,1920x1080,1920x959,Temporal Distance Task,cb_07,69.0,temp_dist_trial,dist_items,qkpkxw,2.0,continue,,1776.5,1760.7999999999884,1776.5,1776.5,1760.7999999999884,1776.5,1.0,0.0,0.0,,Click To Continue,Next button,7.0,object-60,temp_dist_trial,21.0,t_i_16_1,travel_Iceland,skis,7.0,unique,paired,t_i_16_1.jpg,Travel,,,sub-48
Desktop or Laptop,Windows 10,AVG Secure Browser 137.0.0.0,1920x1080,1920x959,Temporal Distance Task,cb_07,69.0,temp_dist_trial,dist_items,qkpkxw,2.0,response,23,1146.1000000000058,1760.7999999999884,1777.10000000149,1146.1000000000058,1760.7999999999884,1777.10000000149,1.0,631.0000000014842,0.0,,Slider,Slider,4.0,object-56,temp_dist_trial,21.0,t_i_16_1,travel_Iceland,skis,7.0,unique,paired,t_i_16_1.jpg,Travel,,,sub-48
Desktop or Laptop,Windows 10,AVG Secure Browser 137.0.0.0,1920x1080,1920x959,Temporal Distance Task,cb_07,70.0,temp_dist_trial,num_items,zn7si1,1.0,response,2_ITEM,999.8000000015018,996.6000000000058,999.8000000015018,999.8000000015018,996.6000000000058,999.8000000015018,1.0,0.0,0.0,,Click Response,2_count,5.0,object-49,temp_dist_trial,22.0,t_s_06_1,travel_shared,luggage,7.0,competing,paired,t_s_06_1.jpg,Travel,,,sub-48
Desktop or Laptop,Windows 10,AVG Secure Browser 137.0.0.0,1920x1080,1920x959,Temporal Distance Task,cb_07,70.0,temp_dist_trial,dist_items,qkpkxw,2.0,info,,3.2000000014959373,0.0,3.2000000014959373,3.2000000014959373,0.0,3.2000000014959373,1.0,0.0,0.0,,Slider,Slider,4.0,object-56,temp_dist_trial,22.0,t_s_06_1,travel_shared,luggage,7.0,competing,paired,t_s_06_1.jpg,Travel,,,sub-48
Desktop or Laptop,Windows 10,AVG Secure Browser 137.0.0.0,1920x1080,1920x959,Temporal Distance Task,cb_07,70.0,temp_dist_trial,dist_items,qkpkxw,2.0,continue,,3187.6000000000067,3172.3999999999933,3187.6000000000067,3187.6000000000067,3172.3999999999933,3187.6000000000067,1.0,0.0,0.0,,Click To Continue,Next button,7.0,object-60,temp_dist_trial,22.0,t_s_06_1,travel_shared,luggage,7.0,competing,paired,t_s_06_1.jpg,Travel,,,sub-48
Desktop or Laptop,Windows 10,AVG Secure Browser 137.0.0.0,1920x1080,1920x959,Temporal Distance Task,cb_07,70.0,temp_dist_trial,dist_items,qkpkxw,2.0,response,100,797.3999999999942,3172.3999999999933,3187.900000000751,797.3999999999942,3172.3999999999933,3187.900000000751,1.0,2390.500000000757,0.0,,Slider,Slider,4.0,object-56,temp_dist_trial,22.0,t_s_06_1,travel_shared,luggage,7.0,competing,paired,t_s_06_1.jpg,Travel,,,sub-48
Desktop or Laptop,Windows 10,AVG Secure Browser 137.0.0.0,1920x1080,1920x959,Temporal Distance Task,cb_07,71.0,temp_dist_trial,num_items,zn7si1,1.0,response,2_ITEM,876.3000000015018,863.8000000000177,876.3000000015018,876.3000000015018,863.8000000000177,876.3000000015018,1.0,0.0,0.0,,Click Response,2_count,5.0,object-49,temp_dist_trial,23.0,t_s_05_1,travel_shared,neck pillow,7.0,competing,paired,t_s_05_1.jpg,Travel,,,sub-48
Desktop or Laptop,Windows 10,AVG Secure Browser 137.0.0.0,1920x1080,1920x959,Temporal Distance Task,cb_07,71.0,temp_dist_trial,dist_items,qkpkxw,2.0,info,,4.1000000029744115,0.0,4.1000000029744115,4.1000000029744115,0.0,4.1000000029744115,1.0,0.0,0.0,,Slider,Slider,4.0,object-56,temp_dist_trial,23.0,t_s_05_1,travel_shared,neck pillow,7.0,competing,paired,t_s_05_1.jpg,Travel,,,sub-48
Desktop or Laptop,Windows 10,AVG Secure Browser 137.0.0.0,1920x1080,1920x959,Temporal Distance Task,cb_07,71.0,temp_dist_trial,dist_items,qkpkxw,2.0,continue,,1762.5000000014843,1760.7999999999884,1762.5000000014843,1762.5000000014843,1760.7999999999884,1762.5000000014843,1.0,0.0,0.0,,Click To Continue,Next button,7.0,object-60,temp_dist_trial,23.0,t_s_05_1,travel_shared,neck pillow,7.0,competing,paired,t_s_05_1.jpg,Travel,,,sub-48
Desktop or Laptop,Windows 10,AVG Secure Browser 137.0.0.0,1920x1080,1920x959,Temporal Distance Task,cb_07,71.0,temp_dist_trial,dist_items,qkpkxw,2.0,response,20,980.1000000000058,1760.7999999999884,1762.8999999999942,980.1000000000058,1760.7999999999884,1762.8999999999942,1.0,782.7999999999884,0.0,,Slider,Slider,4.0,object-56,temp_dist_trial,23.0,t_s_05_1,travel_shared,neck pillow,7.0,competing,paired,t_s_05_1.jpg,Travel,,,sub-48
Desktop or Laptop,Windows 10,AVG Secure Browser 137.0.0.0,1920x1080,1920x959,Temporal Distance Task,cb_07,72.0,temp_dist_trial,num_items,zn7si1,1.0,response,2_ITEM,1144.1000000000058,1129.6000000000058,1144.1000000000058,1144.1000000000058,1129.6000000000058,1144.1000000000058,1.0,0.0,0.0,,Click Response,2_count,5.0,object-49,temp_dist_trial,24.0,t_s_12_1,travel_shared,clear toiletry bag,7.0,competing,paired,t_s_12_1.jpg,Travel,,,sub-48
Desktop or Laptop,Windows 10,AVG Secure Browser 137.0.0.0,1920x1080,1920x959,Temporal Distance Task,cb_07,72.0,temp_dist_trial,dist_items,qkpkxw,2.0,info,,4.2000000000116415,0.0,4.2000000000116415,4.2000000000116415,0.0,4.2000000000116415,1.0,0.0,0.0,,Slider,Slider,4.0,object-56,temp_dist_trial,24.0,t_s_12_1,travel_shared,clear toiletry bag,7.0,competing,paired,t_s_12_1.jpg,Travel,,,sub-48
Desktop or Laptop,Windows 10,AVG Secure Browser 137.0.0.0,1920x1080,1920x959,Temporal Distance Task,cb_07,72.0,temp_dist_trial,dist_items,qkpkxw,2.0,continue,,1426.4000000029919,1412.0,1426.4000000029919,1426.4000000029919,1412.0,1426.4000000029919,1.0,0.0,0.0,,Click To Continue,Next button,7.0,object-60,temp_dist_trial,24.0,t_s_12_1,travel_shared,clear toiletry bag,7.0,competing,paired,t_s_12_1.jpg,Travel,,,sub-48
Desktop or Laptop,Windows 10,AVG Secure Browser 137.0.0.0,1920x1080,1920x959,Temporal Distance Task,cb_07,72.0,temp_dist_trial,dist_items,qkpkxw,2.0,response,50,730.9000000000232,1412.0,1426.9000000029919,730.9000000000232,1412.0,1426.9000000029919,1.0,696.0000000029686,0.0,,Slider,Slider,4.0,object-56,temp_dist_trial,24.0,t_s_12_1,travel_shared,clear toiletry bag,7.0,competing,paired,t_s_12_1.jpg,Travel,,,sub-48
Desktop or Laptop,Windows 10,AVG Secure Browser 137.0.0.0,1920x1080,1920x959,Temporal Distance Task,cb_07,73.0,temp_dist_trial,num_items,zn7si1,1.0,response,1_ITEM,1272.7000000000114,1262.3000000000175,1272.7000000000114,1272.7000000000114,1262.3000000000175,1272.7000000000114,1.0,0.0,0.0,,Click Response,1_count,3.0,object-46,temp_dist_trial,25.0,t_s_10_1,travel_shared,luggage lock,7.0,competing,single,t_s_10_1.jpg,Travel,,,sub-48
Desktop or Laptop,Windows 10,AVG Secure Browser 137.0.0.0,1920x1080,1920x959,Temporal Distance Task,cb_07,74.0,temp_dist_trial,num_items,zn7si1,1.0,response,2_ITEM,963.3999999999942,946.7999999999884,963.3999999999942,963.3999999999942,946.7999999999884,963.3999999999942,1.0,0.0,0.0,,Click Response,2_count,5.0,object-49,temp_dist_trial,26.0,t_s_22_1,travel_shared,belt,7.0,competing,paired,t_s_22_1.jpg,Travel,,,sub-48
Desktop or Laptop,Windows 10,AVG Secure Browser 137.0.0.0,1920x1080,1920x959,Temporal Distance Task,cb_07,74.0,temp_dist_trial,dist_items,qkpkxw,2.0,info,,3.700000000739237,0.0,3.700000000739237,3.700000000739237,0.0,3.700000000739237,1.0,0.0,0.0,,Slider,Slider,4.0,object-56,temp_dist_trial,26.0,t_s_22_1,travel_shared,belt,7.0,competing,paired,t_s_22_1.jpg,Travel,,,sub-48
Desktop or Laptop,Windows 10,AVG Secure Browser 137.0.0.0,1920x1080,1920x959,Temporal Distance Task,cb_07,74.0,temp_dist_trial,dist_items,qkpkxw,2.0,continue,,2377.800000002229,2375.3999999999937,2377.800000002229,2377.800000002229,2375.3999999999937,2377.800000002229,1.0,0.0,0.0,,Click To Continue,Next button,7.0,object-60,temp_dist_trial,26.0,t_s_22_1,travel_shared,belt,7.0,competing,paired,t_s_22_1.jpg,Travel,,,sub-48
Desktop or Laptop,Windows 10,AVG Secure Browser 137.0.0.0,1920x1080,1920x959,Temporal Distance Task,cb_07,74.0,temp_dist_trial,dist_items,qkpkxw,2.0,response,29,1295.6999999999825,2375.3999999999937,2378.1000000029744,1295.6999999999825,2375.3999999999937,2378.1000000029744,1.0,1082.4000000029919,0.0,,Slider,Slider,4.0,object-56,temp_dist_trial,26.0,t_s_22_1,travel_shared,belt,7.0,competing,paired,t_s_22_1.jpg,Travel,,,sub-48
Desktop or Laptop,Windows 10,AVG Secure Browser 137.0.0.0,1920x1080,1920x959,Temporal Distance Task,cb_07,75.0,temp_dist_trial,num_items,zn7si1,1.0,response,2_ITEM,1780.5,1777.2999999999884,1780.5,1780.5,1777.2999999999884,1780.5,1.0,0.0,0.0,,Click Response,2_count,5.0,object-49,temp_dist_trial,27.0,t_s_07_1,travel_shared,phone charger cable,7.0,competing,paired,t_s_07_1.jpg,Travel,,,sub-48
Desktop or Laptop,Windows 10,AVG Secure Browser 137.0.0.0,1920x1080,1920x959,Temporal Distance Task,cb_07,75.0,temp_dist_trial,dist_items,qkpkxw,2.0,info,,3.5000000007567,0.0,3.5000000007567,3.5000000007567,0.0,3.5000000007567,1.0,0.0,0.0,,Slider,Slider,4.0,object-56,temp_dist_trial,27.0,t_s_07_1,travel_shared,phone charger cable,7.0,competing,paired,t_s_07_1.jpg,Travel,,,sub-48
Desktop or Laptop,Windows 10,AVG Secure Browser 137.0.0.0,1920x1080,1920x959,Temporal Distance Task,cb_07,75.0,temp_dist_trial,dist_items,qkpkxw,2.0,continue,,1635.8000000015018,1627.7999999999884,1635.8000000015018,1635.8000000015018,1627.7999999999884,1635.8000000015018,1.0,0.0,0.0,,Click To Continue,Next button,7.0,object-60,temp_dist_trial,27.0,t_s_07_1,travel_shared,phone charger cable,7.0,competing,paired,t_s_07_1.jpg,Travel,,,sub-48
Desktop or Laptop,Windows 10,AVG Secure Browser 137.0.0.0,1920x1080,1920x959,Temporal Distance Task,cb_07,75.0,temp_dist_trial,dist_items,qkpkxw,2.0,response,16,813.9000000000232,1627.7999999999884,1636.3000000015018,813.9000000000232,1627.7999999999884,1636.3000000015018,1.0,822.4000000014785,0.0,,Slider,Slider,4.0,object-56,temp_dist_trial,27.0,t_s_07_1,travel_shared,phone charger cable,7.0,competing,paired,t_s_07_1.jpg,Travel,,,sub-48
Desktop or Laptop,Windows 10,AVG Secure Browser 137.0.0.0,1920x1080,1920x959,Temporal Distance Task,cb_07,76.0,temp_dist_trial,num_items,zn7si1,1.0,response,2_ITEM,1169.8000000022585,1162.8000000000466,1169.8000000022585,1169.8000000022585,1162.8000000000466,1169.8000000022585,1.0,0.0,0.0,,Click Response,2_count,5.0,object-49,temp_dist_trial,28.0,t_m_03_1,travel_Miami,wetsuit,7.0,unique,paired,t_m_03_1.jpg,Travel,,,sub-48
Desktop or Laptop,Windows 10,AVG Secure Browser 137.0.0.0,1920x1080,1920x959,Temporal Distance Task,cb_07,76.0,temp_dist_trial,dist_items,qkpkxw,2.0,info,,4.100000002246817,0.0,4.100000002246817,4.100000002246817,0.0,4.100000002246817,1.0,0.0,0.0,,Slider,Slider,4.0,object-56,temp_dist_trial,28.0,t_m_03_1,travel_Miami,wetsuit,7.0,unique,paired,t_m_03_1.jpg,Travel,,,sub-48
Desktop or Laptop,Windows 10,AVG Secure Browser 137.0.0.0,1920x1080,1920x959,Temporal Distance Task,cb_07,76.0,temp_dist_trial,dist_items,qkpkxw,2.0,continue,,1548.9000000029919,1544.7999999999884,1548.9000000029919,1548.9000000029919,1544.7999999999884,1548.9000000029919,1.0,0.0,0.0,,Click To Continue,Next button,7.0,object-60,temp_dist_trial,28.0,t_m_03_1,travel_Miami,wetsuit,7.0,unique,paired,t_m_03_1.jpg,Travel,,,sub-48
Desktop or Laptop,Windows 10,AVG Secure Browser 137.0.0.0,1920x1080,1920x959,Temporal Distance Task,cb_07,76.0,temp_dist_trial,dist_items,qkpkxw,2.0,response,22,697.6000000000349,1544.7999999999884,1552.5000000007572,697.6000000000349,1544.7999999999884,1552.5000000007572,1.0,854.9000000007218,0.0,,Slider,Slider,4.0,object-56,temp_dist_trial,28.0,t_m_03_1,travel_Miami,wetsuit,7.0,unique,paired,t_m_03_1.jpg,Travel,,,sub-48
Desktop or Laptop,Windows 10,AVG Secure Browser 137.0.0.0,1920x1080,1920x959,Temporal Distance Task,cb_07,77.0,temp_dist_trial,num_items,zn7si1,1.0,response,2_ITEM,814.7000000007682,813.8000000000467,814.7000000007682,814.7000000007682,813.8000000000467,814.7000000007682,1.0,0.0,0.0,,Click Response,2_count,5.0,object-49,temp_dist_trial,29.0,t_s_02_1,travel_shared,water bottle,7.0,competing,paired,t_s_02_1.jpg,Travel,,,sub-48
Desktop or Laptop,Windows 10,AVG Secure Browser 137.0.0.0,1920x1080,1920x959,Temporal Distance Task,cb_07,77.0,temp_dist_trial,dist_items,qkpkxw,2.0,info,,3.7000000007683416,0.0,3.7000000007683416,3.7000000007683416,0.0,3.7000000007683416,1.0,0.0,0.0,,Slider,Slider,4.0,object-56,temp_dist_trial,29.0,t_s_02_1,travel_shared,water bottle,7.0,competing,paired,t_s_02_1.jpg,Travel,,,sub-48
Desktop or Laptop,Windows 10,AVG Secure Browser 137.0.0.0,1920x1080,1920x959,Temporal Distance Task,cb_07,77.0,temp_dist_trial,dist_items,qkpkxw,2.0,continue,,1535.7000000007683,1528.0,1535.7000000007683,1535.7000000007683,1528.0,1535.7000000007683,1.0,0.0,0.0,,Click To Continue,Next button,7.0,object-60,temp_dist_trial,29.0,t_s_02_1,travel_shared,water bottle,7.0,competing,paired,t_s_02_1.jpg,Travel,,,sub-48
Desktop or Laptop,Windows 10,AVG Secure Browser 137.0.0.0,1920x1080,1920x959,Temporal Distance Task,cb_07,77.0,temp_dist_trial,dist_items,qkpkxw,2.0,response,53,830.5,1528.0,1536.0000000015134,830.5,1528.0,1536.0000000015134,1.0,705.5000000015134,0.0,,Slider,Slider,4.0,object-56,temp_dist_trial,29.0,t_s_02_1,travel_shared,water bottle,7.0,competing,paired,t_s_02_1.jpg,Travel,,,sub-48
Desktop or Laptop,Windows 10,AVG Secure Browser 137.0.0.0,1920x1080,1920x959,Temporal Distance Task,cb_07,78.0,temp_dist_trial,num_items,zn7si1,1.0,response,2_ITEM,1508.9000000000233,1495.2000000000116,1508.9000000000233,1508.9000000000233,1495.2000000000116,1508.9000000000233,1.0,0.0,0.0,,Click Response,2_count,5.0,object-49,temp_dist_trial,30.0,t_s_14_1,travel_shared,hand sanitizer,7.0,competing,paired,t_s_14_1.jpg,Travel,,,sub-48
Desktop or Laptop,Windows 10,AVG Secure Browser 137.0.0.0,1920x1080,1920x959,Temporal Distance Task,cb_07,78.0,temp_dist_trial,dist_items,qkpkxw,2.0,info,,5.2000000000116415,0.0,5.2000000000116415,5.2000000000116415,0.0,5.2000000000116415,1.0,0.0,0.0,,Slider,Slider,4.0,object-56,temp_dist_trial,30.0,t_s_14_1,travel_shared,hand sanitizer,7.0,competing,paired,t_s_14_1.jpg,Travel,,,sub-48
Desktop or Laptop,Windows 10,AVG Secure Browser 137.0.0.0,1920x1080,1920x959,Temporal Distance Task,cb_07,78.0,temp_dist_trial,dist_items,qkpkxw,2.0,continue,,1872.300000001501,1860.2000000000119,1872.300000001501,1872.300000001501,1860.2000000000119,1872.300000001501,1.0,0.0,0.0,,Click To Continue,Next button,7.0,object-60,temp_dist_trial,30.0,t_s_14_1,travel_shared,hand sanitizer,7.0,competing,paired,t_s_14_1.jpg,Travel,,,sub-48
Desktop or Laptop,Windows 10,AVG Secure Browser 137.0.0.0,1920x1080,1920x959,Temporal Distance Task,cb_07,78.0,temp_dist_trial,dist_items,qkpkxw,2.0,response,57,1179.2999999999886,1860.2000000000119,1872.7000000000119,1179.2999999999886,1860.2000000000119,1872.7000000000119,1.0,693.4000000000232,0.0,,Slider,Slider,4.0,object-56,temp_dist_trial,30.0,t_s_14_1,travel_shared,hand sanitizer,7.0,competing,paired,t_s_14_1.jpg,Travel,,,sub-48
Desktop or Laptop,Windows 10,AVG Secure Browser 137.0.0.0,1920x1080,1920x959,Temporal Distance Task,cb_07,79.0,temp_dist_trial,num_items,zn7si1,1.0,response,1_ITEM,1168.7000000029802,1162.5999999999767,1168.7000000029802,1168.7000000029802,1162.5999999999767,1168.7000000029802,1.0,0.0,0.0,,Click Response,1_count,3.0,object-46,temp_dist_trial,31.0,t_m_10_1,travel_Miami,tanktop,7.0,unique,single,t_m_10_1.jpg,Travel,,,sub-48
Desktop or Laptop,Windows 10,AVG Secure Browser 137.0.0.0,1920x1080,1920x959,Temporal Distance Task,cb_07,80.0,temp_dist_trial,num_items,zn7si1,1.0,response,2_ITEM,1175.2000000014666,1162.7999999999886,1175.2000000014666,1175.2000000014666,1162.7999999999886,1175.2000000014666,1.0,0.0,0.0,,Click Response,2_count,5.0,object-49,temp_dist_trial,32.0,t_m_11_1,travel_Miami,collapsible beach chair,7.0,unique,paired,t_m_11_1.jpg,Travel,,,sub-48
Desktop or Laptop,Windows 10,AVG Secure Browser 137.0.0.0,1920x1080,1920x959,Temporal Distance Task,cb_07,80.0,temp_dist_trial,dist_items,qkpkxw,2.0,info,,3.2000000007683416,0.0,3.2000000007683416,3.2000000007683416,0.0,3.2000000007683416,1.0,0.0,0.0,,Slider,Slider,4.0,object-56,temp_dist_trial,32.0,t_m_11_1,travel_Miami,collapsible beach chair,7.0,unique,paired,t_m_11_1.jpg,Travel,,,sub-48
Desktop or Laptop,Windows 10,AVG Secure Browser 137.0.0.0,1920x1080,1920x959,Temporal Distance Task,cb_07,80.0,temp_dist_trial,dist_items,qkpkxw,2.0,continue,,2486.1000000030035,2474.9000000000233,2486.1000000030035,2486.1000000030035,2474.9000000000233,2486.1000000030035,1.0,0.0,0.0,,Click To Continue,Next button,7.0,object-60,temp_dist_trial,32.0,t_m_11_1,travel_Miami,collapsible beach chair,7.0,unique,paired,t_m_11_1.jpg,Travel,,,sub-48
Desktop or Laptop,Windows 10,AVG Secure Browser 137.0.0.0,1920x1080,1920x959,Temporal Distance Task,cb_07,80.0,temp_dist_trial,dist_items,qkpkxw,2.0,response,61,1379.0,2474.9000000000233,2491.4000000000233,1379.0,2474.9000000000233,2491.4000000000233,1.0,1112.4000000000233,0.0,,Slider,Slider,4.0,object-56,temp_dist_trial,32.0,t_m_11_1,travel_Miami,collapsible beach chair,7.0,unique,paired,t_m_11_1.jpg,Travel,,,sub-48
Desktop or Laptop,Windows 10,AVG Secure Browser 137.0.0.0,1920x1080,1920x959,Temporal Distance Task,cb_07,81.0,temp_dist_trial,num_items,zn7si1,1.0,response,2_ITEM,1043.0,1029.9000000000233,1043.0,1043.0,1029.9000000000233,1043.0,1.0,0.0,0.0,,Click Response,2_count,5.0,object-49,temp_dist_trial,33.0,t_s_08_1,travel_shared,hand lotion,7.0,competing,paired,t_s_08_1.jpg,Travel,,,sub-48
Desktop or Laptop,Windows 10,AVG Secure Browser 137.0.0.0,1920x1080,1920x959,Temporal Distance Task,cb_07,81.0,temp_dist_trial,dist_items,qkpkxw,2.0,info,,4.900000000023283,0.0,4.900000000023283,4.900000000023283,0.0,4.900000000023283,1.0,0.0,0.0,,Slider,Slider,4.0,object-56,temp_dist_trial,33.0,t_s_08_1,travel_shared,hand lotion,7.0,competing,paired,t_s_08_1.jpg,Travel,,,sub-48
Desktop or Laptop,Windows 10,AVG Secure Browser 137.0.0.0,1920x1080,1920x959,Temporal Distance Task,cb_07,81.0,temp_dist_trial,dist_items,qkpkxw,2.0,continue,,1499.2000000007683,1495.0,1499.2000000007683,1499.2000000007683,1495.0,1499.2000000007683,1.0,0.0,0.0,,Click To Continue,Next button,7.0,object-60,temp_dist_trial,33.0,t_s_08_1,travel_shared,hand lotion,7.0,competing,paired,t_s_08_1.jpg,Travel,,,sub-48
