Participant Device,Participant OS,Participant Browser,Participant Monitor Size,Participant Viewport Size,Task Name,Current Spreadsheet,Trial Number,Display,Screen,Screen ID,Screen Counter,Response Type,Response,Onset Time,Clock Time,Reaction Time,Absolute Onset Time,Absolute Clock Time,Absolute Reaction Time,Correct,Response Duration,Proportion,Tag,Component Name,Object Name,Object Number,Object ID,Spreadsheet: display,Spreadsheet: trial,Spreadsheet: stimulus_id,Spreadsheet: expected_goal,Spreadsheet: stimulus_name,Spreadsheet: c_group,Spreadsheet: condition,Spreadsheet: paired_status,Spreadsheet: stimulus_path,Spreadsheet: block_type,Manipulation: Spreadsheet,Store: enc_test_acc,sub_label
Desktop or Laptop,Windows 10,Firefox 140.0,2560x1440,2560x1440,Temporal Distance Task,,,,,,,info,BEGIN,,,,,,,,,,,,,,,,,,,,,,,,,$${counterbalance_group},,sub-71
Desktop or Laptop,Windows 10,Firefox 140.0,2560x1440,2560x1440,Temporal Distance Task,cb_04,1.0,temp_instructions,intro_screen,3tnme7,1.0,continue,,6073.2199999999975,6072.0999999999985,6073.2199999999975,6073.2199999999975,6072.0999999999985,6073.2199999999975,1.0,0.0,0.0,,Click To Continue,Continue Button,4.0,object-29,temp_instructions,,,Travel,,,,,,,$${counterbalance_group},,sub-71
Desktop or Laptop,Windows 10,Firefox 140.0,2560x1440,2560x1440,Temporal Distance Task,cb_04,1.0,temp_instructions,intro_screen_2,52v7ur,2.0,continue,,4590.120000000001,4587.6,4590.120000000001,4590.120000000001,4587.6,4590.120000000001,1.0,0.0,0.0,,Click To Continue,Continue Button,4.0,object-39,temp_instructions,,,Travel,,,,,,,$${counterbalance_group},,sub-71
Desktop or Laptop,Windows 10,Firefox 140.0,2560x1440,2560x1440,Temporal Distance Task,cb_04,1.0,temp_instructions,intro_screen_3,i7lvwx,3.0,continue,,4197.52,4195.459999999999,4197.52,4197.52,4195.459999999999,4197.52,1.0,0.0,0.0,,Click To Continue,Continue Button,4.0,object-67,temp_instructions,,,Travel,,,,,,,$${counterbalance_group},,sub-71
Desktop or Laptop,Windows 10,Firefox 140.0,2560x1440,2560x1440,Temporal Distance Task,cb_04,1.0,temp_instructions,test_q1,5ieqx1,4.0,response,choice_3,3787.860000000001,3782.400000000001,3787.860000000001,3787.860000000001,3782.400000000001,3787.860000000001,1.0,0.0,0.0,,Click Response,choice_3,5.0,object-345,temp_instructions,,,Travel,,,,,,,$${counterbalance_group},,sub-71
Desktop or Laptop,Windows 10,Firefox 140.0,2560x1440,2560x1440,Temporal Distance Task,cb_04,1.0,temp_instructions,score_corr,7ilvjr,5.0,continue,,790.6599999999999,789.0600000000012,790.6599999999999,790.6599999999999,789.0600000000012,790.6599999999999,1.0,0.0,0.0,,Click To Continue,Continue Button,3.0,object-23,temp_instructions,,,Travel,,,,,,,$${counterbalance_group},,sub-71
Desktop or Laptop,Windows 10,Firefox 140.0,2560x1440,2560x1440,Temporal Distance Task,cb_04,1.0,temp_eventStart,Screen 1,dgtyxe,1.0,continue,,2425.5999999999985,2420.859999999997,2425.5999999999985,2425.5999999999985,2420.859999999997,2425.5999999999985,1.0,0.0,0.0,,Click To Continue,Next Button,3.0,object-43,temp_eventStart,,,Travel,,,,,,,$${counterbalance_group},,sub-71
Desktop or Laptop,Windows 10,Firefox 140.0,2560x1440,2560x1440,Temporal Distance Task,cb_04,1.0,temp_dist_trial,num_items,zn7si1,1.0,response,2_ITEM,2235.7400000000016,2233.7800000000025,2235.7400000000016,2235.7400000000016,2233.7800000000025,2235.7400000000016,1.0,0.0,0.0,,Click Response,2_count,5.0,object-49,temp_dist_trial,1.0,t_s_13_1,travel_shared,contact lens case,4.0,competing,single,t_s_13_1.jpg,Travel,$${counterbalance_group},,sub-71
Desktop or Laptop,Windows 10,Firefox 140.0,2560x1440,2560x1440,Temporal Distance Task,cb_04,1.0,temp_dist_trial,dist_items,qkpkxw,2.0,info,,4.740000000001602,0.0,4.740000000001602,4.740000000001602,0.0,4.740000000001602,1.0,0.0,0.0,,Slider,Slider,4.0,object-56,temp_dist_trial,1.0,t_s_13_1,travel_shared,contact lens case,4.0,competing,single,t_s_13_1.jpg,Travel,$${counterbalance_group},,sub-71
Desktop or Laptop,Windows 10,Firefox 140.0,2560x1440,2560x1440,Temporal Distance Task,cb_04,1.0,temp_dist_trial,dist_items,qkpkxw,2.0,continue,,4807.740000000002,4804.780000000002,4807.740000000002,4807.740000000002,4804.780000000002,4807.740000000002,1.0,0.0,0.0,,Click To Continue,Next button,7.0,object-60,temp_dist_trial,1.0,t_s_13_1,travel_shared,contact lens case,4.0,competing,single,t_s_13_1.jpg,Travel,$${counterbalance_group},,sub-71
Desktop or Laptop,Windows 10,Firefox 140.0,2560x1440,2560x1440,Temporal Distance Task,cb_04,1.0,temp_dist_trial,dist_items,qkpkxw,2.0,response,100,1294.9600000000028,4804.780000000002,4808.740000000002,1294.9600000000028,4804.780000000002,4808.740000000002,1.0,3513.779999999999,0.0,,Slider,Slider,4.0,object-56,temp_dist_trial,1.0,t_s_13_1,travel_shared,contact lens case,4.0,competing,single,t_s_13_1.jpg,Travel,$${counterbalance_group},,sub-71
Desktop or Laptop,Windows 10,Firefox 140.0,2560x1440,2560x1440,Temporal Distance Task,cb_04,2.0,temp_dist_trial,num_items,zn7si1,1.0,response,2_ITEM,1568.9599999999994,1566.9400000000023,1568.9599999999994,1568.9599999999994,1566.9400000000023,1568.9599999999994,1.0,0.0,0.0,,Click Response,2_count,5.0,object-49,temp_dist_trial,2.0,t_i_05_1,travel_Iceland,hiking boots,4.0,unique,paired,t_i_05_1.jpg,Travel,$${counterbalance_group},,sub-71
Desktop or Laptop,Windows 10,Firefox 140.0,2560x1440,2560x1440,Temporal Distance Task,cb_04,2.0,temp_dist_trial,dist_items,qkpkxw,2.0,info,,4.8000000000029095,0.0,4.8000000000029095,4.8000000000029095,0.0,4.8000000000029095,1.0,0.0,0.0,,Slider,Slider,4.0,object-56,temp_dist_trial,2.0,t_i_05_1,travel_Iceland,hiking boots,4.0,unique,paired,t_i_05_1.jpg,Travel,$${counterbalance_group},,sub-71
Desktop or Laptop,Windows 10,Firefox 140.0,2560x1440,2560x1440,Temporal Distance Task,cb_04,2.0,temp_dist_trial,dist_items,qkpkxw,2.0,continue,,1837.9600000000064,1832.4800000000034,1837.9600000000064,1837.9600000000064,1832.4800000000034,1837.9600000000064,1.0,0.0,0.0,,Click To Continue,Next button,7.0,object-60,temp_dist_trial,2.0,t_i_05_1,travel_Iceland,hiking boots,4.0,unique,paired,t_i_05_1.jpg,Travel,$${counterbalance_group},,sub-71
Desktop or Laptop,Windows 10,Firefox 140.0,2560x1440,2560x1440,Temporal Distance Task,cb_04,2.0,temp_dist_trial,dist_items,qkpkxw,2.0,response,25,934.2400000000052,1832.4800000000034,1837.9600000000064,934.2400000000052,1832.4800000000034,1837.9600000000064,1.0,903.7200000000012,0.0,,Slider,Slider,4.0,object-56,temp_dist_trial,2.0,t_i_05_1,travel_Iceland,hiking boots,4.0,unique,paired,t_i_05_1.jpg,Travel,$${counterbalance_group},,sub-71
Desktop or Laptop,Windows 10,Firefox 140.0,2560x1440,2560x1440,Temporal Distance Task,cb_04,3.0,temp_dist_trial,num_items,zn7si1,1.0,response,2_ITEM,1302.3199999999995,1300.5,1302.3199999999995,1302.3199999999995,1300.5,1302.3199999999995,1.0,0.0,0.0,,Click Response,2_count,5.0,object-49,temp_dist_trial,3.0,t_s_07_1,travel_shared,phone charger cable,4.0,competing,paired,t_s_07_1.jpg,Travel,$${counterbalance_group},,sub-71
Desktop or Laptop,Windows 10,Firefox 140.0,2560x1440,2560x1440,Temporal Distance Task,cb_04,3.0,temp_dist_trial,dist_items,qkpkxw,2.0,info,,5.459999999999128,0.0,5.459999999999128,5.459999999999128,0.0,5.459999999999128,1.0,0.0,0.0,,Slider,Slider,4.0,object-56,temp_dist_trial,3.0,t_s_07_1,travel_shared,phone charger cable,4.0,competing,paired,t_s_07_1.jpg,Travel,$${counterbalance_group},,sub-71
Desktop or Laptop,Windows 10,Firefox 140.0,2560x1440,2560x1440,Temporal Distance Task,cb_04,3.0,temp_dist_trial,dist_items,qkpkxw,2.0,continue,,1458.5599999999977,1455.3999999999942,1458.5599999999977,1458.5599999999977,1455.3999999999942,1458.5599999999977,1.0,0.0,0.0,,Click To Continue,Next button,7.0,object-60,temp_dist_trial,3.0,t_s_07_1,travel_shared,phone charger cable,4.0,competing,paired,t_s_07_1.jpg,Travel,$${counterbalance_group},,sub-71
Desktop or Laptop,Windows 10,Firefox 140.0,2560x1440,2560x1440,Temporal Distance Task,cb_04,3.0,temp_dist_trial,dist_items,qkpkxw,2.0,response,16,799.9599999999991,1455.3999999999942,1459.5599999999977,799.9599999999991,1455.3999999999942,1459.5599999999977,1.0,659.5999999999984,0.0,,Slider,Slider,4.0,object-56,temp_dist_trial,3.0,t_s_07_1,travel_shared,phone charger cable,4.0,competing,paired,t_s_07_1.jpg,Travel,$${counterbalance_group},,sub-71
Desktop or Laptop,Windows 10,Firefox 140.0,2560x1440,2560x1440,Temporal Distance Task,cb_04,4.0,temp_dist_trial,num_items,zn7si1,1.0,response,1_ITEM,2534.1600000000035,2528.860000000001,2534.1600000000035,2534.1600000000035,2528.860000000001,2534.1600000000035,1.0,0.0,0.0,,Click Response,1_count,3.0,object-46,temp_dist_trial,4.0,t_m_12_1,travel_Miami,foldable pail and shovel,4.0,unique,paired,t_m_12_1.jpg,Travel,$${counterbalance_group},,sub-71
Desktop or Laptop,Windows 10,Firefox 140.0,2560x1440,2560x1440,Temporal Distance Task,cb_04,5.0,temp_dist_trial,num_items,zn7si1,1.0,response,num_miss,3000.920000000005,3000.920000000005,3000.920000000005,3000.920000000005,3000.920000000005,3000.920000000005,1.0,0.0,0.0,num_miss_tag,Time Limit,screen,0.0,screen,temp_dist_trial,5.0,t_s_04_1,travel_shared,instant camera,4.0,competing,single,t_s_04_1.jpg,Travel,$${counterbalance_group},,sub-71
Desktop or Laptop,Windows 10,Firefox 140.0,2560x1440,2560x1440,Temporal Distance Task,cb_04,6.0,temp_dist_trial,num_items,zn7si1,1.0,response,2_ITEM,1330.4000000000015,1327.8000000000031,1330.4000000000015,1330.4000000000015,1327.8000000000031,1330.4000000000015,1.0,0.0,0.0,,Click Response,2_count,5.0,object-49,temp_dist_trial,6.0,t_s_12_1,travel_shared,clear toiletry bag,4.0,competing,paired,t_s_12_1.jpg,Travel,$${counterbalance_group},,sub-71
Desktop or Laptop,Windows 10,Firefox 140.0,2560x1440,2560x1440,Temporal Distance Task,cb_04,6.0,temp_dist_trial,dist_items,qkpkxw,2.0,info,,3.3600000000005816,0.0,3.3600000000005816,3.3600000000005816,0.0,3.3600000000005816,1.0,0.0,0.0,,Slider,Slider,4.0,object-56,temp_dist_trial,6.0,t_s_12_1,travel_shared,clear toiletry bag,4.0,competing,paired,t_s_12_1.jpg,Travel,$${counterbalance_group},,sub-71
Desktop or Laptop,Windows 10,Firefox 140.0,2560x1440,2560x1440,Temporal Distance Task,cb_04,6.0,temp_dist_trial,dist_items,qkpkxw,2.0,continue,,2968.360000000001,2965.300000000003,2968.360000000001,2968.360000000001,2965.300000000003,2968.360000000001,1.0,0.0,0.0,,Click To Continue,Next button,7.0,object-60,temp_dist_trial,6.0,t_s_12_1,travel_shared,clear toiletry bag,4.0,competing,paired,t_s_12_1.jpg,Travel,$${counterbalance_group},,sub-71
Desktop or Laptop,Windows 10,Firefox 140.0,2560x1440,2560x1440,Temporal Distance Task,cb_04,6.0,temp_dist_trial,dist_items,qkpkxw,2.0,response,42,1221.3400000000038,2965.300000000003,2968.360000000001,1221.3400000000038,2965.300000000003,2968.360000000001,1.0,1747.0199999999966,0.0,,Slider,Slider,4.0,object-56,temp_dist_trial,6.0,t_s_12_1,travel_shared,clear toiletry bag,4.0,competing,paired,t_s_12_1.jpg,Travel,$${counterbalance_group},,sub-71
Desktop or Laptop,Windows 10,Firefox 140.0,2560x1440,2560x1440,Temporal Distance Task,cb_04,7.0,temp_dist_trial,num_items,zn7si1,1.0,response,2_ITEM,889.0599999999904,883.5799999999945,889.0599999999904,889.0599999999904,883.5799999999945,889.0599999999904,1.0,0.0,0.0,,Click Response,2_count,5.0,object-49,temp_dist_trial,7.0,t_s_16_1,travel_shared,chapstick,4.0,competing,paired,t_s_16_1.jpg,Travel,$${counterbalance_group},,sub-71
Desktop or Laptop,Windows 10,Firefox 140.0,2560x1440,2560x1440,Temporal Distance Task,cb_04,7.0,temp_dist_trial,dist_items,qkpkxw,2.0,info,,4.239999999997963,0.0,4.239999999997963,4.239999999997963,0.0,4.239999999997963,1.0,0.0,0.0,,Slider,Slider,4.0,object-56,temp_dist_trial,7.0,t_s_16_1,travel_shared,chapstick,4.0,competing,paired,t_s_16_1.jpg,Travel,$${counterbalance_group},,sub-71
Desktop or Laptop,Windows 10,Firefox 140.0,2560x1440,2560x1440,Temporal Distance Task,cb_04,7.0,temp_dist_trial,dist_items,qkpkxw,2.0,continue,,1907.9000000000005,1906.5,1907.9000000000005,1907.9000000000005,1906.5,1907.9000000000005,1.0,0.0,0.0,,Click To Continue,Next button,7.0,object-60,temp_dist_trial,7.0,t_s_16_1,travel_shared,chapstick,4.0,competing,paired,t_s_16_1.jpg,Travel,$${counterbalance_group},,sub-71
Desktop or Laptop,Windows 10,Firefox 140.0,2560x1440,2560x1440,Temporal Distance Task,cb_04,7.0,temp_dist_trial,dist_items,qkpkxw,2.0,response,31,1194.0,1906.5,1907.9000000000005,1194.0,1906.5,1907.9000000000005,1.0,713.9000000000017,0.0,,Slider,Slider,4.0,object-56,temp_dist_trial,7.0,t_s_16_1,travel_shared,chapstick,4.0,competing,paired,t_s_16_1.jpg,Travel,$${counterbalance_group},,sub-71
Desktop or Laptop,Windows 10,Firefox 140.0,2560x1440,2560x1440,Temporal Distance Task,cb_04,8.0,temp_dist_trial,num_items,zn7si1,1.0,response,1_ITEM,1543.1199999999951,1537.6599999999967,1543.1199999999951,1543.1199999999951,1537.6599999999967,1543.1199999999951,1.0,0.0,0.0,,Click Response,1_count,3.0,object-46,temp_dist_trial,8.0,t_s_21_1,travel_shared,umbrella,4.0,competing,paired,t_s_21_1.jpg,Travel,$${counterbalance_group},,sub-71
Desktop or Laptop,Windows 10,Firefox 140.0,2560x1440,2560x1440,Temporal Distance Task,cb_04,9.0,temp_dist_trial,num_items,zn7si1,1.0,response,2_ITEM,2221.799999999996,2216.3399999999965,2221.799999999996,2221.799999999996,2216.3399999999965,2221.799999999996,1.0,0.0,0.0,,Click Response,2_count,5.0,object-49,temp_dist_trial,9.0,t_s_03_1,travel_shared,portable charger,4.0,competing,paired,t_s_03_1.jpg,Travel,$${counterbalance_group},,sub-71
Desktop or Laptop,Windows 10,Firefox 140.0,2560x1440,2560x1440,Temporal Distance Task,cb_04,9.0,temp_dist_trial,dist_items,qkpkxw,2.0,info,,4.3000000000029095,0.0,4.3000000000029095,4.3000000000029095,0.0,4.3000000000029095,1.0,0.0,0.0,,Slider,Slider,4.0,object-56,temp_dist_trial,9.0,t_s_03_1,travel_shared,portable charger,4.0,competing,paired,t_s_03_1.jpg,Travel,$${counterbalance_group},,sub-71
Desktop or Laptop,Windows 10,Firefox 140.0,2560x1440,2560x1440,Temporal Distance Task,cb_04,9.0,temp_dist_trial,dist_items,qkpkxw,2.0,continue,,3197.300000000003,3193.4400000000023,3197.300000000003,3197.300000000003,3193.4400000000023,3197.300000000003,1.0,0.0,0.0,,Click To Continue,Next button,7.0,object-60,temp_dist_trial,9.0,t_s_03_1,travel_shared,portable charger,4.0,competing,paired,t_s_03_1.jpg,Travel,$${counterbalance_group},,sub-71
Desktop or Laptop,Windows 10,Firefox 140.0,2560x1440,2560x1440,Temporal Distance Task,cb_04,9.0,temp_dist_trial,dist_items,qkpkxw,2.0,response,74,878.4200000000055,3193.4400000000023,3198.300000000003,878.4200000000055,3193.4400000000023,3198.300000000003,1.0,2319.879999999997,0.0,,Slider,Slider,4.0,object-56,temp_dist_trial,9.0,t_s_03_1,travel_shared,portable charger,4.0,competing,paired,t_s_03_1.jpg,Travel,$${counterbalance_group},,sub-71
Desktop or Laptop,Windows 10,Firefox 140.0,2560x1440,2560x1440,Temporal Distance Task,cb_04,10.0,temp_dist_trial,num_items,zn7si1,1.0,response,1_ITEM,1339.8199999999995,1334.3600000000004,1339.8199999999995,1339.8199999999995,1334.3600000000004,1339.8199999999995,1.0,0.0,0.0,,Click Response,1_count,3.0,object-46,temp_dist_trial,10.0,t_i_19_1,travel_Iceland,rope,4.0,unique,single,t_i_19_1.jpg,Travel,$${counterbalance_group},,sub-71
Desktop or Laptop,Windows 10,Firefox 140.0,2560x1440,2560x1440,Temporal Distance Task,cb_04,11.0,temp_dist_trial,num_items,zn7si1,1.0,response,1_ITEM,1043.239999999998,1038.9000000000017,1043.239999999998,1043.239999999998,1038.9000000000017,1043.239999999998,1.0,0.0,0.0,,Click Response,1_count,3.0,object-46,temp_dist_trial,11.0,t_s_15_1,travel_shared,luggage tag,4.0,competing,single,t_s_15_1.jpg,Travel,$${counterbalance_group},,sub-71
Desktop or Laptop,Windows 10,Firefox 140.0,2560x1440,2560x1440,Temporal Distance Task,cb_04,12.0,temp_dist_trial,num_items,zn7si1,1.0,response,2_ITEM,1162.6800000000076,1157.2000000000044,1162.6800000000076,1162.6800000000076,1157.2000000000044,1162.6800000000076,1.0,0.0,0.0,,Click Response,2_count,5.0,object-49,temp_dist_trial,12.0,t_i_07_1,travel_Iceland,hiking backpack,4.0,unique,paired,t_i_07_1.jpg,Travel,$${counterbalance_group},,sub-71
Desktop or Laptop,Windows 10,Firefox 140.0,2560x1440,2560x1440,Temporal Distance Task,cb_04,12.0,temp_dist_trial,dist_items,qkpkxw,2.0,info,,7.519999999996799,0.0,7.519999999996799,7.519999999996799,0.0,7.519999999996799,1.0,0.0,0.0,,Slider,Slider,4.0,object-56,temp_dist_trial,12.0,t_i_07_1,travel_Iceland,hiking backpack,4.0,unique,paired,t_i_07_1.jpg,Travel,$${counterbalance_group},,sub-71
Desktop or Laptop,Windows 10,Firefox 140.0,2560x1440,2560x1440,Temporal Distance Task,cb_04,12.0,temp_dist_trial,dist_items,qkpkxw,2.0,continue,,1519.3199999999995,1515.8799999999976,1519.3199999999995,1519.3199999999995,1515.8799999999976,1519.3199999999995,1.0,0.0,0.0,,Click To Continue,Next button,7.0,object-60,temp_dist_trial,12.0,t_i_07_1,travel_Iceland,hiking backpack,4.0,unique,paired,t_i_07_1.jpg,Travel,$${counterbalance_group},,sub-71
Desktop or Laptop,Windows 10,Firefox 140.0,2560x1440,2560x1440,Temporal Distance Task,cb_04,12.0,temp_dist_trial,dist_items,qkpkxw,2.0,response,87,710.4200000000055,1515.8799999999976,1519.3199999999995,710.4200000000055,1515.8799999999976,1519.3199999999995,1.0,808.8999999999942,0.0,,Slider,Slider,4.0,object-56,temp_dist_trial,12.0,t_i_07_1,travel_Iceland,hiking backpack,4.0,unique,paired,t_i_07_1.jpg,Travel,$${counterbalance_group},,sub-71
Desktop or Laptop,Windows 10,Firefox 140.0,2560x1440,2560x1440,Temporal Distance Task,cb_04,13.0,temp_dist_trial,num_items,zn7si1,1.0,response,2_ITEM,1121.0799999999872,1115.6199999999953,1121.0799999999872,1121.0799999999872,1115.6199999999953,1121.0799999999872,1.0,0.0,0.0,,Click Response,2_count,5.0,object-49,temp_dist_trial,13.0,t_s_11_1,travel_shared,eye mask,4.0,competing,paired,t_s_11_1.jpg,Travel,$${counterbalance_group},,sub-71
Desktop or Laptop,Windows 10,Firefox 140.0,2560x1440,2560x1440,Temporal Distance Task,cb_04,13.0,temp_dist_trial,dist_items,qkpkxw,2.0,info,,5.460000000006403,0.0,5.460000000006403,5.460000000006403,0.0,5.460000000006403,1.0,0.0,0.0,,Slider,Slider,4.0,object-56,temp_dist_trial,13.0,t_s_11_1,travel_shared,eye mask,4.0,competing,paired,t_s_11_1.jpg,Travel,$${counterbalance_group},,sub-71
Desktop or Laptop,Windows 10,Firefox 140.0,2560x1440,2560x1440,Temporal Distance Task,cb_04,13.0,temp_dist_trial,dist_items,qkpkxw,2.0,continue,,3381.619999999996,3377.9400000000023,3381.619999999996,3381.619999999996,3377.9400000000023,3381.619999999996,1.0,0.0,0.0,,Click To Continue,Next button,7.0,object-60,temp_dist_trial,13.0,t_s_11_1,travel_shared,eye mask,4.0,competing,paired,t_s_11_1.jpg,Travel,$${counterbalance_group},,sub-71
Desktop or Laptop,Windows 10,Firefox 140.0,2560x1440,2560x1440,Temporal Distance Task,cb_04,13.0,temp_dist_trial,dist_items,qkpkxw,2.0,response,54,734.3399999999965,3377.9400000000023,3381.619999999996,734.3399999999965,3377.9400000000023,3381.619999999996,1.0,2647.2799999999993,0.0,,Slider,Slider,4.0,object-56,temp_dist_trial,13.0,t_s_11_1,travel_shared,eye mask,4.0,competing,paired,t_s_11_1.jpg,Travel,$${counterbalance_group},,sub-71
Desktop or Laptop,Windows 10,Firefox 140.0,2560x1440,2560x1440,Temporal Distance Task,cb_04,14.0,temp_dist_trial,num_items,zn7si1,1.0,response,2_ITEM,1537.679999999993,1533.8799999999899,1537.679999999993,1537.679999999993,1533.8799999999899,1537.679999999993,1.0,0.0,0.0,,Click Response,2_count,5.0,object-49,temp_dist_trial,14.0,t_m_19_1,travel_Miami,surfboard,4.0,unique,single,t_m_19_1.jpg,Travel,$${counterbalance_group},,sub-71
Desktop or Laptop,Windows 10,Firefox 140.0,2560x1440,2560x1440,Temporal Distance Task,cb_04,14.0,temp_dist_trial,dist_items,qkpkxw,2.0,info,,4.559999999997672,0.0,4.559999999997672,4.559999999997672,0.0,4.559999999997672,1.0,0.0,0.0,,Slider,Slider,4.0,object-56,temp_dist_trial,14.0,t_m_19_1,travel_Miami,surfboard,4.0,unique,single,t_m_19_1.jpg,Travel,$${counterbalance_group},,sub-71
Desktop or Laptop,Windows 10,Firefox 140.0,2560x1440,2560x1440,Temporal Distance Task,cb_04,14.0,temp_dist_trial,dist_items,qkpkxw,2.0,continue,,1495.5599999999977,1493.9199999999985,1495.5599999999977,1495.5599999999977,1493.9199999999985,1495.5599999999977,1.0,0.0,0.0,,Click To Continue,Next button,7.0,object-60,temp_dist_trial,14.0,t_m_19_1,travel_Miami,surfboard,4.0,unique,single,t_m_19_1.jpg,Travel,$${counterbalance_group},,sub-71
Desktop or Laptop,Windows 10,Firefox 140.0,2560x1440,2560x1440,Temporal Distance Task,cb_04,14.0,temp_dist_trial,dist_items,qkpkxw,2.0,response,25,870.8800000000048,1493.9199999999985,1496.5599999999977,870.8800000000048,1493.9199999999985,1496.5599999999977,1.0,625.679999999993,0.0,,Slider,Slider,4.0,object-56,temp_dist_trial,14.0,t_m_19_1,travel_Miami,surfboard,4.0,unique,single,t_m_19_1.jpg,Travel,$${counterbalance_group},,sub-71
Desktop or Laptop,Windows 10,Firefox 140.0,2560x1440,2560x1440,Temporal Distance Task,cb_04,15.0,temp_dist_trial,num_items,zn7si1,1.0,response,2_ITEM,1076.6199999999953,1071.1399999999994,1076.6199999999953,1076.6199999999953,1071.1399999999994,1076.6199999999953,1.0,0.0,0.0,,Click Response,2_count,5.0,object-49,temp_dist_trial,15.0,t_m_16_1,travel_Miami,flippers,4.0,unique,single,t_m_16_1.jpg,Travel,$${counterbalance_group},,sub-71
Desktop or Laptop,Windows 10,Firefox 140.0,2560x1440,2560x1440,Temporal Distance Task,cb_04,15.0,temp_dist_trial,dist_items,qkpkxw,2.0,info,,5.279999999998836,0.0,5.279999999998836,5.279999999998836,0.0,5.279999999998836,1.0,0.0,0.0,,Slider,Slider,4.0,object-56,temp_dist_trial,15.0,t_m_16_1,travel_Miami,flippers,4.0,unique,single,t_m_16_1.jpg,Travel,$${counterbalance_group},,sub-71
Desktop or Laptop,Windows 10,Firefox 140.0,2560x1440,2560x1440,Temporal Distance Task,cb_04,15.0,temp_dist_trial,dist_items,qkpkxw,2.0,continue,,1444.8800000000049,1439.4199999999985,1444.8800000000049,1444.8800000000049,1439.4199999999985,1444.8800000000049,1.0,0.0,0.0,,Click To Continue,Next button,7.0,object-60,temp_dist_trial,15.0,t_m_16_1,travel_Miami,flippers,4.0,unique,single,t_m_16_1.jpg,Travel,$${counterbalance_group},,sub-71
Desktop or Laptop,Windows 10,Firefox 140.0,2560x1440,2560x1440,Temporal Distance Task,cb_04,15.0,temp_dist_trial,dist_items,qkpkxw,2.0,response,86,745.7599999999948,1439.4199999999985,1444.8800000000049,745.7599999999948,1439.4199999999985,1444.8800000000049,1.0,699.1200000000099,0.0,,Slider,Slider,4.0,object-56,temp_dist_trial,15.0,t_m_16_1,travel_Miami,flippers,4.0,unique,single,t_m_16_1.jpg,Travel,$${counterbalance_group},,sub-71
Desktop or Laptop,Windows 10,Firefox 140.0,2560x1440,2560x1440,Temporal Distance Task,cb_04,16.0,temp_dist_trial,num_items,zn7si1,1.0,response,2_ITEM,904.8199999999923,899.3399999999965,904.8199999999923,904.8199999999923,899.3399999999965,904.8199999999923,1.0,0.0,0.0,,Click Response,2_count,5.0,object-49,temp_dist_trial,16.0,t_m_01_1,travel_Miami,sandals,4.0,unique,paired,t_m_01_1.jpg,Travel,$${counterbalance_group},,sub-71
Desktop or Laptop,Windows 10,Firefox 140.0,2560x1440,2560x1440,Temporal Distance Task,cb_04,16.0,temp_dist_trial,dist_items,qkpkxw,2.0,info,,5.240000000005238,0.0,5.240000000005238,5.240000000005238,0.0,5.240000000005238,1.0,0.0,0.0,,Slider,Slider,4.0,object-56,temp_dist_trial,16.0,t_m_01_1,travel_Miami,sandals,4.0,unique,paired,t_m_01_1.jpg,Travel,$${counterbalance_group},,sub-71
Desktop or Laptop,Windows 10,Firefox 140.0,2560x1440,2560x1440,Temporal Distance Task,cb_04,16.0,temp_dist_trial,dist_items,qkpkxw,2.0,continue,,1437.2400000000052,1433.7000000000116,1437.2400000000052,1437.2400000000052,1433.7000000000116,1437.2400000000052,1.0,0.0,0.0,,Click To Continue,Next button,7.0,object-60,temp_dist_trial,16.0,t_m_01_1,travel_Miami,sandals,4.0,unique,paired,t_m_01_1.jpg,Travel,$${counterbalance_group},,sub-71
Desktop or Laptop,Windows 10,Firefox 140.0,2560x1440,2560x1440,Temporal Distance Task,cb_04,16.0,temp_dist_trial,dist_items,qkpkxw,2.0,response,86,644.7400000000052,1433.7000000000116,1437.2400000000052,644.7400000000052,1433.7000000000116,1437.2400000000052,1.0,792.5,0.0,,Slider,Slider,4.0,object-56,temp_dist_trial,16.0,t_m_01_1,travel_Miami,sandals,4.0,unique,paired,t_m_01_1.jpg,Travel,$${counterbalance_group},,sub-71
Desktop or Laptop,Windows 10,Firefox 140.0,2560x1440,2560x1440,Temporal Distance Task,cb_04,17.0,temp_dist_trial,num_items,zn7si1,1.0,response,1_ITEM,1337.5399999999934,1332.8399999999965,1337.5399999999934,1337.5399999999934,1332.8399999999965,1337.5399999999934,1.0,0.0,0.0,,Click Response,1_count,3.0,object-46,temp_dist_trial,17.0,t_s_22_1,travel_shared,belt,4.0,competing,paired,t_s_22_1.jpg,Travel,$${counterbalance_group},,sub-71
Desktop or Laptop,Windows 10,Firefox 140.0,2560x1440,2560x1440,Temporal Distance Task,cb_04,18.0,temp_dist_trial,num_items,zn7si1,1.0,response,2_ITEM,1037.0,1033.5399999999936,1037.0,1037.0,1033.5399999999936,1037.0,1.0,0.0,0.0,,Click Response,2_count,5.0,object-49,temp_dist_trial,18.0,t_s_24_1,travel_shared,ear plugs,4.0,competing,single,t_s_24_1.jpg,Travel,$${counterbalance_group},,sub-71
Desktop or Laptop,Windows 10,Firefox 140.0,2560x1440,2560x1440,Temporal Distance Task,cb_04,18.0,temp_dist_trial,dist_items,qkpkxw,2.0,info,,5.139999999999418,0.0,5.139999999999418,5.139999999999418,0.0,5.139999999999418,1.0,0.0,0.0,,Slider,Slider,4.0,object-56,temp_dist_trial,18.0,t_s_24_1,travel_shared,ear plugs,4.0,competing,single,t_s_24_1.jpg,Travel,$${counterbalance_group},,sub-71
Desktop or Laptop,Windows 10,Firefox 140.0,2560x1440,2560x1440,Temporal Distance Task,cb_04,18.0,temp_dist_trial,dist_items,qkpkxw,2.0,continue,,1421.1399999999994,1417.8999999999942,1421.1399999999994,1421.1399999999994,1417.8999999999942,1421.1399999999994,1.0,0.0,0.0,,Click To Continue,Next button,7.0,object-60,temp_dist_trial,18.0,t_s_24_1,travel_shared,ear plugs,4.0,competing,single,t_s_24_1.jpg,Travel,$${counterbalance_group},,sub-71
Desktop or Laptop,Windows 10,Firefox 140.0,2560x1440,2560x1440,Temporal Distance Task,cb_04,18.0,temp_dist_trial,dist_items,qkpkxw,2.0,response,36,739.6600000000035,1417.8999999999942,1422.1399999999994,739.6600000000035,1417.8999999999942,1422.1399999999994,1.0,682.4799999999959,0.0,,Slider,Slider,4.0,object-56,temp_dist_trial,18.0,t_s_24_1,travel_shared,ear plugs,4.0,competing,single,t_s_24_1.jpg,Travel,$${counterbalance_group},,sub-71
Desktop or Laptop,Windows 10,Firefox 140.0,2560x1440,2560x1440,Temporal Distance Task,cb_04,19.0,temp_dist_trial,num_items,zn7si1,1.0,response,1_ITEM,1168.2400000000052,1165.340000000011,1168.2400000000052,1168.2400000000052,1165.340000000011,1168.2400000000052,1.0,0.0,0.0,,Click Response,1_count,3.0,object-46,temp_dist_trial,19.0,t_i_08_1,travel_Iceland,thick socks,4.0,unique,single,t_i_08_1.jpg,Travel,$${counterbalance_group},,sub-71
Desktop or Laptop,Windows 10,Firefox 140.0,2560x1440,2560x1440,Temporal Distance Task,cb_04,20.0,temp_dist_trial,num_items,zn7si1,1.0,response,1_ITEM,1114.3800000000047,1110.3800000000047,1114.3800000000047,1114.3800000000047,1110.3800000000047,1114.3800000000047,1.0,0.0,0.0,,Click Response,1_count,3.0,object-46,temp_dist_trial,20.0,t_i_03_1,travel_Iceland,winter jacket,4.0,unique,paired,t_i_03_1.jpg,Travel,$${counterbalance_group},,sub-71
Desktop or Laptop,Windows 10,Firefox 140.0,2560x1440,2560x1440,Temporal Distance Task,cb_04,21.0,temp_dist_trial,num_items,zn7si1,1.0,response,2_ITEM,1170.7400000000052,1167.12000000001,1170.7400000000052,1170.7400000000052,1167.12000000001,1170.7400000000052,1.0,0.0,0.0,,Click Response,2_count,5.0,object-49,temp_dist_trial,21.0,t_s_09_1,travel_shared,wallet,4.0,competing,paired,t_s_09_1.jpg,Travel,$${counterbalance_group},,sub-71
Desktop or Laptop,Windows 10,Firefox 140.0,2560x1440,2560x1440,Temporal Distance Task,cb_04,21.0,temp_dist_trial,dist_items,qkpkxw,2.0,info,,3.3600000000005816,0.0,3.3600000000005816,3.3600000000005816,0.0,3.3600000000005816,1.0,0.0,0.0,,Slider,Slider,4.0,object-56,temp_dist_trial,21.0,t_s_09_1,travel_shared,wallet,4.0,competing,paired,t_s_09_1.jpg,Travel,$${counterbalance_group},,sub-71
Desktop or Laptop,Windows 10,Firefox 140.0,2560x1440,2560x1440,Temporal Distance Task,cb_04,21.0,temp_dist_trial,dist_items,qkpkxw,2.0,continue,,1645.3600000000006,1642.9400000000023,1645.3600000000006,1645.3600000000006,1642.9400000000023,1645.3600000000006,1.0,0.0,0.0,,Click To Continue,Next button,7.0,object-60,temp_dist_trial,21.0,t_s_09_1,travel_shared,wallet,4.0,competing,paired,t_s_09_1.jpg,Travel,$${counterbalance_group},,sub-71
Desktop or Laptop,Windows 10,Firefox 140.0,2560x1440,2560x1440,Temporal Distance Task,cb_04,21.0,temp_dist_trial,dist_items,qkpkxw,2.0,response,87,661.1999999999971,1642.9400000000023,1645.3600000000006,661.1999999999971,1642.9400000000023,1645.3600000000006,1.0,984.1600000000036,0.0,,Slider,Slider,4.0,object-56,temp_dist_trial,21.0,t_s_09_1,travel_shared,wallet,4.0,competing,paired,t_s_09_1.jpg,Travel,$${counterbalance_group},,sub-71
Desktop or Laptop,Windows 10,Firefox 140.0,2560x1440,2560x1440,Temporal Distance Task,cb_04,22.0,temp_dist_trial,num_items,zn7si1,1.0,response,2_ITEM,1786.4199999999985,1784.3199999999924,1786.4199999999985,1786.4199999999985,1784.3199999999924,1786.4199999999985,1.0,0.0,0.0,,Click Response,2_count,5.0,object-49,temp_dist_trial,22.0,t_s_20_1,travel_shared,travel pill case,4.0,competing,paired,t_s_20_1.jpg,Travel,$${counterbalance_group},,sub-71
Desktop or Laptop,Windows 10,Firefox 140.0,2560x1440,2560x1440,Temporal Distance Task,cb_04,22.0,temp_dist_trial,dist_items,qkpkxw,2.0,info,,3.8600000000005816,0.0,3.8600000000005816,3.8600000000005816,0.0,3.8600000000005816,1.0,0.0,0.0,,Slider,Slider,4.0,object-56,temp_dist_trial,22.0,t_s_20_1,travel_shared,travel pill case,4.0,competing,paired,t_s_20_1.jpg,Travel,$${counterbalance_group},,sub-71
Desktop or Laptop,Windows 10,Firefox 140.0,2560x1440,2560x1440,Temporal Distance Task,cb_04,22.0,temp_dist_trial,dist_items,qkpkxw,2.0,continue,,1197.8600000000004,1195.1199999999953,1197.8600000000004,1197.8600000000004,1195.1199999999953,1197.8600000000004,1.0,0.0,0.0,,Click To Continue,Next button,7.0,object-60,temp_dist_trial,22.0,t_s_20_1,travel_shared,travel pill case,4.0,competing,paired,t_s_20_1.jpg,Travel,$${counterbalance_group},,sub-71
Desktop or Laptop,Windows 10,Firefox 140.0,2560x1440,2560x1440,Temporal Distance Task,cb_04,22.0,temp_dist_trial,dist_items,qkpkxw,2.0,response,54,676.4199999999983,1195.1199999999953,1197.8600000000004,676.4199999999983,1195.1199999999953,1197.8600000000004,1.0,521.4400000000023,0.0,,Slider,Slider,4.0,object-56,temp_dist_trial,22.0,t_s_20_1,travel_shared,travel pill case,4.0,competing,paired,t_s_20_1.jpg,Travel,$${counterbalance_group},,sub-71
Desktop or Laptop,Windows 10,Firefox 140.0,2560x1440,2560x1440,Temporal Distance Task,cb_04,23.0,temp_dist_trial,num_items,zn7si1,1.0,response,2_ITEM,1186.7400000000052,1181.340000000011,1186.7400000000052,1186.7400000000052,1181.340000000011,1186.7400000000052,1.0,0.0,0.0,,Click Response,2_count,5.0,object-49,temp_dist_trial,23.0,t_s_08_1,travel_shared,hand lotion,4.0,competing,paired,t_s_08_1.jpg,Travel,$${counterbalance_group},,sub-71
Desktop or Laptop,Windows 10,Firefox 140.0,2560x1440,2560x1440,Temporal Distance Task,cb_04,23.0,temp_dist_trial,dist_items,qkpkxw,2.0,info,,5.4799999999959255,0.0,5.4799999999959255,5.4799999999959255,0.0,5.4799999999959255,1.0,0.0,0.0,,Slider,Slider,4.0,object-56,temp_dist_trial,23.0,t_s_08_1,travel_shared,hand lotion,4.0,competing,paired,t_s_08_1.jpg,Travel,$${counterbalance_group},,sub-71
Desktop or Laptop,Windows 10,Firefox 140.0,2560x1440,2560x1440,Temporal Distance Task,cb_04,23.0,temp_dist_trial,dist_items,qkpkxw,2.0,continue,,980.1999999999972,978.6399999999994,980.1999999999972,980.1999999999972,978.6399999999994,980.1999999999972,1.0,0.0,0.0,,Click To Continue,Next button,7.0,object-60,temp_dist_trial,23.0,t_s_08_1,travel_shared,hand lotion,4.0,competing,paired,t_s_08_1.jpg,Travel,$${counterbalance_group},,sub-71
Desktop or Laptop,Windows 10,Firefox 140.0,2560x1440,2560x1440,Temporal Distance Task,cb_04,23.0,temp_dist_trial,dist_items,qkpkxw,2.0,response,62,467.4199999999983,978.6399999999994,980.1999999999972,467.4199999999983,978.6399999999994,980.1999999999972,1.0,512.7799999999988,0.0,,Slider,Slider,4.0,object-56,temp_dist_trial,23.0,t_s_08_1,travel_shared,hand lotion,4.0,competing,paired,t_s_08_1.jpg,Travel,$${counterbalance_group},,sub-71
Desktop or Laptop,Windows 10,Firefox 140.0,2560x1440,2560x1440,Temporal Distance Task,cb_04,24.0,temp_dist_trial,num_items,zn7si1,1.0,response,1_ITEM,1857.5599999999977,1855.959999999992,1857.5599999999977,1857.5599999999977,1855.959999999992,1857.5599999999977,1.0,0.0,0.0,,Click Response,1_count,3.0,object-46,temp_dist_trial,24.0,t_m_18_1,travel_Miami,waterproof tote,4.0,unique,single,t_m_18_1.jpg,Travel,$${counterbalance_group},,sub-71
Desktop or Laptop,Windows 10,Firefox 140.0,2560x1440,2560x1440,Temporal Distance Task,cb_04,25.0,temp_dist_trial,num_items,zn7si1,1.0,response,2_ITEM,1632.320000000007,1627.3000000000034,1632.320000000007,1632.320000000007,1627.3000000000034,1632.320000000007,1.0,0.0,0.0,,Click Response,2_count,5.0,object-49,temp_dist_trial,25.0,t_s_05_1,travel_shared,neck pillow,4.0,competing,paired,t_s_05_1.jpg,Travel,$${counterbalance_group},,sub-71
Desktop or Laptop,Windows 10,Firefox 140.0,2560x1440,2560x1440,Temporal Distance Task,cb_04,25.0,temp_dist_trial,dist_items,qkpkxw,2.0,info,,3.7799999999988367,0.0,3.7799999999988367,3.7799999999988367,0.0,3.7799999999988367,1.0,0.0,0.0,,Slider,Slider,4.0,object-56,temp_dist_trial,25.0,t_s_05_1,travel_shared,neck pillow,4.0,competing,paired,t_s_05_1.jpg,Travel,$${counterbalance_group},,sub-71
Desktop or Laptop,Windows 10,Firefox 140.0,2560x1440,2560x1440,Temporal Distance Task,cb_04,25.0,temp_dist_trial,dist_items,qkpkxw,2.0,continue,,1120.9800000000105,1115.520000000004,1120.9800000000105,1120.9800000000105,1115.520000000004,1120.9800000000105,1.0,0.0,0.0,,Click To Continue,Next button,7.0,object-60,temp_dist_trial,25.0,t_s_05_1,travel_shared,neck pillow,4.0,competing,paired,t_s_05_1.jpg,Travel,$${counterbalance_group},,sub-71
Desktop or Laptop,Windows 10,Firefox 140.0,2560x1440,2560x1440,Temporal Distance Task,cb_04,25.0,temp_dist_trial,dist_items,qkpkxw,2.0,response,39,544.2400000000052,1115.520000000004,1120.9800000000105,544.2400000000052,1115.520000000004,1120.9800000000105,1.0,576.7400000000052,0.0,,Slider,Slider,4.0,object-56,temp_dist_trial,25.0,t_s_05_1,travel_shared,neck pillow,4.0,competing,paired,t_s_05_1.jpg,Travel,$${counterbalance_group},,sub-71
Desktop or Laptop,Windows 10,Firefox 140.0,2560x1440,2560x1440,Temporal Distance Task,cb_04,26.0,temp_dist_trial,num_items,zn7si1,1.0,response,1_ITEM,1159.2599999999948,1155.2200000000012,1159.2599999999948,1159.2599999999948,1155.2200000000012,1159.2599999999948,1.0,0.0,0.0,,Click Response,1_count,3.0,object-46,temp_dist_trial,26.0,t_s_23_1,travel_shared,ball cap,4.0,competing,single,t_s_23_1.jpg,Travel,$${counterbalance_group},,sub-71
Desktop or Laptop,Windows 10,Firefox 140.0,2560x1440,2560x1440,Temporal Distance Task,cb_04,27.0,temp_dist_trial,num_items,zn7si1,1.0,response,1_ITEM,770.7200000000012,766.8600000000006,770.7200000000012,770.7200000000012,766.8600000000006,770.7200000000012,1.0,0.0,0.0,,Click Response,1_count,3.0,object-46,temp_dist_trial,27.0,t_i_20_1,travel_Iceland,lantern,4.0,unique,single,t_i_20_1.jpg,Travel,$${counterbalance_group},,sub-71
Desktop or Laptop,Windows 10,Firefox 140.0,2560x1440,2560x1440,Temporal Distance Task,cb_04,28.0,temp_dist_trial,num_items,zn7si1,1.0,response,2_ITEM,1022.3600000000006,1016.8800000000048,1022.3600000000006,1022.3600000000006,1016.8800000000048,1022.3600000000006,1.0,0.0,0.0,,Click Response,2_count,5.0,object-49,temp_dist_trial,28.0,t_i_02_1,travel_Iceland,scarf,4.0,unique,paired,t_i_02_1.jpg,Travel,$${counterbalance_group},,sub-71
Desktop or Laptop,Windows 10,Firefox 140.0,2560x1440,2560x1440,Temporal Distance Task,cb_04,28.0,temp_dist_trial,dist_items,qkpkxw,2.0,info,,3.4600000000064037,0.0,3.4600000000064037,3.4600000000064037,0.0,3.4600000000064037,1.0,0.0,0.0,,Slider,Slider,4.0,object-56,temp_dist_trial,28.0,t_i_02_1,travel_Iceland,scarf,4.0,unique,paired,t_i_02_1.jpg,Travel,$${counterbalance_group},,sub-71
Desktop or Laptop,Windows 10,Firefox 140.0,2560x1440,2560x1440,Temporal Distance Task,cb_04,28.0,temp_dist_trial,dist_items,qkpkxw,2.0,continue,,1307.4600000000066,1303.8800000000047,1307.4600000000066,1307.4600000000066,1303.8800000000047,1307.4600000000066,1.0,0.0,0.0,,Click To Continue,Next button,7.0,object-60,temp_dist_trial,28.0,t_i_02_1,travel_Iceland,scarf,4.0,unique,paired,t_i_02_1.jpg,Travel,$${counterbalance_group},,sub-71
Desktop or Laptop,Windows 10,Firefox 140.0,2560x1440,2560x1440,Temporal Distance Task,cb_04,28.0,temp_dist_trial,dist_items,qkpkxw,2.0,response,68,732.2800000000134,1303.8800000000047,1307.4600000000066,732.2800000000134,1303.8800000000047,1307.4600000000066,1.0,575.179999999993,0.0,,Slider,Slider,4.0,object-56,temp_dist_trial,28.0,t_i_02_1,travel_Iceland,scarf,4.0,unique,paired,t_i_02_1.jpg,Travel,$${counterbalance_group},,sub-71
Desktop or Laptop,Windows 10,Firefox 140.0,2560x1440,2560x1440,Temporal Distance Task,cb_04,29.0,temp_dist_trial,num_items,zn7si1,1.0,response,1_ITEM,1225.5800000000015,1223.9000000000087,1225.5800000000015,1225.5800000000015,1223.9000000000087,1225.5800000000015,1.0,0.0,0.0,,Click Response,1_count,3.0,object-46,temp_dist_trial,29.0,t_s_10_1,travel_shared,luggage lock,4.0,competing,single,t_s_10_1.jpg,Travel,$${counterbalance_group},,sub-71
Desktop or Laptop,Windows 10,Firefox 140.0,2560x1440,2560x1440,Temporal Distance Task,cb_04,30.0,temp_dist_trial,num_items,zn7si1,1.0,response,1_ITEM,2066.62000000001,2061.1600000000035,2066.62000000001,2066.62000000001,2061.1600000000035,2066.62000000001,1.0,0.0,0.0,,Click Response,1_count,3.0,object-46,temp_dist_trial,30.0,t_m_10_1,travel_Miami,tanktop,4.0,unique,paired,t_m_10_1.jpg,Travel,$${counterbalance_group},,sub-71
Desktop or Laptop,Windows 10,Firefox 140.0,2560x1440,2560x1440,Temporal Distance Task,cb_04,31.0,temp_dist_trial,num_items,zn7si1,1.0,response,1_ITEM,2007.1199999999953,2006.5199999999893,2007.1199999999953,2007.1199999999953,2006.5199999999893,2007.1199999999953,1.0,0.0,0.0,,Click Response,1_count,3.0,object-46,temp_dist_trial,31.0,t_i_13_1,travel_Iceland,sleeping bag,4.0,unique,paired,t_i_13_1.jpg,Travel,$${counterbalance_group},,sub-71
Desktop or Laptop,Windows 10,Firefox 140.0,2560x1440,2560x1440,Temporal Distance Task,cb_04,32.0,temp_dist_trial,num_items,zn7si1,1.0,response,1_ITEM,1387.7200000000012,1383.2400000000052,1387.7200000000012,1387.7200000000012,1383.2400000000052,1387.7200000000012,1.0,0.0,0.0,,Click Response,1_count,3.0,object-46,temp_dist_trial,32.0,t_i_10_1,travel_Iceland,trekking poles,4.0,unique,single,t_i_10_1.jpg,Travel,$${counterbalance_group},,sub-71
Desktop or Laptop,Windows 10,Firefox 140.0,2560x1440,2560x1440,Temporal Distance Task,cb_04,33.0,temp_dist_trial,num_items,zn7si1,1.0,response,2_ITEM,1225.2200000000012,1221.7400000000052,1225.2200000000012,1225.2200000000012,1221.7400000000052,1225.2200000000012,1.0,0.0,0.0,,Click Response,2_count,5.0,object-49,temp_dist_trial,33.0,t_i_17_1,travel_Iceland,binoculars,4.0,unique,paired,t_i_17_1.jpg,Travel,$${counterbalance_group},,sub-71
Desktop or Laptop,Windows 10,Firefox 140.0,2560x1440,2560x1440,Temporal Distance Task,cb_04,33.0,temp_dist_trial,dist_items,qkpkxw,2.0,info,,3.320000000006985,0.0,3.320000000006985,3.320000000006985,0.0,3.320000000006985,1.0,0.0,0.0,,Slider,Slider,4.0,object-56,temp_dist_trial,33.0,t_i_17_1,travel_Iceland,binoculars,4.0,unique,paired,t_i_17_1.jpg,Travel,$${counterbalance_group},,sub-71
Desktop or Laptop,Windows 10,Firefox 140.0,2560x1440,2560x1440,Temporal Distance Task,cb_04,33.0,temp_dist_trial,dist_items,qkpkxw,2.0,continue,,1238.2600000000239,1232.7800000000134,1238.2600000000239,1238.2600000000239,1232.7800000000134,1238.2600000000239,1.0,0.0,0.0,,Click To Continue,Next button,7.0,object-60,temp_dist_trial,33.0,t_i_17_1,travel_Iceland,binoculars,4.0,unique,paired,t_i_17_1.jpg,Travel,$${counterbalance_group},,sub-71
Desktop or Laptop,Windows 10,Firefox 140.0,2560x1440,2560x1440,Temporal Distance Task,cb_04,33.0,temp_dist_trial,dist_items,qkpkxw,2.0,response,86,566.1400000000141,1232.7800000000134,1238.2600000000239,566.1400000000141,1232.7800000000134,1238.2600000000239,1.0,672.1200000000099,0.0,,Slider,Slider,4.0,object-56,temp_dist_trial,33.0,t_i_17_1,travel_Iceland,binoculars,4.0,unique,paired,t_i_17_1.jpg,Travel,$${counterbalance_group},,sub-71
Desktop or Laptop,Windows 10,Firefox 140.0,2560x1440,2560x1440,Temporal Distance Task,cb_04,34.0,temp_dist_trial,num_items,zn7si1,1.0,response,2_ITEM,1114.5399999999936,1110.4199999999983,1114.5399999999936,1114.5399999999936,1110.4199999999983,1114.5399999999936,1.0,0.0,0.0,,Click Response,2_count,5.0,object-49,temp_dist_trial,34.0,t_s_18_1,travel_shared,first aid kit,4.0,competing,paired,t_s_18_1.jpg,Travel,$${counterbalance_group},,sub-71
Desktop or Laptop,Windows 10,Firefox 140.0,2560x1440,2560x1440,Temporal Distance Task,cb_04,34.0,temp_dist_trial,dist_items,qkpkxw,2.0,info,,2.8800000000046566,0.0,2.8800000000046566,2.8800000000046566,0.0,2.8800000000046566,1.0,0.0,0.0,,Slider,Slider,4.0,object-56,temp_dist_trial,34.0,t_s_18_1,travel_shared,first aid kit,4.0,competing,paired,t_s_18_1.jpg,Travel,$${counterbalance_group},,sub-71
Desktop or Laptop,Windows 10,Firefox 140.0,2560x1440,2560x1440,Temporal Distance Task,cb_04,34.0,temp_dist_trial,dist_items,qkpkxw,2.0,continue,,1371.3600000000156,1365.9000000000087,1371.3600000000156,1371.3600000000156,1365.9000000000087,1371.3600000000156,1.0,0.0,0.0,,Click To Continue,Next button,7.0,object-60,temp_dist_trial,34.0,t_s_18_1,travel_shared,first aid kit,4.0,competing,paired,t_s_18_1.jpg,Travel,$${counterbalance_group},,sub-71
Desktop or Laptop,Windows 10,Firefox 140.0,2560x1440,2560x1440,Temporal Distance Task,cb_04,34.0,temp_dist_trial,dist_items,qkpkxw,2.0,response,40,844.2600000000093,1365.9000000000087,1371.3600000000156,844.2600000000093,1365.9000000000087,1371.3600000000156,1.0,527.1000000000058,0.0,,Slider,Slider,4.0,object-56,temp_dist_trial,34.0,t_s_18_1,travel_shared,first aid kit,4.0,competing,paired,t_s_18_1.jpg,Travel,$${counterbalance_group},,sub-71
Desktop or Laptop,Windows 10,Firefox 140.0,2560x1440,2560x1440,Temporal Distance Task,cb_04,35.0,temp_dist_trial,num_items,zn7si1,1.0,response,2_ITEM,1007.979999999996,1006.4599999999921,1007.979999999996,1007.979999999996,1006.4599999999921,1007.979999999996,1.0,0.0,0.0,,Click Response,2_count,5.0,object-49,temp_dist_trial,35.0,t_s_06_1,travel_shared,luggage,4.0,competing,paired,t_s_06_1.jpg,Travel,$${counterbalance_group},,sub-71
Desktop or Laptop,Windows 10,Firefox 140.0,2560x1440,2560x1440,Temporal Distance Task,cb_04,35.0,temp_dist_trial,dist_items,qkpkxw,2.0,info,,3.3000000000029104,0.0,3.3000000000029104,3.3000000000029104,0.0,3.3000000000029104,1.0,0.0,0.0,,Slider,Slider,4.0,object-56,temp_dist_trial,35.0,t_s_06_1,travel_shared,luggage,4.0,competing,paired,t_s_06_1.jpg,Travel,$${counterbalance_group},,sub-71
Desktop or Laptop,Windows 10,Firefox 140.0,2560x1440,2560x1440,Temporal Distance Task,cb_04,35.0,temp_dist_trial,dist_items,qkpkxw,2.0,continue,,962.3000000000028,960.3600000000006,962.3000000000028,962.3000000000028,960.3600000000006,962.3000000000028,1.0,0.0,0.0,,Click To Continue,Next button,7.0,object-60,temp_dist_trial,35.0,t_s_06_1,travel_shared,luggage,4.0,competing,paired,t_s_06_1.jpg,Travel,$${counterbalance_group},,sub-71
Desktop or Laptop,Windows 10,Firefox 140.0,2560x1440,2560x1440,Temporal Distance Task,cb_04,35.0,temp_dist_trial,dist_items,qkpkxw,2.0,response,63,421.8600000000006,960.3600000000006,962.3000000000028,421.8600000000006,960.3600000000006,962.3000000000028,1.0,540.4400000000023,0.0,,Slider,Slider,4.0,object-56,temp_dist_trial,35.0,t_s_06_1,travel_shared,luggage,4.0,competing,paired,t_s_06_1.jpg,Travel,$${counterbalance_group},,sub-71
Desktop or Laptop,Windows 10,Firefox 140.0,2560x1440,2560x1440,Temporal Distance Task,cb_04,36.0,temp_dist_trial,num_items,zn7si1,1.0,response,2_ITEM,905.9400000000024,900.5200000000041,905.9400000000024,905.9400000000024,900.5200000000041,905.9400000000024,1.0,0.0,0.0,,Click Response,2_count,5.0,object-49,temp_dist_trial,36.0,t_m_02_1,travel_Miami,t-shirt,4.0,unique,paired,t_m_02_1.jpg,Travel,$${counterbalance_group},,sub-71
Desktop or Laptop,Windows 10,Firefox 140.0,2560x1440,2560x1440,Temporal Distance Task,cb_04,36.0,temp_dist_trial,dist_items,qkpkxw,2.0,info,,3.1600000000034925,0.0,3.1600000000034925,3.1600000000034925,0.0,3.1600000000034925,1.0,0.0,0.0,,Slider,Slider,4.0,object-56,temp_dist_trial,36.0,t_m_02_1,travel_Miami,t-shirt,4.0,unique,paired,t_m_02_1.jpg,Travel,$${counterbalance_group},,sub-71
Desktop or Laptop,Windows 10,Firefox 140.0,2560x1440,2560x1440,Temporal Distance Task,cb_04,36.0,temp_dist_trial,dist_items,qkpkxw,2.0,continue,,1643.1600000000033,1637.900000000009,1643.1600000000033,1643.1600000000033,1637.900000000009,1643.1600000000033,1.0,0.0,0.0,,Click To Continue,Next button,7.0,object-60,temp_dist_trial,36.0,t_m_02_1,travel_Miami,t-shirt,4.0,unique,paired,t_m_02_1.jpg,Travel,$${counterbalance_group},,sub-71
Desktop or Laptop,Windows 10,Firefox 140.0,2560x1440,2560x1440,Temporal Distance Task,cb_04,36.0,temp_dist_trial,dist_items,qkpkxw,2.0,response,57,620.7400000000052,1637.900000000009,1643.1600000000033,620.7400000000052,1637.900000000009,1643.1600000000033,1.0,1022.4199999999984,0.0,,Slider,Slider,4.0,object-56,temp_dist_trial,36.0,t_m_02_1,travel_Miami,t-shirt,4.0,unique,paired,t_m_02_1.jpg,Travel,$${counterbalance_group},,sub-71
Desktop or Laptop,Windows 10,Firefox 140.0,2560x1440,2560x1440,Temporal Distance Task,cb_04,37.0,temp_dist_trial,num_items,zn7si1,1.0,response,1_ITEM,1475.2599999999948,1471.9199999999985,1475.2599999999948,1475.2599999999948,1471.9199999999985,1475.2599999999948,1.0,0.0,0.0,,Click Response,1_count,3.0,object-46,temp_dist_trial,37.0,t_m_04_1,travel_Miami,UV jacket,4.0,unique,paired,t_m_04_1.jpg,Travel,$${counterbalance_group},,sub-71
Desktop or Laptop,Windows 10,Firefox 140.0,2560x1440,2560x1440,Temporal Distance Task,cb_04,38.0,temp_dist_trial,num_items,zn7si1,1.0,response,1_ITEM,1258.179999999993,1255.0,1258.179999999993,1258.179999999993,1255.0,1258.179999999993,1.0,0.0,0.0,,Click Response,1_count,3.0,object-46,temp_dist_trial,38.0,t_s_19_1,travel_shared,pajamas,4.0,competing,single,t_s_19_1.jpg,Travel,$${counterbalance_group},,sub-71
Desktop or Laptop,Windows 10,Firefox 140.0,2560x1440,2560x1440,Temporal Distance Task,cb_04,39.0,temp_dist_trial,num_items,zn7si1,1.0,response,2_ITEM,1148.020000000004,1145.1000000000058,1148.020000000004,1148.020000000004,1145.1000000000058,1148.020000000004,1.0,0.0,0.0,,Click Response,2_count,5.0,object-49,temp_dist_trial,39.0,t_s_02_1,travel_shared,water bottle,4.0,competing,paired,t_s_02_1.jpg,Travel,$${counterbalance_group},,sub-71
Desktop or Laptop,Windows 10,Firefox 140.0,2560x1440,2560x1440,Temporal Distance Task,cb_04,39.0,temp_dist_trial,dist_items,qkpkxw,2.0,info,,3.679999999993015,0.0,3.679999999993015,3.679999999993015,0.0,3.679999999993015,1.0,0.0,0.0,,Slider,Slider,4.0,object-56,temp_dist_trial,39.0,t_s_02_1,travel_shared,water bottle,4.0,competing,paired,t_s_02_1.jpg,Travel,$${counterbalance_group},,sub-71
Desktop or Laptop,Windows 10,Firefox 140.0,2560x1440,2560x1440,Temporal Distance Task,cb_04,39.0,temp_dist_trial,dist_items,qkpkxw,2.0,continue,,1420.679999999993,1415.859999999986,1420.679999999993,1420.679999999993,1415.859999999986,1420.679999999993,1.0,0.0,0.0,,Click To Continue,Next button,7.0,object-60,temp_dist_trial,39.0,t_s_02_1,travel_shared,water bottle,4.0,competing,paired,t_s_02_1.jpg,Travel,$${counterbalance_group},,sub-71
Desktop or Laptop,Windows 10,Firefox 140.0,2560x1440,2560x1440,Temporal Distance Task,cb_04,39.0,temp_dist_trial,dist_items,qkpkxw,2.0,response,84,382.1799999999929,1415.859999999986,1421.339999999982,382.1799999999929,1415.859999999986,1421.339999999982,1.0,1039.159999999989,0.0,,Slider,Slider,4.0,object-56,temp_dist_trial,39.0,t_s_02_1,travel_shared,water bottle,4.0,competing,paired,t_s_02_1.jpg,Travel,$${counterbalance_group},,sub-71
Desktop or Laptop,Windows 10,Firefox 140.0,2560x1440,2560x1440,Temporal Distance Task,cb_04,40.0,temp_dist_trial,num_items,zn7si1,1.0,response,2_ITEM,1071.8399999999963,1066.3800000000047,1071.8399999999963,1071.8399999999963,1066.3800000000047,1071.8399999999963,1.0,0.0,0.0,,Click Response,2_count,5.0,object-49,temp_dist_trial,40.0,t_m_17_1,travel_Miami,water gun,4.0,unique,paired,t_m_17_1.jpg,Travel,$${counterbalance_group},,sub-71
Desktop or Laptop,Windows 10,Firefox 140.0,2560x1440,2560x1440,Temporal Distance Task,cb_04,40.0,temp_dist_trial,dist_items,qkpkxw,2.0,info,,5.4799999999813735,0.0,5.4799999999813735,5.4799999999813735,0.0,5.4799999999813735,1.0,0.0,0.0,,Slider,Slider,4.0,object-56,temp_dist_trial,40.0,t_m_17_1,travel_Miami,water gun,4.0,unique,paired,t_m_17_1.jpg,Travel,$${counterbalance_group},,sub-71
Desktop or Laptop,Windows 10,Firefox 140.0,2560x1440,2560x1440,Temporal Distance Task,cb_04,40.0,temp_dist_trial,dist_items,qkpkxw,2.0,continue,,1953.320000000007,1951.3399999999967,1953.320000000007,1953.320000000007,1951.3399999999967,1953.320000000007,1.0,0.0,0.0,,Click To Continue,Next button,7.0,object-60,temp_dist_trial,40.0,t_m_17_1,travel_Miami,water gun,4.0,unique,paired,t_m_17_1.jpg,Travel,$${counterbalance_group},,sub-71
Desktop or Laptop,Windows 10,Firefox 140.0,2560x1440,2560x1440,Temporal Distance Task,cb_04,40.0,temp_dist_trial,dist_items,qkpkxw,2.0,response,26,1188.640000000014,1951.3399999999967,1956.320000000007,1188.640000000014,1951.3399999999967,1956.320000000007,1.0,767.679999999993,0.0,,Slider,Slider,4.0,object-56,temp_dist_trial,40.0,t_m_17_1,travel_Miami,water gun,4.0,unique,paired,t_m_17_1.jpg,Travel,$${counterbalance_group},,sub-71
Desktop or Laptop,Windows 10,Firefox 140.0,2560x1440,2560x1440,Temporal Distance Task,cb_04,41.0,temp_dist_trial,num_items,zn7si1,1.0,response,2_ITEM,1181.5200000000184,1176.040000000008,1181.5200000000184,1181.5200000000184,1176.040000000008,1181.5200000000184,1.0,0.0,0.0,,Click Response,2_count,5.0,object-49,temp_dist_trial,41.0,t_s_01_1,travel_shared,fanny pack,4.0,competing,single,t_s_01_1.jpg,Travel,$${counterbalance_group},,sub-71
Desktop or Laptop,Windows 10,Firefox 140.0,2560x1440,2560x1440,Temporal Distance Task,cb_04,41.0,temp_dist_trial,dist_items,qkpkxw,2.0,info,,4.559999999997672,0.0,4.559999999997672,4.559999999997672,0.0,4.559999999997672,1.0,0.0,0.0,,Slider,Slider,4.0,object-56,temp_dist_trial,41.0,t_s_01_1,travel_shared,fanny pack,4.0,competing,single,t_s_01_1.jpg,Travel,$${counterbalance_group},,sub-71
Desktop or Laptop,Windows 10,Firefox 140.0,2560x1440,2560x1440,Temporal Distance Task,cb_04,41.0,temp_dist_trial,dist_items,qkpkxw,2.0,continue,,1100.9199999999837,1095.459999999992,1100.9199999999837,1100.9199999999837,1095.459999999992,1100.9199999999837,1.0,0.0,0.0,,Click To Continue,Next button,7.0,object-60,temp_dist_trial,41.0,t_s_01_1,travel_shared,fanny pack,4.0,competing,single,t_s_01_1.jpg,Travel,$${counterbalance_group},,sub-71
Desktop or Laptop,Windows 10,Firefox 140.0,2560x1440,2560x1440,Temporal Distance Task,cb_04,41.0,temp_dist_trial,dist_items,qkpkxw,2.0,response,22,578.6000000000057,1095.459999999992,1100.9199999999837,578.6000000000057,1095.459999999992,1100.9199999999837,1.0,522.3199999999779,0.0,,Slider,Slider,4.0,object-56,temp_dist_trial,41.0,t_s_01_1,travel_shared,fanny pack,4.0,competing,single,t_s_01_1.jpg,Travel,$${counterbalance_group},,sub-71
Desktop or Laptop,Windows 10,Firefox 140.0,2560x1440,2560x1440,Temporal Distance Task,cb_04,42.0,temp_dist_trial,num_items,zn7si1,1.0,response,1_ITEM,1259.9200000000128,1254.4400000000023,1259.9200000000128,1259.9200000000128,1254.4400000000023,1259.9200000000128,1.0,0.0,0.0,,Click Response,1_count,3.0,object-46,temp_dist_trial,42.0,t_m_14_1,travel_Miami,swim goggles,4.0,unique,paired,t_m_14_1.jpg,Travel,$${counterbalance_group},,sub-71
Desktop or Laptop,Windows 10,Firefox 140.0,2560x1440,2560x1440,Temporal Distance Task,cb_04,43.0,temp_dist_trial,num_items,zn7si1,1.0,response,2_ITEM,960.5199999999603,955.0399999999788,960.5199999999603,960.5199999999603,955.0399999999788,960.5199999999603,1.0,0.0,0.0,,Click Response,2_count,5.0,object-49,temp_dist_trial,43.0,t_s_17_1,travel_shared,toothbrush,4.0,competing,paired,t_s_17_1.jpg,Travel,$${counterbalance_group},,sub-71
Desktop or Laptop,Windows 10,Firefox 140.0,2560x1440,2560x1440,Temporal Distance Task,cb_04,43.0,temp_dist_trial,dist_items,qkpkxw,2.0,info,,5.459999999991852,0.0,5.459999999991852,5.459999999991852,0.0,5.459999999991852,1.0,0.0,0.0,,Slider,Slider,4.0,object-56,temp_dist_trial,43.0,t_s_17_1,travel_shared,toothbrush,4.0,competing,paired,t_s_17_1.jpg,Travel,$${counterbalance_group},,sub-71
Desktop or Laptop,Windows 10,Firefox 140.0,2560x1440,2560x1440,Temporal Distance Task,cb_04,43.0,temp_dist_trial,dist_items,qkpkxw,2.0,continue,,1228.2600000000093,1222.9000000000233,1228.2600000000093,1228.2600000000093,1222.9000000000233,1228.2600000000093,1.0,0.0,0.0,,Click To Continue,Next button,7.0,object-60,temp_dist_trial,43.0,t_s_17_1,travel_shared,toothbrush,4.0,competing,paired,t_s_17_1.jpg,Travel,$${counterbalance_group},,sub-71
Desktop or Laptop,Windows 10,Firefox 140.0,2560x1440,2560x1440,Temporal Distance Task,cb_04,43.0,temp_dist_trial,dist_items,qkpkxw,2.0,response,44,727.8600000000151,1222.9000000000233,1228.2600000000093,727.8600000000151,1222.9000000000233,1228.2600000000093,1.0,500.3999999999942,0.0,,Slider,Slider,4.0,object-56,temp_dist_trial,43.0,t_s_17_1,travel_shared,toothbrush,4.0,competing,paired,t_s_17_1.jpg,Travel,$${counterbalance_group},,sub-71
Desktop or Laptop,Windows 10,Firefox 140.0,2560x1440,2560x1440,Temporal Distance Task,cb_04,44.0,temp_dist_trial,num_items,zn7si1,1.0,response,2_ITEM,1554.6399999999558,1549.1599999999744,1554.6399999999558,1554.6399999999558,1549.1599999999744,1554.6399999999558,1.0,0.0,0.0,,Click Response,2_count,5.0,object-49,temp_dist_trial,44.0,t_m_20_1,travel_Miami,inflatable beachball,4.0,unique,paired,t_m_20_1.jpg,Travel,$${counterbalance_group},,sub-71
Desktop or Laptop,Windows 10,Firefox 140.0,2560x1440,2560x1440,Temporal Distance Task,cb_04,44.0,temp_dist_trial,dist_items,qkpkxw,2.0,info,,4.959999999991852,0.0,4.959999999991852,4.959999999991852,0.0,4.959999999991852,1.0,0.0,0.0,,Slider,Slider,4.0,object-56,temp_dist_trial,44.0,t_m_20_1,travel_Miami,inflatable beachball,4.0,unique,paired,t_m_20_1.jpg,Travel,$${counterbalance_group},,sub-71
Desktop or Laptop,Windows 10,Firefox 140.0,2560x1440,2560x1440,Temporal Distance Task,cb_04,44.0,temp_dist_trial,dist_items,qkpkxw,2.0,continue,,883.9599999999921,879.0799999999872,883.9599999999921,883.9599999999921,879.0799999999872,883.9599999999921,1.0,0.0,0.0,,Click To Continue,Next button,7.0,object-60,temp_dist_trial,44.0,t_m_20_1,travel_Miami,inflatable beachball,4.0,unique,paired,t_m_20_1.jpg,Travel,$${counterbalance_group},,sub-71
Desktop or Laptop,Windows 10,Firefox 140.0,2560x1440,2560x1440,Temporal Distance Task,cb_04,44.0,temp_dist_trial,dist_items,qkpkxw,2.0,response,65,444.2200000000012,879.0799999999872,883.9599999999921,444.2200000000012,879.0799999999872,883.9599999999921,1.0,439.7399999999907,0.0,,Slider,Slider,4.0,object-56,temp_dist_trial,44.0,t_m_20_1,travel_Miami,inflatable beachball,4.0,unique,paired,t_m_20_1.jpg,Travel,$${counterbalance_group},,sub-71
Desktop or Laptop,Windows 10,Firefox 140.0,2560x1440,2560x1440,Temporal Distance Task,cb_04,45.0,temp_dist_trial,num_items,zn7si1,1.0,response,2_ITEM,965.9200000000128,960.4400000000024,965.9200000000128,965.9200000000128,960.4400000000024,965.9200000000128,1.0,0.0,0.0,,Click Response,2_count,5.0,object-49,temp_dist_trial,45.0,t_s_14_1,travel_shared,hand sanitizer,4.0,competing,paired,t_s_14_1.jpg,Travel,$${counterbalance_group},,sub-71
Desktop or Laptop,Windows 10,Firefox 140.0,2560x1440,2560x1440,Temporal Distance Task,cb_04,45.0,temp_dist_trial,dist_items,qkpkxw,2.0,info,,3.1199999999953434,0.0,3.1199999999953434,3.1199999999953434,0.0,3.1199999999953434,1.0,0.0,0.0,,Slider,Slider,4.0,object-56,temp_dist_trial,45.0,t_s_14_1,travel_shared,hand sanitizer,4.0,competing,paired,t_s_14_1.jpg,Travel,$${counterbalance_group},,sub-71
Desktop or Laptop,Windows 10,Firefox 140.0,2560x1440,2560x1440,Temporal Distance Task,cb_04,45.0,temp_dist_trial,dist_items,qkpkxw,2.0,continue,,877.1199999999952,872.1999999999823,877.1199999999952,877.1199999999952,872.1999999999823,877.1199999999952,1.0,0.0,0.0,,Click To Continue,Next button,7.0,object-60,temp_dist_trial,45.0,t_s_14_1,travel_shared,hand sanitizer,4.0,competing,paired,t_s_14_1.jpg,Travel,$${counterbalance_group},,sub-71
Desktop or Laptop,Windows 10,Firefox 140.0,2560x1440,2560x1440,Temporal Distance Task,cb_04,45.0,temp_dist_trial,dist_items,qkpkxw,2.0,response,79,393.6799999999929,872.1999999999823,877.1199999999952,393.6799999999929,872.1999999999823,877.1199999999952,1.0,483.44000000000227,0.0,,Slider,Slider,4.0,object-56,temp_dist_trial,45.0,t_s_14_1,travel_shared,hand sanitizer,4.0,competing,paired,t_s_14_1.jpg,Travel,$${counterbalance_group},,sub-71
Desktop or Laptop,Windows 10,Firefox 140.0,2560x1440,2560x1440,Temporal Distance Task,cb_04,46.0,temp_dist_trial,num_items,zn7si1,1.0,response,1_ITEM,1959.6199999999953,1954.1600000000033,1959.6199999999953,1959.6199999999953,1954.1600000000033,1959.6199999999953,1.0,0.0,0.0,,Click Response,1_count,3.0,object-46,temp_dist_trial,46.0,t_m_15_1,travel_Miami,shorts,4.0,unique,single,t_m_15_1.jpg,Travel,$${counterbalance_group},,sub-71
Desktop or Laptop,Windows 10,Firefox 140.0,2560x1440,2560x1440,Temporal Distance Task,cb_04,47.0,temp_dist_trial,num_items,zn7si1,1.0,response,2_ITEM,1007.8999999999942,1005.1399999999848,1007.8999999999942,1007.8999999999942,1005.1399999999848,1007.8999999999942,1.0,0.0,0.0,,Click Response,2_count,5.0,object-49,temp_dist_trial,47.0,t_i_09_1,travel_Iceland,ear muffs,4.0,unique,paired,t_i_09_1.jpg,Travel,$${counterbalance_group},,sub-71
Desktop or Laptop,Windows 10,Firefox 140.0,2560x1440,2560x1440,Temporal Distance Task,cb_04,47.0,temp_dist_trial,dist_items,qkpkxw,2.0,info,,3.6000000000058208,0.0,3.6000000000058208,3.6000000000058208,0.0,3.6000000000058208,1.0,0.0,0.0,,Slider,Slider,4.0,object-56,temp_dist_trial,47.0,t_i_09_1,travel_Iceland,ear muffs,4.0,unique,paired,t_i_09_1.jpg,Travel,$${counterbalance_group},,sub-71
Desktop or Laptop,Windows 10,Firefox 140.0,2560x1440,2560x1440,Temporal Distance Task,cb_04,47.0,temp_dist_trial,dist_items,qkpkxw,2.0,continue,,1283.8400000000254,1278.3600000000156,1283.8400000000254,1283.8400000000254,1278.3600000000156,1283.8400000000254,1.0,0.0,0.0,,Click To Continue,Next button,7.0,object-60,temp_dist_trial,47.0,t_i_09_1,travel_Iceland,ear muffs,4.0,unique,paired,t_i_09_1.jpg,Travel,$${counterbalance_group},,sub-71
Desktop or Laptop,Windows 10,Firefox 140.0,2560x1440,2560x1440,Temporal Distance Task,cb_04,47.0,temp_dist_trial,dist_items,qkpkxw,2.0,response,26,689.1199999999952,1278.3600000000156,1283.8400000000254,689.1199999999952,1278.3600000000156,1283.8400000000254,1.0,594.7200000000303,0.0,,Slider,Slider,4.0,object-56,temp_dist_trial,47.0,t_i_09_1,travel_Iceland,ear muffs,4.0,unique,paired,t_i_09_1.jpg,Travel,$${counterbalance_group},,sub-71
Desktop or Laptop,Windows 10,Firefox 140.0,2560x1440,2560x1440,Temporal Distance Task,cb_04,48.0,temp_dist_trial,num_items,zn7si1,1.0,response,2_ITEM,1118.2399999999907,1116.9400000000023,1118.2399999999907,1118.2399999999907,1116.9400000000023,1118.2399999999907,1.0,0.0,0.0,,Click Response,2_count,5.0,object-49,temp_dist_trial,48.0,t_i_15_1,travel_Iceland,compass,4.0,unique,paired,t_i_15_1.jpg,Travel,$${counterbalance_group},,sub-71
Desktop or Laptop,Windows 10,Firefox 140.0,2560x1440,2560x1440,Temporal Distance Task,cb_04,48.0,temp_dist_trial,dist_items,qkpkxw,2.0,info,,5.1000000000058225,0.0,5.1000000000058225,5.1000000000058225,0.0,5.1000000000058225,1.0,0.0,0.0,,Slider,Slider,4.0,object-56,temp_dist_trial,48.0,t_i_15_1,travel_Iceland,compass,4.0,unique,paired,t_i_15_1.jpg,Travel,$${counterbalance_group},,sub-71
Desktop or Laptop,Windows 10,Firefox 140.0,2560x1440,2560x1440,Temporal Distance Task,cb_04,48.0,temp_dist_trial,dist_items,qkpkxw,2.0,continue,,2100.1000000000063,2095.74000000002,2100.1000000000063,2100.1000000000063,2095.74000000002,2100.1000000000063,1.0,0.0,0.0,,Click To Continue,Next button,7.0,object-60,temp_dist_trial,48.0,t_i_15_1,travel_Iceland,compass,4.0,unique,paired,t_i_15_1.jpg,Travel,$${counterbalance_group},,sub-71
Desktop or Laptop,Windows 10,Firefox 140.0,2560x1440,2560x1440,Temporal Distance Task,cb_04,48.0,temp_dist_trial,dist_items,qkpkxw,2.0,response,82,1594.4800000000105,2095.74000000002,2100.1000000000063,1594.4800000000105,2095.74000000002,2100.1000000000063,1.0,505.61999999999534,0.0,,Slider,Slider,4.0,object-56,temp_dist_trial,48.0,t_i_15_1,travel_Iceland,compass,4.0,unique,paired,t_i_15_1.jpg,Travel,$${counterbalance_group},,sub-71
Desktop or Laptop,Windows 10,Firefox 140.0,2560x1440,2560x1440,Temporal Distance Task,cb_04,2.0,temp_eventStart,Screen 1,dgtyxe,1.0,continue,,1265.359999999986,1261.4399999999732,1265.359999999986,1265.359999999986,1261.4399999999732,1265.359999999986,1.0,0.0,0.0,,Click To Continue,Next Button,3.0,object-43,temp_eventStart,,,Student,,,,,,,$${counterbalance_group},,sub-71
Desktop or Laptop,Windows 10,Firefox 140.0,2560x1440,2560x1440,Temporal Distance Task,cb_04,49.0,temp_dist_trial,num_items,zn7si1,1.0,response,2_ITEM,1605.3800000000049,1599.9200000000128,1605.3800000000049,1605.3800000000049,1599.9200000000128,1605.3800000000049,1.0,0.0,0.0,,Click Response,2_count,5.0,object-49,temp_dist_trial,1.0,s_a_08_1,student_art,sewing machine,4.0,unique,paired,s_a_08_1.jpg,Student,$${counterbalance_group},,sub-71
Desktop or Laptop,Windows 10,Firefox 140.0,2560x1440,2560x1440,Temporal Distance Task,cb_04,49.0,temp_dist_trial,dist_items,qkpkxw,2.0,info,,4.739999999990687,0.0,4.739999999990687,4.739999999990687,0.0,4.739999999990687,1.0,0.0,0.0,,Slider,Slider,4.0,object-56,temp_dist_trial,1.0,s_a_08_1,student_art,sewing machine,4.0,unique,paired,s_a_08_1.jpg,Student,$${counterbalance_group},,sub-71
Desktop or Laptop,Windows 10,Firefox 140.0,2560x1440,2560x1440,Temporal Distance Task,cb_04,49.0,temp_dist_trial,dist_items,qkpkxw,2.0,continue,,1701.7399999999911,1701.679999999993,1701.7399999999911,1701.7399999999911,1701.679999999993,1701.7399999999911,1.0,0.0,0.0,,Click To Continue,Next button,7.0,object-60,temp_dist_trial,1.0,s_a_08_1,student_art,sewing machine,4.0,unique,paired,s_a_08_1.jpg,Student,$${counterbalance_group},,sub-71
Desktop or Laptop,Windows 10,Firefox 140.0,2560x1440,2560x1440,Temporal Distance Task,cb_04,49.0,temp_dist_trial,dist_items,qkpkxw,2.0,response,61,1106.179999999993,1701.679999999993,1702.7399999999911,1106.179999999993,1701.679999999993,1702.7399999999911,1.0,596.5599999999978,0.0,,Slider,Slider,4.0,object-56,temp_dist_trial,1.0,s_a_08_1,student_art,sewing machine,4.0,unique,paired,s_a_08_1.jpg,Student,$${counterbalance_group},,sub-71
Desktop or Laptop,Windows 10,Firefox 140.0,2560x1440,2560x1440,Temporal Distance Task,cb_04,50.0,temp_dist_trial,num_items,zn7si1,1.0,response,1_ITEM,1098.0599999999977,1094.0,1098.0599999999977,1098.0599999999977,1094.0,1098.0599999999977,1.0,0.0,0.0,,Click Response,1_count,3.0,object-46,temp_dist_trial,2.0,s_sh_10_1,student_shared,scissors,4.0,competing,paired,s_sh_10_1.jpg,Student,$${counterbalance_group},,sub-71
Desktop or Laptop,Windows 10,Firefox 140.0,2560x1440,2560x1440,Temporal Distance Task,cb_04,51.0,temp_dist_trial,num_items,zn7si1,1.0,response,1_ITEM,753.9200000000128,750.1400000000142,753.9200000000128,753.9200000000128,750.1400000000142,753.9200000000128,1.0,0.0,0.0,,Click Response,1_count,3.0,object-46,temp_dist_trial,3.0,s_a_16_1,student_art,piano,4.0,unique,single,s_a_16_1.jpg,Student,$${counterbalance_group},,sub-71
Desktop or Laptop,Windows 10,Firefox 140.0,2560x1440,2560x1440,Temporal Distance Task,cb_04,52.0,temp_dist_trial,num_items,zn7si1,1.0,response,2_ITEM,1235.6000000000058,1233.0599999999977,1235.6000000000058,1235.6000000000058,1233.0599999999977,1235.6000000000058,1.0,0.0,0.0,,Click Response,2_count,5.0,object-49,temp_dist_trial,4.0,s_a_02_1,student_art,canvas,4.0,unique,single,s_a_02_1.jpg,Student,$${counterbalance_group},,sub-71
Desktop or Laptop,Windows 10,Firefox 140.0,2560x1440,2560x1440,Temporal Distance Task,cb_04,52.0,temp_dist_trial,dist_items,qkpkxw,2.0,info,,5.320000000006985,0.0,5.320000000006985,5.320000000006985,0.0,5.320000000006985,1.0,0.0,0.0,,Slider,Slider,4.0,object-56,temp_dist_trial,4.0,s_a_02_1,student_art,canvas,4.0,unique,single,s_a_02_1.jpg,Student,$${counterbalance_group},,sub-71
Desktop or Laptop,Windows 10,Firefox 140.0,2560x1440,2560x1440,Temporal Distance Task,cb_04,52.0,temp_dist_trial,dist_items,qkpkxw,2.0,continue,,1306.320000000007,1300.9400000000023,1306.320000000007,1306.320000000007,1300.9400000000023,1306.320000000007,1.0,0.0,0.0,,Click To Continue,Next button,7.0,object-60,temp_dist_trial,4.0,s_a_02_1,student_art,canvas,4.0,unique,single,s_a_02_1.jpg,Student,$${counterbalance_group},,sub-71
Desktop or Laptop,Windows 10,Firefox 140.0,2560x1440,2560x1440,Temporal Distance Task,cb_04,52.0,temp_dist_trial,dist_items,qkpkxw,2.0,response,67,794.5,1300.9400000000023,1306.320000000007,794.5,1300.9400000000023,1306.320000000007,1.0,511.8200000000071,0.0,,Slider,Slider,4.0,object-56,temp_dist_trial,4.0,s_a_02_1,student_art,canvas,4.0,unique,single,s_a_02_1.jpg,Student,$${counterbalance_group},,sub-71
Desktop or Laptop,Windows 10,Firefox 140.0,2560x1440,2560x1440,Temporal Distance Task,cb_04,53.0,temp_dist_trial,num_items,zn7si1,1.0,response,2_ITEM,925.820000000036,920.3600000000152,925.820000000036,925.820000000036,920.3600000000152,925.820000000036,1.0,0.0,0.0,,Click Response,2_count,5.0,object-49,temp_dist_trial,5.0,s_s_01_1,student_stem,microscope,4.0,unique,single,s_s_01_1.jpg,Student,$${counterbalance_group},,sub-71
Desktop or Laptop,Windows 10,Firefox 140.0,2560x1440,2560x1440,Temporal Distance Task,cb_04,53.0,temp_dist_trial,dist_items,qkpkxw,2.0,info,,5.459999999991852,0.0,5.459999999991852,5.459999999991852,0.0,5.459999999991852,1.0,0.0,0.0,,Slider,Slider,4.0,object-56,temp_dist_trial,5.0,s_s_01_1,student_stem,microscope,4.0,unique,single,s_s_01_1.jpg,Student,$${counterbalance_group},,sub-71
Desktop or Laptop,Windows 10,Firefox 140.0,2560x1440,2560x1440,Temporal Distance Task,cb_04,53.0,temp_dist_trial,dist_items,qkpkxw,2.0,continue,,1139.8800000000047,1134.4400000000023,1139.8800000000047,1139.8800000000047,1134.4400000000023,1139.8800000000047,1.0,0.0,0.0,,Click To Continue,Next button,7.0,object-60,temp_dist_trial,5.0,s_s_01_1,student_stem,microscope,4.0,unique,single,s_s_01_1.jpg,Student,$${counterbalance_group},,sub-71
Desktop or Laptop,Windows 10,Firefox 140.0,2560x1440,2560x1440,Temporal Distance Task,cb_04,53.0,temp_dist_trial,dist_items,qkpkxw,2.0,response,35,606.320000000007,1134.4400000000023,1139.8999999999942,606.320000000007,1134.4400000000023,1139.8999999999942,1.0,533.5799999999872,0.0,,Slider,Slider,4.0,object-56,temp_dist_trial,5.0,s_s_01_1,student_stem,microscope,4.0,unique,single,s_s_01_1.jpg,Student,$${counterbalance_group},,sub-71
Desktop or Laptop,Windows 10,Firefox 140.0,2560x1440,2560x1440,Temporal Distance Task,cb_04,54.0,temp_dist_trial,num_items,zn7si1,1.0,response,2_ITEM,2470.4400000000023,2466.8399999999965,2470.4400000000023,2470.4400000000023,2466.8399999999965,2470.4400000000023,1.0,0.0,0.0,,Click Response,2_count,5.0,object-49,temp_dist_trial,6.0,s_sh_19_1,student_shared,portable plastic drawer,4.0,competing,paired,s_sh_19_1.jpg,Student,$${counterbalance_group},,sub-71
Desktop or Laptop,Windows 10,Firefox 140.0,2560x1440,2560x1440,Temporal Distance Task,cb_04,54.0,temp_dist_trial,dist_items,qkpkxw,2.0,info,,4.35999999998603,0.0,4.35999999998603,4.35999999998603,0.0,4.35999999998603,1.0,0.0,0.0,,Slider,Slider,4.0,object-56,temp_dist_trial,6.0,s_sh_19_1,student_shared,portable plastic drawer,4.0,competing,paired,s_sh_19_1.jpg,Student,$${counterbalance_group},,sub-71
Desktop or Laptop,Windows 10,Firefox 140.0,2560x1440,2560x1440,Temporal Distance Task,cb_04,54.0,temp_dist_trial,dist_items,qkpkxw,2.0,continue,,1660.359999999986,1655.4199999999835,1660.359999999986,1660.359999999986,1655.4199999999835,1660.359999999986,1.0,0.0,0.0,,Click To Continue,Next button,7.0,object-60,temp_dist_trial,6.0,s_sh_19_1,student_shared,portable plastic drawer,4.0,competing,paired,s_sh_19_1.jpg,Student,$${counterbalance_group},,sub-71
Desktop or Laptop,Windows 10,Firefox 140.0,2560x1440,2560x1440,Temporal Distance Task,cb_04,54.0,temp_dist_trial,dist_items,qkpkxw,2.0,response,80,672.039999999979,1655.4199999999835,1660.359999999986,672.039999999979,1655.4199999999835,1660.359999999986,1.0,988.320000000007,0.0,,Slider,Slider,4.0,object-56,temp_dist_trial,6.0,s_sh_19_1,student_shared,portable plastic drawer,4.0,competing,paired,s_sh_19_1.jpg,Student,$${counterbalance_group},,sub-71
Desktop or Laptop,Windows 10,Firefox 140.0,2560x1440,2560x1440,Temporal Distance Task,cb_04,55.0,temp_dist_trial,num_items,zn7si1,1.0,response,2_ITEM,876.9599999999921,871.5,876.9599999999921,876.9599999999921,871.5,876.9599999999921,1.0,0.0,0.0,,Click Response,2_count,5.0,object-49,temp_dist_trial,7.0,s_sh_15_1,student_shared,usb drive,4.0,competing,paired,s_sh_15_1.jpg,Student,$${counterbalance_group},,sub-71
Desktop or Laptop,Windows 10,Firefox 140.0,2560x1440,2560x1440,Temporal Distance Task,cb_04,55.0,temp_dist_trial,dist_items,qkpkxw,2.0,info,,5.459999999991852,0.0,5.459999999991852,5.459999999991852,0.0,5.459999999991852,1.0,0.0,0.0,,Slider,Slider,4.0,object-56,temp_dist_trial,7.0,s_sh_15_1,student_shared,usb drive,4.0,competing,paired,s_sh_15_1.jpg,Student,$${counterbalance_group},,sub-71
Desktop or Laptop,Windows 10,Firefox 140.0,2560x1440,2560x1440,Temporal Distance Task,cb_04,55.0,temp_dist_trial,dist_items,qkpkxw,2.0,continue,,2192.320000000007,2188.960000000021,2192.320000000007,2192.320000000007,2188.960000000021,2192.320000000007,1.0,0.0,0.0,,Click To Continue,Next button,7.0,object-60,temp_dist_trial,7.0,s_sh_15_1,student_shared,usb drive,4.0,competing,paired,s_sh_15_1.jpg,Student,$${counterbalance_group},,sub-71
Desktop or Laptop,Windows 10,Firefox 140.0,2560x1440,2560x1440,Temporal Distance Task,cb_04,55.0,temp_dist_trial,dist_items,qkpkxw,2.0,response,18,1204.5200000000184,2188.960000000021,2193.320000000007,1204.5200000000184,2188.960000000021,2193.320000000007,1.0,988.7999999999884,0.0,,Slider,Slider,4.0,object-56,temp_dist_trial,7.0,s_sh_15_1,student_shared,usb drive,4.0,competing,paired,s_sh_15_1.jpg,Student,$${counterbalance_group},,sub-71
Desktop or Laptop,Windows 10,Firefox 140.0,2560x1440,2560x1440,Temporal Distance Task,cb_04,56.0,temp_dist_trial,num_items,zn7si1,1.0,response,1_ITEM,2071.2399999999616,2065.75999999998,2071.2399999999616,2071.2399999999616,2065.75999999998,2071.2399999999616,1.0,0.0,0.0,,Click Response,1_count,3.0,object-46,temp_dist_trial,8.0,s_sh_06_1,student_shared,clipboard,4.0,competing,paired,s_sh_06_1.jpg,Student,$${counterbalance_group},,sub-71
Desktop or Laptop,Windows 10,Firefox 140.0,2560x1440,2560x1440,Temporal Distance Task,cb_04,57.0,temp_dist_trial,num_items,zn7si1,1.0,response,1_ITEM,919.3800000000048,916.7399999999907,919.3800000000048,919.3800000000048,916.7399999999907,919.3800000000048,1.0,0.0,0.0,,Click Response,1_count,3.0,object-46,temp_dist_trial,9.0,s_sh_03_1,student_shared,highlighter,4.0,competing,paired,s_sh_03_1.jpg,Student,$${counterbalance_group},,sub-71
Desktop or Laptop,Windows 10,Firefox 140.0,2560x1440,2560x1440,Temporal Distance Task,cb_04,58.0,temp_dist_trial,num_items,zn7si1,1.0,response,2_ITEM,1065.3999999999942,1060.8399999999963,1065.3999999999942,1065.3999999999942,1060.8399999999963,1065.3999999999942,1.0,0.0,0.0,,Click Response,2_count,5.0,object-49,temp_dist_trial,10.0,s_sh_02_1,student_shared,eraser,4.0,competing,paired,s_sh_02_1.jpg,Student,$${counterbalance_group},,sub-71
Desktop or Laptop,Windows 10,Firefox 140.0,2560x1440,2560x1440,Temporal Distance Task,cb_04,58.0,temp_dist_trial,dist_items,qkpkxw,2.0,info,,4.339999999996508,0.0,4.339999999996508,4.339999999996508,0.0,4.339999999996508,1.0,0.0,0.0,,Slider,Slider,4.0,object-56,temp_dist_trial,10.0,s_sh_02_1,student_shared,eraser,4.0,competing,paired,s_sh_02_1.jpg,Student,$${counterbalance_group},,sub-71
Desktop or Laptop,Windows 10,Firefox 140.0,2560x1440,2560x1440,Temporal Distance Task,cb_04,58.0,temp_dist_trial,dist_items,qkpkxw,2.0,continue,,1742.3399999999967,1738.0,1742.3399999999967,1742.3399999999967,1738.0,1742.3399999999967,1.0,0.0,0.0,,Click To Continue,Next button,7.0,object-60,temp_dist_trial,10.0,s_sh_02_1,student_shared,eraser,4.0,competing,paired,s_sh_02_1.jpg,Student,$${counterbalance_group},,sub-71
Desktop or Laptop,Windows 10,Firefox 140.0,2560x1440,2560x1440,Temporal Distance Task,cb_04,58.0,temp_dist_trial,dist_items,qkpkxw,2.0,response,70,1122.6999999999823,1738.0,1742.3399999999967,1122.6999999999823,1738.0,1742.3399999999967,1.0,619.6400000000141,0.0,,Slider,Slider,4.0,object-56,temp_dist_trial,10.0,s_sh_02_1,student_shared,eraser,4.0,competing,paired,s_sh_02_1.jpg,Student,$${counterbalance_group},,sub-71
Desktop or Laptop,Windows 10,Firefox 140.0,2560x1440,2560x1440,Temporal Distance Task,cb_04,59.0,temp_dist_trial,num_items,zn7si1,1.0,response,1_ITEM,1033.3399999999963,1028.3399999999963,1033.3399999999963,1033.3399999999963,1028.3399999999963,1033.3399999999963,1.0,0.0,0.0,,Click Response,1_count,3.0,object-46,temp_dist_trial,11.0,s_sh_07_1,student_shared,ruler,4.0,competing,paired,s_sh_07_1.jpg,Student,$${counterbalance_group},,sub-71
Desktop or Laptop,Windows 10,Firefox 140.0,2560x1440,2560x1440,Temporal Distance Task,cb_04,60.0,temp_dist_trial,num_items,zn7si1,1.0,response,1_ITEM,1267.7600000000093,1265.9400000000023,1267.7600000000093,1267.7600000000093,1265.9400000000023,1267.7600000000093,1.0,0.0,0.0,,Click Response,1_count,3.0,object-46,temp_dist_trial,12.0,s_sh_22_1,student_shared,hole puncher,4.0,competing,single,s_sh_22_1.jpg,Student,$${counterbalance_group},,sub-71
Desktop or Laptop,Windows 10,Firefox 140.0,2560x1440,2560x1440,Temporal Distance Task,cb_04,61.0,temp_dist_trial,num_items,zn7si1,1.0,response,2_ITEM,1453.5599999999977,1450.1000000000058,1453.5599999999977,1453.5599999999977,1450.1000000000058,1453.5599999999977,1.0,0.0,0.0,,Click Response,2_count,5.0,object-49,temp_dist_trial,13.0,s_s_03_1,student_stem,petri dish,4.0,unique,paired,s_s_03_1.jpg,Student,$${counterbalance_group},,sub-71
Desktop or Laptop,Windows 10,Firefox 140.0,2560x1440,2560x1440,Temporal Distance Task,cb_04,61.0,temp_dist_trial,dist_items,qkpkxw,2.0,info,,2.959999999991851,0.0,2.959999999991851,2.959999999991851,0.0,2.959999999991851,1.0,0.0,0.0,,Slider,Slider,4.0,object-56,temp_dist_trial,13.0,s_s_03_1,student_stem,petri dish,4.0,unique,paired,s_s_03_1.jpg,Student,$${counterbalance_group},,sub-71
Desktop or Laptop,Windows 10,Firefox 140.0,2560x1440,2560x1440,Temporal Distance Task,cb_04,61.0,temp_dist_trial,dist_items,qkpkxw,2.0,continue,,1307.959999999992,1305.2999999999886,1307.959999999992,1307.959999999992,1305.2999999999886,1307.959999999992,1.0,0.0,0.0,,Click To Continue,Next button,7.0,object-60,temp_dist_trial,13.0,s_s_03_1,student_stem,petri dish,4.0,unique,paired,s_s_03_1.jpg,Student,$${counterbalance_group},,sub-71
Desktop or Laptop,Windows 10,Firefox 140.0,2560x1440,2560x1440,Temporal Distance Task,cb_04,61.0,temp_dist_trial,dist_items,qkpkxw,2.0,response,20,672.1399999999849,1305.2999999999886,1307.959999999992,672.1399999999849,1305.2999999999886,1307.959999999992,1.0,635.820000000007,0.0,,Slider,Slider,4.0,object-56,temp_dist_trial,13.0,s_s_03_1,student_stem,petri dish,4.0,unique,paired,s_s_03_1.jpg,Student,$${counterbalance_group},,sub-71
Desktop or Laptop,Windows 10,Firefox 140.0,2560x1440,2560x1440,Temporal Distance Task,cb_04,62.0,temp_dist_trial,num_items,zn7si1,1.0,response,1_ITEM,1529.6600000000033,1526.7799999999988,1529.6600000000033,1529.6600000000033,1526.7799999999988,1529.6600000000033,1.0,0.0,0.0,,Click Response,1_count,3.0,object-46,temp_dist_trial,14.0,s_s_12_1,student_stem,robotic arm,4.0,unique,paired,s_s_12_1.jpg,Student,$${counterbalance_group},,sub-71
Desktop or Laptop,Windows 10,Firefox 140.0,2560x1440,2560x1440,Temporal Distance Task,cb_04,63.0,temp_dist_trial,num_items,zn7si1,1.0,response,1_ITEM,1249.6000000000058,1244.140000000014,1249.6000000000058,1249.6000000000058,1244.140000000014,1249.6000000000058,1.0,0.0,0.0,,Click Response,1_count,3.0,object-46,temp_dist_trial,15.0,s_s_09_1,student_stem,multimeter,4.0,unique,single,s_s_09_1.jpg,Student,$${counterbalance_group},,sub-71
Desktop or Laptop,Windows 10,Firefox 140.0,2560x1440,2560x1440,Temporal Distance Task,cb_04,64.0,temp_dist_trial,num_items,zn7si1,1.0,response,2_ITEM,867.0,861.5199999999895,867.0,867.0,861.5199999999895,867.0,1.0,0.0,0.0,,Click Response,2_count,5.0,object-49,temp_dist_trial,16.0,s_a_10_1,student_art,tripod,4.0,unique,paired,s_a_10_1.jpg,Student,$${counterbalance_group},,sub-71
Desktop or Laptop,Windows 10,Firefox 140.0,2560x1440,2560x1440,Temporal Distance Task,cb_04,64.0,temp_dist_trial,dist_items,qkpkxw,2.0,info,,4.4800000000104765,0.0,4.4800000000104765,4.4800000000104765,0.0,4.4800000000104765,1.0,0.0,0.0,,Slider,Slider,4.0,object-56,temp_dist_trial,16.0,s_a_10_1,student_art,tripod,4.0,unique,paired,s_a_10_1.jpg,Student,$${counterbalance_group},,sub-71
Desktop or Laptop,Windows 10,Firefox 140.0,2560x1440,2560x1440,Temporal Distance Task,cb_04,64.0,temp_dist_trial,dist_items,qkpkxw,2.0,continue,,1270.4800000000105,1266.3399999999965,1270.4800000000105,1270.4800000000105,1266.3399999999965,1270.4800000000105,1.0,0.0,0.0,,Click To Continue,Next button,7.0,object-60,temp_dist_trial,16.0,s_a_10_1,student_art,tripod,4.0,unique,paired,s_a_10_1.jpg,Student,$${counterbalance_group},,sub-71
Desktop or Laptop,Windows 10,Firefox 140.0,2560x1440,2560x1440,Temporal Distance Task,cb_04,64.0,temp_dist_trial,dist_items,qkpkxw,2.0,response,87,649.2400000000198,1266.3399999999965,1271.4800000000105,649.2400000000198,1266.3399999999965,1271.4800000000105,1.0,622.2399999999908,0.0,,Slider,Slider,4.0,object-56,temp_dist_trial,16.0,s_a_10_1,student_art,tripod,4.0,unique,paired,s_a_10_1.jpg,Student,$${counterbalance_group},,sub-71
Desktop or Laptop,Windows 10,Firefox 140.0,2560x1440,2560x1440,Temporal Distance Task,cb_04,65.0,temp_dist_trial,num_items,zn7si1,1.0,response,2_ITEM,1370.140000000014,1366.0600000000268,1370.140000000014,1370.140000000014,1366.0600000000268,1370.140000000014,1.0,0.0,0.0,,Click Response,2_count,5.0,object-49,temp_dist_trial,17.0,s_s_14_1,student_stem,funnel,4.0,unique,paired,s_s_14_1.jpg,Student,$${counterbalance_group},,sub-71
Desktop or Laptop,Windows 10,Firefox 140.0,2560x1440,2560x1440,Temporal Distance Task,cb_04,65.0,temp_dist_trial,dist_items,qkpkxw,2.0,info,,4.540000000008148,0.0,4.540000000008148,4.540000000008148,0.0,4.540000000008148,1.0,0.0,0.0,,Slider,Slider,4.0,object-56,temp_dist_trial,17.0,s_s_14_1,student_stem,funnel,4.0,unique,paired,s_s_14_1.jpg,Student,$${counterbalance_group},,sub-71
Desktop or Laptop,Windows 10,Firefox 140.0,2560x1440,2560x1440,Temporal Distance Task,cb_04,65.0,temp_dist_trial,dist_items,qkpkxw,2.0,continue,,981.5400000000079,978.9200000000128,981.5400000000079,981.5400000000079,978.9200000000128,981.5400000000079,1.0,0.0,0.0,,Click To Continue,Next button,7.0,object-60,temp_dist_trial,17.0,s_s_14_1,student_stem,funnel,4.0,unique,paired,s_s_14_1.jpg,Student,$${counterbalance_group},,sub-71
Desktop or Laptop,Windows 10,Firefox 140.0,2560x1440,2560x1440,Temporal Distance Task,cb_04,65.0,temp_dist_trial,dist_items,qkpkxw,2.0,response,68,451.2400000000199,978.9200000000128,981.5400000000079,451.2400000000199,978.9200000000128,981.5400000000079,1.0,530.2999999999884,0.0,,Slider,Slider,4.0,object-56,temp_dist_trial,17.0,s_s_14_1,student_stem,funnel,4.0,unique,paired,s_s_14_1.jpg,Student,$${counterbalance_group},,sub-71
Desktop or Laptop,Windows 10,Firefox 140.0,2560x1440,2560x1440,Temporal Distance Task,cb_04,66.0,temp_dist_trial,num_items,zn7si1,1.0,response,1_ITEM,1520.6199999999951,1515.5,1520.6199999999951,1520.6199999999951,1515.5,1520.6199999999951,1.0,0.0,0.0,,Click Response,1_count,3.0,object-46,temp_dist_trial,18.0,s_s_07_1,student_stem,periodic table,4.0,unique,single,s_s_07_1.jpg,Student,$${counterbalance_group},,sub-71
Desktop or Laptop,Windows 10,Firefox 140.0,2560x1440,2560x1440,Temporal Distance Task,cb_04,67.0,temp_dist_trial,num_items,zn7si1,1.0,response,1_ITEM,1393.299999999959,1387.819999999978,1393.299999999959,1393.299999999959,1387.819999999978,1393.299999999959,1.0,0.0,0.0,,Click Response,1_count,3.0,object-46,temp_dist_trial,19.0,s_a_13_1,student_art,violin,4.0,unique,paired,s_a_13_1.jpg,Student,$${counterbalance_group},,sub-71
Desktop or Laptop,Windows 10,Firefox 140.0,2560x1440,2560x1440,Temporal Distance Task,cb_04,68.0,temp_dist_trial,num_items,zn7si1,1.0,response,2_ITEM,1598.1000000000058,1593.459999999992,1598.1000000000058,1598.1000000000058,1593.459999999992,1598.1000000000058,1.0,0.0,0.0,,Click Response,2_count,5.0,object-49,temp_dist_trial,20.0,s_sh_24_1,student_shared,desk organizer,4.0,competing,paired,s_sh_24_1.jpg,Student,$${counterbalance_group},,sub-71
Desktop or Laptop,Windows 10,Firefox 140.0,2560x1440,2560x1440,Temporal Distance Task,cb_04,68.0,temp_dist_trial,dist_items,qkpkxw,2.0,info,,5.399999999994179,0.0,5.399999999994179,5.399999999994179,0.0,5.399999999994179,1.0,0.0,0.0,,Slider,Slider,4.0,object-56,temp_dist_trial,20.0,s_sh_24_1,student_shared,desk organizer,4.0,competing,paired,s_sh_24_1.jpg,Student,$${counterbalance_group},,sub-71
Desktop or Laptop,Windows 10,Firefox 140.0,2560x1440,2560x1440,Temporal Distance Task,cb_04,68.0,temp_dist_trial,dist_items,qkpkxw,2.0,continue,,1161.2399999999616,1155.7599999999802,1161.2399999999616,1161.2399999999616,1155.7599999999802,1161.2399999999616,1.0,0.0,0.0,,Click To Continue,Next button,7.0,object-60,temp_dist_trial,20.0,s_sh_24_1,student_shared,desk organizer,4.0,competing,paired,s_sh_24_1.jpg,Student,$${counterbalance_group},,sub-71
Desktop or Laptop,Windows 10,Firefox 140.0,2560x1440,2560x1440,Temporal Distance Task,cb_04,68.0,temp_dist_trial,dist_items,qkpkxw,2.0,response,22,546.040000000008,1155.7599999999802,1161.2399999999616,546.040000000008,1155.7599999999802,1161.2399999999616,1.0,615.1999999999534,0.0,,Slider,Slider,4.0,object-56,temp_dist_trial,20.0,s_sh_24_1,student_shared,desk organizer,4.0,competing,paired,s_sh_24_1.jpg,Student,$${counterbalance_group},,sub-71
Desktop or Laptop,Windows 10,Firefox 140.0,2560x1440,2560x1440,Temporal Distance Task,cb_04,69.0,temp_dist_trial,num_items,zn7si1,1.0,response,1_ITEM,1033.7799999999988,1028.320000000007,1033.7799999999988,1033.7799999999988,1028.320000000007,1033.7799999999988,1.0,0.0,0.0,,Click Response,1_count,3.0,object-46,temp_dist_trial,21.0,s_sh_08_1,student_shared,post-its,4.0,competing,single,s_sh_08_1.jpg,Student,$${counterbalance_group},,sub-71
Desktop or Laptop,Windows 10,Firefox 140.0,2560x1440,2560x1440,Temporal Distance Task,cb_04,70.0,temp_dist_trial,num_items,zn7si1,1.0,response,1_ITEM,938.0799999999872,932.6199999999952,938.0799999999872,938.0799999999872,932.6199999999952,938.0799999999872,1.0,0.0,0.0,,Click Response,1_count,3.0,object-46,temp_dist_trial,22.0,s_a_11_1,student_art,clapperboard,4.0,unique,paired,s_a_11_1.jpg,Student,$${counterbalance_group},,sub-71
Desktop or Laptop,Windows 10,Firefox 140.0,2560x1440,2560x1440,Temporal Distance Task,cb_04,71.0,temp_dist_trial,num_items,zn7si1,1.0,response,2_ITEM,1522.2600000000089,1517.180000000022,1522.2600000000089,1522.2600000000089,1517.180000000022,1522.2600000000089,1.0,0.0,0.0,,Click Response,2_count,5.0,object-49,temp_dist_trial,23.0,s_a_20_1,student_art,pin cushion,4.0,unique,paired,s_a_20_1.jpg,Student,$${counterbalance_group},,sub-71
Desktop or Laptop,Windows 10,Firefox 140.0,2560x1440,2560x1440,Temporal Distance Task,cb_04,71.0,temp_dist_trial,dist_items,qkpkxw,2.0,info,,4.279999999998837,0.0,4.279999999998837,4.279999999998837,0.0,4.279999999998837,1.0,0.0,0.0,,Slider,Slider,4.0,object-56,temp_dist_trial,23.0,s_a_20_1,student_art,pin cushion,4.0,unique,paired,s_a_20_1.jpg,Student,$${counterbalance_group},,sub-71
Desktop or Laptop,Windows 10,Firefox 140.0,2560x1440,2560x1440,Temporal Distance Task,cb_04,71.0,temp_dist_trial,dist_items,qkpkxw,2.0,continue,,982.2799999999988,978.1399999999848,982.2799999999988,982.2799999999988,978.1399999999848,982.2799999999988,1.0,0.0,0.0,,Click To Continue,Next button,7.0,object-60,temp_dist_trial,23.0,s_a_20_1,student_art,pin cushion,4.0,unique,paired,s_a_20_1.jpg,Student,$${counterbalance_group},,sub-71
Desktop or Laptop,Windows 10,Firefox 140.0,2560x1440,2560x1440,Temporal Distance Task,cb_04,71.0,temp_dist_trial,dist_items,qkpkxw,2.0,response,73,423.8200000000071,978.1399999999848,982.2799999999988,423.8200000000071,978.1399999999848,982.2799999999988,1.0,558.459999999992,0.0,,Slider,Slider,4.0,object-56,temp_dist_trial,23.0,s_a_20_1,student_art,pin cushion,4.0,unique,paired,s_a_20_1.jpg,Student,$${counterbalance_group},,sub-71
Desktop or Laptop,Windows 10,Firefox 140.0,2560x1440,2560x1440,Temporal Distance Task,cb_04,72.0,temp_dist_trial,num_items,zn7si1,1.0,response,1_ITEM,1865.140000000014,1862.2200000000007,1865.140000000014,1865.140000000014,1862.2200000000007,1865.140000000014,1.0,0.0,0.0,,Click Response,1_count,3.0,object-46,temp_dist_trial,24.0,s_sh_04_1,student_shared,laptop stand,4.0,competing,single,s_sh_04_1.jpg,Student,$${counterbalance_group},,sub-71
Desktop or Laptop,Windows 10,Firefox 140.0,2560x1440,2560x1440,Temporal Distance Task,cb_04,73.0,temp_dist_trial,num_items,zn7si1,1.0,response,1_ITEM,1220.7399999999907,1217.9199999999835,1220.7399999999907,1220.7399999999907,1217.9199999999835,1220.7399999999907,1.0,0.0,0.0,,Click Response,1_count,3.0,object-46,temp_dist_trial,25.0,s_a_03_1,student_art,palette,4.0,unique,paired,s_a_03_1.jpg,Student,$${counterbalance_group},,sub-71
Desktop or Laptop,Windows 10,Firefox 140.0,2560x1440,2560x1440,Temporal Distance Task,cb_04,74.0,temp_dist_trial,num_items,zn7si1,1.0,response,2_ITEM,1163.5599999999977,1160.9199999999835,1163.5599999999977,1163.5599999999977,1160.9199999999835,1163.5599999999977,1.0,0.0,0.0,,Click Response,2_count,5.0,object-49,temp_dist_trial,26.0,s_s_02_1,student_stem,flask,4.0,unique,single,s_s_02_1.jpg,Student,$${counterbalance_group},,sub-71
Desktop or Laptop,Windows 10,Firefox 140.0,2560x1440,2560x1440,Temporal Distance Task,cb_04,74.0,temp_dist_trial,dist_items,qkpkxw,2.0,info,,5.459999999991852,0.0,5.459999999991852,5.459999999991852,0.0,5.459999999991852,1.0,0.0,0.0,,Slider,Slider,4.0,object-56,temp_dist_trial,26.0,s_s_02_1,student_stem,flask,4.0,unique,single,s_s_02_1.jpg,Student,$${counterbalance_group},,sub-71
Desktop or Laptop,Windows 10,Firefox 140.0,2560x1440,2560x1440,Temporal Distance Task,cb_04,74.0,temp_dist_trial,dist_items,qkpkxw,2.0,continue,,1199.8400000000254,1194.3600000000156,1199.8400000000254,1199.8400000000254,1194.3600000000156,1199.8400000000254,1.0,0.0,0.0,,Click To Continue,Next button,7.0,object-60,temp_dist_trial,26.0,s_s_02_1,student_stem,flask,4.0,unique,single,s_s_02_1.jpg,Student,$${counterbalance_group},,sub-71
Desktop or Laptop,Windows 10,Firefox 140.0,2560x1440,2560x1440,Temporal Distance Task,cb_04,74.0,temp_dist_trial,dist_items,qkpkxw,2.0,response,43,637.2200000000012,1194.3600000000156,1199.8400000000254,637.2200000000012,1194.3600000000156,1199.8400000000254,1.0,562.6200000000243,0.0,,Slider,Slider,4.0,object-56,temp_dist_trial,26.0,s_s_02_1,student_stem,flask,4.0,unique,single,s_s_02_1.jpg,Student,$${counterbalance_group},,sub-71
Desktop or Laptop,Windows 10,Firefox 140.0,2560x1440,2560x1440,Temporal Distance Task,cb_04,75.0,temp_dist_trial,num_items,zn7si1,1.0,response,1_ITEM,813.0199999999895,810.7599999999803,813.0199999999895,813.0199999999895,810.7599999999803,813.0199999999895,1.0,0.0,0.0,,Click Response,1_count,3.0,object-46,temp_dist_trial,27.0,s_a_17_1,student_art,microphone,4.0,unique,single,s_a_17_1.jpg,Student,$${counterbalance_group},,sub-71
Desktop or Laptop,Windows 10,Firefox 140.0,2560x1440,2560x1440,Temporal Distance Task,cb_04,76.0,temp_dist_trial,num_items,zn7si1,1.0,response,2_ITEM,1288.0599999999977,1282.6000000000058,1288.0599999999977,1288.0599999999977,1282.6000000000058,1288.0599999999977,1.0,0.0,0.0,,Click Response,2_count,5.0,object-49,temp_dist_trial,28.0,s_sh_21_1,student_shared,file holder,4.0,competing,paired,s_sh_21_1.jpg,Student,$${counterbalance_group},,sub-71
Desktop or Laptop,Windows 10,Firefox 140.0,2560x1440,2560x1440,Temporal Distance Task,cb_04,76.0,temp_dist_trial,dist_items,qkpkxw,2.0,info,,4.279999999998837,0.0,4.279999999998837,4.279999999998837,0.0,4.279999999998837,1.0,0.0,0.0,,Slider,Slider,4.0,object-56,temp_dist_trial,28.0,s_sh_21_1,student_shared,file holder,4.0,competing,paired,s_sh_21_1.jpg,Student,$${counterbalance_group},,sub-71
Desktop or Laptop,Windows 10,Firefox 140.0,2560x1440,2560x1440,Temporal Distance Task,cb_04,76.0,temp_dist_trial,dist_items,qkpkxw,2.0,continue,,1502.2799999999988,1499.1199999999951,1502.2799999999988,1502.2799999999988,1499.1199999999951,1502.2799999999988,1.0,0.0,0.0,,Click To Continue,Next button,7.0,object-60,temp_dist_trial,28.0,s_sh_21_1,student_shared,file holder,4.0,competing,paired,s_sh_21_1.jpg,Student,$${counterbalance_group},,sub-71
Desktop or Laptop,Windows 10,Firefox 140.0,2560x1440,2560x1440,Temporal Distance Task,cb_04,76.0,temp_dist_trial,dist_items,qkpkxw,2.0,response,74,527.7999999999884,1499.1199999999951,1502.2799999999988,527.7999999999884,1499.1199999999951,1502.2799999999988,1.0,974.4800000000104,0.0,,Slider,Slider,4.0,object-56,temp_dist_trial,28.0,s_sh_21_1,student_shared,file holder,4.0,competing,paired,s_sh_21_1.jpg,Student,$${counterbalance_group},,sub-71
Desktop or Laptop,Windows 10,Firefox 140.0,2560x1440,2560x1440,Temporal Distance Task,cb_04,77.0,temp_dist_trial,num_items,zn7si1,1.0,response,2_ITEM,942.1600000000036,940.179999999993,942.1600000000036,942.1600000000036,940.179999999993,942.1600000000036,1.0,0.0,0.0,,Click Response,2_count,5.0,object-49,temp_dist_trial,29.0,s_sh_05_1,student_shared,laptop,4.0,competing,paired,s_sh_05_1.jpg,Student,$${counterbalance_group},,sub-71
Desktop or Laptop,Windows 10,Firefox 140.0,2560x1440,2560x1440,Temporal Distance Task,cb_04,77.0,temp_dist_trial,dist_items,qkpkxw,2.0,info,,3.7399999999906868,0.0,3.7399999999906868,3.7399999999906868,0.0,3.7399999999906868,1.0,0.0,0.0,,Slider,Slider,4.0,object-56,temp_dist_trial,29.0,s_sh_05_1,student_shared,laptop,4.0,competing,paired,s_sh_05_1.jpg,Student,$${counterbalance_group},,sub-71
Desktop or Laptop,Windows 10,Firefox 140.0,2560x1440,2560x1440,Temporal Distance Task,cb_04,77.0,temp_dist_trial,dist_items,qkpkxw,2.0,continue,,1539.7399999999911,1537.3999999999942,1539.7399999999911,1539.7399999999911,1537.3999999999942,1539.7399999999911,1.0,0.0,0.0,,Click To Continue,Next button,7.0,object-60,temp_dist_trial,29.0,s_sh_05_1,student_shared,laptop,4.0,competing,paired,s_sh_05_1.jpg,Student,$${counterbalance_group},,sub-71
Desktop or Laptop,Windows 10,Firefox 140.0,2560x1440,2560x1440,Temporal Distance Task,cb_04,77.0,temp_dist_trial,dist_items,qkpkxw,2.0,response,83,487.51999999998947,1537.3999999999942,1539.7399999999911,487.51999999998947,1537.3999999999942,1539.7399999999911,1.0,1052.2200000000012,0.0,,Slider,Slider,4.0,object-56,temp_dist_trial,29.0,s_sh_05_1,student_shared,laptop,4.0,competing,paired,s_sh_05_1.jpg,Student,$${counterbalance_group},,sub-71
Desktop or Laptop,Windows 10,Firefox 140.0,2560x1440,2560x1440,Temporal Distance Task,cb_04,78.0,temp_dist_trial,num_items,zn7si1,1.0,response,1_ITEM,1293.3399999999965,1289.359999999986,1293.3399999999965,1293.3399999999965,1289.359999999986,1293.3399999999965,1.0,0.0,0.0,,Click Response,1_count,3.0,object-46,temp_dist_trial,30.0,s_sh_01_1,student_shared,notebook,4.0,competing,single,s_sh_01_1.jpg,Student,$${counterbalance_group},,sub-71
Desktop or Laptop,Windows 10,Firefox 140.0,2560x1440,2560x1440,Temporal Distance Task,cb_04,79.0,temp_dist_trial,num_items,zn7si1,1.0,response,1_ITEM,1840.7600000000089,1839.2799999999988,1840.7600000000089,1840.7600000000089,1839.2799999999988,1840.7600000000089,1.0,0.0,0.0,,Click Response,1_count,3.0,object-46,temp_dist_trial,31.0,s_s_17_1,student_stem,ring stand,4.0,unique,paired,s_s_17_1.jpg,Student,$${counterbalance_group},,sub-71
Desktop or Laptop,Windows 10,Firefox 140.0,2560x1440,2560x1440,Temporal Distance Task,cb_04,80.0,temp_dist_trial,num_items,zn7si1,1.0,response,2_ITEM,1638.1600000000033,1632.6600000000033,1638.1600000000033,1638.1600000000033,1632.6600000000033,1638.1600000000033,1.0,0.0,0.0,,Click Response,2_count,5.0,object-49,temp_dist_trial,32.0,s_s_04_1,student_stem,bunsen burner,4.0,unique,paired,s_s_04_1.jpg,Student,$${counterbalance_group},,sub-71
Desktop or Laptop,Windows 10,Firefox 140.0,2560x1440,2560x1440,Temporal Distance Task,cb_04,80.0,temp_dist_trial,dist_items,qkpkxw,2.0,info,,3.9400000000023283,0.0,3.9400000000023283,3.9400000000023283,0.0,3.9400000000023283,1.0,0.0,0.0,,Slider,Slider,4.0,object-56,temp_dist_trial,32.0,s_s_04_1,student_stem,bunsen burner,4.0,unique,paired,s_s_04_1.jpg,Student,$${counterbalance_group},,sub-71
Desktop or Laptop,Windows 10,Firefox 140.0,2560x1440,2560x1440,Temporal Distance Task,cb_04,80.0,temp_dist_trial,dist_items,qkpkxw,2.0,continue,,954.9400000000024,949.679999999993,954.9400000000024,954.9400000000024,949.679999999993,954.9400000000024,1.0,0.0,0.0,,Click To Continue,Next button,7.0,object-60,temp_dist_trial,32.0,s_s_04_1,student_stem,bunsen burner,4.0,unique,paired,s_s_04_1.jpg,Student,$${counterbalance_group},,sub-71
Desktop or Laptop,Windows 10,Firefox 140.0,2560x1440,2560x1440,Temporal Distance Task,cb_04,80.0,temp_dist_trial,dist_items,qkpkxw,2.0,response,25,337.7399999999907,949.679999999993,955.1399999999848,337.7399999999907,949.679999999993,955.1399999999848,1.0,617.3999999999943,0.0,,Slider,Slider,4.0,object-56,temp_dist_trial,32.0,s_s_04_1,student_stem,bunsen burner,4.0,unique,paired,s_s_04_1.jpg,Student,$${counterbalance_group},,sub-71
Desktop or Laptop,Windows 10,Firefox 140.0,2560x1440,2560x1440,Temporal Distance Task,cb_04,81.0,temp_dist_trial,num_items,zn7si1,1.0,response,1_ITEM,1007.2600000000093,1005.4800000000104,1007.2600000000093,1007.2600000000093,1005.4800000000104,1007.2600000000093,1.0,0.0,0.0,,Click Response,1_count,3.0,object-46,temp_dist_trial,33.0,s_sh_13_1,student_shared,index cards,4.0,competing,paired,s_sh_13_1.jpg,Student,$${counterbalance_group},,sub-71
Desktop or Laptop,Windows 10,Firefox 140.0,2560x1440,2560x1440,Temporal Distance Task,cb_04,82.0,temp_dist_trial,num_items,zn7si1,1.0,response,2_ITEM,967.5599999999976,966.1199999999952,967.5599999999976,967.5599999999976,966.1199999999952,967.5599999999976,1.0,0.0,0.0,,Click Response,2_count,5.0,object-49,temp_dist_trial,34.0,s_a_04_1,student_art,easel,4.0,unique,paired,s_a_04_1.jpg,Student,$${counterbalance_group},,sub-71
Desktop or Laptop,Windows 10,Firefox 140.0,2560x1440,2560x1440,Temporal Distance Task,cb_04,82.0,temp_dist_trial,dist_items,qkpkxw,2.0,info,,4.179999999993015,0.0,4.179999999993015,4.179999999993015,0.0,4.179999999993015,1.0,0.0,0.0,,Slider,Slider,4.0,object-56,temp_dist_trial,34.0,s_a_04_1,student_art,easel,4.0,unique,paired,s_a_04_1.jpg,Student,$${counterbalance_group},,sub-71
Desktop or Laptop,Windows 10,Firefox 140.0,2560x1440,2560x1440,Temporal Distance Task,cb_04,82.0,temp_dist_trial,dist_items,qkpkxw,2.0,continue,,944.179999999993,938.8599999999859,944.179999999993,944.179999999993,938.8599999999859,944.179999999993,1.0,0.0,0.0,,Click To Continue,Next button,7.0,object-60,temp_dist_trial,34.0,s_a_04_1,student_art,easel,4.0,unique,paired,s_a_04_1.jpg,Student,$${counterbalance_group},,sub-71
Desktop or Laptop,Windows 10,Firefox 140.0,2560x1440,2560x1440,Temporal Distance Task,cb_04,82.0,temp_dist_trial,dist_items,qkpkxw,2.0,response,69,427.2399999999907,938.8599999999859,944.3399999999672,427.2399999999907,938.8599999999859,944.3399999999672,1.0,517.0999999999766,0.0,,Slider,Slider,4.0,object-56,temp_dist_trial,34.0,s_a_04_1,student_art,easel,4.0,unique,paired,s_a_04_1.jpg,Student,$${counterbalance_group},,sub-71
Desktop or Laptop,Windows 10,Firefox 140.0,2560x1440,2560x1440,Temporal Distance Task,cb_04,83.0,temp_dist_trial,num_items,zn7si1,1.0,response,2_ITEM,1154.7999999999886,1149.3399999999965,1154.7999999999886,1154.7999999999886,1149.3399999999965,1154.7999999999886,1.0,0.0,0.0,,Click Response,2_count,5.0,object-49,temp_dist_trial,35.0,s_s_18_1,student_stem,brain model,4.0,unique,paired,s_s_18_1.jpg,Student,$${counterbalance_group},,sub-71
Desktop or Laptop,Windows 10,Firefox 140.0,2560x1440,2560x1440,Temporal Distance Task,cb_04,83.0,temp_dist_trial,dist_items,qkpkxw,2.0,info,,4.7000000000116415,0.0,4.7000000000116415,4.7000000000116415,0.0,4.7000000000116415,1.0,0.0,0.0,,Slider,Slider,4.0,object-56,temp_dist_trial,35.0,s_s_18_1,student_stem,brain model,4.0,unique,paired,s_s_18_1.jpg,Student,$${counterbalance_group},,sub-71
Desktop or Laptop,Windows 10,Firefox 140.0,2560x1440,2560x1440,Temporal Distance Task,cb_04,83.0,temp_dist_trial,dist_items,qkpkxw,2.0,continue,,965.7000000000116,960.6400000000141,965.7000000000116,965.7000000000116,960.6400000000141,965.7000000000116,1.0,0.0,0.0,,Click To Continue,Next button,7.0,object-60,temp_dist_trial,35.0,s_s_18_1,student_stem,brain model,4.0,unique,paired,s_s_18_1.jpg,Student,$${counterbalance_group},,sub-71
Desktop or Laptop,Windows 10,Firefox 140.0,2560x1440,2560x1440,Temporal Distance Task,cb_04,83.0,temp_dist_trial,dist_items,qkpkxw,2.0,response,73,432.8200000000071,960.6400000000141,965.7000000000116,432.8200000000071,960.6400000000141,965.7000000000116,1.0,532.8800000000047,0.0,,Slider,Slider,4.0,object-56,temp_dist_trial,35.0,s_s_18_1,student_stem,brain model,4.0,unique,paired,s_s_18_1.jpg,Student,$${counterbalance_group},,sub-71
Desktop or Laptop,Windows 10,Firefox 140.0,2560x1440,2560x1440,Temporal Distance Task,cb_04,84.0,temp_dist_trial,num_items,zn7si1,1.0,response,1_ITEM,1333.2800000000282,1327.820000000007,1333.2800000000282,1333.2800000000282,1327.820000000007,1333.2800000000282,1.0,0.0,0.0,,Click Response,1_count,3.0,object-46,temp_dist_trial,36.0,s_sh_09_1,student_shared,paper clips,4.0,competing,single,s_sh_09_1.jpg,Student,$${counterbalance_group},,sub-71
Desktop or Laptop,Windows 10,Firefox 140.0,2560x1440,2560x1440,Temporal Distance Task,cb_04,85.0,temp_dist_trial,num_items,zn7si1,1.0,response,2_ITEM,959.9800000000104,955.1000000000058,959.9800000000104,959.9800000000104,955.1000000000058,959.9800000000104,1.0,0.0,0.0,,Click Response,2_count,5.0,object-49,temp_dist_trial,37.0,s_s_05_1,student_stem,lab goggles,4.0,unique,paired,s_s_05_1.jpg,Student,$${counterbalance_group},,sub-71
Desktop or Laptop,Windows 10,Firefox 140.0,2560x1440,2560x1440,Temporal Distance Task,cb_04,85.0,temp_dist_trial,dist_items,qkpkxw,2.0,info,,3.679999999993015,0.0,3.679999999993015,3.679999999993015,0.0,3.679999999993015,1.0,0.0,0.0,,Slider,Slider,4.0,object-56,temp_dist_trial,37.0,s_s_05_1,student_stem,lab goggles,4.0,unique,paired,s_s_05_1.jpg,Student,$${counterbalance_group},,sub-71
Desktop or Laptop,Windows 10,Firefox 140.0,2560x1440,2560x1440,Temporal Distance Task,cb_04,85.0,temp_dist_trial,dist_items,qkpkxw,2.0,continue,,2036.679999999993,2032.6199999999953,2036.679999999993,2036.679999999993,2032.6199999999953,2036.679999999993,1.0,0.0,0.0,,Click To Continue,Next button,7.0,object-60,temp_dist_trial,37.0,s_s_05_1,student_stem,lab goggles,4.0,unique,paired,s_s_05_1.jpg,Student,$${counterbalance_group},,sub-71
