Participant Device,Participant OS,Participant Browser,Participant Monitor Size,Participant Viewport Size,Task Name,Current Spreadsheet,Trial Number,Display,Screen,Screen ID,Screen Counter,Response Type,Response,Onset Time,Clock Time,Reaction Time,Absolute Onset Time,Absolute Clock Time,Absolute Reaction Time,Correct,Response Duration,Proportion,Tag,Component Name,Object Name,Object Number,Object ID,Spreadsheet: display,Spreadsheet: trial,Spreadsheet: stimulus_id,Spreadsheet: expected_goal,Spreadsheet: stimulus_name,Spreadsheet: c_group,Spreadsheet: condition,Spreadsheet: paired_status,Spreadsheet: stimulus_path,Spreadsheet: block_type,Manipulation: Spreadsheet,Store: enc_test_acc,sub_label
Desktop or Laptop,Windows 10,Chrome 137.0.0.0,1366x768,1366x599,Temporal Distance Task,$${counterbalance_group},,,,,,info,BEGIN,,,,,,,0.0,,,,,,,,,,,,,,,,,,,,sub-41
Desktop or Laptop,Windows 10,Chrome 137.0.0.0,1366x768,1366x599,Temporal Distance Task,cb_07,1.0,temp_instructions,intro_screen,3tnme7,1.0,continue,,5825.799999904632,5816.0999999999985,5825.799999904632,5825.799999904632,5816.0999999999985,5825.799999904632,1.0,0.0,0.0,,Click To Continue,Continue Button,4.0,object-29,temp_instructions,,,Student,,,,,,,,,sub-41
Desktop or Laptop,Windows 10,Chrome 137.0.0.0,1366x768,1366x599,Temporal Distance Task,cb_07,1.0,temp_instructions,intro_screen_2,52v7ur,2.0,continue,,5185.199999904633,5182.6,5185.199999904633,5185.199999904633,5182.6,5185.199999904633,1.0,0.0,0.0,,Click To Continue,Continue Button,4.0,object-39,temp_instructions,,,Student,,,,,,,,,sub-41
Desktop or Laptop,Windows 10,Chrome 137.0.0.0,1366x768,1366x599,Temporal Distance Task,cb_07,1.0,temp_instructions,intro_screen_3,i7lvwx,3.0,continue,,1522.9000000953674,1516.2999999999995,1522.9000000953674,1522.9000000953674,1516.2999999999995,1522.9000000953674,1.0,0.0,0.0,,Click To Continue,Continue Button,4.0,object-67,temp_instructions,,,Student,,,,,,,,,sub-41
Desktop or Laptop,Windows 10,Chrome 137.0.0.0,1366x768,1366x599,Temporal Distance Task,cb_07,1.0,temp_instructions,test_q1,5ieqx1,4.0,response,choice_3,4022.4999997138975,4016.0,4022.4999997138975,4022.4999997138975,4016.0,4022.4999997138975,1.0,0.0,0.0,,Click Response,choice_3,5.0,object-345,temp_instructions,,,Student,,,,,,,,,sub-41
Desktop or Laptop,Windows 10,Chrome 137.0.0.0,1366x768,1366x599,Temporal Distance Task,cb_07,1.0,temp_instructions,score_corr,7ilvjr,5.0,continue,,822.4999997138983,816.7000000000007,822.4999997138983,822.4999997138983,816.7000000000007,822.4999997138983,1.0,0.0,0.0,,Click To Continue,Continue Button,3.0,object-23,temp_instructions,,,Student,,,,,,,,,sub-41
Desktop or Laptop,Windows 10,Chrome 137.0.0.0,1366x768,1366x599,Temporal Distance Task,cb_07,1.0,temp_eventStart,Screen 1,dgtyxe,1.0,continue,,869.5,866.4000000000017,869.5,869.5,866.4000000000017,869.5,1.0,0.0,0.0,,Click To Continue,Next Button,3.0,object-43,temp_eventStart,,,Student,,,,,,,,,sub-41
Desktop or Laptop,Windows 10,Chrome 137.0.0.0,1366x768,1366x599,Temporal Distance Task,cb_07,1.0,temp_dist_trial,num_items,zn7si1,1.0,response,1_ITEM,1971.0999999999985,1966.2999999999995,1971.0999999999985,1971.0999999999985,1966.2999999999995,1971.0999999999985,1.0,0.0,0.0,,Click Response,1_count,3.0,object-46,temp_dist_trial,1.0,s_sh_13_1,student_shared,index cards,7.0,competing,paired,s_sh_13_1.jpg,Student,,,sub-41
Desktop or Laptop,Windows 10,Chrome 137.0.0.0,1366x768,1366x599,Temporal Distance Task,cb_07,2.0,temp_dist_trial,num_items,zn7si1,1.0,response,1_ITEM,2747.600000095368,2733.0,2747.600000095368,2747.600000095368,2733.0,2747.600000095368,1.0,0.0,0.0,,Click Response,1_count,3.0,object-46,temp_dist_trial,2.0,s_a_09_1,student_art,picture frame,7.0,unique,single,s_a_09_1.jpg,Student,,,sub-41
Desktop or Laptop,Windows 10,Chrome 137.0.0.0,1366x768,1366x599,Temporal Distance Task,cb_07,3.0,temp_dist_trial,num_items,zn7si1,1.0,response,2_ITEM,2131.7999999999993,2115.7000000000007,2131.7999999999993,2131.7999999999993,2115.7000000000007,2131.7999999999993,1.0,0.0,0.0,,Click Response,2_count,5.0,object-49,temp_dist_trial,3.0,s_sh_02_1,student_shared,eraser,7.0,competing,paired,s_sh_02_1.jpg,Student,,,sub-41
Desktop or Laptop,Windows 10,Chrome 137.0.0.0,1366x768,1366x599,Temporal Distance Task,cb_07,3.0,temp_dist_trial,dist_items,qkpkxw,2.0,info,,5.599999904632568,0.0,5.599999904632568,5.599999904632568,0.0,5.599999904632568,1.0,0.0,0.0,,Slider,Slider,4.0,object-56,temp_dist_trial,3.0,s_sh_02_1,student_shared,eraser,7.0,competing,paired,s_sh_02_1.jpg,Student,,,sub-41
Desktop or Laptop,Windows 10,Chrome 137.0.0.0,1366x768,1366x599,Temporal Distance Task,cb_07,3.0,temp_dist_trial,dist_items,qkpkxw,2.0,continue,,3158.2999997138977,3150.0,3158.2999997138977,3158.2999997138977,3150.0,3158.2999997138977,1.0,0.0,0.0,,Click To Continue,Next button,7.0,object-60,temp_dist_trial,3.0,s_sh_02_1,student_shared,eraser,7.0,competing,paired,s_sh_02_1.jpg,Student,,,sub-41
Desktop or Laptop,Windows 10,Chrome 137.0.0.0,1366x768,1366x599,Temporal Distance Task,cb_07,3.0,temp_dist_trial,dist_items,qkpkxw,2.0,response,58,1266.7999999999993,3150.0,3158.7999997138977,1266.7999999999993,3150.0,3158.7999997138977,1.0,1891.9999997138987,0.0,,Slider,Slider,4.0,object-56,temp_dist_trial,3.0,s_sh_02_1,student_shared,eraser,7.0,competing,paired,s_sh_02_1.jpg,Student,,,sub-41
Desktop or Laptop,Windows 10,Chrome 137.0.0.0,1366x768,1366x599,Temporal Distance Task,cb_07,4.0,temp_dist_trial,num_items,zn7si1,1.0,response,2_ITEM,1400.0,1382.9000000000015,1400.0,1400.0,1382.9000000000015,1400.0,1.0,0.0,0.0,,Click Response,2_count,5.0,object-49,temp_dist_trial,4.0,s_sh_07_1,student_shared,ruler,7.0,competing,paired,s_sh_07_1.jpg,Student,,,sub-41
Desktop or Laptop,Windows 10,Chrome 137.0.0.0,1366x768,1366x599,Temporal Distance Task,cb_07,4.0,temp_dist_trial,dist_items,qkpkxw,2.0,info,,4.299999713897705,0.0,4.299999713897705,4.299999713897705,0.0,4.299999713897705,1.0,0.0,0.0,,Slider,Slider,4.0,object-56,temp_dist_trial,4.0,s_sh_07_1,student_shared,ruler,7.0,competing,paired,s_sh_07_1.jpg,Student,,,sub-41
Desktop or Laptop,Windows 10,Chrome 137.0.0.0,1366x768,1366x599,Temporal Distance Task,cb_07,4.0,temp_dist_trial,dist_items,qkpkxw,2.0,continue,,2648.0,2632.5,2648.0,2648.0,2632.5,2648.0,1.0,0.0,0.0,,Click To Continue,Next button,7.0,object-60,temp_dist_trial,4.0,s_sh_07_1,student_shared,ruler,7.0,competing,paired,s_sh_07_1.jpg,Student,,,sub-41
Desktop or Laptop,Windows 10,Chrome 137.0.0.0,1366x768,1366x599,Temporal Distance Task,cb_07,4.0,temp_dist_trial,dist_items,qkpkxw,2.0,response,87,816.5,2632.5,2648.900000000001,816.5,2632.5,2648.900000000001,1.0,1832.4000000000005,0.0,,Slider,Slider,4.0,object-56,temp_dist_trial,4.0,s_sh_07_1,student_shared,ruler,7.0,competing,paired,s_sh_07_1.jpg,Student,,,sub-41
Desktop or Laptop,Windows 10,Chrome 137.0.0.0,1366x768,1366x599,Temporal Distance Task,cb_07,5.0,temp_dist_trial,num_items,zn7si1,1.0,response,2_ITEM,1695.0999999046326,1683.5999999999985,1695.0999999046326,1695.0999999046326,1683.5999999999985,1695.0999999046326,1.0,0.0,0.0,,Click Response,2_count,5.0,object-49,temp_dist_trial,5.0,s_s_16_1,student_stem,toolbox,7.0,unique,paired,s_s_16_1.jpg,Student,,,sub-41
Desktop or Laptop,Windows 10,Chrome 137.0.0.0,1366x768,1366x599,Temporal Distance Task,cb_07,5.0,temp_dist_trial,dist_items,qkpkxw,2.0,info,,4.199999809265137,0.0,4.199999809265137,4.199999809265137,0.0,4.199999809265137,1.0,0.0,0.0,,Slider,Slider,4.0,object-56,temp_dist_trial,5.0,s_s_16_1,student_stem,toolbox,7.0,unique,paired,s_s_16_1.jpg,Student,,,sub-41
Desktop or Laptop,Windows 10,Chrome 137.0.0.0,1366x768,1366x599,Temporal Distance Task,cb_07,5.0,temp_dist_trial,dist_items,qkpkxw,2.0,continue,,1577.2999997138975,1566.0,1577.2999997138975,1577.2999997138975,1566.0,1577.2999997138975,1.0,0.0,0.0,,Click To Continue,Next button,7.0,object-60,temp_dist_trial,5.0,s_s_16_1,student_stem,toolbox,7.0,unique,paired,s_s_16_1.jpg,Student,,,sub-41
Desktop or Laptop,Windows 10,Chrome 137.0.0.0,1366x768,1366x599,Temporal Distance Task,cb_07,5.0,temp_dist_trial,dist_items,qkpkxw,2.0,response,44,482.6999999999971,1566.0,1577.5999999046326,482.6999999999971,1566.0,1577.5999999046326,1.0,1094.8999999046357,0.0,,Slider,Slider,4.0,object-56,temp_dist_trial,5.0,s_s_16_1,student_stem,toolbox,7.0,unique,paired,s_s_16_1.jpg,Student,,,sub-41
Desktop or Laptop,Windows 10,Chrome 137.0.0.0,1366x768,1366x599,Temporal Distance Task,cb_07,6.0,temp_dist_trial,num_items,zn7si1,1.0,response,1_ITEM,1179.5,1166.4000000000015,1179.5,1179.5,1166.4000000000015,1179.5,1.0,0.0,0.0,,Click Response,1_count,3.0,object-46,temp_dist_trial,6.0,s_a_18_1,student_art,tutu,7.0,unique,paired,s_a_18_1.jpg,Student,,,sub-41
Desktop or Laptop,Windows 10,Chrome 137.0.0.0,1366x768,1366x599,Temporal Distance Task,cb_07,7.0,temp_dist_trial,num_items,zn7si1,1.0,response,2_ITEM,1314.8999999046355,1299.8000000000031,1314.8999999046355,1314.8999999046355,1299.8000000000031,1314.8999999046355,1.0,0.0,0.0,,Click Response,2_count,5.0,object-49,temp_dist_trial,7.0,s_a_05_1,student_art,clay,7.0,unique,paired,s_a_05_1.jpg,Student,,,sub-41
Desktop or Laptop,Windows 10,Chrome 137.0.0.0,1366x768,1366x599,Temporal Distance Task,cb_07,7.0,temp_dist_trial,dist_items,qkpkxw,2.0,info,,4.300000095368887,0.0,4.300000095368887,4.300000095368887,0.0,4.300000095368887,1.0,0.0,0.0,,Slider,Slider,4.0,object-56,temp_dist_trial,7.0,s_a_05_1,student_art,clay,7.0,unique,paired,s_a_05_1.jpg,Student,,,sub-41
Desktop or Laptop,Windows 10,Chrome 137.0.0.0,1366x768,1366x599,Temporal Distance Task,cb_07,7.0,temp_dist_trial,dist_items,qkpkxw,2.0,continue,,2148.099999809266,2132.400000000001,2148.099999809266,2148.099999809266,2132.400000000001,2148.099999809266,1.0,0.0,0.0,,Click To Continue,Next button,7.0,object-60,temp_dist_trial,7.0,s_a_05_1,student_art,clay,7.0,unique,paired,s_a_05_1.jpg,Student,,,sub-41
Desktop or Laptop,Windows 10,Chrome 137.0.0.0,1366x768,1366x599,Temporal Distance Task,cb_07,7.0,temp_dist_trial,dist_items,qkpkxw,2.0,response,59,599.8000000000029,2132.400000000001,2148.599999809266,599.8000000000029,2132.400000000001,2148.599999809266,1.0,1548.7999998092637,0.0,,Slider,Slider,4.0,object-56,temp_dist_trial,7.0,s_a_05_1,student_art,clay,7.0,unique,paired,s_a_05_1.jpg,Student,,,sub-41
Desktop or Laptop,Windows 10,Chrome 137.0.0.0,1366x768,1366x599,Temporal Distance Task,cb_07,8.0,temp_dist_trial,num_items,zn7si1,1.0,response,1_ITEM,1632.4000000953674,1616.4000000000015,1632.4000000953674,1632.4000000953674,1616.4000000000015,1632.4000000953674,1.0,0.0,0.0,,Click Response,1_count,3.0,object-46,temp_dist_trial,8.0,s_sh_04_1,student_shared,laptop stand,7.0,competing,single,s_sh_04_1.jpg,Student,,,sub-41
Desktop or Laptop,Windows 10,Chrome 137.0.0.0,1366x768,1366x599,Temporal Distance Task,cb_07,9.0,temp_dist_trial,num_items,zn7si1,1.0,response,2_ITEM,1149.2999997138975,1133.0,1149.2999997138975,1149.2999997138975,1133.0,1149.2999997138975,1.0,0.0,0.0,,Click Response,2_count,5.0,object-49,temp_dist_trial,9.0,s_a_14_1,student_art,guitar pick,7.0,unique,paired,s_a_14_1.jpg,Student,,,sub-41
Desktop or Laptop,Windows 10,Chrome 137.0.0.0,1366x768,1366x599,Temporal Distance Task,cb_07,9.0,temp_dist_trial,dist_items,qkpkxw,2.0,info,,4.1999999999970905,0.0,4.1999999999970905,4.1999999999970905,0.0,4.1999999999970905,1.0,0.0,0.0,,Slider,Slider,4.0,object-56,temp_dist_trial,9.0,s_a_14_1,student_art,guitar pick,7.0,unique,paired,s_a_14_1.jpg,Student,,,sub-41
Desktop or Laptop,Windows 10,Chrome 137.0.0.0,1366x768,1366x599,Temporal Distance Task,cb_07,9.0,temp_dist_trial,dist_items,qkpkxw,2.0,continue,,1358.4999997138948,1349.5,1358.4999997138948,1358.4999997138948,1349.5,1358.4999997138948,1.0,0.0,0.0,,Click To Continue,Next button,7.0,object-60,temp_dist_trial,9.0,s_a_14_1,student_art,guitar pick,7.0,unique,paired,s_a_14_1.jpg,Student,,,sub-41
Desktop or Laptop,Windows 10,Chrome 137.0.0.0,1366x768,1366x599,Temporal Distance Task,cb_07,9.0,temp_dist_trial,dist_items,qkpkxw,2.0,response,29,599.8999999999943,1349.5,1358.9999997138948,599.8999999999943,1349.5,1358.9999997138948,1.0,759.0999997139006,0.0,,Slider,Slider,4.0,object-56,temp_dist_trial,9.0,s_a_14_1,student_art,guitar pick,7.0,unique,paired,s_a_14_1.jpg,Student,,,sub-41
Desktop or Laptop,Windows 10,Chrome 137.0.0.0,1366x768,1366x599,Temporal Distance Task,cb_07,10.0,temp_dist_trial,num_items,zn7si1,1.0,response,1_ITEM,1161.1000000953645,1149.7999999999956,1161.1000000953645,1161.1000000953645,1149.7999999999956,1161.1000000953645,1.0,0.0,0.0,,Click Response,1_count,3.0,object-46,temp_dist_trial,10.0,s_a_01_1,student_art,paintbrush,7.0,unique,paired,s_a_01_1.jpg,Student,,,sub-41
Desktop or Laptop,Windows 10,Chrome 137.0.0.0,1366x768,1366x599,Temporal Distance Task,cb_07,11.0,temp_dist_trial,num_items,zn7si1,1.0,response,1_ITEM,1232.8999997138962,1216.5999999999985,1232.8999997138962,1232.8999997138962,1216.5999999999985,1232.8999997138962,1.0,0.0,0.0,,Click Response,1_count,3.0,object-46,temp_dist_trial,11.0,s_sh_16_1,student_shared,stapler,7.0,competing,paired,s_sh_16_1.jpg,Student,,,sub-41
Desktop or Laptop,Windows 10,Chrome 137.0.0.0,1366x768,1366x599,Temporal Distance Task,cb_07,12.0,temp_dist_trial,num_items,zn7si1,1.0,response,1_ITEM,1206.7999997138975,1200.0999999999985,1206.7999997138975,1206.7999997138975,1200.0999999999985,1206.7999997138975,1.0,0.0,0.0,,Click Response,1_count,3.0,object-46,temp_dist_trial,12.0,s_a_07_1,student_art,yarn,7.0,unique,paired,s_a_07_1.jpg,Student,,,sub-41
Desktop or Laptop,Windows 10,Chrome 137.0.0.0,1366x768,1366x599,Temporal Distance Task,cb_07,13.0,temp_dist_trial,num_items,zn7si1,1.0,response,2_ITEM,1029.300000095369,1016.5,1029.300000095369,1029.300000095369,1016.5,1029.300000095369,1.0,0.0,0.0,,Click Response,2_count,5.0,object-49,temp_dist_trial,13.0,s_sh_21_1,student_shared,file holder,7.0,competing,paired,s_sh_21_1.jpg,Student,,,sub-41
Desktop or Laptop,Windows 10,Chrome 137.0.0.0,1366x768,1366x599,Temporal Distance Task,cb_07,13.0,temp_dist_trial,dist_items,qkpkxw,2.0,info,,4.299999904629659,0.0,4.299999904629659,4.299999904629659,0.0,4.299999904629659,1.0,0.0,0.0,,Slider,Slider,4.0,object-56,temp_dist_trial,13.0,s_sh_21_1,student_shared,file holder,7.0,competing,paired,s_sh_21_1.jpg,Student,,,sub-41
Desktop or Laptop,Windows 10,Chrome 137.0.0.0,1366x768,1366x599,Temporal Distance Task,cb_07,13.0,temp_dist_trial,dist_items,qkpkxw,2.0,continue,,1226.6000000953645,1216.5,1226.6000000953645,1226.6000000953645,1216.5,1226.6000000953645,1.0,0.0,0.0,,Click To Continue,Next button,7.0,object-60,temp_dist_trial,13.0,s_sh_21_1,student_shared,file holder,7.0,competing,paired,s_sh_21_1.jpg,Student,,,sub-41
Desktop or Laptop,Windows 10,Chrome 137.0.0.0,1366x768,1366x599,Temporal Distance Task,cb_07,13.0,temp_dist_trial,dist_items,qkpkxw,2.0,response,61,582.8999999999943,1216.5,1226.9999997138948,582.8999999999943,1216.5,1226.9999997138948,1.0,644.0999997139006,0.0,,Slider,Slider,4.0,object-56,temp_dist_trial,13.0,s_sh_21_1,student_shared,file holder,7.0,competing,paired,s_sh_21_1.jpg,Student,,,sub-41
Desktop or Laptop,Windows 10,Chrome 137.0.0.0,1366x768,1366x599,Temporal Distance Task,cb_07,14.0,temp_dist_trial,num_items,zn7si1,1.0,response,2_ITEM,1097.6000000953643,1082.5,1097.6000000953643,1097.6000000953643,1082.5,1097.6000000953643,1.0,0.0,0.0,,Click Response,2_count,5.0,object-49,temp_dist_trial,14.0,s_sh_11_1,student_shared,pencil case,7.0,competing,paired,s_sh_11_1.jpg,Student,,,sub-41
Desktop or Laptop,Windows 10,Chrome 137.0.0.0,1366x768,1366x599,Temporal Distance Task,cb_07,14.0,temp_dist_trial,dist_items,qkpkxw,2.0,info,,4.399999809262227,0.0,4.399999809262227,4.399999809262227,0.0,4.399999809262227,1.0,0.0,0.0,,Slider,Slider,4.0,object-56,temp_dist_trial,14.0,s_sh_11_1,student_shared,pencil case,7.0,competing,paired,s_sh_11_1.jpg,Student,,,sub-41
Desktop or Laptop,Windows 10,Chrome 137.0.0.0,1366x768,1366x599,Temporal Distance Task,cb_07,14.0,temp_dist_trial,dist_items,qkpkxw,2.0,continue,,1820.2999999046292,1816.3999999999944,1820.2999999046292,1820.2999999046292,1816.3999999999944,1820.2999999046292,1.0,0.0,0.0,,Click To Continue,Next button,7.0,object-60,temp_dist_trial,14.0,s_sh_11_1,student_shared,pencil case,7.0,competing,paired,s_sh_11_1.jpg,Student,,,sub-41
Desktop or Laptop,Windows 10,Chrome 137.0.0.0,1366x768,1366x599,Temporal Distance Task,cb_07,14.0,temp_dist_trial,dist_items,qkpkxw,2.0,response,87,616.0999999999984,1816.3999999999944,1820.6000000953643,616.0999999999984,1816.3999999999944,1820.6000000953643,1.0,1204.500000095366,0.0,,Slider,Slider,4.0,object-56,temp_dist_trial,14.0,s_sh_11_1,student_shared,pencil case,7.0,competing,paired,s_sh_11_1.jpg,Student,,,sub-41
Desktop or Laptop,Windows 10,Chrome 137.0.0.0,1366x768,1366x599,Temporal Distance Task,cb_07,15.0,temp_dist_trial,num_items,zn7si1,1.0,response,2_ITEM,2635.800000000003,2632.7000000000044,2635.800000000003,2635.800000000003,2632.7000000000044,2635.800000000003,1.0,0.0,0.0,,Click Response,2_count,5.0,object-49,temp_dist_trial,15.0,s_sh_05_1,student_shared,laptop,7.0,competing,paired,s_sh_05_1.jpg,Student,,,sub-41
Desktop or Laptop,Windows 10,Chrome 137.0.0.0,1366x768,1366x599,Temporal Distance Task,cb_07,15.0,temp_dist_trial,dist_items,qkpkxw,2.0,info,,4.199999809265137,0.0,4.199999809265137,4.199999809265137,0.0,4.199999809265137,1.0,0.0,0.0,,Slider,Slider,4.0,object-56,temp_dist_trial,15.0,s_sh_05_1,student_shared,laptop,7.0,competing,paired,s_sh_05_1.jpg,Student,,,sub-41
Desktop or Laptop,Windows 10,Chrome 137.0.0.0,1366x768,1366x599,Temporal Distance Task,cb_07,15.0,temp_dist_trial,dist_items,qkpkxw,2.0,continue,,1185.2999997138975,1182.6999999999969,1185.2999997138975,1185.2999997138975,1182.6999999999969,1185.2999997138975,1.0,0.0,0.0,,Click To Continue,Next button,7.0,object-60,temp_dist_trial,15.0,s_sh_05_1,student_shared,laptop,7.0,competing,paired,s_sh_05_1.jpg,Student,,,sub-41
Desktop or Laptop,Windows 10,Chrome 137.0.0.0,1366x768,1366x599,Temporal Distance Task,cb_07,15.0,temp_dist_trial,dist_items,qkpkxw,2.0,response,69,600.0,1182.6999999999969,1185.5999999046326,600.0,1182.6999999999969,1185.5999999046326,1.0,585.5999999046327,0.0,,Slider,Slider,4.0,object-56,temp_dist_trial,15.0,s_sh_05_1,student_shared,laptop,7.0,competing,paired,s_sh_05_1.jpg,Student,,,sub-41
Desktop or Laptop,Windows 10,Chrome 137.0.0.0,1366x768,1366x599,Temporal Distance Task,cb_07,16.0,temp_dist_trial,num_items,zn7si1,1.0,response,2_ITEM,1738.8999999046357,1733.6000000000058,1738.8999999046357,1738.8999999046357,1733.6000000000058,1738.8999999046357,1.0,0.0,0.0,,Click Response,2_count,5.0,object-49,temp_dist_trial,16.0,s_sh_06_1,student_shared,clipboard,7.0,competing,paired,s_sh_06_1.jpg,Student,,,sub-41
Desktop or Laptop,Windows 10,Chrome 137.0.0.0,1366x768,1366x599,Temporal Distance Task,cb_07,16.0,temp_dist_trial,dist_items,qkpkxw,2.0,info,,4.3000000000029095,0.0,4.3000000000029095,4.3000000000029095,0.0,4.3000000000029095,1.0,0.0,0.0,,Slider,Slider,4.0,object-56,temp_dist_trial,16.0,s_sh_06_1,student_shared,clipboard,7.0,competing,paired,s_sh_06_1.jpg,Student,,,sub-41
Desktop or Laptop,Windows 10,Chrome 137.0.0.0,1366x768,1366x599,Temporal Distance Task,cb_07,16.0,temp_dist_trial,dist_items,qkpkxw,2.0,continue,,1242.999999809268,1233.1999999999969,1242.999999809268,1242.999999809268,1233.1999999999969,1242.999999809268,1.0,0.0,0.0,,Click To Continue,Next button,7.0,object-60,temp_dist_trial,16.0,s_sh_06_1,student_shared,clipboard,7.0,competing,paired,s_sh_06_1.jpg,Student,,,sub-41
Desktop or Laptop,Windows 10,Chrome 137.0.0.0,1366x768,1366x599,Temporal Distance Task,cb_07,16.0,temp_dist_trial,dist_items,qkpkxw,2.0,response,67,649.5,1233.1999999999969,1243.499999809268,649.5,1233.1999999999969,1243.499999809268,1.0,593.999999809268,0.0,,Slider,Slider,4.0,object-56,temp_dist_trial,16.0,s_sh_06_1,student_shared,clipboard,7.0,competing,paired,s_sh_06_1.jpg,Student,,,sub-41
Desktop or Laptop,Windows 10,Chrome 137.0.0.0,1366x768,1366x599,Temporal Distance Task,cb_07,17.0,temp_dist_trial,num_items,zn7si1,1.0,response,2_ITEM,1914.1000000000056,1899.5,1914.1000000000056,1914.1000000000056,1899.5,1914.1000000000056,1.0,0.0,0.0,,Click Response,2_count,5.0,object-49,temp_dist_trial,17.0,s_s_10_1,student_stem,3d molecule,7.0,unique,paired,s_s_10_1.jpg,Student,,,sub-41
Desktop or Laptop,Windows 10,Chrome 137.0.0.0,1366x768,1366x599,Temporal Distance Task,cb_07,17.0,temp_dist_trial,dist_items,qkpkxw,2.0,info,,5.599999809259317,0.0,5.599999809259317,5.599999809259317,0.0,5.599999809259317,1.0,0.0,0.0,,Slider,Slider,4.0,object-56,temp_dist_trial,17.0,s_s_10_1,student_stem,3d molecule,7.0,unique,paired,s_s_10_1.jpg,Student,,,sub-41
Desktop or Laptop,Windows 10,Chrome 137.0.0.0,1366x768,1366x599,Temporal Distance Task,cb_07,17.0,temp_dist_trial,dist_items,qkpkxw,2.0,continue,,1339.9999999046267,1332.8999999999942,1339.9999999046267,1339.9999999046267,1332.8999999999942,1339.9999999046267,1.0,0.0,0.0,,Click To Continue,Next button,7.0,object-60,temp_dist_trial,17.0,s_s_10_1,student_stem,3d molecule,7.0,unique,paired,s_s_10_1.jpg,Student,,,sub-41
Desktop or Laptop,Windows 10,Chrome 137.0.0.0,1366x768,1366x599,Temporal Distance Task,cb_07,17.0,temp_dist_trial,dist_items,qkpkxw,2.0,response,47,633.0999999999913,1332.8999999999942,1340.199999713892,633.0999999999913,1332.8999999999942,1340.199999713892,1.0,707.0999997139006,0.0,,Slider,Slider,4.0,object-56,temp_dist_trial,17.0,s_s_10_1,student_stem,3d molecule,7.0,unique,paired,s_s_10_1.jpg,Student,,,sub-41
Desktop or Laptop,Windows 10,Chrome 137.0.0.0,1366x768,1366x599,Temporal Distance Task,cb_07,18.0,temp_dist_trial,num_items,zn7si1,1.0,response,2_ITEM,1631.1999998092651,1616.5,1631.1999998092651,1631.1999998092651,1616.5,1631.1999998092651,1.0,0.0,0.0,,Click Response,2_count,5.0,object-49,temp_dist_trial,18.0,s_a_12_1,student_art,saxophone,7.0,unique,paired,s_a_12_1.jpg,Student,,,sub-41
Desktop or Laptop,Windows 10,Chrome 137.0.0.0,1366x768,1366x599,Temporal Distance Task,cb_07,18.0,temp_dist_trial,dist_items,qkpkxw,2.0,info,,4.099999809259316,0.0,4.099999809259316,4.099999809259316,0.0,4.099999809259316,1.0,0.0,0.0,,Slider,Slider,4.0,object-56,temp_dist_trial,18.0,s_a_12_1,student_art,saxophone,7.0,unique,paired,s_a_12_1.jpg,Student,,,sub-41
Desktop or Laptop,Windows 10,Chrome 137.0.0.0,1366x768,1366x599,Temporal Distance Task,cb_07,18.0,temp_dist_trial,dist_items,qkpkxw,2.0,continue,,1372.699999713892,1366.2999999999886,1372.699999713892,1372.699999713892,1366.2999999999886,1372.699999713892,1.0,0.0,0.0,,Click To Continue,Next button,7.0,object-60,temp_dist_trial,18.0,s_a_12_1,student_art,saxophone,7.0,unique,paired,s_a_12_1.jpg,Student,,,sub-41
Desktop or Laptop,Windows 10,Chrome 137.0.0.0,1366x768,1366x599,Temporal Distance Task,cb_07,18.0,temp_dist_trial,dist_items,qkpkxw,2.0,response,43,632.5,1366.2999999999886,1373.099999809259,632.5,1366.2999999999886,1373.099999809259,1.0,740.5999998092592,0.0,,Slider,Slider,4.0,object-56,temp_dist_trial,18.0,s_a_12_1,student_art,saxophone,7.0,unique,paired,s_a_12_1.jpg,Student,,,sub-41
Desktop or Laptop,Windows 10,Chrome 137.0.0.0,1366x768,1366x599,Temporal Distance Task,cb_07,19.0,temp_dist_trial,num_items,zn7si1,1.0,response,2_ITEM,1830.799999809271,1815.900000000009,1830.799999809271,1830.799999809271,1815.900000000009,1830.799999809271,1.0,0.0,0.0,,Click Response,2_count,5.0,object-49,temp_dist_trial,19.0,s_s_15_1,student_stem,jumper cables,7.0,unique,paired,s_s_15_1.jpg,Student,,,sub-41
Desktop or Laptop,Windows 10,Chrome 137.0.0.0,1366x768,1366x599,Temporal Distance Task,cb_07,19.0,temp_dist_trial,dist_items,qkpkxw,2.0,info,,4.299999904629659,0.0,4.299999904629659,4.299999904629659,0.0,4.299999904629659,1.0,0.0,0.0,,Slider,Slider,4.0,object-56,temp_dist_trial,19.0,s_s_15_1,student_stem,jumper cables,7.0,unique,paired,s_s_15_1.jpg,Student,,,sub-41
Desktop or Laptop,Windows 10,Chrome 137.0.0.0,1366x768,1366x599,Temporal Distance Task,cb_07,19.0,temp_dist_trial,dist_items,qkpkxw,2.0,continue,,2235.2999999046297,2232.3999999999937,2235.2999999046297,2235.2999999046297,2232.3999999999937,2235.2999999046297,1.0,0.0,0.0,,Click To Continue,Next button,7.0,object-60,temp_dist_trial,19.0,s_s_15_1,student_stem,jumper cables,7.0,unique,paired,s_s_15_1.jpg,Student,,,sub-41
Desktop or Laptop,Windows 10,Chrome 137.0.0.0,1366x768,1366x599,Temporal Distance Task,cb_07,19.0,temp_dist_trial,dist_items,qkpkxw,2.0,response,51,532.8000000000029,2232.3999999999937,2235.699999999997,532.8000000000029,2232.3999999999937,2235.699999999997,1.0,1702.8999999999942,0.0,,Slider,Slider,4.0,object-56,temp_dist_trial,19.0,s_s_15_1,student_stem,jumper cables,7.0,unique,paired,s_s_15_1.jpg,Student,,,sub-41
Desktop or Laptop,Windows 10,Chrome 137.0.0.0,1366x768,1366x599,Temporal Distance Task,cb_07,20.0,temp_dist_trial,num_items,zn7si1,1.0,response,1_ITEM,2115.7000000953703,2100.0,2115.7000000953703,2115.7000000953703,2100.0,2115.7000000953703,1.0,0.0,0.0,,Click Response,1_count,3.0,object-46,temp_dist_trial,20.0,s_s_11_1,student_stem,scientific scale,7.0,unique,paired,s_s_11_1.jpg,Student,,,sub-41
Desktop or Laptop,Windows 10,Chrome 137.0.0.0,1366x768,1366x599,Temporal Distance Task,cb_07,21.0,temp_dist_trial,num_items,zn7si1,1.0,response,1_ITEM,1629.8999998092625,1616.6999999999966,1629.8999998092625,1629.8999998092625,1616.6999999999966,1629.8999998092625,1.0,0.0,0.0,,Click Response,1_count,3.0,object-46,temp_dist_trial,21.0,s_s_17_1,student_stem,ring stand,7.0,unique,single,s_s_17_1.jpg,Student,,,sub-41
Desktop or Laptop,Windows 10,Chrome 137.0.0.0,1366x768,1366x599,Temporal Distance Task,cb_07,22.0,temp_dist_trial,num_items,zn7si1,1.0,response,1_ITEM,1018.799999809271,1016.6000000000058,1018.799999809271,1018.799999809271,1016.6000000000058,1018.799999809271,1.0,0.0,0.0,,Click Response,1_count,3.0,object-46,temp_dist_trial,22.0,s_sh_17_1,student_shared,wireless mouse,7.0,competing,single,s_sh_17_1.jpg,Student,,,sub-41
Desktop or Laptop,Windows 10,Chrome 137.0.0.0,1366x768,1366x599,Temporal Distance Task,cb_07,23.0,temp_dist_trial,num_items,zn7si1,1.0,response,1_ITEM,1273.199999713892,1266.8999999999942,1273.199999713892,1273.199999713892,1266.8999999999942,1273.199999713892,1.0,0.0,0.0,,Click Response,1_count,3.0,object-46,temp_dist_trial,23.0,s_sh_20_1,student_shared,tape,7.0,competing,single,s_sh_20_1.jpg,Student,,,sub-41
Desktop or Laptop,Windows 10,Chrome 137.0.0.0,1366x768,1366x599,Temporal Distance Task,cb_07,24.0,temp_dist_trial,num_items,zn7si1,1.0,response,1_ITEM,1117.0,1100.1999999999969,1117.0,1117.0,1100.1999999999969,1117.0,1.0,0.0,0.0,,Click Response,1_count,3.0,object-46,temp_dist_trial,24.0,s_sh_12_1,student_shared,binder,7.0,competing,paired,s_sh_12_1.jpg,Student,,,sub-41
Desktop or Laptop,Windows 10,Chrome 137.0.0.0,1366x768,1366x599,Temporal Distance Task,cb_07,25.0,temp_dist_trial,num_items,zn7si1,1.0,response,1_ITEM,1222.6999998092654,1216.8000000000031,1222.6999998092654,1222.6999998092654,1216.8000000000031,1222.6999998092654,1.0,0.0,0.0,,Click Response,1_count,3.0,object-46,temp_dist_trial,25.0,s_s_03_1,student_stem,petri dish,7.0,unique,single,s_s_03_1.jpg,Student,,,sub-41
Desktop or Laptop,Windows 10,Chrome 137.0.0.0,1366x768,1366x599,Temporal Distance Task,cb_07,26.0,temp_dist_trial,num_items,zn7si1,1.0,response,2_ITEM,1188.3999999046355,1183.1999999999969,1188.3999999046355,1188.3999999046355,1183.1999999999969,1188.3999999046355,1.0,0.0,0.0,,Click Response,2_count,5.0,object-49,temp_dist_trial,26.0,s_sh_01_1,student_shared,notebook,7.0,competing,single,s_sh_01_1.jpg,Student,,,sub-41
Desktop or Laptop,Windows 10,Chrome 137.0.0.0,1366x768,1366x599,Temporal Distance Task,cb_07,26.0,temp_dist_trial,dist_items,qkpkxw,2.0,info,,3.6999998092651367,0.0,3.6999998092651367,3.6999998092651367,0.0,3.6999998092651367,1.0,0.0,0.0,,Slider,Slider,4.0,object-56,temp_dist_trial,26.0,s_sh_01_1,student_shared,notebook,7.0,competing,single,s_sh_01_1.jpg,Student,,,sub-41
Desktop or Laptop,Windows 10,Chrome 137.0.0.0,1366x768,1366x599,Temporal Distance Task,cb_07,26.0,temp_dist_trial,dist_items,qkpkxw,2.0,continue,,1332.0999999046326,1316.5,1332.0999999046326,1332.0999999046326,1316.5,1332.0999999046326,1.0,0.0,0.0,,Click To Continue,Next button,7.0,object-60,temp_dist_trial,26.0,s_sh_01_1,student_shared,notebook,7.0,competing,single,s_sh_01_1.jpg,Student,,,sub-41
Desktop or Laptop,Windows 10,Chrome 137.0.0.0,1366x768,1366x599,Temporal Distance Task,cb_07,26.0,temp_dist_trial,dist_items,qkpkxw,2.0,response,73,466.1999999999971,1316.5,1333.5,466.1999999999971,1316.5,1333.5,1.0,867.3000000000029,0.0,,Slider,Slider,4.0,object-56,temp_dist_trial,26.0,s_sh_01_1,student_shared,notebook,7.0,competing,single,s_sh_01_1.jpg,Student,,,sub-41
Desktop or Laptop,Windows 10,Chrome 137.0.0.0,1366x768,1366x599,Temporal Distance Task,cb_07,27.0,temp_dist_trial,num_items,zn7si1,1.0,response,1_ITEM,998.5,982.8999999999942,998.5,998.5,982.8999999999942,998.5,1.0,0.0,0.0,,Click Response,1_count,3.0,object-46,temp_dist_trial,27.0,s_sh_18_1,student_shared,wall calendar,7.0,competing,single,s_sh_18_1.jpg,Student,,,sub-41
Desktop or Laptop,Windows 10,Chrome 137.0.0.0,1366x768,1366x599,Temporal Distance Task,cb_07,28.0,temp_dist_trial,num_items,zn7si1,1.0,response,1_ITEM,1189.599999809259,1183.2999999999886,1189.599999809259,1189.599999809259,1183.2999999999886,1189.599999809259,1.0,0.0,0.0,,Click Response,1_count,3.0,object-46,temp_dist_trial,28.0,s_sh_10_1,student_shared,scissors,7.0,competing,paired,s_sh_10_1.jpg,Student,,,sub-41
Desktop or Laptop,Windows 10,Chrome 137.0.0.0,1366x768,1366x599,Temporal Distance Task,cb_07,29.0,temp_dist_trial,num_items,zn7si1,1.0,response,2_ITEM,1244.099999809259,1233.1999999999969,1244.099999809259,1244.099999809259,1233.1999999999969,1244.099999809259,1.0,0.0,0.0,,Click Response,2_count,5.0,object-49,temp_dist_trial,29.0,s_sh_23_1,student_shared,ballpoint pen,7.0,competing,paired,s_sh_23_1.jpg,Student,,,sub-41
Desktop or Laptop,Windows 10,Chrome 137.0.0.0,1366x768,1366x599,Temporal Distance Task,cb_07,29.0,temp_dist_trial,dist_items,qkpkxw,2.0,info,,4.299999713897705,0.0,4.299999713897705,4.299999713897705,0.0,4.299999713897705,1.0,0.0,0.0,,Slider,Slider,4.0,object-56,temp_dist_trial,29.0,s_sh_23_1,student_shared,ballpoint pen,7.0,competing,paired,s_sh_23_1.jpg,Student,,,sub-41
Desktop or Laptop,Windows 10,Chrome 137.0.0.0,1366x768,1366x599,Temporal Distance Task,cb_07,29.0,temp_dist_trial,dist_items,qkpkxw,2.0,continue,,1129.2999997138975,1116.1999999999969,1129.2999997138975,1129.2999997138975,1116.1999999999969,1129.2999997138975,1.0,0.0,0.0,,Click To Continue,Next button,7.0,object-60,temp_dist_trial,29.0,s_sh_23_1,student_shared,ballpoint pen,7.0,competing,paired,s_sh_23_1.jpg,Student,,,sub-41
Desktop or Laptop,Windows 10,Chrome 137.0.0.0,1366x768,1366x599,Temporal Distance Task,cb_07,29.0,temp_dist_trial,dist_items,qkpkxw,2.0,response,75,516.6999999999971,1116.1999999999969,1129.5,516.6999999999971,1116.1999999999969,1129.5,1.0,612.8000000000029,0.0,,Slider,Slider,4.0,object-56,temp_dist_trial,29.0,s_sh_23_1,student_shared,ballpoint pen,7.0,competing,paired,s_sh_23_1.jpg,Student,,,sub-41
Desktop or Laptop,Windows 10,Chrome 137.0.0.0,1366x768,1366x599,Temporal Distance Task,cb_07,30.0,temp_dist_trial,num_items,zn7si1,1.0,response,2_ITEM,1156.999999809268,1150.1999999999969,1156.999999809268,1156.999999809268,1150.1999999999969,1156.999999809268,1.0,0.0,0.0,,Click Response,2_count,5.0,object-49,temp_dist_trial,30.0,s_a_06_1,student_art,pastels,7.0,unique,paired,s_a_06_1.jpg,Student,,,sub-41
Desktop or Laptop,Windows 10,Chrome 137.0.0.0,1366x768,1366x599,Temporal Distance Task,cb_07,30.0,temp_dist_trial,dist_items,qkpkxw,2.0,info,,3.7999998092709575,0.0,3.7999998092709575,3.7999998092709575,0.0,3.7999998092709575,1.0,0.0,0.0,,Slider,Slider,4.0,object-56,temp_dist_trial,30.0,s_a_06_1,student_art,pastels,7.0,unique,paired,s_a_06_1.jpg,Student,,,sub-41
Desktop or Laptop,Windows 10,Chrome 137.0.0.0,1366x768,1366x599,Temporal Distance Task,cb_07,30.0,temp_dist_trial,dist_items,qkpkxw,2.0,continue,,1060.8999997139038,1049.7000000000116,1060.8999997139038,1060.8999997139038,1049.7000000000116,1060.8999997139038,1.0,0.0,0.0,,Click To Continue,Next button,7.0,object-60,temp_dist_trial,30.0,s_a_06_1,student_art,pastels,7.0,unique,paired,s_a_06_1.jpg,Student,,,sub-41
Desktop or Laptop,Windows 10,Chrome 137.0.0.0,1366x768,1366x599,Temporal Distance Task,cb_07,30.0,temp_dist_trial,dist_items,qkpkxw,2.0,response,37,516.1000000000058,1049.7000000000116,1061.299999809271,516.1000000000058,1049.7000000000116,1061.299999809271,1.0,545.1999998092651,0.0,,Slider,Slider,4.0,object-56,temp_dist_trial,30.0,s_a_06_1,student_art,pastels,7.0,unique,paired,s_a_06_1.jpg,Student,,,sub-41
Desktop or Laptop,Windows 10,Chrome 137.0.0.0,1366x768,1366x599,Temporal Distance Task,cb_07,31.0,temp_dist_trial,num_items,zn7si1,1.0,response,1_ITEM,891.1999997138919,883.3999999999942,891.1999997138919,891.1999997138919,883.3999999999942,891.1999997138919,1.0,0.0,0.0,,Click Response,1_count,3.0,object-46,temp_dist_trial,31.0,s_sh_14_1,student_shared,printer,7.0,competing,paired,s_sh_14_1.jpg,Student,,,sub-41
Desktop or Laptop,Windows 10,Chrome 137.0.0.0,1366x768,1366x599,Temporal Distance Task,cb_07,32.0,temp_dist_trial,num_items,zn7si1,1.0,response,2_ITEM,1174.3999998092622,1166.6999999999969,1174.3999998092622,1174.3999998092622,1166.6999999999969,1174.3999998092622,1.0,0.0,0.0,,Click Response,2_count,5.0,object-49,temp_dist_trial,32.0,s_sh_03_1,student_shared,highlighter,7.0,competing,paired,s_sh_03_1.jpg,Student,,,sub-41
Desktop or Laptop,Windows 10,Chrome 137.0.0.0,1366x768,1366x599,Temporal Distance Task,cb_07,32.0,temp_dist_trial,dist_items,qkpkxw,2.0,info,,3.6000000953645213,0.0,3.6000000953645213,3.6000000953645213,0.0,3.6000000953645213,1.0,0.0,0.0,,Slider,Slider,4.0,object-56,temp_dist_trial,32.0,s_sh_03_1,student_shared,highlighter,7.0,competing,paired,s_sh_03_1.jpg,Student,,,sub-41
Desktop or Laptop,Windows 10,Chrome 137.0.0.0,1366x768,1366x599,Temporal Distance Task,cb_07,32.0,temp_dist_trial,dist_items,qkpkxw,2.0,continue,,1229.6000000953645,1216.0,1229.6000000953645,1229.6000000953645,1216.0,1229.6000000953645,1.0,0.0,0.0,,Click To Continue,Next button,7.0,object-60,temp_dist_trial,32.0,s_sh_03_1,student_shared,highlighter,7.0,competing,paired,s_sh_03_1.jpg,Student,,,sub-41
Desktop or Laptop,Windows 10,Chrome 137.0.0.0,1366x768,1366x599,Temporal Distance Task,cb_07,32.0,temp_dist_trial,dist_items,qkpkxw,2.0,response,85,366.6999999999971,1216.0,1229.8999998092622,366.6999999999971,1216.0,1229.8999998092622,1.0,863.1999998092651,0.0,,Slider,Slider,4.0,object-56,temp_dist_trial,32.0,s_sh_03_1,student_shared,highlighter,7.0,competing,paired,s_sh_03_1.jpg,Student,,,sub-41
Desktop or Laptop,Windows 10,Chrome 137.0.0.0,1366x768,1366x599,Temporal Distance Task,cb_07,33.0,temp_dist_trial,num_items,zn7si1,1.0,response,1_ITEM,845.3999998092622,833.5,845.3999998092622,845.3999998092622,833.5,845.3999998092622,1.0,0.0,0.0,,Click Response,1_count,3.0,object-46,temp_dist_trial,33.0,s_a_08_1,student_art,sewing machine,7.0,unique,single,s_a_08_1.jpg,Student,,,sub-41
Desktop or Laptop,Windows 10,Chrome 137.0.0.0,1366x768,1366x599,Temporal Distance Task,cb_07,34.0,temp_dist_trial,num_items,zn7si1,1.0,response,1_ITEM,890.4999999046267,883.1999999999971,890.4999999046267,890.4999999046267,883.1999999999971,890.4999999046267,1.0,0.0,0.0,,Click Response,1_count,3.0,object-46,temp_dist_trial,34.0,s_sh_24_1,student_shared,desk organizer,7.0,competing,paired,s_sh_24_1.jpg,Student,,,sub-41
Desktop or Laptop,Windows 10,Chrome 137.0.0.0,1366x768,1366x599,Temporal Distance Task,cb_07,35.0,temp_dist_trial,num_items,zn7si1,1.0,response,1_ITEM,789.4999999046267,783.1999999999971,789.4999999046267,789.4999999046267,783.1999999999971,789.4999999046267,1.0,0.0,0.0,,Click Response,1_count,3.0,object-46,temp_dist_trial,35.0,s_s_08_1,student_stem,soldering iron,7.0,unique,paired,s_s_08_1.jpg,Student,,,sub-41
Desktop or Laptop,Windows 10,Chrome 137.0.0.0,1366x768,1366x599,Temporal Distance Task,cb_07,36.0,temp_dist_trial,num_items,zn7si1,1.0,response,1_ITEM,1147.6000000953645,1132.6999999999969,1147.6000000953645,1147.6000000953645,1132.6999999999969,1147.6000000953645,1.0,0.0,0.0,,Click Response,1_count,3.0,object-46,temp_dist_trial,36.0,s_a_03_1,student_art,palette,7.0,unique,single,s_a_03_1.jpg,Student,,,sub-41
Desktop or Laptop,Windows 10,Chrome 137.0.0.0,1366x768,1366x599,Temporal Distance Task,cb_07,37.0,temp_dist_trial,num_items,zn7si1,1.0,response,1_ITEM,1509.0,1499.8999999999942,1509.0,1509.0,1499.8999999999942,1509.0,1.0,0.0,0.0,,Click Response,1_count,3.0,object-46,temp_dist_trial,37.0,s_s_20_1,student_stem,dna model,7.0,unique,paired,s_s_20_1.jpg,Student,,,sub-41
Desktop or Laptop,Windows 10,Chrome 137.0.0.0,1366x768,1366x599,Temporal Distance Task,cb_07,38.0,temp_dist_trial,num_items,zn7si1,1.0,response,1_ITEM,1103.0,1100.1999999999969,1103.0,1103.0,1100.1999999999969,1103.0,1.0,0.0,0.0,,Click Response,1_count,3.0,object-46,temp_dist_trial,38.0,s_sh_22_1,student_shared,hole puncher,7.0,competing,single,s_sh_22_1.jpg,Student,,,sub-41
Desktop or Laptop,Windows 10,Chrome 137.0.0.0,1366x768,1366x599,Temporal Distance Task,cb_07,39.0,temp_dist_trial,num_items,zn7si1,1.0,response,2_ITEM,1401.3999998092625,1399.8999999999942,1401.3999998092625,1401.3999998092625,1399.8999999999942,1401.3999998092625,1.0,0.0,0.0,,Click Response,2_count,5.0,object-49,temp_dist_trial,39.0,s_sh_19_1,student_shared,portable plastic drawer,7.0,competing,paired,s_sh_19_1.jpg,Student,,,sub-41
Desktop or Laptop,Windows 10,Chrome 137.0.0.0,1366x768,1366x599,Temporal Distance Task,cb_07,39.0,temp_dist_trial,dist_items,qkpkxw,2.0,info,,3.299999809270957,0.0,3.299999809270957,3.299999809270957,0.0,3.299999809270957,1.0,0.0,0.0,,Slider,Slider,4.0,object-56,temp_dist_trial,39.0,s_sh_19_1,student_shared,portable plastic drawer,7.0,competing,paired,s_sh_19_1.jpg,Student,,,sub-41
Desktop or Laptop,Windows 10,Chrome 137.0.0.0,1366x768,1366x599,Temporal Distance Task,cb_07,39.0,temp_dist_trial,dist_items,qkpkxw,2.0,continue,,1047.3999997139038,1033.1000000000058,1047.3999997139038,1047.3999997139038,1033.1000000000058,1047.3999997139038,1.0,0.0,0.0,,Click To Continue,Next button,7.0,object-60,temp_dist_trial,39.0,s_sh_19_1,student_shared,portable plastic drawer,7.0,competing,paired,s_sh_19_1.jpg,Student,,,sub-41
Desktop or Laptop,Windows 10,Chrome 137.0.0.0,1366x768,1366x599,Temporal Distance Task,cb_07,39.0,temp_dist_trial,dist_items,qkpkxw,2.0,response,81,400.2000000000117,1033.1000000000058,1047.6000000000058,400.2000000000117,1033.1000000000058,1047.6000000000058,1.0,647.3999999999943,0.0,,Slider,Slider,4.0,object-56,temp_dist_trial,39.0,s_sh_19_1,student_shared,portable plastic drawer,7.0,competing,paired,s_sh_19_1.jpg,Student,,,sub-41
Desktop or Laptop,Windows 10,Chrome 137.0.0.0,1366x768,1366x599,Temporal Distance Task,cb_07,40.0,temp_dist_trial,num_items,zn7si1,1.0,response,1_ITEM,1614.4000000953674,1600.1999999999966,1614.4000000953674,1614.4000000953674,1600.1999999999966,1614.4000000953674,1.0,0.0,0.0,,Click Response,1_count,3.0,object-46,temp_dist_trial,40.0,s_sh_08_1,student_shared,post-its,7.0,competing,single,s_sh_08_1.jpg,Student,,,sub-41
Desktop or Laptop,Windows 10,Chrome 137.0.0.0,1366x768,1366x599,Temporal Distance Task,cb_07,41.0,temp_dist_trial,num_items,zn7si1,1.0,response,1_ITEM,724.4999997138948,716.6999999999971,724.4999997138948,724.4999997138948,716.6999999999971,724.4999997138948,1.0,0.0,0.0,,Click Response,1_count,3.0,object-46,temp_dist_trial,41.0,s_a_15_1,student_art,drum kit,7.0,unique,paired,s_a_15_1.jpg,Student,,,sub-41
Desktop or Laptop,Windows 10,Chrome 137.0.0.0,1366x768,1366x599,Temporal Distance Task,cb_07,42.0,temp_dist_trial,num_items,zn7si1,1.0,response,2_ITEM,1374.4000000953674,1366.5,1374.4000000953674,1374.4000000953674,1366.5,1374.4000000953674,1.0,0.0,0.0,,Click Response,2_count,5.0,object-49,temp_dist_trial,42.0,s_s_06_1,student_stem,calculator,7.0,unique,paired,s_s_06_1.jpg,Student,,,sub-41
Desktop or Laptop,Windows 10,Chrome 137.0.0.0,1366x768,1366x599,Temporal Distance Task,cb_07,42.0,temp_dist_trial,dist_items,qkpkxw,2.0,info,,3.3999997139035267,0.0,3.3999997139035267,3.3999997139035267,0.0,3.3999997139035267,1.0,0.0,0.0,,Slider,Slider,4.0,object-56,temp_dist_trial,42.0,s_s_06_1,student_stem,calculator,7.0,unique,paired,s_s_06_1.jpg,Student,,,sub-41
Desktop or Laptop,Windows 10,Chrome 137.0.0.0,1366x768,1366x599,Temporal Distance Task,cb_07,42.0,temp_dist_trial,dist_items,qkpkxw,2.0,continue,,1245.3999997139035,1233.0,1245.3999997139035,1245.3999997139035,1233.0,1245.3999997139035,1.0,0.0,0.0,,Click To Continue,Next button,7.0,object-60,temp_dist_trial,42.0,s_s_06_1,student_stem,calculator,7.0,unique,paired,s_s_06_1.jpg,Student,,,sub-41
Desktop or Laptop,Windows 10,Chrome 137.0.0.0,1366x768,1366x599,Temporal Distance Task,cb_07,42.0,temp_dist_trial,dist_items,qkpkxw,2.0,response,81,466.1000000000058,1233.0,1245.8999997139035,466.1000000000058,1233.0,1245.8999997139035,1.0,779.7999997138977,0.0,,Slider,Slider,4.0,object-56,temp_dist_trial,42.0,s_s_06_1,student_stem,calculator,7.0,unique,paired,s_s_06_1.jpg,Student,,,sub-41
Desktop or Laptop,Windows 10,Chrome 137.0.0.0,1366x768,1366x599,Temporal Distance Task,cb_07,43.0,temp_dist_trial,num_items,zn7si1,1.0,response,1_ITEM,836.3999997139035,833.1000000000058,836.3999997139035,836.3999997139035,833.1000000000058,836.3999997139035,1.0,0.0,0.0,,Click Response,1_count,3.0,object-46,temp_dist_trial,43.0,s_s_13_1,student_stem,telescope,7.0,unique,single,s_s_13_1.jpg,Student,,,sub-41
Desktop or Laptop,Windows 10,Chrome 137.0.0.0,1366x768,1366x599,Temporal Distance Task,cb_07,44.0,temp_dist_trial,num_items,zn7si1,1.0,response,1_ITEM,1105.1999999046384,1099.8000000000031,1105.1999999046384,1105.1999999046384,1099.8000000000031,1105.1999999046384,1.0,0.0,0.0,,Click Response,1_count,3.0,object-46,temp_dist_trial,44.0,s_a_13_1,student_art,violin,7.0,unique,single,s_a_13_1.jpg,Student,,,sub-41
Desktop or Laptop,Windows 10,Chrome 137.0.0.0,1366x768,1366x599,Temporal Distance Task,cb_07,45.0,temp_dist_trial,num_items,zn7si1,1.0,response,2_ITEM,1116.0,1100.1999999999969,1116.0,1116.0,1100.1999999999969,1116.0,1.0,0.0,0.0,,Click Response,2_count,5.0,object-49,temp_dist_trial,45.0,s_sh_15_1,student_shared,usb drive,7.0,competing,paired,s_sh_15_1.jpg,Student,,,sub-41
Desktop or Laptop,Windows 10,Chrome 137.0.0.0,1366x768,1366x599,Temporal Distance Task,cb_07,45.0,temp_dist_trial,dist_items,qkpkxw,2.0,info,,3.4999998092680467,0.0,3.4999998092680467,3.4999998092680467,0.0,3.4999998092680467,1.0,0.0,0.0,,Slider,Slider,4.0,object-56,temp_dist_trial,45.0,s_sh_15_1,student_shared,usb drive,7.0,competing,paired,s_sh_15_1.jpg,Student,,,sub-41
Desktop or Laptop,Windows 10,Chrome 137.0.0.0,1366x768,1366x599,Temporal Distance Task,cb_07,45.0,temp_dist_trial,dist_items,qkpkxw,2.0,continue,,1238.2000000953706,1233.1999999999969,1238.2000000953706,1238.2000000953706,1233.1999999999969,1238.2000000953706,1.0,0.0,0.0,,Click To Continue,Next button,7.0,object-60,temp_dist_trial,45.0,s_sh_15_1,student_shared,usb drive,7.0,competing,paired,s_sh_15_1.jpg,Student,,,sub-41
Desktop or Laptop,Windows 10,Chrome 137.0.0.0,1366x768,1366x599,Temporal Distance Task,cb_07,45.0,temp_dist_trial,dist_items,qkpkxw,2.0,response,80,566.5,1233.1999999999969,1238.499999809268,566.5,1233.1999999999969,1238.499999809268,1.0,671.999999809268,0.0,,Slider,Slider,4.0,object-56,temp_dist_trial,45.0,s_sh_15_1,student_shared,usb drive,7.0,competing,paired,s_sh_15_1.jpg,Student,,,sub-41
Desktop or Laptop,Windows 10,Chrome 137.0.0.0,1366x768,1366x599,Temporal Distance Task,cb_07,46.0,temp_dist_trial,num_items,zn7si1,1.0,response,1_ITEM,724.6000000000058,716.3000000000029,724.6000000000058,724.6000000000058,716.3000000000029,724.6000000000058,1.0,0.0,0.0,,Click Response,1_count,3.0,object-46,temp_dist_trial,46.0,s_s_14_1,student_stem,funnel,7.0,unique,single,s_s_14_1.jpg,Student,,,sub-41
Desktop or Laptop,Windows 10,Chrome 137.0.0.0,1366x768,1366x599,Temporal Distance Task,cb_07,47.0,temp_dist_trial,num_items,zn7si1,1.0,response,2_ITEM,1485.5999998092593,1483.5,1485.5999998092593,1485.5999998092593,1483.5,1485.5999998092593,1.0,0.0,0.0,,Click Response,2_count,5.0,object-49,temp_dist_trial,47.0,s_s_19_1,student_stem,circuit board,7.0,unique,paired,s_s_19_1.jpg,Student,,,sub-41
Desktop or Laptop,Windows 10,Chrome 137.0.0.0,1366x768,1366x599,Temporal Distance Task,cb_07,47.0,temp_dist_trial,dist_items,qkpkxw,2.0,info,,4.100000000005822,0.0,4.100000000005822,4.100000000005822,0.0,4.100000000005822,1.0,0.0,0.0,,Slider,Slider,4.0,object-56,temp_dist_trial,47.0,s_s_19_1,student_stem,circuit board,7.0,unique,paired,s_s_19_1.jpg,Student,,,sub-41
Desktop or Laptop,Windows 10,Chrome 137.0.0.0,1366x768,1366x599,Temporal Distance Task,cb_07,47.0,temp_dist_trial,dist_items,qkpkxw,2.0,continue,,1249.5000000953733,1233.5,1249.5000000953733,1249.5000000953733,1233.5,1249.5000000953733,1.0,0.0,0.0,,Click To Continue,Next button,7.0,object-60,temp_dist_trial,47.0,s_s_19_1,student_stem,circuit board,7.0,unique,paired,s_s_19_1.jpg,Student,,,sub-41
Desktop or Laptop,Windows 10,Chrome 137.0.0.0,1366x768,1366x599,Temporal Distance Task,cb_07,47.0,temp_dist_trial,dist_items,qkpkxw,2.0,response,62,699.9000000000087,1233.5,1249.8999997139035,699.9000000000087,1233.5,1249.8999997139035,1.0,549.9999997138948,0.0,,Slider,Slider,4.0,object-56,temp_dist_trial,47.0,s_s_19_1,student_stem,circuit board,7.0,unique,paired,s_s_19_1.jpg,Student,,,sub-41
Desktop or Laptop,Windows 10,Chrome 137.0.0.0,1366x768,1366x599,Temporal Distance Task,cb_07,48.0,temp_dist_trial,num_items,zn7si1,1.0,response,1_ITEM,1256.1000000000058,1249.8000000000031,1256.1000000000058,1256.1000000000058,1249.8000000000031,1256.1000000000058,1.0,0.0,0.0,,Click Response,1_count,3.0,object-46,temp_dist_trial,48.0,s_sh_09_1,student_shared,paper clips,7.0,competing,single,s_sh_09_1.jpg,Student,,,sub-41
Desktop or Laptop,Windows 10,Chrome 137.0.0.0,1366x768,1366x599,Temporal Distance Task,cb_07,2.0,temp_eventStart,Screen 1,dgtyxe,1.0,continue,,877.3999998092622,866.8999999999942,877.3999998092622,877.3999998092622,866.8999999999942,877.3999998092622,1.0,0.0,0.0,,Click To Continue,Next Button,3.0,object-43,temp_eventStart,,,Travel,,,,,,,,,sub-41
Desktop or Laptop,Windows 10,Chrome 137.0.0.0,1366x768,1366x599,Temporal Distance Task,cb_07,49.0,temp_dist_trial,num_items,zn7si1,1.0,response,1_ITEM,1865.6000000000056,1849.3000000000034,1865.6000000000056,1865.6000000000056,1849.3000000000034,1865.6000000000056,1.0,0.0,0.0,,Click Response,1_count,3.0,object-46,temp_dist_trial,1.0,t_i_04_1,travel_Iceland,portable camping stove,7.0,unique,paired,t_i_04_1.jpg,Travel,,,sub-41
Desktop or Laptop,Windows 10,Chrome 137.0.0.0,1366x768,1366x599,Temporal Distance Task,cb_07,50.0,temp_dist_trial,num_items,zn7si1,1.0,response,1_ITEM,766.3000000953616,749.7999999999884,766.3000000953616,766.3000000953616,749.7999999999884,766.3000000953616,1.0,0.0,0.0,,Click Response,1_count,3.0,object-46,temp_dist_trial,2.0,t_i_17_1,travel_Iceland,binoculars,7.0,unique,single,t_i_17_1.jpg,Travel,,,sub-41
Desktop or Laptop,Windows 10,Chrome 137.0.0.0,1366x768,1366x599,Temporal Distance Task,cb_07,51.0,temp_dist_trial,num_items,zn7si1,1.0,response,1_ITEM,862.4999997139093,849.9000000000232,862.4999997139093,862.4999997139093,849.9000000000232,862.4999997139093,1.0,0.0,0.0,,Click Response,1_count,3.0,object-46,temp_dist_trial,3.0,t_m_04_1,travel_Miami,UV jacket,7.0,unique,single,t_m_04_1.jpg,Travel,,,sub-41
Desktop or Laptop,Windows 10,Chrome 137.0.0.0,1366x768,1366x599,Temporal Distance Task,cb_07,52.0,temp_dist_trial,num_items,zn7si1,1.0,response,1_ITEM,833.5000000000291,816.7000000000116,833.5000000000291,833.5000000000291,816.7000000000116,833.5000000000291,1.0,0.0,0.0,,Click Response,1_count,3.0,object-46,temp_dist_trial,4.0,t_m_20_1,travel_Miami,inflatable beachball,7.0,unique,single,t_m_20_1.jpg,Travel,,,sub-41
Desktop or Laptop,Windows 10,Chrome 137.0.0.0,1366x768,1366x599,Temporal Distance Task,cb_07,53.0,temp_dist_trial,num_items,zn7si1,1.0,response,1_ITEM,1032.2999999999884,1016.5,1032.2999999999884,1032.2999999999884,1016.5,1032.2999999999884,1.0,0.0,0.0,,Click Response,1_count,3.0,object-46,temp_dist_trial,5.0,t_s_24_1,travel_shared,ear plugs,7.0,competing,single,t_s_24_1.jpg,Travel,,,sub-41
Desktop or Laptop,Windows 10,Chrome 137.0.0.0,1366x768,1366x599,Temporal Distance Task,cb_07,54.0,temp_dist_trial,num_items,zn7si1,1.0,response,2_ITEM,1149.199999713892,1132.8999999999942,1149.199999713892,1149.199999713892,1132.8999999999942,1149.199999713892,1.0,0.0,0.0,,Click Response,2_count,5.0,object-49,temp_dist_trial,6.0,t_s_16_1,travel_shared,chapstick,7.0,competing,paired,t_s_16_1.jpg,Travel,,,sub-41
Desktop or Laptop,Windows 10,Chrome 137.0.0.0,1366x768,1366x599,Temporal Distance Task,cb_07,54.0,temp_dist_trial,dist_items,qkpkxw,2.0,info,,3.3999999999941792,0.0,3.3999999999941792,3.3999999999941792,0.0,3.3999999999941792,1.0,0.0,0.0,,Slider,Slider,4.0,object-56,temp_dist_trial,6.0,t_s_16_1,travel_shared,chapstick,7.0,competing,paired,t_s_16_1.jpg,Travel,,,sub-41
Desktop or Laptop,Windows 10,Chrome 137.0.0.0,1366x768,1366x599,Temporal Distance Task,cb_07,54.0,temp_dist_trial,dist_items,qkpkxw,2.0,continue,,1414.8000000953616,1399.7999999999884,1414.8000000953616,1414.8000000953616,1399.7999999999884,1414.8000000953616,1.0,0.0,0.0,,Click To Continue,Next button,7.0,object-60,temp_dist_trial,6.0,t_s_16_1,travel_shared,chapstick,7.0,competing,paired,t_s_16_1.jpg,Travel,,,sub-41
Desktop or Laptop,Windows 10,Chrome 137.0.0.0,1366x768,1366x599,Temporal Distance Task,cb_07,54.0,temp_dist_trial,dist_items,qkpkxw,2.0,response,75,500.1000000000058,1399.7999999999884,1415.1999997138919,500.1000000000058,1399.7999999999884,1415.1999997138919,1.0,915.099999713886,0.0,,Slider,Slider,4.0,object-56,temp_dist_trial,6.0,t_s_16_1,travel_shared,chapstick,7.0,competing,paired,t_s_16_1.jpg,Travel,,,sub-41
Desktop or Laptop,Windows 10,Chrome 137.0.0.0,1366x768,1366x599,Temporal Distance Task,cb_07,55.0,temp_dist_trial,num_items,zn7si1,1.0,response,1_ITEM,838.1999999046384,833.0,838.1999999046384,838.1999999046384,833.0,838.1999999046384,1.0,0.0,0.0,,Click Response,1_count,3.0,object-46,temp_dist_trial,7.0,t_s_23_1,travel_shared,ball cap,7.0,competing,single,t_s_23_1.jpg,Travel,,,sub-41
Desktop or Laptop,Windows 10,Chrome 137.0.0.0,1366x768,1366x599,Temporal Distance Task,cb_07,56.0,temp_dist_trial,num_items,zn7si1,1.0,response,2_ITEM,1258.8999998092768,1249.5,1258.8999998092768,1258.8999998092768,1249.5,1258.8999998092768,1.0,0.0,0.0,,Click Response,2_count,5.0,object-49,temp_dist_trial,8.0,t_i_11_1,travel_Iceland,headlamp,7.0,unique,paired,t_i_11_1.jpg,Travel,,,sub-41
Desktop or Laptop,Windows 10,Chrome 137.0.0.0,1366x768,1366x599,Temporal Distance Task,cb_07,56.0,temp_dist_trial,dist_items,qkpkxw,2.0,info,,3.3999997139035267,0.0,3.3999997139035267,3.3999997139035267,0.0,3.3999997139035267,1.0,0.0,0.0,,Slider,Slider,4.0,object-56,temp_dist_trial,8.0,t_i_11_1,travel_Iceland,headlamp,7.0,unique,paired,t_i_11_1.jpg,Travel,,,sub-41
Desktop or Laptop,Windows 10,Chrome 137.0.0.0,1366x768,1366x599,Temporal Distance Task,cb_07,56.0,temp_dist_trial,dist_items,qkpkxw,2.0,continue,,1183.8000000000175,1167.1000000000058,1183.8000000000175,1183.8000000000175,1167.1000000000058,1183.8000000000175,1.0,0.0,0.0,,Click To Continue,Next button,7.0,object-60,temp_dist_trial,8.0,t_i_11_1,travel_Iceland,headlamp,7.0,unique,paired,t_i_11_1.jpg,Travel,,,sub-41
Desktop or Laptop,Windows 10,Chrome 137.0.0.0,1366x768,1366x599,Temporal Distance Task,cb_07,56.0,temp_dist_trial,dist_items,qkpkxw,2.0,response,57,550.1000000000058,1167.1000000000058,1183.8000000000175,550.1000000000058,1167.1000000000058,1183.8000000000175,1.0,633.7000000000116,0.0,,Slider,Slider,4.0,object-56,temp_dist_trial,8.0,t_i_11_1,travel_Iceland,headlamp,7.0,unique,paired,t_i_11_1.jpg,Travel,,,sub-41
Desktop or Laptop,Windows 10,Chrome 137.0.0.0,1366x768,1366x599,Temporal Distance Task,cb_07,57.0,temp_dist_trial,num_items,zn7si1,1.0,response,1_ITEM,1792.9000000953674,1782.7999999999884,1792.9000000953674,1792.9000000953674,1782.7999999999884,1792.9000000953674,1.0,0.0,0.0,,Click Response,1_count,3.0,object-46,temp_dist_trial,9.0,t_i_03_1,travel_Iceland,winter jacket,7.0,unique,single,t_i_03_1.jpg,Travel,,,sub-41
Desktop or Laptop,Windows 10,Chrome 137.0.0.0,1366x768,1366x599,Temporal Distance Task,cb_07,58.0,temp_dist_trial,num_items,zn7si1,1.0,response,2_ITEM,1551.4999997139093,1550.0,1551.4999997139093,1551.4999997139093,1550.0,1551.4999997139093,1.0,0.0,0.0,,Click Response,2_count,5.0,object-49,temp_dist_trial,10.0,t_i_12_1,travel_Iceland,tent,7.0,unique,paired,t_i_12_1.jpg,Travel,,,sub-41
Desktop or Laptop,Windows 10,Chrome 137.0.0.0,1366x768,1366x599,Temporal Distance Task,cb_07,58.0,temp_dist_trial,dist_items,qkpkxw,2.0,info,,3.3000000953616118,0.0,3.3000000953616118,3.3000000953616118,0.0,3.3000000953616118,1.0,0.0,0.0,,Slider,Slider,4.0,object-56,temp_dist_trial,10.0,t_i_12_1,travel_Iceland,tent,7.0,unique,paired,t_i_12_1.jpg,Travel,,,sub-41
Desktop or Laptop,Windows 10,Chrome 137.0.0.0,1366x768,1366x599,Temporal Distance Task,cb_07,58.0,temp_dist_trial,dist_items,qkpkxw,2.0,continue,,2120.4999999046267,2116.6999999999825,2120.4999999046267,2120.4999999046267,2116.6999999999825,2120.4999999046267,1.0,0.0,0.0,,Click To Continue,Next button,7.0,object-60,temp_dist_trial,10.0,t_i_12_1,travel_Iceland,tent,7.0,unique,paired,t_i_12_1.jpg,Travel,,,sub-41
Desktop or Laptop,Windows 10,Chrome 137.0.0.0,1366x768,1366x599,Temporal Distance Task,cb_07,58.0,temp_dist_trial,dist_items,qkpkxw,2.0,response,66,633.3999999999943,2116.6999999999825,2120.8999999999937,633.3999999999943,2116.6999999999825,2120.8999999999937,1.0,1487.5,0.0,,Slider,Slider,4.0,object-56,temp_dist_trial,10.0,t_i_12_1,travel_Iceland,tent,7.0,unique,paired,t_i_12_1.jpg,Travel,,,sub-41
Desktop or Laptop,Windows 10,Chrome 137.0.0.0,1366x768,1366x599,Temporal Distance Task,cb_07,59.0,temp_dist_trial,num_items,zn7si1,1.0,response,1_ITEM,2244.200000000012,2232.6000000000063,2244.200000000012,2244.200000000012,2232.6000000000063,2244.200000000012,1.0,0.0,0.0,,Click Response,1_count,3.0,object-46,temp_dist_trial,11.0,t_s_15_1,travel_shared,luggage tag,7.0,competing,single,t_s_15_1.jpg,Travel,,,sub-41
Desktop or Laptop,Windows 10,Chrome 137.0.0.0,1366x768,1366x599,Temporal Distance Task,cb_07,60.0,temp_dist_trial,num_items,zn7si1,1.0,response,1_ITEM,1368.599999713886,1366.3999999999942,1368.599999713886,1368.599999713886,1366.3999999999942,1368.599999713886,1.0,0.0,0.0,,Click Response,1_count,3.0,object-46,temp_dist_trial,12.0,t_m_05_1,travel_Miami,sunscreen,7.0,unique,paired,t_m_05_1.jpg,Travel,,,sub-41
Desktop or Laptop,Windows 10,Chrome 137.0.0.0,1366x768,1366x599,Temporal Distance Task,cb_07,61.0,temp_dist_trial,num_items,zn7si1,1.0,response,1_ITEM,888.8000000953616,883.2999999999884,888.8000000953616,888.8000000953616,883.2999999999884,888.8000000953616,1.0,0.0,0.0,,Click Response,1_count,3.0,object-46,temp_dist_trial,13.0,t_s_01_1,travel_shared,fanny pack,7.0,competing,single,t_s_01_1.jpg,Travel,,,sub-41
Desktop or Laptop,Windows 10,Chrome 137.0.0.0,1366x768,1366x599,Temporal Distance Task,cb_07,62.0,temp_dist_trial,num_items,zn7si1,1.0,response,1_ITEM,603.3999997139035,600.3000000000175,603.3999997139035,603.3999997139035,600.3000000000175,603.3999997139035,1.0,0.0,0.0,,Click Response,1_count,3.0,object-46,temp_dist_trial,14.0,t_m_09_1,travel_Miami,beach towel,7.0,unique,paired,t_m_09_1.jpg,Travel,,,sub-41
Desktop or Laptop,Windows 10,Chrome 137.0.0.0,1366x768,1366x599,Temporal Distance Task,cb_07,63.0,temp_dist_trial,num_items,zn7si1,1.0,response,1_ITEM,849.6999997138919,833.1999999999823,849.6999997138919,849.6999997138919,833.1999999999823,849.6999997138919,1.0,0.0,0.0,,Click Response,1_count,3.0,object-46,temp_dist_trial,15.0,t_m_07_1,travel_Miami,sunglasses,7.0,unique,paired,t_m_07_1.jpg,Travel,,,sub-41
Desktop or Laptop,Windows 10,Chrome 137.0.0.0,1366x768,1366x599,Temporal Distance Task,cb_07,64.0,temp_dist_trial,num_items,zn7si1,1.0,response,1_ITEM,902.1000000000058,900.2000000000116,902.1000000000058,902.1000000000058,900.2000000000116,902.1000000000058,1.0,0.0,0.0,,Click Response,1_count,3.0,object-46,temp_dist_trial,16.0,t_s_09_1,travel_shared,wallet,7.0,competing,paired,t_s_09_1.jpg,Travel,,,sub-41
Desktop or Laptop,Windows 10,Chrome 137.0.0.0,1366x768,1366x599,Temporal Distance Task,cb_07,65.0,temp_dist_trial,num_items,zn7si1,1.0,response,1_ITEM,696.8999998092768,683.4000000000233,696.8999998092768,696.8999998092768,683.4000000000233,696.8999998092768,1.0,0.0,0.0,,Click Response,1_count,3.0,object-46,temp_dist_trial,17.0,t_m_14_1,travel_Miami,swim goggles,7.0,unique,single,t_m_14_1.jpg,Travel,,,sub-41
Desktop or Laptop,Windows 10,Chrome 137.0.0.0,1366x768,1366x599,Temporal Distance Task,cb_07,66.0,temp_dist_trial,num_items,zn7si1,1.0,response,2_ITEM,2531.8999997139035,2516.6000000000063,2531.8999997139035,2531.8999997139035,2516.6000000000063,2531.8999997139035,1.0,0.0,0.0,,Click Response,2_count,5.0,object-49,temp_dist_trial,18.0,t_s_03_1,travel_shared,portable charger,7.0,competing,paired,t_s_03_1.jpg,Travel,,,sub-41
Desktop or Laptop,Windows 10,Chrome 137.0.0.0,1366x768,1366x599,Temporal Distance Task,cb_07,66.0,temp_dist_trial,dist_items,qkpkxw,2.0,info,,3.499999904626748,0.0,3.499999904626748,3.499999904626748,0.0,3.499999904626748,1.0,0.0,0.0,,Slider,Slider,4.0,object-56,temp_dist_trial,18.0,t_s_03_1,travel_shared,portable charger,7.0,competing,paired,t_s_03_1.jpg,Travel,,,sub-41
Desktop or Laptop,Windows 10,Chrome 137.0.0.0,1366x768,1366x599,Temporal Distance Task,cb_07,66.0,temp_dist_trial,dist_items,qkpkxw,2.0,continue,,1540.5999998092593,1532.6000000000058,1540.5999998092593,1540.5999998092593,1532.6000000000058,1540.5999998092593,1.0,0.0,0.0,,Click To Continue,Next button,7.0,object-60,temp_dist_trial,18.0,t_s_03_1,travel_shared,portable charger,7.0,competing,paired,t_s_03_1.jpg,Travel,,,sub-41
Desktop or Laptop,Windows 10,Chrome 137.0.0.0,1366x768,1366x599,Temporal Distance Task,cb_07,66.0,temp_dist_trial,dist_items,qkpkxw,2.0,response,56,949.2999999999884,1532.6000000000058,1540.9999999046267,949.2999999999884,1532.6000000000058,1540.9999999046267,1.0,591.6999999046384,0.0,,Slider,Slider,4.0,object-56,temp_dist_trial,18.0,t_s_03_1,travel_shared,portable charger,7.0,competing,paired,t_s_03_1.jpg,Travel,,,sub-41
Desktop or Laptop,Windows 10,Chrome 137.0.0.0,1366x768,1366x599,Temporal Distance Task,cb_07,67.0,temp_dist_trial,num_items,zn7si1,1.0,response,1_ITEM,1688.7999999999884,1683.5,1688.7999999999884,1688.7999999999884,1683.5,1688.7999999999884,1.0,0.0,0.0,,Click Response,1_count,3.0,object-46,temp_dist_trial,19.0,t_s_20_1,travel_shared,travel pill case,7.0,competing,paired,t_s_20_1.jpg,Travel,,,sub-41
Desktop or Laptop,Windows 10,Chrome 137.0.0.0,1366x768,1366x599,Temporal Distance Task,cb_07,68.0,temp_dist_trial,num_items,zn7si1,1.0,response,1_ITEM,2290.699999713892,2282.5,2290.699999713892,2290.699999713892,2282.5,2290.699999713892,1.0,0.0,0.0,,Click Response,1_count,3.0,object-46,temp_dist_trial,20.0,t_s_21_1,travel_shared,umbrella,7.0,competing,paired,t_s_21_1.jpg,Travel,,,sub-41
Desktop or Laptop,Windows 10,Chrome 137.0.0.0,1366x768,1366x599,Temporal Distance Task,cb_07,69.0,temp_dist_trial,num_items,zn7si1,1.0,response,1_ITEM,1582.1999998092651,1566.3999999999942,1582.1999998092651,1582.1999998092651,1566.3999999999942,1582.1999998092651,1.0,0.0,0.0,,Click Response,1_count,3.0,object-46,temp_dist_trial,21.0,t_i_16_1,travel_Iceland,skis,7.0,unique,paired,t_i_16_1.jpg,Travel,,,sub-41
Desktop or Laptop,Windows 10,Chrome 137.0.0.0,1366x768,1366x599,Temporal Distance Task,cb_07,70.0,temp_dist_trial,num_items,zn7si1,1.0,response,1_ITEM,1558.3999999999942,1549.6999999999825,1558.3999999999942,1558.3999999999942,1549.6999999999825,1558.3999999999942,1.0,0.0,0.0,,Click Response,1_count,3.0,object-46,temp_dist_trial,22.0,t_s_06_1,travel_shared,luggage,7.0,competing,paired,t_s_06_1.jpg,Travel,,,sub-41
Desktop or Laptop,Windows 10,Chrome 137.0.0.0,1366x768,1366x599,Temporal Distance Task,cb_07,71.0,temp_dist_trial,num_items,zn7si1,1.0,response,1_ITEM,1053.9999999046267,1049.8999999999942,1053.9999999046267,1053.9999999046267,1049.8999999999942,1053.9999999046267,1.0,0.0,0.0,,Click Response,1_count,3.0,object-46,temp_dist_trial,23.0,t_s_05_1,travel_shared,neck pillow,7.0,competing,paired,t_s_05_1.jpg,Travel,,,sub-41
Desktop or Laptop,Windows 10,Chrome 137.0.0.0,1366x768,1366x599,Temporal Distance Task,cb_07,72.0,temp_dist_trial,num_items,zn7si1,1.0,response,num_miss,2999.6000000000067,2999.6000000000067,2999.6000000000067,2999.6000000000067,2999.6000000000067,2999.6000000000067,1.0,0.0,0.0,num_miss_tag,Time Limit,screen,0.0,screen,temp_dist_trial,24.0,t_s_12_1,travel_shared,clear toiletry bag,7.0,competing,paired,t_s_12_1.jpg,Travel,,,sub-41
Desktop or Laptop,Windows 10,Chrome 137.0.0.0,1366x768,1366x599,Temporal Distance Task,cb_07,73.0,temp_dist_trial,num_items,zn7si1,1.0,response,1_ITEM,2849.499999809253,2833.0,2849.499999809253,2849.499999809253,2833.0,2849.499999809253,1.0,0.0,0.0,,Click Response,1_count,3.0,object-46,temp_dist_trial,25.0,t_s_10_1,travel_shared,luggage lock,7.0,competing,single,t_s_10_1.jpg,Travel,,,sub-41
Desktop or Laptop,Windows 10,Chrome 137.0.0.0,1366x768,1366x599,Temporal Distance Task,cb_07,74.0,temp_dist_trial,num_items,zn7si1,1.0,response,2_ITEM,950.1999997138921,949.3999999999942,950.1999997138921,950.1999997138921,949.3999999999942,950.1999997138921,1.0,0.0,0.0,,Click Response,2_count,5.0,object-49,temp_dist_trial,26.0,t_s_22_1,travel_shared,belt,7.0,competing,paired,t_s_22_1.jpg,Travel,,,sub-41
Desktop or Laptop,Windows 10,Chrome 137.0.0.0,1366x768,1366x599,Temporal Distance Task,cb_07,74.0,temp_dist_trial,dist_items,qkpkxw,2.0,info,,3.1999999046383887,0.0,3.1999999046383887,3.1999999046383887,0.0,3.1999999046383887,1.0,0.0,0.0,,Slider,Slider,4.0,object-56,temp_dist_trial,26.0,t_s_22_1,travel_shared,belt,7.0,competing,paired,t_s_22_1.jpg,Travel,,,sub-41
Desktop or Laptop,Windows 10,Chrome 137.0.0.0,1366x768,1366x599,Temporal Distance Task,cb_07,74.0,temp_dist_trial,dist_items,qkpkxw,2.0,continue,,1775.1000000000058,1765.8999999999942,1775.1000000000058,1775.1000000000058,1765.8999999999942,1775.1000000000058,1.0,0.0,0.0,,Click To Continue,Next button,7.0,object-60,temp_dist_trial,26.0,t_s_22_1,travel_shared,belt,7.0,competing,paired,t_s_22_1.jpg,Travel,,,sub-41
Desktop or Laptop,Windows 10,Chrome 137.0.0.0,1366x768,1366x599,Temporal Distance Task,cb_07,74.0,temp_dist_trial,dist_items,qkpkxw,2.0,response,66,683.0,1765.8999999999942,1775.3999997139035,683.0,1765.8999999999942,1775.3999997139035,1.0,1092.3999997139038,0.0,,Slider,Slider,4.0,object-56,temp_dist_trial,26.0,t_s_22_1,travel_shared,belt,7.0,competing,paired,t_s_22_1.jpg,Travel,,,sub-41
Desktop or Laptop,Windows 10,Chrome 137.0.0.0,1366x768,1366x599,Temporal Distance Task,cb_07,75.0,temp_dist_trial,num_items,zn7si1,1.0,response,1_ITEM,2928.9999997139093,2916.6000000000067,2928.9999997139093,2928.9999997139093,2916.6000000000067,2928.9999997139093,1.0,0.0,0.0,,Click Response,1_count,3.0,object-46,temp_dist_trial,27.0,t_s_07_1,travel_shared,phone charger cable,7.0,competing,paired,t_s_07_1.jpg,Travel,,,sub-41
Desktop or Laptop,Windows 10,Chrome 137.0.0.0,1366x768,1366x599,Temporal Distance Task,cb_07,76.0,temp_dist_trial,num_items,zn7si1,1.0,response,1_ITEM,1283.1999998092654,1266.7999999999886,1283.1999998092654,1283.1999998092654,1266.7999999999886,1283.1999998092654,1.0,0.0,0.0,,Click Response,1_count,3.0,object-46,temp_dist_trial,28.0,t_m_03_1,travel_Miami,wetsuit,7.0,unique,paired,t_m_03_1.jpg,Travel,,,sub-41
Desktop or Laptop,Windows 10,Chrome 137.0.0.0,1366x768,1366x599,Temporal Distance Task,cb_07,77.0,temp_dist_trial,num_items,zn7si1,1.0,response,1_ITEM,1262.099999713886,1249.8999999999942,1262.099999713886,1262.099999713886,1249.8999999999942,1262.099999713886,1.0,0.0,0.0,,Click Response,1_count,3.0,object-46,temp_dist_trial,29.0,t_s_02_1,travel_shared,water bottle,7.0,competing,paired,t_s_02_1.jpg,Travel,,,sub-41
Desktop or Laptop,Windows 10,Chrome 137.0.0.0,1366x768,1366x599,Temporal Distance Task,cb_07,78.0,temp_dist_trial,num_items,zn7si1,1.0,response,1_ITEM,1106.0999999046326,1099.8999999999942,1106.0999999046326,1106.0999999046326,1099.8999999999942,1106.0999999046326,1.0,0.0,0.0,,Click Response,1_count,3.0,object-46,temp_dist_trial,30.0,t_s_14_1,travel_shared,hand sanitizer,7.0,competing,paired,t_s_14_1.jpg,Travel,,,sub-41
Desktop or Laptop,Windows 10,Chrome 137.0.0.0,1366x768,1366x599,Temporal Distance Task,cb_07,79.0,temp_dist_trial,num_items,zn7si1,1.0,response,1_ITEM,1916.5999999046328,1900.1000000000056,1916.5999999046328,1916.5999999046328,1900.1000000000056,1916.5999999046328,1.0,0.0,0.0,,Click Response,1_count,3.0,object-46,temp_dist_trial,31.0,t_m_10_1,travel_Miami,tanktop,7.0,unique,single,t_m_10_1.jpg,Travel,,,sub-41
Desktop or Laptop,Windows 10,Chrome 137.0.0.0,1366x768,1366x599,Temporal Distance Task,cb_07,80.0,temp_dist_trial,num_items,zn7si1,1.0,response,2_ITEM,1502.299999809271,1500.1000000000058,1502.299999809271,1502.299999809271,1500.1000000000058,1502.299999809271,1.0,0.0,0.0,,Click Response,2_count,5.0,object-49,temp_dist_trial,32.0,t_m_11_1,travel_Miami,collapsible beach chair,7.0,unique,paired,t_m_11_1.jpg,Travel,,,sub-41
Desktop or Laptop,Windows 10,Chrome 137.0.0.0,1366x768,1366x599,Temporal Distance Task,cb_07,80.0,temp_dist_trial,dist_items,qkpkxw,2.0,info,,3.9999997139093466,0.0,3.9999997139093466,3.9999997139093466,0.0,3.9999997139093466,1.0,0.0,0.0,,Slider,Slider,4.0,object-56,temp_dist_trial,32.0,t_m_11_1,travel_Miami,collapsible beach chair,7.0,unique,paired,t_m_11_1.jpg,Travel,,,sub-41
Desktop or Laptop,Windows 10,Chrome 137.0.0.0,1366x768,1366x599,Temporal Distance Task,cb_07,80.0,temp_dist_trial,dist_items,qkpkxw,2.0,continue,,1345.4999997139093,1333.7000000000114,1345.4999997139093,1345.4999997139093,1333.7000000000114,1345.4999997139093,1.0,0.0,0.0,,Click To Continue,Next button,7.0,object-60,temp_dist_trial,32.0,t_m_11_1,travel_Miami,collapsible beach chair,7.0,unique,paired,t_m_11_1.jpg,Travel,,,sub-41
Desktop or Laptop,Windows 10,Chrome 137.0.0.0,1366x768,1366x599,Temporal Distance Task,cb_07,80.0,temp_dist_trial,dist_items,qkpkxw,2.0,response,38,500.2000000000117,1333.7000000000114,1345.8999998092768,500.2000000000117,1333.7000000000114,1345.8999998092768,1.0,845.6999998092651,0.0,,Slider,Slider,4.0,object-56,temp_dist_trial,32.0,t_m_11_1,travel_Miami,collapsible beach chair,7.0,unique,paired,t_m_11_1.jpg,Travel,,,sub-41
Desktop or Laptop,Windows 10,Chrome 137.0.0.0,1366x768,1366x599,Temporal Distance Task,cb_07,81.0,temp_dist_trial,num_items,zn7si1,1.0,response,2_ITEM,1435.5999999046326,1432.8999999999942,1435.5999999046326,1435.5999999046326,1432.8999999999942,1435.5999999046326,1.0,0.0,0.0,,Click Response,2_count,5.0,object-49,temp_dist_trial,33.0,t_s_08_1,travel_shared,hand lotion,7.0,competing,paired,t_s_08_1.jpg,Travel,,,sub-41
Desktop or Laptop,Windows 10,Chrome 137.0.0.0,1366x768,1366x599,Temporal Distance Task,cb_07,81.0,temp_dist_trial,dist_items,qkpkxw,2.0,info,,4.199999809265137,0.0,4.199999809265137,4.199999809265137,0.0,4.199999809265137,1.0,0.0,0.0,,Slider,Slider,4.0,object-56,temp_dist_trial,33.0,t_s_08_1,travel_shared,hand lotion,7.0,competing,paired,t_s_08_1.jpg,Travel,,,sub-41
Desktop or Laptop,Windows 10,Chrome 137.0.0.0,1366x768,1366x599,Temporal Distance Task,cb_07,81.0,temp_dist_trial,dist_items,qkpkxw,2.0,continue,,1298.1999998092654,1283.7000000000114,1298.1999998092654,1298.1999998092654,1283.7000000000114,1298.1999998092654,1.0,0.0,0.0,,Click To Continue,Next button,7.0,object-60,temp_dist_trial,33.0,t_s_08_1,travel_shared,hand lotion,7.0,competing,paired,t_s_08_1.jpg,Travel,,,sub-41
Desktop or Laptop,Windows 10,Chrome 137.0.0.0,1366x768,1366x599,Temporal Distance Task,cb_07,81.0,temp_dist_trial,dist_items,qkpkxw,2.0,response,56,550.3999999999942,1283.7000000000114,1298.5,550.3999999999942,1283.7000000000114,1298.5,1.0,748.1000000000058,0.0,,Slider,Slider,4.0,object-56,temp_dist_trial,33.0,t_s_08_1,travel_shared,hand lotion,7.0,competing,paired,t_s_08_1.jpg,Travel,,,sub-41
Desktop or Laptop,Windows 10,Chrome 137.0.0.0,1366x768,1366x599,Temporal Distance Task,cb_07,82.0,temp_dist_trial,num_items,zn7si1,1.0,response,1_ITEM,1300.7999999999886,1299.1999999999825,1300.7999999999886,1300.7999999999886,1299.1999999999825,1300.7999999999886,1.0,0.0,0.0,,Click Response,1_count,3.0,object-46,temp_dist_trial,34.0,t_i_07_1,travel_Iceland,hiking backpack,7.0,unique,single,t_i_07_1.jpg,Travel,,,sub-41
Desktop or Laptop,Windows 10,Chrome 137.0.0.0,1366x768,1366x599,Temporal Distance Task,cb_07,83.0,temp_dist_trial,num_items,zn7si1,1.0,response,2_ITEM,1303.7000000953558,1299.3999999999942,1303.7000000953558,1303.7000000953558,1299.3999999999942,1303.7000000953558,1.0,0.0,0.0,,Click Response,2_count,5.0,object-49,temp_dist_trial,35.0,t_s_18_1,travel_shared,first aid kit,7.0,competing,paired,t_s_18_1.jpg,Travel,,,sub-41
Desktop or Laptop,Windows 10,Chrome 137.0.0.0,1366x768,1366x599,Temporal Distance Task,cb_07,83.0,temp_dist_trial,dist_items,qkpkxw,2.0,info,,3.79999999998836,0.0,3.79999999998836,3.79999999998836,0.0,3.79999999998836,1.0,0.0,0.0,,Slider,Slider,4.0,object-56,temp_dist_trial,35.0,t_s_18_1,travel_shared,first aid kit,7.0,competing,paired,t_s_18_1.jpg,Travel,,,sub-41
Desktop or Laptop,Windows 10,Chrome 137.0.0.0,1366x768,1366x599,Temporal Distance Task,cb_07,83.0,temp_dist_trial,dist_items,qkpkxw,2.0,continue,,1490.2000000953558,1483.0,1490.2000000953558,1490.2000000953558,1483.0,1490.2000000953558,1.0,0.0,0.0,,Click To Continue,Next button,7.0,object-60,temp_dist_trial,35.0,t_s_18_1,travel_shared,first aid kit,7.0,competing,paired,t_s_18_1.jpg,Travel,,,sub-41
Desktop or Laptop,Windows 10,Chrome 137.0.0.0,1366x768,1366x599,Temporal Distance Task,cb_07,83.0,temp_dist_trial,dist_items,qkpkxw,2.0,response,29,833.0,1483.0,1490.4999998092535,833.0,1483.0,1490.4999998092535,1.0,657.4999998092535,0.0,,Slider,Slider,4.0,object-56,temp_dist_trial,35.0,t_s_18_1,travel_shared,first aid kit,7.0,competing,paired,t_s_18_1.jpg,Travel,,,sub-41
Desktop or Laptop,Windows 10,Chrome 137.0.0.0,1366x768,1366x599,Temporal Distance Task,cb_07,84.0,temp_dist_trial,num_items,zn7si1,1.0,response,1_ITEM,1095.2000000953558,1082.6999999999823,1095.2000000953558,1095.2000000953558,1082.6999999999823,1095.2000000953558,1.0,0.0,0.0,,Click Response,1_count,3.0,object-46,temp_dist_trial,36.0,t_i_14_1,travel_Iceland,snow pants,7.0,unique,paired,t_i_14_1.jpg,Travel,,,sub-41
Desktop or Laptop,Windows 10,Chrome 137.0.0.0,1366x768,1366x599,Temporal Distance Task,cb_07,85.0,temp_dist_trial,num_items,zn7si1,1.0,response,1_ITEM,690.0999997138861,683.3999999999943,690.0999997138861,690.0999997138861,683.3999999999943,690.0999997138861,1.0,0.0,0.0,,Click Response,1_count,3.0,object-46,temp_dist_trial,37.0,t_i_01_1,travel_Iceland,gloves,7.0,unique,paired,t_i_01_1.jpg,Travel,,,sub-41
Desktop or Laptop,Windows 10,Chrome 137.0.0.0,1366x768,1366x599,Temporal Distance Task,cb_07,86.0,temp_dist_trial,num_items,zn7si1,1.0,response,2_ITEM,1445.0000000953733,1433.3000000000175,1445.0000000953733,1445.0000000953733,1433.3000000000175,1445.0000000953733,1.0,0.0,0.0,,Click Response,2_count,5.0,object-49,temp_dist_trial,38.0,t_i_18_1,travel_Iceland,ski mask,7.0,unique,paired,t_i_18_1.jpg,Travel,,,sub-41
Desktop or Laptop,Windows 10,Chrome 137.0.0.0,1366x768,1366x599,Temporal Distance Task,cb_07,86.0,temp_dist_trial,dist_items,qkpkxw,2.0,info,,4.299999713897705,0.0,4.299999713897705,4.299999713897705,0.0,4.299999713897705,1.0,0.0,0.0,,Slider,Slider,4.0,object-56,temp_dist_trial,38.0,t_i_18_1,travel_Iceland,ski mask,7.0,unique,paired,t_i_18_1.jpg,Travel,,,sub-41
Desktop or Laptop,Windows 10,Chrome 137.0.0.0,1366x768,1366x599,Temporal Distance Task,cb_07,86.0,temp_dist_trial,dist_items,qkpkxw,2.0,continue,,1970.0,1966.6000000000056,1970.0,1970.0,1966.6000000000056,1970.0,1.0,0.0,0.0,,Click To Continue,Next button,7.0,object-60,temp_dist_trial,38.0,t_i_18_1,travel_Iceland,ski mask,7.0,unique,paired,t_i_18_1.jpg,Travel,,,sub-41
Desktop or Laptop,Windows 10,Chrome 137.0.0.0,1366x768,1366x599,Temporal Distance Task,cb_07,86.0,temp_dist_trial,dist_items,qkpkxw,2.0,response,72,1083.2999999999884,1966.6000000000056,1974.0999999046328,1083.2999999999884,1966.6000000000056,1974.0999999046328,1.0,890.7999999046443,0.0,,Slider,Slider,4.0,object-56,temp_dist_trial,38.0,t_i_18_1,travel_Iceland,ski mask,7.0,unique,paired,t_i_18_1.jpg,Travel,,,sub-41
Desktop or Laptop,Windows 10,Chrome 137.0.0.0,1366x768,1366x599,Temporal Distance Task,cb_07,87.0,temp_dist_trial,num_items,zn7si1,1.0,response,1_ITEM,995.5999998092592,983.6000000000058,995.5999998092592,995.5999998092592,983.6000000000058,995.5999998092592,1.0,0.0,0.0,,Click Response,1_count,3.0,object-46,temp_dist_trial,39.0,t_m_06_1,travel_Miami,handheld fan,7.0,unique,paired,t_m_06_1.jpg,Travel,,,sub-41
Desktop or Laptop,Windows 10,Chrome 137.0.0.0,1366x768,1366x599,Temporal Distance Task,cb_07,88.0,temp_dist_trial,num_items,zn7si1,1.0,response,1_ITEM,770.4999999046267,766.7999999999884,770.4999999046267,770.4999999046267,766.7999999999884,770.4999999046267,1.0,0.0,0.0,,Click Response,1_count,3.0,object-46,temp_dist_trial,40.0,t_i_06_1,travel_Iceland,knit hat,7.0,unique,paired,t_i_06_1.jpg,Travel,,,sub-41
Desktop or Laptop,Windows 10,Chrome 137.0.0.0,1366x768,1366x599,Temporal Distance Task,cb_07,89.0,temp_dist_trial,num_items,zn7si1,1.0,response,1_ITEM,1289.8999998092768,1283.3000000000175,1289.8999998092768,1289.8999998092768,1283.3000000000175,1289.8999998092768,1.0,0.0,0.0,,Click Response,1_count,3.0,object-46,temp_dist_trial,41.0,t_s_17_1,travel_shared,toothbrush,7.0,competing,paired,t_s_17_1.jpg,Travel,,,sub-41
Desktop or Laptop,Windows 10,Chrome 137.0.0.0,1366x768,1366x599,Temporal Distance Task,cb_07,90.0,temp_dist_trial,num_items,zn7si1,1.0,response,1_ITEM,676.8999997139035,666.3000000000175,676.8999997139035,676.8999997139035,666.3000000000175,676.8999997139035,1.0,0.0,0.0,,Click Response,1_count,3.0,object-46,temp_dist_trial,42.0,t_m_13_1,travel_Miami,floatie,7.0,unique,paired,t_m_13_1.jpg,Travel,,,sub-41
Desktop or Laptop,Windows 10,Chrome 137.0.0.0,1366x768,1366x599,Temporal Distance Task,cb_07,91.0,temp_dist_trial,num_items,zn7si1,1.0,response,1_ITEM,799.5999999999768,782.8999999999942,799.5999999999768,799.5999999999768,782.8999999999942,799.5999999999768,1.0,0.0,0.0,,Click Response,1_count,3.0,object-46,temp_dist_trial,43.0,t_s_04_1,travel_shared,instant camera,7.0,competing,single,t_s_04_1.jpg,Travel,,,sub-41
Desktop or Laptop,Windows 10,Chrome 137.0.0.0,1366x768,1366x599,Temporal Distance Task,cb_07,92.0,temp_dist_trial,num_items,zn7si1,1.0,response,1_ITEM,1023.2999997138976,1016.7000000000116,1023.2999997138976,1023.2999997138976,1016.7000000000116,1023.2999997138976,1.0,0.0,0.0,,Click Response,1_count,3.0,object-46,temp_dist_trial,44.0,t_s_13_1,travel_shared,contact lens case,7.0,competing,single,t_s_13_1.jpg,Travel,,,sub-41
Desktop or Laptop,Windows 10,Chrome 137.0.0.0,1366x768,1366x599,Temporal Distance Task,cb_07,93.0,temp_dist_trial,num_items,zn7si1,1.0,response,1_ITEM,693.2999999999884,683.5999999999767,693.2999999999884,693.2999999999884,683.5999999999767,693.2999999999884,1.0,0.0,0.0,,Click Response,1_count,3.0,object-46,temp_dist_trial,45.0,t_i_02_1,travel_Iceland,scarf,7.0,unique,single,t_i_02_1.jpg,Travel,,,sub-41
Desktop or Laptop,Windows 10,Chrome 137.0.0.0,1366x768,1366x599,Temporal Distance Task,cb_07,94.0,temp_dist_trial,num_items,zn7si1,1.0,response,1_ITEM,631.6999997138919,616.7999999999884,631.6999997138919,631.6999997138919,616.7999999999884,631.6999997138919,1.0,0.0,0.0,,Click Response,1_count,3.0,object-46,temp_dist_trial,46.0,t_s_11_1,travel_shared,eye mask,7.0,competing,paired,t_s_11_1.jpg,Travel,,,sub-41
Desktop or Laptop,Windows 10,Chrome 137.0.0.0,1366x768,1366x599,Temporal Distance Task,cb_07,95.0,temp_dist_trial,num_items,zn7si1,1.0,response,1_ITEM,701.2999997138977,699.8999999999942,701.2999997138977,701.2999997138977,699.8999999999942,701.2999997138977,1.0,0.0,0.0,,Click Response,1_count,3.0,object-46,temp_dist_trial,47.0,t_s_19_1,travel_shared,pajamas,7.0,competing,single,t_s_19_1.jpg,Travel,,,sub-41
Desktop or Laptop,Windows 10,Chrome 137.0.0.0,1366x768,1366x599,Temporal Distance Task,cb_07,96.0,temp_dist_trial,num_items,zn7si1,1.0,response,1_ITEM,847.1999997138919,833.2999999999884,847.1999997138919,847.1999997138919,833.2999999999884,847.1999997138919,1.0,0.0,0.0,,Click Response,1_count,3.0,object-46,temp_dist_trial,48.0,t_m_08_1,travel_Miami,flipflops,7.0,unique,paired,t_m_08_1.jpg,Travel,,,sub-41
Desktop or Laptop,Windows 10,Chrome 137.0.0.0,1366x768,1366x599,Temporal Distance Task,$${counterbalance_group},,,,,,info,END,,,214453.0,,,,0.0,,,,,,,,,,,,,,,,,,,,sub-41
