Participant Device,Participant OS,Participant Browser,Participant Monitor Size,Participant Viewport Size,Task Name,Current Spreadsheet,Trial Number,Display,Screen,Screen ID,Screen Counter,Response Type,Response,Onset Time,Clock Time,Reaction Time,Absolute Onset Time,Absolute Clock Time,Absolute Reaction Time,Correct,Response Duration,Proportion,Tag,Component Name,Object Name,Object Number,Object ID,Spreadsheet: display,Spreadsheet: trial,Spreadsheet: stimulus_id,Spreadsheet: expected_goal,Spreadsheet: stimulus_name,Spreadsheet: c_group,Spreadsheet: condition,Spreadsheet: paired_status,Spreadsheet: stimulus_path,Spreadsheet: block_type,Manipulation: Spreadsheet,Store: enc_test_acc,sub_label
Desktop or Laptop,Windows 10,Chrome 138.0.0.0,1012x569,1012x570,Temporal Distance Task,,,,,,,info,BEGIN,,,,,,,,,,,,,,,,,,,,,,,,,$${counterbalance_group},,sub-90
Desktop or Laptop,Windows 10,Chrome 138.0.0.0,1012x569,1012x570,Temporal Distance Task,cb_10,1.0,temp_instructions,intro_screen,3tnme7,1.0,continue,,8933.300000000001,8916.2,8933.300000000001,8933.300000000001,8916.2,8933.300000000001,1.0,0.0,0.0,,Click To Continue,Continue Button,4.0,object-29,temp_instructions,,,Travel,,,,,,,$${counterbalance_group},,sub-90
Desktop or Laptop,Windows 10,Chrome 138.0.0.0,1012x569,1012x570,Temporal Distance Task,cb_10,1.0,temp_instructions,intro_screen_2,52v7ur,2.0,continue,,17646.99999999404,17630.6,17646.99999999404,17646.99999999404,17630.6,17646.99999999404,1.0,0.0,0.0,,Click To Continue,Continue Button,4.0,object-39,temp_instructions,,,Travel,,,,,,,$${counterbalance_group},,sub-90
Desktop or Laptop,Windows 10,Chrome 138.0.0.0,1012x569,1012x570,Temporal Distance Task,cb_10,1.0,temp_instructions,intro_screen_3,i7lvwx,3.0,continue,,9786.8,9781.999999999996,9786.8,9786.8,9781.999999999996,9786.8,1.0,0.0,0.0,,Click To Continue,Continue Button,4.0,object-67,temp_instructions,,,Travel,,,,,,,$${counterbalance_group},,sub-90
Desktop or Laptop,Windows 10,Chrome 138.0.0.0,1012x569,1012x570,Temporal Distance Task,cb_10,1.0,temp_instructions,test_q1,5ieqx1,4.0,response,choice_3,7062.300000000002,7049.2000000000035,7062.300000000002,7062.300000000002,7049.2000000000035,7062.300000000002,1.0,0.0,0.0,,Click Response,choice_3,5.0,object-345,temp_instructions,,,Travel,,,,,,,$${counterbalance_group},,sub-90
Desktop or Laptop,Windows 10,Chrome 138.0.0.0,1012x569,1012x570,Temporal Distance Task,cb_10,1.0,temp_instructions,score_corr,7ilvjr,5.0,continue,,1546.199999994038,1533.0999999999985,1546.199999994038,1546.199999994038,1533.0999999999985,1546.199999994038,1.0,0.0,0.0,,Click To Continue,Continue Button,3.0,object-23,temp_instructions,,,Travel,,,,,,,$${counterbalance_group},,sub-90
Desktop or Laptop,Windows 10,Chrome 138.0.0.0,1012x569,1012x570,Temporal Distance Task,cb_10,1.0,temp_eventStart,Screen 1,dgtyxe,1.0,continue,,2653.5999999940395,2649.699999999997,2653.5999999940395,2653.5999999940395,2649.699999999997,2653.5999999940395,1.0,0.0,0.0,,Click To Continue,Next Button,3.0,object-43,temp_eventStart,,,Travel,,,,,,,$${counterbalance_group},,sub-90
Desktop or Laptop,Windows 10,Chrome 138.0.0.0,1012x569,1012x570,Temporal Distance Task,cb_10,1.0,temp_dist_trial,num_items,zn7si1,1.0,response,num_miss,2999.7000000000044,2999.7000000000044,2999.7000000000044,2999.7000000000044,2999.7000000000044,2999.7000000000044,1.0,0.0,0.0,num_miss_tag,Time Limit,screen,0.0,screen,temp_dist_trial,1.0,t_m_13_1,travel_Miami,floatie,10.0,unique,single,t_m_13_1.jpg,Travel,$${counterbalance_group},,sub-90
Desktop or Laptop,Windows 10,Chrome 138.0.0.0,1012x569,1012x570,Temporal Distance Task,cb_10,2.0,temp_dist_trial,num_items,zn7si1,1.0,response,2_ITEM,210.80000000297886,199.5999999999985,210.80000000297886,210.80000000297886,199.5999999999985,210.80000000297886,1.0,0.0,0.0,,Click Response,2_count,5.0,object-49,temp_dist_trial,2.0,t_i_16_1,travel_Iceland,skis,10.0,unique,paired,t_i_16_1.jpg,Travel,$${counterbalance_group},,sub-90
Desktop or Laptop,Windows 10,Chrome 138.0.0.0,1012x569,1012x570,Temporal Distance Task,cb_10,2.0,temp_dist_trial,dist_items,qkpkxw,2.0,info,,16.19999999999709,0.0,16.19999999999709,16.19999999999709,0.0,16.19999999999709,1.0,0.0,0.0,,Slider,Slider,4.0,object-56,temp_dist_trial,2.0,t_i_16_1,travel_Iceland,skis,10.0,unique,paired,t_i_16_1.jpg,Travel,$${counterbalance_group},,sub-90
Desktop or Laptop,Windows 10,Chrome 138.0.0.0,1012x569,1012x570,Temporal Distance Task,cb_10,2.0,temp_dist_trial,dist_items,qkpkxw,2.0,continue,,2737.2999999970198,2733.0,2737.2999999970198,2737.2999999970198,2733.0,2737.2999999970198,1.0,0.0,0.0,,Click To Continue,Next button,7.0,object-60,temp_dist_trial,2.0,t_i_16_1,travel_Iceland,skis,10.0,unique,paired,t_i_16_1.jpg,Travel,$${counterbalance_group},,sub-90
Desktop or Laptop,Windows 10,Chrome 138.0.0.0,1012x569,1012x570,Temporal Distance Task,cb_10,2.0,temp_dist_trial,dist_items,qkpkxw,2.0,response,28,1350.1999999999969,2733.0,2748.2000000029802,1350.1999999999969,2733.0,2748.2000000029802,1.0,1398.0000000029834,0.0,,Slider,Slider,4.0,object-56,temp_dist_trial,2.0,t_i_16_1,travel_Iceland,skis,10.0,unique,paired,t_i_16_1.jpg,Travel,$${counterbalance_group},,sub-90
Desktop or Laptop,Windows 10,Chrome 138.0.0.0,1012x569,1012x570,Temporal Distance Task,cb_10,3.0,temp_dist_trial,num_items,zn7si1,1.0,response,1_ITEM,2246.5999999940395,2233.5999999999985,2246.5999999940395,2246.5999999940395,2233.5999999999985,2246.5999999940395,1.0,0.0,0.0,,Click Response,1_count,3.0,object-46,temp_dist_trial,3.0,t_i_06_1,travel_Iceland,knit hat,10.0,unique,single,t_i_06_1.jpg,Travel,$${counterbalance_group},,sub-90
Desktop or Laptop,Windows 10,Chrome 138.0.0.0,1012x569,1012x570,Temporal Distance Task,cb_10,4.0,temp_dist_trial,num_items,zn7si1,1.0,response,1_ITEM,1328.5,1316.5,1328.5,1328.5,1316.5,1328.5,1.0,0.0,0.0,,Click Response,1_count,3.0,object-46,temp_dist_trial,4.0,t_s_04_1,travel_shared,instant camera,10.0,competing,single,t_s_04_1.jpg,Travel,$${counterbalance_group},,sub-90
Desktop or Laptop,Windows 10,Chrome 138.0.0.0,1012x569,1012x570,Temporal Distance Task,cb_10,5.0,temp_dist_trial,num_items,zn7si1,1.0,response,1_ITEM,1346.5999999910566,1333.7999999999956,1346.5999999910566,1346.5999999910566,1333.7999999999956,1346.5999999910566,1.0,0.0,0.0,,Click Response,1_count,3.0,object-46,temp_dist_trial,5.0,t_i_12_1,travel_Iceland,tent,10.0,unique,single,t_i_12_1.jpg,Travel,$${counterbalance_group},,sub-90
Desktop or Laptop,Windows 10,Chrome 138.0.0.0,1012x569,1012x570,Temporal Distance Task,cb_10,6.0,temp_dist_trial,num_items,zn7si1,1.0,response,1_ITEM,2018.1999999970208,2016.4000000000005,2018.1999999970208,2018.1999999970208,2016.4000000000005,2018.1999999970208,1.0,0.0,0.0,,Click Response,1_count,3.0,object-46,temp_dist_trial,6.0,t_m_11_1,travel_Miami,collapsible beach chair,10.0,unique,single,t_m_11_1.jpg,Travel,$${counterbalance_group},,sub-90
Desktop or Laptop,Windows 10,Chrome 138.0.0.0,1012x569,1012x570,Temporal Distance Task,cb_10,7.0,temp_dist_trial,num_items,zn7si1,1.0,response,1_ITEM,1197.0000000029831,1182.8000000000031,1197.0000000029831,1197.0000000029831,1182.8000000000031,1197.0000000029831,1.0,0.0,0.0,,Click Response,1_count,3.0,object-46,temp_dist_trial,7.0,t_i_10_1,travel_Iceland,trekking poles,10.0,unique,paired,t_i_10_1.jpg,Travel,$${counterbalance_group},,sub-90
Desktop or Laptop,Windows 10,Chrome 138.0.0.0,1012x569,1012x570,Temporal Distance Task,cb_10,8.0,temp_dist_trial,num_items,zn7si1,1.0,response,2_ITEM,1218.9999999910651,1216.2000000000114,1218.9999999910651,1218.9999999910651,1216.2000000000114,1218.9999999910651,1.0,0.0,0.0,,Click Response,2_count,5.0,object-49,temp_dist_trial,8.0,t_s_17_1,travel_shared,toothbrush,10.0,competing,paired,t_s_17_1.jpg,Travel,$${counterbalance_group},,sub-90
Desktop or Laptop,Windows 10,Chrome 138.0.0.0,1012x569,1012x570,Temporal Distance Task,cb_10,8.0,temp_dist_trial,dist_items,qkpkxw,2.0,info,,14.099999994039536,0.0,14.099999994039536,14.099999994039536,0.0,14.099999994039536,1.0,0.0,0.0,,Slider,Slider,4.0,object-56,temp_dist_trial,8.0,t_s_17_1,travel_shared,toothbrush,10.0,competing,paired,t_s_17_1.jpg,Travel,$${counterbalance_group},,sub-90
Desktop or Laptop,Windows 10,Chrome 138.0.0.0,1012x569,1012x570,Temporal Distance Task,cb_10,8.0,temp_dist_trial,dist_items,qkpkxw,2.0,continue,,2204.8999999910598,2199.300000000003,2204.8999999910598,2204.8999999910598,2199.300000000003,2204.8999999910598,1.0,0.0,0.0,,Click To Continue,Next button,7.0,object-60,temp_dist_trial,8.0,t_s_17_1,travel_shared,toothbrush,10.0,competing,paired,t_s_17_1.jpg,Travel,$${counterbalance_group},,sub-90
Desktop or Laptop,Windows 10,Chrome 138.0.0.0,1012x569,1012x570,Temporal Distance Task,cb_10,8.0,temp_dist_trial,dist_items,qkpkxw,2.0,response,42,1249.5,2199.300000000003,2205.3999999910598,1249.5,2199.300000000003,2205.3999999910598,1.0,955.8999999910593,0.0,,Slider,Slider,4.0,object-56,temp_dist_trial,8.0,t_s_17_1,travel_shared,toothbrush,10.0,competing,paired,t_s_17_1.jpg,Travel,$${counterbalance_group},,sub-90
Desktop or Laptop,Windows 10,Chrome 138.0.0.0,1012x569,1012x570,Temporal Distance Task,cb_10,9.0,temp_dist_trial,num_items,zn7si1,1.0,response,2_ITEM,1194.6999999999969,1183.3000000000031,1194.6999999999969,1194.6999999999969,1183.3000000000031,1194.6999999999969,1.0,0.0,0.0,,Click Response,2_count,5.0,object-49,temp_dist_trial,9.0,t_m_15_1,travel_Miami,shorts,10.0,unique,paired,t_m_15_1.jpg,Travel,$${counterbalance_group},,sub-90
Desktop or Laptop,Windows 10,Chrome 138.0.0.0,1012x569,1012x570,Temporal Distance Task,cb_10,9.0,temp_dist_trial,dist_items,qkpkxw,2.0,info,,10.399999997025587,0.0,10.399999997025587,10.399999997025587,0.0,10.399999997025587,1.0,0.0,0.0,,Slider,Slider,4.0,object-56,temp_dist_trial,9.0,t_m_15_1,travel_Miami,shorts,10.0,unique,paired,t_m_15_1.jpg,Travel,$${counterbalance_group},,sub-90
Desktop or Laptop,Windows 10,Chrome 138.0.0.0,1012x569,1012x570,Temporal Distance Task,cb_10,9.0,temp_dist_trial,dist_items,qkpkxw,2.0,continue,,2836.1000000000067,2833.1000000000067,2836.1000000000067,2836.1000000000067,2833.1000000000067,2836.1000000000067,1.0,0.0,0.0,,Click To Continue,Next button,7.0,object-60,temp_dist_trial,9.0,t_m_15_1,travel_Miami,shorts,10.0,unique,paired,t_m_15_1.jpg,Travel,$${counterbalance_group},,sub-90
Desktop or Laptop,Windows 10,Chrome 138.0.0.0,1012x569,1012x570,Temporal Distance Task,cb_10,9.0,temp_dist_trial,dist_items,qkpkxw,2.0,response,67,766.6000000000058,2833.1000000000067,2837.699999994045,766.6000000000058,2833.1000000000067,2837.699999994045,1.0,2071.0999999940395,0.0,,Slider,Slider,4.0,object-56,temp_dist_trial,9.0,t_m_15_1,travel_Miami,shorts,10.0,unique,paired,t_m_15_1.jpg,Travel,$${counterbalance_group},,sub-90
Desktop or Laptop,Windows 10,Chrome 138.0.0.0,1012x569,1012x570,Temporal Distance Task,cb_10,10.0,temp_dist_trial,num_items,zn7si1,1.0,response,2_ITEM,1896.20000000298,1883.1000000000056,1896.20000000298,1896.20000000298,1883.1000000000056,1896.20000000298,1.0,0.0,0.0,,Click Response,2_count,5.0,object-49,temp_dist_trial,10.0,t_m_18_1,travel_Miami,waterproof tote,10.0,unique,paired,t_m_18_1.jpg,Travel,$${counterbalance_group},,sub-90
Desktop or Laptop,Windows 10,Chrome 138.0.0.0,1012x569,1012x570,Temporal Distance Task,cb_10,10.0,temp_dist_trial,dist_items,qkpkxw,2.0,info,,12.800000002986051,0.0,12.800000002986051,12.800000002986051,0.0,12.800000002986051,1.0,0.0,0.0,,Slider,Slider,4.0,object-56,temp_dist_trial,10.0,t_m_18_1,travel_Miami,waterproof tote,10.0,unique,paired,t_m_18_1.jpg,Travel,$${counterbalance_group},,sub-90
Desktop or Laptop,Windows 10,Chrome 138.0.0.0,1012x569,1012x570,Temporal Distance Task,cb_10,10.0,temp_dist_trial,dist_items,qkpkxw,2.0,continue,,1646.4999999910654,1633.3000000000034,1646.4999999910654,1646.4999999910654,1633.3000000000034,1646.4999999910654,1.0,0.0,0.0,,Click To Continue,Next button,7.0,object-60,temp_dist_trial,10.0,t_m_18_1,travel_Miami,waterproof tote,10.0,unique,paired,t_m_18_1.jpg,Travel,$${counterbalance_group},,sub-90
Desktop or Laptop,Windows 10,Chrome 138.0.0.0,1012x569,1012x570,Temporal Distance Task,cb_10,10.0,temp_dist_trial,dist_items,qkpkxw,2.0,response,41,900.1000000000058,1633.3000000000034,1650.1999999999966,900.1000000000058,1633.3000000000034,1650.1999999999966,1.0,750.0999999999913,0.0,,Slider,Slider,4.0,object-56,temp_dist_trial,10.0,t_m_18_1,travel_Miami,waterproof tote,10.0,unique,paired,t_m_18_1.jpg,Travel,$${counterbalance_group},,sub-90
Desktop or Laptop,Windows 10,Chrome 138.0.0.0,1012x569,1012x570,Temporal Distance Task,cb_10,11.0,temp_dist_trial,num_items,zn7si1,1.0,response,1_ITEM,1699.0000000000146,1682.6000000000058,1699.0000000000146,1699.0000000000146,1682.6000000000058,1699.0000000000146,1.0,0.0,0.0,,Click Response,1_count,3.0,object-46,temp_dist_trial,11.0,t_s_24_1,travel_shared,ear plugs,10.0,competing,single,t_s_24_1.jpg,Travel,$${counterbalance_group},,sub-90
Desktop or Laptop,Windows 10,Chrome 138.0.0.0,1012x569,1012x570,Temporal Distance Task,cb_10,12.0,temp_dist_trial,num_items,zn7si1,1.0,response,2_ITEM,1454.800000002986,1449.7000000000116,1454.800000002986,1454.800000002986,1449.7000000000116,1454.800000002986,1.0,0.0,0.0,,Click Response,2_count,5.0,object-49,temp_dist_trial,12.0,t_s_12_1,travel_shared,clear toiletry bag,10.0,competing,paired,t_s_12_1.jpg,Travel,$${counterbalance_group},,sub-90
Desktop or Laptop,Windows 10,Chrome 138.0.0.0,1012x569,1012x570,Temporal Distance Task,cb_10,12.0,temp_dist_trial,dist_items,qkpkxw,2.0,info,,6.600000000005821,0.0,6.600000000005821,6.600000000005821,0.0,6.600000000005821,1.0,0.0,0.0,,Slider,Slider,4.0,object-56,temp_dist_trial,12.0,t_s_12_1,travel_shared,clear toiletry bag,10.0,competing,paired,t_s_12_1.jpg,Travel,$${counterbalance_group},,sub-90
Desktop or Laptop,Windows 10,Chrome 138.0.0.0,1012x569,1012x570,Temporal Distance Task,cb_10,12.0,temp_dist_trial,dist_items,qkpkxw,2.0,continue,,1868.4999999910647,1866.5,1868.4999999910647,1868.4999999910647,1866.5,1868.4999999910647,1.0,0.0,0.0,,Click To Continue,Next button,7.0,object-60,temp_dist_trial,12.0,t_s_12_1,travel_shared,clear toiletry bag,10.0,competing,paired,t_s_12_1.jpg,Travel,$${counterbalance_group},,sub-90
Desktop or Laptop,Windows 10,Chrome 138.0.0.0,1012x569,1012x570,Temporal Distance Task,cb_10,12.0,temp_dist_trial,dist_items,qkpkxw,2.0,response,38,967.2000000000116,1866.5,1870.6000000000056,967.2000000000116,1866.5,1870.6000000000056,1.0,903.3999999999942,0.0,,Slider,Slider,4.0,object-56,temp_dist_trial,12.0,t_s_12_1,travel_shared,clear toiletry bag,10.0,competing,paired,t_s_12_1.jpg,Travel,$${counterbalance_group},,sub-90
Desktop or Laptop,Windows 10,Chrome 138.0.0.0,1012x569,1012x570,Temporal Distance Task,cb_10,13.0,temp_dist_trial,num_items,zn7si1,1.0,response,2_ITEM,1204.4999999910651,1199.9000000000087,1204.4999999910651,1204.4999999910651,1199.9000000000087,1204.4999999910651,1.0,0.0,0.0,,Click Response,2_count,5.0,object-49,temp_dist_trial,13.0,t_i_14_1,travel_Iceland,snow pants,10.0,unique,paired,t_i_14_1.jpg,Travel,$${counterbalance_group},,sub-90
Desktop or Laptop,Windows 10,Chrome 138.0.0.0,1012x569,1012x570,Temporal Distance Task,cb_10,13.0,temp_dist_trial,dist_items,qkpkxw,2.0,info,,13.699999991062214,0.0,13.699999991062214,13.699999991062214,0.0,13.699999991062214,1.0,0.0,0.0,,Slider,Slider,4.0,object-56,temp_dist_trial,13.0,t_i_14_1,travel_Iceland,snow pants,10.0,unique,paired,t_i_14_1.jpg,Travel,$${counterbalance_group},,sub-90
Desktop or Laptop,Windows 10,Chrome 138.0.0.0,1012x569,1012x570,Temporal Distance Task,cb_10,13.0,temp_dist_trial,dist_items,qkpkxw,2.0,continue,,2319.599999997023,2316.4000000000087,2319.599999997023,2319.599999997023,2316.4000000000087,2319.599999997023,1.0,0.0,0.0,,Click To Continue,Next button,7.0,object-60,temp_dist_trial,13.0,t_i_14_1,travel_Iceland,snow pants,10.0,unique,paired,t_i_14_1.jpg,Travel,$${counterbalance_group},,sub-90
Desktop or Laptop,Windows 10,Chrome 138.0.0.0,1012x569,1012x570,Temporal Distance Task,cb_10,13.0,temp_dist_trial,dist_items,qkpkxw,2.0,response,39,1466.5,2316.4000000000087,2320.800000000003,1466.5,2316.4000000000087,2320.800000000003,1.0,854.3000000000029,0.0,,Slider,Slider,4.0,object-56,temp_dist_trial,13.0,t_i_14_1,travel_Iceland,snow pants,10.0,unique,paired,t_i_14_1.jpg,Travel,$${counterbalance_group},,sub-90
Desktop or Laptop,Windows 10,Chrome 138.0.0.0,1012x569,1012x570,Temporal Distance Task,cb_10,14.0,temp_dist_trial,num_items,zn7si1,1.0,response,1_ITEM,1283.2999999910535,1267.0,1283.2999999910535,1283.2999999910535,1267.0,1283.2999999910535,1.0,0.0,0.0,,Click Response,1_count,3.0,object-46,temp_dist_trial,14.0,t_s_19_1,travel_shared,pajamas,10.0,competing,single,t_s_19_1.jpg,Travel,$${counterbalance_group},,sub-90
Desktop or Laptop,Windows 10,Chrome 138.0.0.0,1012x569,1012x570,Temporal Distance Task,cb_10,15.0,temp_dist_trial,num_items,zn7si1,1.0,response,2_ITEM,1294.1000000029746,1283.1999999999969,1294.1000000029746,1294.1000000029746,1283.1999999999969,1294.1000000029746,1.0,0.0,0.0,,Click Response,2_count,5.0,object-49,temp_dist_trial,15.0,t_s_21_1,travel_shared,umbrella,10.0,competing,paired,t_s_21_1.jpg,Travel,$${counterbalance_group},,sub-90
Desktop or Laptop,Windows 10,Chrome 138.0.0.0,1012x569,1012x570,Temporal Distance Task,cb_10,15.0,temp_dist_trial,dist_items,qkpkxw,2.0,info,,6.100000002974412,0.0,6.100000002974412,6.100000002974412,0.0,6.100000002974412,1.0,0.0,0.0,,Slider,Slider,4.0,object-56,temp_dist_trial,15.0,t_s_21_1,travel_shared,umbrella,10.0,competing,paired,t_s_21_1.jpg,Travel,$${counterbalance_group},,sub-90
Desktop or Laptop,Windows 10,Chrome 138.0.0.0,1012x569,1012x570,Temporal Distance Task,cb_10,15.0,temp_dist_trial,dist_items,qkpkxw,2.0,continue,,1404.6000000029746,1400.0,1404.6000000029746,1404.6000000029746,1400.0,1404.6000000029746,1.0,0.0,0.0,,Click To Continue,Next button,7.0,object-60,temp_dist_trial,15.0,t_s_21_1,travel_shared,umbrella,10.0,competing,paired,t_s_21_1.jpg,Travel,$${counterbalance_group},,sub-90
Desktop or Laptop,Windows 10,Chrome 138.0.0.0,1012x569,1012x570,Temporal Distance Task,cb_10,15.0,temp_dist_trial,dist_items,qkpkxw,2.0,response,37,566.6999999999971,1400.0,1405.4999999940335,566.6999999999971,1400.0,1405.4999999940335,1.0,838.7999999940365,0.0,,Slider,Slider,4.0,object-56,temp_dist_trial,15.0,t_s_21_1,travel_shared,umbrella,10.0,competing,paired,t_s_21_1.jpg,Travel,$${counterbalance_group},,sub-90
Desktop or Laptop,Windows 10,Chrome 138.0.0.0,1012x569,1012x570,Temporal Distance Task,cb_10,16.0,temp_dist_trial,num_items,zn7si1,1.0,response,2_ITEM,1323.4999999940335,1316.3999999999942,1323.4999999940335,1323.4999999940335,1316.3999999999942,1323.4999999940335,1.0,0.0,0.0,,Click Response,2_count,5.0,object-49,temp_dist_trial,16.0,t_i_04_1,travel_Iceland,portable camping stove,10.0,unique,paired,t_i_04_1.jpg,Travel,$${counterbalance_group},,sub-90
Desktop or Laptop,Windows 10,Chrome 138.0.0.0,1012x569,1012x570,Temporal Distance Task,cb_10,16.0,temp_dist_trial,dist_items,qkpkxw,2.0,info,,8.800000002986053,0.0,8.800000002986053,8.800000002986053,0.0,8.800000002986053,1.0,0.0,0.0,,Slider,Slider,4.0,object-56,temp_dist_trial,16.0,t_i_04_1,travel_Iceland,portable camping stove,10.0,unique,paired,t_i_04_1.jpg,Travel,$${counterbalance_group},,sub-90
Desktop or Laptop,Windows 10,Chrome 138.0.0.0,1012x569,1012x570,Temporal Distance Task,cb_10,16.0,temp_dist_trial,dist_items,qkpkxw,2.0,continue,,1828.300000002986,1816.5,1828.300000002986,1828.300000002986,1816.5,1828.300000002986,1.0,0.0,0.0,,Click To Continue,Next button,7.0,object-60,temp_dist_trial,16.0,t_i_04_1,travel_Iceland,portable camping stove,10.0,unique,paired,t_i_04_1.jpg,Travel,$${counterbalance_group},,sub-90
Desktop or Laptop,Windows 10,Chrome 138.0.0.0,1012x569,1012x570,Temporal Distance Task,cb_10,16.0,temp_dist_trial,dist_items,qkpkxw,2.0,response,37,750.0,1816.5,1829.800000002986,750.0,1816.5,1829.800000002986,1.0,1079.800000002986,0.0,,Slider,Slider,4.0,object-56,temp_dist_trial,16.0,t_i_04_1,travel_Iceland,portable camping stove,10.0,unique,paired,t_i_04_1.jpg,Travel,$${counterbalance_group},,sub-90
Desktop or Laptop,Windows 10,Chrome 138.0.0.0,1012x569,1012x570,Temporal Distance Task,cb_10,17.0,temp_dist_trial,num_items,zn7si1,1.0,response,2_ITEM,895.6000000000058,883.1000000000058,895.6000000000058,895.6000000000058,883.1000000000058,895.6000000000058,1.0,0.0,0.0,,Click Response,2_count,5.0,object-49,temp_dist_trial,17.0,t_i_18_1,travel_Iceland,ski mask,10.0,unique,paired,t_i_18_1.jpg,Travel,$${counterbalance_group},,sub-90
Desktop or Laptop,Windows 10,Chrome 138.0.0.0,1012x569,1012x570,Temporal Distance Task,cb_10,17.0,temp_dist_trial,dist_items,qkpkxw,2.0,info,,7.100000002974412,0.0,7.100000002974412,7.100000002974412,0.0,7.100000002974412,1.0,0.0,0.0,,Slider,Slider,4.0,object-56,temp_dist_trial,17.0,t_i_18_1,travel_Iceland,ski mask,10.0,unique,paired,t_i_18_1.jpg,Travel,$${counterbalance_group},,sub-90
Desktop or Laptop,Windows 10,Chrome 138.0.0.0,1012x569,1012x570,Temporal Distance Task,cb_10,17.0,temp_dist_trial,dist_items,qkpkxw,2.0,continue,,1724.8999999999942,1716.1999999999966,1724.8999999999942,1724.8999999999942,1716.1999999999966,1724.8999999999942,1.0,0.0,0.0,,Click To Continue,Next button,7.0,object-60,temp_dist_trial,17.0,t_i_18_1,travel_Iceland,ski mask,10.0,unique,paired,t_i_18_1.jpg,Travel,$${counterbalance_group},,sub-90
Desktop or Laptop,Windows 10,Chrome 138.0.0.0,1012x569,1012x570,Temporal Distance Task,cb_10,17.0,temp_dist_trial,dist_items,qkpkxw,2.0,response,33,899.2999999999884,1716.1999999999966,1726.4999999940335,899.2999999999884,1716.1999999999966,1726.4999999940335,1.0,827.1999999940454,0.0,,Slider,Slider,4.0,object-56,temp_dist_trial,17.0,t_i_18_1,travel_Iceland,ski mask,10.0,unique,paired,t_i_18_1.jpg,Travel,$${counterbalance_group},,sub-90
Desktop or Laptop,Windows 10,Chrome 138.0.0.0,1012x569,1012x570,Temporal Distance Task,cb_10,18.0,temp_dist_trial,num_items,zn7si1,1.0,response,2_ITEM,1414.4999999970166,1400.0,1414.4999999970166,1414.4999999970166,1400.0,1414.4999999970166,1.0,0.0,0.0,,Click Response,2_count,5.0,object-49,temp_dist_trial,18.0,t_i_19_1,travel_Iceland,rope,10.0,unique,paired,t_i_19_1.jpg,Travel,$${counterbalance_group},,sub-90
Desktop or Laptop,Windows 10,Chrome 138.0.0.0,1012x569,1012x570,Temporal Distance Task,cb_10,18.0,temp_dist_trial,dist_items,qkpkxw,2.0,info,,6.999999991065124,0.0,6.999999991065124,6.999999991065124,0.0,6.999999991065124,1.0,0.0,0.0,,Slider,Slider,4.0,object-56,temp_dist_trial,18.0,t_i_19_1,travel_Iceland,rope,10.0,unique,paired,t_i_19_1.jpg,Travel,$${counterbalance_group},,sub-90
Desktop or Laptop,Windows 10,Chrome 138.0.0.0,1012x569,1012x570,Temporal Distance Task,cb_10,18.0,temp_dist_trial,dist_items,qkpkxw,2.0,continue,,1492.1999999940454,1483.0,1492.1999999940454,1492.1999999940454,1483.0,1492.1999999940454,1.0,0.0,0.0,,Click To Continue,Next button,7.0,object-60,temp_dist_trial,18.0,t_i_19_1,travel_Iceland,rope,10.0,unique,paired,t_i_19_1.jpg,Travel,$${counterbalance_group},,sub-90
Desktop or Laptop,Windows 10,Chrome 138.0.0.0,1012x569,1012x570,Temporal Distance Task,cb_10,18.0,temp_dist_trial,dist_items,qkpkxw,2.0,response,34,749.8000000000029,1483.0,1492.4999999910654,749.8000000000029,1483.0,1492.4999999910654,1.0,742.6999999910623,0.0,,Slider,Slider,4.0,object-56,temp_dist_trial,18.0,t_i_19_1,travel_Iceland,rope,10.0,unique,paired,t_i_19_1.jpg,Travel,$${counterbalance_group},,sub-90
Desktop or Laptop,Windows 10,Chrome 138.0.0.0,1012x569,1012x570,Temporal Distance Task,cb_10,19.0,temp_dist_trial,num_items,zn7si1,1.0,response,1_ITEM,1099.7000000000116,1083.4000000000087,1099.7000000000116,1099.7000000000116,1083.4000000000087,1099.7000000000116,1.0,0.0,0.0,,Click Response,1_count,3.0,object-46,temp_dist_trial,19.0,t_s_01_1,travel_shared,fanny pack,10.0,competing,single,t_s_01_1.jpg,Travel,$${counterbalance_group},,sub-90
Desktop or Laptop,Windows 10,Chrome 138.0.0.0,1012x569,1012x570,Temporal Distance Task,cb_10,20.0,temp_dist_trial,num_items,zn7si1,1.0,response,1_ITEM,1663.8000000000034,1649.6999999999966,1663.8000000000034,1663.8000000000034,1649.6999999999966,1663.8000000000034,1.0,0.0,0.0,,Click Response,1_count,3.0,object-46,temp_dist_trial,20.0,t_m_19_1,travel_Miami,surfboard,10.0,unique,paired,t_m_19_1.jpg,Travel,$${counterbalance_group},,sub-90
Desktop or Laptop,Windows 10,Chrome 138.0.0.0,1012x569,1012x570,Temporal Distance Task,cb_10,21.0,temp_dist_trial,num_items,zn7si1,1.0,response,2_ITEM,1066.2000000000116,1049.9000000000087,1066.2000000000116,1066.2000000000116,1049.9000000000087,1066.2000000000116,1.0,0.0,0.0,,Click Response,2_count,5.0,object-49,temp_dist_trial,21.0,t_m_05_1,travel_Miami,sunscreen,10.0,unique,single,t_m_05_1.jpg,Travel,$${counterbalance_group},,sub-90
Desktop or Laptop,Windows 10,Chrome 138.0.0.0,1012x569,1012x570,Temporal Distance Task,cb_10,21.0,temp_dist_trial,dist_items,qkpkxw,2.0,info,,10.999999991065122,0.0,10.999999991065122,10.999999991065122,0.0,10.999999991065122,1.0,0.0,0.0,,Slider,Slider,4.0,object-56,temp_dist_trial,21.0,t_m_05_1,travel_Miami,sunscreen,10.0,unique,single,t_m_05_1.jpg,Travel,$${counterbalance_group},,sub-90
Desktop or Laptop,Windows 10,Chrome 138.0.0.0,1012x569,1012x570,Temporal Distance Task,cb_10,21.0,temp_dist_trial,dist_items,qkpkxw,2.0,continue,,1399.6000000000058,1383.5,1399.6000000000058,1399.6000000000058,1383.5,1399.6000000000058,1.0,0.0,0.0,,Click To Continue,Next button,7.0,object-60,temp_dist_trial,21.0,t_m_05_1,travel_Miami,sunscreen,10.0,unique,single,t_m_05_1.jpg,Travel,$${counterbalance_group},,sub-90
Desktop or Laptop,Windows 10,Chrome 138.0.0.0,1012x569,1012x570,Temporal Distance Task,cb_10,21.0,temp_dist_trial,dist_items,qkpkxw,2.0,response,21,667.0,1383.5,1400.6999999999966,667.0,1383.5,1400.6999999999966,1.0,733.6999999999971,0.0,,Slider,Slider,4.0,object-56,temp_dist_trial,21.0,t_m_05_1,travel_Miami,sunscreen,10.0,unique,single,t_m_05_1.jpg,Travel,$${counterbalance_group},,sub-90
Desktop or Laptop,Windows 10,Chrome 138.0.0.0,1012x569,1012x570,Temporal Distance Task,cb_10,22.0,temp_dist_trial,num_items,zn7si1,1.0,response,2_ITEM,1003.8000000029859,999.3000000000028,1003.8000000029859,1003.8000000029859,999.3000000000028,1003.8000000029859,1.0,0.0,0.0,,Click Response,2_count,5.0,object-49,temp_dist_trial,22.0,t_s_16_1,travel_shared,chapstick,10.0,competing,paired,t_s_16_1.jpg,Travel,$${counterbalance_group},,sub-90
Desktop or Laptop,Windows 10,Chrome 138.0.0.0,1012x569,1012x570,Temporal Distance Task,cb_10,22.0,temp_dist_trial,dist_items,qkpkxw,2.0,info,,7.800000000002909,0.0,7.800000000002909,7.800000000002909,0.0,7.800000000002909,1.0,0.0,0.0,,Slider,Slider,4.0,object-56,temp_dist_trial,22.0,t_s_16_1,travel_shared,chapstick,10.0,competing,paired,t_s_16_1.jpg,Travel,$${counterbalance_group},,sub-90
Desktop or Laptop,Windows 10,Chrome 138.0.0.0,1012x569,1012x570,Temporal Distance Task,cb_10,22.0,temp_dist_trial,dist_items,qkpkxw,2.0,continue,,1566.0999999970227,1549.8000000000034,1566.0999999970227,1566.0999999970227,1549.8000000000034,1566.0999999970227,1.0,0.0,0.0,,Click To Continue,Next button,7.0,object-60,temp_dist_trial,22.0,t_s_16_1,travel_shared,chapstick,10.0,competing,paired,t_s_16_1.jpg,Travel,$${counterbalance_group},,sub-90
Desktop or Laptop,Windows 10,Chrome 138.0.0.0,1012x569,1012x570,Temporal Distance Task,cb_10,22.0,temp_dist_trial,dist_items,qkpkxw,2.0,response,30,533.3000000000029,1549.8000000000034,1566.400000000009,533.3000000000029,1549.8000000000034,1566.400000000009,1.0,1033.1000000000058,0.0,,Slider,Slider,4.0,object-56,temp_dist_trial,22.0,t_s_16_1,travel_shared,chapstick,10.0,competing,paired,t_s_16_1.jpg,Travel,$${counterbalance_group},,sub-90
Desktop or Laptop,Windows 10,Chrome 138.0.0.0,1012x569,1012x570,Temporal Distance Task,cb_10,23.0,temp_dist_trial,num_items,zn7si1,1.0,response,2_ITEM,1064.5,1049.5,1064.5,1064.5,1049.5,1064.5,1.0,0.0,0.0,,Click Response,2_count,5.0,object-49,temp_dist_trial,23.0,t_s_05_1,travel_shared,neck pillow,10.0,competing,paired,t_s_05_1.jpg,Travel,$${counterbalance_group},,sub-90
Desktop or Laptop,Windows 10,Chrome 138.0.0.0,1012x569,1012x570,Temporal Distance Task,cb_10,23.0,temp_dist_trial,dist_items,qkpkxw,2.0,info,,4.4999999970168565,0.0,4.4999999970168565,4.4999999970168565,0.0,4.4999999970168565,1.0,0.0,0.0,,Slider,Slider,4.0,object-56,temp_dist_trial,23.0,t_s_05_1,travel_shared,neck pillow,10.0,competing,paired,t_s_05_1.jpg,Travel,$${counterbalance_group},,sub-90
Desktop or Laptop,Windows 10,Chrome 138.0.0.0,1012x569,1012x570,Temporal Distance Task,cb_10,23.0,temp_dist_trial,dist_items,qkpkxw,2.0,continue,,1269.2999999940366,1266.5999999999913,1269.2999999940366,1269.2999999940366,1266.5999999999913,1269.2999999940366,1.0,0.0,0.0,,Click To Continue,Next button,7.0,object-60,temp_dist_trial,23.0,t_s_05_1,travel_shared,neck pillow,10.0,competing,paired,t_s_05_1.jpg,Travel,$${counterbalance_group},,sub-90
Desktop or Laptop,Windows 10,Chrome 138.0.0.0,1012x569,1012x570,Temporal Distance Task,cb_10,23.0,temp_dist_trial,dist_items,qkpkxw,2.0,response,36,517.0,1266.5999999999913,1270.4000000029773,517.0,1266.5999999999913,1270.4000000029773,1.0,753.4000000029773,0.0,,Slider,Slider,4.0,object-56,temp_dist_trial,23.0,t_s_05_1,travel_shared,neck pillow,10.0,competing,paired,t_s_05_1.jpg,Travel,$${counterbalance_group},,sub-90
Desktop or Laptop,Windows 10,Chrome 138.0.0.0,1012x569,1012x570,Temporal Distance Task,cb_10,24.0,temp_dist_trial,num_items,zn7si1,1.0,response,1_ITEM,1033.8999999999942,1017.0,1033.8999999999942,1033.8999999999942,1017.0,1033.8999999999942,1.0,0.0,0.0,,Click Response,1_count,3.0,object-46,temp_dist_trial,24.0,t_s_02_1,travel_shared,water bottle,10.0,competing,paired,t_s_02_1.jpg,Travel,$${counterbalance_group},,sub-90
Desktop or Laptop,Windows 10,Chrome 138.0.0.0,1012x569,1012x570,Temporal Distance Task,cb_10,25.0,temp_dist_trial,num_items,zn7si1,1.0,response,2_ITEM,879.9000000029773,867.0999999999913,879.9000000029773,879.9000000029773,867.0999999999913,879.9000000029773,1.0,0.0,0.0,,Click Response,2_count,5.0,object-49,temp_dist_trial,25.0,t_m_08_1,travel_Miami,flipflops,10.0,unique,paired,t_m_08_1.jpg,Travel,$${counterbalance_group},,sub-90
Desktop or Laptop,Windows 10,Chrome 138.0.0.0,1012x569,1012x570,Temporal Distance Task,cb_10,25.0,temp_dist_trial,dist_items,qkpkxw,2.0,info,,8.499999991065124,0.0,8.499999991065124,8.499999991065124,0.0,8.499999991065124,1.0,0.0,0.0,,Slider,Slider,4.0,object-56,temp_dist_trial,25.0,t_m_08_1,travel_Miami,flipflops,10.0,unique,paired,t_m_08_1.jpg,Travel,$${counterbalance_group},,sub-90
Desktop or Laptop,Windows 10,Chrome 138.0.0.0,1012x569,1012x570,Temporal Distance Task,cb_10,25.0,temp_dist_trial,dist_items,qkpkxw,2.0,continue,,1472.800000002986,1466.400000000009,1472.800000002986,1472.800000002986,1466.400000000009,1472.800000002986,1.0,0.0,0.0,,Click To Continue,Next button,7.0,object-60,temp_dist_trial,25.0,t_m_08_1,travel_Miami,flipflops,10.0,unique,paired,t_m_08_1.jpg,Travel,$${counterbalance_group},,sub-90
Desktop or Laptop,Windows 10,Chrome 138.0.0.0,1012x569,1012x570,Temporal Distance Task,cb_10,25.0,temp_dist_trial,dist_items,qkpkxw,2.0,response,39,600.0,1466.400000000009,1473.1999999940454,600.0,1466.400000000009,1473.1999999940454,1.0,873.1999999940454,0.0,,Slider,Slider,4.0,object-56,temp_dist_trial,25.0,t_m_08_1,travel_Miami,flipflops,10.0,unique,paired,t_m_08_1.jpg,Travel,$${counterbalance_group},,sub-90
Desktop or Laptop,Windows 10,Chrome 138.0.0.0,1012x569,1012x570,Temporal Distance Task,cb_10,26.0,temp_dist_trial,num_items,zn7si1,1.0,response,2_ITEM,983.1999999999823,966.5999999999913,983.1999999999823,983.1999999999823,966.5999999999913,983.1999999999823,1.0,0.0,0.0,,Click Response,2_count,5.0,object-49,temp_dist_trial,26.0,t_s_06_1,travel_shared,luggage,10.0,competing,paired,t_s_06_1.jpg,Travel,$${counterbalance_group},,sub-90
Desktop or Laptop,Windows 10,Chrome 138.0.0.0,1012x569,1012x570,Temporal Distance Task,cb_10,26.0,temp_dist_trial,dist_items,qkpkxw,2.0,info,,10.800000002986051,0.0,10.800000002986051,10.800000002986051,0.0,10.800000002986051,1.0,0.0,0.0,,Slider,Slider,4.0,object-56,temp_dist_trial,26.0,t_s_06_1,travel_shared,luggage,10.0,competing,paired,t_s_06_1.jpg,Travel,$${counterbalance_group},,sub-90
Desktop or Laptop,Windows 10,Chrome 138.0.0.0,1012x569,1012x570,Temporal Distance Task,cb_10,26.0,temp_dist_trial,dist_items,qkpkxw,2.0,continue,,1593.3999999970254,1583.1000000000058,1593.3999999970254,1593.3999999970254,1583.1000000000058,1593.3999999970254,1.0,0.0,0.0,,Click To Continue,Next button,7.0,object-60,temp_dist_trial,26.0,t_s_06_1,travel_shared,luggage,10.0,competing,paired,t_s_06_1.jpg,Travel,$${counterbalance_group},,sub-90
Desktop or Laptop,Windows 10,Chrome 138.0.0.0,1012x569,1012x570,Temporal Distance Task,cb_10,26.0,temp_dist_trial,dist_items,qkpkxw,2.0,response,39,617.0,1583.1000000000058,1594.9999999910654,617.0,1583.1000000000058,1594.9999999910654,1.0,977.9999999910652,0.0,,Slider,Slider,4.0,object-56,temp_dist_trial,26.0,t_s_06_1,travel_shared,luggage,10.0,competing,paired,t_s_06_1.jpg,Travel,$${counterbalance_group},,sub-90
Desktop or Laptop,Windows 10,Chrome 138.0.0.0,1012x569,1012x570,Temporal Distance Task,cb_10,27.0,temp_dist_trial,num_items,zn7si1,1.0,response,1_ITEM,1966.0,1949.6999999999966,1966.0,1966.0,1949.6999999999966,1966.0,1.0,0.0,0.0,,Click Response,1_count,3.0,object-46,temp_dist_trial,27.0,t_s_20_1,travel_shared,travel pill case,10.0,competing,paired,t_s_20_1.jpg,Travel,$${counterbalance_group},,sub-90
Desktop or Laptop,Windows 10,Chrome 138.0.0.0,1012x569,1012x570,Temporal Distance Task,cb_10,28.0,temp_dist_trial,num_items,zn7si1,1.0,response,2_ITEM,1016.7999999999884,999.8999999999942,1016.7999999999884,1016.7999999999884,999.8999999999942,1016.7999999999884,1.0,0.0,0.0,,Click Response,2_count,5.0,object-49,temp_dist_trial,28.0,t_i_08_1,travel_Iceland,thick socks,10.0,unique,paired,t_i_08_1.jpg,Travel,$${counterbalance_group},,sub-90
Desktop or Laptop,Windows 10,Chrome 138.0.0.0,1012x569,1012x570,Temporal Distance Task,cb_10,28.0,temp_dist_trial,dist_items,qkpkxw,2.0,info,,12.0,0.0,12.0,12.0,0.0,12.0,1.0,0.0,0.0,,Slider,Slider,4.0,object-56,temp_dist_trial,28.0,t_i_08_1,travel_Iceland,thick socks,10.0,unique,paired,t_i_08_1.jpg,Travel,$${counterbalance_group},,sub-90
Desktop or Laptop,Windows 10,Chrome 138.0.0.0,1012x569,1012x570,Temporal Distance Task,cb_10,28.0,temp_dist_trial,dist_items,qkpkxw,2.0,continue,,1239.0999999940395,1233.3999999999942,1239.0999999940395,1239.0999999940395,1233.3999999999942,1239.0999999940395,1.0,0.0,0.0,,Click To Continue,Next button,7.0,object-60,temp_dist_trial,28.0,t_i_08_1,travel_Iceland,thick socks,10.0,unique,paired,t_i_08_1.jpg,Travel,$${counterbalance_group},,sub-90
Desktop or Laptop,Windows 10,Chrome 138.0.0.0,1012x569,1012x570,Temporal Distance Task,cb_10,28.0,temp_dist_trial,dist_items,qkpkxw,2.0,response,39,550.0,1233.3999999999942,1239.8999999910593,550.0,1233.3999999999942,1239.8999999910593,1.0,689.8999999910593,0.0,,Slider,Slider,4.0,object-56,temp_dist_trial,28.0,t_i_08_1,travel_Iceland,thick socks,10.0,unique,paired,t_i_08_1.jpg,Travel,$${counterbalance_group},,sub-90
Desktop or Laptop,Windows 10,Chrome 138.0.0.0,1012x569,1012x570,Temporal Distance Task,cb_10,29.0,temp_dist_trial,num_items,zn7si1,1.0,response,2_ITEM,1462.9999999910654,1449.7000000000116,1462.9999999910654,1462.9999999910654,1449.7000000000116,1462.9999999910654,1.0,0.0,0.0,,Click Response,2_count,5.0,object-49,temp_dist_trial,29.0,t_s_11_1,travel_shared,eye mask,10.0,competing,paired,t_s_11_1.jpg,Travel,$${counterbalance_group},,sub-90
Desktop or Laptop,Windows 10,Chrome 138.0.0.0,1012x569,1012x570,Temporal Distance Task,cb_10,29.0,temp_dist_trial,dist_items,qkpkxw,2.0,info,,10.600000002974413,0.0,10.600000002974413,10.600000002974413,0.0,10.600000002974413,1.0,0.0,0.0,,Slider,Slider,4.0,object-56,temp_dist_trial,29.0,t_s_11_1,travel_shared,eye mask,10.0,competing,paired,t_s_11_1.jpg,Travel,$${counterbalance_group},,sub-90
Desktop or Laptop,Windows 10,Chrome 138.0.0.0,1012x569,1012x570,Temporal Distance Task,cb_10,29.0,temp_dist_trial,dist_items,qkpkxw,2.0,continue,,1033.7999999999884,1016.8999999999942,1033.7999999999884,1033.7999999999884,1016.8999999999942,1033.7999999999884,1.0,0.0,0.0,,Click To Continue,Next button,7.0,object-60,temp_dist_trial,29.0,t_s_11_1,travel_shared,eye mask,10.0,competing,paired,t_s_11_1.jpg,Travel,$${counterbalance_group},,sub-90
Desktop or Laptop,Windows 10,Chrome 138.0.0.0,1012x569,1012x570,Temporal Distance Task,cb_10,29.0,temp_dist_trial,dist_items,qkpkxw,2.0,response,42,467.09999999999116,1016.8999999999942,1033.7999999999884,467.09999999999116,1016.8999999999942,1033.7999999999884,1.0,566.6999999999971,0.0,,Slider,Slider,4.0,object-56,temp_dist_trial,29.0,t_s_11_1,travel_shared,eye mask,10.0,competing,paired,t_s_11_1.jpg,Travel,$${counterbalance_group},,sub-90
Desktop or Laptop,Windows 10,Chrome 138.0.0.0,1012x569,1012x570,Temporal Distance Task,cb_10,30.0,temp_dist_trial,num_items,zn7si1,1.0,response,2_ITEM,1869.3999999910595,1866.0,1869.3999999910595,1869.3999999910595,1866.0,1869.3999999910595,1.0,0.0,0.0,,Click Response,2_count,5.0,object-49,temp_dist_trial,30.0,t_s_14_1,travel_shared,hand sanitizer,10.0,competing,paired,t_s_14_1.jpg,Travel,$${counterbalance_group},,sub-90
Desktop or Laptop,Windows 10,Chrome 138.0.0.0,1012x569,1012x570,Temporal Distance Task,cb_10,30.0,temp_dist_trial,dist_items,qkpkxw,2.0,info,,8.799999994036625,0.0,8.799999994036625,8.799999994036625,0.0,8.799999994036625,1.0,0.0,0.0,,Slider,Slider,4.0,object-56,temp_dist_trial,30.0,t_s_14_1,travel_shared,hand sanitizer,10.0,competing,paired,t_s_14_1.jpg,Travel,$${counterbalance_group},,sub-90
Desktop or Laptop,Windows 10,Chrome 138.0.0.0,1012x569,1012x570,Temporal Distance Task,cb_10,30.0,temp_dist_trial,dist_items,qkpkxw,2.0,continue,,1285.7999999940366,1282.8999999999942,1285.7999999940366,1285.7999999940366,1282.8999999999942,1285.7999999940366,1.0,0.0,0.0,,Click To Continue,Next button,7.0,object-60,temp_dist_trial,30.0,t_s_14_1,travel_shared,hand sanitizer,10.0,competing,paired,t_s_14_1.jpg,Travel,$${counterbalance_group},,sub-90
Desktop or Laptop,Windows 10,Chrome 138.0.0.0,1012x569,1012x570,Temporal Distance Task,cb_10,30.0,temp_dist_trial,dist_items,qkpkxw,2.0,response,41,683.1999999999971,1282.8999999999942,1287.6999999999969,683.1999999999971,1282.8999999999942,1287.6999999999969,1.0,604.5,0.0,,Slider,Slider,4.0,object-56,temp_dist_trial,30.0,t_s_14_1,travel_shared,hand sanitizer,10.0,competing,paired,t_s_14_1.jpg,Travel,$${counterbalance_group},,sub-90
Desktop or Laptop,Windows 10,Chrome 138.0.0.0,1012x569,1012x570,Temporal Distance Task,cb_10,31.0,temp_dist_trial,num_items,zn7si1,1.0,response,2_ITEM,1287.5999999970227,1282.9000000000087,1287.5999999970227,1287.5999999970227,1282.9000000000087,1287.5999999970227,1.0,0.0,0.0,,Click Response,2_count,5.0,object-49,temp_dist_trial,31.0,t_s_22_1,travel_shared,belt,10.0,competing,paired,t_s_22_1.jpg,Travel,$${counterbalance_group},,sub-90
Desktop or Laptop,Windows 10,Chrome 138.0.0.0,1012x569,1012x570,Temporal Distance Task,cb_10,31.0,temp_dist_trial,dist_items,qkpkxw,2.0,info,,7.300000002986053,0.0,7.300000002986053,7.300000002986053,0.0,7.300000002986053,1.0,0.0,0.0,,Slider,Slider,4.0,object-56,temp_dist_trial,31.0,t_s_22_1,travel_shared,belt,10.0,competing,paired,t_s_22_1.jpg,Travel,$${counterbalance_group},,sub-90
Desktop or Laptop,Windows 10,Chrome 138.0.0.0,1012x569,1012x570,Temporal Distance Task,cb_10,31.0,temp_dist_trial,dist_items,qkpkxw,2.0,continue,,1188.800000002986,1183.5,1188.800000002986,1188.800000002986,1183.5,1188.800000002986,1.0,0.0,0.0,,Click To Continue,Next button,7.0,object-60,temp_dist_trial,31.0,t_s_22_1,travel_shared,belt,10.0,competing,paired,t_s_22_1.jpg,Travel,$${counterbalance_group},,sub-90
Desktop or Laptop,Windows 10,Chrome 138.0.0.0,1012x569,1012x570,Temporal Distance Task,cb_10,31.0,temp_dist_trial,dist_items,qkpkxw,2.0,response,24,516.8999999999942,1183.5,1189.6999999940456,516.8999999999942,1183.5,1189.6999999940456,1.0,672.7999999940513,0.0,,Slider,Slider,4.0,object-56,temp_dist_trial,31.0,t_s_22_1,travel_shared,belt,10.0,competing,paired,t_s_22_1.jpg,Travel,$${counterbalance_group},,sub-90
Desktop or Laptop,Windows 10,Chrome 138.0.0.0,1012x569,1012x570,Temporal Distance Task,cb_10,32.0,temp_dist_trial,num_items,zn7si1,1.0,response,2_ITEM,1341.300000002986,1333.3000000000175,1341.300000002986,1341.300000002986,1333.3000000000175,1341.300000002986,1.0,0.0,0.0,,Click Response,2_count,5.0,object-49,temp_dist_trial,32.0,t_i_20_1,travel_Iceland,lantern,10.0,unique,paired,t_i_20_1.jpg,Travel,$${counterbalance_group},,sub-90
Desktop or Laptop,Windows 10,Chrome 138.0.0.0,1012x569,1012x570,Temporal Distance Task,cb_10,32.0,temp_dist_trial,dist_items,qkpkxw,2.0,info,,4.999999991065124,0.0,4.999999991065124,4.999999991065124,0.0,4.999999991065124,1.0,0.0,0.0,,Slider,Slider,4.0,object-56,temp_dist_trial,32.0,t_i_20_1,travel_Iceland,lantern,10.0,unique,paired,t_i_20_1.jpg,Travel,$${counterbalance_group},,sub-90
Desktop or Laptop,Windows 10,Chrome 138.0.0.0,1012x569,1012x570,Temporal Distance Task,cb_10,32.0,temp_dist_trial,dist_items,qkpkxw,2.0,continue,,1915.699999994045,1899.3000000000175,1915.699999994045,1915.699999994045,1899.3000000000175,1915.699999994045,1.0,0.0,0.0,,Click To Continue,Next button,7.0,object-60,temp_dist_trial,32.0,t_i_20_1,travel_Iceland,lantern,10.0,unique,paired,t_i_20_1.jpg,Travel,$${counterbalance_group},,sub-90
Desktop or Laptop,Windows 10,Chrome 138.0.0.0,1012x569,1012x570,Temporal Distance Task,cb_10,32.0,temp_dist_trial,dist_items,qkpkxw,2.0,response,25,716.3000000000177,1899.3000000000175,1915.9000000000235,716.3000000000177,1899.3000000000175,1915.9000000000235,1.0,1199.6000000000058,0.0,,Slider,Slider,4.0,object-56,temp_dist_trial,32.0,t_i_20_1,travel_Iceland,lantern,10.0,unique,paired,t_i_20_1.jpg,Travel,$${counterbalance_group},,sub-90
Desktop or Laptop,Windows 10,Chrome 138.0.0.0,1012x569,1012x570,Temporal Distance Task,cb_10,33.0,temp_dist_trial,num_items,zn7si1,1.0,response,1_ITEM,1416.2999999999884,1399.8999999999942,1416.2999999999884,1416.2999999999884,1399.8999999999942,1416.2999999999884,1.0,0.0,0.0,,Click Response,1_count,3.0,object-46,temp_dist_trial,33.0,t_s_10_1,travel_shared,luggage lock,10.0,competing,single,t_s_10_1.jpg,Travel,$${counterbalance_group},,sub-90
Desktop or Laptop,Windows 10,Chrome 138.0.0.0,1012x569,1012x570,Temporal Distance Task,cb_10,34.0,temp_dist_trial,num_items,zn7si1,1.0,response,1_ITEM,1938.1000000029746,1933.1999999999825,1938.1000000029746,1938.1000000029746,1933.1999999999825,1938.1000000029746,1.0,0.0,0.0,,Click Response,1_count,3.0,object-46,temp_dist_trial,34.0,t_s_13_1,travel_shared,contact lens case,10.0,competing,single,t_s_13_1.jpg,Travel,$${counterbalance_group},,sub-90
Desktop or Laptop,Windows 10,Chrome 138.0.0.0,1012x569,1012x570,Temporal Distance Task,cb_10,35.0,temp_dist_trial,num_items,zn7si1,1.0,response,2_ITEM,921.8999999999942,916.6000000000058,921.8999999999942,921.8999999999942,916.6000000000058,921.8999999999942,1.0,0.0,0.0,,Click Response,2_count,5.0,object-49,temp_dist_trial,35.0,t_s_08_1,travel_shared,hand lotion,10.0,competing,paired,t_s_08_1.jpg,Travel,$${counterbalance_group},,sub-90
Desktop or Laptop,Windows 10,Chrome 138.0.0.0,1012x569,1012x570,Temporal Distance Task,cb_10,35.0,temp_dist_trial,dist_items,qkpkxw,2.0,info,,4.3999999999941775,0.0,4.3999999999941775,4.3999999999941775,0.0,4.3999999999941775,1.0,0.0,0.0,,Slider,Slider,4.0,object-56,temp_dist_trial,35.0,t_s_08_1,travel_shared,hand lotion,10.0,competing,paired,t_s_08_1.jpg,Travel,$${counterbalance_group},,sub-90
Desktop or Laptop,Windows 10,Chrome 138.0.0.0,1012x569,1012x570,Temporal Distance Task,cb_10,35.0,temp_dist_trial,dist_items,qkpkxw,2.0,continue,,1212.3999999999942,1200.3999999999942,1212.3999999999942,1212.3999999999942,1200.3999999999942,1212.3999999999942,1.0,0.0,0.0,,Click To Continue,Next button,7.0,object-60,temp_dist_trial,35.0,t_s_08_1,travel_shared,hand lotion,10.0,competing,paired,t_s_08_1.jpg,Travel,$${counterbalance_group},,sub-90
Desktop or Laptop,Windows 10,Chrome 138.0.0.0,1012x569,1012x570,Temporal Distance Task,cb_10,35.0,temp_dist_trial,dist_items,qkpkxw,2.0,response,28,500.5,1200.3999999999942,1217.0,500.5,1200.3999999999942,1217.0,1.0,716.5,0.0,,Slider,Slider,4.0,object-56,temp_dist_trial,35.0,t_s_08_1,travel_shared,hand lotion,10.0,competing,paired,t_s_08_1.jpg,Travel,$${counterbalance_group},,sub-90
Desktop or Laptop,Windows 10,Chrome 138.0.0.0,1012x569,1012x570,Temporal Distance Task,cb_10,36.0,temp_dist_trial,num_items,zn7si1,1.0,response,2_ITEM,979.3999999910593,966.1000000000058,979.3999999910593,979.3999999910593,966.1000000000058,979.3999999910593,1.0,0.0,0.0,,Click Response,2_count,5.0,object-49,temp_dist_trial,36.0,t_s_07_1,travel_shared,phone charger cable,10.0,competing,paired,t_s_07_1.jpg,Travel,$${counterbalance_group},,sub-90
Desktop or Laptop,Windows 10,Chrome 138.0.0.0,1012x569,1012x570,Temporal Distance Task,cb_10,36.0,temp_dist_trial,dist_items,qkpkxw,2.0,info,,11.299999997019768,0.0,11.299999997019768,11.299999997019768,0.0,11.299999997019768,1.0,0.0,0.0,,Slider,Slider,4.0,object-56,temp_dist_trial,36.0,t_s_07_1,travel_shared,phone charger cable,10.0,competing,paired,t_s_07_1.jpg,Travel,$${counterbalance_group},,sub-90
Desktop or Laptop,Windows 10,Chrome 138.0.0.0,1012x569,1012x570,Temporal Distance Task,cb_10,36.0,temp_dist_trial,dist_items,qkpkxw,2.0,continue,,1419.5999999940395,1416.5,1419.5999999940395,1419.5999999940395,1416.5,1419.5999999940395,1.0,0.0,0.0,,Click To Continue,Next button,7.0,object-60,temp_dist_trial,36.0,t_s_07_1,travel_shared,phone charger cable,10.0,competing,paired,t_s_07_1.jpg,Travel,$${counterbalance_group},,sub-90
Desktop or Laptop,Windows 10,Chrome 138.0.0.0,1012x569,1012x570,Temporal Distance Task,cb_10,36.0,temp_dist_trial,dist_items,qkpkxw,2.0,response,40,616.7999999999884,1416.5,1420.5999999940395,616.7999999999884,1416.5,1420.5999999940395,1.0,803.7999999940512,0.0,,Slider,Slider,4.0,object-56,temp_dist_trial,36.0,t_s_07_1,travel_shared,phone charger cable,10.0,competing,paired,t_s_07_1.jpg,Travel,$${counterbalance_group},,sub-90
Desktop or Laptop,Windows 10,Chrome 138.0.0.0,1012x569,1012x570,Temporal Distance Task,cb_10,37.0,temp_dist_trial,num_items,zn7si1,1.0,response,2_ITEM,1899.79999999702,1883.3999999999944,1899.79999999702,1899.79999999702,1883.3999999999944,1899.79999999702,1.0,0.0,0.0,,Click Response,2_count,5.0,object-49,temp_dist_trial,37.0,t_m_06_1,travel_Miami,handheld fan,10.0,unique,paired,t_m_06_1.jpg,Travel,$${counterbalance_group},,sub-90
Desktop or Laptop,Windows 10,Chrome 138.0.0.0,1012x569,1012x570,Temporal Distance Task,cb_10,37.0,temp_dist_trial,dist_items,qkpkxw,2.0,info,,5.8999999970255885,0.0,5.8999999970255885,5.8999999970255885,0.0,5.8999999970255885,1.0,0.0,0.0,,Slider,Slider,4.0,object-56,temp_dist_trial,37.0,t_m_06_1,travel_Miami,handheld fan,10.0,unique,paired,t_m_06_1.jpg,Travel,$${counterbalance_group},,sub-90
Desktop or Laptop,Windows 10,Chrome 138.0.0.0,1012x569,1012x570,Temporal Distance Task,cb_10,37.0,temp_dist_trial,dist_items,qkpkxw,2.0,continue,,1057.9999999910651,1049.8999999999942,1057.9999999910651,1057.9999999910651,1049.8999999999942,1057.9999999910651,1.0,0.0,0.0,,Click To Continue,Next button,7.0,object-60,temp_dist_trial,37.0,t_m_06_1,travel_Miami,handheld fan,10.0,unique,paired,t_m_06_1.jpg,Travel,$${counterbalance_group},,sub-90
Desktop or Laptop,Windows 10,Chrome 138.0.0.0,1012x569,1012x570,Temporal Distance Task,cb_10,37.0,temp_dist_trial,dist_items,qkpkxw,2.0,response,18,383.6000000000058,1049.8999999999942,1059.6999999940454,383.6000000000058,1049.8999999999942,1059.6999999940454,1.0,676.0999999940395,0.0,,Slider,Slider,4.0,object-56,temp_dist_trial,37.0,t_m_06_1,travel_Miami,handheld fan,10.0,unique,paired,t_m_06_1.jpg,Travel,$${counterbalance_group},,sub-90
Desktop or Laptop,Windows 10,Chrome 138.0.0.0,1012x569,1012x570,Temporal Distance Task,cb_10,38.0,temp_dist_trial,num_items,zn7si1,1.0,response,2_ITEM,1368.7000000000114,1366.5,1368.7000000000114,1368.7000000000114,1366.5,1368.7000000000114,1.0,0.0,0.0,,Click Response,2_count,5.0,object-49,temp_dist_trial,38.0,t_s_18_1,travel_shared,first aid kit,10.0,competing,paired,t_s_18_1.jpg,Travel,$${counterbalance_group},,sub-90
Desktop or Laptop,Windows 10,Chrome 138.0.0.0,1012x569,1012x570,Temporal Distance Task,cb_10,38.0,temp_dist_trial,dist_items,qkpkxw,2.0,info,,6.100000000005821,0.0,6.100000000005821,6.100000000005821,0.0,6.100000000005821,1.0,0.0,0.0,,Slider,Slider,4.0,object-56,temp_dist_trial,38.0,t_s_18_1,travel_shared,first aid kit,10.0,competing,paired,t_s_18_1.jpg,Travel,$${counterbalance_group},,sub-90
Desktop or Laptop,Windows 10,Chrome 138.0.0.0,1012x569,1012x570,Temporal Distance Task,cb_10,38.0,temp_dist_trial,dist_items,qkpkxw,2.0,continue,,1795.6000000000058,1783.5,1795.6000000000058,1795.6000000000058,1783.5,1795.6000000000058,1.0,0.0,0.0,,Click To Continue,Next button,7.0,object-60,temp_dist_trial,38.0,t_s_18_1,travel_shared,first aid kit,10.0,competing,paired,t_s_18_1.jpg,Travel,$${counterbalance_group},,sub-90
Desktop or Laptop,Windows 10,Chrome 138.0.0.0,1012x569,1012x570,Temporal Distance Task,cb_10,38.0,temp_dist_trial,dist_items,qkpkxw,2.0,response,33,600.0,1783.5,1796.9999999910654,600.0,1783.5,1796.9999999910654,1.0,1196.9999999910651,0.0,,Slider,Slider,4.0,object-56,temp_dist_trial,38.0,t_s_18_1,travel_shared,first aid kit,10.0,competing,paired,t_s_18_1.jpg,Travel,$${counterbalance_group},,sub-90
Desktop or Laptop,Windows 10,Chrome 138.0.0.0,1012x569,1012x570,Temporal Distance Task,cb_10,39.0,temp_dist_trial,num_items,zn7si1,1.0,response,1_ITEM,1926.8999999970251,1916.5,1926.8999999970251,1926.8999999970251,1916.5,1926.8999999970251,1.0,0.0,0.0,,Click Response,1_count,3.0,object-46,temp_dist_trial,39.0,t_s_09_1,travel_shared,wallet,10.0,competing,paired,t_s_09_1.jpg,Travel,$${counterbalance_group},,sub-90
Desktop or Laptop,Windows 10,Chrome 138.0.0.0,1012x569,1012x570,Temporal Distance Task,cb_10,40.0,temp_dist_trial,num_items,zn7si1,1.0,response,2_ITEM,1142.1999999910474,1132.8999999999942,1142.1999999910474,1142.1999999910474,1132.8999999999942,1142.1999999910474,1.0,0.0,0.0,,Click Response,2_count,5.0,object-49,temp_dist_trial,40.0,t_s_03_1,travel_shared,portable charger,10.0,competing,paired,t_s_03_1.jpg,Travel,$${counterbalance_group},,sub-90
Desktop or Laptop,Windows 10,Chrome 138.0.0.0,1012x569,1012x570,Temporal Distance Task,cb_10,40.0,temp_dist_trial,dist_items,qkpkxw,2.0,info,,7.799999994051178,0.0,7.799999994051178,7.799999994051178,0.0,7.799999994051178,1.0,0.0,0.0,,Slider,Slider,4.0,object-56,temp_dist_trial,40.0,t_s_03_1,travel_shared,portable charger,10.0,competing,paired,t_s_03_1.jpg,Travel,$${counterbalance_group},,sub-90
Desktop or Laptop,Windows 10,Chrome 138.0.0.0,1012x569,1012x570,Temporal Distance Task,cb_10,40.0,temp_dist_trial,dist_items,qkpkxw,2.0,continue,,1415.099999991071,1399.6000000000058,1415.099999991071,1415.099999991071,1399.6000000000058,1415.099999991071,1.0,0.0,0.0,,Click To Continue,Next button,7.0,object-60,temp_dist_trial,40.0,t_s_03_1,travel_shared,portable charger,10.0,competing,paired,t_s_03_1.jpg,Travel,$${counterbalance_group},,sub-90
Desktop or Laptop,Windows 10,Chrome 138.0.0.0,1012x569,1012x570,Temporal Distance Task,cb_10,40.0,temp_dist_trial,dist_items,qkpkxw,2.0,response,29,549.8000000000175,1399.6000000000058,1415.7000000000116,549.8000000000175,1399.6000000000058,1415.7000000000116,1.0,865.8999999999942,0.0,,Slider,Slider,4.0,object-56,temp_dist_trial,40.0,t_s_03_1,travel_shared,portable charger,10.0,competing,paired,t_s_03_1.jpg,Travel,$${counterbalance_group},,sub-90
Desktop or Laptop,Windows 10,Chrome 138.0.0.0,1012x569,1012x570,Temporal Distance Task,cb_10,41.0,temp_dist_trial,num_items,zn7si1,1.0,response,1_ITEM,1174.800000002986,1167.1000000000058,1174.800000002986,1174.800000002986,1167.1000000000058,1174.800000002986,1.0,0.0,0.0,,Click Response,1_count,3.0,object-46,temp_dist_trial,41.0,t_s_23_1,travel_shared,ball cap,10.0,competing,single,t_s_23_1.jpg,Travel,$${counterbalance_group},,sub-90
Desktop or Laptop,Windows 10,Chrome 138.0.0.0,1012x569,1012x570,Temporal Distance Task,cb_10,42.0,temp_dist_trial,num_items,zn7si1,1.0,response,2_ITEM,966.1000000000058,949.5,966.1000000000058,966.1000000000058,949.5,966.1000000000058,1.0,0.0,0.0,,Click Response,2_count,5.0,object-49,temp_dist_trial,42.0,t_m_03_1,travel_Miami,wetsuit,10.0,unique,paired,t_m_03_1.jpg,Travel,$${counterbalance_group},,sub-90
Desktop or Laptop,Windows 10,Chrome 138.0.0.0,1012x569,1012x570,Temporal Distance Task,cb_10,42.0,temp_dist_trial,dist_items,qkpkxw,2.0,info,,12.299999994051175,0.0,12.299999994051175,12.299999994051175,0.0,12.299999994051175,1.0,0.0,0.0,,Slider,Slider,4.0,object-56,temp_dist_trial,42.0,t_m_03_1,travel_Miami,wetsuit,10.0,unique,paired,t_m_03_1.jpg,Travel,$${counterbalance_group},,sub-90
Desktop or Laptop,Windows 10,Chrome 138.0.0.0,1012x569,1012x570,Temporal Distance Task,cb_10,42.0,temp_dist_trial,dist_items,qkpkxw,2.0,continue,,1207.4000000029919,1199.8000000000175,1207.4000000029919,1207.4000000029919,1199.8000000000175,1207.4000000029919,1.0,0.0,0.0,,Click To Continue,Next button,7.0,object-60,temp_dist_trial,42.0,t_m_03_1,travel_Miami,wetsuit,10.0,unique,paired,t_m_03_1.jpg,Travel,$${counterbalance_group},,sub-90
Desktop or Laptop,Windows 10,Chrome 138.0.0.0,1012x569,1012x570,Temporal Distance Task,cb_10,42.0,temp_dist_trial,dist_items,qkpkxw,2.0,response,20,467.2000000000117,1199.8000000000175,1209.2999999940512,467.2000000000117,1199.8000000000175,1209.2999999940512,1.0,742.0999999940393,0.0,,Slider,Slider,4.0,object-56,temp_dist_trial,42.0,t_m_03_1,travel_Miami,wetsuit,10.0,unique,paired,t_m_03_1.jpg,Travel,$${counterbalance_group},,sub-90
Desktop or Laptop,Windows 10,Chrome 138.0.0.0,1012x569,1012x570,Temporal Distance Task,cb_10,43.0,temp_dist_trial,num_items,zn7si1,1.0,response,1_ITEM,1791.3999999999942,1783.2999999999884,1791.3999999999942,1791.3999999999942,1783.2999999999884,1791.3999999999942,1.0,0.0,0.0,,Click Response,1_count,3.0,object-46,temp_dist_trial,43.0,t_s_15_1,travel_shared,luggage tag,10.0,competing,single,t_s_15_1.jpg,Travel,$${counterbalance_group},,sub-90
Desktop or Laptop,Windows 10,Chrome 138.0.0.0,1012x569,1012x570,Temporal Distance Task,cb_10,44.0,temp_dist_trial,num_items,zn7si1,1.0,response,1_ITEM,1205.8999999940281,1200.3999999999942,1205.8999999940281,1205.8999999940281,1200.3999999999942,1205.8999999940281,1.0,0.0,0.0,,Click Response,1_count,3.0,object-46,temp_dist_trial,44.0,t_m_09_1,travel_Miami,beach towel,10.0,unique,single,t_m_09_1.jpg,Travel,$${counterbalance_group},,sub-90
Desktop or Laptop,Windows 10,Chrome 138.0.0.0,1012x569,1012x570,Temporal Distance Task,cb_10,45.0,temp_dist_trial,num_items,zn7si1,1.0,response,1_ITEM,1236.5999999940395,1232.6000000000058,1236.5999999940395,1236.5999999940395,1232.6000000000058,1236.5999999940395,1.0,0.0,0.0,,Click Response,1_count,3.0,object-46,temp_dist_trial,45.0,t_i_11_1,travel_Iceland,headlamp,10.0,unique,single,t_i_11_1.jpg,Travel,$${counterbalance_group},,sub-90
Desktop or Laptop,Windows 10,Chrome 138.0.0.0,1012x569,1012x570,Temporal Distance Task,cb_10,46.0,temp_dist_trial,num_items,zn7si1,1.0,response,2_ITEM,2049.5999999940395,2033.1000000000056,2049.5999999940395,2049.5999999940395,2033.1000000000056,2049.5999999940395,1.0,0.0,0.0,,Click Response,2_count,5.0,object-49,temp_dist_trial,46.0,t_m_16_1,travel_Miami,flippers,10.0,unique,paired,t_m_16_1.jpg,Travel,$${counterbalance_group},,sub-90
Desktop or Laptop,Windows 10,Chrome 138.0.0.0,1012x569,1012x570,Temporal Distance Task,cb_10,46.0,temp_dist_trial,dist_items,qkpkxw,2.0,info,,5.5999999970081245,0.0,5.5999999970081245,5.5999999970081245,0.0,5.5999999970081245,1.0,0.0,0.0,,Slider,Slider,4.0,object-56,temp_dist_trial,46.0,t_m_16_1,travel_Miami,flippers,10.0,unique,paired,t_m_16_1.jpg,Travel,$${counterbalance_group},,sub-90
Desktop or Laptop,Windows 10,Chrome 138.0.0.0,1012x569,1012x570,Temporal Distance Task,cb_10,46.0,temp_dist_trial,dist_items,qkpkxw,2.0,continue,,1189.6999999910474,1183.5999999999767,1189.6999999910474,1189.6999999910474,1183.5999999999767,1189.6999999910474,1.0,0.0,0.0,,Click To Continue,Next button,7.0,object-60,temp_dist_trial,46.0,t_m_16_1,travel_Miami,flippers,10.0,unique,paired,t_m_16_1.jpg,Travel,$${counterbalance_group},,sub-90
Desktop or Laptop,Windows 10,Chrome 138.0.0.0,1012x569,1012x570,Temporal Distance Task,cb_10,46.0,temp_dist_trial,dist_items,qkpkxw,2.0,response,56,516.7999999999884,1183.5999999999767,1190.7999999999886,516.7999999999884,1183.5999999999767,1190.7999999999886,1.0,674.0,0.0,,Slider,Slider,4.0,object-56,temp_dist_trial,46.0,t_m_16_1,travel_Miami,flippers,10.0,unique,paired,t_m_16_1.jpg,Travel,$${counterbalance_group},,sub-90
Desktop or Laptop,Windows 10,Chrome 138.0.0.0,1012x569,1012x570,Temporal Distance Task,cb_10,47.0,temp_dist_trial,num_items,zn7si1,1.0,response,1_ITEM,814.900000002992,799.9000000000232,814.900000002992,814.900000002992,799.9000000000232,814.900000002992,1.0,0.0,0.0,,Click Response,1_count,3.0,object-46,temp_dist_trial,47.0,t_i_01_1,travel_Iceland,gloves,10.0,unique,single,t_i_01_1.jpg,Travel,$${counterbalance_group},,sub-90
Desktop or Laptop,Windows 10,Chrome 138.0.0.0,1012x569,1012x570,Temporal Distance Task,cb_10,48.0,temp_dist_trial,num_items,zn7si1,1.0,response,2_ITEM,1632.7999999999884,1616.1999999999825,1632.7999999999884,1632.7999999999884,1616.1999999999825,1632.7999999999884,1.0,0.0,0.0,,Click Response,2_count,5.0,object-49,temp_dist_trial,48.0,t_m_07_1,travel_Miami,sunglasses,10.0,unique,paired,t_m_07_1.jpg,Travel,$${counterbalance_group},,sub-90
Desktop or Laptop,Windows 10,Chrome 138.0.0.0,1012x569,1012x570,Temporal Distance Task,cb_10,48.0,temp_dist_trial,dist_items,qkpkxw,2.0,info,,10.799999999988358,0.0,10.799999999988358,10.799999999988358,0.0,10.799999999988358,1.0,0.0,0.0,,Slider,Slider,4.0,object-56,temp_dist_trial,48.0,t_m_07_1,travel_Miami,sunglasses,10.0,unique,paired,t_m_07_1.jpg,Travel,$${counterbalance_group},,sub-90
Desktop or Laptop,Windows 10,Chrome 138.0.0.0,1012x569,1012x570,Temporal Distance Task,cb_10,48.0,temp_dist_trial,dist_items,qkpkxw,2.0,continue,,1122.6999999910477,1116.7999999999884,1122.6999999910477,1122.6999999910477,1116.7999999999884,1122.6999999910477,1.0,0.0,0.0,,Click To Continue,Next button,7.0,object-60,temp_dist_trial,48.0,t_m_07_1,travel_Miami,sunglasses,10.0,unique,paired,t_m_07_1.jpg,Travel,$${counterbalance_group},,sub-90
Desktop or Laptop,Windows 10,Chrome 138.0.0.0,1012x569,1012x570,Temporal Distance Task,cb_10,48.0,temp_dist_trial,dist_items,qkpkxw,2.0,response,39,449.7999999999884,1116.7999999999884,1124.5000000029686,449.7999999999884,1116.7999999999884,1124.5000000029686,1.0,674.7000000029802,0.0,,Slider,Slider,4.0,object-56,temp_dist_trial,48.0,t_m_07_1,travel_Miami,sunglasses,10.0,unique,paired,t_m_07_1.jpg,Travel,$${counterbalance_group},,sub-90
Desktop or Laptop,Windows 10,Chrome 138.0.0.0,1012x569,1012x570,Temporal Distance Task,cb_10,2.0,temp_eventStart,Screen 1,dgtyxe,1.0,continue,,4471.299999997021,4466.0,4471.299999997021,4471.299999997021,4466.0,4471.299999997021,1.0,0.0,0.0,,Click To Continue,Next Button,3.0,object-43,temp_eventStart,,,Student,,,,,,,$${counterbalance_group},,sub-90
Desktop or Laptop,Windows 10,Chrome 138.0.0.0,1012x569,1012x570,Temporal Distance Task,cb_10,49.0,temp_dist_trial,num_items,zn7si1,1.0,response,2_ITEM,1515.5,1500.0,1515.5,1515.5,1500.0,1515.5,1.0,0.0,0.0,,Click Response,2_count,5.0,object-49,temp_dist_trial,1.0,s_sh_14_1,student_shared,printer,10.0,competing,paired,s_sh_14_1.jpg,Student,$${counterbalance_group},,sub-90
Desktop or Laptop,Windows 10,Chrome 138.0.0.0,1012x569,1012x570,Temporal Distance Task,cb_10,49.0,temp_dist_trial,dist_items,qkpkxw,2.0,info,,7.999999994033715,0.0,7.999999994033715,7.999999994033715,0.0,7.999999994033715,1.0,0.0,0.0,,Slider,Slider,4.0,object-56,temp_dist_trial,1.0,s_sh_14_1,student_shared,printer,10.0,competing,paired,s_sh_14_1.jpg,Student,$${counterbalance_group},,sub-90
Desktop or Laptop,Windows 10,Chrome 138.0.0.0,1012x569,1012x570,Temporal Distance Task,cb_10,49.0,temp_dist_trial,dist_items,qkpkxw,2.0,continue,,1398.2999999910535,1383.0,1398.2999999910535,1398.2999999910535,1383.0,1398.2999999910535,1.0,0.0,0.0,,Click To Continue,Next button,7.0,object-60,temp_dist_trial,1.0,s_sh_14_1,student_shared,printer,10.0,competing,paired,s_sh_14_1.jpg,Student,$${counterbalance_group},,sub-90
Desktop or Laptop,Windows 10,Chrome 138.0.0.0,1012x569,1012x570,Temporal Distance Task,cb_10,49.0,temp_dist_trial,dist_items,qkpkxw,2.0,response,37,800.0,1383.0,1399.1000000029746,800.0,1383.0,1399.1000000029746,1.0,599.1000000029744,0.0,,Slider,Slider,4.0,object-56,temp_dist_trial,1.0,s_sh_14_1,student_shared,printer,10.0,competing,paired,s_sh_14_1.jpg,Student,$${counterbalance_group},,sub-90
Desktop or Laptop,Windows 10,Chrome 138.0.0.0,1012x569,1012x570,Temporal Distance Task,cb_10,50.0,temp_dist_trial,num_items,zn7si1,1.0,response,2_ITEM,1429.699999997014,1416.8999999999942,1429.699999997014,1429.699999997014,1416.8999999999942,1429.699999997014,1.0,0.0,0.0,,Click Response,2_count,5.0,object-49,temp_dist_trial,2.0,s_sh_13_1,student_shared,index cards,10.0,competing,paired,s_sh_13_1.jpg,Student,$${counterbalance_group},,sub-90
Desktop or Laptop,Windows 10,Chrome 138.0.0.0,1012x569,1012x570,Temporal Distance Task,cb_10,50.0,temp_dist_trial,dist_items,qkpkxw,2.0,info,,12.299999999988358,0.0,12.299999999988358,12.299999999988358,0.0,12.299999999988358,1.0,0.0,0.0,,Slider,Slider,4.0,object-56,temp_dist_trial,2.0,s_sh_13_1,student_shared,index cards,10.0,competing,paired,s_sh_13_1.jpg,Student,$${counterbalance_group},,sub-90
Desktop or Laptop,Windows 10,Chrome 138.0.0.0,1012x569,1012x570,Temporal Distance Task,cb_10,50.0,temp_dist_trial,dist_items,qkpkxw,2.0,continue,,1276.8999999940281,1266.3999999999942,1276.8999999940281,1276.8999999940281,1266.3999999999942,1276.8999999940281,1.0,0.0,0.0,,Click To Continue,Next button,7.0,object-60,temp_dist_trial,2.0,s_sh_13_1,student_shared,index cards,10.0,competing,paired,s_sh_13_1.jpg,Student,$${counterbalance_group},,sub-90
Desktop or Laptop,Windows 10,Chrome 138.0.0.0,1012x569,1012x570,Temporal Distance Task,cb_10,50.0,temp_dist_trial,dist_items,qkpkxw,2.0,response,34,582.6999999999825,1266.3999999999942,1277.8999999940281,582.6999999999825,1266.3999999999942,1277.8999999940281,1.0,695.1999999940454,0.0,,Slider,Slider,4.0,object-56,temp_dist_trial,2.0,s_sh_13_1,student_shared,index cards,10.0,competing,paired,s_sh_13_1.jpg,Student,$${counterbalance_group},,sub-90
Desktop or Laptop,Windows 10,Chrome 138.0.0.0,1012x569,1012x570,Temporal Distance Task,cb_10,51.0,temp_dist_trial,num_items,zn7si1,1.0,response,2_ITEM,1337.699999997014,1333.1000000000058,1337.699999997014,1337.699999997014,1333.1000000000058,1337.699999997014,1.0,0.0,0.0,,Click Response,2_count,5.0,object-49,temp_dist_trial,3.0,s_sh_01_1,student_shared,notebook,10.0,competing,single,s_sh_01_1.jpg,Student,$${counterbalance_group},,sub-90
Desktop or Laptop,Windows 10,Chrome 138.0.0.0,1012x569,1012x570,Temporal Distance Task,cb_10,51.0,temp_dist_trial,dist_items,qkpkxw,2.0,info,,5.699999991047663,0.0,5.699999991047663,5.699999991047663,0.0,5.699999991047663,1.0,0.0,0.0,,Slider,Slider,4.0,object-56,temp_dist_trial,3.0,s_sh_01_1,student_shared,notebook,10.0,competing,single,s_sh_01_1.jpg,Student,$${counterbalance_group},,sub-90
Desktop or Laptop,Windows 10,Chrome 138.0.0.0,1012x569,1012x570,Temporal Distance Task,cb_10,51.0,temp_dist_trial,dist_items,qkpkxw,2.0,continue,,1066.6000000000058,1049.8999999999942,1066.6000000000058,1066.6000000000058,1049.8999999999942,1066.6000000000058,1.0,0.0,0.0,,Click To Continue,Next button,7.0,object-60,temp_dist_trial,3.0,s_sh_01_1,student_shared,notebook,10.0,competing,single,s_sh_01_1.jpg,Student,$${counterbalance_group},,sub-90
Desktop or Laptop,Windows 10,Chrome 138.0.0.0,1012x569,1012x570,Temporal Distance Task,cb_10,51.0,temp_dist_trial,dist_items,qkpkxw,2.0,response,34,416.5999999999767,1049.8999999999942,1066.6000000000058,416.5999999999767,1049.8999999999942,1066.6000000000058,1.0,650.0000000000291,0.0,,Slider,Slider,4.0,object-56,temp_dist_trial,3.0,s_sh_01_1,student_shared,notebook,10.0,competing,single,s_sh_01_1.jpg,Student,$${counterbalance_group},,sub-90
Desktop or Laptop,Windows 10,Chrome 138.0.0.0,1012x569,1012x570,Temporal Distance Task,cb_10,52.0,temp_dist_trial,num_items,zn7si1,1.0,response,1_ITEM,2129.9999999940337,2117.1000000000063,2129.9999999940337,2129.9999999940337,2117.1000000000063,2129.9999999940337,1.0,0.0,0.0,,Click Response,1_count,3.0,object-46,temp_dist_trial,4.0,s_s_15_1,student_stem,jumper cables,10.0,unique,paired,s_s_15_1.jpg,Student,$${counterbalance_group},,sub-90
Desktop or Laptop,Windows 10,Chrome 138.0.0.0,1012x569,1012x570,Temporal Distance Task,cb_10,53.0,temp_dist_trial,num_items,zn7si1,1.0,response,2_ITEM,1521.2000000029807,1516.6000000000058,1521.2000000029807,1521.2000000029807,1516.6000000000058,1521.2000000029807,1.0,0.0,0.0,,Click Response,2_count,5.0,object-49,temp_dist_trial,5.0,s_s_08_1,student_stem,soldering iron,10.0,unique,paired,s_s_08_1.jpg,Student,$${counterbalance_group},,sub-90
Desktop or Laptop,Windows 10,Chrome 138.0.0.0,1012x569,1012x570,Temporal Distance Task,cb_10,53.0,temp_dist_trial,dist_items,qkpkxw,2.0,info,,4.299999997019769,0.0,4.299999997019769,4.299999997019769,0.0,4.299999997019769,1.0,0.0,0.0,,Slider,Slider,4.0,object-56,temp_dist_trial,5.0,s_s_08_1,student_stem,soldering iron,10.0,unique,paired,s_s_08_1.jpg,Student,$${counterbalance_group},,sub-90
Desktop or Laptop,Windows 10,Chrome 138.0.0.0,1012x569,1012x570,Temporal Distance Task,cb_10,53.0,temp_dist_trial,dist_items,qkpkxw,2.0,continue,,1169.0999999940395,1166.3999999999942,1169.0999999940395,1169.0999999940395,1166.3999999999942,1169.0999999940395,1.0,0.0,0.0,,Click To Continue,Next button,7.0,object-60,temp_dist_trial,5.0,s_s_08_1,student_stem,soldering iron,10.0,unique,paired,s_s_08_1.jpg,Student,$${counterbalance_group},,sub-90
Desktop or Laptop,Windows 10,Chrome 138.0.0.0,1012x569,1012x570,Temporal Distance Task,cb_10,53.0,temp_dist_trial,dist_items,qkpkxw,2.0,response,33,500.2999999999884,1166.3999999999942,1169.3999999910593,500.2999999999884,1166.3999999999942,1169.3999999910593,1.0,669.0999999910711,0.0,,Slider,Slider,4.0,object-56,temp_dist_trial,5.0,s_s_08_1,student_stem,soldering iron,10.0,unique,paired,s_s_08_1.jpg,Student,$${counterbalance_group},,sub-90
Desktop or Laptop,Windows 10,Chrome 138.0.0.0,1012x569,1012x570,Temporal Distance Task,cb_10,54.0,temp_dist_trial,num_items,zn7si1,1.0,response,1_ITEM,1972.3999999970251,1966.8999999999944,1972.3999999970251,1972.3999999970251,1966.8999999999944,1972.3999999970251,1.0,0.0,0.0,,Click Response,1_count,3.0,object-46,temp_dist_trial,6.0,s_s_09_1,student_stem,multimeter,10.0,unique,paired,s_s_09_1.jpg,Student,$${counterbalance_group},,sub-90
Desktop or Laptop,Windows 10,Chrome 138.0.0.0,1012x569,1012x570,Temporal Distance Task,cb_10,55.0,temp_dist_trial,num_items,zn7si1,1.0,response,1_ITEM,1515.8999999999942,1499.5,1515.8999999999942,1515.8999999999942,1499.5,1515.8999999999942,1.0,0.0,0.0,,Click Response,1_count,3.0,object-46,temp_dist_trial,7.0,s_sh_04_1,student_shared,laptop stand,10.0,competing,single,s_sh_04_1.jpg,Student,$${counterbalance_group},,sub-90
Desktop or Laptop,Windows 10,Chrome 138.0.0.0,1012x569,1012x570,Temporal Distance Task,cb_10,56.0,temp_dist_trial,num_items,zn7si1,1.0,response,2_ITEM,1052.2000000000116,1049.5,1052.2000000000116,1052.2000000000116,1049.5,1052.2000000000116,1.0,0.0,0.0,,Click Response,2_count,5.0,object-49,temp_dist_trial,8.0,s_sh_06_1,student_shared,clipboard,10.0,competing,paired,s_sh_06_1.jpg,Student,$${counterbalance_group},,sub-90
Desktop or Laptop,Windows 10,Chrome 138.0.0.0,1012x569,1012x570,Temporal Distance Task,cb_10,56.0,temp_dist_trial,dist_items,qkpkxw,2.0,info,,6.7000000000116415,0.0,6.7000000000116415,6.7000000000116415,0.0,6.7000000000116415,1.0,0.0,0.0,,Slider,Slider,4.0,object-56,temp_dist_trial,8.0,s_sh_06_1,student_shared,clipboard,10.0,competing,paired,s_sh_06_1.jpg,Student,$${counterbalance_group},,sub-90
Desktop or Laptop,Windows 10,Chrome 138.0.0.0,1012x569,1012x570,Temporal Distance Task,cb_10,56.0,temp_dist_trial,dist_items,qkpkxw,2.0,continue,,1195.2000000000114,1183.9000000000233,1195.2000000000114,1195.2000000000114,1183.9000000000233,1195.2000000000114,1.0,0.0,0.0,,Click To Continue,Next button,7.0,object-60,temp_dist_trial,8.0,s_sh_06_1,student_shared,clipboard,10.0,competing,paired,s_sh_06_1.jpg,Student,$${counterbalance_group},,sub-90
Desktop or Laptop,Windows 10,Chrome 138.0.0.0,1012x569,1012x570,Temporal Distance Task,cb_10,56.0,temp_dist_trial,dist_items,qkpkxw,2.0,response,24,433.6000000000058,1183.9000000000233,1196.2000000000114,433.6000000000058,1183.9000000000233,1196.2000000000114,1.0,762.6000000000058,0.0,,Slider,Slider,4.0,object-56,temp_dist_trial,8.0,s_sh_06_1,student_shared,clipboard,10.0,competing,paired,s_sh_06_1.jpg,Student,$${counterbalance_group},,sub-90
Desktop or Laptop,Windows 10,Chrome 138.0.0.0,1012x569,1012x570,Temporal Distance Task,cb_10,57.0,temp_dist_trial,num_items,zn7si1,1.0,response,1_ITEM,822.0000000029686,816.2999999999884,822.0000000029686,822.0000000029686,816.2999999999884,822.0000000029686,1.0,0.0,0.0,,Click Response,1_count,3.0,object-46,temp_dist_trial,9.0,s_sh_07_1,student_shared,ruler,10.0,competing,paired,s_sh_07_1.jpg,Student,$${counterbalance_group},,sub-90
Desktop or Laptop,Windows 10,Chrome 138.0.0.0,1012x569,1012x570,Temporal Distance Task,cb_10,58.0,temp_dist_trial,num_items,zn7si1,1.0,response,2_ITEM,1053.7999999910537,1050.0,1053.7999999910537,1053.7999999910537,1050.0,1053.7999999910537,1.0,0.0,0.0,,Click Response,2_count,5.0,object-49,temp_dist_trial,10.0,s_a_12_1,student_art,saxophone,10.0,unique,paired,s_a_12_1.jpg,Student,$${counterbalance_group},,sub-90
Desktop or Laptop,Windows 10,Chrome 138.0.0.0,1012x569,1012x570,Temporal Distance Task,cb_10,58.0,temp_dist_trial,dist_items,qkpkxw,2.0,info,,8.499999991065124,0.0,8.499999991065124,8.499999991065124,0.0,8.499999991065124,1.0,0.0,0.0,,Slider,Slider,4.0,object-56,temp_dist_trial,10.0,s_a_12_1,student_art,saxophone,10.0,unique,paired,s_a_12_1.jpg,Student,$${counterbalance_group},,sub-90
Desktop or Laptop,Windows 10,Chrome 138.0.0.0,1012x569,1012x570,Temporal Distance Task,cb_10,58.0,temp_dist_trial,dist_items,qkpkxw,2.0,continue,,1092.3999999970256,1083.2000000000116,1092.3999999970256,1092.3999999970256,1083.2000000000116,1092.3999999970256,1.0,0.0,0.0,,Click To Continue,Next button,7.0,object-60,temp_dist_trial,10.0,s_a_12_1,student_art,saxophone,10.0,unique,paired,s_a_12_1.jpg,Student,$${counterbalance_group},,sub-90
Desktop or Laptop,Windows 10,Chrome 138.0.0.0,1012x569,1012x570,Temporal Distance Task,cb_10,58.0,temp_dist_trial,dist_items,qkpkxw,2.0,response,37,500.0,1083.2000000000116,1092.6999999940454,500.0,1083.2000000000116,1092.6999999940454,1.0,592.6999999940454,0.0,,Slider,Slider,4.0,object-56,temp_dist_trial,10.0,s_a_12_1,student_art,saxophone,10.0,unique,paired,s_a_12_1.jpg,Student,$${counterbalance_group},,sub-90
Desktop or Laptop,Windows 10,Chrome 138.0.0.0,1012x569,1012x570,Temporal Distance Task,cb_10,59.0,temp_dist_trial,num_items,zn7si1,1.0,response,2_ITEM,1347.699999997014,1333.2999999999886,1347.699999997014,1347.699999997014,1333.2999999999886,1347.699999997014,1.0,0.0,0.0,,Click Response,2_count,5.0,object-49,temp_dist_trial,11.0,s_sh_05_1,student_shared,laptop,10.0,competing,paired,s_sh_05_1.jpg,Student,$${counterbalance_group},,sub-90
Desktop or Laptop,Windows 10,Chrome 138.0.0.0,1012x569,1012x570,Temporal Distance Task,cb_10,59.0,temp_dist_trial,dist_items,qkpkxw,2.0,info,,7.099999991070947,0.0,7.099999991070947,7.099999991070947,0.0,7.099999991070947,1.0,0.0,0.0,,Slider,Slider,4.0,object-56,temp_dist_trial,11.0,s_sh_05_1,student_shared,laptop,10.0,competing,paired,s_sh_05_1.jpg,Student,$${counterbalance_group},,sub-90
Desktop or Laptop,Windows 10,Chrome 138.0.0.0,1012x569,1012x570,Temporal Distance Task,cb_10,59.0,temp_dist_trial,dist_items,qkpkxw,2.0,continue,,1259.7999999940512,1249.9000000000233,1259.7999999940512,1259.7999999940512,1249.9000000000233,1259.7999999940512,1.0,0.0,0.0,,Click To Continue,Next button,7.0,object-60,temp_dist_trial,11.0,s_sh_05_1,student_shared,laptop,10.0,competing,paired,s_sh_05_1.jpg,Student,$${counterbalance_group},,sub-90
Desktop or Laptop,Windows 10,Chrome 138.0.0.0,1012x569,1012x570,Temporal Distance Task,cb_10,59.0,temp_dist_trial,dist_items,qkpkxw,2.0,response,36,583.8000000000175,1249.9000000000233,1260.7999999940512,583.8000000000175,1249.9000000000233,1260.7999999940512,1.0,676.9999999940337,0.0,,Slider,Slider,4.0,object-56,temp_dist_trial,11.0,s_sh_05_1,student_shared,laptop,10.0,competing,paired,s_sh_05_1.jpg,Student,$${counterbalance_group},,sub-90
Desktop or Laptop,Windows 10,Chrome 138.0.0.0,1012x569,1012x570,Temporal Distance Task,cb_10,60.0,temp_dist_trial,num_items,zn7si1,1.0,response,2_ITEM,1449.5999999999767,1433.0999999999767,1449.5999999999767,1449.5999999999767,1433.0999999999767,1449.5999999999767,1.0,0.0,0.0,,Click Response,2_count,5.0,object-49,temp_dist_trial,12.0,s_a_18_1,student_art,tutu,10.0,unique,paired,s_a_18_1.jpg,Student,$${counterbalance_group},,sub-90
Desktop or Laptop,Windows 10,Chrome 138.0.0.0,1012x569,1012x570,Temporal Distance Task,cb_10,60.0,temp_dist_trial,dist_items,qkpkxw,2.0,info,,8.099999991070945,0.0,8.099999991070945,8.099999991070945,0.0,8.099999991070945,1.0,0.0,0.0,,Slider,Slider,4.0,object-56,temp_dist_trial,12.0,s_a_18_1,student_art,tutu,10.0,unique,paired,s_a_18_1.jpg,Student,$${counterbalance_group},,sub-90
Desktop or Laptop,Windows 10,Chrome 138.0.0.0,1012x569,1012x570,Temporal Distance Task,cb_10,60.0,temp_dist_trial,dist_items,qkpkxw,2.0,continue,,1163.4000000029919,1149.9000000000233,1163.4000000029919,1163.4000000029919,1149.9000000000233,1163.4000000029919,1.0,0.0,0.0,,Click To Continue,Next button,7.0,object-60,temp_dist_trial,12.0,s_a_18_1,student_art,tutu,10.0,unique,paired,s_a_18_1.jpg,Student,$${counterbalance_group},,sub-90
Desktop or Laptop,Windows 10,Chrome 138.0.0.0,1012x569,1012x570,Temporal Distance Task,cb_10,60.0,temp_dist_trial,dist_items,qkpkxw,2.0,response,27,433.2000000000117,1149.9000000000233,1165.2999999940512,433.2000000000117,1149.9000000000233,1165.2999999940512,1.0,732.0999999940393,0.0,,Slider,Slider,4.0,object-56,temp_dist_trial,12.0,s_a_18_1,student_art,tutu,10.0,unique,paired,s_a_18_1.jpg,Student,$${counterbalance_group},,sub-90
Desktop or Laptop,Windows 10,Chrome 138.0.0.0,1012x569,1012x570,Temporal Distance Task,cb_10,61.0,temp_dist_trial,num_items,zn7si1,1.0,response,num_miss,2999.5999999999767,2999.5999999999767,2999.5999999999767,2999.5999999999767,2999.5999999999767,2999.5999999999767,1.0,0.0,0.0,num_miss_tag,Time Limit,screen,0.0,screen,temp_dist_trial,13.0,s_s_02_1,student_stem,flask,10.0,unique,paired,s_s_02_1.jpg,Student,$${counterbalance_group},,sub-90
Desktop or Laptop,Windows 10,Chrome 138.0.0.0,1012x569,1012x570,Temporal Distance Task,cb_10,62.0,temp_dist_trial,num_items,zn7si1,1.0,response,1_ITEM,1880.0999999970081,1866.2999999999884,1880.0999999970081,1880.0999999970081,1866.2999999999884,1880.0999999970081,1.0,0.0,0.0,,Click Response,1_count,3.0,object-46,temp_dist_trial,14.0,s_sh_17_1,student_shared,wireless mouse,10.0,competing,single,s_sh_17_1.jpg,Student,$${counterbalance_group},,sub-90
Desktop or Laptop,Windows 10,Chrome 138.0.0.0,1012x569,1012x570,Temporal Distance Task,cb_10,63.0,temp_dist_trial,num_items,zn7si1,1.0,response,1_ITEM,1380.7999999940512,1366.7000000000114,1380.7999999940512,1380.7999999940512,1366.7000000000114,1380.7999999940512,1.0,0.0,0.0,,Click Response,1_count,3.0,object-46,temp_dist_trial,15.0,s_sh_24_1,student_shared,desk organizer,10.0,competing,paired,s_sh_24_1.jpg,Student,$${counterbalance_group},,sub-90
Desktop or Laptop,Windows 10,Chrome 138.0.0.0,1012x569,1012x570,Temporal Distance Task,cb_10,64.0,temp_dist_trial,num_items,zn7si1,1.0,response,2_ITEM,1003.8000000029859,999.8999999999942,1003.8000000029859,1003.8000000029859,999.8999999999942,1003.8000000029859,1.0,0.0,0.0,,Click Response,2_count,5.0,object-49,temp_dist_trial,16.0,s_s_19_1,student_stem,circuit board,10.0,unique,paired,s_s_19_1.jpg,Student,$${counterbalance_group},,sub-90
Desktop or Laptop,Windows 10,Chrome 138.0.0.0,1012x569,1012x570,Temporal Distance Task,cb_10,64.0,temp_dist_trial,dist_items,qkpkxw,2.0,info,,6.299999999988358,0.0,6.299999999988358,6.299999999988358,0.0,6.299999999988358,1.0,0.0,0.0,,Slider,Slider,4.0,object-56,temp_dist_trial,16.0,s_s_19_1,student_stem,circuit board,10.0,unique,paired,s_s_19_1.jpg,Student,$${counterbalance_group},,sub-90
Desktop or Laptop,Windows 10,Chrome 138.0.0.0,1012x569,1012x570,Temporal Distance Task,cb_10,64.0,temp_dist_trial,dist_items,qkpkxw,2.0,continue,,1246.3999999940281,1233.0999999999767,1246.3999999940281,1246.3999999940281,1233.0999999999767,1246.3999999940281,1.0,0.0,0.0,,Click To Continue,Next button,7.0,object-60,temp_dist_trial,16.0,s_s_19_1,student_stem,circuit board,10.0,unique,paired,s_s_19_1.jpg,Student,$${counterbalance_group},,sub-90
Desktop or Laptop,Windows 10,Chrome 138.0.0.0,1012x569,1012x570,Temporal Distance Task,cb_10,64.0,temp_dist_trial,dist_items,qkpkxw,2.0,response,33,433.3999999999942,1233.0999999999767,1246.6999999910474,433.3999999999942,1233.0999999999767,1246.6999999910474,1.0,813.2999999910535,0.0,,Slider,Slider,4.0,object-56,temp_dist_trial,16.0,s_s_19_1,student_stem,circuit board,10.0,unique,paired,s_s_19_1.jpg,Student,$${counterbalance_group},,sub-90
Desktop or Laptop,Windows 10,Chrome 138.0.0.0,1012x569,1012x570,Temporal Distance Task,cb_10,65.0,temp_dist_trial,num_items,zn7si1,1.0,response,2_ITEM,1208.9000000029919,1200.2000000000114,1208.9000000029919,1208.9000000029919,1200.2000000000114,1208.9000000029919,1.0,0.0,0.0,,Click Response,2_count,5.0,object-49,temp_dist_trial,17.0,s_sh_02_1,student_shared,eraser,10.0,competing,paired,s_sh_02_1.jpg,Student,$${counterbalance_group},,sub-90
Desktop or Laptop,Windows 10,Chrome 138.0.0.0,1012x569,1012x570,Temporal Distance Task,cb_10,65.0,temp_dist_trial,dist_items,qkpkxw,2.0,info,,6.300000002986053,0.0,6.300000002986053,6.300000002986053,0.0,6.300000002986053,1.0,0.0,0.0,,Slider,Slider,4.0,object-56,temp_dist_trial,17.0,s_sh_02_1,student_shared,eraser,10.0,competing,paired,s_sh_02_1.jpg,Student,$${counterbalance_group},,sub-90
Desktop or Laptop,Windows 10,Chrome 138.0.0.0,1012x569,1012x570,Temporal Distance Task,cb_10,65.0,temp_dist_trial,dist_items,qkpkxw,2.0,continue,,1282.6999999940456,1266.7000000000114,1282.6999999940456,1282.6999999940456,1266.7000000000114,1282.6999999940456,1.0,0.0,0.0,,Click To Continue,Next button,7.0,object-60,temp_dist_trial,17.0,s_sh_02_1,student_shared,eraser,10.0,competing,paired,s_sh_02_1.jpg,Student,$${counterbalance_group},,sub-90
Desktop or Laptop,Windows 10,Chrome 138.0.0.0,1012x569,1012x570,Temporal Distance Task,cb_10,65.0,temp_dist_trial,dist_items,qkpkxw,2.0,response,38,650.1000000000057,1266.7000000000114,1283.3000000000175,650.1000000000057,1266.7000000000114,1283.3000000000175,1.0,633.2000000000116,0.0,,Slider,Slider,4.0,object-56,temp_dist_trial,17.0,s_sh_02_1,student_shared,eraser,10.0,competing,paired,s_sh_02_1.jpg,Student,$${counterbalance_group},,sub-90
Desktop or Laptop,Windows 10,Chrome 138.0.0.0,1012x569,1012x570,Temporal Distance Task,cb_10,66.0,temp_dist_trial,num_items,zn7si1,1.0,response,2_ITEM,1787.6000000029746,1782.8999999999942,1787.6000000029746,1787.6000000029746,1782.8999999999942,1787.6000000029746,1.0,0.0,0.0,,Click Response,2_count,5.0,object-49,temp_dist_trial,18.0,s_sh_03_1,student_shared,highlighter,10.0,competing,paired,s_sh_03_1.jpg,Student,$${counterbalance_group},,sub-90
Desktop or Laptop,Windows 10,Chrome 138.0.0.0,1012x569,1012x570,Temporal Distance Task,cb_10,66.0,temp_dist_trial,dist_items,qkpkxw,2.0,info,,10.49999999703141,0.0,10.49999999703141,10.49999999703141,0.0,10.49999999703141,1.0,0.0,0.0,,Slider,Slider,4.0,object-56,temp_dist_trial,18.0,s_sh_03_1,student_shared,highlighter,10.0,competing,paired,s_sh_03_1.jpg,Student,$${counterbalance_group},,sub-90
Desktop or Laptop,Windows 10,Chrome 138.0.0.0,1012x569,1012x570,Temporal Distance Task,cb_10,66.0,temp_dist_trial,dist_items,qkpkxw,2.0,continue,,2132.2999999940507,2116.6000000000063,2132.2999999940507,2132.2999999940507,2116.6000000000063,2132.2999999940507,1.0,0.0,0.0,,Click To Continue,Next button,7.0,object-60,temp_dist_trial,18.0,s_sh_03_1,student_shared,highlighter,10.0,competing,paired,s_sh_03_1.jpg,Student,$${counterbalance_group},,sub-90
Desktop or Laptop,Windows 10,Chrome 138.0.0.0,1012x569,1012x570,Temporal Distance Task,cb_10,66.0,temp_dist_trial,dist_items,qkpkxw,2.0,response,35,1316.6000000000058,2116.6000000000063,2132.900000002992,1316.6000000000058,2116.6000000000063,2132.900000002992,1.0,816.3000000029858,0.0,,Slider,Slider,4.0,object-56,temp_dist_trial,18.0,s_sh_03_1,student_shared,highlighter,10.0,competing,paired,s_sh_03_1.jpg,Student,$${counterbalance_group},,sub-90
Desktop or Laptop,Windows 10,Chrome 138.0.0.0,1012x569,1012x570,Temporal Distance Task,cb_10,67.0,temp_dist_trial,num_items,zn7si1,1.0,response,1_ITEM,1766.300000002986,1749.8000000000175,1766.300000002986,1766.300000002986,1749.8000000000175,1766.300000002986,1.0,0.0,0.0,,Click Response,1_count,3.0,object-46,temp_dist_trial,19.0,s_a_07_1,student_art,yarn,10.0,unique,single,s_a_07_1.jpg,Student,$${counterbalance_group},,sub-90
Desktop or Laptop,Windows 10,Chrome 138.0.0.0,1012x569,1012x570,Temporal Distance Task,cb_10,68.0,temp_dist_trial,num_items,zn7si1,1.0,response,1_ITEM,1387.9999999910654,1383.1000000000058,1387.9999999910654,1387.9999999910654,1383.1000000000058,1387.9999999910654,1.0,0.0,0.0,,Click Response,1_count,3.0,object-46,temp_dist_trial,20.0,s_sh_15_1,student_shared,usb drive,10.0,competing,paired,s_sh_15_1.jpg,Student,$${counterbalance_group},,sub-90
Desktop or Laptop,Windows 10,Chrome 138.0.0.0,1012x569,1012x570,Temporal Distance Task,cb_10,69.0,temp_dist_trial,num_items,zn7si1,1.0,response,1_ITEM,1645.6999999940454,1633.2000000000116,1645.6999999940454,1645.6999999940454,1633.2000000000116,1645.6999999940454,1.0,0.0,0.0,,Click Response,1_count,3.0,object-46,temp_dist_trial,21.0,s_sh_09_1,student_shared,paper clips,10.0,competing,single,s_sh_09_1.jpg,Student,$${counterbalance_group},,sub-90
Desktop or Laptop,Windows 10,Chrome 138.0.0.0,1012x569,1012x570,Temporal Distance Task,cb_10,70.0,temp_dist_trial,num_items,zn7si1,1.0,response,2_ITEM,1274.7000000029802,1266.5,1274.7000000029802,1274.7000000029802,1266.5,1274.7000000029802,1.0,0.0,0.0,,Click Response,2_count,5.0,object-49,temp_dist_trial,22.0,s_s_01_1,student_stem,microscope,10.0,unique,paired,s_s_01_1.jpg,Student,$${counterbalance_group},,sub-90
Desktop or Laptop,Windows 10,Chrome 138.0.0.0,1012x569,1012x570,Temporal Distance Task,cb_10,70.0,temp_dist_trial,dist_items,qkpkxw,2.0,info,,9.399999999994181,0.0,9.399999999994181,9.399999999994181,0.0,9.399999999994181,1.0,0.0,0.0,,Slider,Slider,4.0,object-56,temp_dist_trial,22.0,s_s_01_1,student_stem,microscope,10.0,unique,paired,s_s_01_1.jpg,Student,$${counterbalance_group},,sub-90
Desktop or Laptop,Windows 10,Chrome 138.0.0.0,1012x569,1012x570,Temporal Distance Task,cb_10,70.0,temp_dist_trial,dist_items,qkpkxw,2.0,continue,,1115.4999999940337,1099.2999999999884,1115.4999999940337,1115.4999999940337,1099.2999999999884,1115.4999999940337,1.0,0.0,0.0,,Click To Continue,Next button,7.0,object-60,temp_dist_trial,22.0,s_s_01_1,student_stem,microscope,10.0,unique,paired,s_s_01_1.jpg,Student,$${counterbalance_group},,sub-90
Desktop or Laptop,Windows 10,Chrome 138.0.0.0,1012x569,1012x570,Temporal Distance Task,cb_10,70.0,temp_dist_trial,dist_items,qkpkxw,2.0,response,32,516.1000000000058,1099.2999999999884,1115.8999999999942,516.1000000000058,1099.2999999999884,1115.8999999999942,1.0,599.7999999999884,0.0,,Slider,Slider,4.0,object-56,temp_dist_trial,22.0,s_s_01_1,student_stem,microscope,10.0,unique,paired,s_s_01_1.jpg,Student,$${counterbalance_group},,sub-90
Desktop or Laptop,Windows 10,Chrome 138.0.0.0,1012x569,1012x570,Temporal Distance Task,cb_10,71.0,temp_dist_trial,num_items,zn7si1,1.0,response,1_ITEM,1458.800000002986,1450.5,1458.800000002986,1458.800000002986,1450.5,1458.800000002986,1.0,0.0,0.0,,Click Response,1_count,3.0,object-46,temp_dist_trial,23.0,s_s_06_1,student_stem,calculator,10.0,unique,single,s_s_06_1.jpg,Student,$${counterbalance_group},,sub-90
Desktop or Laptop,Windows 10,Chrome 138.0.0.0,1012x569,1012x570,Temporal Distance Task,cb_10,72.0,temp_dist_trial,num_items,zn7si1,1.0,response,1_ITEM,1566.3999999970254,1549.8000000000175,1566.3999999970254,1566.3999999970254,1549.8000000000175,1566.3999999970254,1.0,0.0,0.0,,Click Response,1_count,3.0,object-46,temp_dist_trial,24.0,s_a_15_1,student_art,drum kit,10.0,unique,single,s_a_15_1.jpg,Student,$${counterbalance_group},,sub-90
Desktop or Laptop,Windows 10,Chrome 138.0.0.0,1012x569,1012x570,Temporal Distance Task,cb_10,73.0,temp_dist_trial,num_items,zn7si1,1.0,response,1_ITEM,1383.4000000000233,1366.7000000000114,1383.4000000000233,1383.4000000000233,1366.7000000000114,1383.4000000000233,1.0,0.0,0.0,,Click Response,1_count,3.0,object-46,temp_dist_trial,25.0,s_a_01_1,student_art,paintbrush,10.0,unique,single,s_a_01_1.jpg,Student,$${counterbalance_group},,sub-90
Desktop or Laptop,Windows 10,Chrome 138.0.0.0,1012x569,1012x570,Temporal Distance Task,cb_10,74.0,temp_dist_trial,num_items,zn7si1,1.0,response,1_ITEM,1526.6999999940454,1516.6000000000058,1526.6999999940454,1526.6999999940454,1516.6000000000058,1526.6999999940454,1.0,0.0,0.0,,Click Response,1_count,3.0,object-46,temp_dist_trial,26.0,s_a_17_1,student_art,microphone,10.0,unique,paired,s_a_17_1.jpg,Student,$${counterbalance_group},,sub-90
Desktop or Laptop,Windows 10,Chrome 138.0.0.0,1012x569,1012x570,Temporal Distance Task,cb_10,75.0,temp_dist_trial,num_items,zn7si1,1.0,response,2_ITEM,1343.2000000029802,1333.1000000000058,1343.2000000029802,1343.2000000029802,1333.1000000000058,1343.2000000029802,1.0,0.0,0.0,,Click Response,2_count,5.0,object-49,temp_dist_trial,27.0,s_a_05_1,student_art,clay,10.0,unique,paired,s_a_05_1.jpg,Student,$${counterbalance_group},,sub-90
Desktop or Laptop,Windows 10,Chrome 138.0.0.0,1012x569,1012x570,Temporal Distance Task,cb_10,75.0,temp_dist_trial,dist_items,qkpkxw,2.0,info,,7.0,0.0,7.0,7.0,0.0,7.0,1.0,0.0,0.0,,Slider,Slider,4.0,object-56,temp_dist_trial,27.0,s_a_05_1,student_art,clay,10.0,unique,paired,s_a_05_1.jpg,Student,$${counterbalance_group},,sub-90
Desktop or Laptop,Windows 10,Chrome 138.0.0.0,1012x569,1012x570,Temporal Distance Task,cb_10,75.0,temp_dist_trial,dist_items,qkpkxw,2.0,continue,,1083.5,1066.8999999999942,1083.5,1083.5,1066.8999999999942,1083.5,1.0,0.0,0.0,,Click To Continue,Next button,7.0,object-60,temp_dist_trial,27.0,s_a_05_1,student_art,clay,10.0,unique,paired,s_a_05_1.jpg,Student,$${counterbalance_group},,sub-90
Desktop or Laptop,Windows 10,Chrome 138.0.0.0,1012x569,1012x570,Temporal Distance Task,cb_10,75.0,temp_dist_trial,dist_items,qkpkxw,2.0,response,22,466.8999999999942,1066.8999999999942,1083.5,466.8999999999942,1066.8999999999942,1083.5,1.0,616.6000000000057,0.0,,Slider,Slider,4.0,object-56,temp_dist_trial,27.0,s_a_05_1,student_art,clay,10.0,unique,paired,s_a_05_1.jpg,Student,$${counterbalance_group},,sub-90
Desktop or Laptop,Windows 10,Chrome 138.0.0.0,1012x569,1012x570,Temporal Distance Task,cb_10,76.0,temp_dist_trial,num_items,zn7si1,1.0,response,2_ITEM,1205.6999999940456,1199.7000000000114,1205.6999999940456,1205.6999999940456,1199.7000000000114,1205.6999999940456,1.0,0.0,0.0,,Click Response,2_count,5.0,object-49,temp_dist_trial,28.0,s_sh_21_1,student_shared,file holder,10.0,competing,paired,s_sh_21_1.jpg,Student,$${counterbalance_group},,sub-90
Desktop or Laptop,Windows 10,Chrome 138.0.0.0,1012x569,1012x570,Temporal Distance Task,cb_10,76.0,temp_dist_trial,dist_items,qkpkxw,2.0,info,,9.199999994045355,0.0,9.199999994045355,9.199999994045355,0.0,9.199999994045355,1.0,0.0,0.0,,Slider,Slider,4.0,object-56,temp_dist_trial,28.0,s_sh_21_1,student_shared,file holder,10.0,competing,paired,s_sh_21_1.jpg,Student,$${counterbalance_group},,sub-90
Desktop or Laptop,Windows 10,Chrome 138.0.0.0,1012x569,1012x570,Temporal Distance Task,cb_10,76.0,temp_dist_trial,dist_items,qkpkxw,2.0,continue,,1212.9999999910651,1199.8999999999942,1212.9999999910651,1212.9999999910651,1199.8999999999942,1212.9999999910651,1.0,0.0,0.0,,Click To Continue,Next button,7.0,object-60,temp_dist_trial,28.0,s_sh_21_1,student_shared,file holder,10.0,competing,paired,s_sh_21_1.jpg,Student,$${counterbalance_group},,sub-90
Desktop or Laptop,Windows 10,Chrome 138.0.0.0,1012x569,1012x570,Temporal Distance Task,cb_10,76.0,temp_dist_trial,dist_items,qkpkxw,2.0,response,26,516.1000000000058,1199.8999999999942,1213.3999999970254,516.1000000000058,1199.8999999999942,1213.3999999970254,1.0,697.2999999970198,0.0,,Slider,Slider,4.0,object-56,temp_dist_trial,28.0,s_sh_21_1,student_shared,file holder,10.0,competing,paired,s_sh_21_1.jpg,Student,$${counterbalance_group},,sub-90
Desktop or Laptop,Windows 10,Chrome 138.0.0.0,1012x569,1012x570,Temporal Distance Task,cb_10,77.0,temp_dist_trial,num_items,zn7si1,1.0,response,2_ITEM,1065.8000000000177,1049.2000000000116,1065.8000000000177,1065.8000000000177,1049.2000000000116,1065.8000000000177,1.0,0.0,0.0,,Click Response,2_count,5.0,object-49,temp_dist_trial,29.0,s_a_02_1,student_art,canvas,10.0,unique,paired,s_a_02_1.jpg,Student,$${counterbalance_group},,sub-90
Desktop or Laptop,Windows 10,Chrome 138.0.0.0,1012x569,1012x570,Temporal Distance Task,cb_10,77.0,temp_dist_trial,dist_items,qkpkxw,2.0,info,,8.199999997013947,0.0,8.199999997013947,8.199999997013947,0.0,8.199999997013947,1.0,0.0,0.0,,Slider,Slider,4.0,object-56,temp_dist_trial,29.0,s_a_02_1,student_art,canvas,10.0,unique,paired,s_a_02_1.jpg,Student,$${counterbalance_group},,sub-90
Desktop or Laptop,Windows 10,Chrome 138.0.0.0,1012x569,1012x570,Temporal Distance Task,cb_10,77.0,temp_dist_trial,dist_items,qkpkxw,2.0,continue,,1272.7999999910535,1267.0,1272.7999999910535,1272.7999999910535,1267.0,1272.7999999910535,1.0,0.0,0.0,,Click To Continue,Next button,7.0,object-60,temp_dist_trial,29.0,s_a_02_1,student_art,canvas,10.0,unique,paired,s_a_02_1.jpg,Student,$${counterbalance_group},,sub-90
Desktop or Laptop,Windows 10,Chrome 138.0.0.0,1012x569,1012x570,Temporal Distance Task,cb_10,77.0,temp_dist_trial,dist_items,qkpkxw,2.0,response,33,633.3999999999943,1267.0,1274.1000000029746,633.3999999999943,1267.0,1274.1000000029746,1.0,640.7000000029802,0.0,,Slider,Slider,4.0,object-56,temp_dist_trial,29.0,s_a_02_1,student_art,canvas,10.0,unique,paired,s_a_02_1.jpg,Student,$${counterbalance_group},,sub-90
Desktop or Laptop,Windows 10,Chrome 138.0.0.0,1012x569,1012x570,Temporal Distance Task,cb_10,78.0,temp_dist_trial,num_items,zn7si1,1.0,response,1_ITEM,1494.199999997014,1483.0,1494.199999997014,1494.199999997014,1483.0,1494.199999997014,1.0,0.0,0.0,,Click Response,1_count,3.0,object-46,temp_dist_trial,30.0,s_s_11_1,student_stem,scientific scale,10.0,unique,single,s_s_11_1.jpg,Student,$${counterbalance_group},,sub-90
Desktop or Laptop,Windows 10,Chrome 138.0.0.0,1012x569,1012x570,Temporal Distance Task,cb_10,79.0,temp_dist_trial,num_items,zn7si1,1.0,response,2_ITEM,1041.2999999999884,1033.2999999999884,1041.2999999999884,1041.2999999999884,1033.2999999999884,1041.2999999999884,1.0,0.0,0.0,,Click Response,2_count,5.0,object-49,temp_dist_trial,31.0,s_a_14_1,student_art,guitar pick,10.0,unique,paired,s_a_14_1.jpg,Student,$${counterbalance_group},,sub-90
Desktop or Laptop,Windows 10,Chrome 138.0.0.0,1012x569,1012x570,Temporal Distance Task,cb_10,79.0,temp_dist_trial,dist_items,qkpkxw,2.0,info,,11.299999999988358,0.0,11.299999999988358,11.299999999988358,0.0,11.299999999988358,1.0,0.0,0.0,,Slider,Slider,4.0,object-56,temp_dist_trial,31.0,s_a_14_1,student_art,guitar pick,10.0,unique,paired,s_a_14_1.jpg,Student,$${counterbalance_group},,sub-90
Desktop or Laptop,Windows 10,Chrome 138.0.0.0,1012x569,1012x570,Temporal Distance Task,cb_10,79.0,temp_dist_trial,dist_items,qkpkxw,2.0,continue,,1097.8999999940281,1083.2999999999884,1097.8999999940281,1097.8999999940281,1083.2999999999884,1097.8999999940281,1.0,0.0,0.0,,Click To Continue,Next button,7.0,object-60,temp_dist_trial,31.0,s_a_14_1,student_art,guitar pick,10.0,unique,paired,s_a_14_1.jpg,Student,$${counterbalance_group},,sub-90
Desktop or Laptop,Windows 10,Chrome 138.0.0.0,1012x569,1012x570,Temporal Distance Task,cb_10,79.0,temp_dist_trial,dist_items,qkpkxw,2.0,response,22,483.0,1083.2999999999884,1099.5000000029686,483.0,1083.2999999999884,1099.5000000029686,1.0,616.5000000029686,0.0,,Slider,Slider,4.0,object-56,temp_dist_trial,31.0,s_a_14_1,student_art,guitar pick,10.0,unique,paired,s_a_14_1.jpg,Student,$${counterbalance_group},,sub-90
Desktop or Laptop,Windows 10,Chrome 138.0.0.0,1012x569,1012x570,Temporal Distance Task,cb_10,80.0,temp_dist_trial,num_items,zn7si1,1.0,response,2_ITEM,1474.0999999940395,1466.3999999999942,1474.0999999940395,1474.0999999940395,1466.3999999999942,1474.0999999940395,1.0,0.0,0.0,,Click Response,2_count,5.0,object-49,temp_dist_trial,32.0,s_sh_22_1,student_shared,hole puncher,10.0,competing,single,s_sh_22_1.jpg,Student,$${counterbalance_group},,sub-90
Desktop or Laptop,Windows 10,Chrome 138.0.0.0,1012x569,1012x570,Temporal Distance Task,cb_10,80.0,temp_dist_trial,dist_items,qkpkxw,2.0,info,,12.100000000005819,0.0,12.100000000005819,12.100000000005819,0.0,12.100000000005819,1.0,0.0,0.0,,Slider,Slider,4.0,object-56,temp_dist_trial,32.0,s_sh_22_1,student_shared,hole puncher,10.0,competing,single,s_sh_22_1.jpg,Student,$${counterbalance_group},,sub-90
Desktop or Laptop,Windows 10,Chrome 138.0.0.0,1012x569,1012x570,Temporal Distance Task,cb_10,80.0,temp_dist_trial,dist_items,qkpkxw,2.0,continue,,2198.300000002986,2182.8000000000175,2198.300000002986,2198.300000002986,2182.8000000000175,2198.300000002986,1.0,0.0,0.0,,Click To Continue,Next button,7.0,object-60,temp_dist_trial,32.0,s_sh_22_1,student_shared,hole puncher,10.0,competing,single,s_sh_22_1.jpg,Student,$${counterbalance_group},,sub-90
Desktop or Laptop,Windows 10,Chrome 138.0.0.0,1012x569,1012x570,Temporal Distance Task,cb_10,80.0,temp_dist_trial,dist_items,qkpkxw,2.0,response,32,1399.3000000000175,2182.8000000000175,2199.000000000029,1399.3000000000175,2182.8000000000175,2199.000000000029,1.0,799.7000000000116,0.0,,Slider,Slider,4.0,object-56,temp_dist_trial,32.0,s_sh_22_1,student_shared,hole puncher,10.0,competing,single,s_sh_22_1.jpg,Student,$${counterbalance_group},,sub-90
Desktop or Laptop,Windows 10,Chrome 138.0.0.0,1012x569,1012x570,Temporal Distance Task,cb_10,81.0,temp_dist_trial,num_items,zn7si1,1.0,response,2_ITEM,1391.5000000029684,1383.5999999999767,1391.5000000029684,1391.5000000029684,1383.5999999999767,1391.5000000029684,1.0,0.0,0.0,,Click Response,2_count,5.0,object-49,temp_dist_trial,33.0,s_sh_11_1,student_shared,pencil case,10.0,competing,paired,s_sh_11_1.jpg,Student,$${counterbalance_group},,sub-90
Desktop or Laptop,Windows 10,Chrome 138.0.0.0,1012x569,1012x570,Temporal Distance Task,cb_10,81.0,temp_dist_trial,dist_items,qkpkxw,2.0,info,,9.100000000005819,0.0,9.100000000005819,9.100000000005819,0.0,9.100000000005819,1.0,0.0,0.0,,Slider,Slider,4.0,object-56,temp_dist_trial,33.0,s_sh_11_1,student_shared,pencil case,10.0,competing,paired,s_sh_11_1.jpg,Student,$${counterbalance_group},,sub-90
Desktop or Laptop,Windows 10,Chrome 138.0.0.0,1012x569,1012x570,Temporal Distance Task,cb_10,81.0,temp_dist_trial,dist_items,qkpkxw,2.0,continue,,1349.9000000000233,1333.3000000000175,1349.9000000000233,1349.9000000000233,1333.3000000000175,1349.9000000000233,1.0,0.0,0.0,,Click To Continue,Next button,7.0,object-60,temp_dist_trial,33.0,s_sh_11_1,student_shared,pencil case,10.0,competing,paired,s_sh_11_1.jpg,Student,$${counterbalance_group},,sub-90
Desktop or Laptop,Windows 10,Chrome 138.0.0.0,1012x569,1012x570,Temporal Distance Task,cb_10,81.0,temp_dist_trial,dist_items,qkpkxw,2.0,response,28,599.8000000000175,1333.3000000000175,1349.9000000000233,599.8000000000175,1333.3000000000175,1349.9000000000233,1.0,750.1000000000058,0.0,,Slider,Slider,4.0,object-56,temp_dist_trial,33.0,s_sh_11_1,student_shared,pencil case,10.0,competing,paired,s_sh_11_1.jpg,Student,$${counterbalance_group},,sub-90
Desktop or Laptop,Windows 10,Chrome 138.0.0.0,1012x569,1012x570,Temporal Distance Task,cb_10,82.0,temp_dist_trial,num_items,zn7si1,1.0,response,1_ITEM,1400.1999999999825,1383.2999999999884,1400.1999999999825,1400.1999999999825,1383.2999999999884,1400.1999999999825,1.0,0.0,0.0,,Click Response,1_count,3.0,object-46,temp_dist_trial,34.0,s_s_20_1,student_stem,dna model,10.0,unique,single,s_s_20_1.jpg,Student,$${counterbalance_group},,sub-90
Desktop or Laptop,Windows 10,Chrome 138.0.0.0,1012x569,1012x570,Temporal Distance Task,cb_10,83.0,temp_dist_trial,num_items,zn7si1,1.0,response,2_ITEM,1136.2000000029802,1133.2000000000114,1136.2000000029802,1136.2000000029802,1133.2000000000114,1136.2000000029802,1.0,0.0,0.0,,Click Response,2_count,5.0,object-49,temp_dist_trial,35.0,s_s_07_1,student_stem,periodic table,10.0,unique,paired,s_s_07_1.jpg,Student,$${counterbalance_group},,sub-90
Desktop or Laptop,Windows 10,Chrome 138.0.0.0,1012x569,1012x570,Temporal Distance Task,cb_10,83.0,temp_dist_trial,dist_items,qkpkxw,2.0,info,,7.800000002986053,0.0,7.800000002986053,7.800000002986053,0.0,7.800000002986053,1.0,0.0,0.0,,Slider,Slider,4.0,object-56,temp_dist_trial,35.0,s_s_07_1,student_stem,periodic table,10.0,unique,paired,s_s_07_1.jpg,Student,$${counterbalance_group},,sub-90
Desktop or Laptop,Windows 10,Chrome 138.0.0.0,1012x569,1012x570,Temporal Distance Task,cb_10,83.0,temp_dist_trial,dist_items,qkpkxw,2.0,continue,,1214.300000002986,1200.1000000000058,1214.300000002986,1214.300000002986,1200.1000000000058,1214.300000002986,1.0,0.0,0.0,,Click To Continue,Next button,7.0,object-60,temp_dist_trial,35.0,s_s_07_1,student_stem,periodic table,10.0,unique,paired,s_s_07_1.jpg,Student,$${counterbalance_group},,sub-90
Desktop or Laptop,Windows 10,Chrome 138.0.0.0,1012x569,1012x570,Temporal Distance Task,cb_10,83.0,temp_dist_trial,dist_items,qkpkxw,2.0,response,25,549.7000000000116,1200.1000000000058,1215.1999999940456,549.7000000000116,1200.1000000000058,1215.1999999940456,1.0,665.4999999940337,0.0,,Slider,Slider,4.0,object-56,temp_dist_trial,35.0,s_s_07_1,student_stem,periodic table,10.0,unique,paired,s_s_07_1.jpg,Student,$${counterbalance_group},,sub-90
Desktop or Laptop,Windows 10,Chrome 138.0.0.0,1012x569,1012x570,Temporal Distance Task,cb_10,84.0,temp_dist_trial,num_items,zn7si1,1.0,response,2_ITEM,1224.7000000029802,1216.1000000000058,1224.7000000029802,1224.7000000029802,1216.1000000000058,1224.7000000029802,1.0,0.0,0.0,,Click Response,2_count,5.0,object-49,temp_dist_trial,36.0,s_sh_19_1,student_shared,portable plastic drawer,10.0,competing,paired,s_sh_19_1.jpg,Student,$${counterbalance_group},,sub-90
Desktop or Laptop,Windows 10,Chrome 138.0.0.0,1012x569,1012x570,Temporal Distance Task,cb_10,84.0,temp_dist_trial,dist_items,qkpkxw,2.0,info,,5.999999994062819,0.0,5.999999994062819,5.999999994062819,0.0,5.999999994062819,1.0,0.0,0.0,,Slider,Slider,4.0,object-56,temp_dist_trial,36.0,s_sh_19_1,student_shared,portable plastic drawer,10.0,competing,paired,s_sh_19_1.jpg,Student,$${counterbalance_group},,sub-90
