Participant Device,Participant OS,Participant Browser,Participant Monitor Size,Participant Viewport Size,Task Name,Current Spreadsheet,Trial Number,Display,Screen,Screen ID,Screen Counter,Response Type,Response,Onset Time,Clock Time,Reaction Time,Absolute Onset Time,Absolute Clock Time,Absolute Reaction Time,Correct,Response Duration,Proportion,Tag,Component Name,Object Name,Object Number,Object ID,Spreadsheet: display,Spreadsheet: trial,Spreadsheet: stimulus_id,Spreadsheet: expected_goal,Spreadsheet: stimulus_name,Spreadsheet: c_group,Spreadsheet: condition,Spreadsheet: paired_status,Spreadsheet: stimulus_path,Spreadsheet: block_type,Manipulation: Spreadsheet,Store: enc_test_acc,sub_label
Desktop or Laptop,Windows 10,Chrome 138.0.0.0,2560x1440,2560x1440,Temporal Distance Task,$${counterbalance_group},,,,,,info,BEGIN,,,,,,,0.0,,,,,,,,,,,,,,,,,,,,sub-35
Desktop or Laptop,Windows 10,Chrome 138.0.0.0,2560x1440,2560x1440,Temporal Distance Task,cb_10,1.0,temp_instructions,intro_screen,3tnme7,1.0,continue,,8745.5,8741.6,8745.5,8745.5,8741.6,8745.5,1.0,0.0,0.0,,Click To Continue,Continue Button,4.0,object-29,temp_instructions,,,Travel,,,,,,,,,sub-35
Desktop or Laptop,Windows 10,Chrome 138.0.0.0,2560x1440,2560x1440,Temporal Distance Task,cb_10,1.0,temp_instructions,intro_screen_2,52v7ur,2.0,continue,,14286.799999999907,14279.999999999998,14286.799999999907,14286.799999999907,14279.999999999998,14286.799999999907,1.0,0.0,0.0,,Click To Continue,Continue Button,4.0,object-39,temp_instructions,,,Travel,,,,,,,,,sub-35
Desktop or Laptop,Windows 10,Chrome 138.0.0.0,2560x1440,2560x1440,Temporal Distance Task,cb_10,1.0,temp_instructions,intro_screen_3,i7lvwx,3.0,continue,,5927.400000000002,5920.400000000002,5927.400000000002,5927.400000000002,5920.400000000002,5927.400000000002,1.0,0.0,0.0,,Click To Continue,Continue Button,4.0,object-67,temp_instructions,,,Travel,,,,,,,,,sub-35
Desktop or Laptop,Windows 10,Chrome 138.0.0.0,2560x1440,2560x1440,Temporal Distance Task,cb_10,1.0,temp_instructions,test_q1,5ieqx1,4.0,response,choice_3,5773.200000000185,5767.5999999999985,5773.200000000185,5773.200000000185,5767.5999999999985,5773.200000000185,1.0,0.0,0.0,,Click Response,choice_3,5.0,object-345,temp_instructions,,,Travel,,,,,,,,,sub-35
Desktop or Laptop,Windows 10,Chrome 138.0.0.0,2560x1440,2560x1440,Temporal Distance Task,cb_10,1.0,temp_instructions,score_corr,7ilvjr,5.0,continue,,1102.4000000000017,1097.8000000000031,1102.4000000000017,1102.4000000000017,1097.8000000000031,1102.4000000000017,1.0,0.0,0.0,,Click To Continue,Continue Button,3.0,object-23,temp_instructions,,,Travel,,,,,,,,,sub-35
Desktop or Laptop,Windows 10,Chrome 138.0.0.0,2560x1440,2560x1440,Temporal Distance Task,cb_10,1.0,temp_eventStart,Screen 1,dgtyxe,1.0,continue,,1195.7000000000914,1195.1999999999969,1195.7000000000914,1195.7000000000914,1195.1999999999969,1195.7000000000914,1.0,0.0,0.0,,Click To Continue,Next Button,3.0,object-43,temp_eventStart,,,Travel,,,,,,,,,sub-35
Desktop or Laptop,Windows 10,Chrome 138.0.0.0,2560x1440,2560x1440,Temporal Distance Task,cb_10,1.0,temp_dist_trial,num_items,zn7si1,1.0,response,2_ITEM,2744.400000000001,2738.0,2744.400000000001,2744.400000000001,2738.0,2744.400000000001,1.0,0.0,0.0,,Click Response,2_count,5.0,object-49,temp_dist_trial,1.0,t_m_13_1,travel_Miami,floatie,10.0,unique,single,t_m_13_1.jpg,Travel,,,sub-35
Desktop or Laptop,Windows 10,Chrome 138.0.0.0,2560x1440,2560x1440,Temporal Distance Task,cb_10,1.0,temp_dist_trial,dist_items,qkpkxw,2.0,info,,4.099999999816647,0.0,4.099999999816647,4.099999999816647,0.0,4.099999999816647,1.0,0.0,0.0,,Slider,Slider,4.0,object-56,temp_dist_trial,1.0,t_m_13_1,travel_Miami,floatie,10.0,unique,single,t_m_13_1.jpg,Travel,,,sub-35
Desktop or Laptop,Windows 10,Chrome 138.0.0.0,2560x1440,2560x1440,Temporal Distance Task,cb_10,1.0,temp_dist_trial,dist_items,qkpkxw,2.0,continue,,4752.300000000003,4746.100000000006,4752.300000000003,4752.300000000003,4746.100000000006,4752.300000000003,1.0,0.0,0.0,,Click To Continue,Next button,7.0,object-60,temp_dist_trial,1.0,t_m_13_1,travel_Miami,floatie,10.0,unique,single,t_m_13_1.jpg,Travel,,,sub-35
Desktop or Laptop,Windows 10,Chrome 138.0.0.0,2560x1440,2560x1440,Temporal Distance Task,cb_10,1.0,temp_dist_trial,dist_items,qkpkxw,2.0,response,64,1153.5,4746.100000000006,4753.100000000006,1153.5,4746.100000000006,4753.100000000006,1.0,3599.6000000000067,0.0,,Slider,Slider,4.0,object-56,temp_dist_trial,1.0,t_m_13_1,travel_Miami,floatie,10.0,unique,single,t_m_13_1.jpg,Travel,,,sub-35
Desktop or Laptop,Windows 10,Chrome 138.0.0.0,2560x1440,2560x1440,Temporal Distance Task,cb_10,2.0,temp_dist_trial,num_items,zn7si1,1.0,response,2_ITEM,1581.1999999999966,1577.3999999999942,1581.1999999999966,1581.1999999999966,1577.3999999999942,1581.1999999999966,1.0,0.0,0.0,,Click Response,2_count,5.0,object-49,temp_dist_trial,2.0,t_i_16_1,travel_Iceland,skis,10.0,unique,paired,t_i_16_1.jpg,Travel,,,sub-35
Desktop or Laptop,Windows 10,Chrome 138.0.0.0,2560x1440,2560x1440,Temporal Distance Task,cb_10,2.0,temp_dist_trial,dist_items,qkpkxw,2.0,info,,3.800000000090222,0.0,3.800000000090222,3.800000000090222,0.0,3.800000000090222,1.0,0.0,0.0,,Slider,Slider,4.0,object-56,temp_dist_trial,2.0,t_i_16_1,travel_Iceland,skis,10.0,unique,paired,t_i_16_1.jpg,Travel,,,sub-35
Desktop or Laptop,Windows 10,Chrome 138.0.0.0,2560x1440,2560x1440,Temporal Distance Task,cb_10,2.0,temp_dist_trial,dist_items,qkpkxw,2.0,continue,,2495.8000000000893,2494.5999999999985,2495.8000000000893,2495.8000000000893,2494.5999999999985,2495.8000000000893,1.0,0.0,0.0,,Click To Continue,Next button,7.0,object-60,temp_dist_trial,2.0,t_i_16_1,travel_Iceland,skis,10.0,unique,paired,t_i_16_1.jpg,Travel,,,sub-35
Desktop or Laptop,Windows 10,Chrome 138.0.0.0,2560x1440,2560x1440,Temporal Distance Task,cb_10,2.0,temp_dist_trial,dist_items,qkpkxw,2.0,response,74,931.0999999999983,2494.5999999999985,2496.099999999904,931.0999999999983,2494.5999999999985,2496.099999999904,1.0,1564.9999999999054,0.0,,Slider,Slider,4.0,object-56,temp_dist_trial,2.0,t_i_16_1,travel_Iceland,skis,10.0,unique,paired,t_i_16_1.jpg,Travel,,,sub-35
Desktop or Laptop,Windows 10,Chrome 138.0.0.0,2560x1440,2560x1440,Temporal Distance Task,cb_10,3.0,temp_dist_trial,num_items,zn7si1,1.0,response,1_ITEM,1937.0999999999985,1931.799999999996,1937.0999999999985,1937.0999999999985,1931.799999999996,1937.0999999999985,1.0,0.0,0.0,,Click Response,1_count,3.0,object-46,temp_dist_trial,3.0,t_i_06_1,travel_Iceland,knit hat,10.0,unique,single,t_i_06_1.jpg,Travel,,,sub-35
Desktop or Laptop,Windows 10,Chrome 138.0.0.0,2560x1440,2560x1440,Temporal Distance Task,cb_10,4.0,temp_dist_trial,num_items,zn7si1,1.0,response,1_ITEM,1631.0999999999985,1626.0999999999985,1631.0999999999985,1631.0999999999985,1626.0999999999985,1631.0999999999985,1.0,0.0,0.0,,Click Response,1_count,3.0,object-46,temp_dist_trial,4.0,t_s_04_1,travel_shared,instant camera,10.0,competing,single,t_s_04_1.jpg,Travel,,,sub-35
Desktop or Laptop,Windows 10,Chrome 138.0.0.0,2560x1440,2560x1440,Temporal Distance Task,cb_10,5.0,temp_dist_trial,num_items,zn7si1,1.0,response,1_ITEM,1244.8999999999069,1244.0,1244.8999999999069,1244.8999999999069,1244.0,1244.8999999999069,1.0,0.0,0.0,,Click Response,1_count,3.0,object-46,temp_dist_trial,5.0,t_i_12_1,travel_Iceland,tent,10.0,unique,single,t_i_12_1.jpg,Travel,,,sub-35
Desktop or Laptop,Windows 10,Chrome 138.0.0.0,2560x1440,2560x1440,Temporal Distance Task,cb_10,6.0,temp_dist_trial,num_items,zn7si1,1.0,response,1_ITEM,1341.9000000000015,1341.2000000000044,1341.9000000000015,1341.9000000000015,1341.2000000000044,1341.9000000000015,1.0,0.0,0.0,,Click Response,1_count,3.0,object-46,temp_dist_trial,6.0,t_m_11_1,travel_Miami,collapsible beach chair,10.0,unique,single,t_m_11_1.jpg,Travel,,,sub-35
Desktop or Laptop,Windows 10,Chrome 138.0.0.0,2560x1440,2560x1440,Temporal Distance Task,cb_10,7.0,temp_dist_trial,num_items,zn7si1,1.0,response,2_ITEM,1405.4999999998108,1403.6999999999966,1405.4999999998108,1405.4999999998108,1403.6999999999966,1405.4999999998108,1.0,0.0,0.0,,Click Response,2_count,5.0,object-49,temp_dist_trial,7.0,t_i_10_1,travel_Iceland,trekking poles,10.0,unique,paired,t_i_10_1.jpg,Travel,,,sub-35
Desktop or Laptop,Windows 10,Chrome 138.0.0.0,2560x1440,2560x1440,Temporal Distance Task,cb_10,7.0,temp_dist_trial,dist_items,qkpkxw,2.0,info,,3.900000000096042,0.0,3.900000000096042,3.900000000096042,0.0,3.900000000096042,1.0,0.0,0.0,,Slider,Slider,4.0,object-56,temp_dist_trial,7.0,t_i_10_1,travel_Iceland,trekking poles,10.0,unique,paired,t_i_10_1.jpg,Travel,,,sub-35
Desktop or Laptop,Windows 10,Chrome 138.0.0.0,2560x1440,2560x1440,Temporal Distance Task,cb_10,7.0,temp_dist_trial,dist_items,qkpkxw,2.0,continue,,1986.6999999999093,1980.4000000000005,1986.6999999999093,1986.6999999999093,1980.4000000000005,1986.6999999999093,1.0,0.0,0.0,,Click To Continue,Next button,7.0,object-60,temp_dist_trial,7.0,t_i_10_1,travel_Iceland,trekking poles,10.0,unique,paired,t_i_10_1.jpg,Travel,,,sub-35
Desktop or Laptop,Windows 10,Chrome 138.0.0.0,2560x1440,2560x1440,Temporal Distance Task,cb_10,7.0,temp_dist_trial,dist_items,qkpkxw,2.0,response,67,965.9000000000017,1980.4000000000005,1986.8000000000034,965.9000000000017,1980.4000000000005,1986.8000000000034,1.0,1020.9000000000017,0.0,,Slider,Slider,4.0,object-56,temp_dist_trial,7.0,t_i_10_1,travel_Iceland,trekking poles,10.0,unique,paired,t_i_10_1.jpg,Travel,,,sub-35
Desktop or Laptop,Windows 10,Chrome 138.0.0.0,2560x1440,2560x1440,Temporal Distance Task,cb_10,8.0,temp_dist_trial,num_items,zn7si1,1.0,response,2_ITEM,1201.2999999999086,1195.2000000000044,1201.2999999999086,1201.2999999999086,1195.2000000000044,1201.2999999999086,1.0,0.0,0.0,,Click Response,2_count,5.0,object-49,temp_dist_trial,8.0,t_s_17_1,travel_shared,toothbrush,10.0,competing,paired,t_s_17_1.jpg,Travel,,,sub-35
Desktop or Laptop,Windows 10,Chrome 138.0.0.0,2560x1440,2560x1440,Temporal Distance Task,cb_10,8.0,temp_dist_trial,dist_items,qkpkxw,2.0,info,,3.899999999906868,0.0,3.899999999906868,3.899999999906868,0.0,3.899999999906868,1.0,0.0,0.0,,Slider,Slider,4.0,object-56,temp_dist_trial,8.0,t_s_17_1,travel_shared,toothbrush,10.0,competing,paired,t_s_17_1.jpg,Travel,,,sub-35
Desktop or Laptop,Windows 10,Chrome 138.0.0.0,2560x1440,2560x1440,Temporal Distance Task,cb_10,8.0,temp_dist_trial,dist_items,qkpkxw,2.0,continue,,2051.600000000093,2049.8999999999937,2051.600000000093,2051.600000000093,2049.8999999999937,2051.600000000093,1.0,0.0,0.0,,Click To Continue,Next button,7.0,object-60,temp_dist_trial,8.0,t_s_17_1,travel_shared,toothbrush,10.0,competing,paired,t_s_17_1.jpg,Travel,,,sub-35
Desktop or Laptop,Windows 10,Chrome 138.0.0.0,2560x1440,2560x1440,Temporal Distance Task,cb_10,8.0,temp_dist_trial,dist_items,qkpkxw,2.0,response,77,903.4000000000017,2049.8999999999937,2051.7999999998137,903.4000000000017,2049.8999999999937,2051.7999999998137,1.0,1148.3999999998125,0.0,,Slider,Slider,4.0,object-56,temp_dist_trial,8.0,t_s_17_1,travel_shared,toothbrush,10.0,competing,paired,t_s_17_1.jpg,Travel,,,sub-35
Desktop or Laptop,Windows 10,Chrome 138.0.0.0,2560x1440,2560x1440,Temporal Distance Task,cb_10,9.0,temp_dist_trial,num_items,zn7si1,1.0,response,2_ITEM,1448.8000000001919,1445.3000000000034,1448.8000000001919,1448.8000000001919,1445.3000000000034,1448.8000000001919,1.0,0.0,0.0,,Click Response,2_count,5.0,object-49,temp_dist_trial,9.0,t_m_15_1,travel_Miami,shorts,10.0,unique,paired,t_m_15_1.jpg,Travel,,,sub-35
Desktop or Laptop,Windows 10,Chrome 138.0.0.0,2560x1440,2560x1440,Temporal Distance Task,cb_10,9.0,temp_dist_trial,dist_items,qkpkxw,2.0,info,,3.2000000001862645,0.0,3.2000000001862645,3.2000000001862645,0.0,3.2000000001862645,1.0,0.0,0.0,,Slider,Slider,4.0,object-56,temp_dist_trial,9.0,t_m_15_1,travel_Miami,shorts,10.0,unique,paired,t_m_15_1.jpg,Travel,,,sub-35
Desktop or Laptop,Windows 10,Chrome 138.0.0.0,2560x1440,2560x1440,Temporal Distance Task,cb_10,9.0,temp_dist_trial,dist_items,qkpkxw,2.0,continue,,2488.2000000001863,2487.6000000000063,2488.2000000001863,2488.2000000001863,2487.6000000000063,2488.2000000001863,1.0,0.0,0.0,,Click To Continue,Next button,7.0,object-60,temp_dist_trial,9.0,t_m_15_1,travel_Miami,shorts,10.0,unique,paired,t_m_15_1.jpg,Travel,,,sub-35
Desktop or Laptop,Windows 10,Chrome 138.0.0.0,2560x1440,2560x1440,Temporal Distance Task,cb_10,9.0,temp_dist_trial,dist_items,qkpkxw,2.0,response,44,1042.3000000000031,2487.6000000000063,2490.5,1042.3000000000031,2487.6000000000063,2490.5,1.0,1448.1999999999966,0.0,,Slider,Slider,4.0,object-56,temp_dist_trial,9.0,t_m_15_1,travel_Miami,shorts,10.0,unique,paired,t_m_15_1.jpg,Travel,,,sub-35
Desktop or Laptop,Windows 10,Chrome 138.0.0.0,2560x1440,2560x1440,Temporal Distance Task,cb_10,10.0,temp_dist_trial,num_items,zn7si1,1.0,response,2_ITEM,1748.6000000001804,1744.1999999999966,1748.6000000001804,1748.6000000001804,1744.1999999999966,1748.6000000001804,1.0,0.0,0.0,,Click Response,2_count,5.0,object-49,temp_dist_trial,10.0,t_m_18_1,travel_Miami,waterproof tote,10.0,unique,paired,t_m_18_1.jpg,Travel,,,sub-35
Desktop or Laptop,Windows 10,Chrome 138.0.0.0,2560x1440,2560x1440,Temporal Distance Task,cb_10,10.0,temp_dist_trial,dist_items,qkpkxw,2.0,info,,3.2999999998137355,0.0,3.2999999998137355,3.2999999998137355,0.0,3.2999999998137355,1.0,0.0,0.0,,Slider,Slider,4.0,object-56,temp_dist_trial,10.0,t_m_18_1,travel_Miami,waterproof tote,10.0,unique,paired,t_m_18_1.jpg,Travel,,,sub-35
Desktop or Laptop,Windows 10,Chrome 138.0.0.0,2560x1440,2560x1440,Temporal Distance Task,cb_10,10.0,temp_dist_trial,dist_items,qkpkxw,2.0,continue,,1706.2000000001865,1702.3999999999942,1706.2000000001865,1706.2000000001865,1702.3999999999942,1706.2000000001865,1.0,0.0,0.0,,Click To Continue,Next button,7.0,object-60,temp_dist_trial,10.0,t_m_18_1,travel_Miami,waterproof tote,10.0,unique,paired,t_m_18_1.jpg,Travel,,,sub-35
Desktop or Laptop,Windows 10,Chrome 138.0.0.0,2560x1440,2560x1440,Temporal Distance Task,cb_10,10.0,temp_dist_trial,dist_items,qkpkxw,2.0,response,84,444.6999999999971,1702.3999999999942,1706.5,444.6999999999971,1702.3999999999942,1706.5,1.0,1261.8000000000031,0.0,,Slider,Slider,4.0,object-56,temp_dist_trial,10.0,t_m_18_1,travel_Miami,waterproof tote,10.0,unique,paired,t_m_18_1.jpg,Travel,,,sub-35
Desktop or Laptop,Windows 10,Chrome 138.0.0.0,2560x1440,2560x1440,Temporal Distance Task,cb_10,11.0,temp_dist_trial,num_items,zn7si1,1.0,response,1_ITEM,1755.700000000099,1751.1000000000058,1755.700000000099,1755.700000000099,1751.1000000000058,1755.700000000099,1.0,0.0,0.0,,Click Response,1_count,3.0,object-46,temp_dist_trial,11.0,t_s_24_1,travel_shared,ear plugs,10.0,competing,single,t_s_24_1.jpg,Travel,,,sub-35
Desktop or Laptop,Windows 10,Chrome 138.0.0.0,2560x1440,2560x1440,Temporal Distance Task,cb_10,12.0,temp_dist_trial,num_items,zn7si1,1.0,response,2_ITEM,1583.5000000001892,1577.400000000009,1583.5000000001892,1583.5000000001892,1577.400000000009,1583.5000000001892,1.0,0.0,0.0,,Click Response,2_count,5.0,object-49,temp_dist_trial,12.0,t_s_12_1,travel_shared,clear toiletry bag,10.0,competing,paired,t_s_12_1.jpg,Travel,,,sub-35
Desktop or Laptop,Windows 10,Chrome 138.0.0.0,2560x1440,2560x1440,Temporal Distance Task,cb_10,12.0,temp_dist_trial,dist_items,qkpkxw,2.0,info,,3.1999999999970896,0.0,3.1999999999970896,3.1999999999970896,0.0,3.1999999999970896,1.0,0.0,0.0,,Slider,Slider,4.0,object-56,temp_dist_trial,12.0,t_s_12_1,travel_shared,clear toiletry bag,10.0,competing,paired,t_s_12_1.jpg,Travel,,,sub-35
Desktop or Laptop,Windows 10,Chrome 138.0.0.0,2560x1440,2560x1440,Temporal Distance Task,cb_10,12.0,temp_dist_trial,dist_items,qkpkxw,2.0,continue,,2708.699999999997,2703.0999999999913,2708.699999999997,2708.699999999997,2703.0999999999913,2708.699999999997,1.0,0.0,0.0,,Click To Continue,Next button,7.0,object-60,temp_dist_trial,12.0,t_s_12_1,travel_shared,clear toiletry bag,10.0,competing,paired,t_s_12_1.jpg,Travel,,,sub-35
Desktop or Laptop,Windows 10,Chrome 138.0.0.0,2560x1440,2560x1440,Temporal Distance Task,cb_10,12.0,temp_dist_trial,dist_items,qkpkxw,2.0,response,69,1306.3999999999942,2703.0999999999913,2710.0999999999913,1306.3999999999942,2703.0999999999913,2710.0999999999913,1.0,1403.6999999999966,0.0,,Slider,Slider,4.0,object-56,temp_dist_trial,12.0,t_s_12_1,travel_shared,clear toiletry bag,10.0,competing,paired,t_s_12_1.jpg,Travel,,,sub-35
Desktop or Laptop,Windows 10,Chrome 138.0.0.0,2560x1440,2560x1440,Temporal Distance Task,cb_10,13.0,temp_dist_trial,num_items,zn7si1,1.0,response,1_ITEM,1874.700000000099,1869.2000000000119,1874.700000000099,1874.700000000099,1869.2000000000119,1874.700000000099,1.0,0.0,0.0,,Click Response,1_count,3.0,object-46,temp_dist_trial,13.0,t_i_14_1,travel_Iceland,snow pants,10.0,unique,paired,t_i_14_1.jpg,Travel,,,sub-35
Desktop or Laptop,Windows 10,Chrome 138.0.0.0,2560x1440,2560x1440,Temporal Distance Task,cb_10,14.0,temp_dist_trial,num_items,zn7si1,1.0,response,1_ITEM,2075.4000000001834,2070.800000000003,2075.4000000001834,2075.4000000001834,2070.800000000003,2075.4000000001834,1.0,0.0,0.0,,Click Response,1_count,3.0,object-46,temp_dist_trial,14.0,t_s_19_1,travel_shared,pajamas,10.0,competing,single,t_s_19_1.jpg,Travel,,,sub-35
Desktop or Laptop,Windows 10,Chrome 138.0.0.0,2560x1440,2560x1440,Temporal Distance Task,cb_10,15.0,temp_dist_trial,num_items,zn7si1,1.0,response,2_ITEM,1573.299999999901,1570.5,1573.299999999901,1573.299999999901,1570.5,1573.299999999901,1.0,0.0,0.0,,Click Response,2_count,5.0,object-49,temp_dist_trial,15.0,t_s_21_1,travel_shared,umbrella,10.0,competing,paired,t_s_21_1.jpg,Travel,,,sub-35
Desktop or Laptop,Windows 10,Chrome 138.0.0.0,2560x1440,2560x1440,Temporal Distance Task,cb_10,15.0,temp_dist_trial,dist_items,qkpkxw,2.0,info,,3.900000000096042,0.0,3.900000000096042,3.900000000096042,0.0,3.900000000096042,1.0,0.0,0.0,,Slider,Slider,4.0,object-56,temp_dist_trial,15.0,t_s_21_1,travel_shared,umbrella,10.0,competing,paired,t_s_21_1.jpg,Travel,,,sub-35
Desktop or Laptop,Windows 10,Chrome 138.0.0.0,2560x1440,2560x1440,Temporal Distance Task,cb_10,15.0,temp_dist_trial,dist_items,qkpkxw,2.0,continue,,2919.000000000189,2918.6000000000067,2919.000000000189,2919.000000000189,2918.6000000000067,2919.000000000189,1.0,0.0,0.0,,Click To Continue,Next button,7.0,object-60,temp_dist_trial,15.0,t_s_21_1,travel_shared,umbrella,10.0,competing,paired,t_s_21_1.jpg,Travel,,,sub-35
Desktop or Laptop,Windows 10,Chrome 138.0.0.0,2560x1440,2560x1440,Temporal Distance Task,cb_10,15.0,temp_dist_trial,dist_items,qkpkxw,2.0,response,86,1306.5,2918.6000000000067,2919.1999999999102,1306.5,2918.6000000000067,2919.1999999999102,1.0,1612.6999999999098,0.0,,Slider,Slider,4.0,object-56,temp_dist_trial,15.0,t_s_21_1,travel_shared,umbrella,10.0,competing,paired,t_s_21_1.jpg,Travel,,,sub-35
Desktop or Laptop,Windows 10,Chrome 138.0.0.0,2560x1440,2560x1440,Temporal Distance Task,cb_10,16.0,temp_dist_trial,num_items,zn7si1,1.0,response,1_ITEM,2020.3000000000907,2015.0999999999915,2020.3000000000907,2020.3000000000907,2015.0999999999915,2020.3000000000907,1.0,0.0,0.0,,Click Response,1_count,3.0,object-46,temp_dist_trial,16.0,t_i_04_1,travel_Iceland,portable camping stove,10.0,unique,paired,t_i_04_1.jpg,Travel,,,sub-35
Desktop or Laptop,Windows 10,Chrome 138.0.0.0,2560x1440,2560x1440,Temporal Distance Task,cb_10,17.0,temp_dist_trial,num_items,zn7si1,1.0,response,1_ITEM,1694.8999999999942,1688.6999999999966,1694.8999999999942,1694.8999999999942,1688.6999999999966,1694.8999999999942,1.0,0.0,0.0,,Click Response,1_count,3.0,object-46,temp_dist_trial,17.0,t_i_18_1,travel_Iceland,ski mask,10.0,unique,paired,t_i_18_1.jpg,Travel,,,sub-35
Desktop or Laptop,Windows 10,Chrome 138.0.0.0,2560x1440,2560x1440,Temporal Distance Task,cb_10,18.0,temp_dist_trial,num_items,zn7si1,1.0,response,2_ITEM,1950.4999999998108,1945.8999999999944,1950.4999999998108,1950.4999999998108,1945.8999999999944,1950.4999999998108,1.0,0.0,0.0,,Click Response,2_count,5.0,object-49,temp_dist_trial,18.0,t_i_19_1,travel_Iceland,rope,10.0,unique,paired,t_i_19_1.jpg,Travel,,,sub-35
Desktop or Laptop,Windows 10,Chrome 138.0.0.0,2560x1440,2560x1440,Temporal Distance Task,cb_10,18.0,temp_dist_trial,dist_items,qkpkxw,2.0,info,,4.699999999909778,0.0,4.699999999909778,4.699999999909778,0.0,4.699999999909778,1.0,0.0,0.0,,Slider,Slider,4.0,object-56,temp_dist_trial,18.0,t_i_19_1,travel_Iceland,rope,10.0,unique,paired,t_i_19_1.jpg,Travel,,,sub-35
Desktop or Laptop,Windows 10,Chrome 138.0.0.0,2560x1440,2560x1440,Temporal Distance Task,cb_10,18.0,temp_dist_trial,dist_items,qkpkxw,2.0,continue,,1532.3000000000034,1528.6999999999966,1532.3000000000034,1532.3000000000034,1528.6999999999966,1532.3000000000034,1.0,0.0,0.0,,Click To Continue,Next button,7.0,object-60,temp_dist_trial,18.0,t_i_19_1,travel_Iceland,rope,10.0,unique,paired,t_i_19_1.jpg,Travel,,,sub-35
Desktop or Laptop,Windows 10,Chrome 138.0.0.0,2560x1440,2560x1440,Temporal Distance Task,cb_10,18.0,temp_dist_trial,dist_items,qkpkxw,2.0,response,63,778.3000000000029,1528.6999999999966,1532.5999999998166,778.3000000000029,1528.6999999999966,1532.5999999998166,1.0,754.2999999998137,0.0,,Slider,Slider,4.0,object-56,temp_dist_trial,18.0,t_i_19_1,travel_Iceland,rope,10.0,unique,paired,t_i_19_1.jpg,Travel,,,sub-35
Desktop or Laptop,Windows 10,Chrome 138.0.0.0,2560x1440,2560x1440,Temporal Distance Task,cb_10,19.0,temp_dist_trial,num_items,zn7si1,1.0,response,1_ITEM,1836.4999999999127,1834.6000000000056,1836.4999999999127,1836.4999999999127,1834.6000000000056,1836.4999999999127,1.0,0.0,0.0,,Click Response,1_count,3.0,object-46,temp_dist_trial,19.0,t_s_01_1,travel_shared,fanny pack,10.0,competing,single,t_s_01_1.jpg,Travel,,,sub-35
Desktop or Laptop,Windows 10,Chrome 138.0.0.0,2560x1440,2560x1440,Temporal Distance Task,cb_10,20.0,temp_dist_trial,num_items,zn7si1,1.0,response,2_ITEM,2259.0000000000878,2258.3999999999937,2259.0000000000878,2259.0000000000878,2258.3999999999937,2259.0000000000878,1.0,0.0,0.0,,Click Response,2_count,5.0,object-49,temp_dist_trial,20.0,t_m_19_1,travel_Miami,surfboard,10.0,unique,paired,t_m_19_1.jpg,Travel,,,sub-35
Desktop or Laptop,Windows 10,Chrome 138.0.0.0,2560x1440,2560x1440,Temporal Distance Task,cb_10,20.0,temp_dist_trial,dist_items,qkpkxw,2.0,info,,3.0999999998166468,0.0,3.0999999998166468,3.0999999998166468,0.0,3.0999999998166468,1.0,0.0,0.0,,Slider,Slider,4.0,object-56,temp_dist_trial,20.0,t_m_19_1,travel_Miami,surfboard,10.0,unique,paired,t_m_19_1.jpg,Travel,,,sub-35
Desktop or Laptop,Windows 10,Chrome 138.0.0.0,2560x1440,2560x1440,Temporal Distance Task,cb_10,20.0,temp_dist_trial,dist_items,qkpkxw,2.0,continue,,1824.3000000000034,1820.5,1824.3000000000034,1824.3000000000034,1820.5,1824.3000000000034,1.0,0.0,0.0,,Click To Continue,Next button,7.0,object-60,temp_dist_trial,20.0,t_m_19_1,travel_Miami,surfboard,10.0,unique,paired,t_m_19_1.jpg,Travel,,,sub-35
Desktop or Laptop,Windows 10,Chrome 138.0.0.0,2560x1440,2560x1440,Temporal Distance Task,cb_10,20.0,temp_dist_trial,dist_items,qkpkxw,2.0,response,74,694.8000000000029,1820.5,1824.400000000096,694.8000000000029,1820.5,1824.400000000096,1.0,1129.6000000000931,0.0,,Slider,Slider,4.0,object-56,temp_dist_trial,20.0,t_m_19_1,travel_Miami,surfboard,10.0,unique,paired,t_m_19_1.jpg,Travel,,,sub-35
Desktop or Laptop,Windows 10,Chrome 138.0.0.0,2560x1440,2560x1440,Temporal Distance Task,cb_10,21.0,temp_dist_trial,num_items,zn7si1,1.0,response,1_ITEM,2015.8000000000034,2015.3000000000034,2015.8000000000034,2015.8000000000034,2015.3000000000034,2015.8000000000034,1.0,0.0,0.0,,Click Response,1_count,3.0,object-46,temp_dist_trial,21.0,t_m_05_1,travel_Miami,sunscreen,10.0,unique,single,t_m_05_1.jpg,Travel,,,sub-35
Desktop or Laptop,Windows 10,Chrome 138.0.0.0,2560x1440,2560x1440,Temporal Distance Task,cb_10,22.0,temp_dist_trial,num_items,zn7si1,1.0,response,2_ITEM,1009.3999999999068,1007.6000000000058,1009.3999999999068,1009.3999999999068,1007.6000000000058,1009.3999999999068,1.0,0.0,0.0,,Click Response,2_count,5.0,object-49,temp_dist_trial,22.0,t_s_16_1,travel_shared,chapstick,10.0,competing,paired,t_s_16_1.jpg,Travel,,,sub-35
Desktop or Laptop,Windows 10,Chrome 138.0.0.0,2560x1440,2560x1440,Temporal Distance Task,cb_10,22.0,temp_dist_trial,dist_items,qkpkxw,2.0,info,,2.999999999810825,0.0,2.999999999810825,2.999999999810825,0.0,2.999999999810825,1.0,0.0,0.0,,Slider,Slider,4.0,object-56,temp_dist_trial,22.0,t_s_16_1,travel_shared,chapstick,10.0,competing,paired,t_s_16_1.jpg,Travel,,,sub-35
Desktop or Laptop,Windows 10,Chrome 138.0.0.0,2560x1440,2560x1440,Temporal Distance Task,cb_10,22.0,temp_dist_trial,dist_items,qkpkxw,2.0,continue,,2819.699999999997,2814.300000000003,2819.699999999997,2819.699999999997,2814.300000000003,2819.699999999997,1.0,0.0,0.0,,Click To Continue,Next button,7.0,object-60,temp_dist_trial,22.0,t_s_16_1,travel_shared,chapstick,10.0,competing,paired,t_s_16_1.jpg,Travel,,,sub-35
Desktop or Laptop,Windows 10,Chrome 138.0.0.0,2560x1440,2560x1440,Temporal Distance Task,cb_10,22.0,temp_dist_trial,dist_items,qkpkxw,2.0,response,48,771.3000000000029,2814.300000000003,2819.999999999811,771.3000000000029,2814.300000000003,2819.999999999811,1.0,2048.699999999808,0.0,,Slider,Slider,4.0,object-56,temp_dist_trial,22.0,t_s_16_1,travel_shared,chapstick,10.0,competing,paired,t_s_16_1.jpg,Travel,,,sub-35
Desktop or Laptop,Windows 10,Chrome 138.0.0.0,2560x1440,2560x1440,Temporal Distance Task,cb_10,23.0,temp_dist_trial,num_items,zn7si1,1.0,response,2_ITEM,1204.1000000001804,1202.0999999999913,1204.1000000001804,1204.1000000001804,1202.0999999999913,1204.1000000001804,1.0,0.0,0.0,,Click Response,2_count,5.0,object-49,temp_dist_trial,23.0,t_s_05_1,travel_shared,neck pillow,10.0,competing,paired,t_s_05_1.jpg,Travel,,,sub-35
Desktop or Laptop,Windows 10,Chrome 138.0.0.0,2560x1440,2560x1440,Temporal Distance Task,cb_10,23.0,temp_dist_trial,dist_items,qkpkxw,2.0,info,,3.4999999999126885,0.0,3.4999999999126885,3.4999999999126885,0.0,3.4999999999126885,1.0,0.0,0.0,,Slider,Slider,4.0,object-56,temp_dist_trial,23.0,t_s_05_1,travel_shared,neck pillow,10.0,competing,paired,t_s_05_1.jpg,Travel,,,sub-35
Desktop or Laptop,Windows 10,Chrome 138.0.0.0,2560x1440,2560x1440,Temporal Distance Task,cb_10,23.0,temp_dist_trial,dist_items,qkpkxw,2.0,continue,,1510.700000000099,1507.900000000009,1510.700000000099,1510.700000000099,1507.900000000009,1510.700000000099,1.0,0.0,0.0,,Click To Continue,Next button,7.0,object-60,temp_dist_trial,23.0,t_s_05_1,travel_shared,neck pillow,10.0,competing,paired,t_s_05_1.jpg,Travel,,,sub-35
Desktop or Laptop,Windows 10,Chrome 138.0.0.0,2560x1440,2560x1440,Temporal Distance Task,cb_10,23.0,temp_dist_trial,dist_items,qkpkxw,2.0,response,72,535.1000000000058,1507.900000000009,1513.1000000000058,535.1000000000058,1507.900000000009,1513.1000000000058,1.0,978.0,0.0,,Slider,Slider,4.0,object-56,temp_dist_trial,23.0,t_s_05_1,travel_shared,neck pillow,10.0,competing,paired,t_s_05_1.jpg,Travel,,,sub-35
Desktop or Laptop,Windows 10,Chrome 138.0.0.0,2560x1440,2560x1440,Temporal Distance Task,cb_10,24.0,temp_dist_trial,num_items,zn7si1,1.0,response,2_ITEM,1882.8999999999944,1876.1999999999966,1882.8999999999944,1882.8999999999944,1876.1999999999966,1882.8999999999944,1.0,0.0,0.0,,Click Response,2_count,5.0,object-49,temp_dist_trial,24.0,t_s_02_1,travel_shared,water bottle,10.0,competing,paired,t_s_02_1.jpg,Travel,,,sub-35
Desktop or Laptop,Windows 10,Chrome 138.0.0.0,2560x1440,2560x1440,Temporal Distance Task,cb_10,24.0,temp_dist_trial,dist_items,qkpkxw,2.0,info,,3.699999999909778,0.0,3.699999999909778,3.699999999909778,0.0,3.699999999909778,1.0,0.0,0.0,,Slider,Slider,4.0,object-56,temp_dist_trial,24.0,t_s_02_1,travel_shared,water bottle,10.0,competing,paired,t_s_02_1.jpg,Travel,,,sub-35
Desktop or Laptop,Windows 10,Chrome 138.0.0.0,2560x1440,2560x1440,Temporal Distance Task,cb_10,24.0,temp_dist_trial,dist_items,qkpkxw,2.0,continue,,1306.5,1299.5,1306.5,1306.5,1299.5,1306.5,1.0,0.0,0.0,,Click To Continue,Next button,7.0,object-60,temp_dist_trial,24.0,t_s_02_1,travel_shared,water bottle,10.0,competing,paired,t_s_02_1.jpg,Travel,,,sub-35
Desktop or Laptop,Windows 10,Chrome 138.0.0.0,2560x1440,2560x1440,Temporal Distance Task,cb_10,24.0,temp_dist_trial,dist_items,qkpkxw,2.0,response,69,562.9000000000087,1299.5,1306.5,562.9000000000087,1299.5,1306.5,1.0,743.5999999999913,0.0,,Slider,Slider,4.0,object-56,temp_dist_trial,24.0,t_s_02_1,travel_shared,water bottle,10.0,competing,paired,t_s_02_1.jpg,Travel,,,sub-35
Desktop or Laptop,Windows 10,Chrome 138.0.0.0,2560x1440,2560x1440,Temporal Distance Task,cb_10,25.0,temp_dist_trial,num_items,zn7si1,1.0,response,2_ITEM,1547.0999999998166,1542.6000000000058,1547.0999999998166,1547.0999999998166,1542.6000000000058,1547.0999999998166,1.0,0.0,0.0,,Click Response,2_count,5.0,object-49,temp_dist_trial,25.0,t_m_08_1,travel_Miami,flipflops,10.0,unique,paired,t_m_08_1.jpg,Travel,,,sub-35
Desktop or Laptop,Windows 10,Chrome 138.0.0.0,2560x1440,2560x1440,Temporal Distance Task,cb_10,25.0,temp_dist_trial,dist_items,qkpkxw,2.0,info,,2.9999999999126885,0.0,2.9999999999126885,2.9999999999126885,0.0,2.9999999999126885,1.0,0.0,0.0,,Slider,Slider,4.0,object-56,temp_dist_trial,25.0,t_m_08_1,travel_Miami,flipflops,10.0,unique,paired,t_m_08_1.jpg,Travel,,,sub-35
Desktop or Laptop,Windows 10,Chrome 138.0.0.0,2560x1440,2560x1440,Temporal Distance Task,cb_10,25.0,temp_dist_trial,dist_items,qkpkxw,2.0,continue,,1780.3000000001919,1778.900000000009,1780.3000000001919,1780.3000000001919,1778.900000000009,1780.3000000001919,1.0,0.0,0.0,,Click To Continue,Next button,7.0,object-60,temp_dist_trial,25.0,t_m_08_1,travel_Miami,flipflops,10.0,unique,paired,t_m_08_1.jpg,Travel,,,sub-35
Desktop or Laptop,Windows 10,Chrome 138.0.0.0,2560x1440,2560x1440,Temporal Distance Task,cb_10,25.0,temp_dist_trial,dist_items,qkpkxw,2.0,response,40,681.0,1778.900000000009,1780.700000000099,681.0,1778.900000000009,1780.700000000099,1.0,1099.700000000099,0.0,,Slider,Slider,4.0,object-56,temp_dist_trial,25.0,t_m_08_1,travel_Miami,flipflops,10.0,unique,paired,t_m_08_1.jpg,Travel,,,sub-35
Desktop or Laptop,Windows 10,Chrome 138.0.0.0,2560x1440,2560x1440,Temporal Distance Task,cb_10,26.0,temp_dist_trial,num_items,zn7si1,1.0,response,2_ITEM,1884.6999999999966,1883.0999999999915,1884.6999999999966,1884.6999999999966,1883.0999999999915,1884.6999999999966,1.0,0.0,0.0,,Click Response,2_count,5.0,object-49,temp_dist_trial,26.0,t_s_06_1,travel_shared,luggage,10.0,competing,paired,t_s_06_1.jpg,Travel,,,sub-35
Desktop or Laptop,Windows 10,Chrome 138.0.0.0,2560x1440,2560x1440,Temporal Distance Task,cb_10,26.0,temp_dist_trial,dist_items,qkpkxw,2.0,info,,3.5999999998166468,0.0,3.5999999998166468,3.5999999998166468,0.0,3.5999999998166468,1.0,0.0,0.0,,Slider,Slider,4.0,object-56,temp_dist_trial,26.0,t_s_06_1,travel_shared,luggage,10.0,competing,paired,t_s_06_1.jpg,Travel,,,sub-35
Desktop or Laptop,Windows 10,Chrome 138.0.0.0,2560x1440,2560x1440,Temporal Distance Task,cb_10,26.0,temp_dist_trial,dist_items,qkpkxw,2.0,continue,,1616.0000000001892,1612.1000000000058,1616.0000000001892,1616.0000000001892,1612.1000000000058,1616.0000000001892,1.0,0.0,0.0,,Click To Continue,Next button,7.0,object-60,temp_dist_trial,26.0,t_s_06_1,travel_shared,luggage,10.0,competing,paired,t_s_06_1.jpg,Travel,,,sub-35
Desktop or Laptop,Windows 10,Chrome 138.0.0.0,2560x1440,2560x1440,Temporal Distance Task,cb_10,26.0,temp_dist_trial,dist_items,qkpkxw,2.0,response,77,569.8000000000029,1612.1000000000058,1618.5000000001892,569.8000000000029,1612.1000000000058,1618.5000000001892,1.0,1048.7000000001863,0.0,,Slider,Slider,4.0,object-56,temp_dist_trial,26.0,t_s_06_1,travel_shared,luggage,10.0,competing,paired,t_s_06_1.jpg,Travel,,,sub-35
Desktop or Laptop,Windows 10,Chrome 138.0.0.0,2560x1440,2560x1440,Temporal Distance Task,cb_10,27.0,temp_dist_trial,num_items,zn7si1,1.0,response,1_ITEM,2962.8000000000898,2960.199999999997,2962.8000000000898,2962.8000000000898,2960.199999999997,2962.8000000000898,1.0,0.0,0.0,,Click Response,1_count,3.0,object-46,temp_dist_trial,27.0,t_s_20_1,travel_shared,travel pill case,10.0,competing,paired,t_s_20_1.jpg,Travel,,,sub-35
Desktop or Laptop,Windows 10,Chrome 138.0.0.0,2560x1440,2560x1440,Temporal Distance Task,cb_10,28.0,temp_dist_trial,num_items,zn7si1,1.0,response,2_ITEM,1623.6999999999098,1619.1000000000058,1623.6999999999098,1623.6999999999098,1619.1000000000058,1623.6999999999098,1.0,0.0,0.0,,Click Response,2_count,5.0,object-49,temp_dist_trial,28.0,t_i_08_1,travel_Iceland,thick socks,10.0,unique,paired,t_i_08_1.jpg,Travel,,,sub-35
Desktop or Laptop,Windows 10,Chrome 138.0.0.0,2560x1440,2560x1440,Temporal Distance Task,cb_10,28.0,temp_dist_trial,dist_items,qkpkxw,2.0,info,,2.8000000001920853,0.0,2.8000000001920853,2.8000000001920853,0.0,2.8000000001920853,1.0,0.0,0.0,,Slider,Slider,4.0,object-56,temp_dist_trial,28.0,t_i_08_1,travel_Iceland,thick socks,10.0,unique,paired,t_i_08_1.jpg,Travel,,,sub-35
Desktop or Laptop,Windows 10,Chrome 138.0.0.0,2560x1440,2560x1440,Temporal Distance Task,cb_10,28.0,temp_dist_trial,dist_items,qkpkxw,2.0,continue,,1405.3999999998196,1403.7000000000116,1405.3999999998196,1405.3999999998196,1403.7000000000116,1405.3999999998196,1.0,0.0,0.0,,Click To Continue,Next button,7.0,object-60,temp_dist_trial,28.0,t_i_08_1,travel_Iceland,thick socks,10.0,unique,paired,t_i_08_1.jpg,Travel,,,sub-35
Desktop or Laptop,Windows 10,Chrome 138.0.0.0,2560x1440,2560x1440,Temporal Distance Task,cb_10,28.0,temp_dist_trial,dist_items,qkpkxw,2.0,response,87,472.5,1403.7000000000116,1405.700000000099,472.5,1403.7000000000116,1405.700000000099,1.0,933.2000000000992,0.0,,Slider,Slider,4.0,object-56,temp_dist_trial,28.0,t_i_08_1,travel_Iceland,thick socks,10.0,unique,paired,t_i_08_1.jpg,Travel,,,sub-35
Desktop or Laptop,Windows 10,Chrome 138.0.0.0,2560x1440,2560x1440,Temporal Distance Task,cb_10,29.0,temp_dist_trial,num_items,zn7si1,1.0,response,2_ITEM,1528.6999999998081,1521.7999999999884,1528.6999999998081,1528.6999999998081,1521.7999999999884,1528.6999999998081,1.0,0.0,0.0,,Click Response,2_count,5.0,object-49,temp_dist_trial,29.0,t_s_11_1,travel_shared,eye mask,10.0,competing,paired,t_s_11_1.jpg,Travel,,,sub-35
Desktop or Laptop,Windows 10,Chrome 138.0.0.0,2560x1440,2560x1440,Temporal Distance Task,cb_10,29.0,temp_dist_trial,dist_items,qkpkxw,2.0,info,,2.8999999999941792,0.0,2.8999999999941792,2.8999999999941792,0.0,2.8999999999941792,1.0,0.0,0.0,,Slider,Slider,4.0,object-56,temp_dist_trial,29.0,t_s_11_1,travel_shared,eye mask,10.0,competing,paired,t_s_11_1.jpg,Travel,,,sub-35
Desktop or Laptop,Windows 10,Chrome 138.0.0.0,2560x1440,2560x1440,Temporal Distance Task,cb_10,29.0,temp_dist_trial,dist_items,qkpkxw,2.0,continue,,1914.6999999998081,1910.8999999999944,1914.6999999998081,1914.6999999998081,1910.8999999999944,1914.6999999998081,1.0,0.0,0.0,,Click To Continue,Next button,7.0,object-60,temp_dist_trial,29.0,t_s_11_1,travel_shared,eye mask,10.0,competing,paired,t_s_11_1.jpg,Travel,,,sub-35
Desktop or Laptop,Windows 10,Chrome 138.0.0.0,2560x1440,2560x1440,Temporal Distance Task,cb_10,29.0,temp_dist_trial,dist_items,qkpkxw,2.0,response,69,507.19999999998254,1910.8999999999944,1916.5000000000875,507.19999999998254,1910.8999999999944,1916.5000000000875,1.0,1409.3000000001048,0.0,,Slider,Slider,4.0,object-56,temp_dist_trial,29.0,t_s_11_1,travel_shared,eye mask,10.0,competing,paired,t_s_11_1.jpg,Travel,,,sub-35
Desktop or Laptop,Windows 10,Chrome 138.0.0.0,2560x1440,2560x1440,Temporal Distance Task,cb_10,30.0,temp_dist_trial,num_items,zn7si1,1.0,response,1_ITEM,1382.7000000001865,1375.8999999999942,1382.7000000001865,1382.7000000001865,1375.8999999999942,1382.7000000001865,1.0,0.0,0.0,,Click Response,1_count,3.0,object-46,temp_dist_trial,30.0,t_s_14_1,travel_shared,hand sanitizer,10.0,competing,paired,t_s_14_1.jpg,Travel,,,sub-35
Desktop or Laptop,Windows 10,Chrome 138.0.0.0,2560x1440,2560x1440,Temporal Distance Task,cb_10,31.0,temp_dist_trial,num_items,zn7si1,1.0,response,1_ITEM,1268.7000000001865,1264.7000000000114,1268.7000000001865,1268.7000000001865,1264.7000000000114,1268.7000000001865,1.0,0.0,0.0,,Click Response,1_count,3.0,object-46,temp_dist_trial,31.0,t_s_22_1,travel_shared,belt,10.0,competing,paired,t_s_22_1.jpg,Travel,,,sub-35
Desktop or Laptop,Windows 10,Chrome 138.0.0.0,2560x1440,2560x1440,Temporal Distance Task,cb_10,32.0,temp_dist_trial,num_items,zn7si1,1.0,response,1_ITEM,1652.700000000099,1646.8000000000175,1652.700000000099,1652.700000000099,1646.8000000000175,1652.700000000099,1.0,0.0,0.0,,Click Response,1_count,3.0,object-46,temp_dist_trial,32.0,t_i_20_1,travel_Iceland,lantern,10.0,unique,paired,t_i_20_1.jpg,Travel,,,sub-35
Desktop or Laptop,Windows 10,Chrome 138.0.0.0,2560x1440,2560x1440,Temporal Distance Task,cb_10,33.0,temp_dist_trial,num_items,zn7si1,1.0,response,1_ITEM,1611.700000000099,1605.2000000000116,1611.700000000099,1611.700000000099,1605.2000000000116,1611.700000000099,1.0,0.0,0.0,,Click Response,1_count,3.0,object-46,temp_dist_trial,33.0,t_s_10_1,travel_shared,luggage lock,10.0,competing,single,t_s_10_1.jpg,Travel,,,sub-35
Desktop or Laptop,Windows 10,Chrome 138.0.0.0,2560x1440,2560x1440,Temporal Distance Task,cb_10,34.0,temp_dist_trial,num_items,zn7si1,1.0,response,1_ITEM,1029.5000000001746,1028.3999999999942,1029.5000000001746,1029.5000000001746,1028.3999999999942,1029.5000000001746,1.0,0.0,0.0,,Click Response,1_count,3.0,object-46,temp_dist_trial,34.0,t_s_13_1,travel_shared,contact lens case,10.0,competing,single,t_s_13_1.jpg,Travel,,,sub-35
Desktop or Laptop,Windows 10,Chrome 138.0.0.0,2560x1440,2560x1440,Temporal Distance Task,cb_10,35.0,temp_dist_trial,num_items,zn7si1,1.0,response,2_ITEM,909.8000000001047,903.3000000000177,909.8000000001047,909.8000000001047,903.3000000000177,909.8000000001047,1.0,0.0,0.0,,Click Response,2_count,5.0,object-49,temp_dist_trial,35.0,t_s_08_1,travel_shared,hand lotion,10.0,competing,paired,t_s_08_1.jpg,Travel,,,sub-35
Desktop or Laptop,Windows 10,Chrome 138.0.0.0,2560x1440,2560x1440,Temporal Distance Task,cb_10,35.0,temp_dist_trial,dist_items,qkpkxw,2.0,info,,3.200000000098953,0.0,3.200000000098953,3.200000000098953,0.0,3.200000000098953,1.0,0.0,0.0,,Slider,Slider,4.0,object-56,temp_dist_trial,35.0,t_s_08_1,travel_shared,hand lotion,10.0,competing,paired,t_s_08_1.jpg,Travel,,,sub-35
Desktop or Laptop,Windows 10,Chrome 138.0.0.0,2560x1440,2560x1440,Temporal Distance Task,cb_10,35.0,temp_dist_trial,dist_items,qkpkxw,2.0,continue,,1597.1000000000058,1591.3000000000175,1597.1000000000058,1597.1000000000058,1591.3000000000175,1597.1000000000058,1.0,0.0,0.0,,Click To Continue,Next button,7.0,object-60,temp_dist_trial,35.0,t_s_08_1,travel_shared,hand lotion,10.0,competing,paired,t_s_08_1.jpg,Travel,,,sub-35
Desktop or Laptop,Windows 10,Chrome 138.0.0.0,2560x1440,2560x1440,Temporal Distance Task,cb_10,35.0,temp_dist_trial,dist_items,qkpkxw,2.0,response,72,708.7000000000116,1591.3000000000175,1598.4000000000233,708.7000000000116,1591.3000000000175,1598.4000000000233,1.0,889.7000000000116,0.0,,Slider,Slider,4.0,object-56,temp_dist_trial,35.0,t_s_08_1,travel_shared,hand lotion,10.0,competing,paired,t_s_08_1.jpg,Travel,,,sub-35
Desktop or Laptop,Windows 10,Chrome 138.0.0.0,2560x1440,2560x1440,Temporal Distance Task,cb_10,36.0,temp_dist_trial,num_items,zn7si1,1.0,response,1_ITEM,1430.9000000000815,1424.5,1430.9000000000815,1430.9000000000815,1424.5,1430.9000000000815,1.0,0.0,0.0,,Click Response,1_count,3.0,object-46,temp_dist_trial,36.0,t_s_07_1,travel_shared,phone charger cable,10.0,competing,paired,t_s_07_1.jpg,Travel,,,sub-35
Desktop or Laptop,Windows 10,Chrome 138.0.0.0,2560x1440,2560x1440,Temporal Distance Task,cb_10,37.0,temp_dist_trial,num_items,zn7si1,1.0,response,1_ITEM,1296.0999999999185,1292.5,1296.0999999999185,1296.0999999999185,1292.5,1296.0999999999185,1.0,0.0,0.0,,Click Response,1_count,3.0,object-46,temp_dist_trial,37.0,t_m_06_1,travel_Miami,handheld fan,10.0,unique,paired,t_m_06_1.jpg,Travel,,,sub-35
Desktop or Laptop,Windows 10,Chrome 138.0.0.0,2560x1440,2560x1440,Temporal Distance Task,cb_10,38.0,temp_dist_trial,num_items,zn7si1,1.0,response,2_ITEM,1730.1000000000354,1723.2000000000116,1730.1000000000354,1730.1000000000354,1723.2000000000116,1730.1000000000354,1.0,0.0,0.0,,Click Response,2_count,5.0,object-49,temp_dist_trial,38.0,t_s_18_1,travel_shared,first aid kit,10.0,competing,paired,t_s_18_1.jpg,Travel,,,sub-35
Desktop or Laptop,Windows 10,Chrome 138.0.0.0,2560x1440,2560x1440,Temporal Distance Task,cb_10,38.0,temp_dist_trial,dist_items,qkpkxw,2.0,info,,3.3000000001920853,0.0,3.3000000001920853,3.3000000001920853,0.0,3.3000000001920853,1.0,0.0,0.0,,Slider,Slider,4.0,object-56,temp_dist_trial,38.0,t_s_18_1,travel_shared,first aid kit,10.0,competing,paired,t_s_18_1.jpg,Travel,,,sub-35
Desktop or Laptop,Windows 10,Chrome 138.0.0.0,2560x1440,2560x1440,Temporal Distance Task,cb_10,38.0,temp_dist_trial,dist_items,qkpkxw,2.0,continue,,1549.200000000099,1542.6000000000058,1549.200000000099,1549.200000000099,1542.6000000000058,1549.200000000099,1.0,0.0,0.0,,Click To Continue,Next button,7.0,object-60,temp_dist_trial,38.0,t_s_18_1,travel_shared,first aid kit,10.0,competing,paired,t_s_18_1.jpg,Travel,,,sub-35
Desktop or Laptop,Windows 10,Chrome 138.0.0.0,2560x1440,2560x1440,Temporal Distance Task,cb_10,38.0,temp_dist_trial,dist_items,qkpkxw,2.0,response,66,597.7000000000116,1542.6000000000058,1549.4999999999127,597.7000000000116,1542.6000000000058,1549.4999999999127,1.0,951.7999999999008,0.0,,Slider,Slider,4.0,object-56,temp_dist_trial,38.0,t_s_18_1,travel_shared,first aid kit,10.0,competing,paired,t_s_18_1.jpg,Travel,,,sub-35
Desktop or Laptop,Windows 10,Chrome 138.0.0.0,2560x1440,2560x1440,Temporal Distance Task,cb_10,39.0,temp_dist_trial,num_items,zn7si1,1.0,response,2_ITEM,1394.3999999999066,1389.7999999999884,1394.3999999999066,1394.3999999999066,1389.7999999999884,1394.3999999999066,1.0,0.0,0.0,,Click Response,2_count,5.0,object-49,temp_dist_trial,39.0,t_s_09_1,travel_shared,wallet,10.0,competing,paired,t_s_09_1.jpg,Travel,,,sub-35
Desktop or Laptop,Windows 10,Chrome 138.0.0.0,2560x1440,2560x1440,Temporal Distance Task,cb_10,39.0,temp_dist_trial,dist_items,qkpkxw,2.0,info,,3.1000000000931323,0.0,3.1000000000931323,3.1000000000931323,0.0,3.1000000000931323,1.0,0.0,0.0,,Slider,Slider,4.0,object-56,temp_dist_trial,39.0,t_s_09_1,travel_shared,wallet,10.0,competing,paired,t_s_09_1.jpg,Travel,,,sub-35
Desktop or Laptop,Windows 10,Chrome 138.0.0.0,2560x1440,2560x1440,Temporal Distance Task,cb_10,39.0,temp_dist_trial,dist_items,qkpkxw,2.0,continue,,1385.6000000000934,1382.7999999999884,1385.6000000000934,1385.6000000000934,1382.7999999999884,1385.6000000000934,1.0,0.0,0.0,,Click To Continue,Next button,7.0,object-60,temp_dist_trial,39.0,t_s_09_1,travel_shared,wallet,10.0,competing,paired,t_s_09_1.jpg,Travel,,,sub-35
Desktop or Laptop,Windows 10,Chrome 138.0.0.0,2560x1440,2560x1440,Temporal Distance Task,cb_10,39.0,temp_dist_trial,dist_items,qkpkxw,2.0,response,86,528.1000000000058,1382.7999999999884,1386.0,528.1000000000058,1382.7999999999884,1386.0,1.0,857.8999999999942,0.0,,Slider,Slider,4.0,object-56,temp_dist_trial,39.0,t_s_09_1,travel_shared,wallet,10.0,competing,paired,t_s_09_1.jpg,Travel,,,sub-35
Desktop or Laptop,Windows 10,Chrome 138.0.0.0,2560x1440,2560x1440,Temporal Distance Task,cb_10,40.0,temp_dist_trial,num_items,zn7si1,1.0,response,1_ITEM,1441.7000000000116,1438.5,1441.7000000000116,1441.7000000000116,1438.5,1441.7000000000116,1.0,0.0,0.0,,Click Response,1_count,3.0,object-46,temp_dist_trial,40.0,t_s_03_1,travel_shared,portable charger,10.0,competing,paired,t_s_03_1.jpg,Travel,,,sub-35
Desktop or Laptop,Windows 10,Chrome 138.0.0.0,2560x1440,2560x1440,Temporal Distance Task,cb_10,41.0,temp_dist_trial,num_items,zn7si1,1.0,response,1_ITEM,1087.9999999999127,1084.0,1087.9999999999127,1087.9999999999127,1084.0,1087.9999999999127,1.0,0.0,0.0,,Click Response,1_count,3.0,object-46,temp_dist_trial,41.0,t_s_23_1,travel_shared,ball cap,10.0,competing,single,t_s_23_1.jpg,Travel,,,sub-35
Desktop or Laptop,Windows 10,Chrome 138.0.0.0,2560x1440,2560x1440,Temporal Distance Task,cb_10,42.0,temp_dist_trial,num_items,zn7si1,1.0,response,1_ITEM,1814.6999999998081,1813.6999999999825,1814.6999999998081,1814.6999999998081,1813.6999999999825,1814.6999999998081,1.0,0.0,0.0,,Click Response,1_count,3.0,object-46,temp_dist_trial,42.0,t_m_03_1,travel_Miami,wetsuit,10.0,unique,paired,t_m_03_1.jpg,Travel,,,sub-35
Desktop or Laptop,Windows 10,Chrome 138.0.0.0,2560x1440,2560x1440,Temporal Distance Task,cb_10,43.0,temp_dist_trial,num_items,zn7si1,1.0,response,1_ITEM,1190.8999999998196,1188.3000000000175,1190.8999999998196,1190.8999999998196,1188.3000000000175,1190.8999999998196,1.0,0.0,0.0,,Click Response,1_count,3.0,object-46,temp_dist_trial,43.0,t_s_15_1,travel_shared,luggage tag,10.0,competing,single,t_s_15_1.jpg,Travel,,,sub-35
Desktop or Laptop,Windows 10,Chrome 138.0.0.0,2560x1440,2560x1440,Temporal Distance Task,cb_10,44.0,temp_dist_trial,num_items,zn7si1,1.0,response,1_ITEM,1522.7000000000116,1521.8000000000175,1522.7000000000116,1522.7000000000116,1521.8000000000175,1522.7000000000116,1.0,0.0,0.0,,Click Response,1_count,3.0,object-46,temp_dist_trial,44.0,t_m_09_1,travel_Miami,beach towel,10.0,unique,single,t_m_09_1.jpg,Travel,,,sub-35
Desktop or Laptop,Windows 10,Chrome 138.0.0.0,2560x1440,2560x1440,Temporal Distance Task,cb_10,45.0,temp_dist_trial,num_items,zn7si1,1.0,response,1_ITEM,1469.4000000001981,1466.2000000000116,1469.4000000001981,1469.4000000001981,1466.2000000000116,1469.4000000001981,1.0,0.0,0.0,,Click Response,1_count,3.0,object-46,temp_dist_trial,45.0,t_i_11_1,travel_Iceland,headlamp,10.0,unique,single,t_i_11_1.jpg,Travel,,,sub-35
Desktop or Laptop,Windows 10,Chrome 138.0.0.0,2560x1440,2560x1440,Temporal Distance Task,cb_10,46.0,temp_dist_trial,num_items,zn7si1,1.0,response,1_ITEM,1451.3999999999942,1445.3999999999942,1451.3999999999942,1451.3999999999942,1445.3999999999942,1451.3999999999942,1.0,0.0,0.0,,Click Response,1_count,3.0,object-46,temp_dist_trial,46.0,t_m_16_1,travel_Miami,flippers,10.0,unique,paired,t_m_16_1.jpg,Travel,,,sub-35
Desktop or Laptop,Windows 10,Chrome 138.0.0.0,2560x1440,2560x1440,Temporal Distance Task,cb_10,47.0,temp_dist_trial,num_items,zn7si1,1.0,response,1_ITEM,2575.599999999802,2571.099999999977,2575.599999999802,2575.599999999802,2571.099999999977,2575.599999999802,1.0,0.0,0.0,,Click Response,1_count,3.0,object-46,temp_dist_trial,47.0,t_i_01_1,travel_Iceland,gloves,10.0,unique,single,t_i_01_1.jpg,Travel,,,sub-35
Desktop or Laptop,Windows 10,Chrome 138.0.0.0,2560x1440,2560x1440,Temporal Distance Task,cb_10,48.0,temp_dist_trial,num_items,zn7si1,1.0,response,1_ITEM,1093.2000000001863,1090.8999999999942,1093.2000000001863,1093.2000000001863,1090.8999999999942,1093.2000000001863,1.0,0.0,0.0,,Click Response,1_count,3.0,object-46,temp_dist_trial,48.0,t_m_07_1,travel_Miami,sunglasses,10.0,unique,paired,t_m_07_1.jpg,Travel,,,sub-35
Desktop or Laptop,Windows 10,Chrome 138.0.0.0,2560x1440,2560x1440,Temporal Distance Task,cb_10,2.0,temp_eventStart,Screen 1,dgtyxe,1.0,continue,,4423.299999999814,4419.5,4423.299999999814,4423.299999999814,4419.5,4423.299999999814,1.0,0.0,0.0,,Click To Continue,Next Button,3.0,object-43,temp_eventStart,,,Student,,,,,,,,,sub-35
Desktop or Laptop,Windows 10,Chrome 138.0.0.0,2560x1440,2560x1440,Temporal Distance Task,cb_10,49.0,temp_dist_trial,num_items,zn7si1,1.0,response,2_ITEM,1113.6000000000931,1111.7999999999884,1113.6000000000931,1113.6000000000931,1111.7999999999884,1113.6000000000931,1.0,0.0,0.0,,Click Response,2_count,5.0,object-49,temp_dist_trial,1.0,s_sh_14_1,student_shared,printer,10.0,competing,paired,s_sh_14_1.jpg,Student,,,sub-35
Desktop or Laptop,Windows 10,Chrome 138.0.0.0,2560x1440,2560x1440,Temporal Distance Task,cb_10,49.0,temp_dist_trial,dist_items,qkpkxw,2.0,info,,3.1000000000931323,0.0,3.1000000000931323,3.1000000000931323,0.0,3.1000000000931323,1.0,0.0,0.0,,Slider,Slider,4.0,object-56,temp_dist_trial,1.0,s_sh_14_1,student_shared,printer,10.0,competing,paired,s_sh_14_1.jpg,Student,,,sub-35
Desktop or Laptop,Windows 10,Chrome 138.0.0.0,2560x1440,2560x1440,Temporal Distance Task,cb_10,49.0,temp_dist_trial,dist_items,qkpkxw,2.0,continue,,3616.7999999998133,3613.3999999999933,3616.7999999998133,3616.7999999998133,3613.3999999999933,3616.7999999998133,1.0,0.0,0.0,,Click To Continue,Next button,7.0,object-60,temp_dist_trial,1.0,s_sh_14_1,student_shared,printer,10.0,competing,paired,s_sh_14_1.jpg,Student,,,sub-35
Desktop or Laptop,Windows 10,Chrome 138.0.0.0,2560x1440,2560x1440,Temporal Distance Task,cb_10,49.0,temp_dist_trial,dist_items,qkpkxw,2.0,response,72,771.2999999999884,3613.3999999999933,3617.0,771.2999999999884,3613.3999999999933,3617.0,1.0,2845.700000000012,0.0,,Slider,Slider,4.0,object-56,temp_dist_trial,1.0,s_sh_14_1,student_shared,printer,10.0,competing,paired,s_sh_14_1.jpg,Student,,,sub-35
Desktop or Laptop,Windows 10,Chrome 138.0.0.0,2560x1440,2560x1440,Temporal Distance Task,cb_10,50.0,temp_dist_trial,num_items,zn7si1,1.0,response,2_ITEM,1381.3000000001919,1375.8999999999942,1381.3000000001919,1381.3000000001919,1375.8999999999942,1381.3000000001919,1.0,0.0,0.0,,Click Response,2_count,5.0,object-49,temp_dist_trial,2.0,s_sh_13_1,student_shared,index cards,10.0,competing,paired,s_sh_13_1.jpg,Student,,,sub-35
Desktop or Laptop,Windows 10,Chrome 138.0.0.0,2560x1440,2560x1440,Temporal Distance Task,cb_10,50.0,temp_dist_trial,dist_items,qkpkxw,2.0,info,,3.6000000000058208,0.0,3.6000000000058208,3.6000000000058208,0.0,3.6000000000058208,1.0,0.0,0.0,,Slider,Slider,4.0,object-56,temp_dist_trial,2.0,s_sh_13_1,student_shared,index cards,10.0,competing,paired,s_sh_13_1.jpg,Student,,,sub-35
Desktop or Laptop,Windows 10,Chrome 138.0.0.0,2560x1440,2560x1440,Temporal Distance Task,cb_10,50.0,temp_dist_trial,dist_items,qkpkxw,2.0,continue,,1701.3999999998196,1695.5,1701.3999999998196,1701.3999999998196,1695.5,1701.3999999998196,1.0,0.0,0.0,,Click To Continue,Next button,7.0,object-60,temp_dist_trial,2.0,s_sh_13_1,student_shared,index cards,10.0,competing,paired,s_sh_13_1.jpg,Student,,,sub-35
Desktop or Laptop,Windows 10,Chrome 138.0.0.0,2560x1440,2560x1440,Temporal Distance Task,cb_10,50.0,temp_dist_trial,dist_items,qkpkxw,2.0,response,70,792.2000000000116,1695.5,1701.6000000000058,792.2000000000116,1695.5,1701.6000000000058,1.0,909.3999999999942,0.0,,Slider,Slider,4.0,object-56,temp_dist_trial,2.0,s_sh_13_1,student_shared,index cards,10.0,competing,paired,s_sh_13_1.jpg,Student,,,sub-35
Desktop or Laptop,Windows 10,Chrome 138.0.0.0,2560x1440,2560x1440,Temporal Distance Task,cb_10,51.0,temp_dist_trial,num_items,zn7si1,1.0,response,2_ITEM,1651.8000000001919,1647.0,1651.8000000001919,1651.8000000001919,1647.0,1651.8000000001919,1.0,0.0,0.0,,Click Response,2_count,5.0,object-49,temp_dist_trial,3.0,s_sh_01_1,student_shared,notebook,10.0,competing,single,s_sh_01_1.jpg,Student,,,sub-35
Desktop or Laptop,Windows 10,Chrome 138.0.0.0,2560x1440,2560x1440,Temporal Distance Task,cb_10,51.0,temp_dist_trial,dist_items,qkpkxw,2.0,info,,3.2000000001862645,0.0,3.2000000001862645,3.2000000001862645,0.0,3.2000000001862645,1.0,0.0,0.0,,Slider,Slider,4.0,object-56,temp_dist_trial,3.0,s_sh_01_1,student_shared,notebook,10.0,competing,single,s_sh_01_1.jpg,Student,,,sub-35
Desktop or Laptop,Windows 10,Chrome 138.0.0.0,2560x1440,2560x1440,Temporal Distance Task,cb_10,51.0,temp_dist_trial,dist_items,qkpkxw,2.0,continue,,1800.8999999999066,1799.7999999999884,1800.8999999999066,1800.8999999999066,1799.7999999999884,1800.8999999999066,1.0,0.0,0.0,,Click To Continue,Next button,7.0,object-60,temp_dist_trial,3.0,s_sh_01_1,student_shared,notebook,10.0,competing,single,s_sh_01_1.jpg,Student,,,sub-35
Desktop or Laptop,Windows 10,Chrome 138.0.0.0,2560x1440,2560x1440,Temporal Distance Task,cb_10,51.0,temp_dist_trial,dist_items,qkpkxw,2.0,response,71,799.2000000000116,1799.7999999999884,1803.0,799.2000000000116,1799.7999999999884,1803.0,1.0,1003.7999999999884,0.0,,Slider,Slider,4.0,object-56,temp_dist_trial,3.0,s_sh_01_1,student_shared,notebook,10.0,competing,single,s_sh_01_1.jpg,Student,,,sub-35
Desktop or Laptop,Windows 10,Chrome 138.0.0.0,2560x1440,2560x1440,Temporal Distance Task,cb_10,52.0,temp_dist_trial,num_items,zn7si1,1.0,response,2_ITEM,2294.999999999825,2293.1000000000063,2294.999999999825,2294.999999999825,2293.1000000000063,2294.999999999825,1.0,0.0,0.0,,Click Response,2_count,5.0,object-49,temp_dist_trial,4.0,s_s_15_1,student_stem,jumper cables,10.0,unique,paired,s_s_15_1.jpg,Student,,,sub-35
Desktop or Laptop,Windows 10,Chrome 138.0.0.0,2560x1440,2560x1440,Temporal Distance Task,cb_10,52.0,temp_dist_trial,dist_items,qkpkxw,2.0,info,,3.2999999999010465,0.0,3.2999999999010465,3.2999999999010465,0.0,3.2999999999010465,1.0,0.0,0.0,,Slider,Slider,4.0,object-56,temp_dist_trial,4.0,s_s_15_1,student_stem,jumper cables,10.0,unique,paired,s_s_15_1.jpg,Student,,,sub-35
Desktop or Laptop,Windows 10,Chrome 138.0.0.0,2560x1440,2560x1440,Temporal Distance Task,cb_10,52.0,temp_dist_trial,dist_items,qkpkxw,2.0,continue,,2242.6000000001804,2237.3999999999937,2242.6000000001804,2242.6000000001804,2237.3999999999937,2242.6000000001804,1.0,0.0,0.0,,Click To Continue,Next button,7.0,object-60,temp_dist_trial,4.0,s_s_15_1,student_stem,jumper cables,10.0,unique,paired,s_s_15_1.jpg,Student,,,sub-35
Desktop or Laptop,Windows 10,Chrome 138.0.0.0,2560x1440,2560x1440,Temporal Distance Task,cb_10,52.0,temp_dist_trial,dist_items,qkpkxw,2.0,response,48,694.7999999999884,2237.3999999999937,2242.799999999901,694.7999999999884,2237.3999999999937,2242.799999999901,1.0,1547.9999999999127,0.0,,Slider,Slider,4.0,object-56,temp_dist_trial,4.0,s_s_15_1,student_stem,jumper cables,10.0,unique,paired,s_s_15_1.jpg,Student,,,sub-35
Desktop or Laptop,Windows 10,Chrome 138.0.0.0,2560x1440,2560x1440,Temporal Distance Task,cb_10,53.0,temp_dist_trial,num_items,zn7si1,1.0,response,2_ITEM,1644.2000000001865,1640.0,1644.2000000001865,1644.2000000001865,1640.0,1644.2000000001865,1.0,0.0,0.0,,Click Response,2_count,5.0,object-49,temp_dist_trial,5.0,s_s_08_1,student_stem,soldering iron,10.0,unique,paired,s_s_08_1.jpg,Student,,,sub-35
Desktop or Laptop,Windows 10,Chrome 138.0.0.0,2560x1440,2560x1440,Temporal Distance Task,cb_10,53.0,temp_dist_trial,dist_items,qkpkxw,2.0,info,,3.2999999999010465,0.0,3.2999999999010465,3.2999999999010465,0.0,3.2999999999010465,1.0,0.0,0.0,,Slider,Slider,4.0,object-56,temp_dist_trial,5.0,s_s_08_1,student_stem,soldering iron,10.0,unique,paired,s_s_08_1.jpg,Student,,,sub-35
Desktop or Laptop,Windows 10,Chrome 138.0.0.0,2560x1440,2560x1440,Temporal Distance Task,cb_10,53.0,temp_dist_trial,dist_items,qkpkxw,2.0,continue,,2619.6999999999825,2612.7999999999884,2619.6999999999825,2619.6999999999825,2612.7999999999884,2619.6999999999825,1.0,0.0,0.0,,Click To Continue,Next button,7.0,object-60,temp_dist_trial,5.0,s_s_08_1,student_stem,soldering iron,10.0,unique,paired,s_s_08_1.jpg,Student,,,sub-35
Desktop or Laptop,Windows 10,Chrome 138.0.0.0,2560x1440,2560x1440,Temporal Distance Task,cb_10,53.0,temp_dist_trial,dist_items,qkpkxw,2.0,response,35,590.7999999999884,2612.7999999999884,2619.6999999999825,590.7999999999884,2612.7999999999884,2619.6999999999825,1.0,2028.8999999999944,0.0,,Slider,Slider,4.0,object-56,temp_dist_trial,5.0,s_s_08_1,student_stem,soldering iron,10.0,unique,paired,s_s_08_1.jpg,Student,,,sub-35
Desktop or Laptop,Windows 10,Chrome 138.0.0.0,2560x1440,2560x1440,Temporal Distance Task,cb_10,54.0,temp_dist_trial,num_items,zn7si1,1.0,response,1_ITEM,1178.1000000000058,1174.3999999999942,1178.1000000000058,1178.1000000000058,1174.3999999999942,1178.1000000000058,1.0,0.0,0.0,,Click Response,1_count,3.0,object-46,temp_dist_trial,6.0,s_s_09_1,student_stem,multimeter,10.0,unique,paired,s_s_09_1.jpg,Student,,,sub-35
Desktop or Laptop,Windows 10,Chrome 138.0.0.0,2560x1440,2560x1440,Temporal Distance Task,cb_10,55.0,temp_dist_trial,num_items,zn7si1,1.0,response,1_ITEM,1735.8000000001919,1730.3000000000175,1735.8000000001919,1735.8000000001919,1730.3000000000175,1735.8000000001919,1.0,0.0,0.0,,Click Response,1_count,3.0,object-46,temp_dist_trial,7.0,s_sh_04_1,student_shared,laptop stand,10.0,competing,single,s_sh_04_1.jpg,Student,,,sub-35
Desktop or Laptop,Windows 10,Chrome 138.0.0.0,2560x1440,2560x1440,Temporal Distance Task,cb_10,56.0,temp_dist_trial,num_items,zn7si1,1.0,response,2_ITEM,999.300000000192,993.7000000000116,999.300000000192,999.300000000192,993.7000000000116,999.300000000192,1.0,0.0,0.0,,Click Response,2_count,5.0,object-49,temp_dist_trial,8.0,s_sh_06_1,student_shared,clipboard,10.0,competing,paired,s_sh_06_1.jpg,Student,,,sub-35
Desktop or Laptop,Windows 10,Chrome 138.0.0.0,2560x1440,2560x1440,Temporal Distance Task,cb_10,56.0,temp_dist_trial,dist_items,qkpkxw,2.0,info,,3.2999999999883585,0.0,3.2999999999883585,3.2999999999883585,0.0,3.2999999999883585,1.0,0.0,0.0,,Slider,Slider,4.0,object-56,temp_dist_trial,8.0,s_sh_06_1,student_shared,clipboard,10.0,competing,paired,s_sh_06_1.jpg,Student,,,sub-35
Desktop or Laptop,Windows 10,Chrome 138.0.0.0,2560x1440,2560x1440,Temporal Distance Task,cb_10,56.0,temp_dist_trial,dist_items,qkpkxw,2.0,continue,,1666.2999999999884,1660.7999999999884,1666.2999999999884,1666.2999999999884,1660.7999999999884,1666.2999999999884,1.0,0.0,0.0,,Click To Continue,Next button,7.0,object-60,temp_dist_trial,8.0,s_sh_06_1,student_shared,clipboard,10.0,competing,paired,s_sh_06_1.jpg,Student,,,sub-35
Desktop or Laptop,Windows 10,Chrome 138.0.0.0,2560x1440,2560x1440,Temporal Distance Task,cb_10,56.0,temp_dist_trial,dist_items,qkpkxw,2.0,response,60,701.7999999999884,1660.7999999999884,1666.5999999998019,701.7999999999884,1660.7999999999884,1666.5999999998019,1.0,964.7999999998137,0.0,,Slider,Slider,4.0,object-56,temp_dist_trial,8.0,s_sh_06_1,student_shared,clipboard,10.0,competing,paired,s_sh_06_1.jpg,Student,,,sub-35
Desktop or Laptop,Windows 10,Chrome 138.0.0.0,2560x1440,2560x1440,Temporal Distance Task,cb_10,57.0,temp_dist_trial,num_items,zn7si1,1.0,response,1_ITEM,1378.5,1375.8999999999942,1378.5,1378.5,1375.8999999999942,1378.5,1.0,0.0,0.0,,Click Response,1_count,3.0,object-46,temp_dist_trial,9.0,s_sh_07_1,student_shared,ruler,10.0,competing,paired,s_sh_07_1.jpg,Student,,,sub-35
Desktop or Laptop,Windows 10,Chrome 138.0.0.0,2560x1440,2560x1440,Temporal Distance Task,cb_10,58.0,temp_dist_trial,num_items,zn7si1,1.0,response,2_ITEM,1259.6000000001804,1257.6999999999825,1259.6000000001804,1259.6000000001804,1257.6999999999825,1259.6000000001804,1.0,0.0,0.0,,Click Response,2_count,5.0,object-49,temp_dist_trial,10.0,s_a_12_1,student_art,saxophone,10.0,unique,paired,s_a_12_1.jpg,Student,,,sub-35
Desktop or Laptop,Windows 10,Chrome 138.0.0.0,2560x1440,2560x1440,Temporal Distance Task,cb_10,58.0,temp_dist_trial,dist_items,qkpkxw,2.0,info,,3.200000000098953,0.0,3.200000000098953,3.200000000098953,0.0,3.200000000098953,1.0,0.0,0.0,,Slider,Slider,4.0,object-56,temp_dist_trial,10.0,s_a_12_1,student_art,saxophone,10.0,unique,paired,s_a_12_1.jpg,Student,,,sub-35
Desktop or Laptop,Windows 10,Chrome 138.0.0.0,2560x1440,2560x1440,Temporal Distance Task,cb_10,58.0,temp_dist_trial,dist_items,qkpkxw,2.0,continue,,2008.8000000001919,2008.3000000000175,2008.8000000001919,2008.8000000001919,2008.3000000000175,2008.8000000001919,1.0,0.0,0.0,,Click To Continue,Next button,7.0,object-60,temp_dist_trial,10.0,s_a_12_1,student_art,saxophone,10.0,unique,paired,s_a_12_1.jpg,Student,,,sub-35
Desktop or Laptop,Windows 10,Chrome 138.0.0.0,2560x1440,2560x1440,Temporal Distance Task,cb_10,58.0,temp_dist_trial,dist_items,qkpkxw,2.0,response,30,688.0,2008.3000000000175,2010.6000000000056,688.0,2008.3000000000175,2010.6000000000056,1.0,1322.6000000000058,0.0,,Slider,Slider,4.0,object-56,temp_dist_trial,10.0,s_a_12_1,student_art,saxophone,10.0,unique,paired,s_a_12_1.jpg,Student,,,sub-35
Desktop or Laptop,Windows 10,Chrome 138.0.0.0,2560x1440,2560x1440,Temporal Distance Task,cb_10,59.0,temp_dist_trial,num_items,zn7si1,1.0,response,2_ITEM,1418.4000000000815,1417.5,1418.4000000000815,1418.4000000000815,1417.5,1418.4000000000815,1.0,0.0,0.0,,Click Response,2_count,5.0,object-49,temp_dist_trial,11.0,s_sh_05_1,student_shared,laptop,10.0,competing,paired,s_sh_05_1.jpg,Student,,,sub-35
Desktop or Laptop,Windows 10,Chrome 138.0.0.0,2560x1440,2560x1440,Temporal Distance Task,cb_10,59.0,temp_dist_trial,dist_items,qkpkxw,2.0,info,,3.4999999999126885,0.0,3.4999999999126885,3.4999999999126885,0.0,3.4999999999126885,1.0,0.0,0.0,,Slider,Slider,4.0,object-56,temp_dist_trial,11.0,s_sh_05_1,student_shared,laptop,10.0,competing,paired,s_sh_05_1.jpg,Student,,,sub-35
Desktop or Laptop,Windows 10,Chrome 138.0.0.0,2560x1440,2560x1440,Temporal Distance Task,cb_10,59.0,temp_dist_trial,dist_items,qkpkxw,2.0,continue,,1340.4999999999127,1334.2000000000114,1340.4999999999127,1340.4999999999127,1334.2000000000114,1340.4999999999127,1.0,0.0,0.0,,Click To Continue,Next button,7.0,object-60,temp_dist_trial,11.0,s_sh_05_1,student_shared,laptop,10.0,competing,paired,s_sh_05_1.jpg,Student,,,sub-35
Desktop or Laptop,Windows 10,Chrome 138.0.0.0,2560x1440,2560x1440,Temporal Distance Task,cb_10,59.0,temp_dist_trial,dist_items,qkpkxw,2.0,response,41,576.8000000000175,1334.2000000000114,1340.700000000099,576.8000000000175,1334.2000000000114,1340.700000000099,1.0,763.9000000000815,0.0,,Slider,Slider,4.0,object-56,temp_dist_trial,11.0,s_sh_05_1,student_shared,laptop,10.0,competing,paired,s_sh_05_1.jpg,Student,,,sub-35
Desktop or Laptop,Windows 10,Chrome 138.0.0.0,2560x1440,2560x1440,Temporal Distance Task,cb_10,60.0,temp_dist_trial,num_items,zn7si1,1.0,response,1_ITEM,1298.3999999999942,1292.3999999999942,1298.3999999999942,1298.3999999999942,1292.3999999999942,1298.3999999999942,1.0,0.0,0.0,,Click Response,1_count,3.0,object-46,temp_dist_trial,12.0,s_a_18_1,student_art,tutu,10.0,unique,paired,s_a_18_1.jpg,Student,,,sub-35
Desktop or Laptop,Windows 10,Chrome 138.0.0.0,2560x1440,2560x1440,Temporal Distance Task,cb_10,61.0,temp_dist_trial,num_items,zn7si1,1.0,response,1_ITEM,1167.7999999999886,1167.5,1167.7999999999886,1167.7999999999886,1167.5,1167.7999999999886,1.0,0.0,0.0,,Click Response,1_count,3.0,object-46,temp_dist_trial,13.0,s_s_02_1,student_stem,flask,10.0,unique,paired,s_s_02_1.jpg,Student,,,sub-35
Desktop or Laptop,Windows 10,Chrome 138.0.0.0,2560x1440,2560x1440,Temporal Distance Task,cb_10,62.0,temp_dist_trial,num_items,zn7si1,1.0,response,1_ITEM,908.2000000000116,903.4000000000232,908.2000000000116,908.2000000000116,903.4000000000232,908.2000000000116,1.0,0.0,0.0,,Click Response,1_count,3.0,object-46,temp_dist_trial,14.0,s_sh_17_1,student_shared,wireless mouse,10.0,competing,single,s_sh_17_1.jpg,Student,,,sub-35
Desktop or Laptop,Windows 10,Chrome 138.0.0.0,2560x1440,2560x1440,Temporal Distance Task,cb_10,63.0,temp_dist_trial,num_items,zn7si1,1.0,response,2_ITEM,1421.5999999999185,1417.6000000000058,1421.5999999999185,1421.5999999999185,1417.6000000000058,1421.5999999999185,1.0,0.0,0.0,,Click Response,2_count,5.0,object-49,temp_dist_trial,15.0,s_sh_24_1,student_shared,desk organizer,10.0,competing,paired,s_sh_24_1.jpg,Student,,,sub-35
Desktop or Laptop,Windows 10,Chrome 138.0.0.0,2560x1440,2560x1440,Temporal Distance Task,cb_10,63.0,temp_dist_trial,dist_items,qkpkxw,2.0,info,,2.8999999999941792,0.0,2.8999999999941792,2.8999999999941792,0.0,2.8999999999941792,1.0,0.0,0.0,,Slider,Slider,4.0,object-56,temp_dist_trial,15.0,s_sh_24_1,student_shared,desk organizer,10.0,competing,paired,s_sh_24_1.jpg,Student,,,sub-35
Desktop or Laptop,Windows 10,Chrome 138.0.0.0,2560x1440,2560x1440,Temporal Distance Task,cb_10,63.0,temp_dist_trial,dist_items,qkpkxw,2.0,continue,,2940.799999999901,2939.2999999999884,2940.799999999901,2940.799999999901,2939.2999999999884,2940.799999999901,1.0,0.0,0.0,,Click To Continue,Next button,7.0,object-60,temp_dist_trial,15.0,s_sh_24_1,student_shared,desk organizer,10.0,competing,paired,s_sh_24_1.jpg,Student,,,sub-35
Desktop or Laptop,Windows 10,Chrome 138.0.0.0,2560x1440,2560x1440,Temporal Distance Task,cb_10,63.0,temp_dist_trial,dist_items,qkpkxw,2.0,response,51,771.2999999999884,2939.2999999999884,2943.1000000001804,771.2999999999884,2939.2999999999884,2943.1000000001804,1.0,2171.800000000192,0.0,,Slider,Slider,4.0,object-56,temp_dist_trial,15.0,s_sh_24_1,student_shared,desk organizer,10.0,competing,paired,s_sh_24_1.jpg,Student,,,sub-35
Desktop or Laptop,Windows 10,Chrome 138.0.0.0,2560x1440,2560x1440,Temporal Distance Task,cb_10,64.0,temp_dist_trial,num_items,zn7si1,1.0,response,1_ITEM,1104.4999999999127,1098.0,1104.4999999999127,1104.4999999999127,1098.0,1104.4999999999127,1.0,0.0,0.0,,Click Response,1_count,3.0,object-46,temp_dist_trial,16.0,s_s_19_1,student_stem,circuit board,10.0,unique,paired,s_s_19_1.jpg,Student,,,sub-35
Desktop or Laptop,Windows 10,Chrome 138.0.0.0,2560x1440,2560x1440,Temporal Distance Task,cb_10,65.0,temp_dist_trial,num_items,zn7si1,1.0,response,num_miss,3001.8999999999933,3001.8999999999933,3001.8999999999933,3001.8999999999933,3001.8999999999933,3001.8999999999933,1.0,0.0,0.0,num_miss_tag,Time Limit,screen,0.0,screen,temp_dist_trial,17.0,s_sh_02_1,student_shared,eraser,10.0,competing,paired,s_sh_02_1.jpg,Student,,,sub-35
Desktop or Laptop,Windows 10,Chrome 138.0.0.0,2560x1440,2560x1440,Temporal Distance Task,cb_10,66.0,temp_dist_trial,num_items,zn7si1,1.0,response,2_ITEM,2584.8999999999937,2578.0,2584.8999999999937,2584.8999999999937,2578.0,2584.8999999999937,1.0,0.0,0.0,,Click Response,2_count,5.0,object-49,temp_dist_trial,18.0,s_sh_03_1,student_shared,highlighter,10.0,competing,paired,s_sh_03_1.jpg,Student,,,sub-35
Desktop or Laptop,Windows 10,Chrome 138.0.0.0,2560x1440,2560x1440,Temporal Distance Task,cb_10,66.0,temp_dist_trial,dist_items,qkpkxw,2.0,info,,3.4000000000814907,0.0,3.4000000000814907,3.4000000000814907,0.0,3.4000000000814907,1.0,0.0,0.0,,Slider,Slider,4.0,object-56,temp_dist_trial,18.0,s_sh_03_1,student_shared,highlighter,10.0,competing,paired,s_sh_03_1.jpg,Student,,,sub-35
Desktop or Laptop,Windows 10,Chrome 138.0.0.0,2560x1440,2560x1440,Temporal Distance Task,cb_10,66.0,temp_dist_trial,dist_items,qkpkxw,2.0,continue,,1998.0999999998016,1994.3999999999944,1998.0999999998016,1998.0999999998016,1994.3999999999944,1998.0999999998016,1.0,0.0,0.0,,Click To Continue,Next button,7.0,object-60,temp_dist_trial,18.0,s_sh_03_1,student_shared,highlighter,10.0,competing,paired,s_sh_03_1.jpg,Student,,,sub-35
Desktop or Laptop,Windows 10,Chrome 138.0.0.0,2560x1440,2560x1440,Temporal Distance Task,cb_10,66.0,temp_dist_trial,dist_items,qkpkxw,2.0,response,65,972.8999999999942,1994.3999999999944,1998.2999999999884,972.8999999999942,1994.3999999999944,1998.2999999999884,1.0,1025.3999999999942,0.0,,Slider,Slider,4.0,object-56,temp_dist_trial,18.0,s_sh_03_1,student_shared,highlighter,10.0,competing,paired,s_sh_03_1.jpg,Student,,,sub-35
Desktop or Laptop,Windows 10,Chrome 138.0.0.0,2560x1440,2560x1440,Temporal Distance Task,cb_10,67.0,temp_dist_trial,num_items,zn7si1,1.0,response,1_ITEM,1369.6999999998081,1369.0,1369.6999999998081,1369.6999999998081,1369.0,1369.6999999998081,1.0,0.0,0.0,,Click Response,1_count,3.0,object-46,temp_dist_trial,19.0,s_a_07_1,student_art,yarn,10.0,unique,single,s_a_07_1.jpg,Student,,,sub-35
Desktop or Laptop,Windows 10,Chrome 138.0.0.0,2560x1440,2560x1440,Temporal Distance Task,cb_10,68.0,temp_dist_trial,num_items,zn7si1,1.0,response,2_ITEM,830.7999999999008,827.0,830.7999999999008,830.7999999999008,827.0,830.7999999999008,1.0,0.0,0.0,,Click Response,2_count,5.0,object-49,temp_dist_trial,20.0,s_sh_15_1,student_shared,usb drive,10.0,competing,paired,s_sh_15_1.jpg,Student,,,sub-35
Desktop or Laptop,Windows 10,Chrome 138.0.0.0,2560x1440,2560x1440,Temporal Distance Task,cb_10,68.0,temp_dist_trial,dist_items,qkpkxw,2.0,info,,2.999999999825377,0.0,2.999999999825377,2.999999999825377,0.0,2.999999999825377,1.0,0.0,0.0,,Slider,Slider,4.0,object-56,temp_dist_trial,20.0,s_sh_15_1,student_shared,usb drive,10.0,competing,paired,s_sh_15_1.jpg,Student,,,sub-35
Desktop or Laptop,Windows 10,Chrome 138.0.0.0,2560x1440,2560x1440,Temporal Distance Task,cb_10,68.0,temp_dist_trial,dist_items,qkpkxw,2.0,continue,,1395.4000000001981,1389.7000000000116,1395.4000000001981,1395.4000000001981,1389.7000000000116,1395.4000000001981,1.0,0.0,0.0,,Click To Continue,Next button,7.0,object-60,temp_dist_trial,20.0,s_sh_15_1,student_shared,usb drive,10.0,competing,paired,s_sh_15_1.jpg,Student,,,sub-35
Desktop or Laptop,Windows 10,Chrome 138.0.0.0,2560x1440,2560x1440,Temporal Distance Task,cb_10,68.0,temp_dist_trial,dist_items,qkpkxw,2.0,response,35,562.8000000000175,1389.7000000000116,1395.5999999999185,562.8000000000175,1389.7000000000116,1395.5999999999185,1.0,832.7999999999008,0.0,,Slider,Slider,4.0,object-56,temp_dist_trial,20.0,s_sh_15_1,student_shared,usb drive,10.0,competing,paired,s_sh_15_1.jpg,Student,,,sub-35
Desktop or Laptop,Windows 10,Chrome 138.0.0.0,2560x1440,2560x1440,Temporal Distance Task,cb_10,69.0,temp_dist_trial,num_items,zn7si1,1.0,response,1_ITEM,1010.7999999998137,1007.7000000000116,1010.7999999998137,1010.7999999998137,1007.7000000000116,1010.7999999998137,1.0,0.0,0.0,,Click Response,1_count,3.0,object-46,temp_dist_trial,21.0,s_sh_09_1,student_shared,paper clips,10.0,competing,single,s_sh_09_1.jpg,Student,,,sub-35
Desktop or Laptop,Windows 10,Chrome 138.0.0.0,2560x1440,2560x1440,Temporal Distance Task,cb_10,70.0,temp_dist_trial,num_items,zn7si1,1.0,response,1_ITEM,829.9000000001979,826.9000000000232,829.9000000001979,829.9000000001979,826.9000000000232,829.9000000001979,1.0,0.0,0.0,,Click Response,1_count,3.0,object-46,temp_dist_trial,22.0,s_s_01_1,student_stem,microscope,10.0,unique,paired,s_s_01_1.jpg,Student,,,sub-35
Desktop or Laptop,Windows 10,Chrome 138.0.0.0,2560x1440,2560x1440,Temporal Distance Task,cb_10,71.0,temp_dist_trial,num_items,zn7si1,1.0,response,1_ITEM,792.9999999999127,792.1000000000058,792.9999999999127,792.9999999999127,792.1000000000058,792.9999999999127,1.0,0.0,0.0,,Click Response,1_count,3.0,object-46,temp_dist_trial,23.0,s_s_06_1,student_stem,calculator,10.0,unique,single,s_s_06_1.jpg,Student,,,sub-35
Desktop or Laptop,Windows 10,Chrome 138.0.0.0,2560x1440,2560x1440,Temporal Distance Task,cb_10,72.0,temp_dist_trial,num_items,zn7si1,1.0,response,2_ITEM,1110.5000000001746,1104.8999999999942,1110.5000000001746,1110.5000000001746,1104.8999999999942,1110.5000000001746,1.0,0.0,0.0,,Click Response,2_count,5.0,object-49,temp_dist_trial,24.0,s_a_15_1,student_art,drum kit,10.0,unique,single,s_a_15_1.jpg,Student,,,sub-35
Desktop or Laptop,Windows 10,Chrome 138.0.0.0,2560x1440,2560x1440,Temporal Distance Task,cb_10,72.0,temp_dist_trial,dist_items,qkpkxw,2.0,info,,2.9000000000814907,0.0,2.9000000000814907,2.9000000000814907,0.0,2.9000000000814907,1.0,0.0,0.0,,Slider,Slider,4.0,object-56,temp_dist_trial,24.0,s_a_15_1,student_art,drum kit,10.0,unique,single,s_a_15_1.jpg,Student,,,sub-35
Desktop or Laptop,Windows 10,Chrome 138.0.0.0,2560x1440,2560x1440,Temporal Distance Task,cb_10,72.0,temp_dist_trial,dist_items,qkpkxw,2.0,continue,,2060.5000000001746,2056.8999999999937,2060.5000000001746,2060.5000000001746,2056.8999999999937,2060.5000000001746,1.0,0.0,0.0,,Click To Continue,Next button,7.0,object-60,temp_dist_trial,24.0,s_a_15_1,student_art,drum kit,10.0,unique,single,s_a_15_1.jpg,Student,,,sub-35
Desktop or Laptop,Windows 10,Chrome 138.0.0.0,2560x1440,2560x1440,Temporal Distance Task,cb_10,72.0,temp_dist_trial,dist_items,qkpkxw,2.0,response,41,583.6999999999825,2056.8999999999937,2060.900000000081,583.6999999999825,2056.8999999999937,2060.900000000081,1.0,1477.200000000099,0.0,,Slider,Slider,4.0,object-56,temp_dist_trial,24.0,s_a_15_1,student_art,drum kit,10.0,unique,single,s_a_15_1.jpg,Student,,,sub-35
Desktop or Laptop,Windows 10,Chrome 138.0.0.0,2560x1440,2560x1440,Temporal Distance Task,cb_10,73.0,temp_dist_trial,num_items,zn7si1,1.0,response,1_ITEM,1394.8999999999942,1389.6999999999825,1394.8999999999942,1394.8999999999942,1389.6999999999825,1394.8999999999942,1.0,0.0,0.0,,Click Response,1_count,3.0,object-46,temp_dist_trial,25.0,s_a_01_1,student_art,paintbrush,10.0,unique,single,s_a_01_1.jpg,Student,,,sub-35
Desktop or Laptop,Windows 10,Chrome 138.0.0.0,2560x1440,2560x1440,Temporal Distance Task,cb_10,74.0,temp_dist_trial,num_items,zn7si1,1.0,response,2_ITEM,1182.8999999999069,1181.2999999999886,1182.8999999999069,1182.8999999999069,1181.2999999999886,1182.8999999999069,1.0,0.0,0.0,,Click Response,2_count,5.0,object-49,temp_dist_trial,26.0,s_a_17_1,student_art,microphone,10.0,unique,paired,s_a_17_1.jpg,Student,,,sub-35
Desktop or Laptop,Windows 10,Chrome 138.0.0.0,2560x1440,2560x1440,Temporal Distance Task,cb_10,74.0,temp_dist_trial,dist_items,qkpkxw,2.0,info,,2.899999999906868,0.0,2.899999999906868,2.899999999906868,0.0,2.899999999906868,1.0,0.0,0.0,,Slider,Slider,4.0,object-56,temp_dist_trial,26.0,s_a_17_1,student_art,microphone,10.0,unique,paired,s_a_17_1.jpg,Student,,,sub-35
Desktop or Laptop,Windows 10,Chrome 138.0.0.0,2560x1440,2560x1440,Temporal Distance Task,cb_10,74.0,temp_dist_trial,dist_items,qkpkxw,2.0,continue,,1431.2000000001865,1424.5,1431.2000000001865,1431.2000000001865,1424.5,1431.2000000001865,1.0,0.0,0.0,,Click To Continue,Next button,7.0,object-60,temp_dist_trial,26.0,s_a_17_1,student_art,microphone,10.0,unique,paired,s_a_17_1.jpg,Student,,,sub-35
Desktop or Laptop,Windows 10,Chrome 138.0.0.0,2560x1440,2560x1440,Temporal Distance Task,cb_10,74.0,temp_dist_trial,dist_items,qkpkxw,2.0,response,42,618.3999999999943,1424.5,1431.2999999998135,618.3999999999943,1424.5,1431.2999999998135,1.0,812.8999999998198,0.0,,Slider,Slider,4.0,object-56,temp_dist_trial,26.0,s_a_17_1,student_art,microphone,10.0,unique,paired,s_a_17_1.jpg,Student,,,sub-35
Desktop or Laptop,Windows 10,Chrome 138.0.0.0,2560x1440,2560x1440,Temporal Distance Task,cb_10,75.0,temp_dist_trial,num_items,zn7si1,1.0,response,2_ITEM,1195.7000000001865,1195.2000000000114,1195.7000000001865,1195.7000000001865,1195.2000000000114,1195.7000000001865,1.0,0.0,0.0,,Click Response,2_count,5.0,object-49,temp_dist_trial,27.0,s_a_05_1,student_art,clay,10.0,unique,paired,s_a_05_1.jpg,Student,,,sub-35
Desktop or Laptop,Windows 10,Chrome 138.0.0.0,2560x1440,2560x1440,Temporal Distance Task,cb_10,75.0,temp_dist_trial,dist_items,qkpkxw,2.0,info,,3.1000000000058208,0.0,3.1000000000058208,3.1000000000058208,0.0,3.1000000000058208,1.0,0.0,0.0,,Slider,Slider,4.0,object-56,temp_dist_trial,27.0,s_a_05_1,student_art,clay,10.0,unique,paired,s_a_05_1.jpg,Student,,,sub-35
Desktop or Laptop,Windows 10,Chrome 138.0.0.0,2560x1440,2560x1440,Temporal Distance Task,cb_10,75.0,temp_dist_trial,dist_items,qkpkxw,2.0,continue,,1405.200000000099,1403.6000000000058,1405.200000000099,1405.200000000099,1403.6000000000058,1405.200000000099,1.0,0.0,0.0,,Click To Continue,Next button,7.0,object-60,temp_dist_trial,27.0,s_a_05_1,student_art,clay,10.0,unique,paired,s_a_05_1.jpg,Student,,,sub-35
Desktop or Laptop,Windows 10,Chrome 138.0.0.0,2560x1440,2560x1440,Temporal Distance Task,cb_10,75.0,temp_dist_trial,dist_items,qkpkxw,2.0,response,16,507.2000000000117,1403.6000000000058,1405.3999999998196,507.2000000000117,1403.6000000000058,1405.3999999998196,1.0,898.1999999998079,0.0,,Slider,Slider,4.0,object-56,temp_dist_trial,27.0,s_a_05_1,student_art,clay,10.0,unique,paired,s_a_05_1.jpg,Student,,,sub-35
Desktop or Laptop,Windows 10,Chrome 138.0.0.0,2560x1440,2560x1440,Temporal Distance Task,cb_10,76.0,temp_dist_trial,num_items,zn7si1,1.0,response,1_ITEM,2755.7000000001867,2751.7999999999884,2755.7000000001867,2755.7000000001867,2751.7999999999884,2755.7000000001867,1.0,0.0,0.0,,Click Response,1_count,3.0,object-46,temp_dist_trial,28.0,s_sh_21_1,student_shared,file holder,10.0,competing,paired,s_sh_21_1.jpg,Student,,,sub-35
Desktop or Laptop,Windows 10,Chrome 138.0.0.0,2560x1440,2560x1440,Temporal Distance Task,cb_10,77.0,temp_dist_trial,num_items,zn7si1,1.0,response,2_ITEM,1116.8999999998196,1111.8000000000177,1116.8999999998196,1116.8999999998196,1111.8000000000177,1116.8999999998196,1.0,0.0,0.0,,Click Response,2_count,5.0,object-49,temp_dist_trial,29.0,s_a_02_1,student_art,canvas,10.0,unique,paired,s_a_02_1.jpg,Student,,,sub-35
Desktop or Laptop,Windows 10,Chrome 138.0.0.0,2560x1440,2560x1440,Temporal Distance Task,cb_10,77.0,temp_dist_trial,dist_items,qkpkxw,2.0,info,,2.8999999998195563,0.0,2.8999999998195563,2.8999999998195563,0.0,2.8999999998195563,1.0,0.0,0.0,,Slider,Slider,4.0,object-56,temp_dist_trial,29.0,s_a_02_1,student_art,canvas,10.0,unique,paired,s_a_02_1.jpg,Student,,,sub-35
Desktop or Laptop,Windows 10,Chrome 138.0.0.0,2560x1440,2560x1440,Temporal Distance Task,cb_10,77.0,temp_dist_trial,dist_items,qkpkxw,2.0,continue,,1451.8999999998196,1445.3999999999942,1451.8999999998196,1451.8999999998196,1445.3999999999942,1451.8999999998196,1.0,0.0,0.0,,Click To Continue,Next button,7.0,object-60,temp_dist_trial,29.0,s_a_02_1,student_art,canvas,10.0,unique,paired,s_a_02_1.jpg,Student,,,sub-35
Desktop or Laptop,Windows 10,Chrome 138.0.0.0,2560x1440,2560x1440,Temporal Distance Task,cb_10,77.0,temp_dist_trial,dist_items,qkpkxw,2.0,response,17,632.3999999999943,1445.3999999999942,1452.1000000000058,632.3999999999943,1445.3999999999942,1452.1000000000058,1.0,819.7000000000116,0.0,,Slider,Slider,4.0,object-56,temp_dist_trial,29.0,s_a_02_1,student_art,canvas,10.0,unique,paired,s_a_02_1.jpg,Student,,,sub-35
Desktop or Laptop,Windows 10,Chrome 138.0.0.0,2560x1440,2560x1440,Temporal Distance Task,cb_10,78.0,temp_dist_trial,num_items,zn7si1,1.0,response,1_ITEM,937.2000000000116,931.1000000000058,937.2000000000116,937.2000000000116,931.1000000000058,937.2000000000116,1.0,0.0,0.0,,Click Response,1_count,3.0,object-46,temp_dist_trial,30.0,s_s_11_1,student_stem,scientific scale,10.0,unique,single,s_s_11_1.jpg,Student,,,sub-35
Desktop or Laptop,Windows 10,Chrome 138.0.0.0,2560x1440,2560x1440,Temporal Distance Task,cb_10,79.0,temp_dist_trial,num_items,zn7si1,1.0,response,2_ITEM,1017.0000000000873,1014.5,1017.0000000000873,1017.0000000000873,1014.5,1017.0000000000873,1.0,0.0,0.0,,Click Response,2_count,5.0,object-49,temp_dist_trial,31.0,s_a_14_1,student_art,guitar pick,10.0,unique,paired,s_a_14_1.jpg,Student,,,sub-35
Desktop or Laptop,Windows 10,Chrome 138.0.0.0,2560x1440,2560x1440,Temporal Distance Task,cb_10,79.0,temp_dist_trial,dist_items,qkpkxw,2.0,info,,2.9000000001979065,0.0,2.9000000001979065,2.9000000001979065,0.0,2.9000000001979065,1.0,0.0,0.0,,Slider,Slider,4.0,object-56,temp_dist_trial,31.0,s_a_14_1,student_art,guitar pick,10.0,unique,paired,s_a_14_1.jpg,Student,,,sub-35
Desktop or Laptop,Windows 10,Chrome 138.0.0.0,2560x1440,2560x1440,Temporal Distance Task,cb_10,79.0,temp_dist_trial,dist_items,qkpkxw,2.0,continue,,1466.2000000000116,1459.2000000000116,1466.2000000000116,1466.2000000000116,1459.2000000000116,1466.2000000000116,1.0,0.0,0.0,,Click To Continue,Next button,7.0,object-60,temp_dist_trial,31.0,s_a_14_1,student_art,guitar pick,10.0,unique,paired,s_a_14_1.jpg,Student,,,sub-35
Desktop or Laptop,Windows 10,Chrome 138.0.0.0,2560x1440,2560x1440,Temporal Distance Task,cb_10,79.0,temp_dist_trial,dist_items,qkpkxw,2.0,response,47,639.3000000000175,1459.2000000000116,1466.2000000000116,639.3000000000175,1459.2000000000116,1466.2000000000116,1.0,826.8999999999942,0.0,,Slider,Slider,4.0,object-56,temp_dist_trial,31.0,s_a_14_1,student_art,guitar pick,10.0,unique,paired,s_a_14_1.jpg,Student,,,sub-35
Desktop or Laptop,Windows 10,Chrome 138.0.0.0,2560x1440,2560x1440,Temporal Distance Task,cb_10,80.0,temp_dist_trial,num_items,zn7si1,1.0,response,1_ITEM,1420.2000000001865,1417.6000000000058,1420.2000000001865,1420.2000000001865,1417.6000000000058,1420.2000000001865,1.0,0.0,0.0,,Click Response,1_count,3.0,object-46,temp_dist_trial,32.0,s_sh_22_1,student_shared,hole puncher,10.0,competing,single,s_sh_22_1.jpg,Student,,,sub-35
Desktop or Laptop,Windows 10,Chrome 138.0.0.0,2560x1440,2560x1440,Temporal Distance Task,cb_10,81.0,temp_dist_trial,num_items,zn7si1,1.0,response,2_ITEM,2253.200000000012,2251.4000000000233,2253.200000000012,2253.200000000012,2251.4000000000233,2253.200000000012,1.0,0.0,0.0,,Click Response,2_count,5.0,object-49,temp_dist_trial,33.0,s_sh_11_1,student_shared,pencil case,10.0,competing,paired,s_sh_11_1.jpg,Student,,,sub-35
Desktop or Laptop,Windows 10,Chrome 138.0.0.0,2560x1440,2560x1440,Temporal Distance Task,cb_10,81.0,temp_dist_trial,dist_items,qkpkxw,2.0,info,,2.9999999999126885,0.0,2.9999999999126885,2.9999999999126885,0.0,2.9999999999126885,1.0,0.0,0.0,,Slider,Slider,4.0,object-56,temp_dist_trial,33.0,s_sh_11_1,student_shared,pencil case,10.0,competing,paired,s_sh_11_1.jpg,Student,,,sub-35
Desktop or Laptop,Windows 10,Chrome 138.0.0.0,2560x1440,2560x1440,Temporal Distance Task,cb_10,81.0,temp_dist_trial,dist_items,qkpkxw,2.0,continue,,1415.700000000099,1410.500000000029,1415.700000000099,1415.700000000099,1410.500000000029,1415.700000000099,1.0,0.0,0.0,,Click To Continue,Next button,7.0,object-60,temp_dist_trial,33.0,s_sh_11_1,student_shared,pencil case,10.0,competing,paired,s_sh_11_1.jpg,Student,,,sub-35
Desktop or Laptop,Windows 10,Chrome 138.0.0.0,2560x1440,2560x1440,Temporal Distance Task,cb_10,81.0,temp_dist_trial,dist_items,qkpkxw,2.0,response,50,451.6000000000058,1410.500000000029,1417.4000000000524,451.6000000000058,1410.500000000029,1417.4000000000524,1.0,965.8000000000467,0.0,,Slider,Slider,4.0,object-56,temp_dist_trial,33.0,s_sh_11_1,student_shared,pencil case,10.0,competing,paired,s_sh_11_1.jpg,Student,,,sub-35
Desktop or Laptop,Windows 10,Chrome 138.0.0.0,2560x1440,2560x1440,Temporal Distance Task,cb_10,82.0,temp_dist_trial,num_items,zn7si1,1.0,response,1_ITEM,822.2000000000697,820.0,822.2000000000697,822.2000000000697,820.0,822.2000000000697,1.0,0.0,0.0,,Click Response,1_count,3.0,object-46,temp_dist_trial,34.0,s_s_20_1,student_stem,dna model,10.0,unique,single,s_s_20_1.jpg,Student,,,sub-35
Desktop or Laptop,Windows 10,Chrome 138.0.0.0,2560x1440,2560x1440,Temporal Distance Task,cb_10,83.0,temp_dist_trial,num_items,zn7si1,1.0,response,2_ITEM,2111.199999999837,2105.5,2111.199999999837,2111.199999999837,2105.5,2111.199999999837,1.0,0.0,0.0,,Click Response,2_count,5.0,object-49,temp_dist_trial,35.0,s_s_07_1,student_stem,periodic table,10.0,unique,paired,s_s_07_1.jpg,Student,,,sub-35
Desktop or Laptop,Windows 10,Chrome 138.0.0.0,2560x1440,2560x1440,Temporal Distance Task,cb_10,83.0,temp_dist_trial,dist_items,qkpkxw,2.0,info,,2.9000000000814907,0.0,2.9000000000814907,2.9000000000814907,0.0,2.9000000000814907,1.0,0.0,0.0,,Slider,Slider,4.0,object-56,temp_dist_trial,35.0,s_s_07_1,student_stem,periodic table,10.0,unique,paired,s_s_07_1.jpg,Student,,,sub-35
Desktop or Laptop,Windows 10,Chrome 138.0.0.0,2560x1440,2560x1440,Temporal Distance Task,cb_10,83.0,temp_dist_trial,dist_items,qkpkxw,2.0,continue,,1664.1999999998952,1660.7999999999884,1664.1999999998952,1664.1999999998952,1660.7999999999884,1664.1999999998952,1.0,0.0,0.0,,Click To Continue,Next button,7.0,object-60,temp_dist_trial,35.0,s_s_07_1,student_stem,periodic table,10.0,unique,paired,s_s_07_1.jpg,Student,,,sub-35
Desktop or Laptop,Windows 10,Chrome 138.0.0.0,2560x1440,2560x1440,Temporal Distance Task,cb_10,83.0,temp_dist_trial,dist_items,qkpkxw,2.0,response,35,701.8999999999651,1660.7999999999884,1664.5000000001746,701.8999999999651,1660.7999999999884,1664.5000000001746,1.0,962.6000000002097,0.0,,Slider,Slider,4.0,object-56,temp_dist_trial,35.0,s_s_07_1,student_stem,periodic table,10.0,unique,paired,s_s_07_1.jpg,Student,,,sub-35
Desktop or Laptop,Windows 10,Chrome 138.0.0.0,2560x1440,2560x1440,Temporal Distance Task,cb_10,84.0,temp_dist_trial,num_items,zn7si1,1.0,response,1_ITEM,1206.5,1202.2000000000114,1206.5,1206.5,1202.2000000000114,1206.5,1.0,0.0,0.0,,Click Response,1_count,3.0,object-46,temp_dist_trial,36.0,s_sh_19_1,student_shared,portable plastic drawer,10.0,competing,paired,s_sh_19_1.jpg,Student,,,sub-35
Desktop or Laptop,Windows 10,Chrome 138.0.0.0,2560x1440,2560x1440,Temporal Distance Task,cb_10,85.0,temp_dist_trial,num_items,zn7si1,1.0,response,2_ITEM,1301.0999999999185,1299.5,1301.0999999999185,1301.0999999999185,1299.5,1301.0999999999185,1.0,0.0,0.0,,Click Response,2_count,5.0,object-49,temp_dist_trial,37.0,s_a_19_1,student_art,ballet shoes,10.0,unique,paired,s_a_19_1.jpg,Student,,,sub-35
Desktop or Laptop,Windows 10,Chrome 138.0.0.0,2560x1440,2560x1440,Temporal Distance Task,cb_10,85.0,temp_dist_trial,dist_items,qkpkxw,2.0,info,,3.0,0.0,3.0,3.0,0.0,3.0,1.0,0.0,0.0,,Slider,Slider,4.0,object-56,temp_dist_trial,37.0,s_a_19_1,student_art,ballet shoes,10.0,unique,paired,s_a_19_1.jpg,Student,,,sub-35
Desktop or Laptop,Windows 10,Chrome 138.0.0.0,2560x1440,2560x1440,Temporal Distance Task,cb_10,85.0,temp_dist_trial,dist_items,qkpkxw,2.0,continue,,1523.2999999998135,1521.7999999999884,1523.2999999998135,1523.2999999998135,1521.7999999999884,1523.2999999998135,1.0,0.0,0.0,,Click To Continue,Next button,7.0,object-60,temp_dist_trial,37.0,s_a_19_1,student_art,ballet shoes,10.0,unique,paired,s_a_19_1.jpg,Student,,,sub-35
Desktop or Laptop,Windows 10,Chrome 138.0.0.0,2560x1440,2560x1440,Temporal Distance Task,cb_10,85.0,temp_dist_trial,dist_items,qkpkxw,2.0,response,66,694.9000000000232,1521.7999999999884,1523.7000000001865,694.9000000000232,1521.7999999999884,1523.7000000001865,1.0,828.800000000163,0.0,,Slider,Slider,4.0,object-56,temp_dist_trial,37.0,s_a_19_1,student_art,ballet shoes,10.0,unique,paired,s_a_19_1.jpg,Student,,,sub-35
Desktop or Laptop,Windows 10,Chrome 138.0.0.0,2560x1440,2560x1440,Temporal Distance Task,cb_10,86.0,temp_dist_trial,num_items,zn7si1,1.0,response,2_ITEM,968.4999999998256,965.7999999999884,968.4999999998256,968.4999999998256,965.7999999999884,968.4999999998256,1.0,0.0,0.0,,Click Response,2_count,5.0,object-49,temp_dist_trial,38.0,s_sh_12_1,student_shared,binder,10.0,competing,paired,s_sh_12_1.jpg,Student,,,sub-35
Desktop or Laptop,Windows 10,Chrome 138.0.0.0,2560x1440,2560x1440,Temporal Distance Task,cb_10,86.0,temp_dist_trial,dist_items,qkpkxw,2.0,info,,2.9000000001979065,0.0,2.9000000001979065,2.9000000001979065,0.0,2.9000000001979065,1.0,0.0,0.0,,Slider,Slider,4.0,object-56,temp_dist_trial,38.0,s_sh_12_1,student_shared,binder,10.0,competing,paired,s_sh_12_1.jpg,Student,,,sub-35
Desktop or Laptop,Windows 10,Chrome 138.0.0.0,2560x1440,2560x1440,Temporal Distance Task,cb_10,86.0,temp_dist_trial,dist_items,qkpkxw,2.0,continue,,1299.399999999965,1292.5,1299.399999999965,1299.399999999965,1292.5,1299.399999999965,1.0,0.0,0.0,,Click To Continue,Next button,7.0,object-60,temp_dist_trial,38.0,s_sh_12_1,student_shared,binder,10.0,competing,paired,s_sh_12_1.jpg,Student,,,sub-35
Desktop or Laptop,Windows 10,Chrome 138.0.0.0,2560x1440,2560x1440,Temporal Distance Task,cb_10,86.0,temp_dist_trial,dist_items,qkpkxw,2.0,response,38,632.2999999999884,1292.5,1299.399999999965,632.2999999999884,1292.5,1299.399999999965,1.0,667.0999999999767,0.0,,Slider,Slider,4.0,object-56,temp_dist_trial,38.0,s_sh_12_1,student_shared,binder,10.0,competing,paired,s_sh_12_1.jpg,Student,,,sub-35
Desktop or Laptop,Windows 10,Chrome 138.0.0.0,2560x1440,2560x1440,Temporal Distance Task,cb_10,87.0,temp_dist_trial,num_items,zn7si1,1.0,response,1_ITEM,1604.0999999999185,1598.2000000000116,1604.0999999999185,1604.0999999999185,1598.2000000000116,1604.0999999999185,1.0,0.0,0.0,,Click Response,1_count,3.0,object-46,temp_dist_trial,39.0,s_sh_20_1,student_shared,tape,10.0,competing,single,s_sh_20_1.jpg,Student,,,sub-35
Desktop or Laptop,Windows 10,Chrome 138.0.0.0,2560x1440,2560x1440,Temporal Distance Task,cb_10,88.0,temp_dist_trial,num_items,zn7si1,1.0,response,1_ITEM,733.9000000000815,729.5999999999768,733.9000000000815,733.9000000000815,729.5999999999768,733.9000000000815,1.0,0.0,0.0,,Click Response,1_count,3.0,object-46,temp_dist_trial,40.0,s_s_10_1,student_stem,3d molecule,10.0,unique,paired,s_s_10_1.jpg,Student,,,sub-35
Desktop or Laptop,Windows 10,Chrome 138.0.0.0,2560x1440,2560x1440,Temporal Distance Task,cb_10,89.0,temp_dist_trial,num_items,zn7si1,1.0,response,1_ITEM,1065.1000000000931,1063.2000000000116,1065.1000000000931,1065.1000000000931,1063.2000000000116,1065.1000000000931,1.0,0.0,0.0,,Click Response,1_count,3.0,object-46,temp_dist_trial,41.0,s_sh_16_1,student_shared,stapler,10.0,competing,paired,s_sh_16_1.jpg,Student,,,sub-35
Desktop or Laptop,Windows 10,Chrome 138.0.0.0,2560x1440,2560x1440,Temporal Distance Task,cb_10,90.0,temp_dist_trial,num_items,zn7si1,1.0,response,2_ITEM,1023.7000000000696,1021.3999999999652,1023.7000000000696,1023.7000000000696,1021.3999999999652,1023.7000000000696,1.0,0.0,0.0,,Click Response,2_count,5.0,object-49,temp_dist_trial,42.0,s_a_06_1,student_art,pastels,10.0,unique,single,s_a_06_1.jpg,Student,,,sub-35
Desktop or Laptop,Windows 10,Chrome 138.0.0.0,2560x1440,2560x1440,Temporal Distance Task,cb_10,90.0,temp_dist_trial,dist_items,qkpkxw,2.0,info,,3.0999999999767165,0.0,3.0999999999767165,3.0999999999767165,0.0,3.0999999999767165,1.0,0.0,0.0,,Slider,Slider,4.0,object-56,temp_dist_trial,42.0,s_a_06_1,student_art,pastels,10.0,unique,single,s_a_06_1.jpg,Student,,,sub-35
Desktop or Laptop,Windows 10,Chrome 138.0.0.0,2560x1440,2560x1440,Temporal Distance Task,cb_10,90.0,temp_dist_trial,dist_items,qkpkxw,2.0,continue,,1352.9999999998836,1348.0999999999767,1352.9999999998836,1352.9999999998836,1348.0999999999767,1352.9999999998836,1.0,0.0,0.0,,Click To Continue,Next button,7.0,object-60,temp_dist_trial,42.0,s_a_06_1,student_art,pastels,10.0,unique,single,s_a_06_1.jpg,Student,,,sub-35
Desktop or Laptop,Windows 10,Chrome 138.0.0.0,2560x1440,2560x1440,Temporal Distance Task,cb_10,90.0,temp_dist_trial,dist_items,qkpkxw,2.0,response,70,569.8999999999653,1348.0999999999767,1353.0999999999767,569.8999999999653,1348.0999999999767,1353.0999999999767,1.0,783.2000000000116,0.0,,Slider,Slider,4.0,object-56,temp_dist_trial,42.0,s_a_06_1,student_art,pastels,10.0,unique,single,s_a_06_1.jpg,Student,,,sub-35
Desktop or Laptop,Windows 10,Chrome 138.0.0.0,2560x1440,2560x1440,Temporal Distance Task,cb_10,91.0,temp_dist_trial,num_items,zn7si1,1.0,response,1_ITEM,1205.7999999998135,1202.2000000000114,1205.7999999998135,1205.7999999998135,1202.2000000000114,1205.7999999998135,1.0,0.0,0.0,,Click Response,1_count,3.0,object-46,temp_dist_trial,43.0,s_s_16_1,student_stem,toolbox,10.0,unique,single,s_s_16_1.jpg,Student,,,sub-35
Desktop or Laptop,Windows 10,Chrome 138.0.0.0,2560x1440,2560x1440,Temporal Distance Task,cb_10,92.0,temp_dist_trial,num_items,zn7si1,1.0,response,2_ITEM,829.300000000163,826.7999999999884,829.300000000163,829.300000000163,826.7999999999884,829.300000000163,1.0,0.0,0.0,,Click Response,2_count,5.0,object-49,temp_dist_trial,44.0,s_a_16_1,student_art,piano,10.0,unique,paired,s_a_16_1.jpg,Student,,,sub-35
Desktop or Laptop,Windows 10,Chrome 138.0.0.0,2560x1440,2560x1440,Temporal Distance Task,cb_10,92.0,temp_dist_trial,dist_items,qkpkxw,2.0,info,,2.8999999997904524,0.0,2.8999999997904524,2.8999999997904524,0.0,2.8999999997904524,1.0,0.0,0.0,,Slider,Slider,4.0,object-56,temp_dist_trial,44.0,s_a_16_1,student_art,piano,10.0,unique,paired,s_a_16_1.jpg,Student,,,sub-35
Desktop or Laptop,Windows 10,Chrome 138.0.0.0,2560x1440,2560x1440,Temporal Distance Task,cb_10,92.0,temp_dist_trial,dist_items,qkpkxw,2.0,continue,,1366.3999999997905,1362.0,1366.3999999997905,1366.3999999997905,1362.0,1366.3999999997905,1.0,0.0,0.0,,Click To Continue,Next button,7.0,object-60,temp_dist_trial,44.0,s_a_16_1,student_art,piano,10.0,unique,paired,s_a_16_1.jpg,Student,,,sub-35
Desktop or Laptop,Windows 10,Chrome 138.0.0.0,2560x1440,2560x1440,Temporal Distance Task,cb_10,92.0,temp_dist_trial,dist_items,qkpkxw,2.0,response,33,514.2999999999884,1362.0,1366.7000000000694,514.2999999999884,1362.0,1366.7000000000694,1.0,852.4000000000815,0.0,,Slider,Slider,4.0,object-56,temp_dist_trial,44.0,s_a_16_1,student_art,piano,10.0,unique,paired,s_a_16_1.jpg,Student,,,sub-35
Desktop or Laptop,Windows 10,Chrome 138.0.0.0,2560x1440,2560x1440,Temporal Distance Task,cb_10,93.0,temp_dist_trial,num_items,zn7si1,1.0,response,2_ITEM,796.4999999998836,792.1999999999533,796.4999999998836,796.4999999998836,792.1999999999533,796.4999999998836,1.0,0.0,0.0,,Click Response,2_count,5.0,object-49,temp_dist_trial,45.0,s_sh_10_1,student_shared,scissors,10.0,competing,paired,s_sh_10_1.jpg,Student,,,sub-35
Desktop or Laptop,Windows 10,Chrome 138.0.0.0,2560x1440,2560x1440,Temporal Distance Task,cb_10,93.0,temp_dist_trial,dist_items,qkpkxw,2.0,info,,3.099999999802093,0.0,3.099999999802093,3.099999999802093,0.0,3.099999999802093,1.0,0.0,0.0,,Slider,Slider,4.0,object-56,temp_dist_trial,45.0,s_sh_10_1,student_shared,scissors,10.0,competing,paired,s_sh_10_1.jpg,Student,,,sub-35
Desktop or Laptop,Windows 10,Chrome 138.0.0.0,2560x1440,2560x1440,Temporal Distance Task,cb_10,93.0,temp_dist_trial,dist_items,qkpkxw,2.0,continue,,1205.1999999998952,1202.2000000000114,1205.1999999998952,1205.1999999998952,1202.2000000000114,1205.1999999998952,1.0,0.0,0.0,,Click To Continue,Next button,7.0,object-60,temp_dist_trial,45.0,s_sh_10_1,student_shared,scissors,10.0,competing,paired,s_sh_10_1.jpg,Student,,,sub-35
Desktop or Laptop,Windows 10,Chrome 138.0.0.0,2560x1440,2560x1440,Temporal Distance Task,cb_10,93.0,temp_dist_trial,dist_items,qkpkxw,2.0,response,64,528.0999999999766,1202.2000000000114,1205.4000000000815,528.0999999999766,1202.2000000000114,1205.4000000000815,1.0,677.3000000001048,0.0,,Slider,Slider,4.0,object-56,temp_dist_trial,45.0,s_sh_10_1,student_shared,scissors,10.0,competing,paired,s_sh_10_1.jpg,Student,,,sub-35
Desktop or Laptop,Windows 10,Chrome 138.0.0.0,2560x1440,2560x1440,Temporal Distance Task,cb_10,94.0,temp_dist_trial,num_items,zn7si1,1.0,response,1_ITEM,1115.8999999997905,1111.7999999999884,1115.8999999997905,1115.8999999997905,1111.7999999999884,1115.8999999997905,1.0,0.0,0.0,,Click Response,1_count,3.0,object-46,temp_dist_trial,46.0,s_sh_18_1,student_shared,wall calendar,10.0,competing,single,s_sh_18_1.jpg,Student,,,sub-35
Desktop or Laptop,Windows 10,Chrome 138.0.0.0,2560x1440,2560x1440,Temporal Distance Task,cb_10,95.0,temp_dist_trial,num_items,zn7si1,1.0,response,2_ITEM,939.8999999997903,938.0999999999768,939.8999999997903,939.8999999997903,938.0999999999768,939.8999999997903,1.0,0.0,0.0,,Click Response,2_count,5.0,object-49,temp_dist_trial,47.0,s_sh_23_1,student_shared,ballpoint pen,10.0,competing,paired,s_sh_23_1.jpg,Student,,,sub-35
Desktop or Laptop,Windows 10,Chrome 138.0.0.0,2560x1440,2560x1440,Temporal Distance Task,cb_10,95.0,temp_dist_trial,dist_items,qkpkxw,2.0,info,,3.1999999998370185,0.0,3.1999999998370185,3.1999999998370185,0.0,3.1999999998370185,1.0,0.0,0.0,,Slider,Slider,4.0,object-56,temp_dist_trial,47.0,s_sh_23_1,student_shared,ballpoint pen,10.0,competing,paired,s_sh_23_1.jpg,Student,,,sub-35
Desktop or Laptop,Windows 10,Chrome 138.0.0.0,2560x1440,2560x1440,Temporal Distance Task,cb_10,95.0,temp_dist_trial,dist_items,qkpkxw,2.0,continue,,1549.7000000000116,1542.7000000000116,1549.7000000000116,1549.7000000000116,1542.7000000000116,1549.7000000000116,1.0,0.0,0.0,,Click To Continue,Next button,7.0,object-60,temp_dist_trial,47.0,s_sh_23_1,student_shared,ballpoint pen,10.0,competing,paired,s_sh_23_1.jpg,Student,,,sub-35
Desktop or Laptop,Windows 10,Chrome 138.0.0.0,2560x1440,2560x1440,Temporal Distance Task,cb_10,95.0,temp_dist_trial,dist_items,qkpkxw,2.0,response,50,507.30000000004657,1542.7000000000116,1549.7000000000116,507.30000000004657,1542.7000000000116,1549.7000000000116,1.0,1042.399999999965,0.0,,Slider,Slider,4.0,object-56,temp_dist_trial,47.0,s_sh_23_1,student_shared,ballpoint pen,10.0,competing,paired,s_sh_23_1.jpg,Student,,,sub-35
Desktop or Laptop,Windows 10,Chrome 138.0.0.0,2560x1440,2560x1440,Temporal Distance Task,cb_10,96.0,temp_dist_trial,num_items,zn7si1,1.0,response,1_ITEM,1066.9000000001981,1063.2000000000116,1066.9000000001981,1066.9000000001981,1063.2000000000116,1066.9000000001981,1.0,0.0,0.0,,Click Response,1_count,3.0,object-46,temp_dist_trial,48.0,s_sh_08_1,student_shared,post-its,10.0,competing,single,s_sh_08_1.jpg,Student,,,sub-35
Desktop or Laptop,Windows 10,Chrome 138.0.0.0,2560x1440,2560x1440,Temporal Distance Task,$${counterbalance_group},,,,,,info,END,,,290298.0,,,,0.0,,,,,,,,,,,,,,,,,,,,sub-35
