Participant Device,Participant OS,Participant Browser,Participant Monitor Size,Participant Viewport Size,Task Name,Current Spreadsheet,Trial Number,Display,Screen,Screen ID,Screen Counter,Response Type,Response,Onset Time,Clock Time,Reaction Time,Absolute Onset Time,Absolute Clock Time,Absolute Reaction Time,Correct,Response Duration,Proportion,Tag,Component Name,Object Name,Object Number,Object ID,Spreadsheet: display,Spreadsheet: trial,Spreadsheet: stimulus_id,Spreadsheet: expected_goal,Spreadsheet: stimulus_name,Spreadsheet: c_group,Spreadsheet: condition,Spreadsheet: paired_status,Spreadsheet: stimulus_path,Spreadsheet: block_type,Manipulation: Spreadsheet,Store: enc_test_acc,sub_label
Desktop or Laptop,Windows 10,Chrome 138.0.0.0,1498x843,1498x843,Temporal Distance Task,$${counterbalance_group},,,,,,info,BEGIN,,,,,,,0.0,,,,,,,,,,,,,,,,,,,,sub-17
Desktop or Laptop,Windows 10,Chrome 138.0.0.0,1498x843,1498x843,Temporal Distance Task,cb_01,1.0,temp_instructions,intro_screen,3tnme7,1.0,continue,,15858.300000000281,15852.7,15858.300000000281,15858.300000000281,15852.7,15858.300000000281,1.0,0.0,0.0,,Click To Continue,Continue Button,4.0,object-29,temp_instructions,,,Student,,,,,,,,,sub-17
Desktop or Laptop,Windows 10,Chrome 138.0.0.0,1498x843,1498x843,Temporal Distance Task,cb_01,1.0,temp_instructions,intro_screen_2,52v7ur,2.0,continue,,11624.499999999995,11618.399999999998,11624.499999999995,11624.499999999995,11618.399999999998,11624.499999999995,1.0,0.0,0.0,,Click To Continue,Continue Button,4.0,object-39,temp_instructions,,,Student,,,,,,,,,sub-17
Desktop or Laptop,Windows 10,Chrome 138.0.0.0,1498x843,1498x843,Temporal Distance Task,cb_01,1.0,temp_instructions,intro_screen_3,i7lvwx,3.0,continue,,6433.0999999999985,6427.0,6433.0999999999985,6433.0999999999985,6427.0,6433.0999999999985,1.0,0.0,0.0,,Click To Continue,Continue Button,4.0,object-67,temp_instructions,,,Student,,,,,,,,,sub-17
Desktop or Laptop,Windows 10,Chrome 138.0.0.0,1498x843,1498x843,Temporal Distance Task,cb_01,1.0,temp_instructions,test_q1,5ieqx1,4.0,response,choice_3,7727.500000000094,7722.700000000003,7727.500000000094,7727.500000000094,7722.700000000003,7727.500000000094,1.0,0.0,0.0,,Click Response,choice_3,5.0,object-345,temp_instructions,,,Student,,,,,,,,,sub-17
Desktop or Laptop,Windows 10,Chrome 138.0.0.0,1498x843,1498x843,Temporal Distance Task,cb_01,1.0,temp_instructions,score_corr,7ilvjr,5.0,continue,,930.5999999999041,927.5999999999983,930.5999999999041,930.5999999999041,927.5999999999983,930.5999999999041,1.0,0.0,0.0,,Click To Continue,Continue Button,3.0,object-23,temp_instructions,,,Student,,,,,,,,,sub-17
Desktop or Laptop,Windows 10,Chrome 138.0.0.0,1498x843,1498x843,Temporal Distance Task,cb_01,1.0,temp_eventStart,Screen 1,dgtyxe,1.0,continue,,1132.6999999999969,1126.5999999999985,1132.6999999999969,1132.6999999999969,1126.5999999999985,1132.6999999999969,1.0,0.0,0.0,,Click To Continue,Next Button,3.0,object-43,temp_eventStart,,,Student,,,,,,,,,sub-17
Desktop or Laptop,Windows 10,Chrome 138.0.0.0,1498x843,1498x843,Temporal Distance Task,cb_01,1.0,temp_dist_trial,num_items,zn7si1,1.0,response,num_miss,2998.199999999997,2998.199999999997,2998.199999999997,2998.199999999997,2998.199999999997,2998.199999999997,1.0,0.0,0.0,num_miss_tag,Time Limit,screen,0.0,screen,temp_dist_trial,1.0,s_sh_22_1,student_shared,hole puncher,1.0,competing,single,s_sh_22_1.jpg,Student,,,sub-17
Desktop or Laptop,Windows 10,Chrome 138.0.0.0,1498x843,1498x843,Temporal Distance Task,cb_01,2.0,temp_dist_trial,num_items,zn7si1,1.0,response,1_ITEM,2122.300000000185,2120.0,2122.300000000185,2122.300000000185,2120.0,2122.300000000185,1.0,0.0,0.0,,Click Response,1_count,3.0,object-46,temp_dist_trial,2.0,s_sh_08_1,student_shared,post-its,1.0,competing,single,s_sh_08_1.jpg,Student,,,sub-17
Desktop or Laptop,Windows 10,Chrome 138.0.0.0,1498x843,1498x843,Temporal Distance Task,cb_01,3.0,temp_dist_trial,num_items,zn7si1,1.0,response,1_ITEM,1726.3000000000034,1720.2000000000046,1726.3000000000034,1726.3000000000034,1720.2000000000046,1726.3000000000034,1.0,0.0,0.0,,Click Response,1_count,3.0,object-46,temp_dist_trial,3.0,s_sh_10_1,student_shared,scissors,1.0,competing,paired,s_sh_10_1.jpg,Student,,,sub-17
Desktop or Laptop,Windows 10,Chrome 138.0.0.0,1498x843,1498x843,Temporal Distance Task,cb_01,4.0,temp_dist_trial,num_items,zn7si1,1.0,response,2_ITEM,1366.2000000002809,1362.9000000000015,1366.2000000002809,1366.2000000002809,1362.9000000000015,1366.2000000002809,1.0,0.0,0.0,,Click Response,2_count,5.0,object-49,temp_dist_trial,4.0,s_s_07_1,student_stem,periodic table,1.0,unique,paired,s_s_07_1.jpg,Student,,,sub-17
Desktop or Laptop,Windows 10,Chrome 138.0.0.0,1498x843,1498x843,Temporal Distance Task,cb_01,4.0,temp_dist_trial,dist_items,qkpkxw,2.0,info,,5.900000000183352,0.0,5.900000000183352,5.900000000183352,0.0,5.900000000183352,1.0,0.0,0.0,,Slider,Slider,4.0,object-56,temp_dist_trial,4.0,s_s_07_1,student_stem,periodic table,1.0,unique,paired,s_s_07_1.jpg,Student,,,sub-17
Desktop or Laptop,Windows 10,Chrome 138.0.0.0,1498x843,1498x843,Temporal Distance Task,cb_01,4.0,temp_dist_trial,dist_items,qkpkxw,2.0,continue,,5103.699999999997,5100.299999999996,5103.699999999997,5103.699999999997,5100.299999999996,5103.699999999997,1.0,0.0,0.0,,Click To Continue,Next button,7.0,object-60,temp_dist_trial,4.0,s_s_07_1,student_stem,periodic table,1.0,unique,paired,s_s_07_1.jpg,Student,,,sub-17
Desktop or Laptop,Windows 10,Chrome 138.0.0.0,1498x843,1498x843,Temporal Distance Task,cb_01,4.0,temp_dist_trial,dist_items,qkpkxw,2.0,response,65,2707.5,5100.299999999996,5104.599999999904,2707.5,5100.299999999996,5104.599999999904,1.0,2397.099999999904,0.0,,Slider,Slider,4.0,object-56,temp_dist_trial,4.0,s_s_07_1,student_stem,periodic table,1.0,unique,paired,s_s_07_1.jpg,Student,,,sub-17
Desktop or Laptop,Windows 10,Chrome 138.0.0.0,1498x843,1498x843,Temporal Distance Task,cb_01,5.0,temp_dist_trial,num_items,zn7si1,1.0,response,1_ITEM,2167.600000000188,2162.400000000001,2167.600000000188,2167.600000000188,2162.400000000001,2167.600000000188,1.0,0.0,0.0,,Click Response,1_count,3.0,object-46,temp_dist_trial,5.0,s_sh_04_1,student_shared,laptop stand,1.0,competing,single,s_sh_04_1.jpg,Student,,,sub-17
Desktop or Laptop,Windows 10,Chrome 138.0.0.0,1498x843,1498x843,Temporal Distance Task,cb_01,6.0,temp_dist_trial,num_items,zn7si1,1.0,response,2_ITEM,1271.8000000000031,1265.8000000000031,1271.8000000000031,1271.8000000000031,1265.8000000000031,1271.8000000000031,1.0,0.0,0.0,,Click Response,2_count,5.0,object-49,temp_dist_trial,6.0,s_sh_11_1,student_shared,pencil case,1.0,competing,paired,s_sh_11_1.jpg,Student,,,sub-17
Desktop or Laptop,Windows 10,Chrome 138.0.0.0,1498x843,1498x843,Temporal Distance Task,cb_01,6.0,temp_dist_trial,dist_items,qkpkxw,2.0,info,,6.0,0.0,6.0,6.0,0.0,6.0,1.0,0.0,0.0,,Slider,Slider,4.0,object-56,temp_dist_trial,6.0,s_sh_11_1,student_shared,pencil case,1.0,competing,paired,s_sh_11_1.jpg,Student,,,sub-17
Desktop or Laptop,Windows 10,Chrome 138.0.0.0,1498x843,1498x843,Temporal Distance Task,cb_01,6.0,temp_dist_trial,dist_items,qkpkxw,2.0,continue,,2153.399999999907,2150.300000000003,2153.399999999907,2153.399999999907,2150.300000000003,2153.399999999907,1.0,0.0,0.0,,Click To Continue,Next button,7.0,object-60,temp_dist_trial,6.0,s_sh_11_1,student_shared,pencil case,1.0,competing,paired,s_sh_11_1.jpg,Student,,,sub-17
Desktop or Laptop,Windows 10,Chrome 138.0.0.0,1498x843,1498x843,Temporal Distance Task,cb_01,6.0,temp_dist_trial,dist_items,qkpkxw,2.0,response,60,1417.3999999999942,2150.300000000003,2156.300000000003,1417.3999999999942,2150.300000000003,2156.300000000003,1.0,738.9000000000087,0.0,,Slider,Slider,4.0,object-56,temp_dist_trial,6.0,s_sh_11_1,student_shared,pencil case,1.0,competing,paired,s_sh_11_1.jpg,Student,,,sub-17
Desktop or Laptop,Windows 10,Chrome 138.0.0.0,1498x843,1498x843,Temporal Distance Task,cb_01,7.0,temp_dist_trial,num_items,zn7si1,1.0,response,2_ITEM,1123.6999999999969,1120.8999999999942,1123.6999999999969,1123.6999999999969,1120.8999999999942,1123.6999999999969,1.0,0.0,0.0,,Click Response,2_count,5.0,object-49,temp_dist_trial,7.0,s_a_10_1,student_art,tripod,1.0,unique,paired,s_a_10_1.jpg,Student,,,sub-17
Desktop or Laptop,Windows 10,Chrome 138.0.0.0,1498x843,1498x843,Temporal Distance Task,cb_01,7.0,temp_dist_trial,dist_items,qkpkxw,2.0,info,,4.700000000273576,0.0,4.700000000273576,4.700000000273576,0.0,4.700000000273576,1.0,0.0,0.0,,Slider,Slider,4.0,object-56,temp_dist_trial,7.0,s_a_10_1,student_art,tripod,1.0,unique,paired,s_a_10_1.jpg,Student,,,sub-17
Desktop or Laptop,Windows 10,Chrome 138.0.0.0,1498x843,1498x843,Temporal Distance Task,cb_01,7.0,temp_dist_trial,dist_items,qkpkxw,2.0,continue,,1632.8999999999942,1629.2999999999884,1632.8999999999942,1632.8999999999942,1629.2999999999884,1632.8999999999942,1.0,0.0,0.0,,Click To Continue,Next button,7.0,object-60,temp_dist_trial,7.0,s_a_10_1,student_art,tripod,1.0,unique,paired,s_a_10_1.jpg,Student,,,sub-17
Desktop or Laptop,Windows 10,Chrome 138.0.0.0,1498x843,1498x843,Temporal Distance Task,cb_01,7.0,temp_dist_trial,dist_items,qkpkxw,2.0,response,37,793.5,1629.2999999999884,1633.6000000001804,793.5,1629.2999999999884,1633.6000000001804,1.0,840.1000000001802,0.0,,Slider,Slider,4.0,object-56,temp_dist_trial,7.0,s_a_10_1,student_art,tripod,1.0,unique,paired,s_a_10_1.jpg,Student,,,sub-17
Desktop or Laptop,Windows 10,Chrome 138.0.0.0,1498x843,1498x843,Temporal Distance Task,cb_01,8.0,temp_dist_trial,num_items,zn7si1,1.0,response,2_ITEM,1956.3000000000034,1950.3000000000034,1956.3000000000034,1956.3000000000034,1950.3000000000034,1956.3000000000034,1.0,0.0,0.0,,Click Response,2_count,5.0,object-49,temp_dist_trial,8.0,s_a_12_1,student_art,saxophone,1.0,unique,single,s_a_12_1.jpg,Student,,,sub-17
Desktop or Laptop,Windows 10,Chrome 138.0.0.0,1498x843,1498x843,Temporal Distance Task,cb_01,8.0,temp_dist_trial,dist_items,qkpkxw,2.0,info,,4.799999999901047,0.0,4.799999999901047,4.799999999901047,0.0,4.799999999901047,1.0,0.0,0.0,,Slider,Slider,4.0,object-56,temp_dist_trial,8.0,s_a_12_1,student_art,saxophone,1.0,unique,single,s_a_12_1.jpg,Student,,,sub-17
Desktop or Laptop,Windows 10,Chrome 138.0.0.0,1498x843,1498x843,Temporal Distance Task,cb_01,8.0,temp_dist_trial,dist_items,qkpkxw,2.0,continue,,1756.3999999999942,1750.3999999999942,1756.3999999999942,1756.3999999999942,1750.3999999999942,1756.3999999999942,1.0,0.0,0.0,,Click To Continue,Next button,7.0,object-60,temp_dist_trial,8.0,s_a_12_1,student_art,saxophone,1.0,unique,single,s_a_12_1.jpg,Student,,,sub-17
Desktop or Laptop,Windows 10,Chrome 138.0.0.0,1498x843,1498x843,Temporal Distance Task,cb_01,8.0,temp_dist_trial,dist_items,qkpkxw,2.0,response,38,1023.5999999999913,1750.3999999999942,1756.3999999999942,1023.5999999999913,1750.3999999999942,1756.3999999999942,1.0,732.8000000000029,0.0,,Slider,Slider,4.0,object-56,temp_dist_trial,8.0,s_a_12_1,student_art,saxophone,1.0,unique,single,s_a_12_1.jpg,Student,,,sub-17
Desktop or Laptop,Windows 10,Chrome 138.0.0.0,1498x843,1498x843,Temporal Distance Task,cb_01,9.0,temp_dist_trial,num_items,zn7si1,1.0,response,1_ITEM,1528.8000000002796,1526.3000000000034,1528.8000000002796,1528.8000000002796,1526.3000000000034,1528.8000000002796,1.0,0.0,0.0,,Click Response,1_count,3.0,object-46,temp_dist_trial,9.0,s_s_02_1,student_stem,flask,1.0,unique,paired,s_s_02_1.jpg,Student,,,sub-17
Desktop or Laptop,Windows 10,Chrome 138.0.0.0,1498x843,1498x843,Temporal Distance Task,cb_01,10.0,temp_dist_trial,num_items,zn7si1,1.0,response,2_ITEM,1126.8000000000031,1120.8000000000031,1126.8000000000031,1126.8000000000031,1120.8000000000031,1126.8000000000031,1.0,0.0,0.0,,Click Response,2_count,5.0,object-49,temp_dist_trial,10.0,s_sh_03_1,student_shared,highlighter,1.0,competing,paired,s_sh_03_1.jpg,Student,,,sub-17
Desktop or Laptop,Windows 10,Chrome 138.0.0.0,1498x843,1498x843,Temporal Distance Task,cb_01,10.0,temp_dist_trial,dist_items,qkpkxw,2.0,info,,6.0,0.0,6.0,6.0,0.0,6.0,1.0,0.0,0.0,,Slider,Slider,4.0,object-56,temp_dist_trial,10.0,s_sh_03_1,student_shared,highlighter,1.0,competing,paired,s_sh_03_1.jpg,Student,,,sub-17
Desktop or Laptop,Windows 10,Chrome 138.0.0.0,1498x843,1498x843,Temporal Distance Task,cb_01,10.0,temp_dist_trial,dist_items,qkpkxw,2.0,continue,,1974.5,1968.5,1974.5,1974.5,1968.5,1974.5,1.0,0.0,0.0,,Click To Continue,Next button,7.0,object-60,temp_dist_trial,10.0,s_sh_03_1,student_shared,highlighter,1.0,competing,paired,s_sh_03_1.jpg,Student,,,sub-17
Desktop or Laptop,Windows 10,Chrome 138.0.0.0,1498x843,1498x843,Temporal Distance Task,cb_01,10.0,temp_dist_trial,dist_items,qkpkxw,2.0,response,31,1247.8000000000031,1968.5,1974.5,1247.8000000000031,1968.5,1974.5,1.0,726.6999999999971,0.0,,Slider,Slider,4.0,object-56,temp_dist_trial,10.0,s_sh_03_1,student_shared,highlighter,1.0,competing,paired,s_sh_03_1.jpg,Student,,,sub-17
Desktop or Laptop,Windows 10,Chrome 138.0.0.0,1498x843,1498x843,Temporal Distance Task,cb_01,11.0,temp_dist_trial,num_items,zn7si1,1.0,response,2_ITEM,1363.3000000000175,1357.2000000000114,1363.3000000000175,1363.3000000000175,1357.2000000000114,1363.3000000000175,1.0,0.0,0.0,,Click Response,2_count,5.0,object-49,temp_dist_trial,11.0,s_s_05_1,student_stem,lab goggles,1.0,unique,paired,s_s_05_1.jpg,Student,,,sub-17
Desktop or Laptop,Windows 10,Chrome 138.0.0.0,1498x843,1498x843,Temporal Distance Task,cb_01,11.0,temp_dist_trial,dist_items,qkpkxw,2.0,info,,5.4999999999126885,0.0,5.4999999999126885,5.4999999999126885,0.0,5.4999999999126885,1.0,0.0,0.0,,Slider,Slider,4.0,object-56,temp_dist_trial,11.0,s_s_05_1,student_stem,lab goggles,1.0,unique,paired,s_s_05_1.jpg,Student,,,sub-17
Desktop or Laptop,Windows 10,Chrome 138.0.0.0,1498x843,1498x843,Temporal Distance Task,cb_01,11.0,temp_dist_trial,dist_items,qkpkxw,2.0,continue,,1864.200000000099,1859.7000000000119,1864.200000000099,1864.200000000099,1859.7000000000119,1864.200000000099,1.0,0.0,0.0,,Click To Continue,Next button,7.0,object-60,temp_dist_trial,11.0,s_s_05_1,student_stem,lab goggles,1.0,unique,paired,s_s_05_1.jpg,Student,,,sub-17
Desktop or Laptop,Windows 10,Chrome 138.0.0.0,1498x843,1498x843,Temporal Distance Task,cb_01,11.0,temp_dist_trial,dist_items,qkpkxw,2.0,response,60,1241.7000000000114,1859.7000000000119,1864.9000000002848,1241.7000000000114,1859.7000000000119,1864.9000000002848,1.0,623.2000000002736,0.0,,Slider,Slider,4.0,object-56,temp_dist_trial,11.0,s_s_05_1,student_stem,lab goggles,1.0,unique,paired,s_s_05_1.jpg,Student,,,sub-17
Desktop or Laptop,Windows 10,Chrome 138.0.0.0,1498x843,1498x843,Temporal Distance Task,cb_01,12.0,temp_dist_trial,num_items,zn7si1,1.0,response,2_ITEM,1110.3999999999942,1108.5,1110.3999999999942,1110.3999999999942,1108.5,1110.3999999999942,1.0,0.0,0.0,,Click Response,2_count,5.0,object-49,temp_dist_trial,12.0,s_s_01_1,student_stem,microscope,1.0,unique,paired,s_s_01_1.jpg,Student,,,sub-17
Desktop or Laptop,Windows 10,Chrome 138.0.0.0,1498x843,1498x843,Temporal Distance Task,cb_01,12.0,temp_dist_trial,dist_items,qkpkxw,2.0,info,,4.200000000098953,0.0,4.200000000098953,4.200000000098953,0.0,4.200000000098953,1.0,0.0,0.0,,Slider,Slider,4.0,object-56,temp_dist_trial,12.0,s_s_01_1,student_stem,microscope,1.0,unique,paired,s_s_01_1.jpg,Student,,,sub-17
Desktop or Laptop,Windows 10,Chrome 138.0.0.0,1498x843,1498x843,Temporal Distance Task,cb_01,12.0,temp_dist_trial,dist_items,qkpkxw,2.0,continue,,1208.4999999999127,1205.4000000000087,1208.4999999999127,1208.4999999999127,1205.4000000000087,1208.4999999999127,1.0,0.0,0.0,,Click To Continue,Next button,7.0,object-60,temp_dist_trial,12.0,s_s_01_1,student_stem,microscope,1.0,unique,paired,s_s_01_1.jpg,Student,,,sub-17
Desktop or Laptop,Windows 10,Chrome 138.0.0.0,1498x843,1498x843,Temporal Distance Task,cb_01,12.0,temp_dist_trial,dist_items,qkpkxw,2.0,response,59,599.7000000000116,1205.4000000000087,1209.200000000099,599.7000000000116,1205.4000000000087,1209.200000000099,1.0,609.5000000000873,0.0,,Slider,Slider,4.0,object-56,temp_dist_trial,12.0,s_s_01_1,student_stem,microscope,1.0,unique,paired,s_s_01_1.jpg,Student,,,sub-17
Desktop or Laptop,Windows 10,Chrome 138.0.0.0,1498x843,1498x843,Temporal Distance Task,cb_01,13.0,temp_dist_trial,num_items,zn7si1,1.0,response,2_ITEM,1059.4000000001834,1053.8999999999942,1059.4000000001834,1059.4000000001834,1053.8999999999942,1059.4000000001834,1.0,0.0,0.0,,Click Response,2_count,5.0,object-49,temp_dist_trial,13.0,s_a_04_1,student_art,easel,1.0,unique,paired,s_a_04_1.jpg,Student,,,sub-17
Desktop or Laptop,Windows 10,Chrome 138.0.0.0,1498x843,1498x843,Temporal Distance Task,cb_01,13.0,temp_dist_trial,dist_items,qkpkxw,2.0,info,,4.400000000183353,0.0,4.400000000183353,4.400000000183353,0.0,4.400000000183353,1.0,0.0,0.0,,Slider,Slider,4.0,object-56,temp_dist_trial,13.0,s_a_04_1,student_art,easel,1.0,unique,paired,s_a_04_1.jpg,Student,,,sub-17
Desktop or Laptop,Windows 10,Chrome 138.0.0.0,1498x843,1498x843,Temporal Distance Task,cb_01,13.0,temp_dist_trial,dist_items,qkpkxw,2.0,continue,,1130.5000000002765,1126.6999999999969,1130.5000000002765,1130.5000000002765,1126.6999999999969,1130.5000000002765,1.0,0.0,0.0,,Click To Continue,Next button,7.0,object-60,temp_dist_trial,13.0,s_a_04_1,student_art,easel,1.0,unique,paired,s_a_04_1.jpg,Student,,,sub-17
Desktop or Laptop,Windows 10,Chrome 138.0.0.0,1498x843,1498x843,Temporal Distance Task,cb_01,13.0,temp_dist_trial,dist_items,qkpkxw,2.0,response,40,514.8999999999942,1126.6999999999969,1132.6999999999969,514.8999999999942,1126.6999999999969,1132.6999999999969,1.0,617.8000000000029,0.0,,Slider,Slider,4.0,object-56,temp_dist_trial,13.0,s_a_04_1,student_art,easel,1.0,unique,paired,s_a_04_1.jpg,Student,,,sub-17
Desktop or Laptop,Windows 10,Chrome 138.0.0.0,1498x843,1498x843,Temporal Distance Task,cb_01,14.0,temp_dist_trial,num_items,zn7si1,1.0,response,2_ITEM,1108.3000000000031,1102.3000000000031,1108.3000000000031,1108.3000000000031,1102.3000000000031,1108.3000000000031,1.0,0.0,0.0,,Click Response,2_count,5.0,object-49,temp_dist_trial,14.0,s_sh_17_1,student_shared,wireless mouse,1.0,competing,single,s_sh_17_1.jpg,Student,,,sub-17
Desktop or Laptop,Windows 10,Chrome 138.0.0.0,1498x843,1498x843,Temporal Distance Task,cb_01,14.0,temp_dist_trial,dist_items,qkpkxw,2.0,info,,5.000000000189175,0.0,5.000000000189175,5.000000000189175,0.0,5.000000000189175,1.0,0.0,0.0,,Slider,Slider,4.0,object-56,temp_dist_trial,14.0,s_sh_17_1,student_shared,wireless mouse,1.0,competing,single,s_sh_17_1.jpg,Student,,,sub-17
Desktop or Laptop,Windows 10,Chrome 138.0.0.0,1498x843,1498x843,Temporal Distance Task,cb_01,14.0,temp_dist_trial,dist_items,qkpkxw,2.0,continue,,1184.400000000096,1181.4000000000087,1184.400000000096,1184.400000000096,1181.4000000000087,1184.400000000096,1.0,0.0,0.0,,Click To Continue,Next button,7.0,object-60,temp_dist_trial,14.0,s_sh_17_1,student_shared,wireless mouse,1.0,competing,single,s_sh_17_1.jpg,Student,,,sub-17
Desktop or Laptop,Windows 10,Chrome 138.0.0.0,1498x843,1498x843,Temporal Distance Task,cb_01,14.0,temp_dist_trial,dist_items,qkpkxw,2.0,response,35,514.8000000000029,1181.4000000000087,1185.0000000001892,514.8000000000029,1181.4000000000087,1185.0000000001892,1.0,670.2000000001863,0.0,,Slider,Slider,4.0,object-56,temp_dist_trial,14.0,s_sh_17_1,student_shared,wireless mouse,1.0,competing,single,s_sh_17_1.jpg,Student,,,sub-17
Desktop or Laptop,Windows 10,Chrome 138.0.0.0,1498x843,1498x843,Temporal Distance Task,cb_01,15.0,temp_dist_trial,num_items,zn7si1,1.0,response,2_ITEM,1100.6000000001804,1096.2999999999884,1100.6000000001804,1100.6000000001804,1096.2999999999884,1100.6000000001804,1.0,0.0,0.0,,Click Response,2_count,5.0,object-49,temp_dist_trial,15.0,s_sh_13_1,student_shared,index cards,1.0,competing,paired,s_sh_13_1.jpg,Student,,,sub-17
Desktop or Laptop,Windows 10,Chrome 138.0.0.0,1498x843,1498x843,Temporal Distance Task,cb_01,15.0,temp_dist_trial,dist_items,qkpkxw,2.0,info,,3.800000000090222,0.0,3.800000000090222,3.800000000090222,0.0,3.800000000090222,1.0,0.0,0.0,,Slider,Slider,4.0,object-56,temp_dist_trial,15.0,s_sh_13_1,student_shared,index cards,1.0,competing,paired,s_sh_13_1.jpg,Student,,,sub-17
Desktop or Laptop,Windows 10,Chrome 138.0.0.0,1498x843,1498x843,Temporal Distance Task,cb_01,15.0,temp_dist_trial,dist_items,qkpkxw,2.0,continue,,1513.8000000000902,1508.1999999999966,1513.8000000000902,1513.8000000000902,1508.1999999999966,1513.8000000000902,1.0,0.0,0.0,,Click To Continue,Next button,7.0,object-60,temp_dist_trial,15.0,s_sh_13_1,student_shared,index cards,1.0,competing,paired,s_sh_13_1.jpg,Student,,,sub-17
Desktop or Laptop,Windows 10,Chrome 138.0.0.0,1498x843,1498x843,Temporal Distance Task,cb_01,15.0,temp_dist_trial,dist_items,qkpkxw,2.0,response,64,563.3000000000029,1508.1999999999966,1514.3000000000034,563.3000000000029,1508.1999999999966,1514.3000000000034,1.0,951.0,0.0,,Slider,Slider,4.0,object-56,temp_dist_trial,15.0,s_sh_13_1,student_shared,index cards,1.0,competing,paired,s_sh_13_1.jpg,Student,,,sub-17
Desktop or Laptop,Windows 10,Chrome 138.0.0.0,1498x843,1498x843,Temporal Distance Task,cb_01,16.0,temp_dist_trial,num_items,zn7si1,1.0,response,2_ITEM,1029.5,1024.0,1029.5,1029.5,1024.0,1029.5,1.0,0.0,0.0,,Click Response,2_count,5.0,object-49,temp_dist_trial,16.0,s_sh_06_1,student_shared,clipboard,1.0,competing,paired,s_sh_06_1.jpg,Student,,,sub-17
Desktop or Laptop,Windows 10,Chrome 138.0.0.0,1498x843,1498x843,Temporal Distance Task,cb_01,16.0,temp_dist_trial,dist_items,qkpkxw,2.0,info,,4.900000000183353,0.0,4.900000000183353,4.900000000183353,0.0,4.900000000183353,1.0,0.0,0.0,,Slider,Slider,4.0,object-56,temp_dist_trial,16.0,s_sh_06_1,student_shared,clipboard,1.0,competing,paired,s_sh_06_1.jpg,Student,,,sub-17
Desktop or Laptop,Windows 10,Chrome 138.0.0.0,1498x843,1498x843,Temporal Distance Task,cb_01,16.0,temp_dist_trial,dist_items,qkpkxw,2.0,continue,,1131.6999999999969,1126.5999999999913,1131.6999999999969,1131.6999999999969,1126.5999999999913,1131.6999999999969,1.0,0.0,0.0,,Click To Continue,Next button,7.0,object-60,temp_dist_trial,16.0,s_sh_06_1,student_shared,clipboard,1.0,competing,paired,s_sh_06_1.jpg,Student,,,sub-17
Desktop or Laptop,Windows 10,Chrome 138.0.0.0,1498x843,1498x843,Temporal Distance Task,cb_01,16.0,temp_dist_trial,dist_items,qkpkxw,2.0,response,65,563.3000000000029,1126.5999999999913,1132.6999999999825,563.3000000000029,1126.5999999999913,1132.6999999999825,1.0,569.3999999999796,0.0,,Slider,Slider,4.0,object-56,temp_dist_trial,16.0,s_sh_06_1,student_shared,clipboard,1.0,competing,paired,s_sh_06_1.jpg,Student,,,sub-17
Desktop or Laptop,Windows 10,Chrome 138.0.0.0,1498x843,1498x843,Temporal Distance Task,cb_01,17.0,temp_dist_trial,num_items,zn7si1,1.0,response,2_ITEM,1590.3000000001919,1586.900000000009,1590.3000000001919,1590.3000000001919,1586.900000000009,1590.3000000001919,1.0,0.0,0.0,,Click Response,2_count,5.0,object-49,temp_dist_trial,17.0,s_sh_16_1,student_shared,stapler,1.0,competing,paired,s_sh_16_1.jpg,Student,,,sub-17
Desktop or Laptop,Windows 10,Chrome 138.0.0.0,1498x843,1498x843,Temporal Distance Task,cb_01,17.0,temp_dist_trial,dist_items,qkpkxw,2.0,info,,3.8999999999941792,0.0,3.8999999999941792,3.8999999999941792,0.0,3.8999999999941792,1.0,0.0,0.0,,Slider,Slider,4.0,object-56,temp_dist_trial,17.0,s_sh_16_1,student_shared,stapler,1.0,competing,paired,s_sh_16_1.jpg,Student,,,sub-17
Desktop or Laptop,Windows 10,Chrome 138.0.0.0,1498x843,1498x843,Temporal Distance Task,cb_01,17.0,temp_dist_trial,dist_items,qkpkxw,2.0,continue,,1318.3999999999942,1314.2999999999886,1318.3999999999942,1318.3999999999942,1314.2999999999886,1318.3999999999942,1.0,0.0,0.0,,Click To Continue,Next button,7.0,object-60,temp_dist_trial,17.0,s_sh_16_1,student_shared,stapler,1.0,competing,paired,s_sh_16_1.jpg,Student,,,sub-17
Desktop or Laptop,Windows 10,Chrome 138.0.0.0,1498x843,1498x843,Temporal Distance Task,cb_01,17.0,temp_dist_trial,dist_items,qkpkxw,2.0,response,43,708.5999999999913,1314.2999999999886,1320.3999999999796,708.5999999999913,1314.2999999999886,1320.3999999999796,1.0,611.7999999999884,0.0,,Slider,Slider,4.0,object-56,temp_dist_trial,17.0,s_sh_16_1,student_shared,stapler,1.0,competing,paired,s_sh_16_1.jpg,Student,,,sub-17
Desktop or Laptop,Windows 10,Chrome 138.0.0.0,1498x843,1498x843,Temporal Distance Task,cb_01,18.0,temp_dist_trial,num_items,zn7si1,1.0,response,1_ITEM,963.0999999999913,957.0,963.0999999999913,963.0999999999913,957.0,963.0999999999913,1.0,0.0,0.0,,Click Response,1_count,3.0,object-46,temp_dist_trial,18.0,s_a_05_1,student_art,clay,1.0,unique,single,s_a_05_1.jpg,Student,,,sub-17
Desktop or Laptop,Windows 10,Chrome 138.0.0.0,1498x843,1498x843,Temporal Distance Task,cb_01,19.0,temp_dist_trial,num_items,zn7si1,1.0,response,2_ITEM,1087.8000000000031,1084.1999999999969,1087.8000000000031,1087.8000000000031,1084.1999999999969,1087.8000000000031,1.0,0.0,0.0,,Click Response,2_count,5.0,object-49,temp_dist_trial,19.0,s_s_12_1,student_stem,robotic arm,1.0,unique,paired,s_s_12_1.jpg,Student,,,sub-17
Desktop or Laptop,Windows 10,Chrome 138.0.0.0,1498x843,1498x843,Temporal Distance Task,cb_01,19.0,temp_dist_trial,dist_items,qkpkxw,2.0,info,,4.199999999909778,0.0,4.199999999909778,4.199999999909778,0.0,4.199999999909778,1.0,0.0,0.0,,Slider,Slider,4.0,object-56,temp_dist_trial,19.0,s_s_12_1,student_stem,robotic arm,1.0,unique,paired,s_s_12_1.jpg,Student,,,sub-17
Desktop or Laptop,Windows 10,Chrome 138.0.0.0,1498x843,1498x843,Temporal Distance Task,cb_01,19.0,temp_dist_trial,dist_items,qkpkxw,2.0,continue,,1422.1999999999098,1417.3000000000034,1422.1999999999098,1422.1999999999098,1417.3000000000034,1422.1999999999098,1.0,0.0,0.0,,Click To Continue,Next button,7.0,object-60,temp_dist_trial,19.0,s_s_12_1,student_stem,robotic arm,1.0,unique,paired,s_s_12_1.jpg,Student,,,sub-17
Desktop or Laptop,Windows 10,Chrome 138.0.0.0,1498x843,1498x843,Temporal Distance Task,cb_01,19.0,temp_dist_trial,dist_items,qkpkxw,2.0,response,70,636.0,1417.3000000000034,1422.900000000096,636.0,1417.3000000000034,1422.900000000096,1.0,786.9000000000958,0.0,,Slider,Slider,4.0,object-56,temp_dist_trial,19.0,s_s_12_1,student_stem,robotic arm,1.0,unique,paired,s_s_12_1.jpg,Student,,,sub-17
Desktop or Laptop,Windows 10,Chrome 138.0.0.0,1498x843,1498x843,Temporal Distance Task,cb_01,20.0,temp_dist_trial,num_items,zn7si1,1.0,response,1_ITEM,1203.3000000002796,1199.1999999999969,1203.3000000002796,1203.3000000002796,1199.1999999999969,1203.3000000002796,1.0,0.0,0.0,,Click Response,1_count,3.0,object-46,temp_dist_trial,20.0,s_sh_14_1,student_shared,printer,1.0,competing,paired,s_sh_14_1.jpg,Student,,,sub-17
Desktop or Laptop,Windows 10,Chrome 138.0.0.0,1498x843,1498x843,Temporal Distance Task,cb_01,21.0,temp_dist_trial,num_items,zn7si1,1.0,response,2_ITEM,1022.8999999999942,1017.5999999999913,1022.8999999999942,1022.8999999999942,1017.5999999999913,1022.8999999999942,1.0,0.0,0.0,,Click Response,2_count,5.0,object-49,temp_dist_trial,21.0,s_sh_24_1,student_shared,desk organizer,1.0,competing,paired,s_sh_24_1.jpg,Student,,,sub-17
Desktop or Laptop,Windows 10,Chrome 138.0.0.0,1498x843,1498x843,Temporal Distance Task,cb_01,21.0,temp_dist_trial,dist_items,qkpkxw,2.0,info,,3.9000000002852175,0.0,3.9000000002852175,3.9000000002852175,0.0,3.9000000002852175,1.0,0.0,0.0,,Slider,Slider,4.0,object-56,temp_dist_trial,21.0,s_sh_24_1,student_shared,desk organizer,1.0,competing,paired,s_sh_24_1.jpg,Student,,,sub-17
Desktop or Laptop,Windows 10,Chrome 138.0.0.0,1498x843,1498x843,Temporal Distance Task,cb_01,21.0,temp_dist_trial,dist_items,qkpkxw,2.0,continue,,1027.1000000000058,1023.6000000000058,1027.1000000000058,1027.1000000000058,1023.6000000000058,1027.1000000000058,1.0,0.0,0.0,,Click To Continue,Next button,7.0,object-60,temp_dist_trial,21.0,s_sh_24_1,student_shared,desk organizer,1.0,competing,paired,s_sh_24_1.jpg,Student,,,sub-17
Desktop or Laptop,Windows 10,Chrome 138.0.0.0,1498x843,1498x843,Temporal Distance Task,cb_01,21.0,temp_dist_trial,dist_items,qkpkxw,2.0,response,29,381.6000000000058,1023.6000000000058,1028.1000000000058,381.6000000000058,1023.6000000000058,1028.1000000000058,1.0,646.5,0.0,,Slider,Slider,4.0,object-56,temp_dist_trial,21.0,s_sh_24_1,student_shared,desk organizer,1.0,competing,paired,s_sh_24_1.jpg,Student,,,sub-17
Desktop or Laptop,Windows 10,Chrome 138.0.0.0,1498x843,1498x843,Temporal Distance Task,cb_01,22.0,temp_dist_trial,num_items,zn7si1,1.0,response,2_ITEM,1308.0999999999913,1302.1999999999969,1308.0999999999913,1308.0999999999913,1302.1999999999969,1308.0999999999913,1.0,0.0,0.0,,Click Response,2_count,5.0,object-49,temp_dist_trial,22.0,s_sh_07_1,student_shared,ruler,1.0,competing,paired,s_sh_07_1.jpg,Student,,,sub-17
Desktop or Laptop,Windows 10,Chrome 138.0.0.0,1498x843,1498x843,Temporal Distance Task,cb_01,22.0,temp_dist_trial,dist_items,qkpkxw,2.0,info,,4.299999999901047,0.0,4.299999999901047,4.299999999901047,0.0,4.299999999901047,1.0,0.0,0.0,,Slider,Slider,4.0,object-56,temp_dist_trial,22.0,s_sh_07_1,student_shared,ruler,1.0,competing,paired,s_sh_07_1.jpg,Student,,,sub-17
Desktop or Laptop,Windows 10,Chrome 138.0.0.0,1498x843,1498x843,Temporal Distance Task,cb_01,22.0,temp_dist_trial,dist_items,qkpkxw,2.0,continue,,1408.0000000000873,1405.599999999991,1408.0000000000873,1408.0000000000873,1405.599999999991,1408.0000000000873,1.0,0.0,0.0,,Click To Continue,Next button,7.0,object-60,temp_dist_trial,22.0,s_sh_07_1,student_shared,ruler,1.0,competing,paired,s_sh_07_1.jpg,Student,,,sub-17
Desktop or Laptop,Windows 10,Chrome 138.0.0.0,1498x843,1498x843,Temporal Distance Task,cb_01,22.0,temp_dist_trial,dist_items,qkpkxw,2.0,response,42,714.6999999999971,1405.599999999991,1411.6999999999825,714.6999999999971,1405.599999999991,1411.6999999999825,1.0,696.9999999999852,0.0,,Slider,Slider,4.0,object-56,temp_dist_trial,22.0,s_sh_07_1,student_shared,ruler,1.0,competing,paired,s_sh_07_1.jpg,Student,,,sub-17
Desktop or Laptop,Windows 10,Chrome 138.0.0.0,1498x843,1498x843,Temporal Distance Task,cb_01,23.0,temp_dist_trial,num_items,zn7si1,1.0,response,2_ITEM,1220.1999999999098,1217.4000000000087,1220.1999999999098,1220.1999999999098,1217.4000000000087,1220.1999999999098,1.0,0.0,0.0,,Click Response,2_count,5.0,object-49,temp_dist_trial,23.0,s_sh_12_1,student_shared,binder,1.0,competing,paired,s_sh_12_1.jpg,Student,,,sub-17
Desktop or Laptop,Windows 10,Chrome 138.0.0.0,1498x843,1498x843,Temporal Distance Task,cb_01,23.0,temp_dist_trial,dist_items,qkpkxw,2.0,info,,4.300000000192085,0.0,4.300000000192085,4.300000000192085,0.0,4.300000000192085,1.0,0.0,0.0,,Slider,Slider,4.0,object-56,temp_dist_trial,23.0,s_sh_12_1,student_shared,binder,1.0,competing,paired,s_sh_12_1.jpg,Student,,,sub-17
Desktop or Laptop,Windows 10,Chrome 138.0.0.0,1498x843,1498x843,Temporal Distance Task,cb_01,23.0,temp_dist_trial,dist_items,qkpkxw,2.0,continue,,938.8000000000028,932.8000000000028,938.8000000000028,938.8000000000028,932.8000000000028,938.8000000000028,1.0,0.0,0.0,,Click To Continue,Next button,7.0,object-60,temp_dist_trial,23.0,s_sh_12_1,student_shared,binder,1.0,competing,paired,s_sh_12_1.jpg,Student,,,sub-17
Desktop or Laptop,Windows 10,Chrome 138.0.0.0,1498x843,1498x843,Temporal Distance Task,cb_01,23.0,temp_dist_trial,dist_items,qkpkxw,2.0,response,41,418.0,932.8000000000028,938.8000000000028,418.0,932.8000000000028,938.8000000000028,1.0,520.8000000000029,0.0,,Slider,Slider,4.0,object-56,temp_dist_trial,23.0,s_sh_12_1,student_shared,binder,1.0,competing,paired,s_sh_12_1.jpg,Student,,,sub-17
Desktop or Laptop,Windows 10,Chrome 138.0.0.0,1498x843,1498x843,Temporal Distance Task,cb_01,24.0,temp_dist_trial,num_items,zn7si1,1.0,response,num_miss,2998.199999999997,2998.199999999997,2998.199999999997,2998.199999999997,2998.199999999997,2998.199999999997,1.0,0.0,0.0,num_miss_tag,Time Limit,screen,0.0,screen,temp_dist_trial,24.0,s_sh_23_1,student_shared,ballpoint pen,1.0,competing,paired,s_sh_23_1.jpg,Student,,,sub-17
Desktop or Laptop,Windows 10,Chrome 138.0.0.0,1498x843,1498x843,Temporal Distance Task,cb_01,25.0,temp_dist_trial,num_items,zn7si1,1.0,response,2_ITEM,188.6000000000204,182.40000000000873,188.6000000000204,188.6000000000204,182.40000000000873,188.6000000000204,1.0,0.0,0.0,,Click Response,2_count,5.0,object-49,temp_dist_trial,25.0,s_a_02_1,student_art,canvas,1.0,unique,paired,s_a_02_1.jpg,Student,,,sub-17
Desktop or Laptop,Windows 10,Chrome 138.0.0.0,1498x843,1498x843,Temporal Distance Task,cb_01,25.0,temp_dist_trial,dist_items,qkpkxw,2.0,info,,6.0,0.0,6.0,6.0,0.0,6.0,1.0,0.0,0.0,,Slider,Slider,4.0,object-56,temp_dist_trial,25.0,s_a_02_1,student_art,canvas,1.0,unique,paired,s_a_02_1.jpg,Student,,,sub-17
Desktop or Laptop,Windows 10,Chrome 138.0.0.0,1498x843,1498x843,Temporal Distance Task,cb_01,25.0,temp_dist_trial,dist_items,qkpkxw,2.0,continue,,2431.5000000002765,2428.8999999999937,2431.5000000002765,2431.5000000002765,2428.8999999999937,2431.5000000002765,1.0,0.0,0.0,,Click To Continue,Next button,7.0,object-60,temp_dist_trial,25.0,s_a_02_1,student_art,canvas,1.0,unique,paired,s_a_02_1.jpg,Student,,,sub-17
Desktop or Laptop,Windows 10,Chrome 138.0.0.0,1498x843,1498x843,Temporal Distance Task,cb_01,25.0,temp_dist_trial,dist_items,qkpkxw,2.0,response,59,1465.8000000000034,2428.8999999999937,2432.0000000002765,1465.8000000000034,2428.8999999999937,2432.0000000002765,1.0,966.2000000002736,0.0,,Slider,Slider,4.0,object-56,temp_dist_trial,25.0,s_a_02_1,student_art,canvas,1.0,unique,paired,s_a_02_1.jpg,Student,,,sub-17
Desktop or Laptop,Windows 10,Chrome 138.0.0.0,1498x843,1498x843,Temporal Distance Task,cb_01,26.0,temp_dist_trial,num_items,zn7si1,1.0,response,2_ITEM,1594.5000000001892,1593.0,1594.5000000001892,1594.5000000001892,1593.0,1594.5000000001892,1.0,0.0,0.0,,Click Response,2_count,5.0,object-49,temp_dist_trial,26.0,s_s_19_1,student_stem,circuit board,1.0,unique,single,s_s_19_1.jpg,Student,,,sub-17
Desktop or Laptop,Windows 10,Chrome 138.0.0.0,1498x843,1498x843,Temporal Distance Task,cb_01,26.0,temp_dist_trial,dist_items,qkpkxw,2.0,info,,5.600000000093132,0.0,5.600000000093132,5.600000000093132,0.0,5.600000000093132,1.0,0.0,0.0,,Slider,Slider,4.0,object-56,temp_dist_trial,26.0,s_s_19_1,student_stem,circuit board,1.0,unique,single,s_s_19_1.jpg,Student,,,sub-17
Desktop or Laptop,Windows 10,Chrome 138.0.0.0,1498x843,1498x843,Temporal Distance Task,cb_01,26.0,temp_dist_trial,dist_items,qkpkxw,2.0,continue,,902.3000000002794,896.3999999999942,902.3000000002794,902.3000000002794,896.3999999999942,902.3000000002794,1.0,0.0,0.0,,Click To Continue,Next button,7.0,object-60,temp_dist_trial,26.0,s_s_19_1,student_stem,circuit board,1.0,unique,single,s_s_19_1.jpg,Student,,,sub-17
Desktop or Laptop,Windows 10,Chrome 138.0.0.0,1498x843,1498x843,Temporal Distance Task,cb_01,26.0,temp_dist_trial,dist_items,qkpkxw,2.0,response,36,430.0,896.3999999999942,902.3999999999942,430.0,896.3999999999942,902.3999999999942,1.0,472.3999999999942,0.0,,Slider,Slider,4.0,object-56,temp_dist_trial,26.0,s_s_19_1,student_stem,circuit board,1.0,unique,single,s_s_19_1.jpg,Student,,,sub-17
Desktop or Laptop,Windows 10,Chrome 138.0.0.0,1498x843,1498x843,Temporal Distance Task,cb_01,27.0,temp_dist_trial,num_items,zn7si1,1.0,response,1_ITEM,1144.8999999999942,1138.8000000000031,1144.8999999999942,1144.8999999999942,1138.8000000000031,1144.8999999999942,1.0,0.0,0.0,,Click Response,1_count,3.0,object-46,temp_dist_trial,27.0,s_a_14_1,student_art,guitar pick,1.0,unique,single,s_a_14_1.jpg,Student,,,sub-17
Desktop or Laptop,Windows 10,Chrome 138.0.0.0,1498x843,1498x843,Temporal Distance Task,cb_01,28.0,temp_dist_trial,num_items,zn7si1,1.0,response,2_ITEM,1120.6000000000058,1114.5,1120.6000000000058,1120.6000000000058,1114.5,1120.6000000000058,1.0,0.0,0.0,,Click Response,2_count,5.0,object-49,temp_dist_trial,28.0,s_s_09_1,student_stem,multimeter,1.0,unique,paired,s_s_09_1.jpg,Student,,,sub-17
Desktop or Laptop,Windows 10,Chrome 138.0.0.0,1498x843,1498x843,Temporal Distance Task,cb_01,28.0,temp_dist_trial,dist_items,qkpkxw,2.0,info,,4.000000000189175,0.0,4.000000000189175,4.000000000189175,0.0,4.000000000189175,1.0,0.0,0.0,,Slider,Slider,4.0,object-56,temp_dist_trial,28.0,s_s_09_1,student_stem,multimeter,1.0,unique,paired,s_s_09_1.jpg,Student,,,sub-17
Desktop or Laptop,Windows 10,Chrome 138.0.0.0,1498x843,1498x843,Temporal Distance Task,cb_01,28.0,temp_dist_trial,dist_items,qkpkxw,2.0,continue,,1029.3000000000031,1023.6000000000058,1029.3000000000031,1029.3000000000031,1023.6000000000058,1029.3000000000031,1.0,0.0,0.0,,Click To Continue,Next button,7.0,object-60,temp_dist_trial,28.0,s_s_09_1,student_stem,multimeter,1.0,unique,paired,s_s_09_1.jpg,Student,,,sub-17
Desktop or Laptop,Windows 10,Chrome 138.0.0.0,1498x843,1498x843,Temporal Distance Task,cb_01,28.0,temp_dist_trial,dist_items,qkpkxw,2.0,response,59,454.1999999999971,1023.6000000000058,1029.7000000000116,454.1999999999971,1023.6000000000058,1029.7000000000116,1.0,575.5000000000148,0.0,,Slider,Slider,4.0,object-56,temp_dist_trial,28.0,s_s_09_1,student_stem,multimeter,1.0,unique,paired,s_s_09_1.jpg,Student,,,sub-17
Desktop or Laptop,Windows 10,Chrome 138.0.0.0,1498x843,1498x843,Temporal Distance Task,cb_01,29.0,temp_dist_trial,num_items,zn7si1,1.0,response,2_ITEM,1173.099999999904,1168.8999999999942,1173.099999999904,1173.099999999904,1168.8999999999942,1173.099999999904,1.0,0.0,0.0,,Click Response,2_count,5.0,object-49,temp_dist_trial,29.0,s_a_20_1,student_art,pin cushion,1.0,unique,paired,s_a_20_1.jpg,Student,,,sub-17
Desktop or Laptop,Windows 10,Chrome 138.0.0.0,1498x843,1498x843,Temporal Distance Task,cb_01,29.0,temp_dist_trial,dist_items,qkpkxw,2.0,info,,4.600000000180444,0.0,4.600000000180444,4.600000000180444,0.0,4.600000000180444,1.0,0.0,0.0,,Slider,Slider,4.0,object-56,temp_dist_trial,29.0,s_a_20_1,student_art,pin cushion,1.0,unique,paired,s_a_20_1.jpg,Student,,,sub-17
Desktop or Laptop,Windows 10,Chrome 138.0.0.0,1498x843,1498x843,Temporal Distance Task,cb_01,29.0,temp_dist_trial,dist_items,qkpkxw,2.0,continue,,1095.0000000000873,1090.1999999999969,1095.0000000000873,1095.0000000000873,1090.1999999999969,1095.0000000000873,1.0,0.0,0.0,,Click To Continue,Next button,7.0,object-60,temp_dist_trial,29.0,s_a_20_1,student_art,pin cushion,1.0,unique,paired,s_a_20_1.jpg,Student,,,sub-17
Desktop or Laptop,Windows 10,Chrome 138.0.0.0,1498x843,1498x843,Temporal Distance Task,cb_01,29.0,temp_dist_trial,dist_items,qkpkxw,2.0,response,72,545.1999999999971,1090.1999999999969,1096.1999999999969,545.1999999999971,1090.1999999999969,1096.1999999999969,1.0,551.0,0.0,,Slider,Slider,4.0,object-56,temp_dist_trial,29.0,s_a_20_1,student_art,pin cushion,1.0,unique,paired,s_a_20_1.jpg,Student,,,sub-17
Desktop or Laptop,Windows 10,Chrome 138.0.0.0,1498x843,1498x843,Temporal Distance Task,cb_01,30.0,temp_dist_trial,num_items,zn7si1,1.0,response,2_ITEM,931.0999999999041,927.1999999999972,931.0999999999041,931.0999999999041,927.1999999999972,931.0999999999041,1.0,0.0,0.0,,Click Response,2_count,5.0,object-49,temp_dist_trial,30.0,s_s_18_1,student_stem,brain model,1.0,unique,paired,s_s_18_1.jpg,Student,,,sub-17
Desktop or Laptop,Windows 10,Chrome 138.0.0.0,1498x843,1498x843,Temporal Distance Task,cb_01,30.0,temp_dist_trial,dist_items,qkpkxw,2.0,info,,4.6999999999970905,0.0,4.6999999999970905,4.6999999999970905,0.0,4.6999999999970905,1.0,0.0,0.0,,Slider,Slider,4.0,object-56,temp_dist_trial,30.0,s_s_18_1,student_stem,brain model,1.0,unique,paired,s_s_18_1.jpg,Student,,,sub-17
Desktop or Laptop,Windows 10,Chrome 138.0.0.0,1498x843,1498x843,Temporal Distance Task,cb_01,30.0,temp_dist_trial,dist_items,qkpkxw,2.0,continue,,1296.0999999999913,1290.0999999999913,1296.0999999999913,1296.0999999999913,1290.0999999999913,1296.0999999999913,1.0,0.0,0.0,,Click To Continue,Next button,7.0,object-60,temp_dist_trial,30.0,s_s_18_1,student_stem,brain model,1.0,unique,paired,s_s_18_1.jpg,Student,,,sub-17
Desktop or Laptop,Windows 10,Chrome 138.0.0.0,1498x843,1498x843,Temporal Distance Task,cb_01,30.0,temp_dist_trial,dist_items,qkpkxw,2.0,response,62,648.0999999999913,1290.0999999999913,1296.0999999999913,648.0999999999913,1290.0999999999913,1296.0999999999913,1.0,648.0,0.0,,Slider,Slider,4.0,object-56,temp_dist_trial,30.0,s_s_18_1,student_stem,brain model,1.0,unique,paired,s_s_18_1.jpg,Student,,,sub-17
Desktop or Laptop,Windows 10,Chrome 138.0.0.0,1498x843,1498x843,Temporal Distance Task,cb_01,31.0,temp_dist_trial,num_items,zn7si1,1.0,response,2_ITEM,1247.200000000099,1241.7000000000114,1247.200000000099,1247.200000000099,1241.7000000000114,1247.200000000099,1.0,0.0,0.0,,Click Response,2_count,5.0,object-49,temp_dist_trial,31.0,s_s_04_1,student_stem,bunsen burner,1.0,unique,paired,s_s_04_1.jpg,Student,,,sub-17
Desktop or Laptop,Windows 10,Chrome 138.0.0.0,1498x843,1498x843,Temporal Distance Task,cb_01,31.0,temp_dist_trial,dist_items,qkpkxw,2.0,info,,4.4000000000814925,0.0,4.4000000000814925,4.4000000000814925,0.0,4.4000000000814925,1.0,0.0,0.0,,Slider,Slider,4.0,object-56,temp_dist_trial,31.0,s_s_04_1,student_stem,bunsen burner,1.0,unique,paired,s_s_04_1.jpg,Student,,,sub-17
Desktop or Laptop,Windows 10,Chrome 138.0.0.0,1498x843,1498x843,Temporal Distance Task,cb_01,31.0,temp_dist_trial,dist_items,qkpkxw,2.0,continue,,1113.1000000002678,1108.5999999999767,1113.1000000002678,1113.1000000002678,1108.5999999999767,1113.1000000002678,1.0,0.0,0.0,,Click To Continue,Next button,7.0,object-60,temp_dist_trial,31.0,s_s_04_1,student_stem,bunsen burner,1.0,unique,paired,s_s_04_1.jpg,Student,,,sub-17
Desktop or Laptop,Windows 10,Chrome 138.0.0.0,1498x843,1498x843,Temporal Distance Task,cb_01,31.0,temp_dist_trial,dist_items,qkpkxw,2.0,response,43,660.2999999999884,1108.5999999999767,1113.6999999998952,660.2999999999884,1108.5999999999767,1113.6999999998952,1.0,453.39999999990687,0.0,,Slider,Slider,4.0,object-56,temp_dist_trial,31.0,s_s_04_1,student_stem,bunsen burner,1.0,unique,paired,s_s_04_1.jpg,Student,,,sub-17
Desktop or Laptop,Windows 10,Chrome 138.0.0.0,1498x843,1498x843,Temporal Distance Task,cb_01,32.0,temp_dist_trial,num_items,zn7si1,1.0,response,2_ITEM,1552.8000000001048,1550.5,1552.8000000001048,1552.8000000001048,1550.5,1552.8000000001048,1.0,0.0,0.0,,Click Response,2_count,5.0,object-49,temp_dist_trial,32.0,s_a_19_1,student_art,ballet shoes,1.0,unique,paired,s_a_19_1.jpg,Student,,,sub-17
Desktop or Laptop,Windows 10,Chrome 138.0.0.0,1498x843,1498x843,Temporal Distance Task,cb_01,32.0,temp_dist_trial,dist_items,qkpkxw,2.0,info,,4.300000000279397,0.0,4.300000000279397,4.300000000279397,0.0,4.300000000279397,1.0,0.0,0.0,,Slider,Slider,4.0,object-56,temp_dist_trial,32.0,s_a_19_1,student_art,ballet shoes,1.0,unique,paired,s_a_19_1.jpg,Student,,,sub-17
Desktop or Laptop,Windows 10,Chrome 138.0.0.0,1498x843,1498x843,Temporal Distance Task,cb_01,32.0,temp_dist_trial,dist_items,qkpkxw,2.0,continue,,1284.1000000000058,1278.0,1284.1000000000058,1284.1000000000058,1278.0,1284.1000000000058,1.0,0.0,0.0,,Click To Continue,Next button,7.0,object-60,temp_dist_trial,32.0,s_a_19_1,student_art,ballet shoes,1.0,unique,paired,s_a_19_1.jpg,Student,,,sub-17
Desktop or Laptop,Windows 10,Chrome 138.0.0.0,1498x843,1498x843,Temporal Distance Task,cb_01,32.0,temp_dist_trial,dist_items,qkpkxw,2.0,response,57,490.6000000000058,1278.0,1284.1000000000058,490.6000000000058,1278.0,1284.1000000000058,1.0,793.5,0.0,,Slider,Slider,4.0,object-56,temp_dist_trial,32.0,s_a_19_1,student_art,ballet shoes,1.0,unique,paired,s_a_19_1.jpg,Student,,,sub-17
Desktop or Laptop,Windows 10,Chrome 138.0.0.0,1498x843,1498x843,Temporal Distance Task,cb_01,33.0,temp_dist_trial,num_items,zn7si1,1.0,response,1_ITEM,1252.6000000000931,1247.7000000000114,1252.6000000000931,1252.6000000000931,1247.7000000000114,1252.6000000000931,1.0,0.0,0.0,,Click Response,1_count,3.0,object-46,temp_dist_trial,33.0,s_a_18_1,student_art,tutu,1.0,unique,single,s_a_18_1.jpg,Student,,,sub-17
Desktop or Laptop,Windows 10,Chrome 138.0.0.0,1498x843,1498x843,Temporal Distance Task,cb_01,34.0,temp_dist_trial,num_items,zn7si1,1.0,response,2_ITEM,899.0,896.5,899.0,899.0,896.5,899.0,1.0,0.0,0.0,,Click Response,2_count,5.0,object-49,temp_dist_trial,34.0,s_sh_02_1,student_shared,eraser,1.0,competing,paired,s_sh_02_1.jpg,Student,,,sub-17
Desktop or Laptop,Windows 10,Chrome 138.0.0.0,1498x843,1498x843,Temporal Distance Task,cb_01,34.0,temp_dist_trial,dist_items,qkpkxw,2.0,info,,5.4000000002852175,0.0,5.4000000002852175,5.4000000002852175,0.0,5.4000000002852175,1.0,0.0,0.0,,Slider,Slider,4.0,object-56,temp_dist_trial,34.0,s_sh_02_1,student_shared,eraser,1.0,competing,paired,s_sh_02_1.jpg,Student,,,sub-17
Desktop or Laptop,Windows 10,Chrome 138.0.0.0,1498x843,1498x843,Temporal Distance Task,cb_01,34.0,temp_dist_trial,dist_items,qkpkxw,2.0,continue,,1074.4999999999127,1072.3000000000177,1074.4999999999127,1074.4999999999127,1072.3000000000177,1074.4999999999127,1.0,0.0,0.0,,Click To Continue,Next button,7.0,object-60,temp_dist_trial,34.0,s_sh_02_1,student_shared,eraser,1.0,competing,paired,s_sh_02_1.jpg,Student,,,sub-17
Desktop or Laptop,Windows 10,Chrome 138.0.0.0,1498x843,1498x843,Temporal Distance Task,cb_01,34.0,temp_dist_trial,dist_items,qkpkxw,2.0,response,39,490.8999999999942,1072.3000000000177,1074.9000000002852,490.8999999999942,1072.3000000000177,1074.9000000002852,1.0,584.000000000291,0.0,,Slider,Slider,4.0,object-56,temp_dist_trial,34.0,s_sh_02_1,student_shared,eraser,1.0,competing,paired,s_sh_02_1.jpg,Student,,,sub-17
Desktop or Laptop,Windows 10,Chrome 138.0.0.0,1498x843,1498x843,Temporal Distance Task,cb_01,35.0,temp_dist_trial,num_items,zn7si1,1.0,response,2_ITEM,1946.2999999999884,1944.2999999999884,1946.2999999999884,1946.2999999999884,1944.2999999999884,1946.2999999999884,1.0,0.0,0.0,,Click Response,2_count,5.0,object-49,temp_dist_trial,35.0,s_sh_19_1,student_shared,portable plastic drawer,1.0,competing,paired,s_sh_19_1.jpg,Student,,,sub-17
Desktop or Laptop,Windows 10,Chrome 138.0.0.0,1498x843,1498x843,Temporal Distance Task,cb_01,35.0,temp_dist_trial,dist_items,qkpkxw,2.0,info,,4.300000000192085,0.0,4.300000000192085,4.300000000192085,0.0,4.300000000192085,1.0,0.0,0.0,,Slider,Slider,4.0,object-56,temp_dist_trial,35.0,s_sh_19_1,student_shared,portable plastic drawer,1.0,competing,paired,s_sh_19_1.jpg,Student,,,sub-17
Desktop or Laptop,Windows 10,Chrome 138.0.0.0,1498x843,1498x843,Temporal Distance Task,cb_01,35.0,temp_dist_trial,dist_items,qkpkxw,2.0,continue,,1209.6000000000058,1205.6000000000058,1209.6000000000058,1209.6000000000058,1205.6000000000058,1209.6000000000058,1.0,0.0,0.0,,Click To Continue,Next button,7.0,object-60,temp_dist_trial,35.0,s_sh_19_1,student_shared,portable plastic drawer,1.0,competing,paired,s_sh_19_1.jpg,Student,,,sub-17
Desktop or Laptop,Windows 10,Chrome 138.0.0.0,1498x843,1498x843,Temporal Distance Task,cb_01,35.0,temp_dist_trial,dist_items,qkpkxw,2.0,response,62,563.5,1205.6000000000058,1210.1000000000058,563.5,1205.6000000000058,1210.1000000000058,1.0,646.6000000000057,0.0,,Slider,Slider,4.0,object-56,temp_dist_trial,35.0,s_sh_19_1,student_shared,portable plastic drawer,1.0,competing,paired,s_sh_19_1.jpg,Student,,,sub-17
Desktop or Laptop,Windows 10,Chrome 138.0.0.0,1498x843,1498x843,Temporal Distance Task,cb_01,36.0,temp_dist_trial,num_items,zn7si1,1.0,response,1_ITEM,1025.7000000001863,1023.7000000000116,1025.7000000001863,1025.7000000001863,1023.7000000000116,1025.7000000001863,1.0,0.0,0.0,,Click Response,1_count,3.0,object-46,temp_dist_trial,36.0,s_sh_20_1,student_shared,tape,1.0,competing,single,s_sh_20_1.jpg,Student,,,sub-17
Desktop or Laptop,Windows 10,Chrome 138.0.0.0,1498x843,1498x843,Temporal Distance Task,cb_01,37.0,temp_dist_trial,num_items,zn7si1,1.0,response,1_ITEM,1296.1000000000058,1290.1000000000058,1296.1000000000058,1296.1000000000058,1290.1000000000058,1296.1000000000058,1.0,0.0,0.0,,Click Response,1_count,3.0,object-46,temp_dist_trial,37.0,s_sh_09_1,student_shared,paper clips,1.0,competing,single,s_sh_09_1.jpg,Student,,,sub-17
Desktop or Laptop,Windows 10,Chrome 138.0.0.0,1498x843,1498x843,Temporal Distance Task,cb_01,38.0,temp_dist_trial,num_items,zn7si1,1.0,response,2_ITEM,1035.8000000000177,1029.7000000000116,1035.8000000000177,1035.8000000000177,1029.7000000000116,1035.8000000000177,1.0,0.0,0.0,,Click Response,2_count,5.0,object-49,temp_dist_trial,38.0,s_sh_15_1,student_shared,usb drive,1.0,competing,paired,s_sh_15_1.jpg,Student,,,sub-17
Desktop or Laptop,Windows 10,Chrome 138.0.0.0,1498x843,1498x843,Temporal Distance Task,cb_01,38.0,temp_dist_trial,dist_items,qkpkxw,2.0,info,,3.800000000192085,0.0,3.800000000192085,3.800000000192085,0.0,3.800000000192085,1.0,0.0,0.0,,Slider,Slider,4.0,object-56,temp_dist_trial,38.0,s_sh_15_1,student_shared,usb drive,1.0,competing,paired,s_sh_15_1.jpg,Student,,,sub-17
Desktop or Laptop,Windows 10,Chrome 138.0.0.0,1498x843,1498x843,Temporal Distance Task,cb_01,38.0,temp_dist_trial,dist_items,qkpkxw,2.0,continue,,960.7000000000992,957.0,960.7000000000992,960.7000000000992,957.0,960.7000000000992,1.0,0.0,0.0,,Click To Continue,Next button,7.0,object-60,temp_dist_trial,38.0,s_sh_15_1,student_shared,usb drive,1.0,competing,paired,s_sh_15_1.jpg,Student,,,sub-17
Desktop or Laptop,Windows 10,Chrome 138.0.0.0,1498x843,1498x843,Temporal Distance Task,cb_01,38.0,temp_dist_trial,dist_items,qkpkxw,2.0,response,65,466.3999999999942,957.0,961.6000000000058,466.3999999999942,957.0,961.6000000000058,1.0,495.2000000000117,0.0,,Slider,Slider,4.0,object-56,temp_dist_trial,38.0,s_sh_15_1,student_shared,usb drive,1.0,competing,paired,s_sh_15_1.jpg,Student,,,sub-17
Desktop or Laptop,Windows 10,Chrome 138.0.0.0,1498x843,1498x843,Temporal Distance Task,cb_01,39.0,temp_dist_trial,num_items,zn7si1,1.0,response,1_ITEM,1574.3000000001919,1568.8000000000175,1574.3000000001919,1574.3000000001919,1568.8000000000175,1574.3000000001919,1.0,0.0,0.0,,Click Response,1_count,3.0,object-46,temp_dist_trial,39.0,s_a_11_1,student_art,clapperboard,1.0,unique,paired,s_a_11_1.jpg,Student,,,sub-17
Desktop or Laptop,Windows 10,Chrome 138.0.0.0,1498x843,1498x843,Temporal Distance Task,cb_01,40.0,temp_dist_trial,num_items,zn7si1,1.0,response,2_ITEM,1532.5999999999767,1526.3999999999942,1532.5999999999767,1532.5999999999767,1526.3999999999942,1532.5999999999767,1.0,0.0,0.0,,Click Response,2_count,5.0,object-49,temp_dist_trial,40.0,s_sh_21_1,student_shared,file holder,1.0,competing,paired,s_sh_21_1.jpg,Student,,,sub-17
Desktop or Laptop,Windows 10,Chrome 138.0.0.0,1498x843,1498x843,Temporal Distance Task,cb_01,40.0,temp_dist_trial,dist_items,qkpkxw,2.0,info,,3.5,0.0,3.5,3.5,0.0,3.5,1.0,0.0,0.0,,Slider,Slider,4.0,object-56,temp_dist_trial,40.0,s_sh_21_1,student_shared,file holder,1.0,competing,paired,s_sh_21_1.jpg,Student,,,sub-17
Desktop or Laptop,Windows 10,Chrome 138.0.0.0,1498x843,1498x843,Temporal Distance Task,cb_01,40.0,temp_dist_trial,dist_items,qkpkxw,2.0,continue,,1137.5,1132.7000000000114,1137.5,1137.5,1132.7000000000114,1137.5,1.0,0.0,0.0,,Click To Continue,Next button,7.0,object-60,temp_dist_trial,40.0,s_sh_21_1,student_shared,file holder,1.0,competing,paired,s_sh_21_1.jpg,Student,,,sub-17
Desktop or Laptop,Windows 10,Chrome 138.0.0.0,1498x843,1498x843,Temporal Distance Task,cb_01,40.0,temp_dist_trial,dist_items,qkpkxw,2.0,response,66,527.0,1132.7000000000114,1137.8000000002796,527.0,1132.7000000000114,1137.8000000002796,1.0,610.8000000002794,0.0,,Slider,Slider,4.0,object-56,temp_dist_trial,40.0,s_sh_21_1,student_shared,file holder,1.0,competing,paired,s_sh_21_1.jpg,Student,,,sub-17
Desktop or Laptop,Windows 10,Chrome 138.0.0.0,1498x843,1498x843,Temporal Distance Task,cb_01,41.0,temp_dist_trial,num_items,zn7si1,1.0,response,2_ITEM,1113.7999999999884,1108.6999999999823,1113.7999999999884,1113.7999999999884,1108.6999999999823,1113.7999999999884,1.0,0.0,0.0,,Click Response,2_count,5.0,object-49,temp_dist_trial,41.0,s_sh_05_1,student_shared,laptop,1.0,competing,paired,s_sh_05_1.jpg,Student,,,sub-17
Desktop or Laptop,Windows 10,Chrome 138.0.0.0,1498x843,1498x843,Temporal Distance Task,cb_01,41.0,temp_dist_trial,dist_items,qkpkxw,2.0,info,,5.500000000174622,0.0,5.500000000174622,5.500000000174622,0.0,5.500000000174622,1.0,0.0,0.0,,Slider,Slider,4.0,object-56,temp_dist_trial,41.0,s_sh_05_1,student_shared,laptop,1.0,competing,paired,s_sh_05_1.jpg,Student,,,sub-17
Desktop or Laptop,Windows 10,Chrome 138.0.0.0,1498x843,1498x843,Temporal Distance Task,cb_01,41.0,temp_dist_trial,dist_items,qkpkxw,2.0,continue,,1081.6999999998952,1078.1999999999823,1081.6999999998952,1081.6999999998952,1078.1999999999823,1081.6999999998952,1.0,0.0,0.0,,Click To Continue,Next button,7.0,object-60,temp_dist_trial,41.0,s_sh_05_1,student_shared,laptop,1.0,competing,paired,s_sh_05_1.jpg,Student,,,sub-17
Desktop or Laptop,Windows 10,Chrome 138.0.0.0,1498x843,1498x843,Temporal Distance Task,cb_01,41.0,temp_dist_trial,dist_items,qkpkxw,2.0,response,70,533.0999999999766,1078.1999999999823,1082.2999999999884,533.0999999999766,1078.1999999999823,1082.2999999999884,1.0,549.2000000000116,0.0,,Slider,Slider,4.0,object-56,temp_dist_trial,41.0,s_sh_05_1,student_shared,laptop,1.0,competing,paired,s_sh_05_1.jpg,Student,,,sub-17
Desktop or Laptop,Windows 10,Chrome 138.0.0.0,1498x843,1498x843,Temporal Distance Task,cb_01,42.0,temp_dist_trial,num_items,zn7si1,1.0,response,1_ITEM,1555.1000000000058,1550.6000000000058,1555.1000000000058,1555.1000000000058,1550.6000000000058,1555.1000000000058,1.0,0.0,0.0,,Click Response,1_count,3.0,object-46,temp_dist_trial,42.0,s_s_10_1,student_stem,3d molecule,1.0,unique,single,s_s_10_1.jpg,Student,,,sub-17
Desktop or Laptop,Windows 10,Chrome 138.0.0.0,1498x843,1498x843,Temporal Distance Task,cb_01,43.0,temp_dist_trial,num_items,zn7si1,1.0,response,1_ITEM,1119.1000000002678,1114.5,1119.1000000002678,1119.1000000002678,1114.5,1119.1000000002678,1.0,0.0,0.0,,Click Response,1_count,3.0,object-46,temp_dist_trial,43.0,s_s_08_1,student_stem,soldering iron,1.0,unique,single,s_s_08_1.jpg,Student,,,sub-17
Desktop or Laptop,Windows 10,Chrome 138.0.0.0,1498x843,1498x843,Temporal Distance Task,cb_01,44.0,temp_dist_trial,num_items,zn7si1,1.0,response,1_ITEM,1106.3999999999069,1102.5,1106.3999999999069,1106.3999999999069,1102.5,1106.3999999999069,1.0,0.0,0.0,,Click Response,1_count,3.0,object-46,temp_dist_trial,44.0,s_sh_18_1,student_shared,wall calendar,1.0,competing,single,s_sh_18_1.jpg,Student,,,sub-17
Desktop or Laptop,Windows 10,Chrome 138.0.0.0,1498x843,1498x843,Temporal Distance Task,cb_01,45.0,temp_dist_trial,num_items,zn7si1,1.0,response,1_ITEM,1094.7000000000116,1090.2000000000116,1094.7000000000116,1094.7000000000116,1090.2000000000116,1094.7000000000116,1.0,0.0,0.0,,Click Response,1_count,3.0,object-46,temp_dist_trial,45.0,s_s_15_1,student_stem,jumper cables,1.0,unique,single,s_s_15_1.jpg,Student,,,sub-17
Desktop or Laptop,Windows 10,Chrome 138.0.0.0,1498x843,1498x843,Temporal Distance Task,cb_01,46.0,temp_dist_trial,num_items,zn7si1,1.0,response,2_ITEM,1009.9000000000816,1005.5,1009.9000000000816,1009.9000000000816,1005.5,1009.9000000000816,1.0,0.0,0.0,,Click Response,2_count,5.0,object-49,temp_dist_trial,46.0,s_a_17_1,student_art,microphone,1.0,unique,paired,s_a_17_1.jpg,Student,,,sub-17
Desktop or Laptop,Windows 10,Chrome 138.0.0.0,1498x843,1498x843,Temporal Distance Task,cb_01,46.0,temp_dist_trial,dist_items,qkpkxw,2.0,info,,5.2000000001862645,0.0,5.2000000001862645,5.2000000001862645,0.0,5.2000000001862645,1.0,0.0,0.0,,Slider,Slider,4.0,object-56,temp_dist_trial,46.0,s_a_17_1,student_art,microphone,1.0,unique,paired,s_a_17_1.jpg,Student,,,sub-17
Desktop or Laptop,Windows 10,Chrome 138.0.0.0,1498x843,1498x843,Temporal Distance Task,cb_01,46.0,temp_dist_trial,dist_items,qkpkxw,2.0,continue,,1332.7000000000114,1326.6000000000058,1332.7000000000114,1332.7000000000114,1326.6000000000058,1332.7000000000114,1.0,0.0,0.0,,Click To Continue,Next button,7.0,object-60,temp_dist_trial,46.0,s_a_17_1,student_art,microphone,1.0,unique,paired,s_a_17_1.jpg,Student,,,sub-17
Desktop or Laptop,Windows 10,Chrome 138.0.0.0,1498x843,1498x843,Temporal Distance Task,cb_01,46.0,temp_dist_trial,dist_items,qkpkxw,2.0,response,63,514.8999999999942,1326.6000000000058,1332.7000000000114,514.8999999999942,1326.6000000000058,1332.7000000000114,1.0,817.8000000000177,0.0,,Slider,Slider,4.0,object-56,temp_dist_trial,46.0,s_a_17_1,student_art,microphone,1.0,unique,paired,s_a_17_1.jpg,Student,,,sub-17
Desktop or Laptop,Windows 10,Chrome 138.0.0.0,1498x843,1498x843,Temporal Distance Task,cb_01,47.0,temp_dist_trial,num_items,zn7si1,1.0,response,2_ITEM,832.3999999999942,829.6999999999823,832.3999999999942,832.3999999999942,829.6999999999823,832.3999999999942,1.0,0.0,0.0,,Click Response,2_count,5.0,object-49,temp_dist_trial,47.0,s_a_16_1,student_art,piano,1.0,unique,paired,s_a_16_1.jpg,Student,,,sub-17
Desktop or Laptop,Windows 10,Chrome 138.0.0.0,1498x843,1498x843,Temporal Distance Task,cb_01,47.0,temp_dist_trial,dist_items,qkpkxw,2.0,info,,4.899999999906869,0.0,4.899999999906869,4.899999999906869,0.0,4.899999999906869,1.0,0.0,0.0,,Slider,Slider,4.0,object-56,temp_dist_trial,47.0,s_a_16_1,student_art,piano,1.0,unique,paired,s_a_16_1.jpg,Student,,,sub-17
Desktop or Laptop,Windows 10,Chrome 138.0.0.0,1498x843,1498x843,Temporal Distance Task,cb_01,47.0,temp_dist_trial,dist_items,qkpkxw,2.0,continue,,1035.6000000000058,1029.6000000000058,1035.6000000000058,1035.6000000000058,1029.6000000000058,1035.6000000000058,1.0,0.0,0.0,,Click To Continue,Next button,7.0,object-60,temp_dist_trial,47.0,s_a_16_1,student_art,piano,1.0,unique,paired,s_a_16_1.jpg,Student,,,sub-17
Desktop or Laptop,Windows 10,Chrome 138.0.0.0,1498x843,1498x843,Temporal Distance Task,cb_01,47.0,temp_dist_trial,dist_items,qkpkxw,2.0,response,67,418.0,1029.6000000000058,1035.6000000000058,418.0,1029.6000000000058,1035.6000000000058,1.0,617.6000000000057,0.0,,Slider,Slider,4.0,object-56,temp_dist_trial,47.0,s_a_16_1,student_art,piano,1.0,unique,paired,s_a_16_1.jpg,Student,,,sub-17
Desktop or Laptop,Windows 10,Chrome 138.0.0.0,1498x843,1498x843,Temporal Distance Task,cb_01,48.0,temp_dist_trial,num_items,zn7si1,1.0,response,2_ITEM,1281.3999999999942,1278.1999999999825,1281.3999999999942,1281.3999999999942,1278.1999999999825,1281.3999999999942,1.0,0.0,0.0,,Click Response,2_count,5.0,object-49,temp_dist_trial,48.0,s_sh_01_1,student_shared,notebook,1.0,competing,single,s_sh_01_1.jpg,Student,,,sub-17
Desktop or Laptop,Windows 10,Chrome 138.0.0.0,1498x843,1498x843,Temporal Distance Task,cb_01,48.0,temp_dist_trial,dist_items,qkpkxw,2.0,info,,4.600000000093131,0.0,4.600000000093131,4.600000000093131,0.0,4.600000000093131,1.0,0.0,0.0,,Slider,Slider,4.0,object-56,temp_dist_trial,48.0,s_sh_01_1,student_shared,notebook,1.0,competing,single,s_sh_01_1.jpg,Student,,,sub-17
Desktop or Laptop,Windows 10,Chrome 138.0.0.0,1498x843,1498x843,Temporal Distance Task,cb_01,48.0,temp_dist_trial,dist_items,qkpkxw,2.0,continue,,997.2000000001863,993.7000000000116,997.2000000001863,997.2000000001863,993.7000000000116,997.2000000001863,1.0,0.0,0.0,,Click To Continue,Next button,7.0,object-60,temp_dist_trial,48.0,s_sh_01_1,student_shared,notebook,1.0,competing,single,s_sh_01_1.jpg,Student,,,sub-17
Desktop or Laptop,Windows 10,Chrome 138.0.0.0,1498x843,1498x843,Temporal Distance Task,cb_01,48.0,temp_dist_trial,dist_items,qkpkxw,2.0,response,41,454.3999999999942,993.7000000000116,998.5,454.3999999999942,993.7000000000116,998.5,1.0,544.1000000000058,0.0,,Slider,Slider,4.0,object-56,temp_dist_trial,48.0,s_sh_01_1,student_shared,notebook,1.0,competing,single,s_sh_01_1.jpg,Student,,,sub-17
Desktop or Laptop,Windows 10,Chrome 138.0.0.0,1498x843,1498x843,Temporal Distance Task,cb_01,2.0,temp_eventStart,Screen 1,dgtyxe,1.0,continue,,1332.6000000000058,1326.5,1332.6000000000058,1332.6000000000058,1326.5,1332.6000000000058,1.0,0.0,0.0,,Click To Continue,Next Button,3.0,object-43,temp_eventStart,,,Travel,,,,,,,,,sub-17
Desktop or Laptop,Windows 10,Chrome 138.0.0.0,1498x843,1498x843,Temporal Distance Task,cb_01,49.0,temp_dist_trial,num_items,zn7si1,1.0,response,2_ITEM,2747.0000000001746,2743.7999999999884,2747.0000000001746,2747.0000000001746,2743.7999999999884,2747.0000000001746,1.0,0.0,0.0,,Click Response,2_count,5.0,object-49,temp_dist_trial,1.0,t_s_02_1,travel_shared,water bottle,1.0,competing,paired,t_s_02_1.jpg,Travel,,,sub-17
Desktop or Laptop,Windows 10,Chrome 138.0.0.0,1498x843,1498x843,Temporal Distance Task,cb_01,49.0,temp_dist_trial,dist_items,qkpkxw,2.0,info,,6.099999999976717,0.0,6.099999999976717,6.099999999976717,0.0,6.099999999976717,1.0,0.0,0.0,,Slider,Slider,4.0,object-56,temp_dist_trial,1.0,t_s_02_1,travel_shared,water bottle,1.0,competing,paired,t_s_02_1.jpg,Travel,,,sub-17
Desktop or Laptop,Windows 10,Chrome 138.0.0.0,1498x843,1498x843,Temporal Distance Task,cb_01,49.0,temp_dist_trial,dist_items,qkpkxw,2.0,continue,,1592.9000000000233,1586.9000000000233,1592.9000000000233,1592.9000000000233,1586.9000000000233,1592.9000000000233,1.0,0.0,0.0,,Click To Continue,Next button,7.0,object-60,temp_dist_trial,1.0,t_s_02_1,travel_shared,water bottle,1.0,competing,paired,t_s_02_1.jpg,Travel,,,sub-17
Desktop or Laptop,Windows 10,Chrome 138.0.0.0,1498x843,1498x843,Temporal Distance Task,cb_01,49.0,temp_dist_trial,dist_items,qkpkxw,2.0,response,59,1035.7000000000116,1586.9000000000233,1592.9000000000233,1035.7000000000116,1586.9000000000233,1592.9000000000233,1.0,557.2000000000116,0.0,,Slider,Slider,4.0,object-56,temp_dist_trial,1.0,t_s_02_1,travel_shared,water bottle,1.0,competing,paired,t_s_02_1.jpg,Travel,,,sub-17
Desktop or Laptop,Windows 10,Chrome 138.0.0.0,1498x843,1498x843,Temporal Distance Task,cb_01,50.0,temp_dist_trial,num_items,zn7si1,1.0,response,2_ITEM,1753.1999999998952,1750.5,1753.1999999998952,1753.1999999998952,1750.5,1753.1999999998952,1.0,0.0,0.0,,Click Response,2_count,5.0,object-49,temp_dist_trial,2.0,t_m_18_1,travel_Miami,waterproof tote,1.0,unique,paired,t_m_18_1.jpg,Travel,,,sub-17
Desktop or Laptop,Windows 10,Chrome 138.0.0.0,1498x843,1498x843,Temporal Distance Task,cb_01,50.0,temp_dist_trial,dist_items,qkpkxw,2.0,info,,4.4000000002852175,0.0,4.4000000002852175,4.4000000002852175,0.0,4.4000000002852175,1.0,0.0,0.0,,Slider,Slider,4.0,object-56,temp_dist_trial,2.0,t_m_18_1,travel_Miami,waterproof tote,1.0,unique,paired,t_m_18_1.jpg,Travel,,,sub-17
Desktop or Laptop,Windows 10,Chrome 138.0.0.0,1498x843,1498x843,Temporal Distance Task,cb_01,50.0,temp_dist_trial,dist_items,qkpkxw,2.0,continue,,1525.1000000000058,1520.3000000000175,1525.1000000000058,1525.1000000000058,1520.3000000000175,1525.1000000000058,1.0,0.0,0.0,,Click To Continue,Next button,7.0,object-60,temp_dist_trial,2.0,t_m_18_1,travel_Miami,waterproof tote,1.0,unique,paired,t_m_18_1.jpg,Travel,,,sub-17
Desktop or Laptop,Windows 10,Chrome 138.0.0.0,1498x843,1498x843,Temporal Distance Task,cb_01,50.0,temp_dist_trial,dist_items,qkpkxw,2.0,response,62,1011.5,1520.3000000000175,1526.1000000000058,1011.5,1520.3000000000175,1526.1000000000058,1.0,514.6000000000058,0.0,,Slider,Slider,4.0,object-56,temp_dist_trial,2.0,t_m_18_1,travel_Miami,waterproof tote,1.0,unique,paired,t_m_18_1.jpg,Travel,,,sub-17
Desktop or Laptop,Windows 10,Chrome 138.0.0.0,1498x843,1498x843,Temporal Distance Task,cb_01,51.0,temp_dist_trial,num_items,zn7si1,1.0,response,1_ITEM,1102.2999999999884,1096.2999999999884,1102.2999999999884,1102.2999999999884,1096.2999999999884,1102.2999999999884,1.0,0.0,0.0,,Click Response,1_count,3.0,object-46,temp_dist_trial,3.0,t_s_01_1,travel_shared,fanny pack,1.0,competing,single,t_s_01_1.jpg,Travel,,,sub-17
Desktop or Laptop,Windows 10,Chrome 138.0.0.0,1498x843,1498x843,Temporal Distance Task,cb_01,52.0,temp_dist_trial,num_items,zn7si1,1.0,response,2_ITEM,1640.700000000099,1635.3000000000175,1640.700000000099,1640.700000000099,1635.3000000000175,1640.700000000099,1.0,0.0,0.0,,Click Response,2_count,5.0,object-49,temp_dist_trial,4.0,t_s_12_1,travel_shared,clear toiletry bag,1.0,competing,paired,t_s_12_1.jpg,Travel,,,sub-17
Desktop or Laptop,Windows 10,Chrome 138.0.0.0,1498x843,1498x843,Temporal Distance Task,cb_01,52.0,temp_dist_trial,dist_items,qkpkxw,2.0,info,,4.100000000093131,0.0,4.100000000093131,4.100000000093131,0.0,4.100000000093131,1.0,0.0,0.0,,Slider,Slider,4.0,object-56,temp_dist_trial,4.0,t_s_12_1,travel_shared,clear toiletry bag,1.0,competing,paired,t_s_12_1.jpg,Travel,,,sub-17
Desktop or Laptop,Windows 10,Chrome 138.0.0.0,1498x843,1498x843,Temporal Distance Task,cb_01,52.0,temp_dist_trial,dist_items,qkpkxw,2.0,continue,,1253.0,1247.7000000000114,1253.0,1253.0,1247.7000000000114,1253.0,1.0,0.0,0.0,,Click To Continue,Next button,7.0,object-60,temp_dist_trial,4.0,t_s_12_1,travel_shared,clear toiletry bag,1.0,competing,paired,t_s_12_1.jpg,Travel,,,sub-17
Desktop or Laptop,Windows 10,Chrome 138.0.0.0,1498x843,1498x843,Temporal Distance Task,cb_01,52.0,temp_dist_trial,dist_items,qkpkxw,2.0,response,40,666.2999999999884,1247.7000000000114,1253.7000000000114,666.2999999999884,1247.7000000000114,1253.7000000000114,1.0,587.4000000000233,0.0,,Slider,Slider,4.0,object-56,temp_dist_trial,4.0,t_s_12_1,travel_shared,clear toiletry bag,1.0,competing,paired,t_s_12_1.jpg,Travel,,,sub-17
Desktop or Laptop,Windows 10,Chrome 138.0.0.0,1498x843,1498x843,Temporal Distance Task,cb_01,53.0,temp_dist_trial,num_items,zn7si1,1.0,response,1_ITEM,1658.6000000002675,1653.5999999999767,1658.6000000002675,1658.6000000002675,1653.5999999999767,1658.6000000002675,1.0,0.0,0.0,,Click Response,1_count,3.0,object-46,temp_dist_trial,5.0,t_s_06_1,travel_shared,luggage,1.0,competing,paired,t_s_06_1.jpg,Travel,,,sub-17
Desktop or Laptop,Windows 10,Chrome 138.0.0.0,1498x843,1498x843,Temporal Distance Task,cb_01,54.0,temp_dist_trial,num_items,zn7si1,1.0,response,1_ITEM,1082.799999999901,1078.1999999999823,1082.799999999901,1082.799999999901,1078.1999999999823,1082.799999999901,1.0,0.0,0.0,,Click Response,1_count,3.0,object-46,temp_dist_trial,6.0,t_i_20_1,travel_Iceland,lantern,1.0,unique,paired,t_i_20_1.jpg,Travel,,,sub-17
Desktop or Laptop,Windows 10,Chrome 138.0.0.0,1498x843,1498x843,Temporal Distance Task,cb_01,55.0,temp_dist_trial,num_items,zn7si1,1.0,response,2_ITEM,878.2000000001863,872.2000000000116,878.2000000001863,878.2000000001863,872.2000000000116,878.2000000001863,1.0,0.0,0.0,,Click Response,2_count,5.0,object-49,temp_dist_trial,7.0,t_s_16_1,travel_shared,chapstick,1.0,competing,paired,t_s_16_1.jpg,Travel,,,sub-17
Desktop or Laptop,Windows 10,Chrome 138.0.0.0,1498x843,1498x843,Temporal Distance Task,cb_01,55.0,temp_dist_trial,dist_items,qkpkxw,2.0,info,,5.0,0.0,5.0,5.0,0.0,5.0,1.0,0.0,0.0,,Slider,Slider,4.0,object-56,temp_dist_trial,7.0,t_s_16_1,travel_shared,chapstick,1.0,competing,paired,t_s_16_1.jpg,Travel,,,sub-17
Desktop or Laptop,Windows 10,Chrome 138.0.0.0,1498x843,1498x843,Temporal Distance Task,cb_01,55.0,temp_dist_trial,dist_items,qkpkxw,2.0,continue,,1125.0,1120.6000000000058,1125.0,1125.0,1120.6000000000058,1125.0,1.0,0.0,0.0,,Click To Continue,Next button,7.0,object-60,temp_dist_trial,7.0,t_s_16_1,travel_shared,chapstick,1.0,competing,paired,t_s_16_1.jpg,Travel,,,sub-17
Desktop or Laptop,Windows 10,Chrome 138.0.0.0,1498x843,1498x843,Temporal Distance Task,cb_01,55.0,temp_dist_trial,dist_items,qkpkxw,2.0,response,68,460.2999999999884,1120.6000000000058,1125.5,460.2999999999884,1120.6000000000058,1125.5,1.0,665.2000000000116,0.0,,Slider,Slider,4.0,object-56,temp_dist_trial,7.0,t_s_16_1,travel_shared,chapstick,1.0,competing,paired,t_s_16_1.jpg,Travel,,,sub-17
Desktop or Laptop,Windows 10,Chrome 138.0.0.0,1498x843,1498x843,Temporal Distance Task,cb_01,56.0,temp_dist_trial,num_items,zn7si1,1.0,response,1_ITEM,1244.3999999999942,1241.6999999999825,1244.3999999999942,1244.3999999999942,1241.6999999999825,1244.3999999999942,1.0,0.0,0.0,,Click Response,1_count,3.0,object-46,temp_dist_trial,8.0,t_s_07_1,travel_shared,phone charger cable,1.0,competing,paired,t_s_07_1.jpg,Travel,,,sub-17
Desktop or Laptop,Windows 10,Chrome 138.0.0.0,1498x843,1498x843,Temporal Distance Task,cb_01,57.0,temp_dist_trial,num_items,zn7si1,1.0,response,2_ITEM,1511.7000000001865,1508.1000000000058,1511.7000000001865,1511.7000000001865,1508.1000000000058,1511.7000000001865,1.0,0.0,0.0,,Click Response,2_count,5.0,object-49,temp_dist_trial,9.0,t_m_17_1,travel_Miami,water gun,1.0,unique,paired,t_m_17_1.jpg,Travel,,,sub-17
Desktop or Laptop,Windows 10,Chrome 138.0.0.0,1498x843,1498x843,Temporal Distance Task,cb_01,57.0,temp_dist_trial,dist_items,qkpkxw,2.0,info,,4.7000000001862645,0.0,4.7000000001862645,4.7000000001862645,0.0,4.7000000001862645,1.0,0.0,0.0,,Slider,Slider,4.0,object-56,temp_dist_trial,9.0,t_m_17_1,travel_Miami,water gun,1.0,unique,paired,t_m_17_1.jpg,Travel,,,sub-17
Desktop or Laptop,Windows 10,Chrome 138.0.0.0,1498x843,1498x843,Temporal Distance Task,cb_01,57.0,temp_dist_trial,dist_items,qkpkxw,2.0,continue,,1084.1000000000058,1078.1000000000058,1084.1000000000058,1084.1000000000058,1078.1000000000058,1084.1000000000058,1.0,0.0,0.0,,Click To Continue,Next button,7.0,object-60,temp_dist_trial,9.0,t_m_17_1,travel_Miami,water gun,1.0,unique,paired,t_m_17_1.jpg,Travel,,,sub-17
Desktop or Laptop,Windows 10,Chrome 138.0.0.0,1498x843,1498x843,Temporal Distance Task,cb_01,57.0,temp_dist_trial,dist_items,qkpkxw,2.0,response,40,436.1000000000058,1078.1000000000058,1084.1000000000058,436.1000000000058,1078.1000000000058,1084.1000000000058,1.0,648.0,0.0,,Slider,Slider,4.0,object-56,temp_dist_trial,9.0,t_m_17_1,travel_Miami,water gun,1.0,unique,paired,t_m_17_1.jpg,Travel,,,sub-17
Desktop or Laptop,Windows 10,Chrome 138.0.0.0,1498x843,1498x843,Temporal Distance Task,cb_01,58.0,temp_dist_trial,num_items,zn7si1,1.0,response,2_ITEM,1223.1000000001804,1217.7999999999886,1223.1000000001804,1223.1000000001804,1217.7999999999886,1223.1000000001804,1.0,0.0,0.0,,Click Response,2_count,5.0,object-49,temp_dist_trial,10.0,t_m_03_1,travel_Miami,wetsuit,1.0,unique,single,t_m_03_1.jpg,Travel,,,sub-17
Desktop or Laptop,Windows 10,Chrome 138.0.0.0,1498x843,1498x843,Temporal Distance Task,cb_01,58.0,temp_dist_trial,dist_items,qkpkxw,2.0,info,,4.7999999999883585,0.0,4.7999999999883585,4.7999999999883585,0.0,4.7999999999883585,1.0,0.0,0.0,,Slider,Slider,4.0,object-56,temp_dist_trial,10.0,t_m_03_1,travel_Miami,wetsuit,1.0,unique,single,t_m_03_1.jpg,Travel,,,sub-17
Desktop or Laptop,Windows 10,Chrome 138.0.0.0,1498x843,1498x843,Temporal Distance Task,cb_01,58.0,temp_dist_trial,dist_items,qkpkxw,2.0,continue,,1056.6999999998952,1054.0,1056.6999999998952,1056.6999999998952,1054.0,1056.6999999998952,1.0,0.0,0.0,,Click To Continue,Next button,7.0,object-60,temp_dist_trial,10.0,t_m_03_1,travel_Miami,wetsuit,1.0,unique,single,t_m_03_1.jpg,Travel,,,sub-17
Desktop or Laptop,Windows 10,Chrome 138.0.0.0,1498x843,1498x843,Temporal Distance Task,cb_01,58.0,temp_dist_trial,dist_items,qkpkxw,2.0,response,37,448.19999999998254,1054.0,1060.0,448.19999999998254,1054.0,1060.0,1.0,611.8000000000175,0.0,,Slider,Slider,4.0,object-56,temp_dist_trial,10.0,t_m_03_1,travel_Miami,wetsuit,1.0,unique,single,t_m_03_1.jpg,Travel,,,sub-17
Desktop or Laptop,Windows 10,Chrome 138.0.0.0,1498x843,1498x843,Temporal Distance Task,cb_01,59.0,temp_dist_trial,num_items,zn7si1,1.0,response,1_ITEM,1241.6999999999534,1235.5999999999767,1241.6999999999534,1241.6999999999534,1235.5999999999767,1241.6999999999534,1.0,0.0,0.0,,Click Response,1_count,3.0,object-46,temp_dist_trial,11.0,t_i_16_1,travel_Iceland,skis,1.0,unique,single,t_i_16_1.jpg,Travel,,,sub-17
Desktop or Laptop,Windows 10,Chrome 138.0.0.0,1498x843,1498x843,Temporal Distance Task,cb_01,60.0,temp_dist_trial,num_items,zn7si1,1.0,response,1_ITEM,1779.3999999999066,1774.7000000000116,1779.3999999999066,1779.3999999999066,1774.7000000000116,1779.3999999999066,1.0,0.0,0.0,,Click Response,1_count,3.0,object-46,temp_dist_trial,12.0,t_s_09_1,travel_shared,wallet,1.0,competing,paired,t_s_09_1.jpg,Travel,,,sub-17
Desktop or Laptop,Windows 10,Chrome 138.0.0.0,1498x843,1498x843,Temporal Distance Task,cb_01,61.0,temp_dist_trial,num_items,zn7si1,1.0,response,1_ITEM,2083.6000000000063,2077.6000000000063,2083.6000000000063,2083.6000000000063,2077.6000000000063,2083.6000000000063,1.0,0.0,0.0,,Click Response,1_count,3.0,object-46,temp_dist_trial,13.0,t_s_13_1,travel_shared,contact lens case,1.0,competing,single,t_s_13_1.jpg,Travel,,,sub-17
Desktop or Laptop,Windows 10,Chrome 138.0.0.0,1498x843,1498x843,Temporal Distance Task,cb_01,62.0,temp_dist_trial,num_items,zn7si1,1.0,response,1_ITEM,918.2000000000116,914.6000000000058,918.2000000000116,918.2000000000116,914.6000000000058,918.2000000000116,1.0,0.0,0.0,,Click Response,1_count,3.0,object-46,temp_dist_trial,14.0,t_i_18_1,travel_Iceland,ski mask,1.0,unique,single,t_i_18_1.jpg,Travel,,,sub-17
Desktop or Laptop,Windows 10,Chrome 138.0.0.0,1498x843,1498x843,Temporal Distance Task,cb_01,63.0,temp_dist_trial,num_items,zn7si1,1.0,response,2_ITEM,1294.500000000291,1290.1000000000058,1294.500000000291,1294.500000000291,1290.1000000000058,1294.500000000291,1.0,0.0,0.0,,Click Response,2_count,5.0,object-49,temp_dist_trial,15.0,t_s_05_1,travel_shared,neck pillow,1.0,competing,paired,t_s_05_1.jpg,Travel,,,sub-17
Desktop or Laptop,Windows 10,Chrome 138.0.0.0,1498x843,1498x843,Temporal Distance Task,cb_01,63.0,temp_dist_trial,dist_items,qkpkxw,2.0,info,,4.400000000197907,0.0,4.400000000197907,4.400000000197907,0.0,4.400000000197907,1.0,0.0,0.0,,Slider,Slider,4.0,object-56,temp_dist_trial,15.0,t_s_05_1,travel_shared,neck pillow,1.0,competing,paired,t_s_05_1.jpg,Travel,,,sub-17
Desktop or Laptop,Windows 10,Chrome 138.0.0.0,1498x843,1498x843,Temporal Distance Task,cb_01,63.0,temp_dist_trial,dist_items,qkpkxw,2.0,continue,,921.0000000000293,914.9000000000232,921.0000000000293,921.0000000000293,914.9000000000232,921.0000000000293,1.0,0.0,0.0,,Click To Continue,Next button,7.0,object-60,temp_dist_trial,15.0,t_s_05_1,travel_shared,neck pillow,1.0,competing,paired,t_s_05_1.jpg,Travel,,,sub-17
Desktop or Laptop,Windows 10,Chrome 138.0.0.0,1498x843,1498x843,Temporal Distance Task,cb_01,63.0,temp_dist_trial,dist_items,qkpkxw,2.0,response,70,417.80000000001746,914.9000000000232,921.0000000000293,417.80000000001746,914.9000000000232,921.0000000000293,1.0,503.2000000000117,0.0,,Slider,Slider,4.0,object-56,temp_dist_trial,15.0,t_s_05_1,travel_shared,neck pillow,1.0,competing,paired,t_s_05_1.jpg,Travel,,,sub-17
Desktop or Laptop,Windows 10,Chrome 138.0.0.0,1498x843,1498x843,Temporal Distance Task,cb_01,64.0,temp_dist_trial,num_items,zn7si1,1.0,response,2_ITEM,1011.3999999999942,1005.3999999999942,1011.3999999999942,1011.3999999999942,1005.3999999999942,1011.3999999999942,1.0,0.0,0.0,,Click Response,2_count,5.0,object-49,temp_dist_trial,16.0,t_i_19_1,travel_Iceland,rope,1.0,unique,paired,t_i_19_1.jpg,Travel,,,sub-17
Desktop or Laptop,Windows 10,Chrome 138.0.0.0,1498x843,1498x843,Temporal Distance Task,cb_01,64.0,temp_dist_trial,dist_items,qkpkxw,2.0,info,,4.4000000002852175,0.0,4.4000000002852175,4.4000000002852175,0.0,4.4000000002852175,1.0,0.0,0.0,,Slider,Slider,4.0,object-56,temp_dist_trial,16.0,t_i_19_1,travel_Iceland,rope,1.0,unique,paired,t_i_19_1.jpg,Travel,,,sub-17
Desktop or Laptop,Windows 10,Chrome 138.0.0.0,1498x843,1498x843,Temporal Distance Task,cb_01,64.0,temp_dist_trial,dist_items,qkpkxw,2.0,continue,,1135.9999999999127,1132.7000000000114,1135.9999999999127,1135.9999999999127,1132.7000000000114,1135.9999999999127,1.0,0.0,0.0,,Click To Continue,Next button,7.0,object-60,temp_dist_trial,16.0,t_i_19_1,travel_Iceland,rope,1.0,unique,paired,t_i_19_1.jpg,Travel,,,sub-17
Desktop or Laptop,Windows 10,Chrome 138.0.0.0,1498x843,1498x843,Temporal Distance Task,cb_01,64.0,temp_dist_trial,dist_items,qkpkxw,2.0,response,36,684.5,1132.7000000000114,1136.4999999999127,684.5,1132.7000000000114,1136.4999999999127,1.0,451.9999999999128,0.0,,Slider,Slider,4.0,object-56,temp_dist_trial,16.0,t_i_19_1,travel_Iceland,rope,1.0,unique,paired,t_i_19_1.jpg,Travel,,,sub-17
Desktop or Laptop,Windows 10,Chrome 138.0.0.0,1498x843,1498x843,Temporal Distance Task,cb_01,65.0,temp_dist_trial,num_items,zn7si1,1.0,response,1_ITEM,1077.2000000002736,1072.1000000000058,1077.2000000002736,1077.2000000002736,1072.1000000000058,1077.2000000002736,1.0,0.0,0.0,,Click Response,1_count,3.0,object-46,temp_dist_trial,17.0,t_i_08_1,travel_Iceland,thick socks,1.0,unique,paired,t_i_08_1.jpg,Travel,,,sub-17
Desktop or Laptop,Windows 10,Chrome 138.0.0.0,1498x843,1498x843,Temporal Distance Task,cb_01,66.0,temp_dist_trial,num_items,zn7si1,1.0,response,2_ITEM,967.000000000291,963.2000000000116,967.000000000291,967.000000000291,963.2000000000116,967.000000000291,1.0,0.0,0.0,,Click Response,2_count,5.0,object-49,temp_dist_trial,18.0,t_m_01_1,travel_Miami,sandals,1.0,unique,paired,t_m_01_1.jpg,Travel,,,sub-17
Desktop or Laptop,Windows 10,Chrome 138.0.0.0,1498x843,1498x843,Temporal Distance Task,cb_01,66.0,temp_dist_trial,dist_items,qkpkxw,2.0,info,,4.000000000291038,0.0,4.000000000291038,4.000000000291038,0.0,4.000000000291038,1.0,0.0,0.0,,Slider,Slider,4.0,object-56,temp_dist_trial,18.0,t_m_01_1,travel_Miami,sandals,1.0,unique,paired,t_m_01_1.jpg,Travel,,,sub-17
Desktop or Laptop,Windows 10,Chrome 138.0.0.0,1498x843,1498x843,Temporal Distance Task,cb_01,66.0,temp_dist_trial,dist_items,qkpkxw,2.0,continue,,955.500000000291,950.9000000000232,955.500000000291,955.500000000291,950.9000000000232,955.500000000291,1.0,0.0,0.0,,Click To Continue,Next button,7.0,object-60,temp_dist_trial,18.0,t_m_01_1,travel_Miami,sandals,1.0,unique,paired,t_m_01_1.jpg,Travel,,,sub-17
Desktop or Laptop,Windows 10,Chrome 138.0.0.0,1498x843,1498x843,Temporal Distance Task,cb_01,66.0,temp_dist_trial,dist_items,qkpkxw,2.0,response,61,496.7000000000117,950.9000000000232,956.500000000291,496.7000000000117,950.9000000000232,956.500000000291,1.0,459.8000000002794,0.0,,Slider,Slider,4.0,object-56,temp_dist_trial,18.0,t_m_01_1,travel_Miami,sandals,1.0,unique,paired,t_m_01_1.jpg,Travel,,,sub-17
Desktop or Laptop,Windows 10,Chrome 138.0.0.0,1498x843,1498x843,Temporal Distance Task,cb_01,67.0,temp_dist_trial,num_items,zn7si1,1.0,response,1_ITEM,1410.9000000000815,1405.2999999999884,1410.9000000000815,1410.9000000000815,1405.2999999999884,1410.9000000000815,1.0,0.0,0.0,,Click Response,1_count,3.0,object-46,temp_dist_trial,19.0,t_i_14_1,travel_Iceland,snow pants,1.0,unique,single,t_i_14_1.jpg,Travel,,,sub-17
Desktop or Laptop,Windows 10,Chrome 138.0.0.0,1498x843,1498x843,Temporal Distance Task,cb_01,68.0,temp_dist_trial,num_items,zn7si1,1.0,response,2_ITEM,944.4000000000816,938.7999999999884,944.4000000000816,944.4000000000816,938.7999999999884,944.4000000000816,1.0,0.0,0.0,,Click Response,2_count,5.0,object-49,temp_dist_trial,20.0,t_s_22_1,travel_shared,belt,1.0,competing,paired,t_s_22_1.jpg,Travel,,,sub-17
Desktop or Laptop,Windows 10,Chrome 138.0.0.0,1498x843,1498x843,Temporal Distance Task,cb_01,68.0,temp_dist_trial,dist_items,qkpkxw,2.0,info,,3.800000000192085,0.0,3.800000000192085,3.800000000192085,0.0,3.800000000192085,1.0,0.0,0.0,,Slider,Slider,4.0,object-56,temp_dist_trial,20.0,t_s_22_1,travel_shared,belt,1.0,competing,paired,t_s_22_1.jpg,Travel,,,sub-17
Desktop or Laptop,Windows 10,Chrome 138.0.0.0,1498x843,1498x843,Temporal Distance Task,cb_01,68.0,temp_dist_trial,dist_items,qkpkxw,2.0,continue,,919.2000000000992,914.6000000000058,919.2000000000992,919.2000000000992,914.6000000000058,919.2000000000992,1.0,0.0,0.0,,Click To Continue,Next button,7.0,object-60,temp_dist_trial,20.0,t_s_22_1,travel_shared,belt,1.0,competing,paired,t_s_22_1.jpg,Travel,,,sub-17
Desktop or Laptop,Windows 10,Chrome 138.0.0.0,1498x843,1498x843,Temporal Distance Task,cb_01,68.0,temp_dist_trial,dist_items,qkpkxw,2.0,response,68,399.7000000000117,914.6000000000058,919.9999999999127,399.7000000000117,914.6000000000058,919.9999999999127,1.0,520.2999999999009,0.0,,Slider,Slider,4.0,object-56,temp_dist_trial,20.0,t_s_22_1,travel_shared,belt,1.0,competing,paired,t_s_22_1.jpg,Travel,,,sub-17
Desktop or Laptop,Windows 10,Chrome 138.0.0.0,1498x843,1498x843,Temporal Distance Task,cb_01,69.0,temp_dist_trial,num_items,zn7si1,1.0,response,1_ITEM,973.1000000000932,969.1000000000058,973.1000000000932,973.1000000000932,969.1000000000058,973.1000000000932,1.0,0.0,0.0,,Click Response,1_count,3.0,object-46,temp_dist_trial,21.0,t_i_13_1,travel_Iceland,sleeping bag,1.0,unique,paired,t_i_13_1.jpg,Travel,,,sub-17
Desktop or Laptop,Windows 10,Chrome 138.0.0.0,1498x843,1498x843,Temporal Distance Task,cb_01,70.0,temp_dist_trial,num_items,zn7si1,1.0,response,1_ITEM,1308.1000000000058,1302.1000000000058,1308.1000000000058,1308.1000000000058,1302.1000000000058,1308.1000000000058,1.0,0.0,0.0,,Click Response,1_count,3.0,object-46,temp_dist_trial,22.0,t_s_24_1,travel_shared,ear plugs,1.0,competing,single,t_s_24_1.jpg,Travel,,,sub-17
Desktop or Laptop,Windows 10,Chrome 138.0.0.0,1498x843,1498x843,Temporal Distance Task,cb_01,71.0,temp_dist_trial,num_items,zn7si1,1.0,response,2_ITEM,1468.0000000001746,1465.8999999999942,1468.0000000001746,1468.0000000001746,1465.8999999999942,1468.0000000001746,1.0,0.0,0.0,,Click Response,2_count,5.0,object-49,temp_dist_trial,23.0,t_i_10_1,travel_Iceland,trekking poles,1.0,unique,paired,t_i_10_1.jpg,Travel,,,sub-17
Desktop or Laptop,Windows 10,Chrome 138.0.0.0,1498x843,1498x843,Temporal Distance Task,cb_01,71.0,temp_dist_trial,dist_items,qkpkxw,2.0,info,,4.300000000104774,0.0,4.300000000104774,4.300000000104774,0.0,4.300000000104774,1.0,0.0,0.0,,Slider,Slider,4.0,object-56,temp_dist_trial,23.0,t_i_10_1,travel_Iceland,trekking poles,1.0,unique,paired,t_i_10_1.jpg,Travel,,,sub-17
Desktop or Laptop,Windows 10,Chrome 138.0.0.0,1498x843,1498x843,Temporal Distance Task,cb_01,71.0,temp_dist_trial,dist_items,qkpkxw,2.0,continue,,1029.6000000000058,1023.6000000000058,1029.6000000000058,1029.6000000000058,1023.6000000000058,1029.6000000000058,1.0,0.0,0.0,,Click To Continue,Next button,7.0,object-60,temp_dist_trial,23.0,t_i_10_1,travel_Iceland,trekking poles,1.0,unique,paired,t_i_10_1.jpg,Travel,,,sub-17
Desktop or Laptop,Windows 10,Chrome 138.0.0.0,1498x843,1498x843,Temporal Distance Task,cb_01,71.0,temp_dist_trial,dist_items,qkpkxw,2.0,response,40,411.80000000001746,1023.6000000000058,1029.6000000000058,411.80000000001746,1023.6000000000058,1029.6000000000058,1.0,617.7999999999884,0.0,,Slider,Slider,4.0,object-56,temp_dist_trial,23.0,t_i_10_1,travel_Iceland,trekking poles,1.0,unique,paired,t_i_10_1.jpg,Travel,,,sub-17
Desktop or Laptop,Windows 10,Chrome 138.0.0.0,1498x843,1498x843,Temporal Distance Task,cb_01,72.0,temp_dist_trial,num_items,zn7si1,1.0,response,1_ITEM,1322.4000000002852,1320.3999999999942,1322.4000000002852,1322.4000000002852,1320.3999999999942,1322.4000000002852,1.0,0.0,0.0,,Click Response,1_count,3.0,object-46,temp_dist_trial,24.0,t_i_05_1,travel_Iceland,hiking boots,1.0,unique,paired,t_i_05_1.jpg,Travel,,,sub-17
Desktop or Laptop,Windows 10,Chrome 138.0.0.0,1498x843,1498x843,Temporal Distance Task,cb_01,73.0,temp_dist_trial,num_items,zn7si1,1.0,response,1_ITEM,1614.0000000001746,1611.1999999999825,1614.0000000001746,1614.0000000001746,1611.1999999999825,1614.0000000001746,1.0,0.0,0.0,,Click Response,1_count,3.0,object-46,temp_dist_trial,25.0,t_s_10_1,travel_shared,luggage lock,1.0,competing,single,t_s_10_1.jpg,Travel,,,sub-17
Desktop or Laptop,Windows 10,Chrome 138.0.0.0,1498x843,1498x843,Temporal Distance Task,cb_01,74.0,temp_dist_trial,num_items,zn7si1,1.0,response,2_ITEM,1059.3999999999069,1053.8999999999942,1059.3999999999069,1059.3999999999069,1053.8999999999942,1059.3999999999069,1.0,0.0,0.0,,Click Response,2_count,5.0,object-49,temp_dist_trial,26.0,t_m_07_1,travel_Miami,sunglasses,1.0,unique,single,t_m_07_1.jpg,Travel,,,sub-17
Desktop or Laptop,Windows 10,Chrome 138.0.0.0,1498x843,1498x843,Temporal Distance Task,cb_01,74.0,temp_dist_trial,dist_items,qkpkxw,2.0,info,,3.800000000104774,0.0,3.800000000104774,3.800000000104774,0.0,3.800000000104774,1.0,0.0,0.0,,Slider,Slider,4.0,object-56,temp_dist_trial,26.0,t_m_07_1,travel_Miami,sunglasses,1.0,unique,single,t_m_07_1.jpg,Travel,,,sub-17
Desktop or Laptop,Windows 10,Chrome 138.0.0.0,1498x843,1498x843,Temporal Distance Task,cb_01,74.0,temp_dist_trial,dist_items,qkpkxw,2.0,continue,,896.5000000000291,890.4000000000232,896.5000000000291,896.5000000000291,890.4000000000232,896.5000000000291,1.0,0.0,0.0,,Click To Continue,Next button,7.0,object-60,temp_dist_trial,26.0,t_m_07_1,travel_Miami,sunglasses,1.0,unique,single,t_m_07_1.jpg,Travel,,,sub-17
Desktop or Laptop,Windows 10,Chrome 138.0.0.0,1498x843,1498x843,Temporal Distance Task,cb_01,74.0,temp_dist_trial,dist_items,qkpkxw,2.0,response,59,424.0,890.4000000000232,896.5000000000291,424.0,890.4000000000232,896.5000000000291,1.0,472.5000000000292,0.0,,Slider,Slider,4.0,object-56,temp_dist_trial,26.0,t_m_07_1,travel_Miami,sunglasses,1.0,unique,single,t_m_07_1.jpg,Travel,,,sub-17
Desktop or Laptop,Windows 10,Chrome 138.0.0.0,1498x843,1498x843,Temporal Distance Task,cb_01,75.0,temp_dist_trial,num_items,zn7si1,1.0,response,2_ITEM,952.7999999999884,950.8999999999942,952.7999999999884,952.7999999999884,950.8999999999942,952.7999999999884,1.0,0.0,0.0,,Click Response,2_count,5.0,object-49,temp_dist_trial,27.0,t_i_09_1,travel_Iceland,ear muffs,1.0,unique,paired,t_i_09_1.jpg,Travel,,,sub-17
Desktop or Laptop,Windows 10,Chrome 138.0.0.0,1498x843,1498x843,Temporal Distance Task,cb_01,75.0,temp_dist_trial,dist_items,qkpkxw,2.0,info,,5.400000000197908,0.0,5.400000000197908,5.400000000197908,0.0,5.400000000197908,1.0,0.0,0.0,,Slider,Slider,4.0,object-56,temp_dist_trial,27.0,t_i_09_1,travel_Iceland,ear muffs,1.0,unique,paired,t_i_09_1.jpg,Travel,,,sub-17
Desktop or Laptop,Windows 10,Chrome 138.0.0.0,1498x843,1498x843,Temporal Distance Task,cb_01,75.0,temp_dist_trial,dist_items,qkpkxw,2.0,continue,,1102.3000000000177,1096.3000000000177,1102.3000000000177,1102.3000000000177,1096.3000000000177,1102.3000000000177,1.0,0.0,0.0,,Click To Continue,Next button,7.0,object-60,temp_dist_trial,27.0,t_i_09_1,travel_Iceland,ear muffs,1.0,unique,paired,t_i_09_1.jpg,Travel,,,sub-17
Desktop or Laptop,Windows 10,Chrome 138.0.0.0,1498x843,1498x843,Temporal Distance Task,cb_01,75.0,temp_dist_trial,dist_items,qkpkxw,2.0,response,69,442.1000000000058,1096.3000000000177,1102.3000000000177,442.1000000000058,1096.3000000000177,1102.3000000000177,1.0,660.2000000000116,0.0,,Slider,Slider,4.0,object-56,temp_dist_trial,27.0,t_i_09_1,travel_Iceland,ear muffs,1.0,unique,paired,t_i_09_1.jpg,Travel,,,sub-17
Desktop or Laptop,Windows 10,Chrome 138.0.0.0,1498x843,1498x843,Temporal Distance Task,cb_01,76.0,temp_dist_trial,num_items,zn7si1,1.0,response,1_ITEM,1329.8999999999942,1326.3999999999942,1329.8999999999942,1329.8999999999942,1326.3999999999942,1329.8999999999942,1.0,0.0,0.0,,Click Response,1_count,3.0,object-46,temp_dist_trial,28.0,t_m_06_1,travel_Miami,handheld fan,1.0,unique,single,t_m_06_1.jpg,Travel,,,sub-17
Desktop or Laptop,Windows 10,Chrome 138.0.0.0,1498x843,1498x843,Temporal Distance Task,cb_01,77.0,temp_dist_trial,num_items,zn7si1,1.0,response,1_ITEM,1100.1000000000058,1096.6000000000058,1100.1000000000058,1100.1000000000058,1096.6000000000058,1100.1000000000058,1.0,0.0,0.0,,Click Response,1_count,3.0,object-46,temp_dist_trial,29.0,t_s_20_1,travel_shared,travel pill case,1.0,competing,paired,t_s_20_1.jpg,Travel,,,sub-17
Desktop or Laptop,Windows 10,Chrome 138.0.0.0,1498x843,1498x843,Temporal Distance Task,cb_01,78.0,temp_dist_trial,num_items,zn7si1,1.0,response,1_ITEM,1112.4999999999127,1108.3999999999942,1112.4999999999127,1112.4999999999127,1108.3999999999942,1112.4999999999127,1.0,0.0,0.0,,Click Response,1_count,3.0,object-46,temp_dist_trial,30.0,t_s_23_1,travel_shared,ball cap,1.0,competing,single,t_s_23_1.jpg,Travel,,,sub-17
Desktop or Laptop,Windows 10,Chrome 138.0.0.0,1498x843,1498x843,Temporal Distance Task,cb_01,79.0,temp_dist_trial,num_items,zn7si1,1.0,response,2_ITEM,1144.8999999999942,1138.7999999999886,1144.8999999999942,1144.8999999999942,1138.7999999999886,1144.8999999999942,1.0,0.0,0.0,,Click Response,2_count,5.0,object-49,temp_dist_trial,31.0,t_s_14_1,travel_shared,hand sanitizer,1.0,competing,paired,t_s_14_1.jpg,Travel,,,sub-17
Desktop or Laptop,Windows 10,Chrome 138.0.0.0,1498x843,1498x843,Temporal Distance Task,cb_01,79.0,temp_dist_trial,dist_items,qkpkxw,2.0,info,,3.700000000186265,0.0,3.700000000186265,3.700000000186265,0.0,3.700000000186265,1.0,0.0,0.0,,Slider,Slider,4.0,object-56,temp_dist_trial,31.0,t_s_14_1,travel_shared,hand sanitizer,1.0,competing,paired,t_s_14_1.jpg,Travel,,,sub-17
Desktop or Laptop,Windows 10,Chrome 138.0.0.0,1498x843,1498x843,Temporal Distance Task,cb_01,79.0,temp_dist_trial,dist_items,qkpkxw,2.0,continue,,886.0,884.2999999999884,886.0,886.0,884.2999999999884,886.0,1.0,0.0,0.0,,Click To Continue,Next button,7.0,object-60,temp_dist_trial,31.0,t_s_14_1,travel_shared,hand sanitizer,1.0,competing,paired,t_s_14_1.jpg,Travel,,,sub-17
Desktop or Laptop,Windows 10,Chrome 138.0.0.0,1498x843,1498x843,Temporal Distance Task,cb_01,79.0,temp_dist_trial,dist_items,qkpkxw,2.0,response,38,405.7999999999884,884.2999999999884,886.5,405.7999999999884,884.2999999999884,886.5,1.0,480.7000000000117,0.0,,Slider,Slider,4.0,object-56,temp_dist_trial,31.0,t_s_14_1,travel_shared,hand sanitizer,1.0,competing,paired,t_s_14_1.jpg,Travel,,,sub-17
Desktop or Laptop,Windows 10,Chrome 138.0.0.0,1498x843,1498x843,Temporal Distance Task,cb_01,80.0,temp_dist_trial,num_items,zn7si1,1.0,response,2_ITEM,863.8000000001047,860.2000000000116,863.8000000001047,863.8000000001047,860.2000000000116,863.8000000001047,1.0,0.0,0.0,,Click Response,2_count,5.0,object-49,temp_dist_trial,32.0,t_s_21_1,travel_shared,umbrella,1.0,competing,paired,t_s_21_1.jpg,Travel,,,sub-17
Desktop or Laptop,Windows 10,Chrome 138.0.0.0,1498x843,1498x843,Temporal Distance Task,cb_01,80.0,temp_dist_trial,dist_items,qkpkxw,2.0,info,,3.7000000000116415,0.0,3.7000000000116415,3.7000000000116415,0.0,3.7000000000116415,1.0,0.0,0.0,,Slider,Slider,4.0,object-56,temp_dist_trial,32.0,t_s_21_1,travel_shared,umbrella,1.0,competing,paired,t_s_21_1.jpg,Travel,,,sub-17
Desktop or Laptop,Windows 10,Chrome 138.0.0.0,1498x843,1498x843,Temporal Distance Task,cb_01,80.0,temp_dist_trial,dist_items,qkpkxw,2.0,continue,,931.2000000000116,926.7000000000116,931.2000000000116,931.2000000000116,926.7000000000116,931.2000000000116,1.0,0.0,0.0,,Click To Continue,Next button,7.0,object-60,temp_dist_trial,32.0,t_s_21_1,travel_shared,umbrella,1.0,competing,paired,t_s_21_1.jpg,Travel,,,sub-17
Desktop or Laptop,Windows 10,Chrome 138.0.0.0,1498x843,1498x843,Temporal Distance Task,cb_01,80.0,temp_dist_trial,dist_items,qkpkxw,2.0,response,57,417.90000000002334,926.7000000000116,932.000000000291,417.90000000002334,926.7000000000116,932.000000000291,1.0,514.1000000002678,0.0,,Slider,Slider,4.0,object-56,temp_dist_trial,32.0,t_s_21_1,travel_shared,umbrella,1.0,competing,paired,t_s_21_1.jpg,Travel,,,sub-17
Desktop or Laptop,Windows 10,Chrome 138.0.0.0,1498x843,1498x843,Temporal Distance Task,cb_01,81.0,temp_dist_trial,num_items,zn7si1,1.0,response,2_ITEM,957.0,951.0,957.0,957.0,951.0,957.0,1.0,0.0,0.0,,Click Response,2_count,5.0,object-49,temp_dist_trial,33.0,t_s_08_1,travel_shared,hand lotion,1.0,competing,paired,t_s_08_1.jpg,Travel,,,sub-17
Desktop or Laptop,Windows 10,Chrome 138.0.0.0,1498x843,1498x843,Temporal Distance Task,cb_01,81.0,temp_dist_trial,dist_items,qkpkxw,2.0,info,,3.4000000000814907,0.0,3.4000000000814907,3.4000000000814907,0.0,3.4000000000814907,1.0,0.0,0.0,,Slider,Slider,4.0,object-56,temp_dist_trial,33.0,t_s_08_1,travel_shared,hand lotion,1.0,competing,paired,t_s_08_1.jpg,Travel,,,sub-17
Desktop or Laptop,Windows 10,Chrome 138.0.0.0,1498x843,1498x843,Temporal Distance Task,cb_01,81.0,temp_dist_trial,dist_items,qkpkxw,2.0,continue,,926.6999999999533,920.5999999999768,926.6999999999533,926.6999999999533,920.5999999999768,926.6999999999533,1.0,0.0,0.0,,Click To Continue,Next button,7.0,object-60,temp_dist_trial,33.0,t_s_08_1,travel_shared,hand lotion,1.0,competing,paired,t_s_08_1.jpg,Travel,,,sub-17
Desktop or Laptop,Windows 10,Chrome 138.0.0.0,1498x843,1498x843,Temporal Distance Task,cb_01,81.0,temp_dist_trial,dist_items,qkpkxw,2.0,response,59,369.3999999999942,920.5999999999768,926.6999999999533,369.3999999999942,920.5999999999768,926.6999999999533,1.0,557.2999999999594,0.0,,Slider,Slider,4.0,object-56,temp_dist_trial,33.0,t_s_08_1,travel_shared,hand lotion,1.0,competing,paired,t_s_08_1.jpg,Travel,,,sub-17
Desktop or Laptop,Windows 10,Chrome 138.0.0.0,1498x843,1498x843,Temporal Distance Task,cb_01,82.0,temp_dist_trial,num_items,zn7si1,1.0,response,1_ITEM,938.7000000000116,932.7000000000116,938.7000000000116,938.7000000000116,932.7000000000116,938.7000000000116,1.0,0.0,0.0,,Click Response,1_count,3.0,object-46,temp_dist_trial,34.0,t_i_15_1,travel_Iceland,compass,1.0,unique,paired,t_i_15_1.jpg,Travel,,,sub-17
Desktop or Laptop,Windows 10,Chrome 138.0.0.0,1498x843,1498x843,Temporal Distance Task,cb_01,83.0,temp_dist_trial,num_items,zn7si1,1.0,response,1_ITEM,1199.4000000000233,1193.3000000000175,1199.4000000000233,1199.4000000000233,1193.3000000000175,1199.4000000000233,1.0,0.0,0.0,,Click Response,1_count,3.0,object-46,temp_dist_trial,35.0,t_s_03_1,travel_shared,portable charger,1.0,competing,paired,t_s_03_1.jpg,Travel,,,sub-17
Desktop or Laptop,Windows 10,Chrome 138.0.0.0,1498x843,1498x843,Temporal Distance Task,cb_01,84.0,temp_dist_trial,num_items,zn7si1,1.0,response,1_ITEM,1203.2000000000114,1199.3000000000175,1203.2000000000114,1203.2000000000114,1199.3000000000175,1203.2000000000114,1.0,0.0,0.0,,Click Response,1_count,3.0,object-46,temp_dist_trial,36.0,t_s_19_1,travel_shared,pajamas,1.0,competing,single,t_s_19_1.jpg,Travel,,,sub-17
Desktop or Laptop,Windows 10,Chrome 138.0.0.0,1498x843,1498x843,Temporal Distance Task,cb_01,85.0,temp_dist_trial,num_items,zn7si1,1.0,response,1_ITEM,1077.3999999999069,1072.1000000000058,1077.3999999999069,1077.3999999999069,1072.1000000000058,1077.3999999999069,1.0,0.0,0.0,,Click Response,1_count,3.0,object-46,temp_dist_trial,37.0,t_i_04_1,travel_Iceland,portable camping stove,1.0,unique,single,t_i_04_1.jpg,Travel,,,sub-17
Desktop or Laptop,Windows 10,Chrome 138.0.0.0,1498x843,1498x843,Temporal Distance Task,cb_01,86.0,temp_dist_trial,num_items,zn7si1,1.0,response,2_ITEM,1040.8000000001919,1035.8000000000177,1040.8000000001919,1040.8000000001919,1035.8000000000177,1040.8000000001919,1.0,0.0,0.0,,Click Response,2_count,5.0,object-49,temp_dist_trial,38.0,t_s_17_1,travel_shared,toothbrush,1.0,competing,paired,t_s_17_1.jpg,Travel,,,sub-17
Desktop or Laptop,Windows 10,Chrome 138.0.0.0,1498x843,1498x843,Temporal Distance Task,cb_01,86.0,temp_dist_trial,dist_items,qkpkxw,2.0,info,,5.800000000104773,0.0,5.800000000104773,5.800000000104773,0.0,5.800000000104773,1.0,0.0,0.0,,Slider,Slider,4.0,object-56,temp_dist_trial,38.0,t_s_17_1,travel_shared,toothbrush,1.0,competing,paired,t_s_17_1.jpg,Travel,,,sub-17
Desktop or Laptop,Windows 10,Chrome 138.0.0.0,1498x843,1498x843,Temporal Distance Task,cb_01,86.0,temp_dist_trial,dist_items,qkpkxw,2.0,continue,,914.000000000291,908.6000000000058,914.000000000291,914.000000000291,908.6000000000058,914.000000000291,1.0,0.0,0.0,,Click To Continue,Next button,7.0,object-60,temp_dist_trial,38.0,t_s_17_1,travel_shared,toothbrush,1.0,competing,paired,t_s_17_1.jpg,Travel,,,sub-17
Desktop or Laptop,Windows 10,Chrome 138.0.0.0,1498x843,1498x843,Temporal Distance Task,cb_01,86.0,temp_dist_trial,dist_items,qkpkxw,2.0,response,34,399.80000000001746,908.6000000000058,914.5999999999184,399.80000000001746,908.6000000000058,914.5999999999184,1.0,514.7999999999009,0.0,,Slider,Slider,4.0,object-56,temp_dist_trial,38.0,t_s_17_1,travel_shared,toothbrush,1.0,competing,paired,t_s_17_1.jpg,Travel,,,sub-17
Desktop or Laptop,Windows 10,Chrome 138.0.0.0,1498x843,1498x843,Temporal Distance Task,cb_01,87.0,temp_dist_trial,num_items,zn7si1,1.0,response,2_ITEM,1112.3000000001919,1108.3999999999942,1112.3000000001919,1112.3000000001919,1108.3999999999942,1112.3000000001919,1.0,0.0,0.0,,Click Response,2_count,5.0,object-49,temp_dist_trial,39.0,t_m_16_1,travel_Miami,flippers,1.0,unique,paired,t_m_16_1.jpg,Travel,,,sub-17
Desktop or Laptop,Windows 10,Chrome 138.0.0.0,1498x843,1498x843,Temporal Distance Task,cb_01,87.0,temp_dist_trial,dist_items,qkpkxw,2.0,info,,4.0000000000873115,0.0,4.0000000000873115,4.0000000000873115,0.0,4.0000000000873115,1.0,0.0,0.0,,Slider,Slider,4.0,object-56,temp_dist_trial,39.0,t_m_16_1,travel_Miami,flippers,1.0,unique,paired,t_m_16_1.jpg,Travel,,,sub-17
Desktop or Laptop,Windows 10,Chrome 138.0.0.0,1498x843,1498x843,Temporal Distance Task,cb_01,87.0,temp_dist_trial,dist_items,qkpkxw,2.0,continue,,998.7000000002736,993.3999999999942,998.7000000002736,998.7000000002736,993.3999999999942,998.7000000002736,1.0,0.0,0.0,,Click To Continue,Next button,7.0,object-60,temp_dist_trial,39.0,t_m_16_1,travel_Miami,flippers,1.0,unique,paired,t_m_16_1.jpg,Travel,,,sub-17
Desktop or Laptop,Windows 10,Chrome 138.0.0.0,1498x843,1498x843,Temporal Distance Task,cb_01,87.0,temp_dist_trial,dist_items,qkpkxw,2.0,response,61,454.2999999999884,993.3999999999942,999.5,454.2999999999884,993.3999999999942,999.5,1.0,545.2000000000116,0.0,,Slider,Slider,4.0,object-56,temp_dist_trial,39.0,t_m_16_1,travel_Miami,flippers,1.0,unique,paired,t_m_16_1.jpg,Travel,,,sub-17
Desktop or Laptop,Windows 10,Chrome 138.0.0.0,1498x843,1498x843,Temporal Distance Task,cb_01,88.0,temp_dist_trial,num_items,zn7si1,1.0,response,1_ITEM,1508.3999999999942,1502.3999999999942,1508.3999999999942,1508.3999999999942,1502.3999999999942,1508.3999999999942,1.0,0.0,0.0,,Click Response,1_count,3.0,object-46,temp_dist_trial,40.0,t_s_11_1,travel_shared,eye mask,1.0,competing,paired,t_s_11_1.jpg,Travel,,,sub-17
Desktop or Laptop,Windows 10,Chrome 138.0.0.0,1498x843,1498x843,Temporal Distance Task,cb_01,89.0,temp_dist_trial,num_items,zn7si1,1.0,response,1_ITEM,1549.3000000001048,1544.6000000000058,1549.3000000001048,1549.3000000001048,1544.6000000000058,1549.3000000001048,1.0,0.0,0.0,,Click Response,1_count,3.0,object-46,temp_dist_trial,41.0,t_s_04_1,travel_shared,instant camera,1.0,competing,single,t_s_04_1.jpg,Travel,,,sub-17
Desktop or Laptop,Windows 10,Chrome 138.0.0.0,1498x843,1498x843,Temporal Distance Task,cb_01,90.0,temp_dist_trial,num_items,zn7si1,1.0,response,2_ITEM,920.5,914.5,920.5,920.5,914.5,920.5,1.0,0.0,0.0,,Click Response,2_count,5.0,object-49,temp_dist_trial,42.0,t_m_12_1,travel_Miami,foldable pail and shovel,1.0,unique,paired,t_m_12_1.jpg,Travel,,,sub-17
Desktop or Laptop,Windows 10,Chrome 138.0.0.0,1498x843,1498x843,Temporal Distance Task,cb_01,90.0,temp_dist_trial,dist_items,qkpkxw,2.0,info,,3.700000000186265,0.0,3.700000000186265,3.700000000186265,0.0,3.700000000186265,1.0,0.0,0.0,,Slider,Slider,4.0,object-56,temp_dist_trial,42.0,t_m_12_1,travel_Miami,foldable pail and shovel,1.0,unique,paired,t_m_12_1.jpg,Travel,,,sub-17
Desktop or Laptop,Windows 10,Chrome 138.0.0.0,1498x843,1498x843,Temporal Distance Task,cb_01,90.0,temp_dist_trial,dist_items,qkpkxw,2.0,continue,,849.5,848.0,849.5,849.5,848.0,849.5,1.0,0.0,0.0,,Click To Continue,Next button,7.0,object-60,temp_dist_trial,42.0,t_m_12_1,travel_Miami,foldable pail and shovel,1.0,unique,paired,t_m_12_1.jpg,Travel,,,sub-17
Desktop or Laptop,Windows 10,Chrome 138.0.0.0,1498x843,1498x843,Temporal Distance Task,cb_01,90.0,temp_dist_trial,dist_items,qkpkxw,2.0,response,62,381.6000000000058,848.0,849.8000000002794,381.6000000000058,848.0,849.8000000002794,1.0,468.2000000002736,0.0,,Slider,Slider,4.0,object-56,temp_dist_trial,42.0,t_m_12_1,travel_Miami,foldable pail and shovel,1.0,unique,paired,t_m_12_1.jpg,Travel,,,sub-17
Desktop or Laptop,Windows 10,Chrome 138.0.0.0,1498x843,1498x843,Temporal Distance Task,cb_01,91.0,temp_dist_trial,num_items,zn7si1,1.0,response,2_ITEM,966.1000000000932,963.0,966.1000000000932,966.1000000000932,963.0,966.1000000000932,1.0,0.0,0.0,,Click Response,2_count,5.0,object-49,temp_dist_trial,43.0,t_m_19_1,travel_Miami,surfboard,1.0,unique,paired,t_m_19_1.jpg,Travel,,,sub-17
