Participant Device,Participant OS,Participant Browser,Participant Monitor Size,Participant Viewport Size,Task Name,Current Spreadsheet,Trial Number,Display,Screen,Screen ID,Screen Counter,Response Type,Response,Onset Time,Clock Time,Reaction Time,Absolute Onset Time,Absolute Clock Time,Absolute Reaction Time,Correct,Response Duration,Proportion,Tag,Component Name,Object Name,Object Number,Object ID,Spreadsheet: display,Spreadsheet: trial,Spreadsheet: stimulus_id,Spreadsheet: expected_goal,Spreadsheet: stimulus_name,Spreadsheet: c_group,Spreadsheet: condition,Spreadsheet: paired_status,Spreadsheet: stimulus_path,Spreadsheet: block_type,Manipulation: Spreadsheet,Store: enc_test_acc,sub_label
Desktop or Laptop,Windows 10,Chrome 138.0.0.0,1536x864,1536x864,Temporal Distance Task,,,,,,,info,BEGIN,,,,,,,,,,,,,,,,,,,,,,,,,$${counterbalance_group},,sub-91
Desktop or Laptop,Windows 10,Chrome 138.0.0.0,1536x864,1536x864,Temporal Distance Task,cb_08,1.0,temp_instructions,intro_screen,3tnme7,1.0,continue,,7489.500000047684,7486.000000000001,7489.500000047684,7489.500000047684,7486.000000000001,7489.500000047684,1.0,0.0,0.0,,Click To Continue,Continue Button,4.0,object-29,temp_instructions,,,Travel,,,,,,,$${counterbalance_group},,sub-91
Desktop or Laptop,Windows 10,Chrome 138.0.0.0,1536x864,1536x864,Temporal Distance Task,cb_08,1.0,temp_instructions,intro_screen_2,52v7ur,2.0,continue,,179912.90000002386,179907.0,179912.90000002386,179912.90000002386,179907.0,179912.90000002386,1.0,0.0,0.0,,Click To Continue,Continue Button,4.0,object-39,temp_instructions,,,Travel,,,,,,,$${counterbalance_group},,sub-91
Desktop or Laptop,Windows 10,Chrome 138.0.0.0,1536x864,1536x864,Temporal Distance Task,cb_08,1.0,temp_instructions,intro_screen_3,i7lvwx,3.0,continue,,6678.099999952305,6673.599999999977,6678.099999952305,6678.099999952305,6673.599999999977,6678.099999952305,1.0,0.0,0.0,,Click To Continue,Continue Button,4.0,object-67,temp_instructions,,,Travel,,,,,,,$${counterbalance_group},,sub-91
Desktop or Laptop,Windows 10,Chrome 138.0.0.0,1536x864,1536x864,Temporal Distance Task,cb_08,1.0,temp_instructions,test_q1,5ieqx1,4.0,response,choice_3,7698.499999952328,7694.5,7698.499999952328,7698.499999952328,7694.5,7698.499999952328,1.0,0.0,0.0,,Click Response,choice_3,5.0,object-345,temp_instructions,,,Travel,,,,,,,$${counterbalance_group},,sub-91
Desktop or Laptop,Windows 10,Chrome 138.0.0.0,1536x864,1536x864,Temporal Distance Task,cb_08,1.0,temp_instructions,score_corr,7ilvjr,5.0,continue,,787.2000000000116,784.7000000000116,787.2000000000116,787.2000000000116,784.7000000000116,787.2000000000116,1.0,0.0,0.0,,Click To Continue,Continue Button,3.0,object-23,temp_instructions,,,Travel,,,,,,,$${counterbalance_group},,sub-91
Desktop or Laptop,Windows 10,Chrome 138.0.0.0,1536x864,1536x864,Temporal Distance Task,cb_08,1.0,temp_eventStart,Screen 1,dgtyxe,1.0,continue,,1753.8999999761581,1749.8999999999942,1753.8999999761581,1753.8999999761581,1749.8999999999942,1753.8999999761581,1.0,0.0,0.0,,Click To Continue,Next Button,3.0,object-43,temp_eventStart,,,Travel,,,,,,,$${counterbalance_group},,sub-91
Desktop or Laptop,Windows 10,Chrome 138.0.0.0,1536x864,1536x864,Temporal Distance Task,cb_08,1.0,temp_dist_trial,num_items,zn7si1,1.0,response,1_ITEM,1848.6000000000056,1847.0,1848.6000000000056,1848.6000000000056,1847.0,1848.6000000000056,1.0,0.0,0.0,,Click Response,1_count,3.0,object-46,temp_dist_trial,1.0,t_s_23_1,travel_shared,ball cap,8.0,competing,paired,t_s_23_1.jpg,Travel,$${counterbalance_group},,sub-91
Desktop or Laptop,Windows 10,Chrome 138.0.0.0,1536x864,1536x864,Temporal Distance Task,cb_08,2.0,temp_dist_trial,num_items,zn7si1,1.0,response,2_ITEM,1506.100000047678,1499.7999999999884,1506.100000047678,1506.100000047678,1499.7999999999884,1506.100000047678,1.0,0.0,0.0,,Click Response,2_count,5.0,object-49,temp_dist_trial,2.0,t_s_20_1,travel_shared,travel pill case,8.0,competing,paired,t_s_20_1.jpg,Travel,$${counterbalance_group},,sub-91
Desktop or Laptop,Windows 10,Chrome 138.0.0.0,1536x864,1536x864,Temporal Distance Task,cb_08,2.0,temp_dist_trial,dist_items,qkpkxw,2.0,info,,3.299999952316284,0.0,3.299999952316284,3.299999952316284,0.0,3.299999952316284,1.0,0.0,0.0,,Slider,Slider,4.0,object-56,temp_dist_trial,2.0,t_s_20_1,travel_shared,travel pill case,8.0,competing,paired,t_s_20_1.jpg,Travel,$${counterbalance_group},,sub-91
Desktop or Laptop,Windows 10,Chrome 138.0.0.0,1536x864,1536x864,Temporal Distance Task,cb_08,2.0,temp_dist_trial,dist_items,qkpkxw,2.0,continue,,2428.7999999523167,2423.6000000000063,2428.7999999523167,2428.7999999523167,2423.6000000000063,2428.7999999523167,1.0,0.0,0.0,,Click To Continue,Next button,7.0,object-60,temp_dist_trial,2.0,t_s_20_1,travel_shared,travel pill case,8.0,competing,paired,t_s_20_1.jpg,Travel,$${counterbalance_group},,sub-91
Desktop or Laptop,Windows 10,Chrome 138.0.0.0,1536x864,1536x864,Temporal Distance Task,cb_08,2.0,temp_dist_trial,dist_items,qkpkxw,2.0,response,37,1499.8999999999942,2423.6000000000063,2429.200000047684,1499.8999999999942,2423.6000000000063,2429.200000047684,1.0,929.3000000476897,0.0,,Slider,Slider,4.0,object-56,temp_dist_trial,2.0,t_s_20_1,travel_shared,travel pill case,8.0,competing,paired,t_s_20_1.jpg,Travel,$${counterbalance_group},,sub-91
Desktop or Laptop,Windows 10,Chrome 138.0.0.0,1536x864,1536x864,Temporal Distance Task,cb_08,3.0,temp_dist_trial,num_items,zn7si1,1.0,response,2_ITEM,1724.8999999999942,1722.1999999999825,1724.8999999999942,1724.8999999999942,1722.1999999999825,1724.8999999999942,1.0,0.0,0.0,,Click Response,2_count,5.0,object-49,temp_dist_trial,3.0,t_s_17_1,travel_shared,toothbrush,8.0,competing,paired,t_s_17_1.jpg,Travel,$${counterbalance_group},,sub-91
Desktop or Laptop,Windows 10,Chrome 138.0.0.0,1536x864,1536x864,Temporal Distance Task,cb_08,3.0,temp_dist_trial,dist_items,qkpkxw,2.0,info,,2.7000000238476787,0.0,2.7000000238476787,2.7000000238476787,0.0,2.7000000238476787,1.0,0.0,0.0,,Slider,Slider,4.0,object-56,temp_dist_trial,3.0,t_s_17_1,travel_shared,toothbrush,8.0,competing,paired,t_s_17_1.jpg,Travel,$${counterbalance_group},,sub-91
Desktop or Laptop,Windows 10,Chrome 138.0.0.0,1536x864,1536x864,Temporal Distance Task,cb_08,3.0,temp_dist_trial,dist_items,qkpkxw,2.0,continue,,2998.3999999523217,2992.800000000017,2998.3999999523217,2998.3999999523217,2992.800000000017,2998.3999999523217,1.0,0.0,0.0,,Click To Continue,Next button,7.0,object-60,temp_dist_trial,3.0,t_s_17_1,travel_shared,toothbrush,8.0,competing,paired,t_s_17_1.jpg,Travel,$${counterbalance_group},,sub-91
Desktop or Laptop,Windows 10,Chrome 138.0.0.0,1536x864,1536x864,Temporal Distance Task,cb_08,3.0,temp_dist_trial,dist_items,qkpkxw,2.0,response,66,1117.8999999999942,2992.800000000017,2998.6000000000067,1117.8999999999942,2992.800000000017,2998.6000000000067,1.0,1880.7000000000119,0.0,,Slider,Slider,4.0,object-56,temp_dist_trial,3.0,t_s_17_1,travel_shared,toothbrush,8.0,competing,paired,t_s_17_1.jpg,Travel,$${counterbalance_group},,sub-91
Desktop or Laptop,Windows 10,Chrome 138.0.0.0,1536x864,1536x864,Temporal Distance Task,cb_08,4.0,temp_dist_trial,num_items,zn7si1,1.0,response,1_ITEM,1387.000000047672,1382.0,1387.000000047672,1387.000000047672,1382.0,1387.000000047672,1.0,0.0,0.0,,Click Response,1_count,3.0,object-46,temp_dist_trial,4.0,t_m_08_1,travel_Miami,flipflops,8.0,unique,paired,t_m_08_1.jpg,Travel,$${counterbalance_group},,sub-91
Desktop or Laptop,Windows 10,Chrome 138.0.0.0,1536x864,1536x864,Temporal Distance Task,cb_08,5.0,temp_dist_trial,num_items,zn7si1,1.0,response,1_ITEM,1647.0999999761698,1645.7000000000116,1647.0999999761698,1647.0999999761698,1645.7000000000116,1647.0999999761698,1.0,0.0,0.0,,Click Response,1_count,3.0,object-46,temp_dist_trial,5.0,t_s_03_1,travel_shared,portable charger,8.0,competing,single,t_s_03_1.jpg,Travel,$${counterbalance_group},,sub-91
Desktop or Laptop,Windows 10,Chrome 138.0.0.0,1536x864,1536x864,Temporal Distance Task,cb_08,6.0,temp_dist_trial,num_items,zn7si1,1.0,response,2_ITEM,1135.6999999761465,1131.6999999999825,1135.6999999761465,1135.6999999761465,1131.6999999999825,1135.6999999761465,1.0,0.0,0.0,,Click Response,2_count,5.0,object-49,temp_dist_trial,6.0,t_s_24_1,travel_shared,ear plugs,8.0,competing,paired,t_s_24_1.jpg,Travel,$${counterbalance_group},,sub-91
Desktop or Laptop,Windows 10,Chrome 138.0.0.0,1536x864,1536x864,Temporal Distance Task,cb_08,6.0,temp_dist_trial,dist_items,qkpkxw,2.0,info,,2.8999999523221054,0.0,2.8999999523221054,2.8999999523221054,0.0,2.8999999523221054,1.0,0.0,0.0,,Slider,Slider,4.0,object-56,temp_dist_trial,6.0,t_s_24_1,travel_shared,ear plugs,8.0,competing,paired,t_s_24_1.jpg,Travel,$${counterbalance_group},,sub-91
Desktop or Laptop,Windows 10,Chrome 138.0.0.0,1536x864,1536x864,Temporal Distance Task,cb_08,6.0,temp_dist_trial,dist_items,qkpkxw,2.0,continue,,3617.8999999999933,3611.1000000000067,3617.8999999999933,3617.8999999999933,3611.1000000000067,3617.8999999999933,1.0,0.0,0.0,,Click To Continue,Next button,7.0,object-60,temp_dist_trial,6.0,t_s_24_1,travel_shared,ear plugs,8.0,competing,paired,t_s_24_1.jpg,Travel,$${counterbalance_group},,sub-91
Desktop or Laptop,Windows 10,Chrome 138.0.0.0,1536x864,1536x864,Temporal Distance Task,cb_08,6.0,temp_dist_trial,dist_items,qkpkxw,2.0,response,33,1000.0,3611.1000000000067,3617.8999999999933,1000.0,3611.1000000000067,3617.8999999999933,1.0,2617.8999999999937,0.0,,Slider,Slider,4.0,object-56,temp_dist_trial,6.0,t_s_24_1,travel_shared,ear plugs,8.0,competing,paired,t_s_24_1.jpg,Travel,$${counterbalance_group},,sub-91
Desktop or Laptop,Windows 10,Chrome 138.0.0.0,1536x864,1536x864,Temporal Distance Task,cb_08,7.0,temp_dist_trial,num_items,zn7si1,1.0,response,1_ITEM,1821.5,1819.7000000000119,1821.5,1821.5,1819.7000000000119,1821.5,1.0,0.0,0.0,,Click Response,1_count,3.0,object-46,temp_dist_trial,7.0,t_i_12_1,travel_Iceland,tent,8.0,unique,paired,t_i_12_1.jpg,Travel,$${counterbalance_group},,sub-91
Desktop or Laptop,Windows 10,Chrome 138.0.0.0,1536x864,1536x864,Temporal Distance Task,cb_08,8.0,temp_dist_trial,num_items,zn7si1,1.0,response,1_ITEM,1447.499999976164,1444.3999999999942,1447.499999976164,1447.499999976164,1444.3999999999942,1447.499999976164,1.0,0.0,0.0,,Click Response,1_count,3.0,object-46,temp_dist_trial,8.0,t_s_10_1,travel_shared,luggage lock,8.0,competing,paired,t_s_10_1.jpg,Travel,$${counterbalance_group},,sub-91
Desktop or Laptop,Windows 10,Chrome 138.0.0.0,1536x864,1536x864,Temporal Distance Task,cb_08,9.0,temp_dist_trial,num_items,zn7si1,1.0,response,1_ITEM,1685.2999999999884,1680.5999999999767,1685.2999999999884,1685.2999999999884,1680.5999999999767,1685.2999999999884,1.0,0.0,0.0,,Click Response,1_count,3.0,object-46,temp_dist_trial,9.0,t_m_20_1,travel_Miami,inflatable beachball,8.0,unique,single,t_m_20_1.jpg,Travel,$${counterbalance_group},,sub-91
Desktop or Laptop,Windows 10,Chrome 138.0.0.0,1536x864,1536x864,Temporal Distance Task,cb_08,10.0,temp_dist_trial,num_items,zn7si1,1.0,response,1_ITEM,1966.700000023848,1965.2000000000119,1966.700000023848,1966.700000023848,1965.2000000000119,1966.700000023848,1.0,0.0,0.0,,Click Response,1_count,3.0,object-46,temp_dist_trial,10.0,t_i_03_1,travel_Iceland,winter jacket,8.0,unique,single,t_i_03_1.jpg,Travel,$${counterbalance_group},,sub-91
Desktop or Laptop,Windows 10,Chrome 138.0.0.0,1536x864,1536x864,Temporal Distance Task,cb_08,11.0,temp_dist_trial,num_items,zn7si1,1.0,response,2_ITEM,1035.999999952328,1034.5,1035.999999952328,1035.999999952328,1034.5,1035.999999952328,1.0,0.0,0.0,,Click Response,2_count,5.0,object-49,temp_dist_trial,11.0,t_s_22_1,travel_shared,belt,8.0,competing,paired,t_s_22_1.jpg,Travel,$${counterbalance_group},,sub-91
Desktop or Laptop,Windows 10,Chrome 138.0.0.0,1536x864,1536x864,Temporal Distance Task,cb_08,11.0,temp_dist_trial,dist_items,qkpkxw,2.0,info,,3.2999999999883585,0.0,3.2999999999883585,3.2999999999883585,0.0,3.2999999999883585,1.0,0.0,0.0,,Slider,Slider,4.0,object-56,temp_dist_trial,11.0,t_s_22_1,travel_shared,belt,8.0,competing,paired,t_s_22_1.jpg,Travel,$${counterbalance_group},,sub-91
Desktop or Laptop,Windows 10,Chrome 138.0.0.0,1536x864,1536x864,Temporal Distance Task,cb_08,11.0,temp_dist_trial,dist_items,qkpkxw,2.0,continue,,2635.000000047672,2632.099999999977,2635.000000047672,2635.000000047672,2632.099999999977,2635.000000047672,1.0,0.0,0.0,,Click To Continue,Next button,7.0,object-60,temp_dist_trial,11.0,t_s_22_1,travel_shared,belt,8.0,competing,paired,t_s_22_1.jpg,Travel,$${counterbalance_group},,sub-91
Desktop or Laptop,Windows 10,Chrome 138.0.0.0,1536x864,1536x864,Temporal Distance Task,cb_08,11.0,temp_dist_trial,dist_items,qkpkxw,2.0,response,30,1687.5999999999767,2632.099999999977,2636.9000000238298,1687.5999999999767,2632.099999999977,2636.9000000238298,1.0,949.3000000238536,0.0,,Slider,Slider,4.0,object-56,temp_dist_trial,11.0,t_s_22_1,travel_shared,belt,8.0,competing,paired,t_s_22_1.jpg,Travel,$${counterbalance_group},,sub-91
Desktop or Laptop,Windows 10,Chrome 138.0.0.0,1536x864,1536x864,Temporal Distance Task,cb_08,12.0,temp_dist_trial,num_items,zn7si1,1.0,response,2_ITEM,1243.1000000000058,1236.1000000000058,1243.1000000000058,1243.1000000000058,1236.1000000000058,1243.1000000000058,1.0,0.0,0.0,,Click Response,2_count,5.0,object-49,temp_dist_trial,12.0,t_s_05_1,travel_shared,neck pillow,8.0,competing,paired,t_s_05_1.jpg,Travel,$${counterbalance_group},,sub-91
Desktop or Laptop,Windows 10,Chrome 138.0.0.0,1536x864,1536x864,Temporal Distance Task,cb_08,12.0,temp_dist_trial,dist_items,qkpkxw,2.0,info,,2.7999999999883585,0.0,2.7999999999883585,2.7999999999883585,0.0,2.7999999999883585,1.0,0.0,0.0,,Slider,Slider,4.0,object-56,temp_dist_trial,12.0,t_s_05_1,travel_shared,neck pillow,8.0,competing,paired,t_s_05_1.jpg,Travel,$${counterbalance_group},,sub-91
Desktop or Laptop,Windows 10,Chrome 138.0.0.0,1536x864,1536x864,Temporal Distance Task,cb_08,12.0,temp_dist_trial,dist_items,qkpkxw,2.0,continue,,1713.500000047672,1708.5999999999767,1713.500000047672,1713.500000047672,1708.5999999999767,1713.500000047672,1.0,0.0,0.0,,Click To Continue,Next button,7.0,object-60,temp_dist_trial,12.0,t_s_05_1,travel_shared,neck pillow,8.0,competing,paired,t_s_05_1.jpg,Travel,$${counterbalance_group},,sub-91
Desktop or Laptop,Windows 10,Chrome 138.0.0.0,1536x864,1536x864,Temporal Distance Task,cb_08,12.0,temp_dist_trial,dist_items,qkpkxw,2.0,response,66,1062.6999999999823,1708.5999999999767,1713.6999999761465,1062.6999999999823,1708.5999999999767,1713.6999999761465,1.0,650.999999976164,0.0,,Slider,Slider,4.0,object-56,temp_dist_trial,12.0,t_s_05_1,travel_shared,neck pillow,8.0,competing,paired,t_s_05_1.jpg,Travel,$${counterbalance_group},,sub-91
Desktop or Laptop,Windows 10,Chrome 138.0.0.0,1536x864,1536x864,Temporal Distance Task,cb_08,13.0,temp_dist_trial,num_items,zn7si1,1.0,response,1_ITEM,908.4000000476954,902.6000000000058,908.4000000476954,908.4000000476954,902.6000000000058,908.4000000476954,1.0,0.0,0.0,,Click Response,1_count,3.0,object-46,temp_dist_trial,13.0,t_s_19_1,travel_shared,pajamas,8.0,competing,paired,t_s_19_1.jpg,Travel,$${counterbalance_group},,sub-91
Desktop or Laptop,Windows 10,Chrome 138.0.0.0,1536x864,1536x864,Temporal Distance Task,cb_08,14.0,temp_dist_trial,num_items,zn7si1,1.0,response,1_ITEM,1307.3000000476895,1305.3999999999942,1307.3000000476895,1307.3000000476895,1305.3999999999942,1307.3000000476895,1.0,0.0,0.0,,Click Response,1_count,3.0,object-46,temp_dist_trial,14.0,t_m_09_1,travel_Miami,beach towel,8.0,unique,paired,t_m_09_1.jpg,Travel,$${counterbalance_group},,sub-91
Desktop or Laptop,Windows 10,Chrome 138.0.0.0,1536x864,1536x864,Temporal Distance Task,cb_08,15.0,temp_dist_trial,num_items,zn7si1,1.0,response,1_ITEM,1880.000000023836,1874.6999999999825,1880.000000023836,1880.000000023836,1874.6999999999825,1880.000000023836,1.0,0.0,0.0,,Click Response,1_count,3.0,object-46,temp_dist_trial,15.0,t_s_21_1,travel_shared,umbrella,8.0,competing,single,t_s_21_1.jpg,Travel,$${counterbalance_group},,sub-91
Desktop or Laptop,Windows 10,Chrome 138.0.0.0,1536x864,1536x864,Temporal Distance Task,cb_08,16.0,temp_dist_trial,num_items,zn7si1,1.0,response,1_ITEM,1005.1000000476781,999.7999999999884,1005.1000000476781,1005.1000000476781,999.7999999999884,1005.1000000476781,1.0,0.0,0.0,,Click Response,1_count,3.0,object-46,temp_dist_trial,16.0,t_m_14_1,travel_Miami,swim goggles,8.0,unique,single,t_m_14_1.jpg,Travel,$${counterbalance_group},,sub-91
Desktop or Laptop,Windows 10,Chrome 138.0.0.0,1536x864,1536x864,Temporal Distance Task,cb_08,17.0,temp_dist_trial,num_items,zn7si1,1.0,response,1_ITEM,1117.2000000000116,1111.3000000000177,1117.2000000000116,1117.2000000000116,1111.3000000000177,1117.2000000000116,1.0,0.0,0.0,,Click Response,1_count,3.0,object-46,temp_dist_trial,17.0,t_m_05_1,travel_Miami,sunscreen,8.0,unique,paired,t_m_05_1.jpg,Travel,$${counterbalance_group},,sub-91
Desktop or Laptop,Windows 10,Chrome 138.0.0.0,1536x864,1536x864,Temporal Distance Task,cb_08,18.0,temp_dist_trial,num_items,zn7si1,1.0,response,1_ITEM,1024.3000000238535,1020.8000000000177,1024.3000000238535,1024.3000000238535,1020.8000000000177,1024.3000000238535,1.0,0.0,0.0,,Click Response,1_count,3.0,object-46,temp_dist_trial,18.0,t_i_07_1,travel_Iceland,hiking backpack,8.0,unique,single,t_i_07_1.jpg,Travel,$${counterbalance_group},,sub-91
Desktop or Laptop,Windows 10,Chrome 138.0.0.0,1536x864,1536x864,Temporal Distance Task,cb_08,19.0,temp_dist_trial,num_items,zn7si1,1.0,response,2_ITEM,1430.499999999971,1423.6999999999825,1430.499999999971,1430.499999999971,1423.6999999999825,1430.499999999971,1.0,0.0,0.0,,Click Response,2_count,5.0,object-49,temp_dist_trial,19.0,t_m_13_1,travel_Miami,floatie,8.0,unique,paired,t_m_13_1.jpg,Travel,$${counterbalance_group},,sub-91
Desktop or Laptop,Windows 10,Chrome 138.0.0.0,1536x864,1536x864,Temporal Distance Task,cb_08,19.0,temp_dist_trial,dist_items,qkpkxw,2.0,info,,3.4999999523279257,0.0,3.4999999523279257,3.4999999523279257,0.0,3.4999999523279257,1.0,0.0,0.0,,Slider,Slider,4.0,object-56,temp_dist_trial,19.0,t_m_13_1,travel_Miami,floatie,8.0,unique,paired,t_m_13_1.jpg,Travel,$${counterbalance_group},,sub-91
Desktop or Laptop,Windows 10,Chrome 138.0.0.0,1536x864,1536x864,Temporal Distance Task,cb_08,19.0,temp_dist_trial,dist_items,qkpkxw,2.0,continue,,2239.400000047696,2236.0,2239.400000047696,2239.400000047696,2236.0,2239.400000047696,1.0,0.0,0.0,,Click To Continue,Next button,7.0,object-60,temp_dist_trial,19.0,t_m_13_1,travel_Miami,floatie,8.0,unique,paired,t_m_13_1.jpg,Travel,$${counterbalance_group},,sub-91
Desktop or Laptop,Windows 10,Chrome 138.0.0.0,1536x864,1536x864,Temporal Distance Task,cb_08,19.0,temp_dist_trial,dist_items,qkpkxw,2.0,response,26,1000.0,2236.0,2239.5999999761702,1000.0,2236.0,2239.5999999761702,1.0,1239.5999999761698,0.0,,Slider,Slider,4.0,object-56,temp_dist_trial,19.0,t_m_13_1,travel_Miami,floatie,8.0,unique,paired,t_m_13_1.jpg,Travel,$${counterbalance_group},,sub-91
Desktop or Laptop,Windows 10,Chrome 138.0.0.0,1536x864,1536x864,Temporal Distance Task,cb_08,20.0,temp_dist_trial,num_items,zn7si1,1.0,response,1_ITEM,1173.600000000035,1166.8000000000175,1173.600000000035,1173.600000000035,1166.8000000000175,1173.600000000035,1.0,0.0,0.0,,Click Response,1_count,3.0,object-46,temp_dist_trial,20.0,t_s_14_1,travel_shared,hand sanitizer,8.0,competing,single,t_s_14_1.jpg,Travel,$${counterbalance_group},,sub-91
Desktop or Laptop,Windows 10,Chrome 138.0.0.0,1536x864,1536x864,Temporal Distance Task,cb_08,21.0,temp_dist_trial,num_items,zn7si1,1.0,response,1_ITEM,1351.000000047672,1347.0999999999767,1351.000000047672,1351.000000047672,1347.0999999999767,1351.000000047672,1.0,0.0,0.0,,Click Response,1_count,3.0,object-46,temp_dist_trial,21.0,t_s_12_1,travel_shared,clear toiletry bag,8.0,competing,single,t_s_12_1.jpg,Travel,$${counterbalance_group},,sub-91
Desktop or Laptop,Windows 10,Chrome 138.0.0.0,1536x864,1536x864,Temporal Distance Task,cb_08,22.0,temp_dist_trial,num_items,zn7si1,1.0,response,1_ITEM,1038.2000000238477,1034.6000000000058,1038.2000000238477,1038.2000000238477,1034.6000000000058,1038.2000000238477,1.0,0.0,0.0,,Click Response,1_count,3.0,object-46,temp_dist_trial,22.0,t_s_01_1,travel_shared,fanny pack,8.0,competing,paired,t_s_01_1.jpg,Travel,$${counterbalance_group},,sub-91
Desktop or Laptop,Windows 10,Chrome 138.0.0.0,1536x864,1536x864,Temporal Distance Task,cb_08,23.0,temp_dist_trial,num_items,zn7si1,1.0,response,1_ITEM,1162.500000023836,1159.6000000000058,1162.500000023836,1162.500000023836,1159.6000000000058,1162.500000023836,1.0,0.0,0.0,,Click Response,1_count,3.0,object-46,temp_dist_trial,23.0,t_s_02_1,travel_shared,water bottle,8.0,competing,single,t_s_02_1.jpg,Travel,$${counterbalance_group},,sub-91
Desktop or Laptop,Windows 10,Chrome 138.0.0.0,1536x864,1536x864,Temporal Distance Task,cb_08,24.0,temp_dist_trial,num_items,zn7si1,1.0,response,1_ITEM,1154.5999999523046,1152.8999999999942,1154.5999999523046,1154.5999999523046,1152.8999999999942,1154.5999999523046,1.0,0.0,0.0,,Click Response,1_count,3.0,object-46,temp_dist_trial,24.0,t_m_06_1,travel_Miami,handheld fan,8.0,unique,paired,t_m_06_1.jpg,Travel,$${counterbalance_group},,sub-91
Desktop or Laptop,Windows 10,Chrome 138.0.0.0,1536x864,1536x864,Temporal Distance Task,cb_08,25.0,temp_dist_trial,num_items,zn7si1,1.0,response,2_ITEM,1392.2999999523165,1388.7999999999884,1392.2999999523165,1392.2999999523165,1388.7999999999884,1392.2999999523165,1.0,0.0,0.0,,Click Response,2_count,5.0,object-49,temp_dist_trial,25.0,t_i_16_1,travel_Iceland,skis,8.0,unique,paired,t_i_16_1.jpg,Travel,$${counterbalance_group},,sub-91
Desktop or Laptop,Windows 10,Chrome 138.0.0.0,1536x864,1536x864,Temporal Distance Task,cb_08,25.0,temp_dist_trial,dist_items,qkpkxw,2.0,info,,2.8000000238534994,0.0,2.8000000238534994,2.8000000238534994,0.0,2.8000000238534994,1.0,0.0,0.0,,Slider,Slider,4.0,object-56,temp_dist_trial,25.0,t_i_16_1,travel_Iceland,skis,8.0,unique,paired,t_i_16_1.jpg,Travel,$${counterbalance_group},,sub-91
Desktop or Laptop,Windows 10,Chrome 138.0.0.0,1536x864,1536x864,Temporal Distance Task,cb_08,25.0,temp_dist_trial,dist_items,qkpkxw,2.0,continue,,2513.600000000035,2506.9000000000233,2513.600000000035,2513.600000000035,2506.9000000000233,2513.600000000035,1.0,0.0,0.0,,Click To Continue,Next button,7.0,object-60,temp_dist_trial,25.0,t_i_16_1,travel_Iceland,skis,8.0,unique,paired,t_i_16_1.jpg,Travel,$${counterbalance_group},,sub-91
Desktop or Laptop,Windows 10,Chrome 138.0.0.0,1536x864,1536x864,Temporal Distance Task,cb_08,25.0,temp_dist_trial,dist_items,qkpkxw,2.0,response,59,1236.0,2506.9000000000233,2513.600000000035,1236.0,2506.9000000000233,2513.600000000035,1.0,1277.600000000035,0.0,,Slider,Slider,4.0,object-56,temp_dist_trial,25.0,t_i_16_1,travel_Iceland,skis,8.0,unique,paired,t_i_16_1.jpg,Travel,$${counterbalance_group},,sub-91
Desktop or Laptop,Windows 10,Chrome 138.0.0.0,1536x864,1536x864,Temporal Distance Task,cb_08,26.0,temp_dist_trial,num_items,zn7si1,1.0,response,1_ITEM,932.2999999999884,930.5,932.2999999999884,932.2999999999884,930.5,932.2999999999884,1.0,0.0,0.0,,Click Response,1_count,3.0,object-46,temp_dist_trial,26.0,t_i_01_1,travel_Iceland,gloves,8.0,unique,paired,t_i_01_1.jpg,Travel,$${counterbalance_group},,sub-91
Desktop or Laptop,Windows 10,Chrome 138.0.0.0,1536x864,1536x864,Temporal Distance Task,cb_08,27.0,temp_dist_trial,num_items,zn7si1,1.0,response,1_ITEM,686.2999999761814,680.7000000000116,686.2999999761814,686.2999999761814,680.7000000000116,686.2999999761814,1.0,0.0,0.0,,Click Response,1_count,3.0,object-46,temp_dist_trial,27.0,t_m_10_1,travel_Miami,tanktop,8.0,unique,single,t_m_10_1.jpg,Travel,$${counterbalance_group},,sub-91
Desktop or Laptop,Windows 10,Chrome 138.0.0.0,1536x864,1536x864,Temporal Distance Task,cb_08,28.0,temp_dist_trial,num_items,zn7si1,1.0,response,1_ITEM,1569.0999999761698,1562.6000000000354,1569.0999999761698,1569.0999999761698,1562.6000000000354,1569.0999999761698,1.0,0.0,0.0,,Click Response,1_count,3.0,object-46,temp_dist_trial,28.0,t_s_15_1,travel_shared,luggage tag,8.0,competing,paired,t_s_15_1.jpg,Travel,$${counterbalance_group},,sub-91
Desktop or Laptop,Windows 10,Chrome 138.0.0.0,1536x864,1536x864,Temporal Distance Task,cb_08,29.0,temp_dist_trial,num_items,zn7si1,1.0,response,1_ITEM,1887.7999999999884,1882.2000000000119,1887.7999999999884,1887.7999999999884,1882.2000000000119,1887.7999999999884,1.0,0.0,0.0,,Click Response,1_count,3.0,object-46,temp_dist_trial,29.0,t_s_13_1,travel_shared,contact lens case,8.0,competing,paired,t_s_13_1.jpg,Travel,$${counterbalance_group},,sub-91
Desktop or Laptop,Windows 10,Chrome 138.0.0.0,1536x864,1536x864,Temporal Distance Task,cb_08,30.0,temp_dist_trial,num_items,zn7si1,1.0,response,1_ITEM,1246.6999999761465,1243.0999999999767,1246.6999999761465,1246.6999999761465,1243.0999999999767,1246.6999999761465,1.0,0.0,0.0,,Click Response,1_count,3.0,object-46,temp_dist_trial,30.0,t_m_03_1,travel_Miami,wetsuit,8.0,unique,paired,t_m_03_1.jpg,Travel,$${counterbalance_group},,sub-91
Desktop or Laptop,Windows 10,Chrome 138.0.0.0,1536x864,1536x864,Temporal Distance Task,cb_08,31.0,temp_dist_trial,num_items,zn7si1,1.0,response,1_ITEM,585.4000000000233,583.5,585.4000000000233,585.4000000000233,583.5,585.4000000000233,1.0,0.0,0.0,,Click Response,1_count,3.0,object-46,temp_dist_trial,31.0,t_i_02_1,travel_Iceland,scarf,8.0,unique,single,t_i_02_1.jpg,Travel,$${counterbalance_group},,sub-91
Desktop or Laptop,Windows 10,Chrome 138.0.0.0,1536x864,1536x864,Temporal Distance Task,cb_08,32.0,temp_dist_trial,num_items,zn7si1,1.0,response,1_ITEM,1060.4000000000233,1055.600000000035,1060.4000000000233,1060.4000000000233,1055.600000000035,1060.4000000000233,1.0,0.0,0.0,,Click Response,1_count,3.0,object-46,temp_dist_trial,32.0,t_s_16_1,travel_shared,chapstick,8.0,competing,single,t_s_16_1.jpg,Travel,$${counterbalance_group},,sub-91
Desktop or Laptop,Windows 10,Chrome 138.0.0.0,1536x864,1536x864,Temporal Distance Task,cb_08,33.0,temp_dist_trial,num_items,zn7si1,1.0,response,1_ITEM,975.2999999523164,972.0999999999768,975.2999999523164,975.2999999523164,972.0999999999768,975.2999999523164,1.0,0.0,0.0,,Click Response,1_count,3.0,object-46,temp_dist_trial,33.0,t_i_17_1,travel_Iceland,binoculars,8.0,unique,single,t_i_17_1.jpg,Travel,$${counterbalance_group},,sub-91
Desktop or Laptop,Windows 10,Chrome 138.0.0.0,1536x864,1536x864,Temporal Distance Task,cb_08,34.0,temp_dist_trial,num_items,zn7si1,1.0,response,2_ITEM,1065.499999952328,1062.5,1065.499999952328,1065.499999952328,1062.5,1065.499999952328,1.0,0.0,0.0,,Click Response,2_count,5.0,object-49,temp_dist_trial,34.0,t_s_04_1,travel_shared,instant camera,8.0,competing,paired,t_s_04_1.jpg,Travel,$${counterbalance_group},,sub-91
Desktop or Laptop,Windows 10,Chrome 138.0.0.0,1536x864,1536x864,Temporal Distance Task,cb_08,34.0,temp_dist_trial,dist_items,qkpkxw,2.0,info,,2.599999976169784,0.0,2.599999976169784,2.599999976169784,0.0,2.599999976169784,1.0,0.0,0.0,,Slider,Slider,4.0,object-56,temp_dist_trial,34.0,t_s_04_1,travel_shared,instant camera,8.0,competing,paired,t_s_04_1.jpg,Travel,$${counterbalance_group},,sub-91
Desktop or Laptop,Windows 10,Chrome 138.0.0.0,1536x864,1536x864,Temporal Distance Task,cb_08,34.0,temp_dist_trial,dist_items,qkpkxw,2.0,continue,,2585.5999999761702,2583.4000000000233,2585.5999999761702,2585.5999999761702,2583.4000000000233,2585.5999999761702,1.0,0.0,0.0,,Click To Continue,Next button,7.0,object-60,temp_dist_trial,34.0,t_s_04_1,travel_shared,instant camera,8.0,competing,paired,t_s_04_1.jpg,Travel,$${counterbalance_group},,sub-91
Desktop or Laptop,Windows 10,Chrome 138.0.0.0,1536x864,1536x864,Temporal Distance Task,cb_08,34.0,temp_dist_trial,dist_items,qkpkxw,2.0,response,34,1874.9000000000235,2583.4000000000233,2585.900000047696,1874.9000000000235,2583.4000000000233,2585.900000047696,1.0,711.0000000476721,0.0,,Slider,Slider,4.0,object-56,temp_dist_trial,34.0,t_s_04_1,travel_shared,instant camera,8.0,competing,paired,t_s_04_1.jpg,Travel,$${counterbalance_group},,sub-91
Desktop or Laptop,Windows 10,Chrome 138.0.0.0,1536x864,1536x864,Temporal Distance Task,cb_08,35.0,temp_dist_trial,num_items,zn7si1,1.0,response,1_ITEM,945.5999999523046,944.2000000000116,945.5999999523046,945.5999999523046,944.2000000000116,945.5999999523046,1.0,0.0,0.0,,Click Response,1_count,3.0,object-46,temp_dist_trial,35.0,t_s_08_1,travel_shared,hand lotion,8.0,competing,paired,t_s_08_1.jpg,Travel,$${counterbalance_group},,sub-91
Desktop or Laptop,Windows 10,Chrome 138.0.0.0,1536x864,1536x864,Temporal Distance Task,cb_08,36.0,temp_dist_trial,num_items,zn7si1,1.0,response,num_miss,2999.8000000000466,2999.8000000000466,2999.8000000000466,2999.8000000000466,2999.8000000000466,2999.8000000000466,1.0,0.0,0.0,num_miss_tag,Time Limit,screen,0.0,screen,temp_dist_trial,36.0,t_i_04_1,travel_Iceland,portable camping stove,8.0,unique,paired,t_i_04_1.jpg,Travel,$${counterbalance_group},,sub-91
Desktop or Laptop,Windows 10,Chrome 138.0.0.0,1536x864,1536x864,Temporal Distance Task,cb_08,37.0,temp_dist_trial,num_items,zn7si1,1.0,response,1_ITEM,798.1999999523398,791.7000000000116,798.1999999523398,798.1999999523398,791.7000000000116,798.1999999523398,1.0,0.0,0.0,,Click Response,1_count,3.0,object-46,temp_dist_trial,37.0,t_m_04_1,travel_Miami,UV jacket,8.0,unique,single,t_m_04_1.jpg,Travel,$${counterbalance_group},,sub-91
Desktop or Laptop,Windows 10,Chrome 138.0.0.0,1536x864,1536x864,Temporal Distance Task,cb_08,38.0,temp_dist_trial,num_items,zn7si1,1.0,response,1_ITEM,2638.899999999965,2631.7999999999884,2638.899999999965,2638.899999999965,2631.7999999999884,2638.899999999965,1.0,0.0,0.0,,Click Response,1_count,3.0,object-46,temp_dist_trial,38.0,t_i_14_1,travel_Iceland,snow pants,8.0,unique,paired,t_i_14_1.jpg,Travel,$${counterbalance_group},,sub-91
Desktop or Laptop,Windows 10,Chrome 138.0.0.0,1536x864,1536x864,Temporal Distance Task,cb_08,39.0,temp_dist_trial,num_items,zn7si1,1.0,response,1_ITEM,1096.5999999523046,1090.0999999999767,1096.5999999523046,1096.5999999523046,1090.0999999999767,1096.5999999523046,1.0,0.0,0.0,,Click Response,1_count,3.0,object-46,temp_dist_trial,39.0,t_i_06_1,travel_Iceland,knit hat,8.0,unique,paired,t_i_06_1.jpg,Travel,$${counterbalance_group},,sub-91
Desktop or Laptop,Windows 10,Chrome 138.0.0.0,1536x864,1536x864,Temporal Distance Task,cb_08,40.0,temp_dist_trial,num_items,zn7si1,1.0,response,2_ITEM,1143.0999999761698,1138.9000000000233,1143.0999999761698,1143.0999999761698,1138.9000000000233,1143.0999999761698,1.0,0.0,0.0,,Click Response,2_count,5.0,object-49,temp_dist_trial,40.0,t_s_07_1,travel_shared,phone charger cable,8.0,competing,paired,t_s_07_1.jpg,Travel,$${counterbalance_group},,sub-91
Desktop or Laptop,Windows 10,Chrome 138.0.0.0,1536x864,1536x864,Temporal Distance Task,cb_08,40.0,temp_dist_trial,dist_items,qkpkxw,2.0,info,,2.500000023865141,0.0,2.500000023865141,2.500000023865141,0.0,2.500000023865141,1.0,0.0,0.0,,Slider,Slider,4.0,object-56,temp_dist_trial,40.0,t_s_07_1,travel_shared,phone charger cable,8.0,competing,paired,t_s_07_1.jpg,Travel,$${counterbalance_group},,sub-91
Desktop or Laptop,Windows 10,Chrome 138.0.0.0,1536x864,1536x864,Temporal Distance Task,cb_08,40.0,temp_dist_trial,dist_items,qkpkxw,2.0,continue,,2515.799999976181,2514.100000000035,2515.799999976181,2515.799999976181,2514.100000000035,2515.799999976181,1.0,0.0,0.0,,Click To Continue,Next button,7.0,object-60,temp_dist_trial,40.0,t_s_07_1,travel_shared,phone charger cable,8.0,competing,paired,t_s_07_1.jpg,Travel,$${counterbalance_group},,sub-91
Desktop or Laptop,Windows 10,Chrome 138.0.0.0,1536x864,1536x864,Temporal Distance Task,cb_08,40.0,temp_dist_trial,dist_items,qkpkxw,2.0,response,31,1743.1000000000354,2514.100000000035,2516.100000047707,1743.1000000000354,2514.100000000035,2516.100000047707,1.0,773.0000000476721,0.0,,Slider,Slider,4.0,object-56,temp_dist_trial,40.0,t_s_07_1,travel_shared,phone charger cable,8.0,competing,paired,t_s_07_1.jpg,Travel,$${counterbalance_group},,sub-91
Desktop or Laptop,Windows 10,Chrome 138.0.0.0,1536x864,1536x864,Temporal Distance Task,cb_08,41.0,temp_dist_trial,num_items,zn7si1,1.0,response,1_ITEM,865.6999999761465,860.8999999999651,865.6999999761465,865.6999999761465,860.8999999999651,865.6999999761465,1.0,0.0,0.0,,Click Response,1_count,3.0,object-46,temp_dist_trial,41.0,t_m_07_1,travel_Miami,sunglasses,8.0,unique,paired,t_m_07_1.jpg,Travel,$${counterbalance_group},,sub-91
Desktop or Laptop,Windows 10,Chrome 138.0.0.0,1536x864,1536x864,Temporal Distance Task,cb_08,42.0,temp_dist_trial,num_items,zn7si1,1.0,response,1_ITEM,1360.899999999965,1354.0999999999767,1360.899999999965,1360.899999999965,1354.0999999999767,1360.899999999965,1.0,0.0,0.0,,Click Response,1_count,3.0,object-46,temp_dist_trial,42.0,t_i_11_1,travel_Iceland,headlamp,8.0,unique,paired,t_i_11_1.jpg,Travel,$${counterbalance_group},,sub-91
Desktop or Laptop,Windows 10,Chrome 138.0.0.0,1536x864,1536x864,Temporal Distance Task,cb_08,43.0,temp_dist_trial,num_items,zn7si1,1.0,response,1_ITEM,1067.2999999999884,1062.5999999999767,1067.2999999999884,1067.2999999999884,1062.5999999999767,1067.2999999999884,1.0,0.0,0.0,,Click Response,1_count,3.0,object-46,temp_dist_trial,43.0,t_i_18_1,travel_Iceland,ski mask,8.0,unique,paired,t_i_18_1.jpg,Travel,$${counterbalance_group},,sub-91
Desktop or Laptop,Windows 10,Chrome 138.0.0.0,1536x864,1536x864,Temporal Distance Task,cb_08,44.0,temp_dist_trial,num_items,zn7si1,1.0,response,1_ITEM,1706.000000047672,1701.3999999999646,1706.000000047672,1706.000000047672,1701.3999999999646,1706.000000047672,1.0,0.0,0.0,,Click Response,1_count,3.0,object-46,temp_dist_trial,44.0,t_s_18_1,travel_shared,first aid kit,8.0,competing,paired,t_s_18_1.jpg,Travel,$${counterbalance_group},,sub-91
Desktop or Laptop,Windows 10,Chrome 138.0.0.0,1536x864,1536x864,Temporal Distance Task,cb_08,45.0,temp_dist_trial,num_items,zn7si1,1.0,response,1_ITEM,1078.600000047707,1076.5,1078.600000047707,1078.600000047707,1076.5,1078.600000047707,1.0,0.0,0.0,,Click Response,1_count,3.0,object-46,temp_dist_trial,45.0,t_s_11_1,travel_shared,eye mask,8.0,competing,paired,t_s_11_1.jpg,Travel,$${counterbalance_group},,sub-91
Desktop or Laptop,Windows 10,Chrome 138.0.0.0,1536x864,1536x864,Temporal Distance Task,cb_08,46.0,temp_dist_trial,num_items,zn7si1,1.0,response,1_ITEM,828.0,826.2000000000116,828.0,828.0,826.2000000000116,828.0,1.0,0.0,0.0,,Click Response,1_count,3.0,object-46,temp_dist_trial,46.0,t_m_11_1,travel_Miami,collapsible beach chair,8.0,unique,paired,t_m_11_1.jpg,Travel,$${counterbalance_group},,sub-91
Desktop or Laptop,Windows 10,Chrome 138.0.0.0,1536x864,1536x864,Temporal Distance Task,cb_08,47.0,temp_dist_trial,num_items,zn7si1,1.0,response,1_ITEM,541.3999999761581,534.5999999999766,541.3999999761581,541.3999999761581,534.5999999999766,541.3999999761581,1.0,0.0,0.0,,Click Response,1_count,3.0,object-46,temp_dist_trial,47.0,t_s_09_1,travel_shared,wallet,8.0,competing,single,t_s_09_1.jpg,Travel,$${counterbalance_group},,sub-91
Desktop or Laptop,Windows 10,Chrome 138.0.0.0,1536x864,1536x864,Temporal Distance Task,cb_08,48.0,temp_dist_trial,num_items,zn7si1,1.0,response,2_ITEM,1443.2999999761817,1437.4000000000233,1443.2999999761817,1443.2999999761817,1437.4000000000233,1443.2999999761817,1.0,0.0,0.0,,Click Response,2_count,5.0,object-49,temp_dist_trial,48.0,t_s_06_1,travel_shared,luggage,8.0,competing,single,t_s_06_1.jpg,Travel,$${counterbalance_group},,sub-91
Desktop or Laptop,Windows 10,Chrome 138.0.0.0,1536x864,1536x864,Temporal Distance Task,cb_08,48.0,temp_dist_trial,dist_items,qkpkxw,2.0,info,,2.599999999976717,0.0,2.599999999976717,2.599999999976717,0.0,2.599999999976717,1.0,0.0,0.0,,Slider,Slider,4.0,object-56,temp_dist_trial,48.0,t_s_06_1,travel_shared,luggage,8.0,competing,single,t_s_06_1.jpg,Travel,$${counterbalance_group},,sub-91
Desktop or Laptop,Windows 10,Chrome 138.0.0.0,1536x864,1536x864,Temporal Distance Task,cb_08,48.0,temp_dist_trial,dist_items,qkpkxw,2.0,continue,,2147.399999952293,2145.899999999965,2147.399999952293,2147.399999952293,2145.899999999965,2147.399999952293,1.0,0.0,0.0,,Click To Continue,Next button,7.0,object-60,temp_dist_trial,48.0,t_s_06_1,travel_shared,luggage,8.0,competing,single,t_s_06_1.jpg,Travel,$${counterbalance_group},,sub-91
Desktop or Laptop,Windows 10,Chrome 138.0.0.0,1536x864,1536x864,Temporal Distance Task,cb_08,48.0,temp_dist_trial,dist_items,qkpkxw,2.0,response,61,1444.3999999999646,2145.899999999965,2149.2000000238186,1444.3999999999646,2145.899999999965,2149.2000000238186,1.0,704.8000000238535,0.0,,Slider,Slider,4.0,object-56,temp_dist_trial,48.0,t_s_06_1,travel_shared,luggage,8.0,competing,single,t_s_06_1.jpg,Travel,$${counterbalance_group},,sub-91
Desktop or Laptop,Windows 10,Chrome 138.0.0.0,1536x864,1536x864,Temporal Distance Task,cb_08,2.0,temp_eventStart,Screen 1,dgtyxe,1.0,continue,,84114.49999995233,84109.79999999999,84114.49999995233,84114.49999995233,84109.79999999999,84114.49999995233,1.0,0.0,0.0,,Click To Continue,Next Button,3.0,object-43,temp_eventStart,,,Student,,,,,,,$${counterbalance_group},,sub-91
Desktop or Laptop,Windows 10,Chrome 138.0.0.0,1536x864,1536x864,Temporal Distance Task,cb_08,49.0,temp_dist_trial,num_items,zn7si1,1.0,response,1_ITEM,1092.1999999523396,1090.2000000000116,1092.1999999523396,1092.1999999523396,1090.2000000000116,1092.1999999523396,1.0,0.0,0.0,,Click Response,1_count,3.0,object-46,temp_dist_trial,1.0,s_sh_11_1,student_shared,pencil case,8.0,competing,single,s_sh_11_1.jpg,Student,$${counterbalance_group},,sub-91
Desktop or Laptop,Windows 10,Chrome 138.0.0.0,1536x864,1536x864,Temporal Distance Task,cb_08,50.0,temp_dist_trial,num_items,zn7si1,1.0,response,2_ITEM,1403.4000000000233,1402.4000000000233,1403.4000000000233,1403.4000000000233,1402.4000000000233,1403.4000000000233,1.0,0.0,0.0,,Click Response,2_count,5.0,object-49,temp_dist_trial,2.0,s_a_14_1,student_art,guitar pick,8.0,unique,paired,s_a_14_1.jpg,Student,$${counterbalance_group},,sub-91
Desktop or Laptop,Windows 10,Chrome 138.0.0.0,1536x864,1536x864,Temporal Distance Task,cb_08,50.0,temp_dist_trial,dist_items,qkpkxw,2.0,info,,3.0000000238651414,0.0,3.0000000238651414,3.0000000238651414,0.0,3.0000000238651414,1.0,0.0,0.0,,Slider,Slider,4.0,object-56,temp_dist_trial,2.0,s_a_14_1,student_art,guitar pick,8.0,unique,paired,s_a_14_1.jpg,Student,$${counterbalance_group},,sub-91
Desktop or Laptop,Windows 10,Chrome 138.0.0.0,1536x864,1536x864,Temporal Distance Task,cb_08,50.0,temp_dist_trial,dist_items,qkpkxw,2.0,continue,,2147.1999999523396,2145.8000000000466,2147.1999999523396,2147.1999999523396,2145.8000000000466,2147.1999999523396,1.0,0.0,0.0,,Click To Continue,Next button,7.0,object-60,temp_dist_trial,2.0,s_a_14_1,student_art,guitar pick,8.0,unique,paired,s_a_14_1.jpg,Student,$${counterbalance_group},,sub-91
Desktop or Laptop,Windows 10,Chrome 138.0.0.0,1536x864,1536x864,Temporal Distance Task,cb_08,50.0,temp_dist_trial,dist_items,qkpkxw,2.0,response,67,1472.3000000000463,2145.8000000000466,2147.500000023865,1472.3000000000463,2145.8000000000466,2147.500000023865,1.0,675.2000000238186,0.0,,Slider,Slider,4.0,object-56,temp_dist_trial,2.0,s_a_14_1,student_art,guitar pick,8.0,unique,paired,s_a_14_1.jpg,Student,$${counterbalance_group},,sub-91
Desktop or Laptop,Windows 10,Chrome 138.0.0.0,1536x864,1536x864,Temporal Distance Task,cb_08,51.0,temp_dist_trial,num_items,zn7si1,1.0,response,2_ITEM,1215.5,1208.5,1215.5,1215.5,1208.5,1215.5,1.0,0.0,0.0,,Click Response,2_count,5.0,object-49,temp_dist_trial,3.0,s_sh_06_1,student_shared,clipboard,8.0,competing,single,s_sh_06_1.jpg,Student,$${counterbalance_group},,sub-91
Desktop or Laptop,Windows 10,Chrome 138.0.0.0,1536x864,1536x864,Temporal Distance Task,cb_08,51.0,temp_dist_trial,dist_items,qkpkxw,2.0,info,,7.0,0.0,7.0,7.0,0.0,7.0,1.0,0.0,0.0,,Slider,Slider,4.0,object-56,temp_dist_trial,3.0,s_sh_06_1,student_shared,clipboard,8.0,competing,single,s_sh_06_1.jpg,Student,$${counterbalance_group},,sub-91
Desktop or Laptop,Windows 10,Chrome 138.0.0.0,1536x864,1536x864,Temporal Distance Task,cb_08,51.0,temp_dist_trial,dist_items,qkpkxw,2.0,continue,,2043.2000000238183,2041.5999999999767,2043.2000000238183,2043.2000000238183,2041.5999999999767,2043.2000000238183,1.0,0.0,0.0,,Click To Continue,Next button,7.0,object-60,temp_dist_trial,3.0,s_sh_06_1,student_shared,clipboard,8.0,competing,single,s_sh_06_1.jpg,Student,$${counterbalance_group},,sub-91
Desktop or Laptop,Windows 10,Chrome 138.0.0.0,1536x864,1536x864,Temporal Distance Task,cb_08,51.0,temp_dist_trial,dist_items,qkpkxw,2.0,response,44,1180.5,2041.5999999999767,2043.5999999999767,1180.5,2041.5999999999767,2043.5999999999767,1.0,863.0999999999768,0.0,,Slider,Slider,4.0,object-56,temp_dist_trial,3.0,s_sh_06_1,student_shared,clipboard,8.0,competing,single,s_sh_06_1.jpg,Student,$${counterbalance_group},,sub-91
Desktop or Laptop,Windows 10,Chrome 138.0.0.0,1536x864,1536x864,Temporal Distance Task,cb_08,52.0,temp_dist_trial,num_items,zn7si1,1.0,response,1_ITEM,1100.899999976158,1097.2000000000116,1100.899999976158,1100.899999976158,1097.2000000000116,1100.899999976158,1.0,0.0,0.0,,Click Response,1_count,3.0,object-46,temp_dist_trial,4.0,s_sh_16_1,student_shared,stapler,8.0,competing,paired,s_sh_16_1.jpg,Student,$${counterbalance_group},,sub-91
Desktop or Laptop,Windows 10,Chrome 138.0.0.0,1536x864,1536x864,Temporal Distance Task,cb_08,53.0,temp_dist_trial,num_items,zn7si1,1.0,response,1_ITEM,941.9000000000232,937.5,941.9000000000232,941.9000000000232,937.5,941.9000000000232,1.0,0.0,0.0,,Click Response,1_count,3.0,object-46,temp_dist_trial,5.0,s_a_12_1,student_art,saxophone,8.0,unique,paired,s_a_12_1.jpg,Student,$${counterbalance_group},,sub-91
Desktop or Laptop,Windows 10,Chrome 138.0.0.0,1536x864,1536x864,Temporal Distance Task,cb_08,54.0,temp_dist_trial,num_items,zn7si1,1.0,response,1_ITEM,838.6999999523398,833.6000000000349,838.6999999523398,838.6999999523398,833.6000000000349,838.6999999523398,1.0,0.0,0.0,,Click Response,1_count,3.0,object-46,temp_dist_trial,6.0,s_a_03_1,student_art,palette,8.0,unique,single,s_a_03_1.jpg,Student,$${counterbalance_group},,sub-91
Desktop or Laptop,Windows 10,Chrome 138.0.0.0,1536x864,1536x864,Temporal Distance Task,cb_08,55.0,temp_dist_trial,num_items,zn7si1,1.0,response,1_ITEM,970.899999976158,965.2000000000116,970.899999976158,970.899999976158,965.2000000000116,970.899999976158,1.0,0.0,0.0,,Click Response,1_count,3.0,object-46,temp_dist_trial,7.0,s_s_08_1,student_stem,soldering iron,8.0,unique,paired,s_s_08_1.jpg,Student,$${counterbalance_group},,sub-91
Desktop or Laptop,Windows 10,Chrome 138.0.0.0,1536x864,1536x864,Temporal Distance Task,cb_08,56.0,temp_dist_trial,num_items,zn7si1,1.0,response,2_ITEM,1440.000000047672,1437.3999999999646,1440.000000047672,1440.000000047672,1437.3999999999646,1440.000000047672,1.0,0.0,0.0,,Click Response,2_count,5.0,object-49,temp_dist_trial,8.0,s_s_03_1,student_stem,petri dish,8.0,unique,single,s_s_03_1.jpg,Student,$${counterbalance_group},,sub-91
Desktop or Laptop,Windows 10,Chrome 138.0.0.0,1536x864,1536x864,Temporal Distance Task,cb_08,56.0,temp_dist_trial,dist_items,qkpkxw,2.0,info,,2.500000023865141,0.0,2.500000023865141,2.500000023865141,0.0,2.500000023865141,1.0,0.0,0.0,,Slider,Slider,4.0,object-56,temp_dist_trial,8.0,s_s_03_1,student_stem,petri dish,8.0,unique,single,s_s_03_1.jpg,Student,$${counterbalance_group},,sub-91
Desktop or Laptop,Windows 10,Chrome 138.0.0.0,1536x864,1536x864,Temporal Distance Task,cb_08,56.0,temp_dist_trial,dist_items,qkpkxw,2.0,continue,,1692.5000000238654,1687.5,1692.5000000238654,1692.5000000238654,1687.5,1692.5000000238654,1.0,0.0,0.0,,Click To Continue,Next button,7.0,object-60,temp_dist_trial,8.0,s_s_03_1,student_stem,petri dish,8.0,unique,single,s_s_03_1.jpg,Student,$${counterbalance_group},,sub-91
Desktop or Laptop,Windows 10,Chrome 138.0.0.0,1536x864,1536x864,Temporal Distance Task,cb_08,56.0,temp_dist_trial,dist_items,qkpkxw,2.0,response,63,1000.2000000000116,1687.5,1692.7999999761817,1000.2000000000116,1687.5,1692.7999999761817,1.0,692.5999999761698,0.0,,Slider,Slider,4.0,object-56,temp_dist_trial,8.0,s_s_03_1,student_stem,petri dish,8.0,unique,single,s_s_03_1.jpg,Student,$${counterbalance_group},,sub-91
Desktop or Laptop,Windows 10,Chrome 138.0.0.0,1536x864,1536x864,Temporal Distance Task,cb_08,57.0,temp_dist_trial,num_items,zn7si1,1.0,response,1_ITEM,1337.100000047707,1333.3000000000466,1337.100000047707,1337.100000047707,1333.3000000000466,1337.100000047707,1.0,0.0,0.0,,Click Response,1_count,3.0,object-46,temp_dist_trial,9.0,s_sh_14_1,student_shared,printer,8.0,competing,single,s_sh_14_1.jpg,Student,$${counterbalance_group},,sub-91
Desktop or Laptop,Windows 10,Chrome 138.0.0.0,1536x864,1536x864,Temporal Distance Task,cb_08,58.0,temp_dist_trial,num_items,zn7si1,1.0,response,1_ITEM,890.0,888.7999999999884,890.0,890.0,888.7999999999884,890.0,1.0,0.0,0.0,,Click Response,1_count,3.0,object-46,temp_dist_trial,10.0,s_sh_02_1,student_shared,eraser,8.0,competing,paired,s_sh_02_1.jpg,Student,$${counterbalance_group},,sub-91
Desktop or Laptop,Windows 10,Chrome 138.0.0.0,1536x864,1536x864,Temporal Distance Task,cb_08,59.0,temp_dist_trial,num_items,zn7si1,1.0,response,1_ITEM,1076.7999999999884,1069.7000000000116,1076.7999999999884,1076.7999999999884,1069.7000000000116,1076.7999999999884,1.0,0.0,0.0,,Click Response,1_count,3.0,object-46,temp_dist_trial,11.0,s_s_19_1,student_stem,circuit board,8.0,unique,paired,s_s_19_1.jpg,Student,$${counterbalance_group},,sub-91
Desktop or Laptop,Windows 10,Chrome 138.0.0.0,1536x864,1536x864,Temporal Distance Task,cb_08,60.0,temp_dist_trial,num_items,zn7si1,1.0,response,1_ITEM,843.5999999523046,840.3999999999651,843.5999999523046,843.5999999523046,840.3999999999651,843.5999999523046,1.0,0.0,0.0,,Click Response,1_count,3.0,object-46,temp_dist_trial,12.0,s_s_11_1,student_stem,scientific scale,8.0,unique,paired,s_s_11_1.jpg,Student,$${counterbalance_group},,sub-91
Desktop or Laptop,Windows 10,Chrome 138.0.0.0,1536x864,1536x864,Temporal Distance Task,cb_08,61.0,temp_dist_trial,num_items,zn7si1,1.0,response,1_ITEM,833.0999999999768,826.2999999999884,833.0999999999768,833.0999999999768,826.2999999999884,833.0999999999768,1.0,0.0,0.0,,Click Response,1_count,3.0,object-46,temp_dist_trial,13.0,s_s_14_1,student_stem,funnel,8.0,unique,single,s_s_14_1.jpg,Student,$${counterbalance_group},,sub-91
Desktop or Laptop,Windows 10,Chrome 138.0.0.0,1536x864,1536x864,Temporal Distance Task,cb_08,62.0,temp_dist_trial,num_items,zn7si1,1.0,response,2_ITEM,1196.499999952328,1194.600000000035,1196.499999952328,1196.499999952328,1194.600000000035,1196.499999952328,1.0,0.0,0.0,,Click Response,2_count,5.0,object-49,temp_dist_trial,14.0,s_sh_04_1,student_shared,laptop stand,8.0,competing,paired,s_sh_04_1.jpg,Student,$${counterbalance_group},,sub-91
Desktop or Laptop,Windows 10,Chrome 138.0.0.0,1536x864,1536x864,Temporal Distance Task,cb_08,62.0,temp_dist_trial,dist_items,qkpkxw,2.0,info,,3.4000000476953574,0.0,3.4000000476953574,3.4000000476953574,0.0,3.4000000476953574,1.0,0.0,0.0,,Slider,Slider,4.0,object-56,temp_dist_trial,14.0,s_sh_04_1,student_shared,laptop stand,8.0,competing,paired,s_sh_04_1.jpg,Student,$${counterbalance_group},,sub-91
Desktop or Laptop,Windows 10,Chrome 138.0.0.0,1536x864,1536x864,Temporal Distance Task,cb_08,62.0,temp_dist_trial,dist_items,qkpkxw,2.0,continue,,1303.499999952328,1298.7000000000114,1303.499999952328,1303.499999952328,1298.7000000000114,1303.499999952328,1.0,0.0,0.0,,Click To Continue,Next button,7.0,object-60,temp_dist_trial,14.0,s_sh_04_1,student_shared,laptop stand,8.0,competing,paired,s_sh_04_1.jpg,Student,$${counterbalance_group},,sub-91
Desktop or Laptop,Windows 10,Chrome 138.0.0.0,1536x864,1536x864,Temporal Distance Task,cb_08,62.0,temp_dist_trial,dist_items,qkpkxw,2.0,response,40,652.7999999999884,1298.7000000000114,1304.4000000476954,652.7999999999884,1298.7000000000114,1304.4000000476954,1.0,651.600000047707,0.0,,Slider,Slider,4.0,object-56,temp_dist_trial,14.0,s_sh_04_1,student_shared,laptop stand,8.0,competing,paired,s_sh_04_1.jpg,Student,$${counterbalance_group},,sub-91
Desktop or Laptop,Windows 10,Chrome 138.0.0.0,1536x864,1536x864,Temporal Distance Task,cb_08,63.0,temp_dist_trial,num_items,zn7si1,1.0,response,1_ITEM,1249.600000023842,1242.9000000000233,1249.600000023842,1249.600000023842,1242.9000000000233,1249.600000023842,1.0,0.0,0.0,,Click Response,1_count,3.0,object-46,temp_dist_trial,15.0,s_a_05_1,student_art,clay,8.0,unique,paired,s_a_05_1.jpg,Student,$${counterbalance_group},,sub-91
Desktop or Laptop,Windows 10,Chrome 138.0.0.0,1536x864,1536x864,Temporal Distance Task,cb_08,64.0,temp_dist_trial,num_items,zn7si1,1.0,response,2_ITEM,1336.3000000476604,1333.2999999999886,1336.3000000476604,1336.3000000476604,1333.2999999999886,1336.3000000476604,1.0,0.0,0.0,,Click Response,2_count,5.0,object-49,temp_dist_trial,16.0,s_sh_05_1,student_shared,laptop,8.0,competing,paired,s_sh_05_1.jpg,Student,$${counterbalance_group},,sub-91
Desktop or Laptop,Windows 10,Chrome 138.0.0.0,1536x864,1536x864,Temporal Distance Task,cb_08,64.0,temp_dist_trial,dist_items,qkpkxw,2.0,info,,2.8000000238534994,0.0,2.8000000238534994,2.8000000238534994,0.0,2.8000000238534994,1.0,0.0,0.0,,Slider,Slider,4.0,object-56,temp_dist_trial,16.0,s_sh_05_1,student_shared,laptop,8.0,competing,paired,s_sh_05_1.jpg,Student,$${counterbalance_group},,sub-91
Desktop or Laptop,Windows 10,Chrome 138.0.0.0,1536x864,1536x864,Temporal Distance Task,cb_08,64.0,temp_dist_trial,dist_items,qkpkxw,2.0,continue,,1693.999999952328,1687.6000000000354,1693.999999952328,1693.999999952328,1687.6000000000354,1693.999999952328,1.0,0.0,0.0,,Click To Continue,Next button,7.0,object-60,temp_dist_trial,16.0,s_sh_05_1,student_shared,laptop,8.0,competing,paired,s_sh_05_1.jpg,Student,$${counterbalance_group},,sub-91
Desktop or Laptop,Windows 10,Chrome 138.0.0.0,1536x864,1536x864,Temporal Distance Task,cb_08,64.0,temp_dist_trial,dist_items,qkpkxw,2.0,response,40,583.2999999999884,1687.6000000000354,1694.3000000238535,583.2999999999884,1687.6000000000354,1694.3000000238535,1.0,1111.0000000238651,0.0,,Slider,Slider,4.0,object-56,temp_dist_trial,16.0,s_sh_05_1,student_shared,laptop,8.0,competing,paired,s_sh_05_1.jpg,Student,$${counterbalance_group},,sub-91
Desktop or Laptop,Windows 10,Chrome 138.0.0.0,1536x864,1536x864,Temporal Distance Task,cb_08,65.0,temp_dist_trial,num_items,zn7si1,1.0,response,1_ITEM,1617.3000000476604,1610.8999999999646,1617.3000000476604,1617.3000000476604,1610.8999999999646,1617.3000000476604,1.0,0.0,0.0,,Click Response,1_count,3.0,object-46,temp_dist_trial,17.0,s_a_06_1,student_art,pastels,8.0,unique,paired,s_a_06_1.jpg,Student,$${counterbalance_group},,sub-91
Desktop or Laptop,Windows 10,Chrome 138.0.0.0,1536x864,1536x864,Temporal Distance Task,cb_08,66.0,temp_dist_trial,num_items,zn7si1,1.0,response,2_ITEM,1278.899999952293,1277.5999999999767,1278.899999952293,1278.899999952293,1277.5999999999767,1278.899999952293,1.0,0.0,0.0,,Click Response,2_count,5.0,object-49,temp_dist_trial,18.0,s_sh_07_1,student_shared,ruler,8.0,competing,paired,s_sh_07_1.jpg,Student,$${counterbalance_group},,sub-91
Desktop or Laptop,Windows 10,Chrome 138.0.0.0,1536x864,1536x864,Temporal Distance Task,cb_08,66.0,temp_dist_trial,dist_items,qkpkxw,2.0,info,,2.5,0.0,2.5,2.5,0.0,2.5,1.0,0.0,0.0,,Slider,Slider,4.0,object-56,temp_dist_trial,18.0,s_sh_07_1,student_shared,ruler,8.0,competing,paired,s_sh_07_1.jpg,Student,$${counterbalance_group},,sub-91
Desktop or Laptop,Windows 10,Chrome 138.0.0.0,1536x864,1536x864,Temporal Distance Task,cb_08,66.0,temp_dist_trial,dist_items,qkpkxw,2.0,continue,,1964.3999999761581,1958.4000000000235,1964.3999999761581,1964.3999999761581,1958.4000000000235,1964.3999999761581,1.0,0.0,0.0,,Click To Continue,Next button,7.0,object-60,temp_dist_trial,18.0,s_sh_07_1,student_shared,ruler,8.0,competing,paired,s_sh_07_1.jpg,Student,$${counterbalance_group},,sub-91
Desktop or Laptop,Windows 10,Chrome 138.0.0.0,1536x864,1536x864,Temporal Distance Task,cb_08,66.0,temp_dist_trial,dist_items,qkpkxw,2.0,response,59,1250.0,1958.4000000000235,1965.2999999523165,1250.0,1958.4000000000235,1965.2999999523165,1.0,715.2999999523163,0.0,,Slider,Slider,4.0,object-56,temp_dist_trial,18.0,s_sh_07_1,student_shared,ruler,8.0,competing,paired,s_sh_07_1.jpg,Student,$${counterbalance_group},,sub-91
Desktop or Laptop,Windows 10,Chrome 138.0.0.0,1536x864,1536x864,Temporal Distance Task,cb_08,67.0,temp_dist_trial,num_items,zn7si1,1.0,response,1_ITEM,1043.9999999761349,1041.5999999999767,1043.9999999761349,1043.9999999761349,1041.5999999999767,1043.9999999761349,1.0,0.0,0.0,,Click Response,1_count,3.0,object-46,temp_dist_trial,19.0,s_sh_21_1,student_shared,file holder,8.0,competing,paired,s_sh_21_1.jpg,Student,$${counterbalance_group},,sub-91
Desktop or Laptop,Windows 10,Chrome 138.0.0.0,1536x864,1536x864,Temporal Distance Task,cb_08,68.0,temp_dist_trial,num_items,zn7si1,1.0,response,1_ITEM,1175.7000000238186,1173.899999999965,1175.7000000238186,1175.7000000238186,1173.899999999965,1175.7000000238186,1.0,0.0,0.0,,Click Response,1_count,3.0,object-46,temp_dist_trial,20.0,s_sh_01_1,student_shared,notebook,8.0,competing,paired,s_sh_01_1.jpg,Student,$${counterbalance_group},,sub-91
Desktop or Laptop,Windows 10,Chrome 138.0.0.0,1536x864,1536x864,Temporal Distance Task,cb_08,69.0,temp_dist_trial,num_items,zn7si1,1.0,response,1_ITEM,979.0000000238653,972.3000000000467,979.0000000238653,979.0000000238653,972.3000000000467,979.0000000238653,1.0,0.0,0.0,,Click Response,1_count,3.0,object-46,temp_dist_trial,21.0,s_s_13_1,student_stem,telescope,8.0,unique,single,s_s_13_1.jpg,Student,$${counterbalance_group},,sub-91
Desktop or Laptop,Windows 10,Chrome 138.0.0.0,1536x864,1536x864,Temporal Distance Task,cb_08,70.0,temp_dist_trial,num_items,zn7si1,1.0,response,1_ITEM,1493.0000000000582,1486.1000000000354,1493.0000000000582,1493.0000000000582,1486.1000000000354,1493.0000000000582,1.0,0.0,0.0,,Click Response,1_count,3.0,object-46,temp_dist_trial,22.0,s_sh_19_1,student_shared,portable plastic drawer,8.0,competing,paired,s_sh_19_1.jpg,Student,$${counterbalance_group},,sub-91
Desktop or Laptop,Windows 10,Chrome 138.0.0.0,1536x864,1536x864,Temporal Distance Task,cb_08,71.0,temp_dist_trial,num_items,zn7si1,1.0,response,1_ITEM,964.999999952328,958.5,964.999999952328,964.999999952328,958.5,964.999999952328,1.0,0.0,0.0,,Click Response,1_count,3.0,object-46,temp_dist_trial,23.0,s_sh_10_1,student_shared,scissors,8.0,competing,single,s_sh_10_1.jpg,Student,$${counterbalance_group},,sub-91
Desktop or Laptop,Windows 10,Chrome 138.0.0.0,1536x864,1536x864,Temporal Distance Task,cb_08,72.0,temp_dist_trial,num_items,zn7si1,1.0,response,1_ITEM,955.6999999523397,951.7000000000116,955.6999999523397,955.6999999523397,951.7000000000116,955.6999999523397,1.0,0.0,0.0,,Click Response,1_count,3.0,object-46,temp_dist_trial,24.0,s_a_09_1,student_art,picture frame,8.0,unique,single,s_a_09_1.jpg,Student,$${counterbalance_group},,sub-91
Desktop or Laptop,Windows 10,Chrome 138.0.0.0,1536x864,1536x864,Temporal Distance Task,cb_08,73.0,temp_dist_trial,num_items,zn7si1,1.0,response,1_ITEM,652.0,645.7999999999884,652.0,652.0,645.7999999999884,652.0,1.0,0.0,0.0,,Click Response,1_count,3.0,object-46,temp_dist_trial,25.0,s_a_13_1,student_art,violin,8.0,unique,single,s_a_13_1.jpg,Student,$${counterbalance_group},,sub-91
Desktop or Laptop,Windows 10,Chrome 138.0.0.0,1536x864,1536x864,Temporal Distance Task,cb_08,74.0,temp_dist_trial,num_items,zn7si1,1.0,response,2_ITEM,1491.499999952328,1486.2000000000116,1491.499999952328,1491.499999952328,1486.2000000000116,1491.499999952328,1.0,0.0,0.0,,Click Response,2_count,5.0,object-49,temp_dist_trial,26.0,s_sh_13_1,student_shared,index cards,8.0,competing,single,s_sh_13_1.jpg,Student,$${counterbalance_group},,sub-91
Desktop or Laptop,Windows 10,Chrome 138.0.0.0,1536x864,1536x864,Temporal Distance Task,cb_08,74.0,temp_dist_trial,dist_items,qkpkxw,2.0,info,,2.600000023841858,0.0,2.600000023841858,2.600000023841858,0.0,2.600000023841858,1.0,0.0,0.0,,Slider,Slider,4.0,object-56,temp_dist_trial,26.0,s_sh_13_1,student_shared,index cards,8.0,competing,single,s_sh_13_1.jpg,Student,$${counterbalance_group},,sub-91
Desktop or Laptop,Windows 10,Chrome 138.0.0.0,1536x864,1536x864,Temporal Distance Task,cb_08,74.0,temp_dist_trial,dist_items,qkpkxw,2.0,continue,,2868.399999999965,2861.2999999999884,2868.399999999965,2868.399999999965,2861.2999999999884,2868.399999999965,1.0,0.0,0.0,,Click To Continue,Next button,7.0,object-60,temp_dist_trial,26.0,s_sh_13_1,student_shared,index cards,8.0,competing,single,s_sh_13_1.jpg,Student,$${counterbalance_group},,sub-91
Desktop or Laptop,Windows 10,Chrome 138.0.0.0,1536x864,1536x864,Temporal Distance Task,cb_08,74.0,temp_dist_trial,dist_items,qkpkxw,2.0,response,35,1770.7999999999884,2861.2999999999884,2868.399999999965,1770.7999999999884,2861.2999999999884,2868.399999999965,1.0,1097.5999999999767,0.0,,Slider,Slider,4.0,object-56,temp_dist_trial,26.0,s_sh_13_1,student_shared,index cards,8.0,competing,single,s_sh_13_1.jpg,Student,$${counterbalance_group},,sub-91
Desktop or Laptop,Windows 10,Chrome 138.0.0.0,1536x864,1536x864,Temporal Distance Task,cb_08,75.0,temp_dist_trial,num_items,zn7si1,1.0,response,1_ITEM,1302.9000000476954,1298.2999999999886,1302.9000000476954,1302.9000000476954,1298.2999999999886,1302.9000000476954,1.0,0.0,0.0,,Click Response,1_count,3.0,object-46,temp_dist_trial,27.0,s_sh_15_1,student_shared,usb drive,8.0,competing,single,s_sh_15_1.jpg,Student,$${counterbalance_group},,sub-91
Desktop or Laptop,Windows 10,Chrome 138.0.0.0,1536x864,1536x864,Temporal Distance Task,cb_08,76.0,temp_dist_trial,num_items,zn7si1,1.0,response,1_ITEM,634.2999999761814,632.0,634.2999999761814,634.2999999761814,632.0,634.2999999761814,1.0,0.0,0.0,,Click Response,1_count,3.0,object-46,temp_dist_trial,28.0,s_sh_12_1,student_shared,binder,8.0,competing,single,s_sh_12_1.jpg,Student,$${counterbalance_group},,sub-91
Desktop or Laptop,Windows 10,Chrome 138.0.0.0,1536x864,1536x864,Temporal Distance Task,cb_08,77.0,temp_dist_trial,num_items,zn7si1,1.0,response,1_ITEM,646.7999999761814,645.9000000000233,646.7999999761814,646.7999999761814,645.9000000000233,646.7999999761814,1.0,0.0,0.0,,Click Response,1_count,3.0,object-46,temp_dist_trial,29.0,s_a_15_1,student_art,drum kit,8.0,unique,paired,s_a_15_1.jpg,Student,$${counterbalance_group},,sub-91
Desktop or Laptop,Windows 10,Chrome 138.0.0.0,1536x864,1536x864,Temporal Distance Task,cb_08,78.0,temp_dist_trial,num_items,zn7si1,1.0,response,2_ITEM,1396.1000000238419,1395.7000000000116,1396.1000000238419,1396.1000000238419,1395.7000000000116,1396.1000000238419,1.0,0.0,0.0,,Click Response,2_count,5.0,object-49,temp_dist_trial,30.0,s_s_15_1,student_stem,jumper cables,8.0,unique,paired,s_s_15_1.jpg,Student,$${counterbalance_group},,sub-91
Desktop or Laptop,Windows 10,Chrome 138.0.0.0,1536x864,1536x864,Temporal Distance Task,cb_08,78.0,temp_dist_trial,dist_items,qkpkxw,2.0,info,,2.4000000238302164,0.0,2.4000000238302164,2.4000000238302164,0.0,2.4000000238302164,1.0,0.0,0.0,,Slider,Slider,4.0,object-56,temp_dist_trial,30.0,s_s_15_1,student_stem,jumper cables,8.0,unique,paired,s_s_15_1.jpg,Student,$${counterbalance_group},,sub-91
Desktop or Laptop,Windows 10,Chrome 138.0.0.0,1536x864,1536x864,Temporal Distance Task,cb_08,78.0,temp_dist_trial,dist_items,qkpkxw,2.0,continue,,1857.2999999999884,1854.2000000000119,1857.2999999999884,1857.2999999999884,1854.2000000000119,1857.2999999999884,1.0,0.0,0.0,,Click To Continue,Next button,7.0,object-60,temp_dist_trial,30.0,s_s_15_1,student_stem,jumper cables,8.0,unique,paired,s_s_15_1.jpg,Student,$${counterbalance_group},,sub-91
Desktop or Laptop,Windows 10,Chrome 138.0.0.0,1536x864,1536x864,Temporal Distance Task,cb_08,78.0,temp_dist_trial,dist_items,qkpkxw,2.0,response,61,819.5,1854.2000000000119,1857.400000023831,819.5,1854.2000000000119,1857.400000023831,1.0,1037.9000000238302,0.0,,Slider,Slider,4.0,object-56,temp_dist_trial,30.0,s_s_15_1,student_stem,jumper cables,8.0,unique,paired,s_s_15_1.jpg,Student,$${counterbalance_group},,sub-91
Desktop or Laptop,Windows 10,Chrome 138.0.0.0,1536x864,1536x864,Temporal Distance Task,cb_08,79.0,temp_dist_trial,num_items,zn7si1,1.0,response,2_ITEM,1615.4999999761346,1611.0999999999767,1615.4999999761346,1615.4999999761346,1611.0999999999767,1615.4999999761346,1.0,0.0,0.0,,Click Response,2_count,5.0,object-49,temp_dist_trial,31.0,s_sh_17_1,student_shared,wireless mouse,8.0,competing,paired,s_sh_17_1.jpg,Student,$${counterbalance_group},,sub-91
Desktop or Laptop,Windows 10,Chrome 138.0.0.0,1536x864,1536x864,Temporal Distance Task,cb_08,79.0,temp_dist_trial,dist_items,qkpkxw,2.0,info,,2.499999976134859,0.0,2.499999976134859,2.499999976134859,0.0,2.499999976134859,1.0,0.0,0.0,,Slider,Slider,4.0,object-56,temp_dist_trial,31.0,s_sh_17_1,student_shared,wireless mouse,8.0,competing,paired,s_sh_17_1.jpg,Student,$${counterbalance_group},,sub-91
Desktop or Laptop,Windows 10,Chrome 138.0.0.0,1536x864,1536x864,Temporal Distance Task,cb_08,79.0,temp_dist_trial,dist_items,qkpkxw,2.0,continue,,1732.7000000238183,1729.0999999999767,1732.7000000238183,1732.7000000238183,1729.0999999999767,1732.7000000238183,1.0,0.0,0.0,,Click To Continue,Next button,7.0,object-60,temp_dist_trial,31.0,s_sh_17_1,student_shared,wireless mouse,8.0,competing,paired,s_sh_17_1.jpg,Student,$${counterbalance_group},,sub-91
Desktop or Laptop,Windows 10,Chrome 138.0.0.0,1536x864,1536x864,Temporal Distance Task,cb_08,79.0,temp_dist_trial,dist_items,qkpkxw,2.0,response,40,909.6999999999533,1729.0999999999767,1732.9999999761346,909.6999999999533,1729.0999999999767,1732.9999999761346,1.0,823.2999999761812,0.0,,Slider,Slider,4.0,object-56,temp_dist_trial,31.0,s_sh_17_1,student_shared,wireless mouse,8.0,competing,paired,s_sh_17_1.jpg,Student,$${counterbalance_group},,sub-91
Desktop or Laptop,Windows 10,Chrome 138.0.0.0,1536x864,1536x864,Temporal Distance Task,cb_08,80.0,temp_dist_trial,num_items,zn7si1,1.0,response,1_ITEM,1449.7000000476835,1444.5999999999767,1449.7000000476835,1449.7000000476835,1444.5999999999767,1449.7000000476835,1.0,0.0,0.0,,Click Response,1_count,3.0,object-46,temp_dist_trial,32.0,s_s_10_1,student_stem,3d molecule,8.0,unique,paired,s_s_10_1.jpg,Student,$${counterbalance_group},,sub-91
Desktop or Laptop,Windows 10,Chrome 138.0.0.0,1536x864,1536x864,Temporal Distance Task,cb_08,81.0,temp_dist_trial,num_items,zn7si1,1.0,response,1_ITEM,1975.2999999761814,1972.2000000000119,1975.2999999761814,1975.2999999761814,1972.2000000000119,1975.2999999761814,1.0,0.0,0.0,,Click Response,1_count,3.0,object-46,temp_dist_trial,33.0,s_sh_08_1,student_shared,post-its,8.0,competing,paired,s_sh_08_1.jpg,Student,$${counterbalance_group},,sub-91
Desktop or Laptop,Windows 10,Chrome 138.0.0.0,1536x864,1536x864,Temporal Distance Task,cb_08,82.0,temp_dist_trial,num_items,zn7si1,1.0,response,1_ITEM,846.4999999523279,840.4000000000232,846.4999999523279,846.4999999523279,840.4000000000232,846.4999999523279,1.0,0.0,0.0,,Click Response,1_count,3.0,object-46,temp_dist_trial,34.0,s_s_17_1,student_stem,ring stand,8.0,unique,single,s_s_17_1.jpg,Student,$${counterbalance_group},,sub-91
Desktop or Laptop,Windows 10,Chrome 138.0.0.0,1536x864,1536x864,Temporal Distance Task,cb_08,83.0,temp_dist_trial,num_items,zn7si1,1.0,response,2_ITEM,1418.2000000476835,1416.5999999999767,1418.2000000476835,1418.2000000476835,1416.5999999999767,1418.2000000476835,1.0,0.0,0.0,,Click Response,2_count,5.0,object-49,temp_dist_trial,35.0,s_s_06_1,student_stem,calculator,8.0,unique,paired,s_s_06_1.jpg,Student,$${counterbalance_group},,sub-91
Desktop or Laptop,Windows 10,Chrome 138.0.0.0,1536x864,1536x864,Temporal Distance Task,cb_08,83.0,temp_dist_trial,dist_items,qkpkxw,2.0,info,,2.5,0.0,2.5,2.5,0.0,2.5,1.0,0.0,0.0,,Slider,Slider,4.0,object-56,temp_dist_trial,35.0,s_s_06_1,student_stem,calculator,8.0,unique,paired,s_s_06_1.jpg,Student,$${counterbalance_group},,sub-91
Desktop or Laptop,Windows 10,Chrome 138.0.0.0,1536x864,1536x864,Temporal Distance Task,cb_08,83.0,temp_dist_trial,dist_items,qkpkxw,2.0,continue,,1159.5,1152.9000000000233,1159.5,1159.5,1152.9000000000233,1159.5,1.0,0.0,0.0,,Click To Continue,Next button,7.0,object-60,temp_dist_trial,35.0,s_s_06_1,student_stem,calculator,8.0,unique,paired,s_s_06_1.jpg,Student,$${counterbalance_group},,sub-91
Desktop or Laptop,Windows 10,Chrome 138.0.0.0,1536x864,1536x864,Temporal Distance Task,cb_08,83.0,temp_dist_trial,dist_items,qkpkxw,2.0,response,42,513.9000000000234,1152.9000000000233,1159.7000000000694,513.9000000000234,1152.9000000000233,1159.7000000000694,1.0,645.8000000000466,0.0,,Slider,Slider,4.0,object-56,temp_dist_trial,35.0,s_s_06_1,student_stem,calculator,8.0,unique,paired,s_s_06_1.jpg,Student,$${counterbalance_group},,sub-91
Desktop or Laptop,Windows 10,Chrome 138.0.0.0,1536x864,1536x864,Temporal Distance Task,cb_08,84.0,temp_dist_trial,num_items,zn7si1,1.0,response,1_ITEM,746.2000000238188,743.0999999999768,746.2000000238188,746.2000000238188,743.0999999999768,746.2000000238188,1.0,0.0,0.0,,Click Response,1_count,3.0,object-46,temp_dist_trial,36.0,s_s_20_1,student_stem,dna model,8.0,unique,paired,s_s_20_1.jpg,Student,$${counterbalance_group},,sub-91
Desktop or Laptop,Windows 10,Chrome 138.0.0.0,1536x864,1536x864,Temporal Distance Task,cb_08,85.0,temp_dist_trial,num_items,zn7si1,1.0,response,1_ITEM,811.7999999523163,805.5,811.7999999523163,811.7999999523163,805.5,811.7999999523163,1.0,0.0,0.0,,Click Response,1_count,3.0,object-46,temp_dist_trial,37.0,s_sh_09_1,student_shared,paper clips,8.0,competing,paired,s_sh_09_1.jpg,Student,$${counterbalance_group},,sub-91
Desktop or Laptop,Windows 10,Chrome 138.0.0.0,1536x864,1536x864,Temporal Distance Task,cb_08,86.0,temp_dist_trial,num_items,zn7si1,1.0,response,1_ITEM,465.5999999999767,458.5,465.5999999999767,465.5999999999767,458.5,465.5999999999767,1.0,0.0,0.0,,Click Response,1_count,3.0,object-46,temp_dist_trial,38.0,s_a_01_1,student_art,paintbrush,8.0,unique,paired,s_a_01_1.jpg,Student,$${counterbalance_group},,sub-91
Desktop or Laptop,Windows 10,Chrome 138.0.0.0,1536x864,1536x864,Temporal Distance Task,cb_08,87.0,temp_dist_trial,num_items,zn7si1,1.0,response,1_ITEM,1534.499999952328,1527.7000000000116,1534.499999952328,1534.499999952328,1527.7000000000116,1534.499999952328,1.0,0.0,0.0,,Click Response,1_count,3.0,object-46,temp_dist_trial,39.0,s_s_16_1,student_stem,toolbox,8.0,unique,paired,s_s_16_1.jpg,Student,$${counterbalance_group},,sub-91
Desktop or Laptop,Windows 10,Chrome 138.0.0.0,1536x864,1536x864,Temporal Distance Task,cb_08,88.0,temp_dist_trial,num_items,zn7si1,1.0,response,2_ITEM,1536.4000000238302,1534.5,1536.4000000238302,1536.4000000238302,1534.5,1536.4000000238302,1.0,0.0,0.0,,Click Response,2_count,5.0,object-49,temp_dist_trial,40.0,s_a_18_1,student_art,tutu,8.0,unique,paired,s_a_18_1.jpg,Student,$${counterbalance_group},,sub-91
Desktop or Laptop,Windows 10,Chrome 138.0.0.0,1536x864,1536x864,Temporal Distance Task,cb_08,88.0,temp_dist_trial,dist_items,qkpkxw,2.0,info,,2.2999999761814247,0.0,2.2999999761814247,2.2999999761814247,0.0,2.2999999761814247,1.0,0.0,0.0,,Slider,Slider,4.0,object-56,temp_dist_trial,40.0,s_a_18_1,student_art,tutu,8.0,unique,paired,s_a_18_1.jpg,Student,$${counterbalance_group},,sub-91
Desktop or Laptop,Windows 10,Chrome 138.0.0.0,1536x864,1536x864,Temporal Distance Task,cb_08,88.0,temp_dist_trial,dist_items,qkpkxw,2.0,continue,,1660.9000000000233,1659.7000000000116,1660.9000000000233,1660.9000000000233,1659.7000000000116,1660.9000000000233,1.0,0.0,0.0,,Click To Continue,Next button,7.0,object-60,temp_dist_trial,40.0,s_a_18_1,student_art,tutu,8.0,unique,paired,s_a_18_1.jpg,Student,$${counterbalance_group},,sub-91
Desktop or Laptop,Windows 10,Chrome 138.0.0.0,1536x864,1536x864,Temporal Distance Task,cb_08,88.0,temp_dist_trial,dist_items,qkpkxw,2.0,response,60,993.2000000000116,1659.7000000000116,1661.0000000238654,993.2000000000116,1659.7000000000116,1661.0000000238654,1.0,667.8000000238535,0.0,,Slider,Slider,4.0,object-56,temp_dist_trial,40.0,s_a_18_1,student_art,tutu,8.0,unique,paired,s_a_18_1.jpg,Student,$${counterbalance_group},,sub-91
Desktop or Laptop,Windows 10,Chrome 138.0.0.0,1536x864,1536x864,Temporal Distance Task,cb_08,89.0,temp_dist_trial,num_items,zn7si1,1.0,response,1_ITEM,1312.7000000000114,1305.7000000000114,1312.7000000000114,1312.7000000000114,1305.7000000000114,1312.7000000000114,1.0,0.0,0.0,,Click Response,1_count,3.0,object-46,temp_dist_trial,41.0,s_sh_18_1,student_shared,wall calendar,8.0,competing,paired,s_sh_18_1.jpg,Student,$${counterbalance_group},,sub-91
Desktop or Laptop,Windows 10,Chrome 138.0.0.0,1536x864,1536x864,Temporal Distance Task,cb_08,90.0,temp_dist_trial,num_items,zn7si1,1.0,response,1_ITEM,1473.3000000476604,1472.1999999999537,1473.3000000476604,1473.3000000476604,1472.1999999999537,1473.3000000476604,1.0,0.0,0.0,,Click Response,1_count,3.0,object-46,temp_dist_trial,42.0,s_a_08_1,student_art,sewing machine,8.0,unique,single,s_a_08_1.jpg,Student,$${counterbalance_group},,sub-91
Desktop or Laptop,Windows 10,Chrome 138.0.0.0,1536x864,1536x864,Temporal Distance Task,cb_08,91.0,temp_dist_trial,num_items,zn7si1,1.0,response,2_ITEM,1053.0000000238651,1048.7000000000116,1053.0000000238651,1053.0000000238651,1048.7000000000116,1053.0000000238651,1.0,0.0,0.0,,Click Response,2_count,5.0,object-49,temp_dist_trial,43.0,s_sh_23_1,student_shared,ballpoint pen,8.0,competing,paired,s_sh_23_1.jpg,Student,$${counterbalance_group},,sub-91
Desktop or Laptop,Windows 10,Chrome 138.0.0.0,1536x864,1536x864,Temporal Distance Task,cb_08,91.0,temp_dist_trial,dist_items,qkpkxw,2.0,info,,2.600000047706999,0.0,2.600000047706999,2.600000047706999,0.0,2.600000047706999,1.0,0.0,0.0,,Slider,Slider,4.0,object-56,temp_dist_trial,43.0,s_sh_23_1,student_shared,ballpoint pen,8.0,competing,paired,s_sh_23_1.jpg,Student,$${counterbalance_group},,sub-91
Desktop or Laptop,Windows 10,Chrome 138.0.0.0,1536x864,1536x864,Temporal Distance Task,cb_08,91.0,temp_dist_trial,dist_items,qkpkxw,2.0,continue,,1352.4000000000233,1347.4000000000233,1352.4000000000233,1352.4000000000233,1347.4000000000233,1352.4000000000233,1.0,0.0,0.0,,Click To Continue,Next button,7.0,object-60,temp_dist_trial,43.0,s_sh_23_1,student_shared,ballpoint pen,8.0,competing,paired,s_sh_23_1.jpg,Student,$${counterbalance_group},,sub-91
Desktop or Laptop,Windows 10,Chrome 138.0.0.0,1536x864,1536x864,Temporal Distance Task,cb_08,91.0,temp_dist_trial,dist_items,qkpkxw,2.0,response,29,625.1000000000347,1347.4000000000233,1352.6999999523396,625.1000000000347,1347.4000000000233,1352.6999999523396,1.0,727.5999999523046,0.0,,Slider,Slider,4.0,object-56,temp_dist_trial,43.0,s_sh_23_1,student_shared,ballpoint pen,8.0,competing,paired,s_sh_23_1.jpg,Student,$${counterbalance_group},,sub-91
Desktop or Laptop,Windows 10,Chrome 138.0.0.0,1536x864,1536x864,Temporal Distance Task,cb_08,92.0,temp_dist_trial,num_items,zn7si1,1.0,response,1_ITEM,1109.100000023842,1104.0999999999767,1109.100000023842,1109.100000023842,1104.0999999999767,1109.100000023842,1.0,0.0,0.0,,Click Response,1_count,3.0,object-46,temp_dist_trial,44.0,s_sh_03_1,student_shared,highlighter,8.0,competing,paired,s_sh_03_1.jpg,Student,$${counterbalance_group},,sub-91
Desktop or Laptop,Windows 10,Chrome 138.0.0.0,1536x864,1536x864,Temporal Distance Task,cb_08,93.0,temp_dist_trial,num_items,zn7si1,1.0,response,1_ITEM,1275.2999999523165,1270.9000000000233,1275.2999999523165,1275.2999999523165,1270.9000000000233,1275.2999999523165,1.0,0.0,0.0,,Click Response,1_count,3.0,object-46,temp_dist_trial,45.0,s_a_07_1,student_art,yarn,8.0,unique,paired,s_a_07_1.jpg,Student,$${counterbalance_group},,sub-91
Desktop or Laptop,Windows 10,Chrome 138.0.0.0,1536x864,1536x864,Temporal Distance Task,cb_08,94.0,temp_dist_trial,num_items,zn7si1,1.0,response,1_ITEM,2319.5,2312.599999999977,2319.5,2319.5,2312.599999999977,2319.5,1.0,0.0,0.0,,Click Response,1_count,3.0,object-46,temp_dist_trial,46.0,s_sh_22_1,student_shared,hole puncher,8.0,competing,paired,s_sh_22_1.jpg,Student,$${counterbalance_group},,sub-91
Desktop or Laptop,Windows 10,Chrome 138.0.0.0,1536x864,1536x864,Temporal Distance Task,cb_08,95.0,temp_dist_trial,num_items,zn7si1,1.0,response,2_ITEM,1759.3000000476604,1757.0,1759.3000000476604,1759.3000000476604,1757.0,1759.3000000476604,1.0,0.0,0.0,,Click Response,2_count,5.0,object-49,temp_dist_trial,47.0,s_sh_24_1,student_shared,desk organizer,8.0,competing,single,s_sh_24_1.jpg,Student,$${counterbalance_group},,sub-91
Desktop or Laptop,Windows 10,Chrome 138.0.0.0,1536x864,1536x864,Temporal Distance Task,cb_08,95.0,temp_dist_trial,dist_items,qkpkxw,2.0,info,,2.6999999761465006,0.0,2.6999999761465006,2.6999999761465006,0.0,2.6999999761465006,1.0,0.0,0.0,,Slider,Slider,4.0,object-56,temp_dist_trial,47.0,s_sh_24_1,student_shared,desk organizer,8.0,competing,single,s_sh_24_1.jpg,Student,$${counterbalance_group},,sub-91
Desktop or Laptop,Windows 10,Chrome 138.0.0.0,1536x864,1536x864,Temporal Distance Task,cb_08,95.0,temp_dist_trial,dist_items,qkpkxw,2.0,continue,,1920.900000023831,1916.7000000000119,1920.900000023831,1920.900000023831,1916.7000000000119,1920.900000023831,1.0,0.0,0.0,,Click To Continue,Next button,7.0,object-60,temp_dist_trial,47.0,s_sh_24_1,student_shared,desk organizer,8.0,competing,single,s_sh_24_1.jpg,Student,$${counterbalance_group},,sub-91
Desktop or Laptop,Windows 10,Chrome 138.0.0.0,1536x864,1536x864,Temporal Distance Task,cb_08,95.0,temp_dist_trial,dist_items,qkpkxw,2.0,response,41,1083.399999999965,1916.7000000000119,1921.1999999761465,1083.399999999965,1916.7000000000119,1921.1999999761465,1.0,837.7999999761812,0.0,,Slider,Slider,4.0,object-56,temp_dist_trial,47.0,s_sh_24_1,student_shared,desk organizer,8.0,competing,single,s_sh_24_1.jpg,Student,$${counterbalance_group},,sub-91
Desktop or Laptop,Windows 10,Chrome 138.0.0.0,1536x864,1536x864,Temporal Distance Task,cb_08,96.0,temp_dist_trial,num_items,zn7si1,1.0,response,1_ITEM,1824.5999999999767,1819.5,1824.5999999999767,1824.5999999999767,1819.5,1824.5999999999767,1.0,0.0,0.0,,Click Response,1_count,3.0,object-46,temp_dist_trial,48.0,s_sh_20_1,student_shared,tape,8.0,competing,paired,s_sh_20_1.jpg,Student,$${counterbalance_group},,sub-91
Desktop or Laptop,Windows 10,Chrome 138.0.0.0,1536x864,1536x864,Temporal Distance Task,,,,,,,info,END,,,481611.0,,,,,,,,,,,,,,,,,,,,,,$${counterbalance_group},,sub-91
