Participant Device,Participant OS,Participant Browser,Participant Monitor Size,Participant Viewport Size,Task Name,Current Spreadsheet,Trial Number,Display,Screen,Screen ID,Screen Counter,Response Type,Response,Onset Time,Clock Time,Reaction Time,Absolute Onset Time,Absolute Clock Time,Absolute Reaction Time,Correct,Response Duration,Proportion,Tag,Component Name,Object Name,Object Number,Object ID,Spreadsheet: display,Spreadsheet: trial,Spreadsheet: stimulus_id,Spreadsheet: expected_goal,Spreadsheet: stimulus_name,Spreadsheet: c_group,Spreadsheet: condition,Spreadsheet: paired_status,Spreadsheet: stimulus_path,Spreadsheet: block_type,Manipulation: Spreadsheet,Store: enc_test_acc,sub_label
Desktop or Laptop,Windows 10,Edge 138.0.0.0,1756x1098,1756x1098,Temporal Distance Task,$${counterbalance_group},,,,,,info,BEGIN,,,,,,,0.0,,,,,,,,,,,,,,,,,,,,sub-10
Desktop or Laptop,Windows 10,Edge 138.0.0.0,1756x1098,1756x1098,Temporal Distance Task,cb_05,1.0,temp_instructions,intro_screen,3tnme7,1.0,continue,,13993.099999976159,13968.7,13993.099999976159,13993.099999976159,13968.7,13993.099999976159,1.0,0.0,0.0,,Click To Continue,Continue Button,4.0,object-29,temp_instructions,,,Student,,,,,,,,,sub-10
Desktop or Laptop,Windows 10,Edge 138.0.0.0,1756x1098,1756x1098,Temporal Distance Task,cb_05,1.0,temp_instructions,intro_screen_2,52v7ur,2.0,continue,,12156.3,12125.0,12156.3,12156.3,12125.0,12156.3,1.0,0.0,0.0,,Click To Continue,Continue Button,4.0,object-39,temp_instructions,,,Student,,,,,,,,,sub-10
Desktop or Laptop,Windows 10,Edge 138.0.0.0,1756x1098,1756x1098,Temporal Distance Task,cb_05,1.0,temp_instructions,intro_screen_3,i7lvwx,3.0,continue,,7105.300000011923,7093.699999999998,7105.300000011923,7105.300000011923,7093.699999999998,7105.300000011923,1.0,0.0,0.0,,Click To Continue,Continue Button,4.0,object-67,temp_instructions,,,Student,,,,,,,,,sub-10
Desktop or Laptop,Windows 10,Edge 138.0.0.0,1756x1098,1756x1098,Temporal Distance Task,cb_05,1.0,temp_instructions,test_q1,5ieqx1,4.0,response,choice_3,7335.399999964241,7312.600000000006,7335.399999964241,7335.399999964241,7312.600000000006,7335.399999964241,1.0,0.0,0.0,,Click Response,choice_3,5.0,object-345,temp_instructions,,,Student,,,,,,,,,sub-10
Desktop or Laptop,Windows 10,Edge 138.0.0.0,1756x1098,1756x1098,Temporal Distance Task,cb_05,1.0,temp_instructions,score_corr,7ilvjr,5.0,continue,,1338.500000011918,1312.3999999999942,1338.500000011918,1338.500000011918,1312.3999999999942,1338.500000011918,1.0,0.0,0.0,,Click To Continue,Continue Button,3.0,object-23,temp_instructions,,,Student,,,,,,,,,sub-10
Desktop or Laptop,Windows 10,Edge 138.0.0.0,1756x1098,1756x1098,Temporal Distance Task,cb_05,1.0,temp_eventStart,Screen 1,dgtyxe,1.0,continue,,1782.999999988082,1781.3000000000034,1782.999999988082,1782.999999988082,1781.3000000000034,1782.999999988082,1.0,0.0,0.0,,Click To Continue,Next Button,3.0,object-43,temp_eventStart,,,Student,,,,,,,,,sub-10
Desktop or Laptop,Windows 10,Edge 138.0.0.0,1756x1098,1756x1098,Temporal Distance Task,cb_05,1.0,temp_dist_trial,num_items,zn7si1,1.0,response,2_ITEM,2555.300000011921,2531.199999999997,2555.300000011921,2555.300000011921,2531.199999999997,2555.300000011921,1.0,0.0,0.0,,Click Response,2_count,5.0,object-49,temp_dist_trial,1.0,s_a_08_1,student_art,sewing machine,5.0,unique,paired,s_a_08_1.jpg,Student,,,sub-10
Desktop or Laptop,Windows 10,Edge 138.0.0.0,1756x1098,1756x1098,Temporal Distance Task,cb_05,1.0,temp_dist_trial,dist_items,qkpkxw,2.0,info,,13.99999998808198,0.0,13.99999998808198,13.99999998808198,0.0,13.99999998808198,1.0,0.0,0.0,,Slider,Slider,4.0,object-56,temp_dist_trial,1.0,s_a_08_1,student_art,sewing machine,5.0,unique,paired,s_a_08_1.jpg,Student,,,sub-10
Desktop or Laptop,Windows 10,Edge 138.0.0.0,1756x1098,1756x1098,Temporal Distance Task,cb_05,1.0,temp_dist_trial,dist_items,qkpkxw,2.0,continue,,3373.9999999880824,3343.800000000003,3373.9999999880824,3373.9999999880824,3343.800000000003,3373.9999999880824,1.0,0.0,0.0,,Click To Continue,Next button,7.0,object-60,temp_dist_trial,1.0,s_a_08_1,student_art,sewing machine,5.0,unique,paired,s_a_08_1.jpg,Student,,,sub-10
Desktop or Laptop,Windows 10,Edge 138.0.0.0,1756x1098,1756x1098,Temporal Distance Task,cb_05,1.0,temp_dist_trial,dist_items,qkpkxw,2.0,response,36,2312.5,3343.800000000003,3375.1000000000067,2312.5,3343.800000000003,3375.1000000000067,1.0,1062.6000000000058,0.0,,Slider,Slider,4.0,object-56,temp_dist_trial,1.0,s_a_08_1,student_art,sewing machine,5.0,unique,paired,s_a_08_1.jpg,Student,,,sub-10
Desktop or Laptop,Windows 10,Edge 138.0.0.0,1756x1098,1756x1098,Temporal Distance Task,cb_05,2.0,temp_dist_trial,num_items,zn7si1,1.0,response,2_ITEM,2008.0999999642368,2000.0,2008.0999999642368,2008.0999999642368,2000.0,2008.0999999642368,1.0,0.0,0.0,,Click Response,2_count,5.0,object-49,temp_dist_trial,2.0,s_s_03_1,student_stem,petri dish,5.0,unique,paired,s_s_03_1.jpg,Student,,,sub-10
Desktop or Laptop,Windows 10,Edge 138.0.0.0,1756x1098,1756x1098,Temporal Distance Task,cb_05,2.0,temp_dist_trial,dist_items,qkpkxw,2.0,info,,9.899999976158142,0.0,9.899999976158142,9.899999976158142,0.0,9.899999976158142,1.0,0.0,0.0,,Slider,Slider,4.0,object-56,temp_dist_trial,2.0,s_s_03_1,student_stem,petri dish,5.0,unique,paired,s_s_03_1.jpg,Student,,,sub-10
Desktop or Laptop,Windows 10,Edge 138.0.0.0,1756x1098,1756x1098,Temporal Distance Task,cb_05,2.0,temp_dist_trial,dist_items,qkpkxw,2.0,continue,,2554.800000011921,2531.199999999997,2554.800000011921,2554.800000011921,2531.199999999997,2554.800000011921,1.0,0.0,0.0,,Click To Continue,Next button,7.0,object-60,temp_dist_trial,2.0,s_s_03_1,student_stem,petri dish,5.0,unique,paired,s_s_03_1.jpg,Student,,,sub-10
Desktop or Laptop,Windows 10,Edge 138.0.0.0,1756x1098,1756x1098,Temporal Distance Task,cb_05,2.0,temp_dist_trial,dist_items,qkpkxw,2.0,response,60,1625.0,2531.199999999997,2555.300000011921,1625.0,2531.199999999997,2555.300000011921,1.0,930.3000000119208,0.0,,Slider,Slider,4.0,object-56,temp_dist_trial,2.0,s_s_03_1,student_stem,petri dish,5.0,unique,paired,s_s_03_1.jpg,Student,,,sub-10
Desktop or Laptop,Windows 10,Edge 138.0.0.0,1756x1098,1756x1098,Temporal Distance Task,cb_05,3.0,temp_dist_trial,num_items,zn7si1,1.0,response,2_ITEM,1593.1000000119238,1562.5,1593.1000000119238,1593.1000000119238,1562.5,1593.1000000119238,1.0,0.0,0.0,,Click Response,2_count,5.0,object-49,temp_dist_trial,3.0,s_sh_02_1,student_shared,eraser,5.0,competing,paired,s_sh_02_1.jpg,Student,,,sub-10
Desktop or Laptop,Windows 10,Edge 138.0.0.0,1756x1098,1756x1098,Temporal Distance Task,cb_05,3.0,temp_dist_trial,dist_items,qkpkxw,2.0,info,,11.99999998808198,0.0,11.99999998808198,11.99999998808198,0.0,11.99999998808198,1.0,0.0,0.0,,Slider,Slider,4.0,object-56,temp_dist_trial,3.0,s_sh_02_1,student_shared,eraser,5.0,competing,paired,s_sh_02_1.jpg,Student,,,sub-10
Desktop or Laptop,Windows 10,Edge 138.0.0.0,1756x1098,1756x1098,Temporal Distance Task,cb_05,3.0,temp_dist_trial,dist_items,qkpkxw,2.0,continue,,5886.899999964239,5875.0,5886.899999964239,5886.899999964239,5875.0,5886.899999964239,1.0,0.0,0.0,,Click To Continue,Next button,7.0,object-60,temp_dist_trial,3.0,s_sh_02_1,student_shared,eraser,5.0,competing,paired,s_sh_02_1.jpg,Student,,,sub-10
Desktop or Laptop,Windows 10,Edge 138.0.0.0,1756x1098,1756x1098,Temporal Distance Task,cb_05,3.0,temp_dist_trial,dist_items,qkpkxw,2.0,response,35,1093.8000000000031,5875.0,5893.699999976161,1093.8000000000031,5875.0,5893.699999976161,1.0,4799.899999976158,0.0,,Slider,Slider,4.0,object-56,temp_dist_trial,3.0,s_sh_02_1,student_shared,eraser,5.0,competing,paired,s_sh_02_1.jpg,Student,,,sub-10
Desktop or Laptop,Windows 10,Edge 138.0.0.0,1756x1098,1756x1098,Temporal Distance Task,cb_05,4.0,temp_dist_trial,num_items,zn7si1,1.0,response,1_ITEM,2550.6000000119243,2531.300000000003,2550.6000000119243,2550.6000000119243,2531.300000000003,2550.6000000119243,1.0,0.0,0.0,,Click Response,1_count,3.0,object-46,temp_dist_trial,4.0,s_a_01_1,student_art,paintbrush,5.0,unique,paired,s_a_01_1.jpg,Student,,,sub-10
Desktop or Laptop,Windows 10,Edge 138.0.0.0,1756x1098,1756x1098,Temporal Distance Task,cb_05,5.0,temp_dist_trial,num_items,zn7si1,1.0,response,2_ITEM,1946.1999999880786,1937.5,1946.1999999880786,1946.1999999880786,1937.5,1946.1999999880786,1.0,0.0,0.0,,Click Response,2_count,5.0,object-49,temp_dist_trial,5.0,s_s_17_1,student_stem,ring stand,5.0,unique,paired,s_s_17_1.jpg,Student,,,sub-10
Desktop or Laptop,Windows 10,Edge 138.0.0.0,1756x1098,1756x1098,Temporal Distance Task,cb_05,5.0,temp_dist_trial,dist_items,qkpkxw,2.0,info,,9.300000011920927,0.0,9.300000011920927,9.300000011920927,0.0,9.300000011920927,1.0,0.0,0.0,,Slider,Slider,4.0,object-56,temp_dist_trial,5.0,s_s_17_1,student_stem,ring stand,5.0,unique,paired,s_s_17_1.jpg,Student,,,sub-10
Desktop or Laptop,Windows 10,Edge 138.0.0.0,1756x1098,1756x1098,Temporal Distance Task,cb_05,5.0,temp_dist_trial,dist_items,qkpkxw,2.0,continue,,1948.3000000119207,1937.5,1948.3000000119207,1948.3000000119207,1937.5,1948.3000000119207,1.0,0.0,0.0,,Click To Continue,Next button,7.0,object-60,temp_dist_trial,5.0,s_s_17_1,student_stem,ring stand,5.0,unique,paired,s_s_17_1.jpg,Student,,,sub-10
Desktop or Laptop,Windows 10,Edge 138.0.0.0,1756x1098,1756x1098,Temporal Distance Task,cb_05,5.0,temp_dist_trial,dist_items,qkpkxw,2.0,response,79,1125.0,1937.5,1949.0,1125.0,1937.5,1949.0,1.0,824.0,0.0,,Slider,Slider,4.0,object-56,temp_dist_trial,5.0,s_s_17_1,student_stem,ring stand,5.0,unique,paired,s_s_17_1.jpg,Student,,,sub-10
Desktop or Laptop,Windows 10,Edge 138.0.0.0,1756x1098,1756x1098,Temporal Distance Task,cb_05,6.0,temp_dist_trial,num_items,zn7si1,1.0,response,2_ITEM,1422.3999999761581,1406.3000000000034,1422.3999999761581,1422.3999999761581,1406.3000000000034,1422.3999999761581,1.0,0.0,0.0,,Click Response,2_count,5.0,object-49,temp_dist_trial,6.0,s_sh_11_1,student_shared,pencil case,5.0,competing,single,s_sh_11_1.jpg,Student,,,sub-10
Desktop or Laptop,Windows 10,Edge 138.0.0.0,1756x1098,1756x1098,Temporal Distance Task,cb_05,6.0,temp_dist_trial,dist_items,qkpkxw,2.0,info,,6.6000000119238384,0.0,6.6000000119238384,6.6000000119238384,0.0,6.6000000119238384,1.0,0.0,0.0,,Slider,Slider,4.0,object-56,temp_dist_trial,6.0,s_sh_11_1,student_shared,pencil case,5.0,competing,single,s_sh_11_1.jpg,Student,,,sub-10
Desktop or Laptop,Windows 10,Edge 138.0.0.0,1756x1098,1756x1098,Temporal Distance Task,cb_05,6.0,temp_dist_trial,dist_items,qkpkxw,2.0,continue,,3567.600000011924,3562.6000000000067,3567.600000011924,3567.600000011924,3562.6000000000067,3567.600000011924,1.0,0.0,0.0,,Click To Continue,Next button,7.0,object-60,temp_dist_trial,6.0,s_sh_11_1,student_shared,pencil case,5.0,competing,single,s_sh_11_1.jpg,Student,,,sub-10
Desktop or Laptop,Windows 10,Edge 138.0.0.0,1756x1098,1756x1098,Temporal Distance Task,cb_05,6.0,temp_dist_trial,dist_items,qkpkxw,2.0,response,38,1531.3000000000034,3562.6000000000067,3576.800000000003,1531.3000000000034,3562.6000000000067,3576.800000000003,1.0,2045.5,0.0,,Slider,Slider,4.0,object-56,temp_dist_trial,6.0,s_sh_11_1,student_shared,pencil case,5.0,competing,single,s_sh_11_1.jpg,Student,,,sub-10
Desktop or Laptop,Windows 10,Edge 138.0.0.0,1756x1098,1756x1098,Temporal Distance Task,cb_05,7.0,temp_dist_trial,num_items,zn7si1,1.0,response,2_ITEM,1875.0,1843.6999999999966,1875.0,1875.0,1843.6999999999966,1875.0,1.0,0.0,0.0,,Click Response,2_count,5.0,object-49,temp_dist_trial,7.0,s_a_07_1,student_art,yarn,5.0,unique,paired,s_a_07_1.jpg,Student,,,sub-10
Desktop or Laptop,Windows 10,Edge 138.0.0.0,1756x1098,1756x1098,Temporal Distance Task,cb_05,7.0,temp_dist_trial,dist_items,qkpkxw,2.0,info,,11.0,0.0,11.0,11.0,0.0,11.0,1.0,0.0,0.0,,Slider,Slider,4.0,object-56,temp_dist_trial,7.0,s_a_07_1,student_art,yarn,5.0,unique,paired,s_a_07_1.jpg,Student,,,sub-10
Desktop or Laptop,Windows 10,Edge 138.0.0.0,1756x1098,1756x1098,Temporal Distance Task,cb_05,7.0,temp_dist_trial,dist_items,qkpkxw,2.0,continue,,3147.699999988079,3125.0,3147.699999988079,3147.699999988079,3125.0,3147.699999988079,1.0,0.0,0.0,,Click To Continue,Next button,7.0,object-60,temp_dist_trial,7.0,s_a_07_1,student_art,yarn,5.0,unique,paired,s_a_07_1.jpg,Student,,,sub-10
Desktop or Laptop,Windows 10,Edge 138.0.0.0,1756x1098,1756x1098,Temporal Distance Task,cb_05,7.0,temp_dist_trial,dist_items,qkpkxw,2.0,response,55,1437.5,3125.0,3148.699999988079,1437.5,3125.0,3148.699999988079,1.0,1711.1999999880786,0.0,,Slider,Slider,4.0,object-56,temp_dist_trial,7.0,s_a_07_1,student_art,yarn,5.0,unique,paired,s_a_07_1.jpg,Student,,,sub-10
Desktop or Laptop,Windows 10,Edge 138.0.0.0,1756x1098,1756x1098,Temporal Distance Task,cb_05,8.0,temp_dist_trial,num_items,zn7si1,1.0,response,1_ITEM,2075.399999976158,2062.5,2075.399999976158,2075.399999976158,2062.5,2075.399999976158,1.0,0.0,0.0,,Click Response,1_count,3.0,object-46,temp_dist_trial,8.0,s_a_13_1,student_art,violin,5.0,unique,paired,s_a_13_1.jpg,Student,,,sub-10
Desktop or Laptop,Windows 10,Edge 138.0.0.0,1756x1098,1756x1098,Temporal Distance Task,cb_05,9.0,temp_dist_trial,num_items,zn7si1,1.0,response,2_ITEM,1435.0999999642374,1406.1999999999966,1435.0999999642374,1435.0999999642374,1406.1999999999966,1435.0999999642374,1.0,0.0,0.0,,Click Response,2_count,5.0,object-49,temp_dist_trial,9.0,s_sh_17_1,student_shared,wireless mouse,5.0,competing,paired,s_sh_17_1.jpg,Student,,,sub-10
Desktop or Laptop,Windows 10,Edge 138.0.0.0,1756x1098,1756x1098,Temporal Distance Task,cb_05,9.0,temp_dist_trial,dist_items,qkpkxw,2.0,info,,10.69999999999709,0.0,10.69999999999709,10.69999999999709,0.0,10.69999999999709,1.0,0.0,0.0,,Slider,Slider,4.0,object-56,temp_dist_trial,9.0,s_sh_17_1,student_shared,wireless mouse,5.0,competing,paired,s_sh_17_1.jpg,Student,,,sub-10
Desktop or Laptop,Windows 10,Edge 138.0.0.0,1756x1098,1756x1098,Temporal Distance Task,cb_05,9.0,temp_dist_trial,dist_items,qkpkxw,2.0,continue,,3016.799999964235,2999.8999999999933,3016.799999964235,3016.799999964235,2999.8999999999933,3016.799999964235,1.0,0.0,0.0,,Click To Continue,Next button,7.0,object-60,temp_dist_trial,9.0,s_sh_17_1,student_shared,wireless mouse,5.0,competing,paired,s_sh_17_1.jpg,Student,,,sub-10
Desktop or Laptop,Windows 10,Edge 138.0.0.0,1756x1098,1756x1098,Temporal Distance Task,cb_05,9.0,temp_dist_trial,dist_items,qkpkxw,2.0,response,31,1906.1999999999966,2999.8999999999933,3027.399999988076,1906.1999999999966,2999.8999999999933,3027.399999988076,1.0,1121.199999988079,0.0,,Slider,Slider,4.0,object-56,temp_dist_trial,9.0,s_sh_17_1,student_shared,wireless mouse,5.0,competing,paired,s_sh_17_1.jpg,Student,,,sub-10
Desktop or Laptop,Windows 10,Edge 138.0.0.0,1756x1098,1756x1098,Temporal Distance Task,cb_05,10.0,temp_dist_trial,num_items,zn7si1,1.0,response,2_ITEM,2750.1000000000067,2718.800000000003,2750.1000000000067,2750.1000000000067,2718.800000000003,2750.1000000000067,1.0,0.0,0.0,,Click Response,2_count,5.0,object-49,temp_dist_trial,10.0,s_s_05_1,student_stem,lab goggles,5.0,unique,single,s_s_05_1.jpg,Student,,,sub-10
Desktop or Laptop,Windows 10,Edge 138.0.0.0,1756x1098,1756x1098,Temporal Distance Task,cb_05,10.0,temp_dist_trial,dist_items,qkpkxw,2.0,info,,9.099999964237213,0.0,9.099999964237213,9.099999964237213,0.0,9.099999964237213,1.0,0.0,0.0,,Slider,Slider,4.0,object-56,temp_dist_trial,10.0,s_s_05_1,student_stem,lab goggles,5.0,unique,single,s_s_05_1.jpg,Student,,,sub-10
Desktop or Laptop,Windows 10,Edge 138.0.0.0,1756x1098,1756x1098,Temporal Distance Task,cb_05,10.0,temp_dist_trial,dist_items,qkpkxw,2.0,continue,,2372.800000011921,2343.800000000003,2372.800000011921,2372.800000011921,2343.800000000003,2372.800000011921,1.0,0.0,0.0,,Click To Continue,Next button,7.0,object-60,temp_dist_trial,10.0,s_s_05_1,student_stem,lab goggles,5.0,unique,single,s_s_05_1.jpg,Student,,,sub-10
Desktop or Laptop,Windows 10,Edge 138.0.0.0,1756x1098,1756x1098,Temporal Distance Task,cb_05,10.0,temp_dist_trial,dist_items,qkpkxw,2.0,response,74,1093.6999999999969,2343.800000000003,2373.699999988079,1093.6999999999969,2343.800000000003,2373.699999988079,1.0,1279.999999988082,0.0,,Slider,Slider,4.0,object-56,temp_dist_trial,10.0,s_s_05_1,student_stem,lab goggles,5.0,unique,single,s_s_05_1.jpg,Student,,,sub-10
Desktop or Laptop,Windows 10,Edge 138.0.0.0,1756x1098,1756x1098,Temporal Distance Task,cb_05,11.0,temp_dist_trial,num_items,zn7si1,1.0,response,1_ITEM,1873.5999999761555,1843.6999999999966,1873.5999999761555,1873.5999999761555,1843.6999999999966,1873.5999999761555,1.0,0.0,0.0,,Click Response,1_count,3.0,object-46,temp_dist_trial,11.0,s_s_16_1,student_stem,toolbox,5.0,unique,paired,s_s_16_1.jpg,Student,,,sub-10
Desktop or Laptop,Windows 10,Edge 138.0.0.0,1756x1098,1756x1098,Temporal Distance Task,cb_05,12.0,temp_dist_trial,num_items,zn7si1,1.0,response,1_ITEM,1767.8999999761581,1750.0,1767.8999999761581,1767.8999999761581,1750.0,1767.8999999761581,1.0,0.0,0.0,,Click Response,1_count,3.0,object-46,temp_dist_trial,12.0,s_sh_24_1,student_shared,desk organizer,5.0,competing,single,s_sh_24_1.jpg,Student,,,sub-10
Desktop or Laptop,Windows 10,Edge 138.0.0.0,1756x1098,1756x1098,Temporal Distance Task,cb_05,13.0,temp_dist_trial,num_items,zn7si1,1.0,response,1_ITEM,2855.599999964237,2843.699999999997,2855.599999964237,2855.599999964237,2843.699999999997,2855.599999964237,1.0,0.0,0.0,,Click Response,1_count,3.0,object-46,temp_dist_trial,13.0,s_a_15_1,student_art,drum kit,5.0,unique,paired,s_a_15_1.jpg,Student,,,sub-10
Desktop or Laptop,Windows 10,Edge 138.0.0.0,1756x1098,1756x1098,Temporal Distance Task,cb_05,14.0,temp_dist_trial,num_items,zn7si1,1.0,response,1_ITEM,1379.000000011918,1374.8999999999942,1379.000000011918,1379.000000011918,1374.8999999999942,1379.000000011918,1.0,0.0,0.0,,Click Response,1_count,3.0,object-46,temp_dist_trial,14.0,s_a_06_1,student_art,pastels,5.0,unique,paired,s_a_06_1.jpg,Student,,,sub-10
Desktop or Laptop,Windows 10,Edge 138.0.0.0,1756x1098,1756x1098,Temporal Distance Task,cb_05,15.0,temp_dist_trial,num_items,zn7si1,1.0,response,2_ITEM,1744.0999999761555,1718.6999999999966,1744.0999999761555,1744.0999999761555,1718.6999999999966,1744.0999999761555,1.0,0.0,0.0,,Click Response,2_count,5.0,object-49,temp_dist_trial,15.0,s_sh_20_1,student_shared,tape,5.0,competing,paired,s_sh_20_1.jpg,Student,,,sub-10
Desktop or Laptop,Windows 10,Edge 138.0.0.0,1756x1098,1756x1098,Temporal Distance Task,cb_05,15.0,temp_dist_trial,dist_items,qkpkxw,2.0,info,,13.599999964237213,0.0,13.599999964237213,13.599999964237213,0.0,13.599999964237213,1.0,0.0,0.0,,Slider,Slider,4.0,object-56,temp_dist_trial,15.0,s_sh_20_1,student_shared,tape,5.0,competing,paired,s_sh_20_1.jpg,Student,,,sub-10
Desktop or Laptop,Windows 10,Edge 138.0.0.0,1756x1098,1756x1098,Temporal Distance Task,cb_05,15.0,temp_dist_trial,dist_items,qkpkxw,2.0,continue,,2425.0,2406.300000000003,2425.0,2425.0,2406.300000000003,2425.0,1.0,0.0,0.0,,Click To Continue,Next button,7.0,object-60,temp_dist_trial,15.0,s_sh_20_1,student_shared,tape,5.0,competing,paired,s_sh_20_1.jpg,Student,,,sub-10
Desktop or Laptop,Windows 10,Edge 138.0.0.0,1756x1098,1756x1098,Temporal Distance Task,cb_05,15.0,temp_dist_trial,dist_items,qkpkxw,2.0,response,34,1656.1999999999966,2406.300000000003,2425.899999976158,1656.1999999999966,2406.300000000003,2425.899999976158,1.0,769.699999976161,0.0,,Slider,Slider,4.0,object-56,temp_dist_trial,15.0,s_sh_20_1,student_shared,tape,5.0,competing,paired,s_sh_20_1.jpg,Student,,,sub-10
Desktop or Laptop,Windows 10,Edge 138.0.0.0,1756x1098,1756x1098,Temporal Distance Task,cb_05,16.0,temp_dist_trial,num_items,zn7si1,1.0,response,2_ITEM,1591.8999999880762,1562.3999999999942,1591.8999999880762,1591.8999999880762,1562.3999999999942,1591.8999999880762,1.0,0.0,0.0,,Click Response,2_count,5.0,object-49,temp_dist_trial,16.0,s_a_03_1,student_art,palette,5.0,unique,paired,s_a_03_1.jpg,Student,,,sub-10
Desktop or Laptop,Windows 10,Edge 138.0.0.0,1756x1098,1756x1098,Temporal Distance Task,cb_05,16.0,temp_dist_trial,dist_items,qkpkxw,2.0,info,,9.000000011918019,0.0,9.000000011918019,9.000000011918019,0.0,9.000000011918019,1.0,0.0,0.0,,Slider,Slider,4.0,object-56,temp_dist_trial,16.0,s_a_03_1,student_art,palette,5.0,unique,paired,s_a_03_1.jpg,Student,,,sub-10
Desktop or Laptop,Windows 10,Edge 138.0.0.0,1756x1098,1756x1098,Temporal Distance Task,cb_05,16.0,temp_dist_trial,dist_items,qkpkxw,2.0,continue,,4483.899999988076,4468.699999999997,4483.899999988076,4483.899999988076,4468.699999999997,4483.899999988076,1.0,0.0,0.0,,Click To Continue,Next button,7.0,object-60,temp_dist_trial,16.0,s_a_03_1,student_art,palette,5.0,unique,paired,s_a_03_1.jpg,Student,,,sub-10
Desktop or Laptop,Windows 10,Edge 138.0.0.0,1756x1098,1756x1098,Temporal Distance Task,cb_05,16.0,temp_dist_trial,dist_items,qkpkxw,2.0,response,38,1781.1999999999966,4468.699999999997,4489.899999988076,1781.1999999999966,4468.699999999997,4489.899999988076,1.0,2708.699999988079,0.0,,Slider,Slider,4.0,object-56,temp_dist_trial,16.0,s_a_03_1,student_art,palette,5.0,unique,paired,s_a_03_1.jpg,Student,,,sub-10
Desktop or Laptop,Windows 10,Edge 138.0.0.0,1756x1098,1756x1098,Temporal Distance Task,cb_05,17.0,temp_dist_trial,num_items,zn7si1,1.0,response,1_ITEM,2671.199999988079,2656.300000000003,2671.199999988079,2671.199999988079,2656.300000000003,2671.199999988079,1.0,0.0,0.0,,Click Response,1_count,3.0,object-46,temp_dist_trial,17.0,s_sh_16_1,student_shared,stapler,5.0,competing,paired,s_sh_16_1.jpg,Student,,,sub-10
Desktop or Laptop,Windows 10,Edge 138.0.0.0,1756x1098,1756x1098,Temporal Distance Task,cb_05,18.0,temp_dist_trial,num_items,zn7si1,1.0,response,1_ITEM,2216.89999996424,2187.5,2216.89999996424,2216.89999996424,2187.5,2216.89999996424,1.0,0.0,0.0,,Click Response,1_count,3.0,object-46,temp_dist_trial,18.0,s_sh_14_1,student_shared,printer,5.0,competing,single,s_sh_14_1.jpg,Student,,,sub-10
Desktop or Laptop,Windows 10,Edge 138.0.0.0,1756x1098,1756x1098,Temporal Distance Task,cb_05,19.0,temp_dist_trial,num_items,zn7si1,1.0,response,num_miss,3000.0,3000.0,3000.0,3000.0,3000.0,3000.0,1.0,0.0,0.0,num_miss_tag,Time Limit,screen,0.0,screen,temp_dist_trial,19.0,s_sh_19_1,student_shared,portable plastic drawer,5.0,competing,paired,s_sh_19_1.jpg,Student,,,sub-10
Desktop or Laptop,Windows 10,Edge 138.0.0.0,1756x1098,1756x1098,Temporal Distance Task,cb_05,20.0,temp_dist_trial,num_items,zn7si1,1.0,response,1_ITEM,69.39999997615814,62.5,69.39999997615814,69.39999997615814,62.5,69.39999997615814,1.0,0.0,0.0,,Click Response,1_count,3.0,object-46,temp_dist_trial,20.0,s_s_04_1,student_stem,bunsen burner,5.0,unique,single,s_s_04_1.jpg,Student,,,sub-10
Desktop or Laptop,Windows 10,Edge 138.0.0.0,1756x1098,1756x1098,Temporal Distance Task,cb_05,21.0,temp_dist_trial,num_items,zn7si1,1.0,response,2_ITEM,2139.899999976158,2125.0,2139.899999976158,2139.899999976158,2125.0,2139.899999976158,1.0,0.0,0.0,,Click Response,2_count,5.0,object-49,temp_dist_trial,21.0,s_s_14_1,student_stem,funnel,5.0,unique,paired,s_s_14_1.jpg,Student,,,sub-10
Desktop or Laptop,Windows 10,Edge 138.0.0.0,1756x1098,1756x1098,Temporal Distance Task,cb_05,21.0,temp_dist_trial,dist_items,qkpkxw,2.0,info,,9.0,0.0,9.0,9.0,0.0,9.0,1.0,0.0,0.0,,Slider,Slider,4.0,object-56,temp_dist_trial,21.0,s_s_14_1,student_stem,funnel,5.0,unique,paired,s_s_14_1.jpg,Student,,,sub-10
Desktop or Laptop,Windows 10,Edge 138.0.0.0,1756x1098,1756x1098,Temporal Distance Task,cb_05,21.0,temp_dist_trial,dist_items,qkpkxw,2.0,continue,,2148.599999964237,2125.0,2148.599999964237,2148.599999964237,2125.0,2148.599999964237,1.0,0.0,0.0,,Click To Continue,Next button,7.0,object-60,temp_dist_trial,21.0,s_s_14_1,student_stem,funnel,5.0,unique,paired,s_s_14_1.jpg,Student,,,sub-10
Desktop or Laptop,Windows 10,Edge 138.0.0.0,1756x1098,1756x1098,Temporal Distance Task,cb_05,21.0,temp_dist_trial,dist_items,qkpkxw,2.0,response,68,1093.6999999999969,2125.0,2149.099999964237,1093.6999999999969,2125.0,2149.099999964237,1.0,1055.3999999642401,0.0,,Slider,Slider,4.0,object-56,temp_dist_trial,21.0,s_s_14_1,student_stem,funnel,5.0,unique,paired,s_s_14_1.jpg,Student,,,sub-10
Desktop or Laptop,Windows 10,Edge 138.0.0.0,1756x1098,1756x1098,Temporal Distance Task,cb_05,22.0,temp_dist_trial,num_items,zn7si1,1.0,response,1_ITEM,1906.2000000000119,1875.0,1906.2000000000119,1906.2000000000119,1875.0,1906.2000000000119,1.0,0.0,0.0,,Click Response,1_count,3.0,object-46,temp_dist_trial,22.0,s_sh_15_1,student_shared,usb drive,5.0,competing,single,s_sh_15_1.jpg,Student,,,sub-10
Desktop or Laptop,Windows 10,Edge 138.0.0.0,1756x1098,1756x1098,Temporal Distance Task,cb_05,23.0,temp_dist_trial,num_items,zn7si1,1.0,response,1_ITEM,1579.8999999761581,1562.5,1579.8999999761581,1579.8999999761581,1562.5,1579.8999999761581,1.0,0.0,0.0,,Click Response,1_count,3.0,object-46,temp_dist_trial,23.0,s_sh_10_1,student_shared,scissors,5.0,competing,single,s_sh_10_1.jpg,Student,,,sub-10
Desktop or Laptop,Windows 10,Edge 138.0.0.0,1756x1098,1756x1098,Temporal Distance Task,cb_05,24.0,temp_dist_trial,num_items,zn7si1,1.0,response,1_ITEM,2478.599999964237,2468.700000000012,2478.599999964237,2478.599999964237,2468.700000000012,2478.599999964237,1.0,0.0,0.0,,Click Response,1_count,3.0,object-46,temp_dist_trial,24.0,s_s_12_1,student_stem,robotic arm,5.0,unique,single,s_s_12_1.jpg,Student,,,sub-10
Desktop or Laptop,Windows 10,Edge 138.0.0.0,1756x1098,1756x1098,Temporal Distance Task,cb_05,25.0,temp_dist_trial,num_items,zn7si1,1.0,response,2_ITEM,2631.200000000012,2624.9000000000233,2631.200000000012,2631.200000000012,2624.9000000000233,2631.200000000012,1.0,0.0,0.0,,Click Response,2_count,5.0,object-49,temp_dist_trial,25.0,s_sh_23_1,student_shared,ballpoint pen,5.0,competing,paired,s_sh_23_1.jpg,Student,,,sub-10
Desktop or Laptop,Windows 10,Edge 138.0.0.0,1756x1098,1756x1098,Temporal Distance Task,cb_05,25.0,temp_dist_trial,dist_items,qkpkxw,2.0,info,,8.099999976169784,0.0,8.099999976169784,8.099999976169784,0.0,8.099999976169784,1.0,0.0,0.0,,Slider,Slider,4.0,object-56,temp_dist_trial,25.0,s_sh_23_1,student_shared,ballpoint pen,5.0,competing,paired,s_sh_23_1.jpg,Student,,,sub-10
Desktop or Laptop,Windows 10,Edge 138.0.0.0,1756x1098,1756x1098,Temporal Distance Task,cb_05,25.0,temp_dist_trial,dist_items,qkpkxw,2.0,continue,,2364.299999964249,2343.700000000012,2364.299999964249,2364.299999964249,2343.700000000012,2364.299999964249,1.0,0.0,0.0,,Click To Continue,Next button,7.0,object-60,temp_dist_trial,25.0,s_sh_23_1,student_shared,ballpoint pen,5.0,competing,paired,s_sh_23_1.jpg,Student,,,sub-10
Desktop or Laptop,Windows 10,Edge 138.0.0.0,1756x1098,1756x1098,Temporal Distance Task,cb_05,25.0,temp_dist_trial,dist_items,qkpkxw,2.0,response,68,1656.2000000000116,2343.700000000012,2365.000000011933,1656.2000000000116,2343.700000000012,2365.000000011933,1.0,708.8000000119209,0.0,,Slider,Slider,4.0,object-56,temp_dist_trial,25.0,s_sh_23_1,student_shared,ballpoint pen,5.0,competing,paired,s_sh_23_1.jpg,Student,,,sub-10
Desktop or Laptop,Windows 10,Edge 138.0.0.0,1756x1098,1756x1098,Temporal Distance Task,cb_05,26.0,temp_dist_trial,num_items,zn7si1,1.0,response,2_ITEM,1519.3999999761581,1500.0,1519.3999999761581,1519.3999999761581,1500.0,1519.3999999761581,1.0,0.0,0.0,,Click Response,2_count,5.0,object-49,temp_dist_trial,26.0,s_sh_06_1,student_shared,clipboard,5.0,competing,single,s_sh_06_1.jpg,Student,,,sub-10
Desktop or Laptop,Windows 10,Edge 138.0.0.0,1756x1098,1756x1098,Temporal Distance Task,cb_05,26.0,temp_dist_trial,dist_items,qkpkxw,2.0,info,,9.199999988079073,0.0,9.199999988079073,9.199999988079073,0.0,9.199999988079073,1.0,0.0,0.0,,Slider,Slider,4.0,object-56,temp_dist_trial,26.0,s_sh_06_1,student_shared,clipboard,5.0,competing,single,s_sh_06_1.jpg,Student,,,sub-10
Desktop or Laptop,Windows 10,Edge 138.0.0.0,1756x1098,1756x1098,Temporal Distance Task,cb_05,26.0,temp_dist_trial,dist_items,qkpkxw,2.0,continue,,2337.300000011921,2312.5,2337.300000011921,2337.300000011921,2312.5,2337.300000011921,1.0,0.0,0.0,,Click To Continue,Next button,7.0,object-60,temp_dist_trial,26.0,s_sh_06_1,student_shared,clipboard,5.0,competing,single,s_sh_06_1.jpg,Student,,,sub-10
Desktop or Laptop,Windows 10,Edge 138.0.0.0,1756x1098,1756x1098,Temporal Distance Task,cb_05,26.0,temp_dist_trial,dist_items,qkpkxw,2.0,response,74,1500.0,2312.5,2338.5,1500.0,2312.5,2338.5,1.0,838.5,0.0,,Slider,Slider,4.0,object-56,temp_dist_trial,26.0,s_sh_06_1,student_shared,clipboard,5.0,competing,single,s_sh_06_1.jpg,Student,,,sub-10
Desktop or Laptop,Windows 10,Edge 138.0.0.0,1756x1098,1756x1098,Temporal Distance Task,cb_05,27.0,temp_dist_trial,num_items,zn7si1,1.0,response,1_ITEM,1613.0,1593.7999999999884,1613.0,1613.0,1593.7999999999884,1613.0,1.0,0.0,0.0,,Click Response,1_count,3.0,object-46,temp_dist_trial,27.0,s_s_18_1,student_stem,brain model,5.0,unique,single,s_s_18_1.jpg,Student,,,sub-10
Desktop or Laptop,Windows 10,Edge 138.0.0.0,1756x1098,1756x1098,Temporal Distance Task,cb_05,28.0,temp_dist_trial,num_items,zn7si1,1.0,response,2_ITEM,1465.2999999999884,1437.5,1465.2999999999884,1465.2999999999884,1437.5,1465.2999999999884,1.0,0.0,0.0,,Click Response,2_count,5.0,object-49,temp_dist_trial,28.0,s_sh_08_1,student_shared,post-its,5.0,competing,paired,s_sh_08_1.jpg,Student,,,sub-10
Desktop or Laptop,Windows 10,Edge 138.0.0.0,1756x1098,1756x1098,Temporal Distance Task,cb_05,28.0,temp_dist_trial,dist_items,qkpkxw,2.0,info,,7.499999988067429,0.0,7.499999988067429,7.499999988067429,0.0,7.499999988067429,1.0,0.0,0.0,,Slider,Slider,4.0,object-56,temp_dist_trial,28.0,s_sh_08_1,student_shared,post-its,5.0,competing,paired,s_sh_08_1.jpg,Student,,,sub-10
Desktop or Laptop,Windows 10,Edge 138.0.0.0,1756x1098,1756x1098,Temporal Distance Task,cb_05,28.0,temp_dist_trial,dist_items,qkpkxw,2.0,continue,,2289.600000011909,2281.2999999999884,2289.600000011909,2289.600000011909,2281.2999999999884,2289.600000011909,1.0,0.0,0.0,,Click To Continue,Next button,7.0,object-60,temp_dist_trial,28.0,s_sh_08_1,student_shared,post-its,5.0,competing,paired,s_sh_08_1.jpg,Student,,,sub-10
Desktop or Laptop,Windows 10,Edge 138.0.0.0,1756x1098,1756x1098,Temporal Distance Task,cb_05,28.0,temp_dist_trial,dist_items,qkpkxw,2.0,response,29,1500.0999999999767,2281.2999999999884,2290.2999999999884,1500.0999999999767,2281.2999999999884,2290.2999999999884,1.0,790.2000000000116,0.0,,Slider,Slider,4.0,object-56,temp_dist_trial,28.0,s_sh_08_1,student_shared,post-its,5.0,competing,paired,s_sh_08_1.jpg,Student,,,sub-10
Desktop or Laptop,Windows 10,Edge 138.0.0.0,1756x1098,1756x1098,Temporal Distance Task,cb_05,29.0,temp_dist_trial,num_items,zn7si1,1.0,response,1_ITEM,2634.199999988079,2625.0,2634.199999988079,2634.199999988079,2625.0,2634.199999988079,1.0,0.0,0.0,,Click Response,1_count,3.0,object-46,temp_dist_trial,29.0,s_a_20_1,student_art,pin cushion,5.0,unique,single,s_a_20_1.jpg,Student,,,sub-10
Desktop or Laptop,Windows 10,Edge 138.0.0.0,1756x1098,1756x1098,Temporal Distance Task,cb_05,30.0,temp_dist_trial,num_items,zn7si1,1.0,response,num_miss,3000.0,3000.0,3000.0,3000.0,3000.0,3000.0,1.0,0.0,0.0,num_miss_tag,Time Limit,screen,0.0,screen,temp_dist_trial,30.0,s_s_13_1,student_stem,telescope,5.0,unique,paired,s_s_13_1.jpg,Student,,,sub-10
Desktop or Laptop,Windows 10,Edge 138.0.0.0,1756x1098,1756x1098,Temporal Distance Task,cb_05,31.0,temp_dist_trial,num_items,zn7si1,1.0,response,2_ITEM,579.2999999999884,562.5,579.2999999999884,579.2999999999884,562.5,579.2999999999884,1.0,0.0,0.0,,Click Response,2_count,5.0,object-49,temp_dist_trial,31.0,s_sh_13_1,student_shared,index cards,5.0,competing,single,s_sh_13_1.jpg,Student,,,sub-10
Desktop or Laptop,Windows 10,Edge 138.0.0.0,1756x1098,1756x1098,Temporal Distance Task,cb_05,31.0,temp_dist_trial,dist_items,qkpkxw,2.0,info,,6.7000000000116415,0.0,6.7000000000116415,6.7000000000116415,0.0,6.7000000000116415,1.0,0.0,0.0,,Slider,Slider,4.0,object-56,temp_dist_trial,31.0,s_sh_13_1,student_shared,index cards,5.0,competing,single,s_sh_13_1.jpg,Student,,,sub-10
Desktop or Laptop,Windows 10,Edge 138.0.0.0,1756x1098,1756x1098,Temporal Distance Task,cb_05,31.0,temp_dist_trial,dist_items,qkpkxw,2.0,continue,,3933.89999998809,3906.200000000012,3933.89999998809,3933.89999998809,3906.200000000012,3933.89999998809,1.0,0.0,0.0,,Click To Continue,Next button,7.0,object-60,temp_dist_trial,31.0,s_sh_13_1,student_shared,index cards,5.0,competing,single,s_sh_13_1.jpg,Student,,,sub-10
Desktop or Laptop,Windows 10,Edge 138.0.0.0,1756x1098,1756x1098,Temporal Distance Task,cb_05,31.0,temp_dist_trial,dist_items,qkpkxw,2.0,response,24,1750.0,3906.200000000012,3937.4000000000233,1750.0,3906.200000000012,3937.4000000000233,1.0,2187.4000000000233,0.0,,Slider,Slider,4.0,object-56,temp_dist_trial,31.0,s_sh_13_1,student_shared,index cards,5.0,competing,single,s_sh_13_1.jpg,Student,,,sub-10
Desktop or Laptop,Windows 10,Edge 138.0.0.0,1756x1098,1756x1098,Temporal Distance Task,cb_05,32.0,temp_dist_trial,num_items,zn7si1,1.0,response,2_ITEM,1194.899999976158,1187.3999999999942,1194.899999976158,1194.899999976158,1187.3999999999942,1194.899999976158,1.0,0.0,0.0,,Click Response,2_count,5.0,object-49,temp_dist_trial,32.0,s_sh_05_1,student_shared,laptop,5.0,competing,paired,s_sh_05_1.jpg,Student,,,sub-10
Desktop or Laptop,Windows 10,Edge 138.0.0.0,1756x1098,1756x1098,Temporal Distance Task,cb_05,32.0,temp_dist_trial,dist_items,qkpkxw,2.0,info,,8.100000000005819,0.0,8.100000000005819,8.100000000005819,0.0,8.100000000005819,1.0,0.0,0.0,,Slider,Slider,4.0,object-56,temp_dist_trial,32.0,s_sh_05_1,student_shared,laptop,5.0,competing,paired,s_sh_05_1.jpg,Student,,,sub-10
Desktop or Laptop,Windows 10,Edge 138.0.0.0,1756x1098,1756x1098,Temporal Distance Task,cb_05,32.0,temp_dist_trial,dist_items,qkpkxw,2.0,response,dist_miss,7000.100000000006,7000.100000000006,7000.100000000006,7000.100000000006,7000.100000000006,7000.100000000006,1.0,0.0,0.0,dist_miss_tag,Time Limit,screen,0.0,screen,temp_dist_trial,32.0,s_sh_05_1,student_shared,laptop,5.0,competing,paired,s_sh_05_1.jpg,Student,,,sub-10
Desktop or Laptop,Windows 10,Edge 138.0.0.0,1756x1098,1756x1098,Temporal Distance Task,cb_05,32.0,temp_dist_trial,dist_items,qkpkxw,2.0,response,27,6781.399999999994,7000.100000000006,7010.299999988085,6781.399999999994,7000.100000000006,7010.299999988085,1.0,228.8999999880907,0.0,,Slider,Slider,4.0,object-56,temp_dist_trial,32.0,s_sh_05_1,student_shared,laptop,5.0,competing,paired,s_sh_05_1.jpg,Student,,,sub-10
Desktop or Laptop,Windows 10,Edge 138.0.0.0,1756x1098,1756x1098,Temporal Distance Task,cb_05,33.0,temp_dist_trial,num_items,zn7si1,1.0,response,2_ITEM,1548.1999999880786,1531.2999999999884,1548.1999999880786,1548.1999999880786,1531.2999999999884,1548.1999999880786,1.0,0.0,0.0,,Click Response,2_count,5.0,object-49,temp_dist_trial,33.0,s_sh_21_1,student_shared,file holder,5.0,competing,paired,s_sh_21_1.jpg,Student,,,sub-10
Desktop or Laptop,Windows 10,Edge 138.0.0.0,1756x1098,1756x1098,Temporal Distance Task,cb_05,33.0,temp_dist_trial,dist_items,qkpkxw,2.0,info,,10.50000001193257,0.0,10.50000001193257,10.50000001193257,0.0,10.50000001193257,1.0,0.0,0.0,,Slider,Slider,4.0,object-56,temp_dist_trial,33.0,s_sh_21_1,student_shared,file holder,5.0,competing,paired,s_sh_21_1.jpg,Student,,,sub-10
Desktop or Laptop,Windows 10,Edge 138.0.0.0,1756x1098,1756x1098,Temporal Distance Task,cb_05,33.0,temp_dist_trial,dist_items,qkpkxw,2.0,continue,,2214.299999964249,2187.5,2214.299999964249,2214.299999964249,2187.5,2214.299999964249,1.0,0.0,0.0,,Click To Continue,Next button,7.0,object-60,temp_dist_trial,33.0,s_sh_21_1,student_shared,file holder,5.0,competing,paired,s_sh_21_1.jpg,Student,,,sub-10
Desktop or Laptop,Windows 10,Edge 138.0.0.0,1756x1098,1756x1098,Temporal Distance Task,cb_05,33.0,temp_dist_trial,dist_items,qkpkxw,2.0,response,25,1531.2000000000116,2187.5,2214.700000000012,1531.2000000000116,2187.5,2214.700000000012,1.0,683.5,0.0,,Slider,Slider,4.0,object-56,temp_dist_trial,33.0,s_sh_21_1,student_shared,file holder,5.0,competing,paired,s_sh_21_1.jpg,Student,,,sub-10
Desktop or Laptop,Windows 10,Edge 138.0.0.0,1756x1098,1756x1098,Temporal Distance Task,cb_05,34.0,temp_dist_trial,num_items,zn7si1,1.0,response,1_ITEM,1310.3999999880907,1281.1000000000058,1310.3999999880907,1310.3999999880907,1281.1000000000058,1310.3999999880907,1.0,0.0,0.0,,Click Response,1_count,3.0,object-46,temp_dist_trial,34.0,s_sh_03_1,student_shared,highlighter,5.0,competing,paired,s_sh_03_1.jpg,Student,,,sub-10
Desktop or Laptop,Windows 10,Edge 138.0.0.0,1756x1098,1756x1098,Temporal Distance Task,cb_05,35.0,temp_dist_trial,num_items,zn7si1,1.0,response,1_ITEM,1622.6999999880786,1593.7000000000116,1622.6999999880786,1622.6999999880786,1593.7000000000116,1622.6999999880786,1.0,0.0,0.0,,Click Response,1_count,3.0,object-46,temp_dist_trial,35.0,s_s_20_1,student_stem,dna model,5.0,unique,paired,s_s_20_1.jpg,Student,,,sub-10
Desktop or Laptop,Windows 10,Edge 138.0.0.0,1756x1098,1756x1098,Temporal Distance Task,cb_05,36.0,temp_dist_trial,num_items,zn7si1,1.0,response,1_ITEM,1603.5999999761698,1593.7000000000116,1603.5999999761698,1603.5999999761698,1593.7000000000116,1603.5999999761698,1.0,0.0,0.0,,Click Response,1_count,3.0,object-46,temp_dist_trial,36.0,s_a_10_1,student_art,tripod,5.0,unique,single,s_a_10_1.jpg,Student,,,sub-10
Desktop or Laptop,Windows 10,Edge 138.0.0.0,1756x1098,1756x1098,Temporal Distance Task,cb_05,37.0,temp_dist_trial,num_items,zn7si1,1.0,response,1_ITEM,1848.5,1843.7999999999884,1848.5,1848.5,1843.7999999999884,1848.5,1.0,0.0,0.0,,Click Response,1_count,3.0,object-46,temp_dist_trial,37.0,s_a_09_1,student_art,picture frame,5.0,unique,paired,s_a_09_1.jpg,Student,,,sub-10
Desktop or Laptop,Windows 10,Edge 138.0.0.0,1756x1098,1756x1098,Temporal Distance Task,cb_05,38.0,temp_dist_trial,num_items,zn7si1,1.0,response,2_ITEM,2020.4999999880679,2000.0,2020.4999999880679,2020.4999999880679,2000.0,2020.4999999880679,1.0,0.0,0.0,,Click Response,2_count,5.0,object-49,temp_dist_trial,38.0,s_a_11_1,student_art,clapperboard,5.0,unique,single,s_a_11_1.jpg,Student,,,sub-10
Desktop or Laptop,Windows 10,Edge 138.0.0.0,1756x1098,1756x1098,Temporal Distance Task,cb_05,38.0,temp_dist_trial,dist_items,qkpkxw,2.0,info,,10.600000011909287,0.0,10.600000011909287,10.600000011909287,0.0,10.600000011909287,1.0,0.0,0.0,,Slider,Slider,4.0,object-56,temp_dist_trial,38.0,s_a_11_1,student_art,clapperboard,5.0,unique,single,s_a_11_1.jpg,Student,,,sub-10
Desktop or Laptop,Windows 10,Edge 138.0.0.0,1756x1098,1756x1098,Temporal Distance Task,cb_05,38.0,temp_dist_trial,dist_items,qkpkxw,2.0,continue,,3231.6000000119093,3218.7999999999884,3231.6000000119093,3231.6000000119093,3218.7999999999884,3231.6000000119093,1.0,0.0,0.0,,Click To Continue,Next button,7.0,object-60,temp_dist_trial,38.0,s_a_11_1,student_art,clapperboard,5.0,unique,single,s_a_11_1.jpg,Student,,,sub-10
Desktop or Laptop,Windows 10,Edge 138.0.0.0,1756x1098,1756x1098,Temporal Distance Task,cb_05,38.0,temp_dist_trial,dist_items,qkpkxw,2.0,response,72,2250.0999999999767,3218.7999999999884,3232.2999999999884,2250.0999999999767,3218.7999999999884,3232.2999999999884,1.0,982.2000000000116,0.0,,Slider,Slider,4.0,object-56,temp_dist_trial,38.0,s_a_11_1,student_art,clapperboard,5.0,unique,single,s_a_11_1.jpg,Student,,,sub-10
Desktop or Laptop,Windows 10,Edge 138.0.0.0,1756x1098,1756x1098,Temporal Distance Task,cb_05,39.0,temp_dist_trial,num_items,zn7si1,1.0,response,2_ITEM,2156.2999999999884,2125.0,2156.2999999999884,2156.2999999999884,2125.0,2156.2999999999884,1.0,0.0,0.0,,Click Response,2_count,5.0,object-49,temp_dist_trial,39.0,s_sh_04_1,student_shared,laptop stand,5.0,competing,paired,s_sh_04_1.jpg,Student,,,sub-10
Desktop or Laptop,Windows 10,Edge 138.0.0.0,1756x1098,1756x1098,Temporal Distance Task,cb_05,39.0,temp_dist_trial,dist_items,qkpkxw,2.0,info,,6.300000011920929,0.0,6.300000011920929,6.300000011920929,0.0,6.300000011920929,1.0,0.0,0.0,,Slider,Slider,4.0,object-56,temp_dist_trial,39.0,s_sh_04_1,student_shared,laptop stand,5.0,competing,paired,s_sh_04_1.jpg,Student,,,sub-10
Desktop or Laptop,Windows 10,Edge 138.0.0.0,1756x1098,1756x1098,Temporal Distance Task,cb_05,39.0,temp_dist_trial,dist_items,qkpkxw,2.0,continue,,2743.099999964237,2718.700000000012,2743.099999964237,2743.099999964237,2718.700000000012,2743.099999964237,1.0,0.0,0.0,,Click To Continue,Next button,7.0,object-60,temp_dist_trial,39.0,s_sh_04_1,student_shared,laptop stand,5.0,competing,paired,s_sh_04_1.jpg,Student,,,sub-10
Desktop or Laptop,Windows 10,Edge 138.0.0.0,1756x1098,1756x1098,Temporal Distance Task,cb_05,39.0,temp_dist_trial,dist_items,qkpkxw,2.0,response,25,1718.7999999999884,2718.700000000012,2744.399999976158,1718.7999999999884,2718.700000000012,2744.399999976158,1.0,1025.5999999761698,0.0,,Slider,Slider,4.0,object-56,temp_dist_trial,39.0,s_sh_04_1,student_shared,laptop stand,5.0,competing,paired,s_sh_04_1.jpg,Student,,,sub-10
Desktop or Laptop,Windows 10,Edge 138.0.0.0,1756x1098,1756x1098,Temporal Distance Task,cb_05,40.0,temp_dist_trial,num_items,zn7si1,1.0,response,2_ITEM,1807.6000000119093,1781.2999999999884,1807.6000000119093,1807.6000000119093,1781.2999999999884,1807.6000000119093,1.0,0.0,0.0,,Click Response,2_count,5.0,object-49,temp_dist_trial,40.0,s_sh_09_1,student_shared,paper clips,5.0,competing,paired,s_sh_09_1.jpg,Student,,,sub-10
Desktop or Laptop,Windows 10,Edge 138.0.0.0,1756x1098,1756x1098,Temporal Distance Task,cb_05,40.0,temp_dist_trial,dist_items,qkpkxw,2.0,info,,10.800000011920927,0.0,10.800000011920927,10.800000011920927,0.0,10.800000011920927,1.0,0.0,0.0,,Slider,Slider,4.0,object-56,temp_dist_trial,40.0,s_sh_09_1,student_shared,paper clips,5.0,competing,paired,s_sh_09_1.jpg,Student,,,sub-10
Desktop or Laptop,Windows 10,Edge 138.0.0.0,1756x1098,1756x1098,Temporal Distance Task,cb_05,40.0,temp_dist_trial,dist_items,qkpkxw,2.0,continue,,1755.5999999642374,1750.0,1755.5999999642374,1755.5999999642374,1750.0,1755.5999999642374,1.0,0.0,0.0,,Click To Continue,Next button,7.0,object-60,temp_dist_trial,40.0,s_sh_09_1,student_shared,paper clips,5.0,competing,paired,s_sh_09_1.jpg,Student,,,sub-10
Desktop or Laptop,Windows 10,Edge 138.0.0.0,1756x1098,1756x1098,Temporal Distance Task,cb_05,40.0,temp_dist_trial,dist_items,qkpkxw,2.0,response,32,1156.2999999999886,1750.0,1756.3000000119214,1156.2999999999886,1750.0,1756.3000000119214,1.0,600.0000000119326,0.0,,Slider,Slider,4.0,object-56,temp_dist_trial,40.0,s_sh_09_1,student_shared,paper clips,5.0,competing,paired,s_sh_09_1.jpg,Student,,,sub-10
Desktop or Laptop,Windows 10,Edge 138.0.0.0,1756x1098,1756x1098,Temporal Distance Task,cb_05,41.0,temp_dist_trial,num_items,zn7si1,1.0,response,1_ITEM,1889.5,1875.0,1889.5,1889.5,1875.0,1889.5,1.0,0.0,0.0,,Click Response,1_count,3.0,object-46,temp_dist_trial,41.0,s_sh_22_1,student_shared,hole puncher,5.0,competing,paired,s_sh_22_1.jpg,Student,,,sub-10
Desktop or Laptop,Windows 10,Edge 138.0.0.0,1756x1098,1756x1098,Temporal Distance Task,cb_05,42.0,temp_dist_trial,num_items,zn7si1,1.0,response,2_ITEM,1049.899999976158,1031.2000000000116,1049.899999976158,1049.899999976158,1031.2000000000116,1049.899999976158,1.0,0.0,0.0,,Click Response,2_count,5.0,object-49,temp_dist_trial,42.0,s_sh_01_1,student_shared,notebook,5.0,competing,paired,s_sh_01_1.jpg,Student,,,sub-10
Desktop or Laptop,Windows 10,Edge 138.0.0.0,1756x1098,1756x1098,Temporal Distance Task,cb_05,42.0,temp_dist_trial,dist_items,qkpkxw,2.0,info,,9.600000011909287,0.0,9.600000011909287,9.600000011909287,0.0,9.600000011909287,1.0,0.0,0.0,,Slider,Slider,4.0,object-56,temp_dist_trial,42.0,s_sh_01_1,student_shared,notebook,5.0,competing,paired,s_sh_01_1.jpg,Student,,,sub-10
Desktop or Laptop,Windows 10,Edge 138.0.0.0,1756x1098,1756x1098,Temporal Distance Task,cb_05,42.0,temp_dist_trial,dist_items,qkpkxw,2.0,continue,,2299.100000011909,2281.2999999999884,2299.100000011909,2299.100000011909,2281.2999999999884,2299.100000011909,1.0,0.0,0.0,,Click To Continue,Next button,7.0,object-60,temp_dist_trial,42.0,s_sh_01_1,student_shared,notebook,5.0,competing,paired,s_sh_01_1.jpg,Student,,,sub-10
Desktop or Laptop,Windows 10,Edge 138.0.0.0,1756x1098,1756x1098,Temporal Distance Task,cb_05,42.0,temp_dist_trial,dist_items,qkpkxw,2.0,response,70,1125.0,2281.2999999999884,2300.3999999642256,1125.0,2281.2999999999884,2300.3999999642256,1.0,1175.3999999642256,0.0,,Slider,Slider,4.0,object-56,temp_dist_trial,42.0,s_sh_01_1,student_shared,notebook,5.0,competing,paired,s_sh_01_1.jpg,Student,,,sub-10
Desktop or Laptop,Windows 10,Edge 138.0.0.0,1756x1098,1756x1098,Temporal Distance Task,cb_05,43.0,temp_dist_trial,num_items,zn7si1,1.0,response,1_ITEM,1572.8999999761581,1562.5,1572.8999999761581,1572.8999999761581,1562.5,1572.8999999761581,1.0,0.0,0.0,,Click Response,1_count,3.0,object-46,temp_dist_trial,43.0,s_s_11_1,student_stem,scientific scale,5.0,unique,paired,s_s_11_1.jpg,Student,,,sub-10
Desktop or Laptop,Windows 10,Edge 138.0.0.0,1756x1098,1756x1098,Temporal Distance Task,cb_05,44.0,temp_dist_trial,num_items,zn7si1,1.0,response,2_ITEM,1159.399999976158,1156.2000000000114,1159.399999976158,1159.399999976158,1156.2000000000114,1159.399999976158,1.0,0.0,0.0,,Click Response,2_count,5.0,object-49,temp_dist_trial,44.0,s_sh_07_1,student_shared,ruler,5.0,competing,paired,s_sh_07_1.jpg,Student,,,sub-10
Desktop or Laptop,Windows 10,Edge 138.0.0.0,1756x1098,1756x1098,Temporal Distance Task,cb_05,44.0,temp_dist_trial,dist_items,qkpkxw,2.0,info,,9.399999988090713,0.0,9.399999988090713,9.399999988090713,0.0,9.399999988090713,1.0,0.0,0.0,,Slider,Slider,4.0,object-56,temp_dist_trial,44.0,s_sh_07_1,student_shared,ruler,5.0,competing,paired,s_sh_07_1.jpg,Student,,,sub-10
Desktop or Laptop,Windows 10,Edge 138.0.0.0,1756x1098,1756x1098,Temporal Distance Task,cb_05,44.0,temp_dist_trial,dist_items,qkpkxw,2.0,continue,,1682.0000000119323,1656.2000000000116,1682.0000000119323,1682.0000000119323,1656.2000000000116,1682.0000000119323,1.0,0.0,0.0,,Click To Continue,Next button,7.0,object-60,temp_dist_trial,44.0,s_sh_07_1,student_shared,ruler,5.0,competing,paired,s_sh_07_1.jpg,Student,,,sub-10
Desktop or Laptop,Windows 10,Edge 138.0.0.0,1756x1098,1756x1098,Temporal Distance Task,cb_05,44.0,temp_dist_trial,dist_items,qkpkxw,2.0,response,80,1000.0,1656.2000000000116,1682.5000000119323,1000.0,1656.2000000000116,1682.5000000119323,1.0,682.5000000119326,0.0,,Slider,Slider,4.0,object-56,temp_dist_trial,44.0,s_sh_07_1,student_shared,ruler,5.0,competing,paired,s_sh_07_1.jpg,Student,,,sub-10
Desktop or Laptop,Windows 10,Edge 138.0.0.0,1756x1098,1756x1098,Temporal Distance Task,cb_05,45.0,temp_dist_trial,num_items,zn7si1,1.0,response,1_ITEM,2156.2999999999884,2125.0,2156.2999999999884,2156.2999999999884,2125.0,2156.2999999999884,1.0,0.0,0.0,,Click Response,1_count,3.0,object-46,temp_dist_trial,45.0,s_a_04_1,student_art,easel,5.0,unique,single,s_a_04_1.jpg,Student,,,sub-10
Desktop or Laptop,Windows 10,Edge 138.0.0.0,1756x1098,1756x1098,Temporal Distance Task,cb_05,46.0,temp_dist_trial,num_items,zn7si1,1.0,response,2_ITEM,1104.800000011921,1093.7999999999884,1104.800000011921,1104.800000011921,1093.7999999999884,1104.800000011921,1.0,0.0,0.0,,Click Response,2_count,5.0,object-49,temp_dist_trial,46.0,s_s_06_1,student_stem,calculator,5.0,unique,paired,s_s_06_1.jpg,Student,,,sub-10
Desktop or Laptop,Windows 10,Edge 138.0.0.0,1756x1098,1756x1098,Temporal Distance Task,cb_05,46.0,temp_dist_trial,dist_items,qkpkxw,2.0,info,,7.499999988067429,0.0,7.499999988067429,7.499999988067429,0.0,7.499999988067429,1.0,0.0,0.0,,Slider,Slider,4.0,object-56,temp_dist_trial,46.0,s_s_06_1,student_stem,calculator,5.0,unique,paired,s_s_06_1.jpg,Student,,,sub-10
Desktop or Laptop,Windows 10,Edge 138.0.0.0,1756x1098,1756x1098,Temporal Distance Task,cb_05,46.0,temp_dist_trial,dist_items,qkpkxw,2.0,continue,,3031.200000000012,3000.0,3031.200000000012,3031.200000000012,3000.0,3031.200000000012,1.0,0.0,0.0,,Click To Continue,Next button,7.0,object-60,temp_dist_trial,46.0,s_s_06_1,student_stem,calculator,5.0,unique,paired,s_s_06_1.jpg,Student,,,sub-10
Desktop or Laptop,Windows 10,Edge 138.0.0.0,1756x1098,1756x1098,Temporal Distance Task,cb_05,46.0,temp_dist_trial,dist_items,qkpkxw,2.0,response,14,1500.0,3000.0,3031.200000000012,1500.0,3000.0,3031.200000000012,1.0,1531.2000000000116,0.0,,Slider,Slider,4.0,object-56,temp_dist_trial,46.0,s_s_06_1,student_stem,calculator,5.0,unique,paired,s_s_06_1.jpg,Student,,,sub-10
Desktop or Laptop,Windows 10,Edge 138.0.0.0,1756x1098,1756x1098,Temporal Distance Task,cb_05,47.0,temp_dist_trial,num_items,zn7si1,1.0,response,1_ITEM,1647.1999999761465,1625.0,1647.1999999761465,1647.1999999761465,1625.0,1647.1999999761465,1.0,0.0,0.0,,Click Response,1_count,3.0,object-46,temp_dist_trial,47.0,s_sh_12_1,student_shared,binder,5.0,competing,single,s_sh_12_1.jpg,Student,,,sub-10
Desktop or Laptop,Windows 10,Edge 138.0.0.0,1756x1098,1756x1098,Temporal Distance Task,cb_05,48.0,temp_dist_trial,num_items,zn7si1,1.0,response,1_ITEM,2027.7999999999884,2000.0,2027.7999999999884,2027.7999999999884,2000.0,2027.7999999999884,1.0,0.0,0.0,,Click Response,1_count,3.0,object-46,temp_dist_trial,48.0,s_sh_18_1,student_shared,wall calendar,5.0,competing,paired,s_sh_18_1.jpg,Student,,,sub-10
Desktop or Laptop,Windows 10,Edge 138.0.0.0,1756x1098,1756x1098,Temporal Distance Task,cb_05,2.0,temp_eventStart,Screen 1,dgtyxe,1.0,continue,,2139.1999999761465,2125.0999999999767,2139.1999999761465,2139.1999999761465,2125.0999999999767,2139.1999999761465,1.0,0.0,0.0,,Click To Continue,Next Button,3.0,object-43,temp_eventStart,,,Travel,,,,,,,,,sub-10
Desktop or Laptop,Windows 10,Edge 138.0.0.0,1756x1098,1756x1098,Temporal Distance Task,cb_05,49.0,temp_dist_trial,num_items,zn7si1,1.0,response,1_ITEM,2437.4000000000233,2406.200000000012,2437.4000000000233,2437.4000000000233,2406.200000000012,2437.4000000000233,1.0,0.0,0.0,,Click Response,1_count,3.0,object-46,temp_dist_trial,1.0,t_m_20_1,travel_Miami,inflatable beachball,5.0,unique,paired,t_m_20_1.jpg,Travel,,,sub-10
Desktop or Laptop,Windows 10,Edge 138.0.0.0,1756x1098,1756x1098,Temporal Distance Task,cb_05,50.0,temp_dist_trial,num_items,zn7si1,1.0,response,1_ITEM,2069.899999976158,2062.5,2069.899999976158,2069.899999976158,2062.5,2069.899999976158,1.0,0.0,0.0,,Click Response,1_count,3.0,object-46,temp_dist_trial,2.0,t_i_13_1,travel_Iceland,sleeping bag,5.0,unique,single,t_i_13_1.jpg,Travel,,,sub-10
Desktop or Laptop,Windows 10,Edge 138.0.0.0,1756x1098,1756x1098,Temporal Distance Task,cb_05,51.0,temp_dist_trial,num_items,zn7si1,1.0,response,1_ITEM,1468.1999999880786,1437.5,1468.1999999880786,1468.1999999880786,1437.5,1468.1999999880786,1.0,0.0,0.0,,Click Response,1_count,3.0,object-46,temp_dist_trial,3.0,t_s_05_1,travel_shared,neck pillow,5.0,competing,paired,t_s_05_1.jpg,Travel,,,sub-10
Desktop or Laptop,Windows 10,Edge 138.0.0.0,1756x1098,1756x1098,Temporal Distance Task,cb_05,52.0,temp_dist_trial,num_items,zn7si1,1.0,response,2_ITEM,1721.8000000119214,1718.7999999999884,1721.8000000119214,1721.8000000119214,1718.7999999999884,1721.8000000119214,1.0,0.0,0.0,,Click Response,2_count,5.0,object-49,temp_dist_trial,4.0,t_s_07_1,travel_shared,phone charger cable,5.0,competing,paired,t_s_07_1.jpg,Travel,,,sub-10
Desktop or Laptop,Windows 10,Edge 138.0.0.0,1756x1098,1756x1098,Temporal Distance Task,cb_05,52.0,temp_dist_trial,dist_items,qkpkxw,2.0,info,,9.399999964225572,0.0,9.399999964225572,9.399999964225572,0.0,9.399999964225572,1.0,0.0,0.0,,Slider,Slider,4.0,object-56,temp_dist_trial,4.0,t_s_07_1,travel_shared,phone charger cable,5.0,competing,paired,t_s_07_1.jpg,Travel,,,sub-10
Desktop or Laptop,Windows 10,Edge 138.0.0.0,1756x1098,1756x1098,Temporal Distance Task,cb_05,52.0,temp_dist_trial,dist_items,qkpkxw,2.0,continue,,2530.3999999642256,2500.099999999977,2530.3999999642256,2530.3999999642256,2500.099999999977,2530.3999999642256,1.0,0.0,0.0,,Click To Continue,Next button,7.0,object-60,temp_dist_trial,4.0,t_s_07_1,travel_shared,phone charger cable,5.0,competing,paired,t_s_07_1.jpg,Travel,,,sub-10
Desktop or Laptop,Windows 10,Edge 138.0.0.0,1756x1098,1756x1098,Temporal Distance Task,cb_05,52.0,temp_dist_trial,dist_items,qkpkxw,2.0,response,25,1468.7999999999884,2500.099999999977,2531.399999999965,1468.7999999999884,2500.099999999977,2531.399999999965,1.0,1062.5999999999767,0.0,,Slider,Slider,4.0,object-56,temp_dist_trial,4.0,t_s_07_1,travel_shared,phone charger cable,5.0,competing,paired,t_s_07_1.jpg,Travel,,,sub-10
Desktop or Laptop,Windows 10,Edge 138.0.0.0,1756x1098,1756x1098,Temporal Distance Task,cb_05,53.0,temp_dist_trial,num_items,zn7si1,1.0,response,1_ITEM,1912.2000000000119,1906.1000000000056,1912.2000000000119,1912.2000000000119,1906.1000000000056,1912.2000000000119,1.0,0.0,0.0,,Click Response,1_count,3.0,object-46,temp_dist_trial,5.0,t_i_03_1,travel_Iceland,winter jacket,5.0,unique,paired,t_i_03_1.jpg,Travel,,,sub-10
Desktop or Laptop,Windows 10,Edge 138.0.0.0,1756x1098,1756x1098,Temporal Distance Task,cb_05,54.0,temp_dist_trial,num_items,zn7si1,1.0,response,2_ITEM,1337.199999988079,1312.5,1337.199999988079,1337.199999988079,1312.5,1337.199999988079,1.0,0.0,0.0,,Click Response,2_count,5.0,object-49,temp_dist_trial,6.0,t_m_10_1,travel_Miami,tanktop,5.0,unique,paired,t_m_10_1.jpg,Travel,,,sub-10
Desktop or Laptop,Windows 10,Edge 138.0.0.0,1756x1098,1756x1098,Temporal Distance Task,cb_05,54.0,temp_dist_trial,dist_items,qkpkxw,2.0,info,,7.5,0.0,7.5,7.5,0.0,7.5,1.0,0.0,0.0,,Slider,Slider,4.0,object-56,temp_dist_trial,6.0,t_m_10_1,travel_Miami,tanktop,5.0,unique,paired,t_m_10_1.jpg,Travel,,,sub-10
Desktop or Laptop,Windows 10,Edge 138.0.0.0,1756x1098,1756x1098,Temporal Distance Task,cb_05,54.0,temp_dist_trial,dist_items,qkpkxw,2.0,continue,,1927.0999999642368,1906.2000000000119,1927.0999999642368,1927.0999999642368,1906.2000000000119,1927.0999999642368,1.0,0.0,0.0,,Click To Continue,Next button,7.0,object-60,temp_dist_trial,6.0,t_m_10_1,travel_Miami,tanktop,5.0,unique,paired,t_m_10_1.jpg,Travel,,,sub-10
Desktop or Laptop,Windows 10,Edge 138.0.0.0,1756x1098,1756x1098,Temporal Distance Task,cb_05,54.0,temp_dist_trial,dist_items,qkpkxw,2.0,response,20,1187.5,1906.2000000000119,1932.8999999761581,1187.5,1906.2000000000119,1932.8999999761581,1.0,745.3999999761581,0.0,,Slider,Slider,4.0,object-56,temp_dist_trial,6.0,t_m_10_1,travel_Miami,tanktop,5.0,unique,paired,t_m_10_1.jpg,Travel,,,sub-10
Desktop or Laptop,Windows 10,Edge 138.0.0.0,1756x1098,1756x1098,Temporal Distance Task,cb_05,55.0,temp_dist_trial,num_items,zn7si1,1.0,response,1_ITEM,1880.6999999761465,1875.0,1880.6999999761465,1880.6999999761465,1875.0,1880.6999999761465,1.0,0.0,0.0,,Click Response,1_count,3.0,object-46,temp_dist_trial,7.0,t_s_01_1,travel_shared,fanny pack,5.0,competing,paired,t_s_01_1.jpg,Travel,,,sub-10
Desktop or Laptop,Windows 10,Edge 138.0.0.0,1756x1098,1756x1098,Temporal Distance Task,cb_05,56.0,temp_dist_trial,num_items,zn7si1,1.0,response,1_ITEM,1347.6999999761465,1343.7999999999886,1347.6999999761465,1347.6999999761465,1343.7999999999886,1347.6999999761465,1.0,0.0,0.0,,Click Response,1_count,3.0,object-46,temp_dist_trial,8.0,t_i_02_1,travel_Iceland,scarf,5.0,unique,paired,t_i_02_1.jpg,Travel,,,sub-10
Desktop or Laptop,Windows 10,Edge 138.0.0.0,1756x1098,1756x1098,Temporal Distance Task,cb_05,57.0,temp_dist_trial,num_items,zn7si1,1.0,response,1_ITEM,1861.0,1843.7000000000119,1861.0,1861.0,1843.7000000000119,1861.0,1.0,0.0,0.0,,Click Response,1_count,3.0,object-46,temp_dist_trial,9.0,t_m_12_1,travel_Miami,foldable pail and shovel,5.0,unique,single,t_m_12_1.jpg,Travel,,,sub-10
Desktop or Laptop,Windows 10,Edge 138.0.0.0,1756x1098,1756x1098,Temporal Distance Task,cb_05,58.0,temp_dist_trial,num_items,zn7si1,1.0,response,2_ITEM,1359.9999999880674,1343.7999999999886,1359.9999999880674,1359.9999999880674,1343.7999999999886,1359.9999999880674,1.0,0.0,0.0,,Click Response,2_count,5.0,object-49,temp_dist_trial,10.0,t_s_19_1,travel_shared,pajamas,5.0,competing,paired,t_s_19_1.jpg,Travel,,,sub-10
Desktop or Laptop,Windows 10,Edge 138.0.0.0,1756x1098,1756x1098,Temporal Distance Task,cb_05,58.0,temp_dist_trial,dist_items,qkpkxw,2.0,info,,16.299999988084892,0.0,16.299999988084892,16.299999988084892,0.0,16.299999988084892,1.0,0.0,0.0,,Slider,Slider,4.0,object-56,temp_dist_trial,10.0,t_s_19_1,travel_shared,pajamas,5.0,competing,paired,t_s_19_1.jpg,Travel,,,sub-10
Desktop or Laptop,Windows 10,Edge 138.0.0.0,1756x1098,1756x1098,Temporal Distance Task,cb_05,58.0,temp_dist_trial,dist_items,qkpkxw,2.0,continue,,3087.299999988085,3062.6000000000067,3087.299999988085,3087.299999988085,3062.6000000000067,3087.299999988085,1.0,0.0,0.0,,Click To Continue,Next button,7.0,object-60,temp_dist_trial,10.0,t_s_19_1,travel_shared,pajamas,5.0,competing,paired,t_s_19_1.jpg,Travel,,,sub-10
Desktop or Laptop,Windows 10,Edge 138.0.0.0,1756x1098,1756x1098,Temporal Distance Task,cb_05,58.0,temp_dist_trial,dist_items,qkpkxw,2.0,response,20,1156.3000000000175,3062.6000000000067,3093.499999976164,1156.3000000000175,3062.6000000000067,3093.499999976164,1.0,1937.1999999761465,0.0,,Slider,Slider,4.0,object-56,temp_dist_trial,10.0,t_s_19_1,travel_shared,pajamas,5.0,competing,paired,t_s_19_1.jpg,Travel,,,sub-10
Desktop or Laptop,Windows 10,Edge 138.0.0.0,1756x1098,1756x1098,Temporal Distance Task,cb_05,59.0,temp_dist_trial,num_items,zn7si1,1.0,response,1_ITEM,2352.899999976158,2343.700000000012,2352.899999976158,2352.899999976158,2343.700000000012,2352.899999976158,1.0,0.0,0.0,,Click Response,1_count,3.0,object-46,temp_dist_trial,11.0,t_s_12_1,travel_shared,clear toiletry bag,5.0,competing,single,t_s_12_1.jpg,Travel,,,sub-10
Desktop or Laptop,Windows 10,Edge 138.0.0.0,1756x1098,1756x1098,Temporal Distance Task,cb_05,60.0,temp_dist_trial,num_items,zn7si1,1.0,response,1_ITEM,1422.2999999999884,1406.2999999999884,1422.2999999999884,1422.2999999999884,1406.2999999999884,1422.2999999999884,1.0,0.0,0.0,,Click Response,1_count,3.0,object-46,temp_dist_trial,12.0,t_s_20_1,travel_shared,travel pill case,5.0,competing,paired,t_s_20_1.jpg,Travel,,,sub-10
Desktop or Laptop,Windows 10,Edge 138.0.0.0,1756x1098,1756x1098,Temporal Distance Task,cb_05,61.0,temp_dist_trial,num_items,zn7si1,1.0,response,2_ITEM,1216.199999988079,1187.5,1216.199999988079,1216.199999988079,1187.5,1216.199999988079,1.0,0.0,0.0,,Click Response,2_count,5.0,object-49,temp_dist_trial,13.0,t_s_21_1,travel_shared,umbrella,5.0,competing,single,t_s_21_1.jpg,Travel,,,sub-10
Desktop or Laptop,Windows 10,Edge 138.0.0.0,1756x1098,1756x1098,Temporal Distance Task,cb_05,61.0,temp_dist_trial,dist_items,qkpkxw,2.0,info,,11.0,0.0,11.0,11.0,0.0,11.0,1.0,0.0,0.0,,Slider,Slider,4.0,object-56,temp_dist_trial,13.0,t_s_21_1,travel_shared,umbrella,5.0,competing,single,t_s_21_1.jpg,Travel,,,sub-10
Desktop or Laptop,Windows 10,Edge 138.0.0.0,1756x1098,1756x1098,Temporal Distance Task,cb_05,61.0,temp_dist_trial,dist_items,qkpkxw,2.0,continue,,1759.0999999642374,1750.0,1759.0999999642374,1759.0999999642374,1750.0,1759.0999999642374,1.0,0.0,0.0,,Click To Continue,Next button,7.0,object-60,temp_dist_trial,13.0,t_s_21_1,travel_shared,umbrella,5.0,competing,single,t_s_21_1.jpg,Travel,,,sub-10
Desktop or Laptop,Windows 10,Edge 138.0.0.0,1756x1098,1756x1098,Temporal Distance Task,cb_05,61.0,temp_dist_trial,dist_items,qkpkxw,2.0,response,27,1062.5,1750.0,1759.8999999761581,1062.5,1750.0,1759.8999999761581,1.0,697.3999999761581,0.0,,Slider,Slider,4.0,object-56,temp_dist_trial,13.0,t_s_21_1,travel_shared,umbrella,5.0,competing,single,t_s_21_1.jpg,Travel,,,sub-10
Desktop or Laptop,Windows 10,Edge 138.0.0.0,1756x1098,1756x1098,Temporal Distance Task,cb_05,62.0,temp_dist_trial,num_items,zn7si1,1.0,response,2_ITEM,2009.5,2000.0,2009.5,2009.5,2000.0,2009.5,1.0,0.0,0.0,,Click Response,2_count,5.0,object-49,temp_dist_trial,14.0,t_m_04_1,travel_Miami,UV jacket,5.0,unique,paired,t_m_04_1.jpg,Travel,,,sub-10
Desktop or Laptop,Windows 10,Edge 138.0.0.0,1756x1098,1756x1098,Temporal Distance Task,cb_05,62.0,temp_dist_trial,dist_items,qkpkxw,2.0,info,,9.699999988079073,0.0,9.699999988079073,9.699999988079073,0.0,9.699999988079073,1.0,0.0,0.0,,Slider,Slider,4.0,object-56,temp_dist_trial,14.0,t_m_04_1,travel_Miami,UV jacket,5.0,unique,paired,t_m_04_1.jpg,Travel,,,sub-10
Desktop or Laptop,Windows 10,Edge 138.0.0.0,1756x1098,1756x1098,Temporal Distance Task,cb_05,62.0,temp_dist_trial,dist_items,qkpkxw,2.0,continue,,1785.0999999642374,1781.2000000000116,1785.0999999642374,1785.0999999642374,1781.2000000000116,1785.0999999642374,1.0,0.0,0.0,,Click To Continue,Next button,7.0,object-60,temp_dist_trial,14.0,t_m_04_1,travel_Miami,UV jacket,5.0,unique,paired,t_m_04_1.jpg,Travel,,,sub-10
Desktop or Laptop,Windows 10,Edge 138.0.0.0,1756x1098,1756x1098,Temporal Distance Task,cb_05,62.0,temp_dist_trial,dist_items,qkpkxw,2.0,response,32,1093.7999999999884,1781.2000000000116,1794.3000000119214,1093.7999999999884,1781.2000000000116,1794.3000000119214,1.0,700.5000000119327,0.0,,Slider,Slider,4.0,object-56,temp_dist_trial,14.0,t_m_04_1,travel_Miami,UV jacket,5.0,unique,paired,t_m_04_1.jpg,Travel,,,sub-10
Desktop or Laptop,Windows 10,Edge 138.0.0.0,1756x1098,1756x1098,Temporal Distance Task,cb_05,63.0,temp_dist_trial,num_items,zn7si1,1.0,response,1_ITEM,2156.200000000012,2125.0,2156.200000000012,2156.200000000012,2125.0,2156.200000000012,1.0,0.0,0.0,,Click Response,1_count,3.0,object-46,temp_dist_trial,15.0,t_m_14_1,travel_Miami,swim goggles,5.0,unique,paired,t_m_14_1.jpg,Travel,,,sub-10
Desktop or Laptop,Windows 10,Edge 138.0.0.0,1756x1098,1756x1098,Temporal Distance Task,cb_05,64.0,temp_dist_trial,num_items,zn7si1,1.0,response,1_ITEM,1410.7000000000116,1406.2000000000116,1410.7000000000116,1410.7000000000116,1406.2000000000116,1410.7000000000116,1.0,0.0,0.0,,Click Response,1_count,3.0,object-46,temp_dist_trial,16.0,t_i_17_1,travel_Iceland,binoculars,5.0,unique,paired,t_i_17_1.jpg,Travel,,,sub-10
Desktop or Laptop,Windows 10,Edge 138.0.0.0,1756x1098,1756x1098,Temporal Distance Task,cb_05,65.0,temp_dist_trial,num_items,zn7si1,1.0,response,1_ITEM,1956.8000000119207,1937.5,1956.8000000119207,1956.8000000119207,1937.5,1956.8000000119207,1.0,0.0,0.0,,Click Response,1_count,3.0,object-46,temp_dist_trial,17.0,t_s_18_1,travel_shared,first aid kit,5.0,competing,paired,t_s_18_1.jpg,Travel,,,sub-10
Desktop or Laptop,Windows 10,Edge 138.0.0.0,1756x1098,1756x1098,Temporal Distance Task,cb_05,66.0,temp_dist_trial,num_items,zn7si1,1.0,response,1_ITEM,1530.3000000119214,1499.9000000000233,1530.3000000119214,1530.3000000119214,1499.9000000000233,1530.3000000119214,1.0,0.0,0.0,,Click Response,1_count,3.0,object-46,temp_dist_trial,18.0,t_i_11_1,travel_Iceland,headlamp,5.0,unique,paired,t_i_11_1.jpg,Travel,,,sub-10
Desktop or Laptop,Windows 10,Edge 138.0.0.0,1756x1098,1756x1098,Temporal Distance Task,cb_05,67.0,temp_dist_trial,num_items,zn7si1,1.0,response,2_ITEM,1243.699999988079,1218.7999999999886,1243.699999988079,1243.699999988079,1218.7999999999886,1243.699999988079,1.0,0.0,0.0,,Click Response,2_count,5.0,object-49,temp_dist_trial,19.0,t_s_04_1,travel_shared,instant camera,5.0,competing,paired,t_s_04_1.jpg,Travel,,,sub-10
Desktop or Laptop,Windows 10,Edge 138.0.0.0,1756x1098,1756x1098,Temporal Distance Task,cb_05,67.0,temp_dist_trial,dist_items,qkpkxw,2.0,info,,16.99999998806743,0.0,16.99999998806743,16.99999998806743,0.0,16.99999998806743,1.0,0.0,0.0,,Slider,Slider,4.0,object-56,temp_dist_trial,19.0,t_s_04_1,travel_shared,instant camera,5.0,competing,paired,t_s_04_1.jpg,Travel,,,sub-10
Desktop or Laptop,Windows 10,Edge 138.0.0.0,1756x1098,1756x1098,Temporal Distance Task,cb_05,67.0,temp_dist_trial,dist_items,qkpkxw,2.0,continue,,3143.3999999642256,3125.0,3143.3999999642256,3143.3999999642256,3125.0,3143.3999999642256,1.0,0.0,0.0,,Click To Continue,Next button,7.0,object-60,temp_dist_trial,19.0,t_s_04_1,travel_shared,instant camera,5.0,competing,paired,t_s_04_1.jpg,Travel,,,sub-10
Desktop or Laptop,Windows 10,Edge 138.0.0.0,1756x1098,1756x1098,Temporal Distance Task,cb_05,67.0,temp_dist_trial,dist_items,qkpkxw,2.0,response,73,1437.5,3125.0,3149.6000000119093,1437.5,3125.0,3149.6000000119093,1.0,1712.1000000119093,0.0,,Slider,Slider,4.0,object-56,temp_dist_trial,19.0,t_s_04_1,travel_shared,instant camera,5.0,competing,paired,t_s_04_1.jpg,Travel,,,sub-10
Desktop or Laptop,Windows 10,Edge 138.0.0.0,1756x1098,1756x1098,Temporal Distance Task,cb_05,68.0,temp_dist_trial,num_items,zn7si1,1.0,response,1_ITEM,1360.7999999999886,1343.7000000000114,1360.7999999999886,1360.7999999999886,1343.7000000000114,1360.7999999999886,1.0,0.0,0.0,,Click Response,1_count,3.0,object-46,temp_dist_trial,20.0,t_i_12_1,travel_Iceland,tent,5.0,unique,paired,t_i_12_1.jpg,Travel,,,sub-10
Desktop or Laptop,Windows 10,Edge 138.0.0.0,1756x1098,1756x1098,Temporal Distance Task,cb_05,69.0,temp_dist_trial,num_items,zn7si1,1.0,response,1_ITEM,1550.5999999642374,1531.2000000000116,1550.5999999642374,1550.5999999642374,1531.2000000000116,1550.5999999642374,1.0,0.0,0.0,,Click Response,1_count,3.0,object-46,temp_dist_trial,21.0,t_i_07_1,travel_Iceland,hiking backpack,5.0,unique,paired,t_i_07_1.jpg,Travel,,,sub-10
Desktop or Laptop,Windows 10,Edge 138.0.0.0,1756x1098,1756x1098,Temporal Distance Task,cb_05,70.0,temp_dist_trial,num_items,zn7si1,1.0,response,2_ITEM,1472.7999999999884,1468.7999999999884,1472.7999999999884,1472.7999999999884,1468.7999999999884,1472.7999999999884,1.0,0.0,0.0,,Click Response,2_count,5.0,object-49,temp_dist_trial,22.0,t_m_05_1,travel_Miami,sunscreen,5.0,unique,paired,t_m_05_1.jpg,Travel,,,sub-10
Desktop or Laptop,Windows 10,Edge 138.0.0.0,1756x1098,1756x1098,Temporal Distance Task,cb_05,70.0,temp_dist_trial,dist_items,qkpkxw,2.0,info,,7.699999988079071,0.0,7.699999988079071,7.699999988079071,0.0,7.699999988079071,1.0,0.0,0.0,,Slider,Slider,4.0,object-56,temp_dist_trial,22.0,t_m_05_1,travel_Miami,sunscreen,5.0,unique,paired,t_m_05_1.jpg,Travel,,,sub-10
Desktop or Laptop,Windows 10,Edge 138.0.0.0,1756x1098,1756x1098,Temporal Distance Task,cb_05,70.0,temp_dist_trial,dist_items,qkpkxw,2.0,continue,,2930.0,2906.2999999999884,2930.0,2930.0,2906.2999999999884,2930.0,1.0,0.0,0.0,,Click To Continue,Next button,7.0,object-60,temp_dist_trial,22.0,t_m_05_1,travel_Miami,sunscreen,5.0,unique,paired,t_m_05_1.jpg,Travel,,,sub-10
Desktop or Laptop,Windows 10,Edge 138.0.0.0,1756x1098,1756x1098,Temporal Distance Task,cb_05,70.0,temp_dist_trial,dist_items,qkpkxw,2.0,response,71,1875.0,2906.2999999999884,2931.300000011921,1875.0,2906.2999999999884,2931.300000011921,1.0,1056.300000011921,0.0,,Slider,Slider,4.0,object-56,temp_dist_trial,22.0,t_m_05_1,travel_Miami,sunscreen,5.0,unique,paired,t_m_05_1.jpg,Travel,,,sub-10
Desktop or Laptop,Windows 10,Edge 138.0.0.0,1756x1098,1756x1098,Temporal Distance Task,cb_05,71.0,temp_dist_trial,num_items,zn7si1,1.0,response,2_ITEM,1200.0000000119326,1187.4000000000233,1200.0000000119326,1200.0000000119326,1187.4000000000233,1200.0000000119326,1.0,0.0,0.0,,Click Response,2_count,5.0,object-49,temp_dist_trial,23.0,t_i_01_1,travel_Iceland,gloves,5.0,unique,paired,t_i_01_1.jpg,Travel,,,sub-10
Desktop or Laptop,Windows 10,Edge 138.0.0.0,1756x1098,1756x1098,Temporal Distance Task,cb_05,71.0,temp_dist_trial,dist_items,qkpkxw,2.0,info,,9.600000011909287,0.0,9.600000011909287,9.600000011909287,0.0,9.600000011909287,1.0,0.0,0.0,,Slider,Slider,4.0,object-56,temp_dist_trial,23.0,t_i_01_1,travel_Iceland,gloves,5.0,unique,paired,t_i_01_1.jpg,Travel,,,sub-10
Desktop or Laptop,Windows 10,Edge 138.0.0.0,1756x1098,1756x1098,Temporal Distance Task,cb_05,71.0,temp_dist_trial,dist_items,qkpkxw,2.0,continue,,2000.0999999999767,1968.7999999999884,2000.0999999999767,2000.0999999999767,1968.7999999999884,2000.0999999999767,1.0,0.0,0.0,,Click To Continue,Next button,7.0,object-60,temp_dist_trial,23.0,t_i_01_1,travel_Iceland,gloves,5.0,unique,paired,t_i_01_1.jpg,Travel,,,sub-10
Desktop or Laptop,Windows 10,Edge 138.0.0.0,1756x1098,1756x1098,Temporal Distance Task,cb_05,71.0,temp_dist_trial,dist_items,qkpkxw,2.0,response,79,1000.0,1968.7999999999884,2000.0999999999767,1000.0,1968.7999999999884,2000.0999999999767,1.0,1000.0999999999768,0.0,,Slider,Slider,4.0,object-56,temp_dist_trial,23.0,t_i_01_1,travel_Iceland,gloves,5.0,unique,paired,t_i_01_1.jpg,Travel,,,sub-10
Desktop or Laptop,Windows 10,Edge 138.0.0.0,1756x1098,1756x1098,Temporal Distance Task,cb_05,72.0,temp_dist_trial,num_items,zn7si1,1.0,response,num_miss,3000.0,3000.0,3000.0,3000.0,3000.0,3000.0,1.0,0.0,0.0,num_miss_tag,Time Limit,screen,0.0,screen,temp_dist_trial,24.0,t_m_17_1,travel_Miami,water gun,5.0,unique,single,t_m_17_1.jpg,Travel,,,sub-10
Desktop or Laptop,Windows 10,Edge 138.0.0.0,1756x1098,1756x1098,Temporal Distance Task,cb_05,73.0,temp_dist_trial,num_items,zn7si1,1.0,response,1_ITEM,182.79999996424885,156.20000000001158,182.79999996424885,182.79999996424885,156.20000000001158,182.79999996424885,1.0,0.0,0.0,,Click Response,1_count,3.0,object-46,temp_dist_trial,25.0,t_s_03_1,travel_shared,portable charger,5.0,competing,single,t_s_03_1.jpg,Travel,,,sub-10
Desktop or Laptop,Windows 10,Edge 138.0.0.0,1756x1098,1756x1098,Temporal Distance Task,cb_05,74.0,temp_dist_trial,num_items,zn7si1,1.0,response,1_ITEM,1125.0999999999767,1093.7999999999884,1125.0999999999767,1125.0999999999767,1093.7999999999884,1125.0999999999767,1.0,0.0,0.0,,Click Response,1_count,3.0,object-46,temp_dist_trial,26.0,t_i_06_1,travel_Iceland,knit hat,5.0,unique,paired,t_i_06_1.jpg,Travel,,,sub-10
Desktop or Laptop,Windows 10,Edge 138.0.0.0,1756x1098,1756x1098,Temporal Distance Task,cb_05,75.0,temp_dist_trial,num_items,zn7si1,1.0,response,2_ITEM,2040.2999999642486,2031.2000000000119,2040.2999999642486,2040.2999999642486,2031.2000000000119,2040.2999999642486,1.0,0.0,0.0,,Click Response,2_count,5.0,object-49,temp_dist_trial,27.0,t_m_01_1,travel_Miami,sandals,5.0,unique,single,t_m_01_1.jpg,Travel,,,sub-10
Desktop or Laptop,Windows 10,Edge 138.0.0.0,1756x1098,1756x1098,Temporal Distance Task,cb_05,75.0,temp_dist_trial,dist_items,qkpkxw,2.0,info,,10.699999988079073,0.0,10.699999988079073,10.699999988079073,0.0,10.699999988079073,1.0,0.0,0.0,,Slider,Slider,4.0,object-56,temp_dist_trial,27.0,t_m_01_1,travel_Miami,sandals,5.0,unique,single,t_m_01_1.jpg,Travel,,,sub-10
Desktop or Laptop,Windows 10,Edge 138.0.0.0,1756x1098,1756x1098,Temporal Distance Task,cb_05,75.0,temp_dist_trial,dist_items,qkpkxw,2.0,continue,,1989.8000000119207,1968.7999999999884,1989.8000000119207,1989.8000000119207,1968.7999999999884,1989.8000000119207,1.0,0.0,0.0,,Click To Continue,Next button,7.0,object-60,temp_dist_trial,27.0,t_m_01_1,travel_Miami,sandals,5.0,unique,single,t_m_01_1.jpg,Travel,,,sub-10
Desktop or Laptop,Windows 10,Edge 138.0.0.0,1756x1098,1756x1098,Temporal Distance Task,cb_05,75.0,temp_dist_trial,dist_items,qkpkxw,2.0,response,26,1125.0,1968.7999999999884,1991.5999999642368,1125.0,1968.7999999999884,1991.5999999642368,1.0,866.5999999642372,0.0,,Slider,Slider,4.0,object-56,temp_dist_trial,27.0,t_m_01_1,travel_Miami,sandals,5.0,unique,single,t_m_01_1.jpg,Travel,,,sub-10
Desktop or Laptop,Windows 10,Edge 138.0.0.0,1756x1098,1756x1098,Temporal Distance Task,cb_05,76.0,temp_dist_trial,num_items,zn7si1,1.0,response,2_ITEM,1851.0000000119326,1843.7000000000119,1851.0000000119326,1851.0000000119326,1843.7000000000119,1851.0000000119326,1.0,0.0,0.0,,Click Response,2_count,5.0,object-49,temp_dist_trial,28.0,t_s_15_1,travel_shared,luggage tag,5.0,competing,paired,t_s_15_1.jpg,Travel,,,sub-10
Desktop or Laptop,Windows 10,Edge 138.0.0.0,1756x1098,1756x1098,Temporal Distance Task,cb_05,76.0,temp_dist_trial,dist_items,qkpkxw,2.0,info,,7.099999964237213,0.0,7.099999964237213,7.099999964237213,0.0,7.099999964237213,1.0,0.0,0.0,,Slider,Slider,4.0,object-56,temp_dist_trial,28.0,t_s_15_1,travel_shared,luggage tag,5.0,competing,paired,t_s_15_1.jpg,Travel,,,sub-10
Desktop or Laptop,Windows 10,Edge 138.0.0.0,1756x1098,1756x1098,Temporal Distance Task,cb_05,76.0,temp_dist_trial,dist_items,qkpkxw,2.0,continue,,3230.3999999761572,3218.7999999999884,3230.3999999761572,3230.3999999761572,3218.7999999999884,3230.3999999761572,1.0,0.0,0.0,,Click To Continue,Next button,7.0,object-60,temp_dist_trial,28.0,t_s_15_1,travel_shared,luggage tag,5.0,competing,paired,t_s_15_1.jpg,Travel,,,sub-10
Desktop or Laptop,Windows 10,Edge 138.0.0.0,1756x1098,1756x1098,Temporal Distance Task,cb_05,76.0,temp_dist_trial,dist_items,qkpkxw,2.0,response,30,2500.0,3218.7999999999884,3230.8999999761572,2500.0,3218.7999999999884,3230.8999999761572,1.0,730.8999999761581,0.0,,Slider,Slider,4.0,object-56,temp_dist_trial,28.0,t_s_15_1,travel_shared,luggage tag,5.0,competing,paired,t_s_15_1.jpg,Travel,,,sub-10
Desktop or Laptop,Windows 10,Edge 138.0.0.0,1756x1098,1756x1098,Temporal Distance Task,cb_05,77.0,temp_dist_trial,num_items,zn7si1,1.0,response,1_ITEM,1674.2000000000116,1656.2000000000116,1674.2000000000116,1674.2000000000116,1656.2000000000116,1674.2000000000116,1.0,0.0,0.0,,Click Response,1_count,3.0,object-46,temp_dist_trial,29.0,t_s_02_1,travel_shared,water bottle,5.0,competing,single,t_s_02_1.jpg,Travel,,,sub-10
Desktop or Laptop,Windows 10,Edge 138.0.0.0,1756x1098,1756x1098,Temporal Distance Task,cb_05,78.0,temp_dist_trial,num_items,zn7si1,1.0,response,1_ITEM,1339.300000011921,1312.4000000000233,1339.300000011921,1339.300000011921,1312.4000000000233,1339.300000011921,1.0,0.0,0.0,,Click Response,1_count,3.0,object-46,temp_dist_trial,30.0,t_m_11_1,travel_Miami,collapsible beach chair,5.0,unique,paired,t_m_11_1.jpg,Travel,,,sub-10
Desktop or Laptop,Windows 10,Edge 138.0.0.0,1756x1098,1756x1098,Temporal Distance Task,cb_05,79.0,temp_dist_trial,num_items,zn7si1,1.0,response,2_ITEM,1231.699999988079,1218.7999999999886,1231.699999988079,1231.699999988079,1218.7999999999886,1231.699999988079,1.0,0.0,0.0,,Click Response,2_count,5.0,object-49,temp_dist_trial,31.0,t_s_22_1,travel_shared,belt,5.0,competing,paired,t_s_22_1.jpg,Travel,,,sub-10
Desktop or Laptop,Windows 10,Edge 138.0.0.0,1756x1098,1756x1098,Temporal Distance Task,cb_05,79.0,temp_dist_trial,dist_items,qkpkxw,2.0,info,,7.399999964225572,0.0,7.399999964225572,7.399999964225572,0.0,7.399999964225572,1.0,0.0,0.0,,Slider,Slider,4.0,object-56,temp_dist_trial,31.0,t_s_22_1,travel_shared,belt,5.0,competing,paired,t_s_22_1.jpg,Travel,,,sub-10
Desktop or Laptop,Windows 10,Edge 138.0.0.0,1756x1098,1756x1098,Temporal Distance Task,cb_05,79.0,temp_dist_trial,dist_items,qkpkxw,2.0,continue,,2539.600000011909,2531.2999999999884,2539.600000011909,2539.600000011909,2531.2999999999884,2539.600000011909,1.0,0.0,0.0,,Click To Continue,Next button,7.0,object-60,temp_dist_trial,31.0,t_s_22_1,travel_shared,belt,5.0,competing,paired,t_s_22_1.jpg,Travel,,,sub-10
Desktop or Laptop,Windows 10,Edge 138.0.0.0,1756x1098,1756x1098,Temporal Distance Task,cb_05,79.0,temp_dist_trial,dist_items,qkpkxw,2.0,response,35,1562.5,2531.2999999999884,2549.100000011909,1562.5,2531.2999999999884,2549.100000011909,1.0,986.6000000119092,0.0,,Slider,Slider,4.0,object-56,temp_dist_trial,31.0,t_s_22_1,travel_shared,belt,5.0,competing,paired,t_s_22_1.jpg,Travel,,,sub-10
Desktop or Laptop,Windows 10,Edge 138.0.0.0,1756x1098,1756x1098,Temporal Distance Task,cb_05,80.0,temp_dist_trial,num_items,zn7si1,1.0,response,1_ITEM,1687.5999999999767,1656.2999999999884,1687.5999999999767,1687.5999999999767,1656.2999999999884,1687.5999999999767,1.0,0.0,0.0,,Click Response,1_count,3.0,object-46,temp_dist_trial,32.0,t_s_24_1,travel_shared,ear plugs,5.0,competing,paired,t_s_24_1.jpg,Travel,,,sub-10
Desktop or Laptop,Windows 10,Edge 138.0.0.0,1756x1098,1756x1098,Temporal Distance Task,cb_05,81.0,temp_dist_trial,num_items,zn7si1,1.0,response,1_ITEM,2254.500000011933,2249.9000000000233,2254.500000011933,2254.500000011933,2249.9000000000233,2254.500000011933,1.0,0.0,0.0,,Click Response,1_count,3.0,object-46,temp_dist_trial,33.0,t_s_09_1,travel_shared,wallet,5.0,competing,single,t_s_09_1.jpg,Travel,,,sub-10
Desktop or Laptop,Windows 10,Edge 138.0.0.0,1756x1098,1756x1098,Temporal Distance Task,cb_05,82.0,temp_dist_trial,num_items,zn7si1,1.0,response,2_ITEM,1672.7000000000116,1656.2000000000116,1672.7000000000116,1672.7000000000116,1656.2000000000116,1672.7000000000116,1.0,0.0,0.0,,Click Response,2_count,5.0,object-49,temp_dist_trial,34.0,t_i_15_1,travel_Iceland,compass,5.0,unique,single,t_i_15_1.jpg,Travel,,,sub-10
Desktop or Laptop,Windows 10,Edge 138.0.0.0,1756x1098,1756x1098,Temporal Distance Task,cb_05,82.0,temp_dist_trial,dist_items,qkpkxw,2.0,info,,8.399999976158142,0.0,8.399999976158142,8.399999976158142,0.0,8.399999976158142,1.0,0.0,0.0,,Slider,Slider,4.0,object-56,temp_dist_trial,34.0,t_i_15_1,travel_Iceland,compass,5.0,unique,single,t_i_15_1.jpg,Travel,,,sub-10
Desktop or Laptop,Windows 10,Edge 138.0.0.0,1756x1098,1756x1098,Temporal Distance Task,cb_05,82.0,temp_dist_trial,dist_items,qkpkxw,2.0,continue,,1816.3999999761581,1812.5,1816.3999999761581,1816.3999999761581,1812.5,1816.3999999761581,1.0,0.0,0.0,,Click To Continue,Next button,7.0,object-60,temp_dist_trial,34.0,t_i_15_1,travel_Iceland,compass,5.0,unique,single,t_i_15_1.jpg,Travel,,,sub-10
Desktop or Laptop,Windows 10,Edge 138.0.0.0,1756x1098,1756x1098,Temporal Distance Task,cb_05,82.0,temp_dist_trial,dist_items,qkpkxw,2.0,response,27,1062.5,1812.5,1817.1999999880786,1062.5,1812.5,1817.1999999880786,1.0,754.6999999880791,0.0,,Slider,Slider,4.0,object-56,temp_dist_trial,34.0,t_i_15_1,travel_Iceland,compass,5.0,unique,single,t_i_15_1.jpg,Travel,,,sub-10
Desktop or Laptop,Windows 10,Edge 138.0.0.0,1756x1098,1756x1098,Temporal Distance Task,cb_05,83.0,temp_dist_trial,num_items,zn7si1,1.0,response,1_ITEM,1187.5999999999767,1156.2999999999886,1187.5999999999767,1187.5999999999767,1156.2999999999886,1187.5999999999767,1.0,0.0,0.0,,Click Response,1_count,3.0,object-46,temp_dist_trial,35.0,t_m_13_1,travel_Miami,floatie,5.0,unique,paired,t_m_13_1.jpg,Travel,,,sub-10
Desktop or Laptop,Windows 10,Edge 138.0.0.0,1756x1098,1756x1098,Temporal Distance Task,cb_05,84.0,temp_dist_trial,num_items,zn7si1,1.0,response,1_ITEM,2937.4000000000237,2906.200000000012,2937.4000000000237,2937.4000000000237,2906.200000000012,2937.4000000000237,1.0,0.0,0.0,,Click Response,1_count,3.0,object-46,temp_dist_trial,36.0,t_i_05_1,travel_Iceland,hiking boots,5.0,unique,single,t_i_05_1.jpg,Travel,,,sub-10
Desktop or Laptop,Windows 10,Edge 138.0.0.0,1756x1098,1756x1098,Temporal Distance Task,cb_05,85.0,temp_dist_trial,num_items,zn7si1,1.0,response,1_ITEM,1167.300000011921,1156.2999999999886,1167.300000011921,1167.300000011921,1156.2999999999886,1167.300000011921,1.0,0.0,0.0,,Click Response,1_count,3.0,object-46,temp_dist_trial,37.0,t_i_09_1,travel_Iceland,ear muffs,5.0,unique,single,t_i_09_1.jpg,Travel,,,sub-10
Desktop or Laptop,Windows 10,Edge 138.0.0.0,1756x1098,1756x1098,Temporal Distance Task,cb_05,86.0,temp_dist_trial,num_items,zn7si1,1.0,response,2_ITEM,1680.6000000119093,1656.2999999999884,1680.6000000119093,1680.6000000119093,1656.2999999999884,1680.6000000119093,1.0,0.0,0.0,,Click Response,2_count,5.0,object-49,temp_dist_trial,38.0,t_s_08_1,travel_shared,hand lotion,5.0,competing,paired,t_s_08_1.jpg,Travel,,,sub-10
Desktop or Laptop,Windows 10,Edge 138.0.0.0,1756x1098,1756x1098,Temporal Distance Task,cb_05,86.0,temp_dist_trial,dist_items,qkpkxw,2.0,info,,8.399999976158142,0.0,8.399999976158142,8.399999976158142,0.0,8.399999976158142,1.0,0.0,0.0,,Slider,Slider,4.0,object-56,temp_dist_trial,38.0,t_s_08_1,travel_shared,hand lotion,5.0,competing,paired,t_s_08_1.jpg,Travel,,,sub-10
Desktop or Laptop,Windows 10,Edge 138.0.0.0,1756x1098,1756x1098,Temporal Distance Task,cb_05,86.0,temp_dist_trial,dist_items,qkpkxw,2.0,continue,,1857.1999999880786,1843.7999999999884,1857.1999999880786,1857.1999999880786,1843.7999999999884,1857.1999999880786,1.0,0.0,0.0,,Click To Continue,Next button,7.0,object-60,temp_dist_trial,38.0,t_s_08_1,travel_shared,hand lotion,5.0,competing,paired,t_s_08_1.jpg,Travel,,,sub-10
Desktop or Laptop,Windows 10,Edge 138.0.0.0,1756x1098,1756x1098,Temporal Distance Task,cb_05,86.0,temp_dist_trial,dist_items,qkpkxw,2.0,response,67,1093.7999999999884,1843.7999999999884,1857.8000000119207,1093.7999999999884,1843.7999999999884,1857.8000000119207,1.0,764.0000000119327,0.0,,Slider,Slider,4.0,object-56,temp_dist_trial,38.0,t_s_08_1,travel_shared,hand lotion,5.0,competing,paired,t_s_08_1.jpg,Travel,,,sub-10
Desktop or Laptop,Windows 10,Edge 138.0.0.0,1756x1098,1756x1098,Temporal Distance Task,cb_05,87.0,temp_dist_trial,num_items,zn7si1,1.0,response,2_ITEM,1075.3999999880907,1062.4000000000233,1075.3999999880907,1075.3999999880907,1062.4000000000233,1075.3999999880907,1.0,0.0,0.0,,Click Response,2_count,5.0,object-49,temp_dist_trial,39.0,t_s_11_1,travel_shared,eye mask,5.0,competing,paired,t_s_11_1.jpg,Travel,,,sub-10
Desktop or Laptop,Windows 10,Edge 138.0.0.0,1756x1098,1756x1098,Temporal Distance Task,cb_05,87.0,temp_dist_trial,dist_items,qkpkxw,2.0,info,,7.2999999999883585,0.0,7.2999999999883585,7.2999999999883585,0.0,7.2999999999883585,1.0,0.0,0.0,,Slider,Slider,4.0,object-56,temp_dist_trial,39.0,t_s_11_1,travel_shared,eye mask,5.0,competing,paired,t_s_11_1.jpg,Travel,,,sub-10
Desktop or Laptop,Windows 10,Edge 138.0.0.0,1756x1098,1756x1098,Temporal Distance Task,cb_05,87.0,temp_dist_trial,dist_items,qkpkxw,2.0,continue,,3816.199999976146,3812.5999999999767,3816.199999976146,3816.199999976146,3812.5999999999767,3816.199999976146,1.0,0.0,0.0,,Click To Continue,Next button,7.0,object-60,temp_dist_trial,39.0,t_s_11_1,travel_shared,eye mask,5.0,competing,paired,t_s_11_1.jpg,Travel,,,sub-10
Desktop or Laptop,Windows 10,Edge 138.0.0.0,1756x1098,1756x1098,Temporal Distance Task,cb_05,87.0,temp_dist_trial,dist_items,qkpkxw,2.0,response,14,1593.7999999999884,3812.5999999999767,3825.3999999642256,1593.7999999999884,3812.5999999999767,3825.3999999642256,1.0,2231.599999964237,0.0,,Slider,Slider,4.0,object-56,temp_dist_trial,39.0,t_s_11_1,travel_shared,eye mask,5.0,competing,paired,t_s_11_1.jpg,Travel,,,sub-10
Desktop or Laptop,Windows 10,Edge 138.0.0.0,1756x1098,1756x1098,Temporal Distance Task,cb_05,88.0,temp_dist_trial,num_items,zn7si1,1.0,response,1_ITEM,1486.0000000119323,1468.7000000000116,1486.0000000119323,1486.0000000119323,1468.7000000000116,1486.0000000119323,1.0,0.0,0.0,,Click Response,1_count,3.0,object-46,temp_dist_trial,40.0,t_m_02_1,travel_Miami,t-shirt,5.0,unique,single,t_m_02_1.jpg,Travel,,,sub-10
Desktop or Laptop,Windows 10,Edge 138.0.0.0,1756x1098,1756x1098,Temporal Distance Task,cb_05,89.0,temp_dist_trial,num_items,zn7si1,1.0,response,1_ITEM,1271.0999999642372,1250.0,1271.0999999642372,1271.0999999642372,1250.0,1271.0999999642372,1.0,0.0,0.0,,Click Response,1_count,3.0,object-46,temp_dist_trial,41.0,t_s_23_1,travel_shared,ball cap,5.0,competing,paired,t_s_23_1.jpg,Travel,,,sub-10
Desktop or Laptop,Windows 10,Edge 138.0.0.0,1756x1098,1756x1098,Temporal Distance Task,cb_05,90.0,temp_dist_trial,num_items,zn7si1,1.0,response,2_ITEM,1444.0,1437.4000000000233,1444.0,1444.0,1437.4000000000233,1444.0,1.0,0.0,0.0,,Click Response,2_count,5.0,object-49,temp_dist_trial,42.0,t_s_13_1,travel_shared,contact lens case,5.0,competing,paired,t_s_13_1.jpg,Travel,,,sub-10
Desktop or Laptop,Windows 10,Edge 138.0.0.0,1756x1098,1756x1098,Temporal Distance Task,cb_05,90.0,temp_dist_trial,dist_items,qkpkxw,2.0,info,,8.300000011920929,0.0,8.300000011920929,8.300000011920929,0.0,8.300000011920929,1.0,0.0,0.0,,Slider,Slider,4.0,object-56,temp_dist_trial,42.0,t_s_13_1,travel_shared,contact lens case,5.0,competing,paired,t_s_13_1.jpg,Travel,,,sub-10
Desktop or Laptop,Windows 10,Edge 138.0.0.0,1756x1098,1756x1098,Temporal Distance Task,cb_05,90.0,temp_dist_trial,dist_items,qkpkxw,2.0,continue,,2101.0,2093.7999999999884,2101.0,2101.0,2093.7999999999884,2101.0,1.0,0.0,0.0,,Click To Continue,Next button,7.0,object-60,temp_dist_trial,42.0,t_s_13_1,travel_shared,contact lens case,5.0,competing,paired,t_s_13_1.jpg,Travel,,,sub-10
Desktop or Laptop,Windows 10,Edge 138.0.0.0,1756x1098,1756x1098,Temporal Distance Task,cb_05,90.0,temp_dist_trial,dist_items,qkpkxw,2.0,response,75,1125.0,2093.7999999999884,2102.0,1125.0,2093.7999999999884,2102.0,1.0,977.0,0.0,,Slider,Slider,4.0,object-56,temp_dist_trial,42.0,t_s_13_1,travel_shared,contact lens case,5.0,competing,paired,t_s_13_1.jpg,Travel,,,sub-10
Desktop or Laptop,Windows 10,Edge 138.0.0.0,1756x1098,1756x1098,Temporal Distance Task,cb_05,91.0,temp_dist_trial,num_items,zn7si1,1.0,response,2_ITEM,1249.8000000000466,1218.600000000035,1249.8000000000466,1249.8000000000466,1218.600000000035,1249.8000000000466,1.0,0.0,0.0,,Click Response,2_count,5.0,object-49,temp_dist_trial,43.0,t_s_06_1,travel_shared,luggage,5.0,competing,single,t_s_06_1.jpg,Travel,,,sub-10
Desktop or Laptop,Windows 10,Edge 138.0.0.0,1756x1098,1756x1098,Temporal Distance Task,cb_05,91.0,temp_dist_trial,dist_items,qkpkxw,2.0,info,,9.099999964237213,0.0,9.099999964237213,9.099999964237213,0.0,9.099999964237213,1.0,0.0,0.0,,Slider,Slider,4.0,object-56,temp_dist_trial,43.0,t_s_06_1,travel_shared,luggage,5.0,competing,single,t_s_06_1.jpg,Travel,,,sub-10
Desktop or Laptop,Windows 10,Edge 138.0.0.0,1756x1098,1756x1098,Temporal Distance Task,cb_05,91.0,temp_dist_trial,dist_items,qkpkxw,2.0,continue,,3887.3999999761572,3875.0,3887.3999999761572,3887.3999999761572,3875.0,3887.3999999761572,1.0,0.0,0.0,,Click To Continue,Next button,7.0,object-60,temp_dist_trial,43.0,t_s_06_1,travel_shared,luggage,5.0,competing,single,t_s_06_1.jpg,Travel,,,sub-10
Desktop or Laptop,Windows 10,Edge 138.0.0.0,1756x1098,1756x1098,Temporal Distance Task,cb_05,91.0,temp_dist_trial,dist_items,qkpkxw,2.0,response,35,937.5,3875.0,3894.599999964237,937.5,3875.0,3894.599999964237,1.0,2957.099999964237,0.0,,Slider,Slider,4.0,object-56,temp_dist_trial,43.0,t_s_06_1,travel_shared,luggage,5.0,competing,single,t_s_06_1.jpg,Travel,,,sub-10
Desktop or Laptop,Windows 10,Edge 138.0.0.0,1756x1098,1756x1098,Temporal Distance Task,cb_05,92.0,temp_dist_trial,num_items,zn7si1,1.0,response,1_ITEM,1179.5999999642372,1156.2000000000114,1179.5999999642372,1179.5999999642372,1156.2000000000114,1179.5999999642372,1.0,0.0,0.0,,Click Response,1_count,3.0,object-46,temp_dist_trial,44.0,t_s_16_1,travel_shared,chapstick,5.0,competing,single,t_s_16_1.jpg,Travel,,,sub-10
Desktop or Laptop,Windows 10,Edge 138.0.0.0,1756x1098,1756x1098,Temporal Distance Task,cb_05,93.0,temp_dist_trial,num_items,zn7si1,1.0,response,2_ITEM,1167.2999999642489,1156.2000000000114,1167.2999999642489,1167.2999999642489,1156.2000000000114,1167.2999999642489,1.0,0.0,0.0,,Click Response,2_count,5.0,object-49,temp_dist_trial,45.0,t_s_17_1,travel_shared,toothbrush,5.0,competing,paired,t_s_17_1.jpg,Travel,,,sub-10
Desktop or Laptop,Windows 10,Edge 138.0.0.0,1756x1098,1756x1098,Temporal Distance Task,cb_05,93.0,temp_dist_trial,dist_items,qkpkxw,2.0,info,,13.0,0.0,13.0,13.0,0.0,13.0,1.0,0.0,0.0,,Slider,Slider,4.0,object-56,temp_dist_trial,45.0,t_s_17_1,travel_shared,toothbrush,5.0,competing,paired,t_s_17_1.jpg,Travel,,,sub-10
Desktop or Laptop,Windows 10,Edge 138.0.0.0,1756x1098,1756x1098,Temporal Distance Task,cb_05,93.0,temp_dist_trial,dist_items,qkpkxw,2.0,continue,,1781.2999999999884,1750.0,1781.2999999999884,1781.2999999999884,1750.0,1781.2999999999884,1.0,0.0,0.0,,Click To Continue,Next button,7.0,object-60,temp_dist_trial,45.0,t_s_17_1,travel_shared,toothbrush,5.0,competing,paired,t_s_17_1.jpg,Travel,,,sub-10
Desktop or Laptop,Windows 10,Edge 138.0.0.0,1756x1098,1756x1098,Temporal Distance Task,cb_05,93.0,temp_dist_trial,dist_items,qkpkxw,2.0,response,20,1125.0,1750.0,1781.2999999999884,1125.0,1750.0,1781.2999999999884,1.0,656.2999999999884,0.0,,Slider,Slider,4.0,object-56,temp_dist_trial,45.0,t_s_17_1,travel_shared,toothbrush,5.0,competing,paired,t_s_17_1.jpg,Travel,,,sub-10
Desktop or Laptop,Windows 10,Edge 138.0.0.0,1756x1098,1756x1098,Temporal Distance Task,cb_05,94.0,temp_dist_trial,num_items,zn7si1,1.0,response,2_ITEM,1747.0,1718.7999999999884,1747.0,1747.0,1718.7999999999884,1747.0,1.0,0.0,0.0,,Click Response,2_count,5.0,object-49,temp_dist_trial,46.0,t_s_10_1,travel_shared,luggage lock,5.0,competing,paired,t_s_10_1.jpg,Travel,,,sub-10
Desktop or Laptop,Windows 10,Edge 138.0.0.0,1756x1098,1756x1098,Temporal Distance Task,cb_05,94.0,temp_dist_trial,dist_items,qkpkxw,2.0,info,,8.100000011909287,0.0,8.100000011909287,8.100000011909287,0.0,8.100000011909287,1.0,0.0,0.0,,Slider,Slider,4.0,object-56,temp_dist_trial,46.0,t_s_10_1,travel_shared,luggage lock,5.0,competing,paired,t_s_10_1.jpg,Travel,,,sub-10
Desktop or Laptop,Windows 10,Edge 138.0.0.0,1756x1098,1756x1098,Temporal Distance Task,cb_05,94.0,temp_dist_trial,dist_items,qkpkxw,2.0,continue,,2093.899999999965,2062.5999999999767,2093.899999999965,2093.899999999965,2062.5999999999767,2093.899999999965,1.0,0.0,0.0,,Click To Continue,Next button,7.0,object-60,temp_dist_trial,46.0,t_s_10_1,travel_shared,luggage lock,5.0,competing,paired,t_s_10_1.jpg,Travel,,,sub-10
Desktop or Laptop,Windows 10,Edge 138.0.0.0,1756x1098,1756x1098,Temporal Distance Task,cb_05,94.0,temp_dist_trial,dist_items,qkpkxw,2.0,response,18,1000.0,2062.5999999999767,2093.899999999965,1000.0,2062.5999999999767,2093.899999999965,1.0,1093.899999999965,0.0,,Slider,Slider,4.0,object-56,temp_dist_trial,46.0,t_s_10_1,travel_shared,luggage lock,5.0,competing,paired,t_s_10_1.jpg,Travel,,,sub-10
Desktop or Laptop,Windows 10,Edge 138.0.0.0,1756x1098,1756x1098,Temporal Distance Task,cb_05,95.0,temp_dist_trial,num_items,zn7si1,1.0,response,1_ITEM,1163.2000000000114,1156.2000000000114,1163.2000000000114,1163.2000000000114,1156.2000000000114,1163.2000000000114,1.0,0.0,0.0,,Click Response,1_count,3.0,object-46,temp_dist_trial,47.0,t_s_14_1,travel_shared,hand sanitizer,5.0,competing,single,t_s_14_1.jpg,Travel,,,sub-10
Desktop or Laptop,Windows 10,Edge 138.0.0.0,1756x1098,1756x1098,Temporal Distance Task,cb_05,96.0,temp_dist_trial,num_items,zn7si1,1.0,response,1_ITEM,1476.8999999761581,1468.7000000000116,1476.8999999761581,1476.8999999761581,1468.7000000000116,1476.8999999761581,1.0,0.0,0.0,,Click Response,1_count,3.0,object-46,temp_dist_trial,48.0,t_m_09_1,travel_Miami,beach towel,5.0,unique,paired,t_m_09_1.jpg,Travel,,,sub-10
Desktop or Laptop,Windows 10,Edge 138.0.0.0,1756x1098,1756x1098,Temporal Distance Task,$${counterbalance_group},,,,,,info,END,,,347355.0,,,,0.0,,,,,,,,,,,,,,,,,,,,sub-10
