Participant Device,Participant OS,Participant Browser,Participant Monitor Size,Participant Viewport Size,Task Name,Current Spreadsheet,Trial Number,Display,Screen,Screen ID,Screen Counter,Response Type,Response,Onset Time,Clock Time,Reaction Time,Absolute Onset Time,Absolute Clock Time,Absolute Reaction Time,Correct,Response Duration,Proportion,Tag,Component Name,Object Name,Object Number,Object ID,Spreadsheet: display,Spreadsheet: trial,Spreadsheet: stimulus_id,Spreadsheet: expected_goal,Spreadsheet: stimulus_name,Spreadsheet: c_group,Spreadsheet: condition,Spreadsheet: paired_status,Spreadsheet: stimulus_path,Spreadsheet: block_type,Manipulation: Spreadsheet,Store: enc_test_acc,sub_label
Desktop or Laptop,Windows 10,Chrome 138.0.0.0,1600x900,1600x773,Temporal Distance Task,,,,,,,info,BEGIN,,,,,,,,,,,,,,,,,,,,,,,,,$${counterbalance_group},,sub-83
Desktop or Laptop,Windows 10,Chrome 138.0.0.0,1600x900,1600x773,Temporal Distance Task,cb_04,1.0,temp_instructions,intro_screen,3tnme7,1.0,continue,,10309.299999976158,10298.9,10309.299999976158,10309.299999976158,10298.9,10309.299999976158,1.0,0.0,0.0,,Click To Continue,Continue Button,4.0,object-29,temp_instructions,,,Travel,,,,,,,$${counterbalance_group},,sub-83
Desktop or Laptop,Windows 10,Chrome 138.0.0.0,1600x900,1600x773,Temporal Distance Task,cb_04,1.0,temp_instructions,intro_screen_2,52v7ur,2.0,continue,,15890.099999964235,15881.2,15890.099999964235,15890.099999964235,15881.2,15890.099999964235,1.0,0.0,0.0,,Click To Continue,Continue Button,4.0,object-39,temp_instructions,,,Travel,,,,,,,$${counterbalance_group},,sub-83
Desktop or Laptop,Windows 10,Chrome 138.0.0.0,1600x900,1600x773,Temporal Distance Task,cb_04,1.0,temp_instructions,intro_screen_3,i7lvwx,3.0,continue,,6960.899999964237,6949.299999999997,6960.899999964237,6960.899999964237,6949.299999999997,6960.899999964237,1.0,0.0,0.0,,Click To Continue,Continue Button,4.0,object-67,temp_instructions,,,Travel,,,,,,,$${counterbalance_group},,sub-83
Desktop or Laptop,Windows 10,Chrome 138.0.0.0,1600x900,1600x773,Temporal Distance Task,cb_04,1.0,temp_instructions,test_q1,5ieqx1,4.0,response,choice_3,9291.5,9282.1,9291.5,9291.5,9282.1,9291.5,1.0,0.0,0.0,,Click Response,choice_3,5.0,object-345,temp_instructions,,,Travel,,,,,,,$${counterbalance_group},,sub-83
Desktop or Laptop,Windows 10,Chrome 138.0.0.0,1600x900,1600x773,Temporal Distance Task,cb_04,1.0,temp_instructions,score_corr,7ilvjr,5.0,continue,,1193.2999999761596,1183.2000000000044,1193.2999999761596,1193.2999999761596,1183.2000000000044,1193.2999999761596,1.0,0.0,0.0,,Click To Continue,Continue Button,3.0,object-23,temp_instructions,,,Travel,,,,,,,$${counterbalance_group},,sub-83
Desktop or Laptop,Windows 10,Chrome 138.0.0.0,1600x900,1600x773,Temporal Distance Task,cb_04,1.0,temp_eventStart,Screen 1,dgtyxe,1.0,continue,,1505.9999999523136,1499.6999999999966,1505.9999999523136,1505.9999999523136,1499.6999999999966,1505.9999999523136,1.0,0.0,0.0,,Click To Continue,Next Button,3.0,object-43,temp_eventStart,,,Travel,,,,,,,$${counterbalance_group},,sub-83
Desktop or Laptop,Windows 10,Chrome 138.0.0.0,1600x900,1600x773,Temporal Distance Task,cb_04,1.0,temp_dist_trial,num_items,zn7si1,1.0,response,2_ITEM,1894.1999999880786,1883.1999999999966,1894.1999999880786,1894.1999999880786,1883.1999999999966,1894.1999999880786,1.0,0.0,0.0,,Click Response,2_count,5.0,object-49,temp_dist_trial,1.0,t_s_13_1,travel_shared,contact lens case,4.0,competing,single,t_s_13_1.jpg,Travel,$${counterbalance_group},,sub-83
Desktop or Laptop,Windows 10,Chrome 138.0.0.0,1600x900,1600x773,Temporal Distance Task,cb_04,1.0,temp_dist_trial,dist_items,qkpkxw,2.0,info,,5.099999988080526,0.0,5.099999988080526,5.099999988080526,0.0,5.099999988080526,1.0,0.0,0.0,,Slider,Slider,4.0,object-56,temp_dist_trial,1.0,t_s_13_1,travel_shared,contact lens case,4.0,competing,single,t_s_13_1.jpg,Travel,$${counterbalance_group},,sub-83
Desktop or Laptop,Windows 10,Chrome 138.0.0.0,1600x900,1600x773,Temporal Distance Task,cb_04,1.0,temp_dist_trial,dist_items,qkpkxw,2.0,continue,,3553.29999997616,3549.5,3553.29999997616,3553.29999997616,3549.5,3553.29999997616,1.0,0.0,0.0,,Click To Continue,Next button,7.0,object-60,temp_dist_trial,1.0,t_s_13_1,travel_shared,contact lens case,4.0,competing,single,t_s_13_1.jpg,Travel,$${counterbalance_group},,sub-83
Desktop or Laptop,Windows 10,Chrome 138.0.0.0,1600x900,1600x773,Temporal Distance Task,cb_04,1.0,temp_dist_trial,dist_items,qkpkxw,2.0,response,68,2149.800000000003,3549.5,3553.79999997616,2149.800000000003,3549.5,3553.79999997616,1.0,1403.9999999761567,0.0,,Slider,Slider,4.0,object-56,temp_dist_trial,1.0,t_s_13_1,travel_shared,contact lens case,4.0,competing,single,t_s_13_1.jpg,Travel,$${counterbalance_group},,sub-83
Desktop or Laptop,Windows 10,Chrome 138.0.0.0,1600x900,1600x773,Temporal Distance Task,cb_04,2.0,temp_dist_trial,num_items,zn7si1,1.0,response,2_ITEM,2115.9999999642387,2099.800000000003,2115.9999999642387,2115.9999999642387,2099.800000000003,2115.9999999642387,1.0,0.0,0.0,,Click Response,2_count,5.0,object-49,temp_dist_trial,2.0,t_i_05_1,travel_Iceland,hiking boots,4.0,unique,paired,t_i_05_1.jpg,Travel,$${counterbalance_group},,sub-83
Desktop or Laptop,Windows 10,Chrome 138.0.0.0,1600x900,1600x773,Temporal Distance Task,cb_04,2.0,temp_dist_trial,dist_items,qkpkxw,2.0,info,,4.299999988077616,0.0,4.299999988077616,4.299999988077616,0.0,4.299999988077616,1.0,0.0,0.0,,Slider,Slider,4.0,object-56,temp_dist_trial,2.0,t_i_05_1,travel_Iceland,hiking boots,4.0,unique,paired,t_i_05_1.jpg,Travel,$${counterbalance_group},,sub-83
Desktop or Laptop,Windows 10,Chrome 138.0.0.0,1600x900,1600x773,Temporal Distance Task,cb_04,2.0,temp_dist_trial,dist_items,qkpkxw,2.0,continue,,3197.999999976157,3182.900000000001,3197.999999976157,3197.999999976157,3182.900000000001,3197.999999976157,1.0,0.0,0.0,,Click To Continue,Next button,7.0,object-60,temp_dist_trial,2.0,t_i_05_1,travel_Iceland,hiking boots,4.0,unique,paired,t_i_05_1.jpg,Travel,$${counterbalance_group},,sub-83
Desktop or Laptop,Windows 10,Chrome 138.0.0.0,1600x900,1600x773,Temporal Distance Task,cb_04,2.0,temp_dist_trial,dist_items,qkpkxw,2.0,response,33,2083.0,3182.900000000001,3198.499999976157,2083.0,3182.900000000001,3198.499999976157,1.0,1115.4999999761567,0.0,,Slider,Slider,4.0,object-56,temp_dist_trial,2.0,t_i_05_1,travel_Iceland,hiking boots,4.0,unique,paired,t_i_05_1.jpg,Travel,$${counterbalance_group},,sub-83
Desktop or Laptop,Windows 10,Chrome 138.0.0.0,1600x900,1600x773,Temporal Distance Task,cb_04,3.0,temp_dist_trial,num_items,zn7si1,1.0,response,2_ITEM,1382.8999999880762,1366.5,1382.8999999880762,1382.8999999880762,1366.5,1382.8999999880762,1.0,0.0,0.0,,Click Response,2_count,5.0,object-49,temp_dist_trial,3.0,t_s_07_1,travel_shared,phone charger cable,4.0,competing,paired,t_s_07_1.jpg,Travel,$${counterbalance_group},,sub-83
Desktop or Laptop,Windows 10,Chrome 138.0.0.0,1600x900,1600x773,Temporal Distance Task,cb_04,3.0,temp_dist_trial,dist_items,qkpkxw,2.0,info,,4.299999964234304,0.0,4.299999964234304,4.299999964234304,0.0,4.299999964234304,1.0,0.0,0.0,,Slider,Slider,4.0,object-56,temp_dist_trial,3.0,t_s_07_1,travel_shared,phone charger cable,4.0,competing,paired,t_s_07_1.jpg,Travel,$${counterbalance_group},,sub-83
Desktop or Laptop,Windows 10,Chrome 138.0.0.0,1600x900,1600x773,Temporal Distance Task,cb_04,3.0,temp_dist_trial,dist_items,qkpkxw,2.0,continue,,1974.399999988076,1966.3999999999944,1974.399999988076,1974.399999988076,1966.3999999999944,1974.399999988076,1.0,0.0,0.0,,Click To Continue,Next button,7.0,object-60,temp_dist_trial,3.0,t_s_07_1,travel_shared,phone charger cable,4.0,competing,paired,t_s_07_1.jpg,Travel,$${counterbalance_group},,sub-83
Desktop or Laptop,Windows 10,Chrome 138.0.0.0,1600x900,1600x773,Temporal Distance Task,cb_04,3.0,temp_dist_trial,dist_items,qkpkxw,2.0,response,47,1166.5,1966.3999999999944,1974.899999988076,1166.5,1966.3999999999944,1974.899999988076,1.0,808.3999999880763,0.0,,Slider,Slider,4.0,object-56,temp_dist_trial,3.0,t_s_07_1,travel_shared,phone charger cable,4.0,competing,paired,t_s_07_1.jpg,Travel,$${counterbalance_group},,sub-83
Desktop or Laptop,Windows 10,Chrome 138.0.0.0,1600x900,1600x773,Temporal Distance Task,cb_04,4.0,temp_dist_trial,num_items,zn7si1,1.0,response,2_ITEM,1752.3999999642401,1749.6999999999966,1752.3999999642401,1752.3999999642401,1749.6999999999966,1752.3999999642401,1.0,0.0,0.0,,Click Response,2_count,5.0,object-49,temp_dist_trial,4.0,t_m_12_1,travel_Miami,foldable pail and shovel,4.0,unique,paired,t_m_12_1.jpg,Travel,$${counterbalance_group},,sub-83
Desktop or Laptop,Windows 10,Chrome 138.0.0.0,1600x900,1600x773,Temporal Distance Task,cb_04,4.0,temp_dist_trial,dist_items,qkpkxw,2.0,info,,4.199999964243034,0.0,4.199999964243034,4.199999964243034,0.0,4.199999964243034,1.0,0.0,0.0,,Slider,Slider,4.0,object-56,temp_dist_trial,4.0,t_m_12_1,travel_Miami,foldable pail and shovel,4.0,unique,paired,t_m_12_1.jpg,Travel,$${counterbalance_group},,sub-83
Desktop or Laptop,Windows 10,Chrome 138.0.0.0,1600x900,1600x773,Temporal Distance Task,cb_04,4.0,temp_dist_trial,dist_items,qkpkxw,2.0,continue,,2808.299999988085,2799.700000000012,2808.299999988085,2808.299999988085,2799.700000000012,2808.299999988085,1.0,0.0,0.0,,Click To Continue,Next button,7.0,object-60,temp_dist_trial,4.0,t_m_12_1,travel_Miami,foldable pail and shovel,4.0,unique,paired,t_m_12_1.jpg,Travel,$${counterbalance_group},,sub-83
Desktop or Laptop,Windows 10,Chrome 138.0.0.0,1600x900,1600x773,Temporal Distance Task,cb_04,4.0,temp_dist_trial,dist_items,qkpkxw,2.0,response,65,1899.8000000000034,2799.700000000012,2812.499999976164,1899.8000000000034,2799.700000000012,2812.499999976164,1.0,912.699999976161,0.0,,Slider,Slider,4.0,object-56,temp_dist_trial,4.0,t_m_12_1,travel_Miami,foldable pail and shovel,4.0,unique,paired,t_m_12_1.jpg,Travel,$${counterbalance_group},,sub-83
Desktop or Laptop,Windows 10,Chrome 138.0.0.0,1600x900,1600x773,Temporal Distance Task,cb_04,5.0,temp_dist_trial,num_items,zn7si1,1.0,response,1_ITEM,1792.4999999642316,1783.099999999991,1792.4999999642316,1792.4999999642316,1783.099999999991,1792.4999999642316,1.0,0.0,0.0,,Click Response,1_count,3.0,object-46,temp_dist_trial,5.0,t_s_04_1,travel_shared,instant camera,4.0,competing,single,t_s_04_1.jpg,Travel,$${counterbalance_group},,sub-83
Desktop or Laptop,Windows 10,Chrome 138.0.0.0,1600x900,1600x773,Temporal Distance Task,cb_04,6.0,temp_dist_trial,num_items,zn7si1,1.0,response,1_ITEM,1967.3999999642401,1966.3000000000034,1967.3999999642401,1967.3999999642401,1966.3000000000034,1967.3999999642401,1.0,0.0,0.0,,Click Response,1_count,3.0,object-46,temp_dist_trial,6.0,t_s_12_1,travel_shared,clear toiletry bag,4.0,competing,paired,t_s_12_1.jpg,Travel,$${counterbalance_group},,sub-83
Desktop or Laptop,Windows 10,Chrome 138.0.0.0,1600x900,1600x773,Temporal Distance Task,cb_04,7.0,temp_dist_trial,num_items,zn7si1,1.0,response,2_ITEM,1287.2999999761525,1283.0999999999913,1287.2999999761525,1287.2999999761525,1283.0999999999913,1287.2999999761525,1.0,0.0,0.0,,Click Response,2_count,5.0,object-49,temp_dist_trial,7.0,t_s_16_1,travel_shared,chapstick,4.0,competing,paired,t_s_16_1.jpg,Travel,$${counterbalance_group},,sub-83
Desktop or Laptop,Windows 10,Chrome 138.0.0.0,1600x900,1600x773,Temporal Distance Task,cb_04,7.0,temp_dist_trial,dist_items,qkpkxw,2.0,info,,3.9999999880819814,0.0,3.9999999880819814,3.9999999880819814,0.0,3.9999999880819814,1.0,0.0,0.0,,Slider,Slider,4.0,object-56,temp_dist_trial,7.0,t_s_16_1,travel_shared,chapstick,4.0,competing,paired,t_s_16_1.jpg,Travel,$${counterbalance_group},,sub-83
Desktop or Laptop,Windows 10,Chrome 138.0.0.0,1600x900,1600x773,Temporal Distance Task,cb_04,7.0,temp_dist_trial,dist_items,qkpkxw,2.0,continue,,4042.199999976161,4032.800000000003,4042.199999976161,4042.199999976161,4032.800000000003,4042.199999976161,1.0,0.0,0.0,,Click To Continue,Next button,7.0,object-60,temp_dist_trial,7.0,t_s_16_1,travel_shared,chapstick,4.0,competing,paired,t_s_16_1.jpg,Travel,$${counterbalance_group},,sub-83
Desktop or Laptop,Windows 10,Chrome 138.0.0.0,1600x900,1600x773,Temporal Distance Task,cb_04,7.0,temp_dist_trial,dist_items,qkpkxw,2.0,response,70,3166.199999999997,4032.800000000003,4042.699999976161,3166.199999999997,4032.800000000003,4042.699999976161,1.0,876.499999976164,0.0,,Slider,Slider,4.0,object-56,temp_dist_trial,7.0,t_s_16_1,travel_shared,chapstick,4.0,competing,paired,t_s_16_1.jpg,Travel,$${counterbalance_group},,sub-83
Desktop or Laptop,Windows 10,Chrome 138.0.0.0,1600x900,1600x773,Temporal Distance Task,cb_04,8.0,temp_dist_trial,num_items,zn7si1,1.0,response,2_ITEM,1505.1999999880786,1499.8000000000034,1505.1999999880786,1505.1999999880786,1499.8000000000034,1505.1999999880786,1.0,0.0,0.0,,Click Response,2_count,5.0,object-49,temp_dist_trial,8.0,t_s_21_1,travel_shared,umbrella,4.0,competing,paired,t_s_21_1.jpg,Travel,$${counterbalance_group},,sub-83
Desktop or Laptop,Windows 10,Chrome 138.0.0.0,1600x900,1600x773,Temporal Distance Task,cb_04,8.0,temp_dist_trial,dist_items,qkpkxw,2.0,info,,4.1999999761610525,0.0,4.1999999761610525,4.1999999761610525,0.0,4.1999999761610525,1.0,0.0,0.0,,Slider,Slider,4.0,object-56,temp_dist_trial,8.0,t_s_21_1,travel_shared,umbrella,4.0,competing,paired,t_s_21_1.jpg,Travel,$${counterbalance_group},,sub-83
Desktop or Laptop,Windows 10,Chrome 138.0.0.0,1600x900,1600x773,Temporal Distance Task,cb_04,8.0,temp_dist_trial,dist_items,qkpkxw,2.0,continue,,1387.3000000000034,1383.1999999999966,1387.3000000000034,1387.3000000000034,1383.1999999999966,1387.3000000000034,1.0,0.0,0.0,,Click To Continue,Next button,7.0,object-60,temp_dist_trial,8.0,t_s_21_1,travel_shared,umbrella,4.0,competing,paired,t_s_21_1.jpg,Travel,$${counterbalance_group},,sub-83
Desktop or Laptop,Windows 10,Chrome 138.0.0.0,1600x900,1600x773,Temporal Distance Task,cb_04,8.0,temp_dist_trial,dist_items,qkpkxw,2.0,response,36,700.0,1383.1999999999966,1387.6999999761608,700.0,1383.1999999999966,1387.6999999761608,1.0,687.699999976161,0.0,,Slider,Slider,4.0,object-56,temp_dist_trial,8.0,t_s_21_1,travel_shared,umbrella,4.0,competing,paired,t_s_21_1.jpg,Travel,$${counterbalance_group},,sub-83
Desktop or Laptop,Windows 10,Chrome 138.0.0.0,1600x900,1600x773,Temporal Distance Task,cb_04,9.0,temp_dist_trial,num_items,zn7si1,1.0,response,2_ITEM,1116.2999999880851,1099.9000000000087,1116.2999999880851,1116.2999999880851,1099.9000000000087,1116.2999999880851,1.0,0.0,0.0,,Click Response,2_count,5.0,object-49,temp_dist_trial,9.0,t_s_03_1,travel_shared,portable charger,4.0,competing,paired,t_s_03_1.jpg,Travel,$${counterbalance_group},,sub-83
Desktop or Laptop,Windows 10,Chrome 138.0.0.0,1600x900,1600x773,Temporal Distance Task,cb_04,9.0,temp_dist_trial,dist_items,qkpkxw,2.0,info,,4.299999964234304,0.0,4.299999964234304,4.299999964234304,0.0,4.299999964234304,1.0,0.0,0.0,,Slider,Slider,4.0,object-56,temp_dist_trial,9.0,t_s_03_1,travel_shared,portable charger,4.0,competing,paired,t_s_03_1.jpg,Travel,$${counterbalance_group},,sub-83
Desktop or Laptop,Windows 10,Chrome 138.0.0.0,1600x900,1600x773,Temporal Distance Task,cb_04,9.0,temp_dist_trial,dist_items,qkpkxw,2.0,continue,,1966.0999999761555,1949.6999999999966,1966.0999999761555,1966.0999999761555,1949.6999999999966,1966.0999999761555,1.0,0.0,0.0,,Click To Continue,Next button,7.0,object-60,temp_dist_trial,9.0,t_s_03_1,travel_shared,portable charger,4.0,competing,paired,t_s_03_1.jpg,Travel,$${counterbalance_group},,sub-83
Desktop or Laptop,Windows 10,Chrome 138.0.0.0,1600x900,1600x773,Temporal Distance Task,cb_04,9.0,temp_dist_trial,dist_items,qkpkxw,2.0,response,38,649.8999999999943,1949.6999999999966,1966.3999999999944,649.8999999999943,1949.6999999999966,1966.3999999999944,1.0,1316.5,0.0,,Slider,Slider,4.0,object-56,temp_dist_trial,9.0,t_s_03_1,travel_shared,portable charger,4.0,competing,paired,t_s_03_1.jpg,Travel,$${counterbalance_group},,sub-83
Desktop or Laptop,Windows 10,Chrome 138.0.0.0,1600x900,1600x773,Temporal Distance Task,cb_04,10.0,temp_dist_trial,num_items,zn7si1,1.0,response,1_ITEM,1328.5999999642372,1316.6000000000058,1328.5999999642372,1328.5999999642372,1316.6000000000058,1328.5999999642372,1.0,0.0,0.0,,Click Response,1_count,3.0,object-46,temp_dist_trial,10.0,t_i_19_1,travel_Iceland,rope,4.0,unique,single,t_i_19_1.jpg,Travel,$${counterbalance_group},,sub-83
Desktop or Laptop,Windows 10,Chrome 138.0.0.0,1600x900,1600x773,Temporal Distance Task,cb_04,11.0,temp_dist_trial,num_items,zn7si1,1.0,response,1_ITEM,1138.199999988079,1133.1999999999969,1138.199999988079,1138.199999988079,1133.1999999999969,1138.199999988079,1.0,0.0,0.0,,Click Response,1_count,3.0,object-46,temp_dist_trial,11.0,t_s_15_1,travel_shared,luggage tag,4.0,competing,single,t_s_15_1.jpg,Travel,$${counterbalance_group},,sub-83
Desktop or Laptop,Windows 10,Chrome 138.0.0.0,1600x900,1600x773,Temporal Distance Task,cb_04,12.0,temp_dist_trial,num_items,zn7si1,1.0,response,1_ITEM,1619.3999999642401,1616.400000000009,1619.3999999642401,1619.3999999642401,1616.400000000009,1619.3999999642401,1.0,0.0,0.0,,Click Response,1_count,3.0,object-46,temp_dist_trial,12.0,t_i_07_1,travel_Iceland,hiking backpack,4.0,unique,paired,t_i_07_1.jpg,Travel,$${counterbalance_group},,sub-83
Desktop or Laptop,Windows 10,Chrome 138.0.0.0,1600x900,1600x773,Temporal Distance Task,cb_04,13.0,temp_dist_trial,num_items,zn7si1,1.0,response,2_ITEM,1216.4999999999854,1199.8999999999942,1216.4999999999854,1216.4999999999854,1199.8999999999942,1216.4999999999854,1.0,0.0,0.0,,Click Response,2_count,5.0,object-49,temp_dist_trial,13.0,t_s_11_1,travel_shared,eye mask,4.0,competing,paired,t_s_11_1.jpg,Travel,$${counterbalance_group},,sub-83
Desktop or Laptop,Windows 10,Chrome 138.0.0.0,1600x900,1600x773,Temporal Distance Task,cb_04,13.0,temp_dist_trial,dist_items,qkpkxw,2.0,info,,4.399999952322107,0.0,4.399999952322107,4.399999952322107,0.0,4.399999952322107,1.0,0.0,0.0,,Slider,Slider,4.0,object-56,temp_dist_trial,13.0,t_s_11_1,travel_shared,eye mask,4.0,competing,paired,t_s_11_1.jpg,Travel,$${counterbalance_group},,sub-83
Desktop or Laptop,Windows 10,Chrome 138.0.0.0,1600x900,1600x773,Temporal Distance Task,cb_04,13.0,temp_dist_trial,dist_items,qkpkxw,2.0,continue,,2222.799999988085,2216.4000000000087,2222.799999988085,2222.799999988085,2216.4000000000087,2222.799999988085,1.0,0.0,0.0,,Click To Continue,Next button,7.0,object-60,temp_dist_trial,13.0,t_s_11_1,travel_shared,eye mask,4.0,competing,paired,t_s_11_1.jpg,Travel,$${counterbalance_group},,sub-83
Desktop or Laptop,Windows 10,Chrome 138.0.0.0,1600x900,1600x773,Temporal Distance Task,cb_04,13.0,temp_dist_trial,dist_items,qkpkxw,2.0,response,33,1483.1000000000058,2216.4000000000087,2223.1000000000063,1483.1000000000058,2216.4000000000087,2223.1000000000063,1.0,740.0,0.0,,Slider,Slider,4.0,object-56,temp_dist_trial,13.0,t_s_11_1,travel_shared,eye mask,4.0,competing,paired,t_s_11_1.jpg,Travel,$${counterbalance_group},,sub-83
Desktop or Laptop,Windows 10,Chrome 138.0.0.0,1600x900,1600x773,Temporal Distance Task,cb_04,14.0,temp_dist_trial,num_items,zn7si1,1.0,response,1_ITEM,1358.1999999999969,1349.8999999999942,1358.1999999999969,1358.1999999999969,1349.8999999999942,1358.1999999999969,1.0,0.0,0.0,,Click Response,1_count,3.0,object-46,temp_dist_trial,14.0,t_m_19_1,travel_Miami,surfboard,4.0,unique,single,t_m_19_1.jpg,Travel,$${counterbalance_group},,sub-83
Desktop or Laptop,Windows 10,Chrome 138.0.0.0,1600x900,1600x773,Temporal Distance Task,cb_04,15.0,temp_dist_trial,num_items,zn7si1,1.0,response,1_ITEM,1182.5999999880733,1166.5,1182.5999999880733,1182.5999999880733,1166.5,1182.5999999880733,1.0,0.0,0.0,,Click Response,1_count,3.0,object-46,temp_dist_trial,15.0,t_m_16_1,travel_Miami,flippers,4.0,unique,single,t_m_16_1.jpg,Travel,$${counterbalance_group},,sub-83
Desktop or Laptop,Windows 10,Chrome 138.0.0.0,1600x900,1600x773,Temporal Distance Task,cb_04,16.0,temp_dist_trial,num_items,zn7si1,1.0,response,2_ITEM,1117.8999999999942,1116.5,1117.8999999999942,1117.8999999999942,1116.5,1117.8999999999942,1.0,0.0,0.0,,Click Response,2_count,5.0,object-49,temp_dist_trial,16.0,t_m_01_1,travel_Miami,sandals,4.0,unique,paired,t_m_01_1.jpg,Travel,$${counterbalance_group},,sub-83
Desktop or Laptop,Windows 10,Chrome 138.0.0.0,1600x900,1600x773,Temporal Distance Task,cb_04,16.0,temp_dist_trial,dist_items,qkpkxw,2.0,info,,4.199999988079071,0.0,4.199999988079071,4.199999988079071,0.0,4.199999988079071,1.0,0.0,0.0,,Slider,Slider,4.0,object-56,temp_dist_trial,16.0,t_m_01_1,travel_Miami,sandals,4.0,unique,paired,t_m_01_1.jpg,Travel,$${counterbalance_group},,sub-83
Desktop or Laptop,Windows 10,Chrome 138.0.0.0,1600x900,1600x773,Temporal Distance Task,cb_04,16.0,temp_dist_trial,dist_items,qkpkxw,2.0,continue,,2703.699999988079,2699.800000000003,2703.699999988079,2703.699999988079,2699.800000000003,2703.699999988079,1.0,0.0,0.0,,Click To Continue,Next button,7.0,object-60,temp_dist_trial,16.0,t_m_01_1,travel_Miami,sandals,4.0,unique,paired,t_m_01_1.jpg,Travel,$${counterbalance_group},,sub-83
Desktop or Laptop,Windows 10,Chrome 138.0.0.0,1600x900,1600x773,Temporal Distance Task,cb_04,16.0,temp_dist_trial,dist_items,qkpkxw,2.0,response,34,1600.0,2699.800000000003,2704.099999964237,1600.0,2699.800000000003,2704.099999964237,1.0,1104.0999999642372,0.0,,Slider,Slider,4.0,object-56,temp_dist_trial,16.0,t_m_01_1,travel_Miami,sandals,4.0,unique,paired,t_m_01_1.jpg,Travel,$${counterbalance_group},,sub-83
Desktop or Laptop,Windows 10,Chrome 138.0.0.0,1600x900,1600x773,Temporal Distance Task,cb_04,17.0,temp_dist_trial,num_items,zn7si1,1.0,response,1_ITEM,1283.7999999642345,1283.0,1283.7999999642345,1283.7999999642345,1283.0,1283.7999999642345,1.0,0.0,0.0,,Click Response,1_count,3.0,object-46,temp_dist_trial,17.0,t_s_22_1,travel_shared,belt,4.0,competing,paired,t_s_22_1.jpg,Travel,$${counterbalance_group},,sub-83
Desktop or Laptop,Windows 10,Chrome 138.0.0.0,1600x900,1600x773,Temporal Distance Task,cb_04,18.0,temp_dist_trial,num_items,zn7si1,1.0,response,1_ITEM,990.7999999642343,983.3000000000028,990.7999999642343,990.7999999642343,983.3000000000028,990.7999999642343,1.0,0.0,0.0,,Click Response,1_count,3.0,object-46,temp_dist_trial,18.0,t_s_24_1,travel_shared,ear plugs,4.0,competing,single,t_s_24_1.jpg,Travel,$${counterbalance_group},,sub-83
Desktop or Laptop,Windows 10,Chrome 138.0.0.0,1600x900,1600x773,Temporal Distance Task,cb_04,19.0,temp_dist_trial,num_items,zn7si1,1.0,response,1_ITEM,1117.4999999642314,1116.3999999999942,1117.4999999642314,1117.4999999642314,1116.3999999999942,1117.4999999642314,1.0,0.0,0.0,,Click Response,1_count,3.0,object-46,temp_dist_trial,19.0,t_i_08_1,travel_Iceland,thick socks,4.0,unique,single,t_i_08_1.jpg,Travel,$${counterbalance_group},,sub-83
Desktop or Laptop,Windows 10,Chrome 138.0.0.0,1600x900,1600x773,Temporal Distance Task,cb_04,20.0,temp_dist_trial,num_items,zn7si1,1.0,response,2_ITEM,1102.5999999880733,1099.7999999999884,1102.5999999880733,1102.5999999880733,1099.7999999999884,1102.5999999880733,1.0,0.0,0.0,,Click Response,2_count,5.0,object-49,temp_dist_trial,20.0,t_i_03_1,travel_Iceland,winter jacket,4.0,unique,paired,t_i_03_1.jpg,Travel,$${counterbalance_group},,sub-83
Desktop or Laptop,Windows 10,Chrome 138.0.0.0,1600x900,1600x773,Temporal Distance Task,cb_04,20.0,temp_dist_trial,dist_items,qkpkxw,2.0,info,,3.8999999523221054,0.0,3.8999999523221054,3.8999999523221054,0.0,3.8999999523221054,1.0,0.0,0.0,,Slider,Slider,4.0,object-56,temp_dist_trial,20.0,t_i_03_1,travel_Iceland,winter jacket,4.0,unique,paired,t_i_03_1.jpg,Travel,$${counterbalance_group},,sub-83
Desktop or Laptop,Windows 10,Chrome 138.0.0.0,1600x900,1600x773,Temporal Distance Task,cb_04,20.0,temp_dist_trial,dist_items,qkpkxw,2.0,continue,,1336.699999964243,1333.1000000000058,1336.699999964243,1336.699999964243,1333.1000000000058,1336.699999964243,1.0,0.0,0.0,,Click To Continue,Next button,7.0,object-60,temp_dist_trial,20.0,t_i_03_1,travel_Iceland,winter jacket,4.0,unique,paired,t_i_03_1.jpg,Travel,$${counterbalance_group},,sub-83
Desktop or Laptop,Windows 10,Chrome 138.0.0.0,1600x900,1600x773,Temporal Distance Task,cb_04,20.0,temp_dist_trial,dist_items,qkpkxw,2.0,response,41,616.5,1333.1000000000058,1337.1000000000058,616.5,1333.1000000000058,1337.1000000000058,1.0,720.6000000000058,0.0,,Slider,Slider,4.0,object-56,temp_dist_trial,20.0,t_i_03_1,travel_Iceland,winter jacket,4.0,unique,paired,t_i_03_1.jpg,Travel,$${counterbalance_group},,sub-83
Desktop or Laptop,Windows 10,Chrome 138.0.0.0,1600x900,1600x773,Temporal Distance Task,cb_04,21.0,temp_dist_trial,num_items,zn7si1,1.0,response,2_ITEM,1068.199999988079,1066.3999999999942,1068.199999988079,1068.199999988079,1066.3999999999942,1068.199999988079,1.0,0.0,0.0,,Click Response,2_count,5.0,object-49,temp_dist_trial,21.0,t_s_09_1,travel_shared,wallet,4.0,competing,paired,t_s_09_1.jpg,Travel,$${counterbalance_group},,sub-83
Desktop or Laptop,Windows 10,Chrome 138.0.0.0,1600x900,1600x773,Temporal Distance Task,cb_04,21.0,temp_dist_trial,dist_items,qkpkxw,2.0,info,,3.599999964237213,0.0,3.599999964237213,3.599999964237213,0.0,3.599999964237213,1.0,0.0,0.0,,Slider,Slider,4.0,object-56,temp_dist_trial,21.0,t_s_09_1,travel_shared,wallet,4.0,competing,paired,t_s_09_1.jpg,Travel,$${counterbalance_group},,sub-83
Desktop or Laptop,Windows 10,Chrome 138.0.0.0,1600x900,1600x773,Temporal Distance Task,cb_04,21.0,temp_dist_trial,dist_items,qkpkxw,2.0,continue,,1750.5999999642374,1749.6999999999966,1750.5999999642374,1750.5999999642374,1749.6999999999966,1750.5999999642374,1.0,0.0,0.0,,Click To Continue,Next button,7.0,object-60,temp_dist_trial,21.0,t_s_09_1,travel_shared,wallet,4.0,competing,paired,t_s_09_1.jpg,Travel,$${counterbalance_group},,sub-83
Desktop or Laptop,Windows 10,Chrome 138.0.0.0,1600x900,1600x773,Temporal Distance Task,cb_04,21.0,temp_dist_trial,dist_items,qkpkxw,2.0,response,30,966.5,1749.6999999999966,1751.0,966.5,1749.6999999999966,1751.0,1.0,784.5,0.0,,Slider,Slider,4.0,object-56,temp_dist_trial,21.0,t_s_09_1,travel_shared,wallet,4.0,competing,paired,t_s_09_1.jpg,Travel,$${counterbalance_group},,sub-83
Desktop or Laptop,Windows 10,Chrome 138.0.0.0,1600x900,1600x773,Temporal Distance Task,cb_04,22.0,temp_dist_trial,num_items,zn7si1,1.0,response,2_ITEM,1601.6999999761608,1599.900000000009,1601.6999999761608,1601.6999999761608,1599.900000000009,1601.6999999761608,1.0,0.0,0.0,,Click Response,2_count,5.0,object-49,temp_dist_trial,22.0,t_s_20_1,travel_shared,travel pill case,4.0,competing,paired,t_s_20_1.jpg,Travel,$${counterbalance_group},,sub-83
Desktop or Laptop,Windows 10,Chrome 138.0.0.0,1600x900,1600x773,Temporal Distance Task,cb_04,22.0,temp_dist_trial,dist_items,qkpkxw,2.0,info,,3.8999999999941792,0.0,3.8999999999941792,3.8999999999941792,0.0,3.8999999999941792,1.0,0.0,0.0,,Slider,Slider,4.0,object-56,temp_dist_trial,22.0,t_s_20_1,travel_shared,travel pill case,4.0,competing,paired,t_s_20_1.jpg,Travel,$${counterbalance_group},,sub-83
Desktop or Laptop,Windows 10,Chrome 138.0.0.0,1600x900,1600x773,Temporal Distance Task,cb_04,22.0,temp_dist_trial,dist_items,qkpkxw,2.0,continue,,1615.9999999642316,1599.6999999999966,1615.9999999642316,1615.9999999642316,1599.6999999999966,1615.9999999642316,1.0,0.0,0.0,,Click To Continue,Next button,7.0,object-60,temp_dist_trial,22.0,t_s_20_1,travel_shared,travel pill case,4.0,competing,paired,t_s_20_1.jpg,Travel,$${counterbalance_group},,sub-83
Desktop or Laptop,Windows 10,Chrome 138.0.0.0,1600x900,1600x773,Temporal Distance Task,cb_04,22.0,temp_dist_trial,dist_items,qkpkxw,2.0,response,71,849.7999999999884,1599.6999999999966,1616.2999999761525,849.7999999999884,1599.6999999999966,1616.2999999761525,1.0,766.499999976164,0.0,,Slider,Slider,4.0,object-56,temp_dist_trial,22.0,t_s_20_1,travel_shared,travel pill case,4.0,competing,paired,t_s_20_1.jpg,Travel,$${counterbalance_group},,sub-83
Desktop or Laptop,Windows 10,Chrome 138.0.0.0,1600x900,1600x773,Temporal Distance Task,cb_04,23.0,temp_dist_trial,num_items,zn7si1,1.0,response,1_ITEM,1280.0999999761552,1266.5,1280.0999999761552,1280.0999999761552,1266.5,1280.0999999761552,1.0,0.0,0.0,,Click Response,1_count,3.0,object-46,temp_dist_trial,23.0,t_s_08_1,travel_shared,hand lotion,4.0,competing,paired,t_s_08_1.jpg,Travel,$${counterbalance_group},,sub-83
Desktop or Laptop,Windows 10,Chrome 138.0.0.0,1600x900,1600x773,Temporal Distance Task,cb_04,24.0,temp_dist_trial,num_items,zn7si1,1.0,response,1_ITEM,1123.3999999523219,1116.5,1123.3999999523219,1123.3999999523219,1116.5,1123.3999999523219,1.0,0.0,0.0,,Click Response,1_count,3.0,object-46,temp_dist_trial,24.0,t_m_18_1,travel_Miami,waterproof tote,4.0,unique,single,t_m_18_1.jpg,Travel,$${counterbalance_group},,sub-83
Desktop or Laptop,Windows 10,Chrome 138.0.0.0,1600x900,1600x773,Temporal Distance Task,cb_04,25.0,temp_dist_trial,num_items,zn7si1,1.0,response,2_ITEM,1125.2999999642343,1116.5999999999913,1125.2999999642343,1125.2999999642343,1116.5999999999913,1125.2999999642343,1.0,0.0,0.0,,Click Response,2_count,5.0,object-49,temp_dist_trial,25.0,t_s_05_1,travel_shared,neck pillow,4.0,competing,paired,t_s_05_1.jpg,Travel,$${counterbalance_group},,sub-83
Desktop or Laptop,Windows 10,Chrome 138.0.0.0,1600x900,1600x773,Temporal Distance Task,cb_04,25.0,temp_dist_trial,dist_items,qkpkxw,2.0,info,,4.299999988084892,0.0,4.299999988084892,4.299999988084892,0.0,4.299999988084892,1.0,0.0,0.0,,Slider,Slider,4.0,object-56,temp_dist_trial,25.0,t_s_05_1,travel_shared,neck pillow,4.0,competing,paired,t_s_05_1.jpg,Travel,$${counterbalance_group},,sub-83
Desktop or Laptop,Windows 10,Chrome 138.0.0.0,1600x900,1600x773,Temporal Distance Task,cb_04,25.0,temp_dist_trial,dist_items,qkpkxw,2.0,continue,,3358.499999976164,3349.5,3358.499999976164,3358.499999976164,3349.5,3358.499999976164,1.0,0.0,0.0,,Click To Continue,Next button,7.0,object-60,temp_dist_trial,25.0,t_s_05_1,travel_shared,neck pillow,4.0,competing,paired,t_s_05_1.jpg,Travel,$${counterbalance_group},,sub-83
Desktop or Laptop,Windows 10,Chrome 138.0.0.0,1600x900,1600x773,Temporal Distance Task,cb_04,25.0,temp_dist_trial,dist_items,qkpkxw,2.0,response,64,2432.9000000000087,3349.5,3359.1000000000067,2432.9000000000087,3349.5,3359.1000000000067,1.0,926.1999999999972,0.0,,Slider,Slider,4.0,object-56,temp_dist_trial,25.0,t_s_05_1,travel_shared,neck pillow,4.0,competing,paired,t_s_05_1.jpg,Travel,$${counterbalance_group},,sub-83
Desktop or Laptop,Windows 10,Chrome 138.0.0.0,1600x900,1600x773,Temporal Distance Task,cb_04,26.0,temp_dist_trial,num_items,zn7si1,1.0,response,1_ITEM,1648.999999976164,1633.1000000000058,1648.999999976164,1648.999999976164,1633.1000000000058,1648.999999976164,1.0,0.0,0.0,,Click Response,1_count,3.0,object-46,temp_dist_trial,26.0,t_s_23_1,travel_shared,ball cap,4.0,competing,single,t_s_23_1.jpg,Travel,$${counterbalance_group},,sub-83
Desktop or Laptop,Windows 10,Chrome 138.0.0.0,1600x900,1600x773,Temporal Distance Task,cb_04,27.0,temp_dist_trial,num_items,zn7si1,1.0,response,1_ITEM,1093.899999976158,1083.1999999999969,1093.899999976158,1093.899999976158,1083.1999999999969,1093.899999976158,1.0,0.0,0.0,,Click Response,1_count,3.0,object-46,temp_dist_trial,27.0,t_i_20_1,travel_Iceland,lantern,4.0,unique,single,t_i_20_1.jpg,Travel,$${counterbalance_group},,sub-83
Desktop or Laptop,Windows 10,Chrome 138.0.0.0,1600x900,1600x773,Temporal Distance Task,cb_04,28.0,temp_dist_trial,num_items,zn7si1,1.0,response,1_ITEM,1184.4999999642316,1183.1999999999969,1184.4999999642316,1184.4999999642316,1183.1999999999969,1184.4999999642316,1.0,0.0,0.0,,Click Response,1_count,3.0,object-46,temp_dist_trial,28.0,t_i_02_1,travel_Iceland,scarf,4.0,unique,paired,t_i_02_1.jpg,Travel,$${counterbalance_group},,sub-83
Desktop or Laptop,Windows 10,Chrome 138.0.0.0,1600x900,1600x773,Temporal Distance Task,cb_04,29.0,temp_dist_trial,num_items,zn7si1,1.0,response,1_ITEM,950.0000000000148,933.3000000000028,950.0000000000148,950.0000000000148,933.3000000000028,950.0000000000148,1.0,0.0,0.0,,Click Response,1_count,3.0,object-46,temp_dist_trial,29.0,t_s_10_1,travel_shared,luggage lock,4.0,competing,single,t_s_10_1.jpg,Travel,$${counterbalance_group},,sub-83
Desktop or Laptop,Windows 10,Chrome 138.0.0.0,1600x900,1600x773,Temporal Distance Task,cb_04,30.0,temp_dist_trial,num_items,zn7si1,1.0,response,1_ITEM,1728.7999999880853,1716.6000000000058,1728.7999999880853,1728.7999999880853,1716.6000000000058,1728.7999999880853,1.0,0.0,0.0,,Click Response,1_count,3.0,object-46,temp_dist_trial,30.0,t_m_10_1,travel_Miami,tanktop,4.0,unique,paired,t_m_10_1.jpg,Travel,$${counterbalance_group},,sub-83
Desktop or Laptop,Windows 10,Chrome 138.0.0.0,1600x900,1600x773,Temporal Distance Task,cb_04,31.0,temp_dist_trial,num_items,zn7si1,1.0,response,2_ITEM,1481.899999952322,1466.5,1481.899999952322,1481.899999952322,1466.5,1481.899999952322,1.0,0.0,0.0,,Click Response,2_count,5.0,object-49,temp_dist_trial,31.0,t_i_13_1,travel_Iceland,sleeping bag,4.0,unique,paired,t_i_13_1.jpg,Travel,$${counterbalance_group},,sub-83
Desktop or Laptop,Windows 10,Chrome 138.0.0.0,1600x900,1600x773,Temporal Distance Task,cb_04,31.0,temp_dist_trial,dist_items,qkpkxw,2.0,info,,3.4999999761639637,0.0,3.4999999761639637,3.4999999761639637,0.0,3.4999999761639637,1.0,0.0,0.0,,Slider,Slider,4.0,object-56,temp_dist_trial,31.0,t_i_13_1,travel_Iceland,sleeping bag,4.0,unique,paired,t_i_13_1.jpg,Travel,$${counterbalance_group},,sub-83
Desktop or Laptop,Windows 10,Chrome 138.0.0.0,1600x900,1600x773,Temporal Distance Task,cb_04,31.0,temp_dist_trial,dist_items,qkpkxw,2.0,continue,,4277.799999988085,4266.0,4277.799999988085,4277.799999988085,4266.0,4277.799999988085,1.0,0.0,0.0,,Click To Continue,Next button,7.0,object-60,temp_dist_trial,31.0,t_i_13_1,travel_Iceland,sleeping bag,4.0,unique,paired,t_i_13_1.jpg,Travel,$${counterbalance_group},,sub-83
Desktop or Laptop,Windows 10,Chrome 138.0.0.0,1600x900,1600x773,Temporal Distance Task,cb_04,31.0,temp_dist_trial,dist_items,qkpkxw,2.0,response,58,3099.6000000000067,4266.0,4280.600000000006,3099.6000000000067,4266.0,4280.600000000006,1.0,1181.0,0.0,,Slider,Slider,4.0,object-56,temp_dist_trial,31.0,t_i_13_1,travel_Iceland,sleeping bag,4.0,unique,paired,t_i_13_1.jpg,Travel,$${counterbalance_group},,sub-83
Desktop or Laptop,Windows 10,Chrome 138.0.0.0,1600x900,1600x773,Temporal Distance Task,cb_04,32.0,temp_dist_trial,num_items,zn7si1,1.0,response,1_ITEM,1371.499999976164,1366.6000000000058,1371.499999976164,1371.499999976164,1366.6000000000058,1371.499999976164,1.0,0.0,0.0,,Click Response,1_count,3.0,object-46,temp_dist_trial,32.0,t_i_10_1,travel_Iceland,trekking poles,4.0,unique,single,t_i_10_1.jpg,Travel,$${counterbalance_group},,sub-83
Desktop or Laptop,Windows 10,Chrome 138.0.0.0,1600x900,1600x773,Temporal Distance Task,cb_04,33.0,temp_dist_trial,num_items,zn7si1,1.0,response,2_ITEM,1202.0999999642372,1199.7000000000114,1202.0999999642372,1202.0999999642372,1199.7000000000114,1202.0999999642372,1.0,0.0,0.0,,Click Response,2_count,5.0,object-49,temp_dist_trial,33.0,t_i_17_1,travel_Iceland,binoculars,4.0,unique,paired,t_i_17_1.jpg,Travel,$${counterbalance_group},,sub-83
Desktop or Laptop,Windows 10,Chrome 138.0.0.0,1600x900,1600x773,Temporal Distance Task,cb_04,33.0,temp_dist_trial,dist_items,qkpkxw,2.0,info,,3.599999952304642,0.0,3.599999952304642,3.599999952304642,0.0,3.599999952304642,1.0,0.0,0.0,,Slider,Slider,4.0,object-56,temp_dist_trial,33.0,t_i_17_1,travel_Iceland,binoculars,4.0,unique,paired,t_i_17_1.jpg,Travel,$${counterbalance_group},,sub-83
Desktop or Laptop,Windows 10,Chrome 138.0.0.0,1600x900,1600x773,Temporal Distance Task,cb_04,33.0,temp_dist_trial,dist_items,qkpkxw,2.0,continue,,1842.1999999761465,1833.1999999999825,1842.1999999761465,1842.1999999761465,1833.1999999999825,1842.1999999761465,1.0,0.0,0.0,,Click To Continue,Next button,7.0,object-60,temp_dist_trial,33.0,t_i_17_1,travel_Iceland,binoculars,4.0,unique,paired,t_i_17_1.jpg,Travel,$${counterbalance_group},,sub-83
Desktop or Laptop,Windows 10,Chrome 138.0.0.0,1600x900,1600x773,Temporal Distance Task,cb_04,33.0,temp_dist_trial,dist_items,qkpkxw,2.0,response,69,933.2999999999884,1833.1999999999825,1842.6999999761465,933.2999999999884,1833.1999999999825,1842.6999999761465,1.0,909.399999976158,0.0,,Slider,Slider,4.0,object-56,temp_dist_trial,33.0,t_i_17_1,travel_Iceland,binoculars,4.0,unique,paired,t_i_17_1.jpg,Travel,$${counterbalance_group},,sub-83
Desktop or Laptop,Windows 10,Chrome 138.0.0.0,1600x900,1600x773,Temporal Distance Task,cb_04,34.0,temp_dist_trial,num_items,zn7si1,1.0,response,2_ITEM,1447.999999976164,1433.1000000000058,1447.999999976164,1447.999999976164,1433.1000000000058,1447.999999976164,1.0,0.0,0.0,,Click Response,2_count,5.0,object-49,temp_dist_trial,34.0,t_s_18_1,travel_shared,first aid kit,4.0,competing,paired,t_s_18_1.jpg,Travel,$${counterbalance_group},,sub-83
Desktop or Laptop,Windows 10,Chrome 138.0.0.0,1600x900,1600x773,Temporal Distance Task,cb_04,34.0,temp_dist_trial,dist_items,qkpkxw,2.0,info,,3.899999976158142,0.0,3.899999976158142,3.899999976158142,0.0,3.899999976158142,1.0,0.0,0.0,,Slider,Slider,4.0,object-56,temp_dist_trial,34.0,t_s_18_1,travel_shared,first aid kit,4.0,competing,paired,t_s_18_1.jpg,Travel,$${counterbalance_group},,sub-83
Desktop or Laptop,Windows 10,Chrome 138.0.0.0,1600x900,1600x773,Temporal Distance Task,cb_04,34.0,temp_dist_trial,dist_items,qkpkxw,2.0,continue,,1940.7999999523165,1933.1000000000056,1940.7999999523165,1940.7999999523165,1933.1000000000056,1940.7999999523165,1.0,0.0,0.0,,Click To Continue,Next button,7.0,object-60,temp_dist_trial,34.0,t_s_18_1,travel_shared,first aid kit,4.0,competing,paired,t_s_18_1.jpg,Travel,$${counterbalance_group},,sub-83
Desktop or Laptop,Windows 10,Chrome 138.0.0.0,1600x900,1600x773,Temporal Distance Task,cb_04,34.0,temp_dist_trial,dist_items,qkpkxw,2.0,response,86,666.6000000000057,1933.1000000000056,1941.1999999880786,666.6000000000057,1933.1000000000056,1941.1999999880786,1.0,1274.5999999880733,0.0,,Slider,Slider,4.0,object-56,temp_dist_trial,34.0,t_s_18_1,travel_shared,first aid kit,4.0,competing,paired,t_s_18_1.jpg,Travel,$${counterbalance_group},,sub-83
Desktop or Laptop,Windows 10,Chrome 138.0.0.0,1600x900,1600x773,Temporal Distance Task,cb_04,35.0,temp_dist_trial,num_items,zn7si1,1.0,response,1_ITEM,1367.5999999880733,1366.5,1367.5999999880733,1367.5999999880733,1366.5,1367.5999999880733,1.0,0.0,0.0,,Click Response,1_count,3.0,object-46,temp_dist_trial,35.0,t_s_06_1,travel_shared,luggage,4.0,competing,paired,t_s_06_1.jpg,Travel,$${counterbalance_group},,sub-83
Desktop or Laptop,Windows 10,Chrome 138.0.0.0,1600x900,1600x773,Temporal Distance Task,cb_04,36.0,temp_dist_trial,num_items,zn7si1,1.0,response,2_ITEM,1223.199999988079,1216.5,1223.199999988079,1223.199999988079,1216.5,1223.199999988079,1.0,0.0,0.0,,Click Response,2_count,5.0,object-49,temp_dist_trial,36.0,t_m_02_1,travel_Miami,t-shirt,4.0,unique,paired,t_m_02_1.jpg,Travel,$${counterbalance_group},,sub-83
Desktop or Laptop,Windows 10,Chrome 138.0.0.0,1600x900,1600x773,Temporal Distance Task,cb_04,36.0,temp_dist_trial,dist_items,qkpkxw,2.0,info,,3.5,0.0,3.5,3.5,0.0,3.5,1.0,0.0,0.0,,Slider,Slider,4.0,object-56,temp_dist_trial,36.0,t_m_02_1,travel_Miami,t-shirt,4.0,unique,paired,t_m_02_1.jpg,Travel,$${counterbalance_group},,sub-83
Desktop or Laptop,Windows 10,Chrome 138.0.0.0,1600x900,1600x773,Temporal Distance Task,cb_04,36.0,temp_dist_trial,dist_items,qkpkxw,2.0,continue,,1908.8999999761581,1899.7999999999884,1908.8999999761581,1908.8999999761581,1899.7999999999884,1908.8999999761581,1.0,0.0,0.0,,Click To Continue,Next button,7.0,object-60,temp_dist_trial,36.0,t_m_02_1,travel_Miami,t-shirt,4.0,unique,paired,t_m_02_1.jpg,Travel,$${counterbalance_group},,sub-83
Desktop or Laptop,Windows 10,Chrome 138.0.0.0,1600x900,1600x773,Temporal Distance Task,cb_04,36.0,temp_dist_trial,dist_items,qkpkxw,2.0,response,44,933.2000000000116,1899.7999999999884,1909.2999999523165,933.2000000000116,1899.7999999999884,1909.2999999523165,1.0,976.0999999523046,0.0,,Slider,Slider,4.0,object-56,temp_dist_trial,36.0,t_m_02_1,travel_Miami,t-shirt,4.0,unique,paired,t_m_02_1.jpg,Travel,$${counterbalance_group},,sub-83
Desktop or Laptop,Windows 10,Chrome 138.0.0.0,1600x900,1600x773,Temporal Distance Task,cb_04,37.0,temp_dist_trial,num_items,zn7si1,1.0,response,2_ITEM,1089.0999999761698,1083.2000000000116,1089.0999999761698,1089.0999999761698,1083.2000000000116,1089.0999999761698,1.0,0.0,0.0,,Click Response,2_count,5.0,object-49,temp_dist_trial,37.0,t_m_04_1,travel_Miami,UV jacket,4.0,unique,paired,t_m_04_1.jpg,Travel,$${counterbalance_group},,sub-83
Desktop or Laptop,Windows 10,Chrome 138.0.0.0,1600x900,1600x773,Temporal Distance Task,cb_04,37.0,temp_dist_trial,dist_items,qkpkxw,2.0,info,,3.799999952316284,0.0,3.799999952316284,3.799999952316284,0.0,3.799999952316284,1.0,0.0,0.0,,Slider,Slider,4.0,object-56,temp_dist_trial,37.0,t_m_04_1,travel_Miami,UV jacket,4.0,unique,paired,t_m_04_1.jpg,Travel,$${counterbalance_group},,sub-83
Desktop or Laptop,Windows 10,Chrome 138.0.0.0,1600x900,1600x773,Temporal Distance Task,cb_04,37.0,temp_dist_trial,dist_items,qkpkxw,2.0,continue,,2203.899999976158,2199.700000000012,2203.899999976158,2203.899999976158,2199.700000000012,2203.899999976158,1.0,0.0,0.0,,Click To Continue,Next button,7.0,object-60,temp_dist_trial,37.0,t_m_04_1,travel_Miami,UV jacket,4.0,unique,paired,t_m_04_1.jpg,Travel,$${counterbalance_group},,sub-83
Desktop or Laptop,Windows 10,Chrome 138.0.0.0,1600x900,1600x773,Temporal Distance Task,cb_04,37.0,temp_dist_trial,dist_items,qkpkxw,2.0,response,32,1166.5,2199.700000000012,2204.399999976158,1166.5,2199.700000000012,2204.399999976158,1.0,1037.899999976158,0.0,,Slider,Slider,4.0,object-56,temp_dist_trial,37.0,t_m_04_1,travel_Miami,UV jacket,4.0,unique,paired,t_m_04_1.jpg,Travel,$${counterbalance_group},,sub-83
Desktop or Laptop,Windows 10,Chrome 138.0.0.0,1600x900,1600x773,Temporal Distance Task,cb_04,38.0,temp_dist_trial,num_items,zn7si1,1.0,response,1_ITEM,1227.9999999880674,1216.5,1227.9999999880674,1227.9999999880674,1216.5,1227.9999999880674,1.0,0.0,0.0,,Click Response,1_count,3.0,object-46,temp_dist_trial,38.0,t_s_19_1,travel_shared,pajamas,4.0,competing,single,t_s_19_1.jpg,Travel,$${counterbalance_group},,sub-83
Desktop or Laptop,Windows 10,Chrome 138.0.0.0,1600x900,1600x773,Temporal Distance Task,cb_04,39.0,temp_dist_trial,num_items,zn7si1,1.0,response,2_ITEM,1009.8999999999942,999.8999999999942,1009.8999999999942,1009.8999999999942,999.8999999999942,1009.8999999999942,1.0,0.0,0.0,,Click Response,2_count,5.0,object-49,temp_dist_trial,39.0,t_s_02_1,travel_shared,water bottle,4.0,competing,paired,t_s_02_1.jpg,Travel,$${counterbalance_group},,sub-83
Desktop or Laptop,Windows 10,Chrome 138.0.0.0,1600x900,1600x773,Temporal Distance Task,cb_04,39.0,temp_dist_trial,dist_items,qkpkxw,2.0,info,,3.8999999999941792,0.0,3.8999999999941792,3.8999999999941792,0.0,3.8999999999941792,1.0,0.0,0.0,,Slider,Slider,4.0,object-56,temp_dist_trial,39.0,t_s_02_1,travel_shared,water bottle,4.0,competing,paired,t_s_02_1.jpg,Travel,$${counterbalance_group},,sub-83
Desktop or Laptop,Windows 10,Chrome 138.0.0.0,1600x900,1600x773,Temporal Distance Task,cb_04,39.0,temp_dist_trial,dist_items,qkpkxw,2.0,continue,,1799.8000000000175,1783.0,1799.8000000000175,1799.8000000000175,1783.0,1799.8000000000175,1.0,0.0,0.0,,Click To Continue,Next button,7.0,object-60,temp_dist_trial,39.0,t_s_02_1,travel_shared,water bottle,4.0,competing,paired,t_s_02_1.jpg,Travel,$${counterbalance_group},,sub-83
Desktop or Laptop,Windows 10,Chrome 138.0.0.0,1600x900,1600x773,Temporal Distance Task,cb_04,39.0,temp_dist_trial,dist_items,qkpkxw,2.0,response,38,799.7999999999884,1783.0,1799.8000000000175,799.7999999999884,1783.0,1799.8000000000175,1.0,1000.0000000000293,0.0,,Slider,Slider,4.0,object-56,temp_dist_trial,39.0,t_s_02_1,travel_shared,water bottle,4.0,competing,paired,t_s_02_1.jpg,Travel,$${counterbalance_group},,sub-83
Desktop or Laptop,Windows 10,Chrome 138.0.0.0,1600x900,1600x773,Temporal Distance Task,cb_04,40.0,temp_dist_trial,num_items,zn7si1,1.0,response,2_ITEM,1408.6999999523105,1399.8999999999942,1408.6999999523105,1408.6999999523105,1399.8999999999942,1408.6999999523105,1.0,0.0,0.0,,Click Response,2_count,5.0,object-49,temp_dist_trial,40.0,t_m_17_1,travel_Miami,water gun,4.0,unique,paired,t_m_17_1.jpg,Travel,$${counterbalance_group},,sub-83
Desktop or Laptop,Windows 10,Chrome 138.0.0.0,1600x900,1600x773,Temporal Distance Task,cb_04,40.0,temp_dist_trial,dist_items,qkpkxw,2.0,info,,3.3999999523221054,0.0,3.3999999523221054,3.3999999523221054,0.0,3.3999999523221054,1.0,0.0,0.0,,Slider,Slider,4.0,object-56,temp_dist_trial,40.0,t_m_17_1,travel_Miami,water gun,4.0,unique,paired,t_m_17_1.jpg,Travel,$${counterbalance_group},,sub-83
Desktop or Laptop,Windows 10,Chrome 138.0.0.0,1600x900,1600x773,Temporal Distance Task,cb_04,40.0,temp_dist_trial,dist_items,qkpkxw,2.0,continue,,1790.6999999642428,1783.1000000000058,1790.6999999642428,1790.6999999642428,1783.1000000000058,1790.6999999642428,1.0,0.0,0.0,,Click To Continue,Next button,7.0,object-60,temp_dist_trial,40.0,t_m_17_1,travel_Miami,water gun,4.0,unique,paired,t_m_17_1.jpg,Travel,$${counterbalance_group},,sub-83
Desktop or Laptop,Windows 10,Chrome 138.0.0.0,1600x900,1600x773,Temporal Distance Task,cb_04,40.0,temp_dist_trial,dist_items,qkpkxw,2.0,response,63,866.6000000000058,1783.1000000000058,1791.1999999642428,866.6000000000058,1783.1000000000058,1791.1999999642428,1.0,924.5999999642372,0.0,,Slider,Slider,4.0,object-56,temp_dist_trial,40.0,t_m_17_1,travel_Miami,water gun,4.0,unique,paired,t_m_17_1.jpg,Travel,$${counterbalance_group},,sub-83
Desktop or Laptop,Windows 10,Chrome 138.0.0.0,1600x900,1600x773,Temporal Distance Task,cb_04,41.0,temp_dist_trial,num_items,zn7si1,1.0,response,1_ITEM,1279.699999988079,1266.5,1279.699999988079,1279.699999988079,1266.5,1279.699999988079,1.0,0.0,0.0,,Click Response,1_count,3.0,object-46,temp_dist_trial,41.0,t_s_01_1,travel_shared,fanny pack,4.0,competing,single,t_s_01_1.jpg,Travel,$${counterbalance_group},,sub-83
Desktop or Laptop,Windows 10,Chrome 138.0.0.0,1600x900,1600x773,Temporal Distance Task,cb_04,42.0,temp_dist_trial,num_items,zn7si1,1.0,response,1_ITEM,1195.399999976158,1183.2000000000114,1195.399999976158,1195.399999976158,1183.2000000000114,1195.399999976158,1.0,0.0,0.0,,Click Response,1_count,3.0,object-46,temp_dist_trial,42.0,t_m_14_1,travel_Miami,swim goggles,4.0,unique,paired,t_m_14_1.jpg,Travel,$${counterbalance_group},,sub-83
Desktop or Laptop,Windows 10,Chrome 138.0.0.0,1600x900,1600x773,Temporal Distance Task,cb_04,43.0,temp_dist_trial,num_items,zn7si1,1.0,response,1_ITEM,1730.4999999880677,1716.3999999999942,1730.4999999880677,1730.4999999880677,1716.3999999999942,1730.4999999880677,1.0,0.0,0.0,,Click Response,1_count,3.0,object-46,temp_dist_trial,43.0,t_s_17_1,travel_shared,toothbrush,4.0,competing,paired,t_s_17_1.jpg,Travel,$${counterbalance_group},,sub-83
Desktop or Laptop,Windows 10,Chrome 138.0.0.0,1600x900,1600x773,Temporal Distance Task,cb_04,44.0,temp_dist_trial,num_items,zn7si1,1.0,response,2_ITEM,1187.5999999880733,1183.1999999999825,1187.5999999880733,1187.5999999880733,1183.1999999999825,1187.5999999880733,1.0,0.0,0.0,,Click Response,2_count,5.0,object-49,temp_dist_trial,44.0,t_m_20_1,travel_Miami,inflatable beachball,4.0,unique,paired,t_m_20_1.jpg,Travel,$${counterbalance_group},,sub-83
Desktop or Laptop,Windows 10,Chrome 138.0.0.0,1600x900,1600x773,Temporal Distance Task,cb_04,44.0,temp_dist_trial,dist_items,qkpkxw,2.0,info,,3.79999999998836,0.0,3.79999999998836,3.79999999998836,0.0,3.79999999998836,1.0,0.0,0.0,,Slider,Slider,4.0,object-56,temp_dist_trial,44.0,t_m_20_1,travel_Miami,inflatable beachball,4.0,unique,paired,t_m_20_1.jpg,Travel,$${counterbalance_group},,sub-83
Desktop or Laptop,Windows 10,Chrome 138.0.0.0,1600x900,1600x773,Temporal Distance Task,cb_04,44.0,temp_dist_trial,dist_items,qkpkxw,2.0,continue,,1386.6999999761465,1383.1999999999825,1386.6999999761465,1386.6999999761465,1383.1999999999825,1386.6999999761465,1.0,0.0,0.0,,Click To Continue,Next button,7.0,object-60,temp_dist_trial,44.0,t_m_20_1,travel_Miami,inflatable beachball,4.0,unique,paired,t_m_20_1.jpg,Travel,$${counterbalance_group},,sub-83
Desktop or Laptop,Windows 10,Chrome 138.0.0.0,1600x900,1600x773,Temporal Distance Task,cb_04,44.0,temp_dist_trial,dist_items,qkpkxw,2.0,response,43,483.3999999999942,1383.1999999999825,1390.9999999880677,483.3999999999942,1383.1999999999825,1390.9999999880677,1.0,907.5999999880733,0.0,,Slider,Slider,4.0,object-56,temp_dist_trial,44.0,t_m_20_1,travel_Miami,inflatable beachball,4.0,unique,paired,t_m_20_1.jpg,Travel,$${counterbalance_group},,sub-83
Desktop or Laptop,Windows 10,Chrome 138.0.0.0,1600x900,1600x773,Temporal Distance Task,cb_04,45.0,temp_dist_trial,num_items,zn7si1,1.0,response,1_ITEM,2235.299999988085,2233.0,2235.299999988085,2235.299999988085,2233.0,2235.299999988085,1.0,0.0,0.0,,Click Response,1_count,3.0,object-46,temp_dist_trial,45.0,t_s_14_1,travel_shared,hand sanitizer,4.0,competing,paired,t_s_14_1.jpg,Travel,$${counterbalance_group},,sub-83
Desktop or Laptop,Windows 10,Chrome 138.0.0.0,1600x900,1600x773,Temporal Distance Task,cb_04,46.0,temp_dist_trial,num_items,zn7si1,1.0,response,2_ITEM,1064.3999999523219,1049.8999999999942,1064.3999999523219,1064.3999999523219,1049.8999999999942,1064.3999999523219,1.0,0.0,0.0,,Click Response,2_count,5.0,object-49,temp_dist_trial,46.0,t_m_15_1,travel_Miami,shorts,4.0,unique,single,t_m_15_1.jpg,Travel,$${counterbalance_group},,sub-83
Desktop or Laptop,Windows 10,Chrome 138.0.0.0,1600x900,1600x773,Temporal Distance Task,cb_04,46.0,temp_dist_trial,dist_items,qkpkxw,2.0,info,,3.899999988090713,0.0,3.899999988090713,3.899999988090713,0.0,3.899999988090713,1.0,0.0,0.0,,Slider,Slider,4.0,object-56,temp_dist_trial,46.0,t_m_15_1,travel_Miami,shorts,4.0,unique,single,t_m_15_1.jpg,Travel,$${counterbalance_group},,sub-83
Desktop or Laptop,Windows 10,Chrome 138.0.0.0,1600x900,1600x773,Temporal Distance Task,cb_04,46.0,temp_dist_trial,dist_items,qkpkxw,2.0,continue,,1924.599999976169,1916.4000000000235,1924.599999976169,1924.599999976169,1916.4000000000235,1924.599999976169,1.0,0.0,0.0,,Click To Continue,Next button,7.0,object-60,temp_dist_trial,46.0,t_m_15_1,travel_Miami,shorts,4.0,unique,single,t_m_15_1.jpg,Travel,$${counterbalance_group},,sub-83
Desktop or Laptop,Windows 10,Chrome 138.0.0.0,1600x900,1600x773,Temporal Distance Task,cb_04,46.0,temp_dist_trial,dist_items,qkpkxw,2.0,response,65,949.8000000000177,1916.4000000000235,1924.999999952328,949.8000000000177,1916.4000000000235,1924.999999952328,1.0,975.1999999523103,0.0,,Slider,Slider,4.0,object-56,temp_dist_trial,46.0,t_m_15_1,travel_Miami,shorts,4.0,unique,single,t_m_15_1.jpg,Travel,$${counterbalance_group},,sub-83
Desktop or Laptop,Windows 10,Chrome 138.0.0.0,1600x900,1600x773,Temporal Distance Task,cb_04,47.0,temp_dist_trial,num_items,zn7si1,1.0,response,2_ITEM,1416.1999999761465,1399.8999999999942,1416.1999999761465,1416.1999999761465,1399.8999999999942,1416.1999999761465,1.0,0.0,0.0,,Click Response,2_count,5.0,object-49,temp_dist_trial,47.0,t_i_09_1,travel_Iceland,ear muffs,4.0,unique,paired,t_i_09_1.jpg,Travel,$${counterbalance_group},,sub-83
Desktop or Laptop,Windows 10,Chrome 138.0.0.0,1600x900,1600x773,Temporal Distance Task,cb_04,47.0,temp_dist_trial,dist_items,qkpkxw,2.0,info,,3.5,0.0,3.5,3.5,0.0,3.5,1.0,0.0,0.0,,Slider,Slider,4.0,object-56,temp_dist_trial,47.0,t_i_09_1,travel_Iceland,ear muffs,4.0,unique,paired,t_i_09_1.jpg,Travel,$${counterbalance_group},,sub-83
Desktop or Laptop,Windows 10,Chrome 138.0.0.0,1600x900,1600x773,Temporal Distance Task,cb_04,47.0,temp_dist_trial,dist_items,qkpkxw,2.0,continue,,2102.099999964237,2099.700000000012,2102.099999964237,2102.099999964237,2099.700000000012,2102.099999964237,1.0,0.0,0.0,,Click To Continue,Next button,7.0,object-60,temp_dist_trial,47.0,t_i_09_1,travel_Iceland,ear muffs,4.0,unique,paired,t_i_09_1.jpg,Travel,$${counterbalance_group},,sub-83
Desktop or Laptop,Windows 10,Chrome 138.0.0.0,1600x900,1600x773,Temporal Distance Task,cb_04,47.0,temp_dist_trial,dist_items,qkpkxw,2.0,response,37,949.7999999999884,2099.700000000012,2102.599999964237,949.7999999999884,2099.700000000012,2102.599999964237,1.0,1152.7999999642489,0.0,,Slider,Slider,4.0,object-56,temp_dist_trial,47.0,t_i_09_1,travel_Iceland,ear muffs,4.0,unique,paired,t_i_09_1.jpg,Travel,$${counterbalance_group},,sub-83
Desktop or Laptop,Windows 10,Chrome 138.0.0.0,1600x900,1600x773,Temporal Distance Task,cb_04,48.0,temp_dist_trial,num_items,zn7si1,1.0,response,2_ITEM,1690.3999999642256,1683.0999999999767,1690.3999999642256,1690.3999999642256,1683.0999999999767,1690.3999999642256,1.0,0.0,0.0,,Click Response,2_count,5.0,object-49,temp_dist_trial,48.0,t_i_15_1,travel_Iceland,compass,4.0,unique,paired,t_i_15_1.jpg,Travel,$${counterbalance_group},,sub-83
Desktop or Laptop,Windows 10,Chrome 138.0.0.0,1600x900,1600x773,Temporal Distance Task,cb_04,48.0,temp_dist_trial,dist_items,qkpkxw,2.0,info,,3.7000000000116415,0.0,3.7000000000116415,3.7000000000116415,0.0,3.7000000000116415,1.0,0.0,0.0,,Slider,Slider,4.0,object-56,temp_dist_trial,48.0,t_i_15_1,travel_Iceland,compass,4.0,unique,paired,t_i_15_1.jpg,Travel,$${counterbalance_group},,sub-83
Desktop or Laptop,Windows 10,Chrome 138.0.0.0,1600x900,1600x773,Temporal Distance Task,cb_04,48.0,temp_dist_trial,dist_items,qkpkxw,2.0,continue,,1908.7000000000119,1899.7000000000119,1908.7000000000119,1908.7000000000119,1899.7000000000119,1908.7000000000119,1.0,0.0,0.0,,Click To Continue,Next button,7.0,object-60,temp_dist_trial,48.0,t_i_15_1,travel_Iceland,compass,4.0,unique,paired,t_i_15_1.jpg,Travel,$${counterbalance_group},,sub-83
Desktop or Laptop,Windows 10,Chrome 138.0.0.0,1600x900,1600x773,Temporal Distance Task,cb_04,48.0,temp_dist_trial,dist_items,qkpkxw,2.0,response,78,949.9000000000232,1899.7000000000119,1908.999999952328,949.9000000000232,1899.7000000000119,1908.999999952328,1.0,959.0999999523046,0.0,,Slider,Slider,4.0,object-56,temp_dist_trial,48.0,t_i_15_1,travel_Iceland,compass,4.0,unique,paired,t_i_15_1.jpg,Travel,$${counterbalance_group},,sub-83
Desktop or Laptop,Windows 10,Chrome 138.0.0.0,1600x900,1600x773,Temporal Distance Task,cb_04,2.0,temp_eventStart,Screen 1,dgtyxe,1.0,continue,,7257.7999999523145,7249.2000000000135,7257.7999999523145,7257.7999999523145,7249.2000000000135,7257.7999999523145,1.0,0.0,0.0,,Click To Continue,Next Button,3.0,object-43,temp_eventStart,,,Student,,,,,,,$${counterbalance_group},,sub-83
Desktop or Laptop,Windows 10,Chrome 138.0.0.0,1600x900,1600x773,Temporal Distance Task,cb_04,49.0,temp_dist_trial,num_items,zn7si1,1.0,response,2_ITEM,1416.5,1399.7999999999884,1416.5,1416.5,1399.7999999999884,1416.5,1.0,0.0,0.0,,Click Response,2_count,5.0,object-49,temp_dist_trial,1.0,s_a_08_1,student_art,sewing machine,4.0,unique,paired,s_a_08_1.jpg,Student,$${counterbalance_group},,sub-83
Desktop or Laptop,Windows 10,Chrome 138.0.0.0,1600x900,1600x773,Temporal Distance Task,cb_04,49.0,temp_dist_trial,dist_items,qkpkxw,2.0,info,,3.699999988079071,0.0,3.699999988079071,3.699999988079071,0.0,3.699999988079071,1.0,0.0,0.0,,Slider,Slider,4.0,object-56,temp_dist_trial,1.0,s_a_08_1,student_art,sewing machine,4.0,unique,paired,s_a_08_1.jpg,Student,$${counterbalance_group},,sub-83
Desktop or Laptop,Windows 10,Chrome 138.0.0.0,1600x900,1600x773,Temporal Distance Task,cb_04,49.0,temp_dist_trial,dist_items,qkpkxw,2.0,continue,,1726.7999999523165,1716.3999999999942,1726.7999999523165,1726.7999999523165,1716.3999999999942,1726.7999999523165,1.0,0.0,0.0,,Click To Continue,Next button,7.0,object-60,temp_dist_trial,1.0,s_a_08_1,student_art,sewing machine,4.0,unique,paired,s_a_08_1.jpg,Student,$${counterbalance_group},,sub-83
Desktop or Laptop,Windows 10,Chrome 138.0.0.0,1600x900,1600x773,Temporal Distance Task,cb_04,49.0,temp_dist_trial,dist_items,qkpkxw,2.0,response,75,716.5,1716.3999999999942,1727.0999999642374,716.5,1716.3999999999942,1727.0999999642374,1.0,1010.5999999642372,0.0,,Slider,Slider,4.0,object-56,temp_dist_trial,1.0,s_a_08_1,student_art,sewing machine,4.0,unique,paired,s_a_08_1.jpg,Student,$${counterbalance_group},,sub-83
Desktop or Laptop,Windows 10,Chrome 138.0.0.0,1600x900,1600x773,Temporal Distance Task,cb_04,50.0,temp_dist_trial,num_items,zn7si1,1.0,response,1_ITEM,1490.1999999642428,1483.1000000000058,1490.1999999642428,1490.1999999642428,1483.1000000000058,1490.1999999642428,1.0,0.0,0.0,,Click Response,1_count,3.0,object-46,temp_dist_trial,2.0,s_sh_10_1,student_shared,scissors,4.0,competing,paired,s_sh_10_1.jpg,Student,$${counterbalance_group},,sub-83
Desktop or Laptop,Windows 10,Chrome 138.0.0.0,1600x900,1600x773,Temporal Distance Task,cb_04,51.0,temp_dist_trial,num_items,zn7si1,1.0,response,1_ITEM,981.399999976158,966.6000000000058,981.399999976158,981.399999976158,966.6000000000058,981.399999976158,1.0,0.0,0.0,,Click Response,1_count,3.0,object-46,temp_dist_trial,3.0,s_a_16_1,student_art,piano,4.0,unique,single,s_a_16_1.jpg,Student,$${counterbalance_group},,sub-83
Desktop or Laptop,Windows 10,Chrome 138.0.0.0,1600x900,1600x773,Temporal Distance Task,cb_04,52.0,temp_dist_trial,num_items,zn7si1,1.0,response,2_ITEM,1028.5999999642372,1016.6000000000058,1028.5999999642372,1028.5999999642372,1016.6000000000058,1028.5999999642372,1.0,0.0,0.0,,Click Response,2_count,5.0,object-49,temp_dist_trial,4.0,s_a_02_1,student_art,canvas,4.0,unique,single,s_a_02_1.jpg,Student,$${counterbalance_group},,sub-83
Desktop or Laptop,Windows 10,Chrome 138.0.0.0,1600x900,1600x773,Temporal Distance Task,cb_04,52.0,temp_dist_trial,dist_items,qkpkxw,2.0,info,,3.799999988084892,0.0,3.799999988084892,3.799999988084892,0.0,3.799999988084892,1.0,0.0,0.0,,Slider,Slider,4.0,object-56,temp_dist_trial,4.0,s_a_02_1,student_art,canvas,4.0,unique,single,s_a_02_1.jpg,Student,$${counterbalance_group},,sub-83
Desktop or Laptop,Windows 10,Chrome 138.0.0.0,1600x900,1600x773,Temporal Distance Task,cb_04,52.0,temp_dist_trial,dist_items,qkpkxw,2.0,continue,,1618.2999999880853,1616.5,1618.2999999880853,1618.2999999880853,1616.5,1618.2999999880853,1.0,0.0,0.0,,Click To Continue,Next button,7.0,object-60,temp_dist_trial,4.0,s_a_02_1,student_art,canvas,4.0,unique,single,s_a_02_1.jpg,Student,$${counterbalance_group},,sub-83
Desktop or Laptop,Windows 10,Chrome 138.0.0.0,1600x900,1600x773,Temporal Distance Task,cb_04,52.0,temp_dist_trial,dist_items,qkpkxw,2.0,response,65,600.0,1616.5,1618.6999999642428,600.0,1616.5,1618.6999999642428,1.0,1018.699999964243,0.0,,Slider,Slider,4.0,object-56,temp_dist_trial,4.0,s_a_02_1,student_art,canvas,4.0,unique,single,s_a_02_1.jpg,Student,$${counterbalance_group},,sub-83
Desktop or Laptop,Windows 10,Chrome 138.0.0.0,1600x900,1600x773,Temporal Distance Task,cb_04,53.0,temp_dist_trial,num_items,zn7si1,1.0,response,1_ITEM,1153.999999976164,1150.0,1153.999999976164,1153.999999976164,1150.0,1153.999999976164,1.0,0.0,0.0,,Click Response,1_count,3.0,object-46,temp_dist_trial,5.0,s_s_01_1,student_stem,microscope,4.0,unique,single,s_s_01_1.jpg,Student,$${counterbalance_group},,sub-83
Desktop or Laptop,Windows 10,Chrome 138.0.0.0,1600x900,1600x773,Temporal Distance Task,cb_04,54.0,temp_dist_trial,num_items,zn7si1,1.0,response,2_ITEM,1073.999999952328,1066.5,1073.999999952328,1073.999999952328,1066.5,1073.999999952328,1.0,0.0,0.0,,Click Response,2_count,5.0,object-49,temp_dist_trial,6.0,s_sh_19_1,student_shared,portable plastic drawer,4.0,competing,paired,s_sh_19_1.jpg,Student,$${counterbalance_group},,sub-83
Desktop or Laptop,Windows 10,Chrome 138.0.0.0,1600x900,1600x773,Temporal Distance Task,cb_04,54.0,temp_dist_trial,dist_items,qkpkxw,2.0,info,,3.8999999642255716,0.0,3.8999999642255716,3.8999999642255716,0.0,3.8999999642255716,1.0,0.0,0.0,,Slider,Slider,4.0,object-56,temp_dist_trial,6.0,s_sh_19_1,student_shared,portable plastic drawer,4.0,competing,paired,s_sh_19_1.jpg,Student,$${counterbalance_group},,sub-83
Desktop or Laptop,Windows 10,Chrome 138.0.0.0,1600x900,1600x773,Temporal Distance Task,cb_04,54.0,temp_dist_trial,dist_items,qkpkxw,2.0,continue,,2021.3999999642256,2016.5,2021.3999999642256,2021.3999999642256,2016.5,2021.3999999642256,1.0,0.0,0.0,,Click To Continue,Next button,7.0,object-60,temp_dist_trial,6.0,s_sh_19_1,student_shared,portable plastic drawer,4.0,competing,paired,s_sh_19_1.jpg,Student,$${counterbalance_group},,sub-83
Desktop or Laptop,Windows 10,Chrome 138.0.0.0,1600x900,1600x773,Temporal Distance Task,cb_04,54.0,temp_dist_trial,dist_items,qkpkxw,2.0,response,81,733.3999999999942,2016.5,2021.6999999761465,733.3999999999942,2016.5,2021.6999999761465,1.0,1288.2999999761525,0.0,,Slider,Slider,4.0,object-56,temp_dist_trial,6.0,s_sh_19_1,student_shared,portable plastic drawer,4.0,competing,paired,s_sh_19_1.jpg,Student,$${counterbalance_group},,sub-83
Desktop or Laptop,Windows 10,Chrome 138.0.0.0,1600x900,1600x773,Temporal Distance Task,cb_04,55.0,temp_dist_trial,num_items,zn7si1,1.0,response,2_ITEM,1292.6999999761465,1283.1999999999825,1292.6999999761465,1292.6999999761465,1283.1999999999825,1292.6999999761465,1.0,0.0,0.0,,Click Response,2_count,5.0,object-49,temp_dist_trial,7.0,s_sh_15_1,student_shared,usb drive,4.0,competing,paired,s_sh_15_1.jpg,Student,$${counterbalance_group},,sub-83
Desktop or Laptop,Windows 10,Chrome 138.0.0.0,1600x900,1600x773,Temporal Distance Task,cb_04,55.0,temp_dist_trial,dist_items,qkpkxw,2.0,info,,3.799999988084892,0.0,3.799999988084892,3.799999988084892,0.0,3.799999988084892,1.0,0.0,0.0,,Slider,Slider,4.0,object-56,temp_dist_trial,7.0,s_sh_15_1,student_shared,usb drive,4.0,competing,paired,s_sh_15_1.jpg,Student,$${counterbalance_group},,sub-83
Desktop or Laptop,Windows 10,Chrome 138.0.0.0,1600x900,1600x773,Temporal Distance Task,cb_04,55.0,temp_dist_trial,dist_items,qkpkxw,2.0,continue,,1703.6000000000058,1699.7000000000116,1703.6000000000058,1703.6000000000058,1699.7000000000116,1703.6000000000058,1.0,0.0,0.0,,Click To Continue,Next button,7.0,object-60,temp_dist_trial,7.0,s_sh_15_1,student_shared,usb drive,4.0,competing,paired,s_sh_15_1.jpg,Student,$${counterbalance_group},,sub-83
Desktop or Laptop,Windows 10,Chrome 138.0.0.0,1600x900,1600x773,Temporal Distance Task,cb_04,55.0,temp_dist_trial,dist_items,qkpkxw,2.0,response,31,699.8999999999942,1699.7000000000116,1703.999999976164,699.8999999999942,1699.7000000000116,1703.999999976164,1.0,1004.0999999761698,0.0,,Slider,Slider,4.0,object-56,temp_dist_trial,7.0,s_sh_15_1,student_shared,usb drive,4.0,competing,paired,s_sh_15_1.jpg,Student,$${counterbalance_group},,sub-83
Desktop or Laptop,Windows 10,Chrome 138.0.0.0,1600x900,1600x773,Temporal Distance Task,cb_04,56.0,temp_dist_trial,num_items,zn7si1,1.0,response,1_ITEM,1499.799999999959,1483.1999999999825,1499.799999999959,1499.799999999959,1483.1999999999825,1499.799999999959,1.0,0.0,0.0,,Click Response,1_count,3.0,object-46,temp_dist_trial,8.0,s_sh_06_1,student_shared,clipboard,4.0,competing,paired,s_sh_06_1.jpg,Student,$${counterbalance_group},,sub-83
Desktop or Laptop,Windows 10,Chrome 138.0.0.0,1600x900,1600x773,Temporal Distance Task,cb_04,57.0,temp_dist_trial,num_items,zn7si1,1.0,response,2_ITEM,1118.999999952328,1116.5,1118.999999952328,1118.999999952328,1116.5,1118.999999952328,1.0,0.0,0.0,,Click Response,2_count,5.0,object-49,temp_dist_trial,9.0,s_sh_03_1,student_shared,highlighter,4.0,competing,paired,s_sh_03_1.jpg,Student,$${counterbalance_group},,sub-83
Desktop or Laptop,Windows 10,Chrome 138.0.0.0,1600x900,1600x773,Temporal Distance Task,cb_04,57.0,temp_dist_trial,dist_items,qkpkxw,2.0,info,,3.5999999761697836,0.0,3.5999999761697836,3.5999999761697836,0.0,3.5999999761697836,1.0,0.0,0.0,,Slider,Slider,4.0,object-56,temp_dist_trial,9.0,s_sh_03_1,student_shared,highlighter,4.0,competing,paired,s_sh_03_1.jpg,Student,$${counterbalance_group},,sub-83
Desktop or Laptop,Windows 10,Chrome 138.0.0.0,1600x900,1600x773,Temporal Distance Task,cb_04,57.0,temp_dist_trial,dist_items,qkpkxw,2.0,continue,,2128.200000000012,2116.4000000000233,2128.200000000012,2128.200000000012,2116.4000000000233,2128.200000000012,1.0,0.0,0.0,,Click To Continue,Next button,7.0,object-60,temp_dist_trial,9.0,s_sh_03_1,student_shared,highlighter,4.0,competing,paired,s_sh_03_1.jpg,Student,$${counterbalance_group},,sub-83
Desktop or Laptop,Windows 10,Chrome 138.0.0.0,1600x900,1600x773,Temporal Distance Task,cb_04,57.0,temp_dist_trial,dist_items,qkpkxw,2.0,response,84,649.9000000000233,2116.4000000000233,2133.2000000000407,649.9000000000233,2116.4000000000233,2133.2000000000407,1.0,1483.3000000000175,0.0,,Slider,Slider,4.0,object-56,temp_dist_trial,9.0,s_sh_03_1,student_shared,highlighter,4.0,competing,paired,s_sh_03_1.jpg,Student,$${counterbalance_group},,sub-83
Desktop or Laptop,Windows 10,Chrome 138.0.0.0,1600x900,1600x773,Temporal Distance Task,cb_04,58.0,temp_dist_trial,num_items,zn7si1,1.0,response,2_ITEM,1339.7999999999886,1333.0999999999767,1339.7999999999886,1339.7999999999886,1333.0999999999767,1339.7999999999886,1.0,0.0,0.0,,Click Response,2_count,5.0,object-49,temp_dist_trial,10.0,s_sh_02_1,student_shared,eraser,4.0,competing,paired,s_sh_02_1.jpg,Student,$${counterbalance_group},,sub-83
Desktop or Laptop,Windows 10,Chrome 138.0.0.0,1600x900,1600x773,Temporal Distance Task,cb_04,58.0,temp_dist_trial,dist_items,qkpkxw,2.0,info,,3.8999999642255716,0.0,3.8999999642255716,3.8999999642255716,0.0,3.8999999642255716,1.0,0.0,0.0,,Slider,Slider,4.0,object-56,temp_dist_trial,10.0,s_sh_02_1,student_shared,eraser,4.0,competing,paired,s_sh_02_1.jpg,Student,$${counterbalance_group},,sub-83
Desktop or Laptop,Windows 10,Chrome 138.0.0.0,1600x900,1600x773,Temporal Distance Task,cb_04,58.0,temp_dist_trial,dist_items,qkpkxw,2.0,continue,,2084.4999999880674,2083.0999999999767,2084.4999999880674,2084.4999999880674,2083.0999999999767,2084.4999999880674,1.0,0.0,0.0,,Click To Continue,Next button,7.0,object-60,temp_dist_trial,10.0,s_sh_02_1,student_shared,eraser,4.0,competing,paired,s_sh_02_1.jpg,Student,$${counterbalance_group},,sub-83
Desktop or Laptop,Windows 10,Chrome 138.0.0.0,1600x900,1600x773,Temporal Distance Task,cb_04,58.0,temp_dist_trial,dist_items,qkpkxw,2.0,response,15,716.6999999999823,2083.0999999999767,2084.7999999999884,716.6999999999823,2083.0999999999767,2084.7999999999884,1.0,1368.1000000000058,0.0,,Slider,Slider,4.0,object-56,temp_dist_trial,10.0,s_sh_02_1,student_shared,eraser,4.0,competing,paired,s_sh_02_1.jpg,Student,$${counterbalance_group},,sub-83
Desktop or Laptop,Windows 10,Chrome 138.0.0.0,1600x900,1600x773,Temporal Distance Task,cb_04,59.0,temp_dist_trial,num_items,zn7si1,1.0,response,2_ITEM,993.7999999642489,983.3000000000177,993.7999999642489,993.7999999642489,983.3000000000177,993.7999999642489,1.0,0.0,0.0,,Click Response,2_count,5.0,object-49,temp_dist_trial,11.0,s_sh_07_1,student_shared,ruler,4.0,competing,paired,s_sh_07_1.jpg,Student,$${counterbalance_group},,sub-83
Desktop or Laptop,Windows 10,Chrome 138.0.0.0,1600x900,1600x773,Temporal Distance Task,cb_04,59.0,temp_dist_trial,dist_items,qkpkxw,2.0,info,,4.0,0.0,4.0,4.0,0.0,4.0,1.0,0.0,0.0,,Slider,Slider,4.0,object-56,temp_dist_trial,11.0,s_sh_07_1,student_shared,ruler,4.0,competing,paired,s_sh_07_1.jpg,Student,$${counterbalance_group},,sub-83
Desktop or Laptop,Windows 10,Chrome 138.0.0.0,1600x900,1600x773,Temporal Distance Task,cb_04,59.0,temp_dist_trial,dist_items,qkpkxw,2.0,continue,,3376.699999988079,3366.2999999999884,3376.699999988079,3376.699999988079,3366.2999999999884,3376.699999988079,1.0,0.0,0.0,,Click To Continue,Next button,7.0,object-60,temp_dist_trial,11.0,s_sh_07_1,student_shared,ruler,4.0,competing,paired,s_sh_07_1.jpg,Student,$${counterbalance_group},,sub-83
Desktop or Laptop,Windows 10,Chrome 138.0.0.0,1600x900,1600x773,Temporal Distance Task,cb_04,59.0,temp_dist_trial,dist_items,qkpkxw,2.0,response,35,933.2999999999884,3366.2999999999884,3377.199999988079,933.2999999999884,3366.2999999999884,3377.199999988079,1.0,2443.899999988091,0.0,,Slider,Slider,4.0,object-56,temp_dist_trial,11.0,s_sh_07_1,student_shared,ruler,4.0,competing,paired,s_sh_07_1.jpg,Student,$${counterbalance_group},,sub-83
Desktop or Laptop,Windows 10,Chrome 138.0.0.0,1600x900,1600x773,Temporal Distance Task,cb_04,60.0,temp_dist_trial,num_items,zn7si1,1.0,response,1_ITEM,1626.5999999761698,1616.4000000000233,1626.5999999761698,1626.5999999761698,1616.4000000000233,1626.5999999761698,1.0,0.0,0.0,,Click Response,1_count,3.0,object-46,temp_dist_trial,12.0,s_sh_22_1,student_shared,hole puncher,4.0,competing,single,s_sh_22_1.jpg,Student,$${counterbalance_group},,sub-83
Desktop or Laptop,Windows 10,Chrome 138.0.0.0,1600x900,1600x773,Temporal Distance Task,cb_04,61.0,temp_dist_trial,num_items,zn7si1,1.0,response,1_ITEM,2007.7999999999884,1999.7999999999884,2007.7999999999884,2007.7999999999884,1999.7999999999884,2007.7999999999884,1.0,0.0,0.0,,Click Response,1_count,3.0,object-46,temp_dist_trial,13.0,s_s_03_1,student_stem,petri dish,4.0,unique,paired,s_s_03_1.jpg,Student,$${counterbalance_group},,sub-83
Desktop or Laptop,Windows 10,Chrome 138.0.0.0,1600x900,1600x773,Temporal Distance Task,cb_04,62.0,temp_dist_trial,num_items,zn7si1,1.0,response,1_ITEM,917.699999964243,916.5,917.699999964243,917.699999964243,916.5,917.699999964243,1.0,0.0,0.0,,Click Response,1_count,3.0,object-46,temp_dist_trial,14.0,s_s_12_1,student_stem,robotic arm,4.0,unique,paired,s_s_12_1.jpg,Student,$${counterbalance_group},,sub-83
Desktop or Laptop,Windows 10,Chrome 138.0.0.0,1600x900,1600x773,Temporal Distance Task,cb_04,63.0,temp_dist_trial,num_items,zn7si1,1.0,response,1_ITEM,1007.5,999.7999999999884,1007.5,1007.5,999.7999999999884,1007.5,1.0,0.0,0.0,,Click Response,1_count,3.0,object-46,temp_dist_trial,15.0,s_s_09_1,student_stem,multimeter,4.0,unique,single,s_s_09_1.jpg,Student,$${counterbalance_group},,sub-83
Desktop or Laptop,Windows 10,Chrome 138.0.0.0,1600x900,1600x773,Temporal Distance Task,cb_04,64.0,temp_dist_trial,num_items,zn7si1,1.0,response,2_ITEM,1245.7999999642489,1233.2000000000114,1245.7999999642489,1245.7999999642489,1233.2000000000114,1245.7999999642489,1.0,0.0,0.0,,Click Response,2_count,5.0,object-49,temp_dist_trial,16.0,s_a_10_1,student_art,tripod,4.0,unique,paired,s_a_10_1.jpg,Student,$${counterbalance_group},,sub-83
Desktop or Laptop,Windows 10,Chrome 138.0.0.0,1600x900,1600x773,Temporal Distance Task,cb_04,64.0,temp_dist_trial,dist_items,qkpkxw,2.0,info,,4.399999952322107,0.0,4.399999952322107,4.399999952322107,0.0,4.399999952322107,1.0,0.0,0.0,,Slider,Slider,4.0,object-56,temp_dist_trial,16.0,s_a_10_1,student_art,tripod,4.0,unique,paired,s_a_10_1.jpg,Student,$${counterbalance_group},,sub-83
Desktop or Laptop,Windows 10,Chrome 138.0.0.0,1600x900,1600x773,Temporal Distance Task,cb_04,64.0,temp_dist_trial,dist_items,qkpkxw,2.0,continue,,2002.499999976164,1999.8000000000175,2002.499999976164,2002.499999976164,1999.8000000000175,2002.499999976164,1.0,0.0,0.0,,Click To Continue,Next button,7.0,object-60,temp_dist_trial,16.0,s_a_10_1,student_art,tripod,4.0,unique,paired,s_a_10_1.jpg,Student,$${counterbalance_group},,sub-83
Desktop or Laptop,Windows 10,Chrome 138.0.0.0,1600x900,1600x773,Temporal Distance Task,cb_04,64.0,temp_dist_trial,dist_items,qkpkxw,2.0,response,71,916.6000000000058,1999.8000000000175,2002.899999952322,916.6000000000058,1999.8000000000175,2002.899999952322,1.0,1086.2999999523165,0.0,,Slider,Slider,4.0,object-56,temp_dist_trial,16.0,s_a_10_1,student_art,tripod,4.0,unique,paired,s_a_10_1.jpg,Student,$${counterbalance_group},,sub-83
Desktop or Laptop,Windows 10,Chrome 138.0.0.0,1600x900,1600x773,Temporal Distance Task,cb_04,65.0,temp_dist_trial,num_items,zn7si1,1.0,response,2_ITEM,1482.7999999999884,1466.5,1482.7999999999884,1482.7999999999884,1466.5,1482.7999999999884,1.0,0.0,0.0,,Click Response,2_count,5.0,object-49,temp_dist_trial,17.0,s_s_14_1,student_stem,funnel,4.0,unique,paired,s_s_14_1.jpg,Student,$${counterbalance_group},,sub-83
Desktop or Laptop,Windows 10,Chrome 138.0.0.0,1600x900,1600x773,Temporal Distance Task,cb_04,65.0,temp_dist_trial,dist_items,qkpkxw,2.0,info,,3.599999952304642,0.0,3.599999952304642,3.599999952304642,0.0,3.599999952304642,1.0,0.0,0.0,,Slider,Slider,4.0,object-56,temp_dist_trial,17.0,s_s_14_1,student_stem,funnel,4.0,unique,paired,s_s_14_1.jpg,Student,$${counterbalance_group},,sub-83
Desktop or Laptop,Windows 10,Chrome 138.0.0.0,1600x900,1600x773,Temporal Distance Task,cb_04,65.0,temp_dist_trial,dist_items,qkpkxw,2.0,continue,,2046.2999999999884,2033.0999999999767,2046.2999999999884,2046.2999999999884,2033.0999999999767,2046.2999999999884,1.0,0.0,0.0,,Click To Continue,Next button,7.0,object-60,temp_dist_trial,17.0,s_s_14_1,student_stem,funnel,4.0,unique,paired,s_s_14_1.jpg,Student,$${counterbalance_group},,sub-83
Desktop or Laptop,Windows 10,Chrome 138.0.0.0,1600x900,1600x773,Temporal Distance Task,cb_04,65.0,temp_dist_trial,dist_items,qkpkxw,2.0,response,41,1049.8999999999942,2033.0999999999767,2046.7999999999884,1049.8999999999942,2033.0999999999767,2046.7999999999884,1.0,996.8999999999942,0.0,,Slider,Slider,4.0,object-56,temp_dist_trial,17.0,s_s_14_1,student_stem,funnel,4.0,unique,paired,s_s_14_1.jpg,Student,$${counterbalance_group},,sub-83
Desktop or Laptop,Windows 10,Chrome 138.0.0.0,1600x900,1600x773,Temporal Distance Task,cb_04,66.0,temp_dist_trial,num_items,zn7si1,1.0,response,1_ITEM,1693.7999999642484,1683.0,1693.7999999642484,1693.7999999642484,1683.0,1693.7999999642484,1.0,0.0,0.0,,Click Response,1_count,3.0,object-46,temp_dist_trial,18.0,s_s_07_1,student_stem,periodic table,4.0,unique,single,s_s_07_1.jpg,Student,$${counterbalance_group},,sub-83
Desktop or Laptop,Windows 10,Chrome 138.0.0.0,1600x900,1600x773,Temporal Distance Task,cb_04,67.0,temp_dist_trial,num_items,zn7si1,1.0,response,1_ITEM,1224.2000000000114,1216.5,1224.2000000000114,1224.2000000000114,1216.5,1224.2000000000114,1.0,0.0,0.0,,Click Response,1_count,3.0,object-46,temp_dist_trial,19.0,s_a_13_1,student_art,violin,4.0,unique,paired,s_a_13_1.jpg,Student,$${counterbalance_group},,sub-83
Desktop or Laptop,Windows 10,Chrome 138.0.0.0,1600x900,1600x773,Temporal Distance Task,cb_04,68.0,temp_dist_trial,num_items,zn7si1,1.0,response,2_ITEM,1061.8999999642256,1049.8999999999942,1061.8999999642256,1061.8999999642256,1049.8999999999942,1061.8999999642256,1.0,0.0,0.0,,Click Response,2_count,5.0,object-49,temp_dist_trial,20.0,s_sh_24_1,student_shared,desk organizer,4.0,competing,paired,s_sh_24_1.jpg,Student,$${counterbalance_group},,sub-83
Desktop or Laptop,Windows 10,Chrome 138.0.0.0,1600x900,1600x773,Temporal Distance Task,cb_04,68.0,temp_dist_trial,dist_items,qkpkxw,2.0,info,,3.699999988079071,0.0,3.699999988079071,3.699999988079071,0.0,3.699999988079071,1.0,0.0,0.0,,Slider,Slider,4.0,object-56,temp_dist_trial,20.0,s_sh_24_1,student_shared,desk organizer,4.0,competing,paired,s_sh_24_1.jpg,Student,$${counterbalance_group},,sub-83
Desktop or Laptop,Windows 10,Chrome 138.0.0.0,1600x900,1600x773,Temporal Distance Task,cb_04,68.0,temp_dist_trial,dist_items,qkpkxw,2.0,continue,,1890.1999999880786,1883.2000000000119,1890.1999999880786,1890.1999999880786,1883.2000000000119,1890.1999999880786,1.0,0.0,0.0,,Click To Continue,Next button,7.0,object-60,temp_dist_trial,20.0,s_sh_24_1,student_shared,desk organizer,4.0,competing,paired,s_sh_24_1.jpg,Student,$${counterbalance_group},,sub-83
Desktop or Laptop,Windows 10,Chrome 138.0.0.0,1600x900,1600x773,Temporal Distance Task,cb_04,68.0,temp_dist_trial,dist_items,qkpkxw,2.0,response,74,800.0,1883.2000000000119,1890.5,800.0,1883.2000000000119,1890.5,1.0,1090.5,0.0,,Slider,Slider,4.0,object-56,temp_dist_trial,20.0,s_sh_24_1,student_shared,desk organizer,4.0,competing,paired,s_sh_24_1.jpg,Student,$${counterbalance_group},,sub-83
Desktop or Laptop,Windows 10,Chrome 138.0.0.0,1600x900,1600x773,Temporal Distance Task,cb_04,69.0,temp_dist_trial,num_items,zn7si1,1.0,response,1_ITEM,2022.8999999642256,2016.3999999999944,2022.8999999642256,2022.8999999642256,2016.3999999999944,2022.8999999642256,1.0,0.0,0.0,,Click Response,1_count,3.0,object-46,temp_dist_trial,21.0,s_sh_08_1,student_shared,post-its,4.0,competing,single,s_sh_08_1.jpg,Student,$${counterbalance_group},,sub-83
Desktop or Laptop,Windows 10,Chrome 138.0.0.0,1600x900,1600x773,Temporal Distance Task,cb_04,70.0,temp_dist_trial,num_items,zn7si1,1.0,response,2_ITEM,1196.699999988079,1183.2999999999886,1196.699999988079,1196.699999988079,1183.2999999999886,1196.699999988079,1.0,0.0,0.0,,Click Response,2_count,5.0,object-49,temp_dist_trial,22.0,s_a_11_1,student_art,clapperboard,4.0,unique,paired,s_a_11_1.jpg,Student,$${counterbalance_group},,sub-83
Desktop or Laptop,Windows 10,Chrome 138.0.0.0,1600x900,1600x773,Temporal Distance Task,cb_04,70.0,temp_dist_trial,dist_items,qkpkxw,2.0,info,,3.7000000000116415,0.0,3.7000000000116415,3.7000000000116415,0.0,3.7000000000116415,1.0,0.0,0.0,,Slider,Slider,4.0,object-56,temp_dist_trial,22.0,s_a_11_1,student_art,clapperboard,4.0,unique,paired,s_a_11_1.jpg,Student,$${counterbalance_group},,sub-83
Desktop or Laptop,Windows 10,Chrome 138.0.0.0,1600x900,1600x773,Temporal Distance Task,cb_04,70.0,temp_dist_trial,dist_items,qkpkxw,2.0,continue,,1786.499999952328,1782.9000000000233,1786.499999952328,1786.499999952328,1782.9000000000233,1786.499999952328,1.0,0.0,0.0,,Click To Continue,Next button,7.0,object-60,temp_dist_trial,22.0,s_a_11_1,student_art,clapperboard,4.0,unique,paired,s_a_11_1.jpg,Student,$${counterbalance_group},,sub-83
Desktop or Laptop,Windows 10,Chrome 138.0.0.0,1600x900,1600x773,Temporal Distance Task,cb_04,70.0,temp_dist_trial,dist_items,qkpkxw,2.0,response,31,733.2000000000116,1782.9000000000233,1789.7999999642484,733.2000000000116,1782.9000000000233,1789.7999999642484,1.0,1056.5999999642372,0.0,,Slider,Slider,4.0,object-56,temp_dist_trial,22.0,s_a_11_1,student_art,clapperboard,4.0,unique,paired,s_a_11_1.jpg,Student,$${counterbalance_group},,sub-83
Desktop or Laptop,Windows 10,Chrome 138.0.0.0,1600x900,1600x773,Temporal Distance Task,cb_04,71.0,temp_dist_trial,num_items,zn7si1,1.0,response,2_ITEM,1428.2999999999884,1416.5999999999767,1428.2999999999884,1428.2999999999884,1416.5999999999767,1428.2999999999884,1.0,0.0,0.0,,Click Response,2_count,5.0,object-49,temp_dist_trial,23.0,s_a_20_1,student_art,pin cushion,4.0,unique,paired,s_a_20_1.jpg,Student,$${counterbalance_group},,sub-83
Desktop or Laptop,Windows 10,Chrome 138.0.0.0,1600x900,1600x773,Temporal Distance Task,cb_04,71.0,temp_dist_trial,dist_items,qkpkxw,2.0,info,,3.9999999880674295,0.0,3.9999999880674295,3.9999999880674295,0.0,3.9999999880674295,1.0,0.0,0.0,,Slider,Slider,4.0,object-56,temp_dist_trial,23.0,s_a_20_1,student_art,pin cushion,4.0,unique,paired,s_a_20_1.jpg,Student,$${counterbalance_group},,sub-83
Desktop or Laptop,Windows 10,Chrome 138.0.0.0,1600x900,1600x773,Temporal Distance Task,cb_04,71.0,temp_dist_trial,dist_items,qkpkxw,2.0,continue,,1561.8999999642256,1550.0,1561.8999999642256,1561.8999999642256,1550.0,1561.8999999642256,1.0,0.0,0.0,,Click To Continue,Next button,7.0,object-60,temp_dist_trial,23.0,s_a_20_1,student_art,pin cushion,4.0,unique,paired,s_a_20_1.jpg,Student,$${counterbalance_group},,sub-83
Desktop or Laptop,Windows 10,Chrome 138.0.0.0,1600x900,1600x773,Temporal Distance Task,cb_04,71.0,temp_dist_trial,dist_items,qkpkxw,2.0,response,65,600.0,1550.0,1562.0999999523044,600.0,1550.0,1562.0999999523044,1.0,962.0999999523046,0.0,,Slider,Slider,4.0,object-56,temp_dist_trial,23.0,s_a_20_1,student_art,pin cushion,4.0,unique,paired,s_a_20_1.jpg,Student,$${counterbalance_group},,sub-83
Desktop or Laptop,Windows 10,Chrome 138.0.0.0,1600x900,1600x773,Temporal Distance Task,cb_04,72.0,temp_dist_trial,num_items,zn7si1,1.0,response,1_ITEM,1539.6999999761465,1533.0999999999767,1539.6999999761465,1539.6999999761465,1533.0999999999767,1539.6999999761465,1.0,0.0,0.0,,Click Response,1_count,3.0,object-46,temp_dist_trial,24.0,s_sh_04_1,student_shared,laptop stand,4.0,competing,single,s_sh_04_1.jpg,Student,$${counterbalance_group},,sub-83
Desktop or Laptop,Windows 10,Chrome 138.0.0.0,1600x900,1600x773,Temporal Distance Task,cb_04,73.0,temp_dist_trial,num_items,zn7si1,1.0,response,2_ITEM,948.6999999761464,933.2999999999884,948.6999999761464,948.6999999761464,933.2999999999884,948.6999999761464,1.0,0.0,0.0,,Click Response,2_count,5.0,object-49,temp_dist_trial,25.0,s_a_03_1,student_art,palette,4.0,unique,paired,s_a_03_1.jpg,Student,$${counterbalance_group},,sub-83
Desktop or Laptop,Windows 10,Chrome 138.0.0.0,1600x900,1600x773,Temporal Distance Task,cb_04,73.0,temp_dist_trial,dist_items,qkpkxw,2.0,info,,3.6999999642430335,0.0,3.6999999642430335,3.6999999642430335,0.0,3.6999999642430335,1.0,0.0,0.0,,Slider,Slider,4.0,object-56,temp_dist_trial,25.0,s_a_03_1,student_art,palette,4.0,unique,paired,s_a_03_1.jpg,Student,$${counterbalance_group},,sub-83
Desktop or Laptop,Windows 10,Chrome 138.0.0.0,1600x900,1600x773,Temporal Distance Task,cb_04,73.0,temp_dist_trial,dist_items,qkpkxw,2.0,continue,,1853.6999999642428,1849.7000000000119,1853.6999999642428,1853.6999999642428,1849.7000000000119,1853.6999999642428,1.0,0.0,0.0,,Click To Continue,Next button,7.0,object-60,temp_dist_trial,25.0,s_a_03_1,student_art,palette,4.0,unique,paired,s_a_03_1.jpg,Student,$${counterbalance_group},,sub-83
Desktop or Laptop,Windows 10,Chrome 138.0.0.0,1600x900,1600x773,Temporal Distance Task,cb_04,73.0,temp_dist_trial,dist_items,qkpkxw,2.0,response,38,933.2000000000116,1849.7000000000119,1854.2999999880847,933.2000000000116,1849.7000000000119,1854.2999999880847,1.0,921.0999999880733,0.0,,Slider,Slider,4.0,object-56,temp_dist_trial,25.0,s_a_03_1,student_art,palette,4.0,unique,paired,s_a_03_1.jpg,Student,$${counterbalance_group},,sub-83
Desktop or Laptop,Windows 10,Chrome 138.0.0.0,1600x900,1600x773,Temporal Distance Task,cb_04,74.0,temp_dist_trial,num_items,zn7si1,1.0,response,1_ITEM,1179.8999999999942,1166.6000000000058,1179.8999999999942,1179.8999999999942,1166.6000000000058,1179.8999999999942,1.0,0.0,0.0,,Click Response,1_count,3.0,object-46,temp_dist_trial,26.0,s_s_02_1,student_stem,flask,4.0,unique,single,s_s_02_1.jpg,Student,$${counterbalance_group},,sub-83
Desktop or Laptop,Windows 10,Chrome 138.0.0.0,1600x900,1600x773,Temporal Distance Task,cb_04,75.0,temp_dist_trial,num_items,zn7si1,1.0,response,1_ITEM,915.1999999761464,899.8999999999942,915.1999999761464,915.1999999761464,899.8999999999942,915.1999999761464,1.0,0.0,0.0,,Click Response,1_count,3.0,object-46,temp_dist_trial,27.0,s_a_17_1,student_art,microphone,4.0,unique,single,s_a_17_1.jpg,Student,$${counterbalance_group},,sub-83
Desktop or Laptop,Windows 10,Chrome 138.0.0.0,1600x900,1600x773,Temporal Distance Task,cb_04,76.0,temp_dist_trial,num_items,zn7si1,1.0,response,2_ITEM,1710.0,1699.8999999999942,1710.0,1710.0,1699.8999999999942,1710.0,1.0,0.0,0.0,,Click Response,2_count,5.0,object-49,temp_dist_trial,28.0,s_sh_21_1,student_shared,file holder,4.0,competing,paired,s_sh_21_1.jpg,Student,$${counterbalance_group},,sub-83
Desktop or Laptop,Windows 10,Chrome 138.0.0.0,1600x900,1600x773,Temporal Distance Task,cb_04,76.0,temp_dist_trial,dist_items,qkpkxw,2.0,info,,3.7000000000116415,0.0,3.7000000000116415,3.7000000000116415,0.0,3.7000000000116415,1.0,0.0,0.0,,Slider,Slider,4.0,object-56,temp_dist_trial,28.0,s_sh_21_1,student_shared,file holder,4.0,competing,paired,s_sh_21_1.jpg,Student,$${counterbalance_group},,sub-83
Desktop or Laptop,Windows 10,Chrome 138.0.0.0,1600x900,1600x773,Temporal Distance Task,cb_04,76.0,temp_dist_trial,dist_items,qkpkxw,2.0,continue,,1895.7000000000119,1883.1000000000056,1895.7000000000119,1895.7000000000119,1883.1000000000056,1895.7000000000119,1.0,0.0,0.0,,Click To Continue,Next button,7.0,object-60,temp_dist_trial,28.0,s_sh_21_1,student_shared,file holder,4.0,competing,paired,s_sh_21_1.jpg,Student,$${counterbalance_group},,sub-83
Desktop or Laptop,Windows 10,Chrome 138.0.0.0,1600x900,1600x773,Temporal Distance Task,cb_04,76.0,temp_dist_trial,dist_items,qkpkxw,2.0,response,60,783.1000000000058,1883.1000000000056,1895.8999999880907,783.1000000000058,1883.1000000000056,1895.8999999880907,1.0,1112.7999999880851,0.0,,Slider,Slider,4.0,object-56,temp_dist_trial,28.0,s_sh_21_1,student_shared,file holder,4.0,competing,paired,s_sh_21_1.jpg,Student,$${counterbalance_group},,sub-83
Desktop or Laptop,Windows 10,Chrome 138.0.0.0,1600x900,1600x773,Temporal Distance Task,cb_04,77.0,temp_dist_trial,num_items,zn7si1,1.0,response,2_ITEM,1172.3999999523219,1166.500000000029,1172.3999999523219,1172.3999999523219,1166.500000000029,1172.3999999523219,1.0,0.0,0.0,,Click Response,2_count,5.0,object-49,temp_dist_trial,29.0,s_sh_05_1,student_shared,laptop,4.0,competing,paired,s_sh_05_1.jpg,Student,$${counterbalance_group},,sub-83
Desktop or Laptop,Windows 10,Chrome 138.0.0.0,1600x900,1600x773,Temporal Distance Task,cb_04,77.0,temp_dist_trial,dist_items,qkpkxw,2.0,info,,4.099999976169784,0.0,4.099999976169784,4.099999976169784,0.0,4.099999976169784,1.0,0.0,0.0,,Slider,Slider,4.0,object-56,temp_dist_trial,29.0,s_sh_05_1,student_shared,laptop,4.0,competing,paired,s_sh_05_1.jpg,Student,$${counterbalance_group},,sub-83
Desktop or Laptop,Windows 10,Chrome 138.0.0.0,1600x900,1600x773,Temporal Distance Task,cb_04,77.0,temp_dist_trial,dist_items,qkpkxw,2.0,continue,,3020.2999999642493,3016.200000000012,3020.2999999642493,3020.2999999642493,3016.200000000012,3020.2999999642493,1.0,0.0,0.0,,Click To Continue,Next button,7.0,object-60,temp_dist_trial,29.0,s_sh_05_1,student_shared,laptop,4.0,competing,paired,s_sh_05_1.jpg,Student,$${counterbalance_group},,sub-83
Desktop or Laptop,Windows 10,Chrome 138.0.0.0,1600x900,1600x773,Temporal Distance Task,cb_04,77.0,temp_dist_trial,dist_items,qkpkxw,2.0,response,73,1966.5,3016.200000000012,3020.5999999761707,1966.5,3016.200000000012,3020.5999999761707,1.0,1054.0999999761698,0.0,,Slider,Slider,4.0,object-56,temp_dist_trial,29.0,s_sh_05_1,student_shared,laptop,4.0,competing,paired,s_sh_05_1.jpg,Student,$${counterbalance_group},,sub-83
Desktop or Laptop,Windows 10,Chrome 138.0.0.0,1600x900,1600x773,Temporal Distance Task,cb_04,78.0,temp_dist_trial,num_items,zn7si1,1.0,response,1_ITEM,1651.5999999642374,1649.9000000000233,1651.5999999642374,1651.5999999642374,1649.9000000000233,1651.5999999642374,1.0,0.0,0.0,,Click Response,1_count,3.0,object-46,temp_dist_trial,30.0,s_sh_01_1,student_shared,notebook,4.0,competing,single,s_sh_01_1.jpg,Student,$${counterbalance_group},,sub-83
Desktop or Laptop,Windows 10,Chrome 138.0.0.0,1600x900,1600x773,Temporal Distance Task,cb_04,79.0,temp_dist_trial,num_items,zn7si1,1.0,response,1_ITEM,1008.0999999999768,999.8999999999652,1008.0999999999768,1008.0999999999768,999.8999999999652,1008.0999999999768,1.0,0.0,0.0,,Click Response,1_count,3.0,object-46,temp_dist_trial,31.0,s_s_17_1,student_stem,ring stand,4.0,unique,paired,s_s_17_1.jpg,Student,$${counterbalance_group},,sub-83
Desktop or Laptop,Windows 10,Chrome 138.0.0.0,1600x900,1600x773,Temporal Distance Task,cb_04,80.0,temp_dist_trial,num_items,zn7si1,1.0,response,2_ITEM,1102.499999952328,1099.7000000000116,1102.499999952328,1102.499999952328,1099.7000000000116,1102.499999952328,1.0,0.0,0.0,,Click Response,2_count,5.0,object-49,temp_dist_trial,32.0,s_s_04_1,student_stem,bunsen burner,4.0,unique,paired,s_s_04_1.jpg,Student,$${counterbalance_group},,sub-83
Desktop or Laptop,Windows 10,Chrome 138.0.0.0,1600x900,1600x773,Temporal Distance Task,cb_04,80.0,temp_dist_trial,dist_items,qkpkxw,2.0,info,,4.199999952339567,0.0,4.199999952339567,4.199999952339567,0.0,4.199999952339567,1.0,0.0,0.0,,Slider,Slider,4.0,object-56,temp_dist_trial,32.0,s_s_04_1,student_stem,bunsen burner,4.0,unique,paired,s_s_04_1.jpg,Student,$${counterbalance_group},,sub-83
Desktop or Laptop,Windows 10,Chrome 138.0.0.0,1600x900,1600x773,Temporal Distance Task,cb_04,80.0,temp_dist_trial,dist_items,qkpkxw,2.0,continue,,2384.0999999881024,2382.9000000000233,2384.0999999881024,2384.0999999881024,2382.9000000000233,2384.0999999881024,1.0,0.0,0.0,,Click To Continue,Next button,7.0,object-60,temp_dist_trial,32.0,s_s_04_1,student_stem,bunsen burner,4.0,unique,paired,s_s_04_1.jpg,Student,$${counterbalance_group},,sub-83
Desktop or Laptop,Windows 10,Chrome 138.0.0.0,1600x900,1600x773,Temporal Distance Task,cb_04,80.0,temp_dist_trial,dist_items,qkpkxw,2.0,response,13,983.2000000000116,2382.9000000000233,2384.4999999642605,983.2000000000116,2382.9000000000233,2384.4999999642605,1.0,1401.2999999642484,0.0,,Slider,Slider,4.0,object-56,temp_dist_trial,32.0,s_s_04_1,student_stem,bunsen burner,4.0,unique,paired,s_s_04_1.jpg,Student,$${counterbalance_group},,sub-83
Desktop or Laptop,Windows 10,Chrome 138.0.0.0,1600x900,1600x773,Temporal Distance Task,cb_04,81.0,temp_dist_trial,num_items,zn7si1,1.0,response,2_ITEM,1313.2999999523165,1299.9000000000233,1313.2999999523165,1313.2999999523165,1299.9000000000233,1313.2999999523165,1.0,0.0,0.0,,Click Response,2_count,5.0,object-49,temp_dist_trial,33.0,s_sh_13_1,student_shared,index cards,4.0,competing,paired,s_sh_13_1.jpg,Student,$${counterbalance_group},,sub-83
Desktop or Laptop,Windows 10,Chrome 138.0.0.0,1600x900,1600x773,Temporal Distance Task,cb_04,81.0,temp_dist_trial,dist_items,qkpkxw,2.0,info,,3.6999999642139305,0.0,3.6999999642139305,3.6999999642139305,0.0,3.6999999642139305,1.0,0.0,0.0,,Slider,Slider,4.0,object-56,temp_dist_trial,33.0,s_sh_13_1,student_shared,index cards,4.0,competing,paired,s_sh_13_1.jpg,Student,$${counterbalance_group},,sub-83
Desktop or Laptop,Windows 10,Chrome 138.0.0.0,1600x900,1600x773,Temporal Distance Task,cb_04,81.0,temp_dist_trial,dist_items,qkpkxw,2.0,continue,,1899.699999964214,1883.0999999999767,1899.699999964214,1899.699999964214,1883.0999999999767,1899.699999964214,1.0,0.0,0.0,,Click To Continue,Next button,7.0,object-60,temp_dist_trial,33.0,s_sh_13_1,student_shared,index cards,4.0,competing,paired,s_sh_13_1.jpg,Student,$${counterbalance_group},,sub-83
Desktop or Laptop,Windows 10,Chrome 138.0.0.0,1600x900,1600x773,Temporal Distance Task,cb_04,81.0,temp_dist_trial,dist_items,qkpkxw,2.0,response,39,733.2999999999884,1883.0999999999767,1899.6999999999528,733.2999999999884,1883.0999999999767,1899.6999999999528,1.0,1166.399999999965,0.0,,Slider,Slider,4.0,object-56,temp_dist_trial,33.0,s_sh_13_1,student_shared,index cards,4.0,competing,paired,s_sh_13_1.jpg,Student,$${counterbalance_group},,sub-83
Desktop or Laptop,Windows 10,Chrome 138.0.0.0,1600x900,1600x773,Temporal Distance Task,cb_04,82.0,temp_dist_trial,num_items,zn7si1,1.0,response,2_ITEM,1080.5,1066.5,1080.5,1080.5,1066.5,1080.5,1.0,0.0,0.0,,Click Response,2_count,5.0,object-49,temp_dist_trial,34.0,s_a_04_1,student_art,easel,4.0,unique,paired,s_a_04_1.jpg,Student,$${counterbalance_group},,sub-83
Desktop or Laptop,Windows 10,Chrome 138.0.0.0,1600x900,1600x773,Temporal Distance Task,cb_04,82.0,temp_dist_trial,dist_items,qkpkxw,2.0,info,,3.6999999523395672,0.0,3.6999999523395672,3.6999999523395672,0.0,3.6999999523395672,1.0,0.0,0.0,,Slider,Slider,4.0,object-56,temp_dist_trial,34.0,s_a_04_1,student_art,easel,4.0,unique,paired,s_a_04_1.jpg,Student,$${counterbalance_group},,sub-83
Desktop or Laptop,Windows 10,Chrome 138.0.0.0,1600x900,1600x773,Temporal Distance Task,cb_04,82.0,temp_dist_trial,dist_items,qkpkxw,2.0,continue,,2123.7999999761814,2116.3000000000466,2123.7999999761814,2123.7999999761814,2116.3000000000466,2123.7999999761814,1.0,0.0,0.0,,Click To Continue,Next button,7.0,object-60,temp_dist_trial,34.0,s_a_04_1,student_art,easel,4.0,unique,paired,s_a_04_1.jpg,Student,$${counterbalance_group},,sub-83
Desktop or Laptop,Windows 10,Chrome 138.0.0.0,1600x900,1600x773,Temporal Distance Task,cb_04,82.0,temp_dist_trial,dist_items,qkpkxw,2.0,response,18,816.5,2116.3000000000466,2128.2999999761814,816.5,2116.3000000000466,2128.2999999761814,1.0,1311.7999999761814,0.0,,Slider,Slider,4.0,object-56,temp_dist_trial,34.0,s_a_04_1,student_art,easel,4.0,unique,paired,s_a_04_1.jpg,Student,$${counterbalance_group},,sub-83
Desktop or Laptop,Windows 10,Chrome 138.0.0.0,1600x900,1600x773,Temporal Distance Task,cb_04,83.0,temp_dist_trial,num_items,zn7si1,1.0,response,1_ITEM,1279.399999952293,1266.5,1279.399999952293,1279.399999952293,1266.5,1279.399999952293,1.0,0.0,0.0,,Click Response,1_count,3.0,object-46,temp_dist_trial,35.0,s_s_18_1,student_stem,brain model,4.0,unique,paired,s_s_18_1.jpg,Student,$${counterbalance_group},,sub-83
Desktop or Laptop,Windows 10,Chrome 138.0.0.0,1600x900,1600x773,Temporal Distance Task,cb_04,84.0,temp_dist_trial,num_items,zn7si1,1.0,response,1_ITEM,1418.7999999642484,1416.6000000000354,1418.7999999642484,1418.7999999642484,1416.6000000000354,1418.7999999642484,1.0,0.0,0.0,,Click Response,1_count,3.0,object-46,temp_dist_trial,36.0,s_sh_09_1,student_shared,paper clips,4.0,competing,single,s_sh_09_1.jpg,Student,$${counterbalance_group},,sub-83
Desktop or Laptop,Windows 10,Chrome 138.0.0.0,1600x900,1600x773,Temporal Distance Task,cb_04,85.0,temp_dist_trial,num_items,zn7si1,1.0,response,1_ITEM,1336.399999952293,1333.0999999999767,1336.399999952293,1336.399999952293,1333.0999999999767,1336.399999952293,1.0,0.0,0.0,,Click Response,1_count,3.0,object-46,temp_dist_trial,37.0,s_s_05_1,student_stem,lab goggles,4.0,unique,paired,s_s_05_1.jpg,Student,$${counterbalance_group},,sub-83
Desktop or Laptop,Windows 10,Chrome 138.0.0.0,1600x900,1600x773,Temporal Distance Task,cb_04,86.0,temp_dist_trial,num_items,zn7si1,1.0,response,2_ITEM,1017.5999999999768,1016.5999999999768,1017.5999999999768,1017.5999999999768,1016.5999999999768,1017.5999999999768,1.0,0.0,0.0,,Click Response,2_count,5.0,object-49,temp_dist_trial,38.0,s_a_09_1,student_art,picture frame,4.0,unique,paired,s_a_09_1.jpg,Student,$${counterbalance_group},,sub-83
Desktop or Laptop,Windows 10,Chrome 138.0.0.0,1600x900,1600x773,Temporal Distance Task,cb_04,86.0,temp_dist_trial,dist_items,qkpkxw,2.0,info,,3.699999988079071,0.0,3.699999988079071,3.699999988079071,0.0,3.699999988079071,1.0,0.0,0.0,,Slider,Slider,4.0,object-56,temp_dist_trial,38.0,s_a_09_1,student_art,picture frame,4.0,unique,paired,s_a_09_1.jpg,Student,$${counterbalance_group},,sub-83
Desktop or Laptop,Windows 10,Chrome 138.0.0.0,1600x900,1600x773,Temporal Distance Task,cb_04,86.0,temp_dist_trial,dist_items,qkpkxw,2.0,continue,,1686.8999999761581,1683.0999999999767,1686.8999999761581,1686.8999999761581,1683.0999999999767,1686.8999999761581,1.0,0.0,0.0,,Click To Continue,Next button,7.0,object-60,temp_dist_trial,38.0,s_a_09_1,student_art,picture frame,4.0,unique,paired,s_a_09_1.jpg,Student,$${counterbalance_group},,sub-83
Desktop or Laptop,Windows 10,Chrome 138.0.0.0,1600x900,1600x773,Temporal Distance Task,cb_04,86.0,temp_dist_trial,dist_items,qkpkxw,2.0,response,74,633.2999999999884,1683.0999999999767,1687.3999999761581,633.2999999999884,1683.0999999999767,1687.3999999761581,1.0,1054.0999999761698,0.0,,Slider,Slider,4.0,object-56,temp_dist_trial,38.0,s_a_09_1,student_art,picture frame,4.0,unique,paired,s_a_09_1.jpg,Student,$${counterbalance_group},,sub-83
Desktop or Laptop,Windows 10,Chrome 138.0.0.0,1600x900,1600x773,Temporal Distance Task,cb_04,87.0,temp_dist_trial,num_items,zn7si1,1.0,response,2_ITEM,1243.6999999523396,1233.2000000000114,1243.6999999523396,1243.6999999523396,1233.2000000000114,1243.6999999523396,1.0,0.0,0.0,,Click Response,2_count,5.0,object-49,temp_dist_trial,39.0,s_sh_23_1,student_shared,ballpoint pen,4.0,competing,paired,s_sh_23_1.jpg,Student,$${counterbalance_group},,sub-83
Desktop or Laptop,Windows 10,Chrome 138.0.0.0,1600x900,1600x773,Temporal Distance Task,cb_04,87.0,temp_dist_trial,dist_items,qkpkxw,2.0,info,,4.099999976169784,0.0,4.099999976169784,4.099999976169784,0.0,4.099999976169784,1.0,0.0,0.0,,Slider,Slider,4.0,object-56,temp_dist_trial,39.0,s_sh_23_1,student_shared,ballpoint pen,4.0,competing,paired,s_sh_23_1.jpg,Student,$${counterbalance_group},,sub-83
Desktop or Laptop,Windows 10,Chrome 138.0.0.0,1600x900,1600x773,Temporal Distance Task,cb_04,87.0,temp_dist_trial,dist_items,qkpkxw,2.0,continue,,3048.499999952328,3032.9000000000237,3048.499999952328,3048.499999952328,3032.9000000000237,3048.499999952328,1.0,0.0,0.0,,Click To Continue,Next button,7.0,object-60,temp_dist_trial,39.0,s_sh_23_1,student_shared,ballpoint pen,4.0,competing,paired,s_sh_23_1.jpg,Student,$${counterbalance_group},,sub-83
Desktop or Laptop,Windows 10,Chrome 138.0.0.0,1600x900,1600x773,Temporal Distance Task,cb_04,87.0,temp_dist_trial,dist_items,qkpkxw,2.0,response,87,966.4000000000232,3032.9000000000237,3049.500000000058,966.4000000000232,3032.9000000000237,3049.500000000058,1.0,2083.100000000035,0.0,,Slider,Slider,4.0,object-56,temp_dist_trial,39.0,s_sh_23_1,student_shared,ballpoint pen,4.0,competing,paired,s_sh_23_1.jpg,Student,$${counterbalance_group},,sub-83
Desktop or Laptop,Windows 10,Chrome 138.0.0.0,1600x900,1600x773,Temporal Distance Task,cb_04,88.0,temp_dist_trial,num_items,zn7si1,1.0,response,1_ITEM,2495.599999952305,2483.099999999977,2495.599999952305,2495.599999952305,2483.099999999977,2495.599999952305,1.0,0.0,0.0,,Click Response,1_count,3.0,object-46,temp_dist_trial,40.0,s_sh_17_1,student_shared,wireless mouse,4.0,competing,single,s_sh_17_1.jpg,Student,$${counterbalance_group},,sub-83
Desktop or Laptop,Windows 10,Chrome 138.0.0.0,1600x900,1600x773,Temporal Distance Task,cb_04,89.0,temp_dist_trial,num_items,zn7si1,1.0,response,2_ITEM,2186.5999999523046,2183.0999999999767,2186.5999999523046,2186.5999999523046,2183.0999999999767,2186.5999999523046,1.0,0.0,0.0,,Click Response,2_count,5.0,object-49,temp_dist_trial,41.0,s_sh_11_1,student_shared,pencil case,4.0,competing,paired,s_sh_11_1.jpg,Student,$${counterbalance_group},,sub-83
Desktop or Laptop,Windows 10,Chrome 138.0.0.0,1600x900,1600x773,Temporal Distance Task,cb_04,89.0,temp_dist_trial,dist_items,qkpkxw,2.0,info,,3.6999999761465014,0.0,3.6999999761465014,3.6999999761465014,0.0,3.6999999761465014,1.0,0.0,0.0,,Slider,Slider,4.0,object-56,temp_dist_trial,41.0,s_sh_11_1,student_shared,pencil case,4.0,competing,paired,s_sh_11_1.jpg,Student,$${counterbalance_group},,sub-83
Desktop or Laptop,Windows 10,Chrome 138.0.0.0,1600x900,1600x773,Temporal Distance Task,cb_04,89.0,temp_dist_trial,dist_items,qkpkxw,2.0,continue,,5289.499999988067,5282.700000000013,5289.499999988067,5289.499999988067,5282.700000000013,5289.499999988067,1.0,0.0,0.0,,Click To Continue,Next button,7.0,object-60,temp_dist_trial,41.0,s_sh_11_1,student_shared,pencil case,4.0,competing,paired,s_sh_11_1.jpg,Student,$${counterbalance_group},,sub-83
Desktop or Laptop,Windows 10,Chrome 138.0.0.0,1600x900,1600x773,Temporal Distance Task,cb_04,89.0,temp_dist_trial,dist_items,qkpkxw,2.0,response,70,1099.899999999965,5282.700000000013,5291.599999952306,1099.899999999965,5282.700000000013,5291.599999952306,1.0,4191.6999999523405,0.0,,Slider,Slider,4.0,object-56,temp_dist_trial,41.0,s_sh_11_1,student_shared,pencil case,4.0,competing,paired,s_sh_11_1.jpg,Student,$${counterbalance_group},,sub-83
Desktop or Laptop,Windows 10,Chrome 138.0.0.0,1600x900,1600x773,Temporal Distance Task,cb_04,90.0,temp_dist_trial,num_items,zn7si1,1.0,response,2_ITEM,1358.7999999880558,1349.7999999999886,1358.7999999880558,1358.7999999880558,1349.7999999999886,1358.7999999880558,1.0,0.0,0.0,,Click Response,2_count,5.0,object-49,temp_dist_trial,42.0,s_sh_14_1,student_shared,printer,4.0,competing,paired,s_sh_14_1.jpg,Student,$${counterbalance_group},,sub-83
Desktop or Laptop,Windows 10,Chrome 138.0.0.0,1600x900,1600x773,Temporal Distance Task,cb_04,90.0,temp_dist_trial,dist_items,qkpkxw,2.0,info,,3.599999952304642,0.0,3.599999952304642,3.599999952304642,0.0,3.599999952304642,1.0,0.0,0.0,,Slider,Slider,4.0,object-56,temp_dist_trial,42.0,s_sh_14_1,student_shared,printer,4.0,competing,paired,s_sh_14_1.jpg,Student,$${counterbalance_group},,sub-83
