Participant Device,Participant OS,Participant Browser,Participant Monitor Size,Participant Viewport Size,Task Name,Current Spreadsheet,Trial Number,Display,Screen,Screen ID,Screen Counter,Response Type,Response,Onset Time,Clock Time,Reaction Time,Absolute Onset Time,Absolute Clock Time,Absolute Reaction Time,Correct,Response Duration,Proportion,Tag,Component Name,Object Name,Object Number,Object ID,Spreadsheet: display,Spreadsheet: trial,Spreadsheet: stimulus_id,Spreadsheet: expected_goal,Spreadsheet: stimulus_name,Spreadsheet: c_group,Spreadsheet: condition,Spreadsheet: paired_status,Spreadsheet: stimulus_path,Spreadsheet: block_type,Manipulation: Spreadsheet,Store: enc_test_acc,sub_label
Desktop or Laptop,Chromium OS 14541.0.0,Chrome 137.0.0.0,1536x864,1536x695,Temporal Distance Task,,,,,,,info,BEGIN,,,,,,,,,,,,,,,,,,,,,,,,,$${counterbalance_group},,sub-76
Desktop or Laptop,Chromium OS 14541.0.0,Chrome 137.0.0.0,1536x864,1536x695,Temporal Distance Task,cb_06,1.0,temp_instructions,intro_screen,3tnme7,1.0,continue,,7983.300000002981,7980.5,7983.300000002981,7983.300000002981,7980.5,7983.300000002981,1.0,0.0,0.0,,Click To Continue,Continue Button,4.0,object-29,temp_instructions,,,Travel,,,,,,,$${counterbalance_group},,sub-76
Desktop or Laptop,Chromium OS 14541.0.0,Chrome 137.0.0.0,1536x864,1536x695,Temporal Distance Task,cb_06,1.0,temp_instructions,intro_screen_2,52v7ur,2.0,continue,,8819.000000005959,8813.500000000002,8819.000000005959,8819.000000005959,8813.500000000002,8819.000000005959,1.0,0.0,0.0,,Click To Continue,Continue Button,4.0,object-39,temp_instructions,,,Travel,,,,,,,$${counterbalance_group},,sub-76
Desktop or Laptop,Chromium OS 14541.0.0,Chrome 137.0.0.0,1536x864,1536x695,Temporal Distance Task,cb_06,1.0,temp_instructions,intro_screen_3,i7lvwx,3.0,continue,,4409.900000004469,4398.799999999998,4409.900000004469,4409.900000004469,4398.799999999998,4409.900000004469,1.0,0.0,0.0,,Click To Continue,Continue Button,4.0,object-67,temp_instructions,,,Travel,,,,,,,$${counterbalance_group},,sub-76
Desktop or Laptop,Chromium OS 14541.0.0,Chrome 137.0.0.0,1536x864,1536x695,Temporal Distance Task,cb_06,1.0,temp_instructions,test_q1,5ieqx1,4.0,response,choice_3,5543.0000000029795,5531.200000000003,5543.0000000029795,5543.0000000029795,5531.200000000003,5543.0000000029795,1.0,0.0,0.0,,Click Response,choice_3,5.0,object-345,temp_instructions,,,Travel,,,,,,,$${counterbalance_group},,sub-76
Desktop or Laptop,Chromium OS 14541.0.0,Chrome 137.0.0.0,1536x864,1536x695,Temporal Distance Task,cb_06,1.0,temp_instructions,score_corr,7ilvjr,5.0,continue,,906.0999999999983,899.5999999999983,906.0999999999983,906.0999999999983,899.5999999999983,906.0999999999983,1.0,0.0,0.0,,Click To Continue,Continue Button,3.0,object-23,temp_instructions,,,Travel,,,,,,,$${counterbalance_group},,sub-76
Desktop or Laptop,Chromium OS 14541.0.0,Chrome 137.0.0.0,1536x864,1536x695,Temporal Distance Task,cb_06,1.0,temp_eventStart,Screen 1,dgtyxe,1.0,continue,,2865.400000000009,2848.800000000003,2865.400000000009,2865.400000000009,2848.800000000003,2865.400000000009,1.0,0.0,0.0,,Click To Continue,Next Button,3.0,object-43,temp_eventStart,,,Travel,,,,,,,$${counterbalance_group},,sub-76
Desktop or Laptop,Chromium OS 14541.0.0,Chrome 137.0.0.0,1536x864,1536x695,Temporal Distance Task,cb_06,1.0,temp_dist_trial,num_items,zn7si1,1.0,response,2_ITEM,2701.5000000044674,2699.0,2701.5000000044674,2701.5000000044674,2699.0,2701.5000000044674,1.0,0.0,0.0,,Click Response,2_count,5.0,object-49,temp_dist_trial,1.0,t_i_05_1,travel_Iceland,hiking boots,6.0,unique,single,t_i_05_1.jpg,Travel,$${counterbalance_group},,sub-76
Desktop or Laptop,Chromium OS 14541.0.0,Chrome 137.0.0.0,1536x864,1536x695,Temporal Distance Task,cb_06,1.0,temp_dist_trial,dist_items,qkpkxw,2.0,info,,16.69999999999709,0.0,16.69999999999709,16.69999999999709,0.0,16.69999999999709,1.0,0.0,0.0,,Slider,Slider,4.0,object-56,temp_dist_trial,1.0,t_i_05_1,travel_Iceland,hiking boots,6.0,unique,single,t_i_05_1.jpg,Travel,$${counterbalance_group},,sub-76
Desktop or Laptop,Chromium OS 14541.0.0,Chrome 137.0.0.0,1536x864,1536x695,Temporal Distance Task,cb_06,1.0,temp_dist_trial,dist_items,qkpkxw,2.0,continue,,3213.1000000029817,3198.599999999999,3213.1000000029817,3213.1000000029817,3198.599999999999,3213.1000000029817,1.0,0.0,0.0,,Click To Continue,Next button,7.0,object-60,temp_dist_trial,1.0,t_i_05_1,travel_Iceland,hiking boots,6.0,unique,single,t_i_05_1.jpg,Travel,$${counterbalance_group},,sub-76
Desktop or Laptop,Chromium OS 14541.0.0,Chrome 137.0.0.0,1536x864,1536x695,Temporal Distance Task,cb_06,1.0,temp_dist_trial,dist_items,qkpkxw,2.0,response,57,2349.0,3198.599999999999,3215.099999999999,2349.0,3198.599999999999,3215.099999999999,1.0,866.0999999999983,0.0,,Slider,Slider,4.0,object-56,temp_dist_trial,1.0,t_i_05_1,travel_Iceland,hiking boots,6.0,unique,single,t_i_05_1.jpg,Travel,$${counterbalance_group},,sub-76
Desktop or Laptop,Chromium OS 14541.0.0,Chrome 137.0.0.0,1536x864,1536x695,Temporal Distance Task,cb_06,2.0,temp_dist_trial,num_items,zn7si1,1.0,response,1_ITEM,1571.900000001493,1566.1000000000058,1571.900000001493,1571.900000001493,1566.1000000000058,1571.900000001493,1.0,0.0,0.0,,Click Response,1_count,3.0,object-46,temp_dist_trial,2.0,t_s_18_1,travel_shared,first aid kit,6.0,competing,single,t_s_18_1.jpg,Travel,$${counterbalance_group},,sub-76
Desktop or Laptop,Chromium OS 14541.0.0,Chrome 137.0.0.0,1536x864,1536x695,Temporal Distance Task,cb_06,3.0,temp_dist_trial,num_items,zn7si1,1.0,response,1_ITEM,1585.900000001493,1582.7000000000046,1585.900000001493,1585.900000001493,1582.7000000000046,1585.900000001493,1.0,0.0,0.0,,Click Response,1_count,3.0,object-46,temp_dist_trial,3.0,t_s_13_1,travel_shared,contact lens case,6.0,competing,paired,t_s_13_1.jpg,Travel,$${counterbalance_group},,sub-76
Desktop or Laptop,Chromium OS 14541.0.0,Chrome 137.0.0.0,1536x864,1536x695,Temporal Distance Task,cb_06,4.0,temp_dist_trial,num_items,zn7si1,1.0,response,1_ITEM,1148.4000000029773,1132.8999999999942,1148.4000000029773,1148.4000000029773,1132.8999999999942,1148.4000000029773,1.0,0.0,0.0,,Click Response,1_count,3.0,object-46,temp_dist_trial,4.0,t_i_11_1,travel_Iceland,headlamp,6.0,unique,paired,t_i_11_1.jpg,Travel,$${counterbalance_group},,sub-76
Desktop or Laptop,Chromium OS 14541.0.0,Chrome 137.0.0.0,1536x864,1536x695,Temporal Distance Task,cb_06,5.0,temp_dist_trial,num_items,zn7si1,1.0,response,1_ITEM,982.300000005962,966.3000000000028,982.300000005962,982.300000005962,966.3000000000028,982.300000005962,1.0,0.0,0.0,,Click Response,1_count,3.0,object-46,temp_dist_trial,5.0,t_s_07_1,travel_shared,phone charger cable,6.0,competing,single,t_s_07_1.jpg,Travel,$${counterbalance_group},,sub-76
Desktop or Laptop,Chromium OS 14541.0.0,Chrome 137.0.0.0,1536x864,1536x695,Temporal Distance Task,cb_06,6.0,temp_dist_trial,num_items,zn7si1,1.0,response,1_ITEM,1627.7000000059634,1616.1000000000058,1627.7000000059634,1627.7000000059634,1616.1000000000058,1627.7000000059634,1.0,0.0,0.0,,Click Response,1_count,3.0,object-46,temp_dist_trial,6.0,t_i_12_1,travel_Iceland,tent,6.0,unique,paired,t_i_12_1.jpg,Travel,$${counterbalance_group},,sub-76
Desktop or Laptop,Chromium OS 14541.0.0,Chrome 137.0.0.0,1536x864,1536x695,Temporal Distance Task,cb_06,7.0,temp_dist_trial,num_items,zn7si1,1.0,response,1_ITEM,1699.400000000009,1682.7000000000046,1699.400000000009,1699.400000000009,1682.7000000000046,1699.400000000009,1.0,0.0,0.0,,Click Response,1_count,3.0,object-46,temp_dist_trial,7.0,t_m_02_1,travel_Miami,t-shirt,6.0,unique,single,t_m_02_1.jpg,Travel,$${counterbalance_group},,sub-76
Desktop or Laptop,Chromium OS 14541.0.0,Chrome 137.0.0.0,1536x864,1536x695,Temporal Distance Task,cb_06,8.0,temp_dist_trial,num_items,zn7si1,1.0,response,2_ITEM,1195.3000000000031,1183.7000000000044,1195.3000000000031,1195.3000000000031,1183.7000000000044,1195.3000000000031,1.0,0.0,0.0,,Click Response,2_count,5.0,object-49,temp_dist_trial,8.0,t_s_19_1,travel_shared,pajamas,6.0,competing,paired,t_s_19_1.jpg,Travel,$${counterbalance_group},,sub-76
Desktop or Laptop,Chromium OS 14541.0.0,Chrome 137.0.0.0,1536x864,1536x695,Temporal Distance Task,cb_06,8.0,temp_dist_trial,dist_items,qkpkxw,2.0,info,,11.50000000595901,0.0,11.50000000595901,11.50000000595901,0.0,11.50000000595901,1.0,0.0,0.0,,Slider,Slider,4.0,object-56,temp_dist_trial,8.0,t_s_19_1,travel_shared,pajamas,6.0,competing,paired,t_s_19_1.jpg,Travel,$${counterbalance_group},,sub-76
Desktop or Laptop,Chromium OS 14541.0.0,Chrome 137.0.0.0,1536x864,1536x695,Temporal Distance Task,cb_06,8.0,temp_dist_trial,dist_items,qkpkxw,2.0,continue,,3222.700000001489,3215.400000000001,3222.700000001489,3222.700000001489,3215.400000000001,3222.700000001489,1.0,0.0,0.0,,Click To Continue,Next button,7.0,object-60,temp_dist_trial,8.0,t_s_19_1,travel_shared,pajamas,6.0,competing,paired,t_s_19_1.jpg,Travel,$${counterbalance_group},,sub-76
Desktop or Laptop,Chromium OS 14541.0.0,Chrome 137.0.0.0,1536x864,1536x695,Temporal Distance Task,cb_06,8.0,temp_dist_trial,dist_items,qkpkxw,2.0,response,39,1566.0,3215.400000000001,3232.2000000000044,1566.0,3215.400000000001,3232.2000000000044,1.0,1666.2000000000046,0.0,,Slider,Slider,4.0,object-56,temp_dist_trial,8.0,t_s_19_1,travel_shared,pajamas,6.0,competing,paired,t_s_19_1.jpg,Travel,$${counterbalance_group},,sub-76
Desktop or Laptop,Chromium OS 14541.0.0,Chrome 137.0.0.0,1536x864,1536x695,Temporal Distance Task,cb_06,9.0,temp_dist_trial,num_items,zn7si1,1.0,response,1_ITEM,1127.1000000059576,1116.0999999999983,1127.1000000059576,1127.1000000059576,1116.0999999999983,1127.1000000059576,1.0,0.0,0.0,,Click Response,1_count,3.0,object-46,temp_dist_trial,9.0,t_s_11_1,travel_shared,eye mask,6.0,competing,single,t_s_11_1.jpg,Travel,$${counterbalance_group},,sub-76
Desktop or Laptop,Chromium OS 14541.0.0,Chrome 137.0.0.0,1536x864,1536x695,Temporal Distance Task,cb_06,10.0,temp_dist_trial,num_items,zn7si1,1.0,response,2_ITEM,1541.0999999999985,1532.5999999999985,1541.0999999999985,1541.0999999999985,1532.5999999999985,1541.0999999999985,1.0,0.0,0.0,,Click Response,2_count,5.0,object-49,temp_dist_trial,10.0,t_s_04_1,travel_shared,instant camera,6.0,competing,paired,t_s_04_1.jpg,Travel,$${counterbalance_group},,sub-76
Desktop or Laptop,Chromium OS 14541.0.0,Chrome 137.0.0.0,1536x864,1536x695,Temporal Distance Task,cb_06,10.0,temp_dist_trial,dist_items,qkpkxw,2.0,info,,16.69999999999709,0.0,16.69999999999709,16.69999999999709,0.0,16.69999999999709,1.0,0.0,0.0,,Slider,Slider,4.0,object-56,temp_dist_trial,10.0,t_s_04_1,travel_shared,instant camera,6.0,competing,paired,t_s_04_1.jpg,Travel,$${counterbalance_group},,sub-76
Desktop or Laptop,Chromium OS 14541.0.0,Chrome 137.0.0.0,1536x864,1536x695,Temporal Distance Task,cb_06,10.0,temp_dist_trial,dist_items,qkpkxw,2.0,continue,,3065.2999999999956,3048.699999999997,3065.2999999999956,3065.2999999999956,3048.699999999997,3065.2999999999956,1.0,0.0,0.0,,Click To Continue,Next button,7.0,object-60,temp_dist_trial,10.0,t_s_04_1,travel_shared,instant camera,6.0,competing,paired,t_s_04_1.jpg,Travel,$${counterbalance_group},,sub-76
Desktop or Laptop,Chromium OS 14541.0.0,Chrome 137.0.0.0,1536x864,1536x695,Temporal Distance Task,cb_06,10.0,temp_dist_trial,dist_items,qkpkxw,2.0,response,15,2265.699999999997,3048.699999999997,3065.2999999999956,2265.699999999997,3048.699999999997,3065.2999999999956,1.0,799.5999999999983,0.0,,Slider,Slider,4.0,object-56,temp_dist_trial,10.0,t_s_04_1,travel_shared,instant camera,6.0,competing,paired,t_s_04_1.jpg,Travel,$${counterbalance_group},,sub-76
Desktop or Laptop,Chromium OS 14541.0.0,Chrome 137.0.0.0,1536x864,1536x695,Temporal Distance Task,cb_06,11.0,temp_dist_trial,num_items,zn7si1,1.0,response,1_ITEM,2292.800000000003,2282.5,2292.800000000003,2292.800000000003,2282.5,2292.800000000003,1.0,0.0,0.0,,Click Response,1_count,3.0,object-46,temp_dist_trial,11.0,t_m_20_1,travel_Miami,inflatable beachball,6.0,unique,paired,t_m_20_1.jpg,Travel,$${counterbalance_group},,sub-76
Desktop or Laptop,Chromium OS 14541.0.0,Chrome 137.0.0.0,1536x864,1536x695,Temporal Distance Task,cb_06,12.0,temp_dist_trial,num_items,zn7si1,1.0,response,2_ITEM,1432.7999999999954,1416.0999999999985,1432.7999999999954,1432.7999999999954,1416.0999999999985,1432.7999999999954,1.0,0.0,0.0,,Click Response,2_count,5.0,object-49,temp_dist_trial,12.0,t_m_11_1,travel_Miami,collapsible beach chair,6.0,unique,paired,t_m_11_1.jpg,Travel,$${counterbalance_group},,sub-76
Desktop or Laptop,Chromium OS 14541.0.0,Chrome 137.0.0.0,1536x864,1536x695,Temporal Distance Task,cb_06,12.0,temp_dist_trial,dist_items,qkpkxw,2.0,info,,16.599999999998545,0.0,16.599999999998545,16.599999999998545,0.0,16.599999999998545,1.0,0.0,0.0,,Slider,Slider,4.0,object-56,temp_dist_trial,12.0,t_m_11_1,travel_Miami,collapsible beach chair,6.0,unique,paired,t_m_11_1.jpg,Travel,$${counterbalance_group},,sub-76
Desktop or Laptop,Chromium OS 14541.0.0,Chrome 137.0.0.0,1536x864,1536x695,Temporal Distance Task,cb_06,12.0,temp_dist_trial,dist_items,qkpkxw,2.0,continue,,2009.60000000149,1999.1999999999966,2009.60000000149,2009.60000000149,1999.1999999999966,2009.60000000149,1.0,0.0,0.0,,Click To Continue,Next button,7.0,object-60,temp_dist_trial,12.0,t_m_11_1,travel_Miami,collapsible beach chair,6.0,unique,paired,t_m_11_1.jpg,Travel,$${counterbalance_group},,sub-76
Desktop or Laptop,Chromium OS 14541.0.0,Chrome 137.0.0.0,1536x864,1536x695,Temporal Distance Task,cb_06,12.0,temp_dist_trial,dist_items,qkpkxw,2.0,response,57,1282.8000000000031,1999.1999999999966,2010.4000000059605,1282.8000000000031,1999.1999999999966,2010.4000000059605,1.0,727.6000000059578,0.0,,Slider,Slider,4.0,object-56,temp_dist_trial,12.0,t_m_11_1,travel_Miami,collapsible beach chair,6.0,unique,paired,t_m_11_1.jpg,Travel,$${counterbalance_group},,sub-76
Desktop or Laptop,Chromium OS 14541.0.0,Chrome 137.0.0.0,1536x864,1536x695,Temporal Distance Task,cb_06,13.0,temp_dist_trial,num_items,zn7si1,1.0,response,1_ITEM,2039.3000000000034,2032.5,2039.3000000000034,2039.3000000000034,2032.5,2039.3000000000034,1.0,0.0,0.0,,Click Response,1_count,3.0,object-46,temp_dist_trial,13.0,t_s_22_1,travel_shared,belt,6.0,competing,single,t_s_22_1.jpg,Travel,$${counterbalance_group},,sub-76
Desktop or Laptop,Chromium OS 14541.0.0,Chrome 137.0.0.0,1536x864,1536x695,Temporal Distance Task,cb_06,14.0,temp_dist_trial,num_items,zn7si1,1.0,response,1_ITEM,1204.5000000014845,1199.5,1204.5000000014845,1204.5000000014845,1199.5,1204.5000000014845,1.0,0.0,0.0,,Click Response,1_count,3.0,object-46,temp_dist_trial,14.0,t_i_13_1,travel_Iceland,sleeping bag,6.0,unique,single,t_i_13_1.jpg,Travel,$${counterbalance_group},,sub-76
Desktop or Laptop,Chromium OS 14541.0.0,Chrome 137.0.0.0,1536x864,1536x695,Temporal Distance Task,cb_06,15.0,temp_dist_trial,num_items,zn7si1,1.0,response,2_ITEM,1206.8000000059544,1199.3999999999942,1206.8000000059544,1206.8000000059544,1199.3999999999942,1206.8000000059544,1.0,0.0,0.0,,Click Response,2_count,5.0,object-49,temp_dist_trial,15.0,t_s_06_1,travel_shared,luggage,6.0,competing,paired,t_s_06_1.jpg,Travel,$${counterbalance_group},,sub-76
Desktop or Laptop,Chromium OS 14541.0.0,Chrome 137.0.0.0,1536x864,1536x695,Temporal Distance Task,cb_06,15.0,temp_dist_trial,dist_items,qkpkxw,2.0,info,,16.69999999999709,0.0,16.69999999999709,16.69999999999709,0.0,16.69999999999709,1.0,0.0,0.0,,Slider,Slider,4.0,object-56,temp_dist_trial,15.0,t_s_06_1,travel_shared,luggage,6.0,competing,paired,t_s_06_1.jpg,Travel,$${counterbalance_group},,sub-76
Desktop or Laptop,Chromium OS 14541.0.0,Chrome 137.0.0.0,1536x864,1536x695,Temporal Distance Task,cb_06,15.0,temp_dist_trial,dist_items,qkpkxw,2.0,continue,,2353.0,2349.0,2353.0,2353.0,2349.0,2353.0,1.0,0.0,0.0,,Click To Continue,Next button,7.0,object-60,temp_dist_trial,15.0,t_s_06_1,travel_shared,luggage,6.0,competing,paired,t_s_06_1.jpg,Travel,$${counterbalance_group},,sub-76
Desktop or Laptop,Chromium OS 14541.0.0,Chrome 137.0.0.0,1536x864,1536x695,Temporal Distance Task,cb_06,15.0,temp_dist_trial,dist_items,qkpkxw,2.0,response,68,1649.3000000000034,2349.0,2353.7000000029802,1649.3000000000034,2349.0,2353.7000000029802,1.0,704.4000000029773,0.0,,Slider,Slider,4.0,object-56,temp_dist_trial,15.0,t_s_06_1,travel_shared,luggage,6.0,competing,paired,t_s_06_1.jpg,Travel,$${counterbalance_group},,sub-76
Desktop or Laptop,Chromium OS 14541.0.0,Chrome 137.0.0.0,1536x864,1536x695,Temporal Distance Task,cb_06,16.0,temp_dist_trial,num_items,zn7si1,1.0,response,1_ITEM,1716.099999999991,1699.3999999999942,1716.099999999991,1716.099999999991,1699.3999999999942,1716.099999999991,1.0,0.0,0.0,,Click Response,1_count,3.0,object-46,temp_dist_trial,16.0,t_i_09_1,travel_Iceland,ear muffs,6.0,unique,single,t_i_09_1.jpg,Travel,$${counterbalance_group},,sub-76
Desktop or Laptop,Chromium OS 14541.0.0,Chrome 137.0.0.0,1536x864,1536x695,Temporal Distance Task,cb_06,17.0,temp_dist_trial,num_items,zn7si1,1.0,response,1_ITEM,1371.6000000044733,1366.1000000000058,1371.6000000044733,1371.6000000044733,1366.1000000000058,1371.6000000044733,1.0,0.0,0.0,,Click Response,1_count,3.0,object-46,temp_dist_trial,17.0,t_i_03_1,travel_Iceland,winter jacket,6.0,unique,paired,t_i_03_1.jpg,Travel,$${counterbalance_group},,sub-76
Desktop or Laptop,Chromium OS 14541.0.0,Chrome 137.0.0.0,1536x864,1536x695,Temporal Distance Task,cb_06,18.0,temp_dist_trial,num_items,zn7si1,1.0,response,1_ITEM,1428.0000000029834,1416.1000000000058,1428.0000000029834,1428.0000000029834,1416.1000000000058,1428.0000000029834,1.0,0.0,0.0,,Click Response,1_count,3.0,object-46,temp_dist_trial,18.0,t_i_15_1,travel_Iceland,compass,6.0,unique,single,t_i_15_1.jpg,Travel,$${counterbalance_group},,sub-76
Desktop or Laptop,Chromium OS 14541.0.0,Chrome 137.0.0.0,1536x864,1536x695,Temporal Distance Task,cb_06,19.0,temp_dist_trial,num_items,zn7si1,1.0,response,1_ITEM,941.6000000044733,933.0,941.6000000044733,941.6000000044733,933.0,941.6000000044733,1.0,0.0,0.0,,Click Response,1_count,3.0,object-46,temp_dist_trial,19.0,t_i_06_1,travel_Iceland,knit hat,6.0,unique,paired,t_i_06_1.jpg,Travel,$${counterbalance_group},,sub-76
Desktop or Laptop,Chromium OS 14541.0.0,Chrome 137.0.0.0,1536x864,1536x695,Temporal Distance Task,cb_06,20.0,temp_dist_trial,num_items,zn7si1,1.0,response,1_ITEM,1357.1000000014901,1349.6999999999969,1357.1000000014901,1357.1000000014901,1349.6999999999969,1357.1000000014901,1.0,0.0,0.0,,Click Response,1_count,3.0,object-46,temp_dist_trial,20.0,t_s_03_1,travel_shared,portable charger,6.0,competing,paired,t_s_03_1.jpg,Travel,$${counterbalance_group},,sub-76
Desktop or Laptop,Chromium OS 14541.0.0,Chrome 137.0.0.0,1536x864,1536x695,Temporal Distance Task,cb_06,21.0,temp_dist_trial,num_items,zn7si1,1.0,response,2_ITEM,994.10000000149,983.0,994.10000000149,994.10000000149,983.0,994.10000000149,1.0,0.0,0.0,,Click Response,2_count,5.0,object-49,temp_dist_trial,21.0,t_s_24_1,travel_shared,ear plugs,6.0,competing,paired,t_s_24_1.jpg,Travel,$${counterbalance_group},,sub-76
Desktop or Laptop,Chromium OS 14541.0.0,Chrome 137.0.0.0,1536x864,1536x695,Temporal Distance Task,cb_06,21.0,temp_dist_trial,dist_items,qkpkxw,2.0,info,,9.700000001495935,0.0,9.700000001495935,9.700000001495935,0.0,9.700000001495935,1.0,0.0,0.0,,Slider,Slider,4.0,object-56,temp_dist_trial,21.0,t_s_24_1,travel_shared,ear plugs,6.0,competing,paired,t_s_24_1.jpg,Travel,$${counterbalance_group},,sub-76
Desktop or Laptop,Chromium OS 14541.0.0,Chrome 137.0.0.0,1536x864,1536x695,Temporal Distance Task,cb_06,21.0,temp_dist_trial,dist_items,qkpkxw,2.0,continue,,1714.200000001496,1699.3000000000034,1714.200000001496,1714.200000001496,1699.3000000000034,1714.200000001496,1.0,0.0,0.0,,Click To Continue,Next button,7.0,object-60,temp_dist_trial,21.0,t_s_24_1,travel_shared,ear plugs,6.0,competing,paired,t_s_24_1.jpg,Travel,$${counterbalance_group},,sub-76
Desktop or Laptop,Chromium OS 14541.0.0,Chrome 137.0.0.0,1536x864,1536x695,Temporal Distance Task,cb_06,21.0,temp_dist_trial,dist_items,qkpkxw,2.0,response,60,1182.8000000000031,1699.3000000000034,1716.0,1182.8000000000031,1699.3000000000034,1716.0,1.0,533.1999999999971,0.0,,Slider,Slider,4.0,object-56,temp_dist_trial,21.0,t_s_24_1,travel_shared,ear plugs,6.0,competing,paired,t_s_24_1.jpg,Travel,$${counterbalance_group},,sub-76
Desktop or Laptop,Chromium OS 14541.0.0,Chrome 137.0.0.0,1536x864,1536x695,Temporal Distance Task,cb_06,22.0,temp_dist_trial,num_items,zn7si1,1.0,response,1_ITEM,2042.3000000000034,2032.8000000000034,2042.3000000000034,2042.3000000000034,2032.8000000000034,2042.3000000000034,1.0,0.0,0.0,,Click Response,1_count,3.0,object-46,temp_dist_trial,22.0,t_m_09_1,travel_Miami,beach towel,6.0,unique,paired,t_m_09_1.jpg,Travel,$${counterbalance_group},,sub-76
Desktop or Laptop,Chromium OS 14541.0.0,Chrome 137.0.0.0,1536x864,1536x695,Temporal Distance Task,cb_06,23.0,temp_dist_trial,num_items,zn7si1,1.0,response,1_ITEM,2675.6000000000063,2665.700000000012,2675.6000000000063,2675.6000000000063,2665.700000000012,2675.6000000000063,1.0,0.0,0.0,,Click Response,1_count,3.0,object-46,temp_dist_trial,23.0,t_s_20_1,travel_shared,travel pill case,6.0,competing,single,t_s_20_1.jpg,Travel,$${counterbalance_group},,sub-76
Desktop or Laptop,Chromium OS 14541.0.0,Chrome 137.0.0.0,1536x864,1536x695,Temporal Distance Task,cb_06,24.0,temp_dist_trial,num_items,zn7si1,1.0,response,1_ITEM,2332.200000000012,2315.6000000000063,2332.200000000012,2332.200000000012,2315.6000000000063,2332.200000000012,1.0,0.0,0.0,,Click Response,1_count,3.0,object-46,temp_dist_trial,24.0,t_m_12_1,travel_Miami,foldable pail and shovel,6.0,unique,single,t_m_12_1.jpg,Travel,$${counterbalance_group},,sub-76
Desktop or Laptop,Chromium OS 14541.0.0,Chrome 137.0.0.0,1536x864,1536x695,Temporal Distance Task,cb_06,25.0,temp_dist_trial,num_items,zn7si1,1.0,response,2_ITEM,1546.5000000014843,1532.599999999991,1546.5000000014843,1546.5000000014843,1532.599999999991,1546.5000000014843,1.0,0.0,0.0,,Click Response,2_count,5.0,object-49,temp_dist_trial,25.0,t_i_07_1,travel_Iceland,hiking backpack,6.0,unique,paired,t_i_07_1.jpg,Travel,$${counterbalance_group},,sub-76
Desktop or Laptop,Chromium OS 14541.0.0,Chrome 137.0.0.0,1536x864,1536x695,Temporal Distance Task,cb_06,25.0,temp_dist_trial,dist_items,qkpkxw,2.0,info,,10.80000000000291,0.0,10.80000000000291,10.80000000000291,0.0,10.80000000000291,1.0,0.0,0.0,,Slider,Slider,4.0,object-56,temp_dist_trial,25.0,t_i_07_1,travel_Iceland,hiking backpack,6.0,unique,paired,t_i_07_1.jpg,Travel,$${counterbalance_group},,sub-76
Desktop or Laptop,Chromium OS 14541.0.0,Chrome 137.0.0.0,1536x864,1536x695,Temporal Distance Task,cb_06,25.0,temp_dist_trial,dist_items,qkpkxw,2.0,continue,,3248.400000001493,3232.0,3248.400000001493,3248.400000001493,3232.0,3248.400000001493,1.0,0.0,0.0,,Click To Continue,Next button,7.0,object-60,temp_dist_trial,25.0,t_i_07_1,travel_Iceland,hiking backpack,6.0,unique,paired,t_i_07_1.jpg,Travel,$${counterbalance_group},,sub-76
Desktop or Laptop,Chromium OS 14541.0.0,Chrome 137.0.0.0,1536x864,1536x695,Temporal Distance Task,cb_06,25.0,temp_dist_trial,dist_items,qkpkxw,2.0,response,36,2549.0,3232.0,3248.5999999999913,2549.0,3232.0,3248.5999999999913,1.0,699.5999999999913,0.0,,Slider,Slider,4.0,object-56,temp_dist_trial,25.0,t_i_07_1,travel_Iceland,hiking backpack,6.0,unique,paired,t_i_07_1.jpg,Travel,$${counterbalance_group},,sub-76
Desktop or Laptop,Chromium OS 14541.0.0,Chrome 137.0.0.0,1536x864,1536x695,Temporal Distance Task,cb_06,26.0,temp_dist_trial,num_items,zn7si1,1.0,response,2_ITEM,1475.3000000000034,1466.1000000000058,1475.3000000000034,1475.3000000000034,1466.1000000000058,1475.3000000000034,1.0,0.0,0.0,,Click Response,2_count,5.0,object-49,temp_dist_trial,26.0,t_m_04_1,travel_Miami,UV jacket,6.0,unique,paired,t_m_04_1.jpg,Travel,$${counterbalance_group},,sub-76
Desktop or Laptop,Chromium OS 14541.0.0,Chrome 137.0.0.0,1536x864,1536x695,Temporal Distance Task,cb_06,26.0,temp_dist_trial,dist_items,qkpkxw,2.0,info,,16.69999999999709,0.0,16.69999999999709,16.69999999999709,0.0,16.69999999999709,1.0,0.0,0.0,,Slider,Slider,4.0,object-56,temp_dist_trial,26.0,t_m_04_1,travel_Miami,UV jacket,6.0,unique,paired,t_m_04_1.jpg,Travel,$${counterbalance_group},,sub-76
Desktop or Laptop,Chromium OS 14541.0.0,Chrome 137.0.0.0,1536x864,1536x695,Temporal Distance Task,cb_06,26.0,temp_dist_trial,dist_items,qkpkxw,2.0,continue,,2302.300000000003,2299.9000000000087,2302.300000000003,2302.300000000003,2299.9000000000087,2302.300000000003,1.0,0.0,0.0,,Click To Continue,Next button,7.0,object-60,temp_dist_trial,26.0,t_m_04_1,travel_Miami,UV jacket,6.0,unique,paired,t_m_04_1.jpg,Travel,$${counterbalance_group},,sub-76
Desktop or Laptop,Chromium OS 14541.0.0,Chrome 137.0.0.0,1536x864,1536x695,Temporal Distance Task,cb_06,26.0,temp_dist_trial,dist_items,qkpkxw,2.0,response,37,699.6999999999971,2299.9000000000087,2302.900000001493,699.6999999999971,2299.9000000000087,2302.900000001493,1.0,1603.200000001496,0.0,,Slider,Slider,4.0,object-56,temp_dist_trial,26.0,t_m_04_1,travel_Miami,UV jacket,6.0,unique,paired,t_m_04_1.jpg,Travel,$${counterbalance_group},,sub-76
Desktop or Laptop,Chromium OS 14541.0.0,Chrome 137.0.0.0,1536x864,1536x695,Temporal Distance Task,cb_06,27.0,temp_dist_trial,num_items,zn7si1,1.0,response,2_ITEM,1848.6000000029746,1832.6999999999966,1848.6000000029746,1848.6000000029746,1832.6999999999966,1848.6000000029746,1.0,0.0,0.0,,Click Response,2_count,5.0,object-49,temp_dist_trial,27.0,t_i_02_1,travel_Iceland,scarf,6.0,unique,paired,t_i_02_1.jpg,Travel,$${counterbalance_group},,sub-76
Desktop or Laptop,Chromium OS 14541.0.0,Chrome 137.0.0.0,1536x864,1536x695,Temporal Distance Task,cb_06,27.0,temp_dist_trial,dist_items,qkpkxw,2.0,info,,13.200000005963375,0.0,13.200000005963375,13.200000005963375,0.0,13.200000005963375,1.0,0.0,0.0,,Slider,Slider,4.0,object-56,temp_dist_trial,27.0,t_i_02_1,travel_Iceland,scarf,6.0,unique,paired,t_i_02_1.jpg,Travel,$${counterbalance_group},,sub-76
Desktop or Laptop,Chromium OS 14541.0.0,Chrome 137.0.0.0,1536x864,1536x695,Temporal Distance Task,cb_06,27.0,temp_dist_trial,dist_items,qkpkxw,2.0,continue,,2201.300000000003,2199.0,2201.300000000003,2201.300000000003,2199.0,2201.300000000003,1.0,0.0,0.0,,Click To Continue,Next button,7.0,object-60,temp_dist_trial,27.0,t_i_02_1,travel_Iceland,scarf,6.0,unique,paired,t_i_02_1.jpg,Travel,$${counterbalance_group},,sub-76
Desktop or Laptop,Chromium OS 14541.0.0,Chrome 137.0.0.0,1536x864,1536x695,Temporal Distance Task,cb_06,27.0,temp_dist_trial,dist_items,qkpkxw,2.0,response,40,1382.6999999999966,2199.0,2202.800000000003,1382.6999999999966,2199.0,2202.800000000003,1.0,820.1000000000058,0.0,,Slider,Slider,4.0,object-56,temp_dist_trial,27.0,t_i_02_1,travel_Iceland,scarf,6.0,unique,paired,t_i_02_1.jpg,Travel,$${counterbalance_group},,sub-76
Desktop or Laptop,Chromium OS 14541.0.0,Chrome 137.0.0.0,1536x864,1536x695,Temporal Distance Task,cb_06,28.0,temp_dist_trial,num_items,zn7si1,1.0,response,1_ITEM,993.0000000029833,983.0,993.0000000029833,993.0000000029833,983.0,993.0000000029833,1.0,0.0,0.0,,Click Response,1_count,3.0,object-46,temp_dist_trial,28.0,t_s_01_1,travel_shared,fanny pack,6.0,competing,paired,t_s_01_1.jpg,Travel,$${counterbalance_group},,sub-76
Desktop or Laptop,Chromium OS 14541.0.0,Chrome 137.0.0.0,1536x864,1536x695,Temporal Distance Task,cb_06,29.0,temp_dist_trial,num_items,zn7si1,1.0,response,1_ITEM,1277.3999999999942,1266.0999999999913,1277.3999999999942,1277.3999999999942,1266.0999999999913,1277.3999999999942,1.0,0.0,0.0,,Click Response,1_count,3.0,object-46,temp_dist_trial,29.0,t_s_21_1,travel_shared,umbrella,6.0,competing,paired,t_s_21_1.jpg,Travel,$${counterbalance_group},,sub-76
Desktop or Laptop,Chromium OS 14541.0.0,Chrome 137.0.0.0,1536x864,1536x695,Temporal Distance Task,cb_06,30.0,temp_dist_trial,num_items,zn7si1,1.0,response,1_ITEM,944.8000000000028,932.9000000000087,944.8000000000028,944.8000000000028,932.9000000000087,944.8000000000028,1.0,0.0,0.0,,Click Response,1_count,3.0,object-46,temp_dist_trial,30.0,t_m_01_1,travel_Miami,sandals,6.0,unique,single,t_m_01_1.jpg,Travel,$${counterbalance_group},,sub-76
Desktop or Laptop,Chromium OS 14541.0.0,Chrome 137.0.0.0,1536x864,1536x695,Temporal Distance Task,cb_06,31.0,temp_dist_trial,num_items,zn7si1,1.0,response,2_ITEM,1677.5,1666.1000000000058,1677.5,1677.5,1666.1000000000058,1677.5,1.0,0.0,0.0,,Click Response,2_count,5.0,object-49,temp_dist_trial,31.0,t_s_10_1,travel_shared,luggage lock,6.0,competing,paired,t_s_10_1.jpg,Travel,$${counterbalance_group},,sub-76
Desktop or Laptop,Chromium OS 14541.0.0,Chrome 137.0.0.0,1536x864,1536x695,Temporal Distance Task,cb_06,31.0,temp_dist_trial,dist_items,qkpkxw,2.0,info,,11.700000001495935,0.0,11.700000001495935,11.700000001495935,0.0,11.700000001495935,1.0,0.0,0.0,,Slider,Slider,4.0,object-56,temp_dist_trial,31.0,t_s_10_1,travel_shared,luggage lock,6.0,competing,paired,t_s_10_1.jpg,Travel,$${counterbalance_group},,sub-76
Desktop or Laptop,Chromium OS 14541.0.0,Chrome 137.0.0.0,1536x864,1536x695,Temporal Distance Task,cb_06,31.0,temp_dist_trial,dist_items,qkpkxw,2.0,continue,,1461.6000000000058,1449.5,1461.6000000000058,1461.6000000000058,1449.5,1461.6000000000058,1.0,0.0,0.0,,Click To Continue,Next button,7.0,object-60,temp_dist_trial,31.0,t_s_10_1,travel_shared,luggage lock,6.0,competing,paired,t_s_10_1.jpg,Travel,$${counterbalance_group},,sub-76
Desktop or Laptop,Chromium OS 14541.0.0,Chrome 137.0.0.0,1536x864,1536x695,Temporal Distance Task,cb_06,31.0,temp_dist_trial,dist_items,qkpkxw,2.0,response,26,783.1000000000058,1449.5,1462.4000000044766,783.1000000000058,1449.5,1462.4000000044766,1.0,679.3000000044702,0.0,,Slider,Slider,4.0,object-56,temp_dist_trial,31.0,t_s_10_1,travel_shared,luggage lock,6.0,competing,paired,t_s_10_1.jpg,Travel,$${counterbalance_group},,sub-76
Desktop or Laptop,Chromium OS 14541.0.0,Chrome 137.0.0.0,1536x864,1536x695,Temporal Distance Task,cb_06,32.0,temp_dist_trial,num_items,zn7si1,1.0,response,2_ITEM,1869.6000000000056,1865.900000000009,1869.6000000000056,1869.6000000000056,1865.900000000009,1869.6000000000056,1.0,0.0,0.0,,Click Response,2_count,5.0,object-49,temp_dist_trial,32.0,t_s_12_1,travel_shared,clear toiletry bag,6.0,competing,paired,t_s_12_1.jpg,Travel,$${counterbalance_group},,sub-76
Desktop or Laptop,Chromium OS 14541.0.0,Chrome 137.0.0.0,1536x864,1536x695,Temporal Distance Task,cb_06,32.0,temp_dist_trial,dist_items,qkpkxw,2.0,info,,16.60000000000582,0.0,16.60000000000582,16.60000000000582,0.0,16.60000000000582,1.0,0.0,0.0,,Slider,Slider,4.0,object-56,temp_dist_trial,32.0,t_s_12_1,travel_shared,clear toiletry bag,6.0,competing,paired,t_s_12_1.jpg,Travel,$${counterbalance_group},,sub-76
Desktop or Laptop,Chromium OS 14541.0.0,Chrome 137.0.0.0,1536x864,1536x695,Temporal Distance Task,cb_06,32.0,temp_dist_trial,dist_items,qkpkxw,2.0,continue,,2732.1999999999825,2715.5999999999913,2732.1999999999825,2732.1999999999825,2715.5999999999913,2732.1999999999825,1.0,0.0,0.0,,Click To Continue,Next button,7.0,object-60,temp_dist_trial,32.0,t_s_12_1,travel_shared,clear toiletry bag,6.0,competing,paired,t_s_12_1.jpg,Travel,$${counterbalance_group},,sub-76
Desktop or Laptop,Chromium OS 14541.0.0,Chrome 137.0.0.0,1536x864,1536x695,Temporal Distance Task,cb_06,32.0,temp_dist_trial,dist_items,qkpkxw,2.0,response,64,2115.7999999999884,2715.5999999999913,2732.1999999999825,2115.7999999999884,2715.5999999999913,2732.1999999999825,1.0,616.3999999999943,0.0,,Slider,Slider,4.0,object-56,temp_dist_trial,32.0,t_s_12_1,travel_shared,clear toiletry bag,6.0,competing,paired,t_s_12_1.jpg,Travel,$${counterbalance_group},,sub-76
Desktop or Laptop,Chromium OS 14541.0.0,Chrome 137.0.0.0,1536x864,1536x695,Temporal Distance Task,cb_06,33.0,temp_dist_trial,num_items,zn7si1,1.0,response,1_ITEM,880.6000000044733,866.3000000000029,880.6000000044733,880.6000000044733,866.3000000000029,880.6000000044733,1.0,0.0,0.0,,Click Response,1_count,3.0,object-46,temp_dist_trial,33.0,t_s_02_1,travel_shared,water bottle,6.0,competing,paired,t_s_02_1.jpg,Travel,$${counterbalance_group},,sub-76
Desktop or Laptop,Chromium OS 14541.0.0,Chrome 137.0.0.0,1536x864,1536x695,Temporal Distance Task,cb_06,34.0,temp_dist_trial,num_items,zn7si1,1.0,response,1_ITEM,1064.6000000000058,1049.6000000000058,1064.6000000000058,1064.6000000000058,1049.6000000000058,1064.6000000000058,1.0,0.0,0.0,,Click Response,1_count,3.0,object-46,temp_dist_trial,34.0,t_s_17_1,travel_shared,toothbrush,6.0,competing,single,t_s_17_1.jpg,Travel,$${counterbalance_group},,sub-76
Desktop or Laptop,Chromium OS 14541.0.0,Chrome 137.0.0.0,1536x864,1536x695,Temporal Distance Task,cb_06,35.0,temp_dist_trial,num_items,zn7si1,1.0,response,1_ITEM,1785.200000001496,1782.6000000000058,1785.200000001496,1785.200000001496,1782.6000000000058,1785.200000001496,1.0,0.0,0.0,,Click Response,1_count,3.0,object-46,temp_dist_trial,35.0,t_m_10_1,travel_Miami,tanktop,6.0,unique,paired,t_m_10_1.jpg,Travel,$${counterbalance_group},,sub-76
Desktop or Laptop,Chromium OS 14541.0.0,Chrome 137.0.0.0,1536x864,1536x695,Temporal Distance Task,cb_06,36.0,temp_dist_trial,num_items,zn7si1,1.0,response,1_ITEM,999.5000000059663,983.0,999.5000000059663,999.5000000059663,983.0,999.5000000059663,1.0,0.0,0.0,,Click Response,1_count,3.0,object-46,temp_dist_trial,36.0,t_s_16_1,travel_shared,chapstick,6.0,competing,paired,t_s_16_1.jpg,Travel,$${counterbalance_group},,sub-76
Desktop or Laptop,Chromium OS 14541.0.0,Chrome 137.0.0.0,1536x864,1536x695,Temporal Distance Task,cb_06,37.0,temp_dist_trial,num_items,zn7si1,1.0,response,1_ITEM,1018.6000000044733,1016.3000000000028,1018.6000000044733,1018.6000000044733,1016.3000000000028,1018.6000000044733,1.0,0.0,0.0,,Click Response,1_count,3.0,object-46,temp_dist_trial,37.0,t_s_08_1,travel_shared,hand lotion,6.0,competing,single,t_s_08_1.jpg,Travel,$${counterbalance_group},,sub-76
Desktop or Laptop,Chromium OS 14541.0.0,Chrome 137.0.0.0,1536x864,1536x695,Temporal Distance Task,cb_06,38.0,temp_dist_trial,num_items,zn7si1,1.0,response,1_ITEM,897.3000000029858,883.0,897.3000000029858,897.3000000029858,883.0,897.3000000029858,1.0,0.0,0.0,,Click Response,1_count,3.0,object-46,temp_dist_trial,38.0,t_m_17_1,travel_Miami,water gun,6.0,unique,single,t_m_17_1.jpg,Travel,$${counterbalance_group},,sub-76
Desktop or Laptop,Chromium OS 14541.0.0,Chrome 137.0.0.0,1536x864,1536x695,Temporal Distance Task,cb_06,39.0,temp_dist_trial,num_items,zn7si1,1.0,response,1_ITEM,1760.6000000059576,1749.1999999999966,1760.6000000059576,1760.6000000059576,1749.1999999999966,1760.6000000059576,1.0,0.0,0.0,,Click Response,1_count,3.0,object-46,temp_dist_trial,39.0,t_m_05_1,travel_Miami,sunscreen,6.0,unique,paired,t_m_05_1.jpg,Travel,$${counterbalance_group},,sub-76
Desktop or Laptop,Chromium OS 14541.0.0,Chrome 137.0.0.0,1536x864,1536x695,Temporal Distance Task,cb_06,40.0,temp_dist_trial,num_items,zn7si1,1.0,response,2_ITEM,1216.1999999999969,1199.5,1216.1999999999969,1216.1999999999969,1199.5,1216.1999999999969,1.0,0.0,0.0,,Click Response,2_count,5.0,object-49,temp_dist_trial,40.0,t_i_17_1,travel_Iceland,binoculars,6.0,unique,paired,t_i_17_1.jpg,Travel,$${counterbalance_group},,sub-76
Desktop or Laptop,Chromium OS 14541.0.0,Chrome 137.0.0.0,1536x864,1536x695,Temporal Distance Task,cb_06,40.0,temp_dist_trial,dist_items,qkpkxw,2.0,info,,10.300000001487208,0.0,10.300000001487208,10.300000001487208,0.0,10.300000001487208,1.0,0.0,0.0,,Slider,Slider,4.0,object-56,temp_dist_trial,40.0,t_i_17_1,travel_Iceland,binoculars,6.0,unique,paired,t_i_17_1.jpg,Travel,$${counterbalance_group},,sub-76
Desktop or Laptop,Chromium OS 14541.0.0,Chrome 137.0.0.0,1536x864,1536x695,Temporal Distance Task,cb_06,40.0,temp_dist_trial,dist_items,qkpkxw,2.0,continue,,1515.6999999999966,1499.400000000009,1515.6999999999966,1515.6999999999966,1499.400000000009,1515.6999999999966,1.0,0.0,0.0,,Click To Continue,Next button,7.0,object-60,temp_dist_trial,40.0,t_i_17_1,travel_Iceland,binoculars,6.0,unique,paired,t_i_17_1.jpg,Travel,$${counterbalance_group},,sub-76
Desktop or Laptop,Chromium OS 14541.0.0,Chrome 137.0.0.0,1536x864,1536x695,Temporal Distance Task,cb_06,40.0,temp_dist_trial,dist_items,qkpkxw,2.0,response,57,766.3999999999942,1499.400000000009,1516.1000000000204,766.3999999999942,1499.400000000009,1516.1000000000204,1.0,749.7000000000262,0.0,,Slider,Slider,4.0,object-56,temp_dist_trial,40.0,t_i_17_1,travel_Iceland,binoculars,6.0,unique,paired,t_i_17_1.jpg,Travel,$${counterbalance_group},,sub-76
Desktop or Laptop,Chromium OS 14541.0.0,Chrome 137.0.0.0,1536x864,1536x695,Temporal Distance Task,cb_06,41.0,temp_dist_trial,num_items,zn7si1,1.0,response,2_ITEM,1551.4000000014785,1549.3999999999942,1551.4000000014785,1551.4000000014785,1549.3999999999942,1551.4000000014785,1.0,0.0,0.0,,Click Response,2_count,5.0,object-49,temp_dist_trial,41.0,t_i_01_1,travel_Iceland,gloves,6.0,unique,paired,t_i_01_1.jpg,Travel,$${counterbalance_group},,sub-76
Desktop or Laptop,Chromium OS 14541.0.0,Chrome 137.0.0.0,1536x864,1536x695,Temporal Distance Task,cb_06,41.0,temp_dist_trial,dist_items,qkpkxw,2.0,info,,16.60000000000582,0.0,16.60000000000582,16.60000000000582,0.0,16.60000000000582,1.0,0.0,0.0,,Slider,Slider,4.0,object-56,temp_dist_trial,41.0,t_i_01_1,travel_Iceland,gloves,6.0,unique,paired,t_i_01_1.jpg,Travel,$${counterbalance_group},,sub-76
Desktop or Laptop,Chromium OS 14541.0.0,Chrome 137.0.0.0,1536x864,1536x695,Temporal Distance Task,cb_06,41.0,temp_dist_trial,dist_items,qkpkxw,2.0,continue,,1707.5000000059665,1699.3999999999942,1707.5000000059665,1707.5000000059665,1699.3999999999942,1707.5000000059665,1.0,0.0,0.0,,Click To Continue,Next button,7.0,object-60,temp_dist_trial,41.0,t_i_01_1,travel_Iceland,gloves,6.0,unique,paired,t_i_01_1.jpg,Travel,$${counterbalance_group},,sub-76
Desktop or Laptop,Chromium OS 14541.0.0,Chrome 137.0.0.0,1536x864,1536x695,Temporal Distance Task,cb_06,41.0,temp_dist_trial,dist_items,qkpkxw,2.0,response,62,899.7000000000116,1699.3999999999942,1708.1000000000058,899.7000000000116,1699.3999999999942,1708.1000000000058,1.0,808.3999999999942,0.0,,Slider,Slider,4.0,object-56,temp_dist_trial,41.0,t_i_01_1,travel_Iceland,gloves,6.0,unique,paired,t_i_01_1.jpg,Travel,$${counterbalance_group},,sub-76
Desktop or Laptop,Chromium OS 14541.0.0,Chrome 137.0.0.0,1536x864,1536x695,Temporal Distance Task,cb_06,42.0,temp_dist_trial,num_items,zn7si1,1.0,response,1_ITEM,1341.7000000000114,1332.8000000000175,1341.7000000000114,1341.7000000000114,1332.8000000000175,1341.7000000000114,1.0,0.0,0.0,,Click Response,1_count,3.0,object-46,temp_dist_trial,42.0,t_s_05_1,travel_shared,neck pillow,6.0,competing,single,t_s_05_1.jpg,Travel,$${counterbalance_group},,sub-76
Desktop or Laptop,Chromium OS 14541.0.0,Chrome 137.0.0.0,1536x864,1536x695,Temporal Distance Task,cb_06,43.0,temp_dist_trial,num_items,zn7si1,1.0,response,2_ITEM,1965.9000000000235,1949.2000000000119,1965.9000000000235,1965.9000000000235,1949.2000000000119,1965.9000000000235,1.0,0.0,0.0,,Click Response,2_count,5.0,object-49,temp_dist_trial,43.0,t_s_23_1,travel_shared,ball cap,6.0,competing,paired,t_s_23_1.jpg,Travel,$${counterbalance_group},,sub-76
Desktop or Laptop,Chromium OS 14541.0.0,Chrome 137.0.0.0,1536x864,1536x695,Temporal Distance Task,cb_06,43.0,temp_dist_trial,dist_items,qkpkxw,2.0,info,,10.400000001478476,0.0,10.400000001478476,10.400000001478476,0.0,10.400000001478476,1.0,0.0,0.0,,Slider,Slider,4.0,object-56,temp_dist_trial,43.0,t_s_23_1,travel_shared,ball cap,6.0,competing,paired,t_s_23_1.jpg,Travel,$${counterbalance_group},,sub-76
Desktop or Laptop,Chromium OS 14541.0.0,Chrome 137.0.0.0,1536x864,1536x695,Temporal Distance Task,cb_06,43.0,temp_dist_trial,dist_items,qkpkxw,2.0,continue,,2217.7000000059493,2215.6999999999825,2217.7000000059493,2217.7000000059493,2215.6999999999825,2217.7000000059493,1.0,0.0,0.0,,Click To Continue,Next button,7.0,object-60,temp_dist_trial,43.0,t_s_23_1,travel_shared,ball cap,6.0,competing,paired,t_s_23_1.jpg,Travel,$${counterbalance_group},,sub-76
Desktop or Laptop,Chromium OS 14541.0.0,Chrome 137.0.0.0,1536x864,1536x695,Temporal Distance Task,cb_06,43.0,temp_dist_trial,dist_items,qkpkxw,2.0,response,65,966.1999999999823,2215.6999999999825,2225.2999999999884,966.1999999999823,2215.6999999999825,2225.2999999999884,1.0,1259.1000000000058,0.0,,Slider,Slider,4.0,object-56,temp_dist_trial,43.0,t_s_23_1,travel_shared,ball cap,6.0,competing,paired,t_s_23_1.jpg,Travel,$${counterbalance_group},,sub-76
Desktop or Laptop,Chromium OS 14541.0.0,Chrome 137.0.0.0,1536x864,1536x695,Temporal Distance Task,cb_06,44.0,temp_dist_trial,num_items,zn7si1,1.0,response,2_ITEM,1750.0000000059665,1733.5,1750.0000000059665,1750.0000000059665,1733.5,1750.0000000059665,1.0,0.0,0.0,,Click Response,2_count,5.0,object-49,temp_dist_trial,44.0,t_s_15_1,travel_shared,luggage tag,6.0,competing,paired,t_s_15_1.jpg,Travel,$${counterbalance_group},,sub-76
Desktop or Laptop,Chromium OS 14541.0.0,Chrome 137.0.0.0,1536x864,1536x695,Temporal Distance Task,cb_06,44.0,temp_dist_trial,dist_items,qkpkxw,2.0,info,,13.200000005948825,0.0,13.200000005948825,13.200000005948825,0.0,13.200000005948825,1.0,0.0,0.0,,Slider,Slider,4.0,object-56,temp_dist_trial,44.0,t_s_15_1,travel_shared,luggage tag,6.0,competing,paired,t_s_15_1.jpg,Travel,$${counterbalance_group},,sub-76
Desktop or Laptop,Chromium OS 14541.0.0,Chrome 137.0.0.0,1536x864,1536x695,Temporal Distance Task,cb_06,44.0,temp_dist_trial,dist_items,qkpkxw,2.0,continue,,1820.1000000044587,1816.0,1820.1000000044587,1820.1000000044587,1816.0,1820.1000000044587,1.0,0.0,0.0,,Click To Continue,Next button,7.0,object-60,temp_dist_trial,44.0,t_s_15_1,travel_shared,luggage tag,6.0,competing,paired,t_s_15_1.jpg,Travel,$${counterbalance_group},,sub-76
Desktop or Laptop,Chromium OS 14541.0.0,Chrome 137.0.0.0,1536x864,1536x695,Temporal Distance Task,cb_06,44.0,temp_dist_trial,dist_items,qkpkxw,2.0,response,37,949.6999999999823,1816.0,1821.2999999999884,949.6999999999823,1816.0,1821.2999999999884,1.0,871.6000000000058,0.0,,Slider,Slider,4.0,object-56,temp_dist_trial,44.0,t_s_15_1,travel_shared,luggage tag,6.0,competing,paired,t_s_15_1.jpg,Travel,$${counterbalance_group},,sub-76
Desktop or Laptop,Chromium OS 14541.0.0,Chrome 137.0.0.0,1536x864,1536x695,Temporal Distance Task,cb_06,45.0,temp_dist_trial,num_items,zn7si1,1.0,response,1_ITEM,1047.4000000014785,1032.8999999999942,1047.4000000014785,1047.4000000014785,1032.8999999999942,1047.4000000014785,1.0,0.0,0.0,,Click Response,1_count,3.0,object-46,temp_dist_trial,45.0,t_s_09_1,travel_shared,wallet,6.0,competing,paired,t_s_09_1.jpg,Travel,$${counterbalance_group},,sub-76
Desktop or Laptop,Chromium OS 14541.0.0,Chrome 137.0.0.0,1536x864,1536x695,Temporal Distance Task,cb_06,46.0,temp_dist_trial,num_items,zn7si1,1.0,response,1_ITEM,1088.4000000059605,1083.2000000000116,1088.4000000059605,1088.4000000059605,1083.2000000000116,1088.4000000059605,1.0,0.0,0.0,,Click Response,1_count,3.0,object-46,temp_dist_trial,46.0,t_m_13_1,travel_Miami,floatie,6.0,unique,paired,t_m_13_1.jpg,Travel,$${counterbalance_group},,sub-76
Desktop or Laptop,Chromium OS 14541.0.0,Chrome 137.0.0.0,1536x864,1536x695,Temporal Distance Task,cb_06,47.0,temp_dist_trial,num_items,zn7si1,1.0,response,1_ITEM,1024.3000000059546,1016.1999999999823,1024.3000000059546,1024.3000000059546,1016.1999999999823,1024.3000000059546,1.0,0.0,0.0,,Click Response,1_count,3.0,object-46,temp_dist_trial,47.0,t_m_14_1,travel_Miami,swim goggles,6.0,unique,paired,t_m_14_1.jpg,Travel,$${counterbalance_group},,sub-76
Desktop or Laptop,Chromium OS 14541.0.0,Chrome 137.0.0.0,1536x864,1536x695,Temporal Distance Task,cb_06,48.0,temp_dist_trial,num_items,zn7si1,1.0,response,1_ITEM,909.100000005972,899.5,909.100000005972,909.100000005972,899.5,909.100000005972,1.0,0.0,0.0,,Click Response,1_count,3.0,object-46,temp_dist_trial,48.0,t_s_14_1,travel_shared,hand sanitizer,6.0,competing,paired,t_s_14_1.jpg,Travel,$${counterbalance_group},,sub-76
Desktop or Laptop,Chromium OS 14541.0.0,Chrome 137.0.0.0,1536x864,1536x695,Temporal Distance Task,cb_06,2.0,temp_eventStart,Screen 1,dgtyxe,1.0,continue,,38067.90000000148,38054.0,38067.90000000148,38067.90000000148,38054.0,38067.90000000148,1.0,0.0,0.0,,Click To Continue,Next Button,3.0,object-43,temp_eventStart,,,Student,,,,,,,$${counterbalance_group},,sub-76
Desktop or Laptop,Chromium OS 14541.0.0,Chrome 137.0.0.0,1536x864,1536x695,Temporal Distance Task,cb_06,49.0,temp_dist_trial,num_items,zn7si1,1.0,response,2_ITEM,2289.6000000044587,2282.5,2289.6000000044587,2289.6000000044587,2282.5,2289.6000000044587,1.0,0.0,0.0,,Click Response,2_count,5.0,object-49,temp_dist_trial,1.0,s_a_03_1,student_art,palette,6.0,unique,paired,s_a_03_1.jpg,Student,$${counterbalance_group},,sub-76
Desktop or Laptop,Chromium OS 14541.0.0,Chrome 137.0.0.0,1536x864,1536x695,Temporal Distance Task,cb_06,49.0,temp_dist_trial,dist_items,qkpkxw,2.0,info,,6.899999999994179,0.0,6.899999999994179,6.899999999994179,0.0,6.899999999994179,1.0,0.0,0.0,,Slider,Slider,4.0,object-56,temp_dist_trial,1.0,s_a_03_1,student_art,palette,6.0,unique,paired,s_a_03_1.jpg,Student,$${counterbalance_group},,sub-76
Desktop or Laptop,Chromium OS 14541.0.0,Chrome 137.0.0.0,1536x864,1536x695,Temporal Distance Task,cb_06,49.0,temp_dist_trial,dist_items,qkpkxw,2.0,response,dist_miss,6997.1999999999825,6997.1999999999825,6997.1999999999825,6997.1999999999825,6997.1999999999825,6997.1999999999825,1.0,0.0,0.0,dist_miss_tag,Time Limit,screen,0.0,screen,temp_dist_trial,1.0,s_a_03_1,student_art,palette,6.0,unique,paired,s_a_03_1.jpg,Student,$${counterbalance_group},,sub-76
Desktop or Laptop,Chromium OS 14541.0.0,Chrome 137.0.0.0,1536x864,1536x695,Temporal Distance Task,cb_06,49.0,temp_dist_trial,dist_items,qkpkxw,2.0,response,56,866.2999999999884,6997.1999999999825,6998.899999999994,866.2999999999884,6997.1999999999825,6998.899999999994,1.0,6132.600000000006,0.0,,Slider,Slider,4.0,object-56,temp_dist_trial,1.0,s_a_03_1,student_art,palette,6.0,unique,paired,s_a_03_1.jpg,Student,$${counterbalance_group},,sub-76
Desktop or Laptop,Chromium OS 14541.0.0,Chrome 137.0.0.0,1536x864,1536x695,Temporal Distance Task,cb_06,50.0,temp_dist_trial,num_items,zn7si1,1.0,response,2_ITEM,2161.8000000015013,2149.700000000012,2161.8000000015013,2161.8000000015013,2149.700000000012,2161.8000000015013,1.0,0.0,0.0,,Click Response,2_count,5.0,object-49,temp_dist_trial,2.0,s_sh_03_1,student_shared,highlighter,6.0,competing,single,s_sh_03_1.jpg,Student,$${counterbalance_group},,sub-76
Desktop or Laptop,Chromium OS 14541.0.0,Chrome 137.0.0.0,1536x864,1536x695,Temporal Distance Task,cb_06,50.0,temp_dist_trial,dist_items,qkpkxw,2.0,info,,8.000000005966285,0.0,8.000000005966285,8.000000005966285,0.0,8.000000005966285,1.0,0.0,0.0,,Slider,Slider,4.0,object-56,temp_dist_trial,2.0,s_sh_03_1,student_shared,highlighter,6.0,competing,single,s_sh_03_1.jpg,Student,$${counterbalance_group},,sub-76
Desktop or Laptop,Chromium OS 14541.0.0,Chrome 137.0.0.0,1536x864,1536x695,Temporal Distance Task,cb_06,50.0,temp_dist_trial,dist_items,qkpkxw,2.0,response,dist_miss,6997.7000000000135,6997.7000000000135,6997.7000000000135,6997.7000000000135,6997.7000000000135,6997.7000000000135,1.0,0.0,0.0,dist_miss_tag,Time Limit,screen,0.0,screen,temp_dist_trial,2.0,s_sh_03_1,student_shared,highlighter,6.0,competing,single,s_sh_03_1.jpg,Student,$${counterbalance_group},,sub-76
Desktop or Laptop,Chromium OS 14541.0.0,Chrome 137.0.0.0,1536x864,1536x695,Temporal Distance Task,cb_06,50.0,temp_dist_trial,dist_items,qkpkxw,2.0,response,,6999.300000002986,6997.7000000000135,6999.300000002986,6999.300000002986,6997.7000000000135,6999.300000002986,1.0,0.0,0.0,,Slider,Slider,4.0,object-56,temp_dist_trial,2.0,s_sh_03_1,student_shared,highlighter,6.0,competing,single,s_sh_03_1.jpg,Student,$${counterbalance_group},,sub-76
Desktop or Laptop,Chromium OS 14541.0.0,Chrome 137.0.0.0,1536x864,1536x695,Temporal Distance Task,cb_06,51.0,temp_dist_trial,num_items,zn7si1,1.0,response,num_miss,2999.1000000000067,2999.1000000000067,2999.1000000000067,2999.1000000000067,2999.1000000000067,2999.1000000000067,1.0,0.0,0.0,num_miss_tag,Time Limit,screen,0.0,screen,temp_dist_trial,3.0,s_s_14_1,student_stem,funnel,6.0,unique,paired,s_s_14_1.jpg,Student,$${counterbalance_group},,sub-76
Desktop or Laptop,Chromium OS 14541.0.0,Chrome 137.0.0.0,1536x864,1536x695,Temporal Distance Task,cb_06,52.0,temp_dist_trial,num_items,zn7si1,1.0,response,1_ITEM,2034.0000000059665,2032.5,2034.0000000059665,2034.0000000059665,2032.5,2034.0000000059665,1.0,0.0,0.0,,Click Response,1_count,3.0,object-46,temp_dist_trial,4.0,s_sh_07_1,student_shared,ruler,6.0,competing,single,s_sh_07_1.jpg,Student,$${counterbalance_group},,sub-76
Desktop or Laptop,Chromium OS 14541.0.0,Chrome 137.0.0.0,1536x864,1536x695,Temporal Distance Task,cb_06,53.0,temp_dist_trial,num_items,zn7si1,1.0,response,1_ITEM,2219.6000000000063,2215.700000000012,2219.6000000000063,2219.6000000000063,2215.700000000012,2219.6000000000063,1.0,0.0,0.0,,Click Response,1_count,3.0,object-46,temp_dist_trial,5.0,s_s_11_1,student_stem,scientific scale,6.0,unique,paired,s_s_11_1.jpg,Student,$${counterbalance_group},,sub-76
Desktop or Laptop,Chromium OS 14541.0.0,Chrome 137.0.0.0,1536x864,1536x695,Temporal Distance Task,cb_06,54.0,temp_dist_trial,num_items,zn7si1,1.0,response,2_ITEM,991.5,983.0,991.5,991.5,983.0,991.5,1.0,0.0,0.0,,Click Response,2_count,5.0,object-49,temp_dist_trial,6.0,s_sh_09_1,student_shared,paper clips,6.0,competing,paired,s_sh_09_1.jpg,Student,$${counterbalance_group},,sub-76
Desktop or Laptop,Chromium OS 14541.0.0,Chrome 137.0.0.0,1536x864,1536x695,Temporal Distance Task,cb_06,54.0,temp_dist_trial,dist_items,qkpkxw,2.0,info,,8.90000000447617,0.0,8.90000000447617,8.90000000447617,0.0,8.90000000447617,1.0,0.0,0.0,,Slider,Slider,4.0,object-56,temp_dist_trial,6.0,s_sh_09_1,student_shared,paper clips,6.0,competing,paired,s_sh_09_1.jpg,Student,$${counterbalance_group},,sub-76
Desktop or Laptop,Chromium OS 14541.0.0,Chrome 137.0.0.0,1536x864,1536x695,Temporal Distance Task,cb_06,54.0,temp_dist_trial,dist_items,qkpkxw,2.0,continue,,2674.300000002986,2665.6000000000063,2674.300000002986,2674.300000002986,2665.6000000000063,2674.300000002986,1.0,0.0,0.0,,Click To Continue,Next button,7.0,object-60,temp_dist_trial,6.0,s_sh_09_1,student_shared,paper clips,6.0,competing,paired,s_sh_09_1.jpg,Student,$${counterbalance_group},,sub-76
Desktop or Laptop,Chromium OS 14541.0.0,Chrome 137.0.0.0,1536x864,1536x695,Temporal Distance Task,cb_06,54.0,temp_dist_trial,dist_items,qkpkxw,2.0,response,36,2015.8999999999944,2665.6000000000063,2675.700000001496,2015.8999999999944,2665.6000000000063,2675.700000001496,1.0,659.8000000015018,0.0,,Slider,Slider,4.0,object-56,temp_dist_trial,6.0,s_sh_09_1,student_shared,paper clips,6.0,competing,paired,s_sh_09_1.jpg,Student,$${counterbalance_group},,sub-76
Desktop or Laptop,Chromium OS 14541.0.0,Chrome 137.0.0.0,1536x864,1536x695,Temporal Distance Task,cb_06,55.0,temp_dist_trial,num_items,zn7si1,1.0,response,num_miss,2998.7999999999884,2998.7999999999884,2998.7999999999884,2998.7999999999884,2998.7999999999884,2998.7999999999884,1.0,0.0,0.0,num_miss_tag,Time Limit,screen,0.0,screen,temp_dist_trial,7.0,s_a_07_1,student_art,yarn,6.0,unique,paired,s_a_07_1.jpg,Student,$${counterbalance_group},,sub-76
Desktop or Laptop,Chromium OS 14541.0.0,Chrome 137.0.0.0,1536x864,1536x695,Temporal Distance Task,cb_06,56.0,temp_dist_trial,num_items,zn7si1,1.0,response,1_ITEM,1329.1000000014901,1316.2000000000114,1329.1000000014901,1329.1000000014901,1316.2000000000114,1329.1000000014901,1.0,0.0,0.0,,Click Response,1_count,3.0,object-46,temp_dist_trial,8.0,s_sh_11_1,student_shared,pencil case,6.0,competing,paired,s_sh_11_1.jpg,Student,$${counterbalance_group},,sub-76
Desktop or Laptop,Chromium OS 14541.0.0,Chrome 137.0.0.0,1536x864,1536x695,Temporal Distance Task,cb_06,57.0,temp_dist_trial,num_items,zn7si1,1.0,response,2_ITEM,1443.0,1433.7000000000116,1443.0,1443.0,1433.7000000000116,1443.0,1.0,0.0,0.0,,Click Response,2_count,5.0,object-49,temp_dist_trial,9.0,s_sh_12_1,student_shared,binder,6.0,competing,paired,s_sh_12_1.jpg,Student,$${counterbalance_group},,sub-76
Desktop or Laptop,Chromium OS 14541.0.0,Chrome 137.0.0.0,1536x864,1536x695,Temporal Distance Task,cb_06,57.0,temp_dist_trial,dist_items,qkpkxw,2.0,info,,16.60000000000582,0.0,16.60000000000582,16.60000000000582,0.0,16.60000000000582,1.0,0.0,0.0,,Slider,Slider,4.0,object-56,temp_dist_trial,9.0,s_sh_12_1,student_shared,binder,6.0,competing,paired,s_sh_12_1.jpg,Student,$${counterbalance_group},,sub-76
Desktop or Laptop,Chromium OS 14541.0.0,Chrome 137.0.0.0,1536x864,1536x695,Temporal Distance Task,cb_06,57.0,temp_dist_trial,dist_items,qkpkxw,2.0,continue,,5143.5,5131.399999999994,5143.5,5143.5,5131.399999999994,5143.5,1.0,0.0,0.0,,Click To Continue,Next button,7.0,object-60,temp_dist_trial,9.0,s_sh_12_1,student_shared,binder,6.0,competing,paired,s_sh_12_1.jpg,Student,$${counterbalance_group},,sub-76
Desktop or Laptop,Chromium OS 14541.0.0,Chrome 137.0.0.0,1536x864,1536x695,Temporal Distance Task,cb_06,57.0,temp_dist_trial,dist_items,qkpkxw,2.0,response,65,2115.7999999999884,5131.399999999994,5144.700000002979,2115.7999999999884,5131.399999999994,5144.700000002979,1.0,3028.900000002992,0.0,,Slider,Slider,4.0,object-56,temp_dist_trial,9.0,s_sh_12_1,student_shared,binder,6.0,competing,paired,s_sh_12_1.jpg,Student,$${counterbalance_group},,sub-76
Desktop or Laptop,Chromium OS 14541.0.0,Chrome 137.0.0.0,1536x864,1536x695,Temporal Distance Task,cb_06,58.0,temp_dist_trial,num_items,zn7si1,1.0,response,2_ITEM,1306.800000002986,1299.3999999999942,1306.800000002986,1306.800000002986,1299.3999999999942,1306.800000002986,1.0,0.0,0.0,,Click Response,2_count,5.0,object-49,temp_dist_trial,10.0,s_sh_13_1,student_shared,index cards,6.0,competing,paired,s_sh_13_1.jpg,Student,$${counterbalance_group},,sub-76
Desktop or Laptop,Chromium OS 14541.0.0,Chrome 137.0.0.0,1536x864,1536x695,Temporal Distance Task,cb_06,58.0,temp_dist_trial,dist_items,qkpkxw,2.0,info,,12.799999999988358,0.0,12.799999999988358,12.799999999988358,0.0,12.799999999988358,1.0,0.0,0.0,,Slider,Slider,4.0,object-56,temp_dist_trial,10.0,s_sh_13_1,student_shared,index cards,6.0,competing,paired,s_sh_13_1.jpg,Student,$${counterbalance_group},,sub-76
Desktop or Laptop,Chromium OS 14541.0.0,Chrome 137.0.0.0,1536x864,1536x695,Temporal Distance Task,cb_06,58.0,temp_dist_trial,dist_items,qkpkxw,2.0,continue,,2114.9000000014785,2099.0999999999767,2114.9000000014785,2114.9000000014785,2099.0999999999767,2114.9000000014785,1.0,0.0,0.0,,Click To Continue,Next button,7.0,object-60,temp_dist_trial,10.0,s_sh_13_1,student_shared,index cards,6.0,competing,paired,s_sh_13_1.jpg,Student,$${counterbalance_group},,sub-76
Desktop or Laptop,Chromium OS 14541.0.0,Chrome 137.0.0.0,1536x864,1536x695,Temporal Distance Task,cb_06,58.0,temp_dist_trial,dist_items,qkpkxw,2.0,response,66,1416.0999999999767,2099.0999999999767,2115.6999999999534,1416.0999999999767,2099.0999999999767,2115.6999999999534,1.0,699.5999999999768,0.0,,Slider,Slider,4.0,object-56,temp_dist_trial,10.0,s_sh_13_1,student_shared,index cards,6.0,competing,paired,s_sh_13_1.jpg,Student,$${counterbalance_group},,sub-76
Desktop or Laptop,Chromium OS 14541.0.0,Chrome 137.0.0.0,1536x864,1536x695,Temporal Distance Task,cb_06,59.0,temp_dist_trial,num_items,zn7si1,1.0,response,2_ITEM,1482.9000000000233,1466.2000000000116,1482.9000000000233,1482.9000000000233,1466.2000000000116,1482.9000000000233,1.0,0.0,0.0,,Click Response,2_count,5.0,object-49,temp_dist_trial,11.0,s_sh_23_1,student_shared,ballpoint pen,6.0,competing,single,s_sh_23_1.jpg,Student,$${counterbalance_group},,sub-76
Desktop or Laptop,Chromium OS 14541.0.0,Chrome 137.0.0.0,1536x864,1536x695,Temporal Distance Task,cb_06,59.0,temp_dist_trial,dist_items,qkpkxw,2.0,info,,16.599999999976713,0.0,16.599999999976713,16.599999999976713,0.0,16.599999999976713,1.0,0.0,0.0,,Slider,Slider,4.0,object-56,temp_dist_trial,11.0,s_sh_23_1,student_shared,ballpoint pen,6.0,competing,single,s_sh_23_1.jpg,Student,$${counterbalance_group},,sub-76
Desktop or Laptop,Chromium OS 14541.0.0,Chrome 137.0.0.0,1536x864,1536x695,Temporal Distance Task,cb_06,59.0,temp_dist_trial,dist_items,qkpkxw,2.0,continue,,2246.600000005972,2233.4000000000233,2246.600000005972,2246.600000005972,2233.4000000000233,2246.600000005972,1.0,0.0,0.0,,Click To Continue,Next button,7.0,object-60,temp_dist_trial,11.0,s_sh_23_1,student_shared,ballpoint pen,6.0,competing,single,s_sh_23_1.jpg,Student,$${counterbalance_group},,sub-76
Desktop or Laptop,Chromium OS 14541.0.0,Chrome 137.0.0.0,1536x864,1536x695,Temporal Distance Task,cb_06,59.0,temp_dist_trial,dist_items,qkpkxw,2.0,response,57,1582.8000000000175,2233.4000000000233,2247.100000005972,1582.8000000000175,2233.4000000000233,2247.100000005972,1.0,664.3000000059546,0.0,,Slider,Slider,4.0,object-56,temp_dist_trial,11.0,s_sh_23_1,student_shared,ballpoint pen,6.0,competing,single,s_sh_23_1.jpg,Student,$${counterbalance_group},,sub-76
Desktop or Laptop,Chromium OS 14541.0.0,Chrome 137.0.0.0,1536x864,1536x695,Temporal Distance Task,cb_06,60.0,temp_dist_trial,num_items,zn7si1,1.0,response,2_ITEM,1042.1000000044587,1032.8999999999942,1042.1000000044587,1042.1000000044587,1032.8999999999942,1042.1000000044587,1.0,0.0,0.0,,Click Response,2_count,5.0,object-49,temp_dist_trial,12.0,s_a_09_1,student_art,picture frame,6.0,unique,paired,s_a_09_1.jpg,Student,$${counterbalance_group},,sub-76
Desktop or Laptop,Chromium OS 14541.0.0,Chrome 137.0.0.0,1536x864,1536x695,Temporal Distance Task,cb_06,60.0,temp_dist_trial,dist_items,qkpkxw,2.0,info,,9.0,0.0,9.0,9.0,0.0,9.0,1.0,0.0,0.0,,Slider,Slider,4.0,object-56,temp_dist_trial,12.0,s_a_09_1,student_art,picture frame,6.0,unique,paired,s_a_09_1.jpg,Student,$${counterbalance_group},,sub-76
Desktop or Laptop,Chromium OS 14541.0.0,Chrome 137.0.0.0,1536x864,1536x695,Temporal Distance Task,cb_06,60.0,temp_dist_trial,dist_items,qkpkxw,2.0,continue,,1455.4000000059605,1449.3999999999942,1455.4000000059605,1455.4000000059605,1449.3999999999942,1455.4000000059605,1.0,0.0,0.0,,Click To Continue,Next button,7.0,object-60,temp_dist_trial,12.0,s_a_09_1,student_art,picture frame,6.0,unique,paired,s_a_09_1.jpg,Student,$${counterbalance_group},,sub-76
Desktop or Laptop,Chromium OS 14541.0.0,Chrome 137.0.0.0,1536x864,1536x695,Temporal Distance Task,cb_06,60.0,temp_dist_trial,dist_items,qkpkxw,2.0,response,56,1032.8999999999942,1449.3999999999942,1457.3000000044706,1032.8999999999942,1449.3999999999942,1457.3000000044706,1.0,424.40000000447617,0.0,,Slider,Slider,4.0,object-56,temp_dist_trial,12.0,s_a_09_1,student_art,picture frame,6.0,unique,paired,s_a_09_1.jpg,Student,$${counterbalance_group},,sub-76
Desktop or Laptop,Chromium OS 14541.0.0,Chrome 137.0.0.0,1536x864,1536x695,Temporal Distance Task,cb_06,61.0,temp_dist_trial,num_items,zn7si1,1.0,response,2_ITEM,1672.9000000044766,1666.0,1672.9000000044766,1672.9000000044766,1666.0,1672.9000000044766,1.0,0.0,0.0,,Click Response,2_count,5.0,object-49,temp_dist_trial,13.0,s_s_13_1,student_stem,telescope,6.0,unique,paired,s_s_13_1.jpg,Student,$${counterbalance_group},,sub-76
Desktop or Laptop,Chromium OS 14541.0.0,Chrome 137.0.0.0,1536x864,1536x695,Temporal Distance Task,cb_06,61.0,temp_dist_trial,dist_items,qkpkxw,2.0,info,,7.7000000000116415,0.0,7.7000000000116415,7.7000000000116415,0.0,7.7000000000116415,1.0,0.0,0.0,,Slider,Slider,4.0,object-56,temp_dist_trial,13.0,s_s_13_1,student_stem,telescope,6.0,unique,paired,s_s_13_1.jpg,Student,$${counterbalance_group},,sub-76
Desktop or Laptop,Chromium OS 14541.0.0,Chrome 137.0.0.0,1536x864,1536x695,Temporal Distance Task,cb_06,61.0,temp_dist_trial,dist_items,qkpkxw,2.0,continue,,1890.300000001501,1882.6000000000056,1890.300000001501,1890.300000001501,1882.6000000000056,1890.300000001501,1.0,0.0,0.0,,Click To Continue,Next button,7.0,object-60,temp_dist_trial,13.0,s_s_13_1,student_stem,telescope,6.0,unique,paired,s_s_13_1.jpg,Student,$${counterbalance_group},,sub-76
Desktop or Laptop,Chromium OS 14541.0.0,Chrome 137.0.0.0,1536x864,1536x695,Temporal Distance Task,cb_06,61.0,temp_dist_trial,dist_items,qkpkxw,2.0,response,38,1399.4000000000233,1882.6000000000056,1891.0000000044824,1399.4000000000233,1882.6000000000056,1891.0000000044824,1.0,491.6000000044587,0.0,,Slider,Slider,4.0,object-56,temp_dist_trial,13.0,s_s_13_1,student_stem,telescope,6.0,unique,paired,s_s_13_1.jpg,Student,$${counterbalance_group},,sub-76
Desktop or Laptop,Chromium OS 14541.0.0,Chrome 137.0.0.0,1536x864,1536x695,Temporal Distance Task,cb_06,62.0,temp_dist_trial,num_items,zn7si1,1.0,response,1_ITEM,1814.0000000059665,1799.2000000000116,1814.0000000059665,1814.0000000059665,1799.2000000000116,1814.0000000059665,1.0,0.0,0.0,,Click Response,1_count,3.0,object-46,temp_dist_trial,14.0,s_sh_19_1,student_shared,portable plastic drawer,6.0,competing,single,s_sh_19_1.jpg,Student,$${counterbalance_group},,sub-76
Desktop or Laptop,Chromium OS 14541.0.0,Chrome 137.0.0.0,1536x864,1536x695,Temporal Distance Task,cb_06,63.0,temp_dist_trial,num_items,zn7si1,1.0,response,1_ITEM,2146.5,2132.5,2146.5,2146.5,2132.5,2146.5,1.0,0.0,0.0,,Click Response,1_count,3.0,object-46,temp_dist_trial,15.0,s_a_11_1,student_art,clapperboard,6.0,unique,single,s_a_11_1.jpg,Student,$${counterbalance_group},,sub-76
Desktop or Laptop,Chromium OS 14541.0.0,Chrome 137.0.0.0,1536x864,1536x695,Temporal Distance Task,cb_06,64.0,temp_dist_trial,num_items,zn7si1,1.0,response,1_ITEM,927.9000000044763,916.3000000000177,927.9000000044763,927.9000000044763,916.3000000000177,927.9000000044763,1.0,0.0,0.0,,Click Response,1_count,3.0,object-46,temp_dist_trial,16.0,s_s_18_1,student_stem,brain model,6.0,unique,single,s_s_18_1.jpg,Student,$${counterbalance_group},,sub-76
Desktop or Laptop,Chromium OS 14541.0.0,Chrome 137.0.0.0,1536x864,1536x695,Temporal Distance Task,cb_06,65.0,temp_dist_trial,num_items,zn7si1,1.0,response,1_ITEM,976.5000000014844,966.2999999999884,976.5000000014844,976.5000000014844,966.2999999999884,976.5000000014844,1.0,0.0,0.0,,Click Response,1_count,3.0,object-46,temp_dist_trial,17.0,s_a_10_1,student_art,tripod,6.0,unique,single,s_a_10_1.jpg,Student,$${counterbalance_group},,sub-76
Desktop or Laptop,Chromium OS 14541.0.0,Chrome 137.0.0.0,1536x864,1536x695,Temporal Distance Task,cb_06,66.0,temp_dist_trial,num_items,zn7si1,1.0,response,2_ITEM,1244.3999999999942,1232.8999999999942,1244.3999999999942,1244.3999999999942,1232.8999999999942,1244.3999999999942,1.0,0.0,0.0,,Click Response,2_count,5.0,object-49,temp_dist_trial,18.0,s_a_13_1,student_art,violin,6.0,unique,paired,s_a_13_1.jpg,Student,$${counterbalance_group},,sub-76
Desktop or Laptop,Chromium OS 14541.0.0,Chrome 137.0.0.0,1536x864,1536x695,Temporal Distance Task,cb_06,66.0,temp_dist_trial,dist_items,qkpkxw,2.0,info,,9.800000002986053,0.0,9.800000002986053,9.800000002986053,0.0,9.800000002986053,1.0,0.0,0.0,,Slider,Slider,4.0,object-56,temp_dist_trial,18.0,s_a_13_1,student_art,violin,6.0,unique,paired,s_a_13_1.jpg,Student,$${counterbalance_group},,sub-76
Desktop or Laptop,Chromium OS 14541.0.0,Chrome 137.0.0.0,1536x864,1536x695,Temporal Distance Task,cb_06,66.0,temp_dist_trial,dist_items,qkpkxw,2.0,continue,,1793.9000000044766,1782.6000000000058,1793.9000000044766,1793.9000000044766,1782.6000000000058,1793.9000000044766,1.0,0.0,0.0,,Click To Continue,Next button,7.0,object-60,temp_dist_trial,18.0,s_a_13_1,student_art,violin,6.0,unique,paired,s_a_13_1.jpg,Student,$${counterbalance_group},,sub-76
Desktop or Laptop,Chromium OS 14541.0.0,Chrome 137.0.0.0,1536x864,1536x695,Temporal Distance Task,cb_06,66.0,temp_dist_trial,dist_items,qkpkxw,2.0,response,30,1199.5,1782.6000000000058,1794.4000000044766,1199.5,1782.6000000000058,1794.4000000044766,1.0,594.9000000044763,0.0,,Slider,Slider,4.0,object-56,temp_dist_trial,18.0,s_a_13_1,student_art,violin,6.0,unique,paired,s_a_13_1.jpg,Student,$${counterbalance_group},,sub-76
Desktop or Laptop,Chromium OS 14541.0.0,Chrome 137.0.0.0,1536x864,1536x695,Temporal Distance Task,cb_06,67.0,temp_dist_trial,num_items,zn7si1,1.0,response,2_ITEM,1199.3000000044706,1182.8999999999942,1199.3000000044706,1199.3000000044706,1182.8999999999942,1199.3000000044706,1.0,0.0,0.0,,Click Response,2_count,5.0,object-49,temp_dist_trial,19.0,s_a_15_1,student_art,drum kit,6.0,unique,paired,s_a_15_1.jpg,Student,$${counterbalance_group},,sub-76
Desktop or Laptop,Chromium OS 14541.0.0,Chrome 137.0.0.0,1536x864,1536x695,Temporal Distance Task,cb_06,67.0,temp_dist_trial,dist_items,qkpkxw,2.0,info,,7.000000004481992,0.0,7.000000004481992,7.000000004481992,0.0,7.000000004481992,1.0,0.0,0.0,,Slider,Slider,4.0,object-56,temp_dist_trial,19.0,s_a_15_1,student_art,drum kit,6.0,unique,paired,s_a_15_1.jpg,Student,$${counterbalance_group},,sub-76
Desktop or Laptop,Chromium OS 14541.0.0,Chrome 137.0.0.0,1536x864,1536x695,Temporal Distance Task,cb_06,67.0,temp_dist_trial,dist_items,qkpkxw,2.0,continue,,1614.8000000015018,1599.4000000000233,1614.8000000015018,1614.8000000015018,1599.4000000000233,1614.8000000015018,1.0,0.0,0.0,,Click To Continue,Next button,7.0,object-60,temp_dist_trial,19.0,s_a_15_1,student_art,drum kit,6.0,unique,paired,s_a_15_1.jpg,Student,$${counterbalance_group},,sub-76
Desktop or Laptop,Chromium OS 14541.0.0,Chrome 137.0.0.0,1536x864,1536x695,Temporal Distance Task,cb_06,67.0,temp_dist_trial,dist_items,qkpkxw,2.0,response,36,799.7000000000116,1599.4000000000233,1616.1000000000354,799.7000000000116,1599.4000000000233,1616.1000000000354,1.0,816.4000000000232,0.0,,Slider,Slider,4.0,object-56,temp_dist_trial,19.0,s_a_15_1,student_art,drum kit,6.0,unique,paired,s_a_15_1.jpg,Student,$${counterbalance_group},,sub-76
Desktop or Laptop,Chromium OS 14541.0.0,Chrome 137.0.0.0,1536x864,1536x695,Temporal Distance Task,cb_06,68.0,temp_dist_trial,num_items,zn7si1,1.0,response,2_ITEM,1530.2000000059488,1516.0,1530.2000000059488,1530.2000000059488,1516.0,1530.2000000059488,1.0,0.0,0.0,,Click Response,2_count,5.0,object-49,temp_dist_trial,20.0,s_sh_22_1,student_shared,hole puncher,6.0,competing,paired,s_sh_22_1.jpg,Student,$${counterbalance_group},,sub-76
Desktop or Laptop,Chromium OS 14541.0.0,Chrome 137.0.0.0,1536x864,1536x695,Temporal Distance Task,cb_06,68.0,temp_dist_trial,dist_items,qkpkxw,2.0,info,,16.700000000011638,0.0,16.700000000011638,16.700000000011638,0.0,16.700000000011638,1.0,0.0,0.0,,Slider,Slider,4.0,object-56,temp_dist_trial,20.0,s_sh_22_1,student_shared,hole puncher,6.0,competing,paired,s_sh_22_1.jpg,Student,$${counterbalance_group},,sub-76
Desktop or Laptop,Chromium OS 14541.0.0,Chrome 137.0.0.0,1536x864,1536x695,Temporal Distance Task,cb_06,68.0,temp_dist_trial,dist_items,qkpkxw,2.0,continue,,1545.3999999999942,1532.7999999999884,1545.3999999999942,1545.3999999999942,1532.7999999999884,1545.3999999999942,1.0,0.0,0.0,,Click To Continue,Next button,7.0,object-60,temp_dist_trial,20.0,s_sh_22_1,student_shared,hole puncher,6.0,competing,paired,s_sh_22_1.jpg,Student,$${counterbalance_group},,sub-76
Desktop or Laptop,Chromium OS 14541.0.0,Chrome 137.0.0.0,1536x864,1536x695,Temporal Distance Task,cb_06,68.0,temp_dist_trial,dist_items,qkpkxw,2.0,response,42,933.0,1532.7999999999884,1547.2000000044645,933.0,1532.7999999999884,1547.2000000044645,1.0,614.2000000044645,0.0,,Slider,Slider,4.0,object-56,temp_dist_trial,20.0,s_sh_22_1,student_shared,hole puncher,6.0,competing,paired,s_sh_22_1.jpg,Student,$${counterbalance_group},,sub-76
Desktop or Laptop,Chromium OS 14541.0.0,Chrome 137.0.0.0,1536x864,1536x695,Temporal Distance Task,cb_06,69.0,temp_dist_trial,num_items,zn7si1,1.0,response,1_ITEM,1595.6000000000058,1582.6000000000058,1595.6000000000058,1595.6000000000058,1582.6000000000058,1595.6000000000058,1.0,0.0,0.0,,Click Response,1_count,3.0,object-46,temp_dist_trial,21.0,s_s_04_1,student_stem,bunsen burner,6.0,unique,single,s_s_04_1.jpg,Student,$${counterbalance_group},,sub-76
Desktop or Laptop,Chromium OS 14541.0.0,Chrome 137.0.0.0,1536x864,1536x695,Temporal Distance Task,cb_06,70.0,temp_dist_trial,num_items,zn7si1,1.0,response,2_ITEM,1302.400000004447,1299.5,1302.400000004447,1302.400000004447,1299.5,1302.400000004447,1.0,0.0,0.0,,Click Response,2_count,5.0,object-49,temp_dist_trial,22.0,s_sh_01_1,student_shared,notebook,6.0,competing,paired,s_sh_01_1.jpg,Student,$${counterbalance_group},,sub-76
Desktop or Laptop,Chromium OS 14541.0.0,Chrome 137.0.0.0,1536x864,1536x695,Temporal Distance Task,cb_06,70.0,temp_dist_trial,dist_items,qkpkxw,2.0,info,,8.200000000011643,0.0,8.200000000011643,8.200000000011643,0.0,8.200000000011643,1.0,0.0,0.0,,Slider,Slider,4.0,object-56,temp_dist_trial,22.0,s_sh_01_1,student_shared,notebook,6.0,competing,paired,s_sh_01_1.jpg,Student,$${counterbalance_group},,sub-76
Desktop or Laptop,Chromium OS 14541.0.0,Chrome 137.0.0.0,1536x864,1536x695,Temporal Distance Task,cb_06,70.0,temp_dist_trial,dist_items,qkpkxw,2.0,continue,,2886.500000004482,2883.100000000035,2886.500000004482,2886.500000004482,2883.100000000035,2886.500000004482,1.0,0.0,0.0,,Click To Continue,Next button,7.0,object-60,temp_dist_trial,22.0,s_sh_01_1,student_shared,notebook,6.0,competing,paired,s_sh_01_1.jpg,Student,$${counterbalance_group},,sub-76
Desktop or Laptop,Chromium OS 14541.0.0,Chrome 137.0.0.0,1536x864,1536x695,Temporal Distance Task,cb_06,70.0,temp_dist_trial,dist_items,qkpkxw,2.0,response,31,1682.6000000000354,2883.100000000035,2887.500000004482,1682.6000000000354,2883.100000000035,2887.500000004482,1.0,1204.900000004447,0.0,,Slider,Slider,4.0,object-56,temp_dist_trial,22.0,s_sh_01_1,student_shared,notebook,6.0,competing,paired,s_sh_01_1.jpg,Student,$${counterbalance_group},,sub-76
Desktop or Laptop,Chromium OS 14541.0.0,Chrome 137.0.0.0,1536x864,1536x695,Temporal Distance Task,cb_06,71.0,temp_dist_trial,num_items,zn7si1,1.0,response,1_ITEM,1363.5000000059372,1349.5,1363.5000000059372,1363.5000000059372,1349.5,1363.5000000059372,1.0,0.0,0.0,,Click Response,1_count,3.0,object-46,temp_dist_trial,23.0,s_sh_21_1,student_shared,file holder,6.0,competing,single,s_sh_21_1.jpg,Student,$${counterbalance_group},,sub-76
Desktop or Laptop,Chromium OS 14541.0.0,Chrome 137.0.0.0,1536x864,1536x695,Temporal Distance Task,cb_06,72.0,temp_dist_trial,num_items,zn7si1,1.0,response,1_ITEM,795.1000000059721,783.0,795.1000000059721,795.1000000059721,783.0,795.1000000059721,1.0,0.0,0.0,,Click Response,1_count,3.0,object-46,temp_dist_trial,24.0,s_sh_02_1,student_shared,eraser,6.0,competing,single,s_sh_02_1.jpg,Student,$${counterbalance_group},,sub-76
Desktop or Laptop,Chromium OS 14541.0.0,Chrome 137.0.0.0,1536x864,1536x695,Temporal Distance Task,cb_06,73.0,temp_dist_trial,num_items,zn7si1,1.0,response,1_ITEM,814.2000000059488,799.5999999999768,814.2000000059488,814.2000000059488,799.5999999999768,814.2000000059488,1.0,0.0,0.0,,Click Response,1_count,3.0,object-46,temp_dist_trial,25.0,s_s_20_1,student_stem,dna model,6.0,unique,paired,s_s_20_1.jpg,Student,$${counterbalance_group},,sub-76
Desktop or Laptop,Chromium OS 14541.0.0,Chrome 137.0.0.0,1536x864,1536x695,Temporal Distance Task,cb_06,74.0,temp_dist_trial,num_items,zn7si1,1.0,response,1_ITEM,1185.3000000015018,1182.7999999999886,1185.3000000015018,1185.3000000015018,1182.7999999999886,1185.3000000015018,1.0,0.0,0.0,,Click Response,1_count,3.0,object-46,temp_dist_trial,26.0,s_sh_17_1,student_shared,wireless mouse,6.0,competing,paired,s_sh_17_1.jpg,Student,$${counterbalance_group},,sub-76
Desktop or Laptop,Chromium OS 14541.0.0,Chrome 137.0.0.0,1536x864,1536x695,Temporal Distance Task,cb_06,75.0,temp_dist_trial,num_items,zn7si1,1.0,response,2_ITEM,1488.0,1482.7999999999884,1488.0,1488.0,1482.7999999999884,1488.0,1.0,0.0,0.0,,Click Response,2_count,5.0,object-49,temp_dist_trial,27.0,s_sh_10_1,student_shared,scissors,6.0,competing,paired,s_sh_10_1.jpg,Student,$${counterbalance_group},,sub-76
Desktop or Laptop,Chromium OS 14541.0.0,Chrome 137.0.0.0,1536x864,1536x695,Temporal Distance Task,cb_06,75.0,temp_dist_trial,dist_items,qkpkxw,2.0,info,,7.400000001478474,0.0,7.400000001478474,7.400000001478474,0.0,7.400000001478474,1.0,0.0,0.0,,Slider,Slider,4.0,object-56,temp_dist_trial,27.0,s_sh_10_1,student_shared,scissors,6.0,competing,paired,s_sh_10_1.jpg,Student,$${counterbalance_group},,sub-76
Desktop or Laptop,Chromium OS 14541.0.0,Chrome 137.0.0.0,1536x864,1536x695,Temporal Distance Task,cb_06,75.0,temp_dist_trial,dist_items,qkpkxw,2.0,continue,,1744.9000000014785,1733.2000000000116,1744.9000000014785,1744.9000000014785,1733.2000000000116,1744.9000000014785,1.0,0.0,0.0,,Click To Continue,Next button,7.0,object-60,temp_dist_trial,27.0,s_sh_10_1,student_shared,scissors,6.0,competing,paired,s_sh_10_1.jpg,Student,$${counterbalance_group},,sub-76
Desktop or Laptop,Chromium OS 14541.0.0,Chrome 137.0.0.0,1536x864,1536x695,Temporal Distance Task,cb_06,75.0,temp_dist_trial,dist_items,qkpkxw,2.0,response,62,1083.399999999965,1733.2000000000116,1749.9000000000233,1083.399999999965,1733.2000000000116,1749.9000000000233,1.0,666.5000000000582,0.0,,Slider,Slider,4.0,object-56,temp_dist_trial,27.0,s_sh_10_1,student_shared,scissors,6.0,competing,paired,s_sh_10_1.jpg,Student,$${counterbalance_group},,sub-76
Desktop or Laptop,Chromium OS 14541.0.0,Chrome 137.0.0.0,1536x864,1536x695,Temporal Distance Task,cb_06,76.0,temp_dist_trial,num_items,zn7si1,1.0,response,1_ITEM,1210.900000004447,1199.399999999965,1210.900000004447,1210.900000004447,1199.399999999965,1210.900000004447,1.0,0.0,0.0,,Click Response,1_count,3.0,object-46,temp_dist_trial,28.0,s_a_08_1,student_art,sewing machine,6.0,unique,paired,s_a_08_1.jpg,Student,$${counterbalance_group},,sub-76
Desktop or Laptop,Chromium OS 14541.0.0,Chrome 137.0.0.0,1536x864,1536x695,Temporal Distance Task,cb_06,77.0,temp_dist_trial,num_items,zn7si1,1.0,response,1_ITEM,876.6000000059721,866.2999999999884,876.6000000059721,876.6000000059721,866.2999999999884,876.6000000059721,1.0,0.0,0.0,,Click Response,1_count,3.0,object-46,temp_dist_trial,29.0,s_sh_15_1,student_shared,usb drive,6.0,competing,paired,s_sh_15_1.jpg,Student,$${counterbalance_group},,sub-76
Desktop or Laptop,Chromium OS 14541.0.0,Chrome 137.0.0.0,1536x864,1536x695,Temporal Distance Task,cb_06,78.0,temp_dist_trial,num_items,zn7si1,1.0,response,1_ITEM,1512.3000000044706,1499.4000000000233,1512.3000000044706,1512.3000000044706,1499.4000000000233,1512.3000000044706,1.0,0.0,0.0,,Click Response,1_count,3.0,object-46,temp_dist_trial,30.0,s_a_06_1,student_art,pastels,6.0,unique,paired,s_a_06_1.jpg,Student,$${counterbalance_group},,sub-76
Desktop or Laptop,Chromium OS 14541.0.0,Chrome 137.0.0.0,1536x864,1536x695,Temporal Distance Task,cb_06,79.0,temp_dist_trial,num_items,zn7si1,1.0,response,1_ITEM,959.100000005972,949.6000000000348,959.100000005972,959.100000005972,949.6000000000348,959.100000005972,1.0,0.0,0.0,,Click Response,1_count,3.0,object-46,temp_dist_trial,31.0,s_a_20_1,student_art,pin cushion,6.0,unique,single,s_a_20_1.jpg,Student,$${counterbalance_group},,sub-76
Desktop or Laptop,Chromium OS 14541.0.0,Chrome 137.0.0.0,1536x864,1536x695,Temporal Distance Task,cb_06,80.0,temp_dist_trial,num_items,zn7si1,1.0,response,2_ITEM,1395.5000000044822,1382.7999999999884,1395.5000000044822,1395.5000000044822,1382.7999999999884,1395.5000000044822,1.0,0.0,0.0,,Click Response,2_count,5.0,object-49,temp_dist_trial,32.0,s_sh_18_1,student_shared,wall calendar,6.0,competing,paired,s_sh_18_1.jpg,Student,$${counterbalance_group},,sub-76
Desktop or Laptop,Chromium OS 14541.0.0,Chrome 137.0.0.0,1536x864,1536x695,Temporal Distance Task,cb_06,80.0,temp_dist_trial,dist_items,qkpkxw,2.0,info,,8.100000001490116,0.0,8.100000001490116,8.100000001490116,0.0,8.100000001490116,1.0,0.0,0.0,,Slider,Slider,4.0,object-56,temp_dist_trial,32.0,s_sh_18_1,student_shared,wall calendar,6.0,competing,paired,s_sh_18_1.jpg,Student,$${counterbalance_group},,sub-76
Desktop or Laptop,Chromium OS 14541.0.0,Chrome 137.0.0.0,1536x864,1536x695,Temporal Distance Task,cb_06,80.0,temp_dist_trial,dist_items,qkpkxw,2.0,continue,,2299.100000000035,2282.4000000000233,2299.100000000035,2299.100000000035,2282.4000000000233,2299.100000000035,1.0,0.0,0.0,,Click To Continue,Next button,7.0,object-60,temp_dist_trial,32.0,s_sh_18_1,student_shared,wall calendar,6.0,competing,paired,s_sh_18_1.jpg,Student,$${counterbalance_group},,sub-76
Desktop or Laptop,Chromium OS 14541.0.0,Chrome 137.0.0.0,1536x864,1536x695,Temporal Distance Task,cb_06,80.0,temp_dist_trial,dist_items,qkpkxw,2.0,response,35,1399.4000000000233,2282.4000000000233,2299.100000000035,1399.4000000000233,2282.4000000000233,2299.100000000035,1.0,899.7000000000116,0.0,,Slider,Slider,4.0,object-56,temp_dist_trial,32.0,s_sh_18_1,student_shared,wall calendar,6.0,competing,paired,s_sh_18_1.jpg,Student,$${counterbalance_group},,sub-76
Desktop or Laptop,Chromium OS 14541.0.0,Chrome 137.0.0.0,1536x864,1536x695,Temporal Distance Task,cb_06,81.0,temp_dist_trial,num_items,zn7si1,1.0,response,2_ITEM,1300.7000000014666,1299.5,1300.7000000014666,1300.7000000014666,1299.5,1300.7000000014666,1.0,0.0,0.0,,Click Response,2_count,5.0,object-49,temp_dist_trial,33.0,s_sh_04_1,student_shared,laptop stand,6.0,competing,paired,s_sh_04_1.jpg,Student,$${counterbalance_group},,sub-76
Desktop or Laptop,Chromium OS 14541.0.0,Chrome 137.0.0.0,1536x864,1536x695,Temporal Distance Task,cb_06,81.0,temp_dist_trial,dist_items,qkpkxw,2.0,info,,13.50000000448199,0.0,13.50000000448199,13.50000000448199,0.0,13.50000000448199,1.0,0.0,0.0,,Slider,Slider,4.0,object-56,temp_dist_trial,33.0,s_sh_04_1,student_shared,laptop stand,6.0,competing,paired,s_sh_04_1.jpg,Student,$${counterbalance_group},,sub-76
Desktop or Laptop,Chromium OS 14541.0.0,Chrome 137.0.0.0,1536x864,1536x695,Temporal Distance Task,cb_06,81.0,temp_dist_trial,dist_items,qkpkxw,2.0,continue,,1209.4000000029919,1199.5,1209.4000000029919,1209.4000000029919,1199.5,1209.4000000029919,1.0,0.0,0.0,,Click To Continue,Next button,7.0,object-60,temp_dist_trial,33.0,s_sh_04_1,student_shared,laptop stand,6.0,competing,paired,s_sh_04_1.jpg,Student,$${counterbalance_group},,sub-76
Desktop or Laptop,Chromium OS 14541.0.0,Chrome 137.0.0.0,1536x864,1536x695,Temporal Distance Task,cb_06,81.0,temp_dist_trial,dist_items,qkpkxw,2.0,response,36,816.4000000000232,1199.5,1210.6000000059719,816.4000000000232,1199.5,1210.6000000059719,1.0,394.20000000594877,0.0,,Slider,Slider,4.0,object-56,temp_dist_trial,33.0,s_sh_04_1,student_shared,laptop stand,6.0,competing,paired,s_sh_04_1.jpg,Student,$${counterbalance_group},,sub-76
Desktop or Laptop,Chromium OS 14541.0.0,Chrome 137.0.0.0,1536x864,1536x695,Temporal Distance Task,cb_06,82.0,temp_dist_trial,num_items,zn7si1,1.0,response,1_ITEM,1435.9000000029919,1432.7999999999884,1435.9000000029919,1435.9000000029919,1432.7999999999884,1435.9000000029919,1.0,0.0,0.0,,Click Response,1_count,3.0,object-46,temp_dist_trial,34.0,s_s_06_1,student_stem,calculator,6.0,unique,paired,s_s_06_1.jpg,Student,$${counterbalance_group},,sub-76
Desktop or Laptop,Chromium OS 14541.0.0,Chrome 137.0.0.0,1536x864,1536x695,Temporal Distance Task,cb_06,83.0,temp_dist_trial,num_items,zn7si1,1.0,response,2_ITEM,1885.400000004447,1882.5999999999767,1885.400000004447,1885.400000004447,1882.5999999999767,1885.400000004447,1.0,0.0,0.0,,Click Response,2_count,5.0,object-49,temp_dist_trial,35.0,s_a_01_1,student_art,paintbrush,6.0,unique,paired,s_a_01_1.jpg,Student,$${counterbalance_group},,sub-76
Desktop or Laptop,Chromium OS 14541.0.0,Chrome 137.0.0.0,1536x864,1536x695,Temporal Distance Task,cb_06,83.0,temp_dist_trial,dist_items,qkpkxw,2.0,info,,9.800000001501758,0.0,9.800000001501758,9.800000001501758,0.0,9.800000001501758,1.0,0.0,0.0,,Slider,Slider,4.0,object-56,temp_dist_trial,35.0,s_a_01_1,student_art,paintbrush,6.0,unique,paired,s_a_01_1.jpg,Student,$${counterbalance_group},,sub-76
Desktop or Laptop,Chromium OS 14541.0.0,Chrome 137.0.0.0,1536x864,1536x695,Temporal Distance Task,cb_06,83.0,temp_dist_trial,dist_items,qkpkxw,2.0,continue,,1256.7000000000114,1249.5,1256.7000000000114,1256.7000000000114,1249.5,1256.7000000000114,1.0,0.0,0.0,,Click To Continue,Next button,7.0,object-60,temp_dist_trial,35.0,s_a_01_1,student_art,paintbrush,6.0,unique,paired,s_a_01_1.jpg,Student,$${counterbalance_group},,sub-76
Desktop or Laptop,Chromium OS 14541.0.0,Chrome 137.0.0.0,1536x864,1536x695,Temporal Distance Task,cb_06,83.0,temp_dist_trial,dist_items,qkpkxw,2.0,response,40,833.1000000000349,1249.5,1258.1000000059719,833.1000000000349,1249.5,1258.1000000059719,1.0,425.0000000059372,0.0,,Slider,Slider,4.0,object-56,temp_dist_trial,35.0,s_a_01_1,student_art,paintbrush,6.0,unique,paired,s_a_01_1.jpg,Student,$${counterbalance_group},,sub-76
Desktop or Laptop,Chromium OS 14541.0.0,Chrome 137.0.0.0,1536x864,1536x695,Temporal Distance Task,cb_06,84.0,temp_dist_trial,num_items,zn7si1,1.0,response,1_ITEM,1435.5000000044822,1432.9000000000233,1435.5000000044822,1435.5000000044822,1432.9000000000233,1435.5000000044822,1.0,0.0,0.0,,Click Response,1_count,3.0,object-46,temp_dist_trial,36.0,s_s_03_1,student_stem,petri dish,6.0,unique,paired,s_s_03_1.jpg,Student,$${counterbalance_group},,sub-76
Desktop or Laptop,Chromium OS 14541.0.0,Chrome 137.0.0.0,1536x864,1536x695,Temporal Distance Task,cb_06,85.0,temp_dist_trial,num_items,zn7si1,1.0,response,2_ITEM,1265.2000000029802,1249.5,1265.2000000029802,1265.2000000029802,1249.5,1265.2000000029802,1.0,0.0,0.0,,Click Response,2_count,5.0,object-49,temp_dist_trial,37.0,s_sh_08_1,student_shared,post-its,6.0,competing,paired,s_sh_08_1.jpg,Student,$${counterbalance_group},,sub-76
Desktop or Laptop,Chromium OS 14541.0.0,Chrome 137.0.0.0,1536x864,1536x695,Temporal Distance Task,cb_06,85.0,temp_dist_trial,dist_items,qkpkxw,2.0,info,,9.900000004447064,0.0,9.900000004447064,9.900000004447064,0.0,9.900000004447064,1.0,0.0,0.0,,Slider,Slider,4.0,object-56,temp_dist_trial,37.0,s_sh_08_1,student_shared,post-its,6.0,competing,paired,s_sh_08_1.jpg,Student,$${counterbalance_group},,sub-76
Desktop or Laptop,Chromium OS 14541.0.0,Chrome 137.0.0.0,1536x864,1536x695,Temporal Distance Task,cb_06,85.0,temp_dist_trial,dist_items,qkpkxw,2.0,continue,,1752.5999999999767,1749.3999999999646,1752.5999999999767,1752.5999999999767,1749.3999999999646,1752.5999999999767,1.0,0.0,0.0,,Click To Continue,Next button,7.0,object-60,temp_dist_trial,37.0,s_sh_08_1,student_shared,post-its,6.0,competing,paired,s_sh_08_1.jpg,Student,$${counterbalance_group},,sub-76
Desktop or Laptop,Chromium OS 14541.0.0,Chrome 137.0.0.0,1536x864,1536x695,Temporal Distance Task,cb_06,85.0,temp_dist_trial,dist_items,qkpkxw,2.0,response,34,1116.2999999999884,1749.3999999999646,1766.0999999999767,1116.2999999999884,1749.3999999999646,1766.0999999999767,1.0,649.7999999999884,0.0,,Slider,Slider,4.0,object-56,temp_dist_trial,37.0,s_sh_08_1,student_shared,post-its,6.0,competing,paired,s_sh_08_1.jpg,Student,$${counterbalance_group},,sub-76
Desktop or Laptop,Chromium OS 14541.0.0,Chrome 137.0.0.0,1536x864,1536x695,Temporal Distance Task,cb_06,86.0,temp_dist_trial,num_items,zn7si1,1.0,response,1_ITEM,1057.9000000029919,1049.5,1057.9000000029919,1057.9000000029919,1049.5,1057.9000000029919,1.0,0.0,0.0,,Click Response,1_count,3.0,object-46,temp_dist_trial,38.0,s_s_12_1,student_stem,robotic arm,6.0,unique,single,s_s_12_1.jpg,Student,$${counterbalance_group},,sub-76
Desktop or Laptop,Chromium OS 14541.0.0,Chrome 137.0.0.0,1536x864,1536x695,Temporal Distance Task,cb_06,87.0,temp_dist_trial,num_items,zn7si1,1.0,response,2_ITEM,1066.2999999999884,1049.5999999999767,1066.2999999999884,1066.2999999999884,1049.5999999999767,1066.2999999999884,1.0,0.0,0.0,,Click Response,2_count,5.0,object-49,temp_dist_trial,39.0,s_sh_06_1,student_shared,clipboard,6.0,competing,paired,s_sh_06_1.jpg,Student,$${counterbalance_group},,sub-76
Desktop or Laptop,Chromium OS 14541.0.0,Chrome 137.0.0.0,1536x864,1536x695,Temporal Distance Task,cb_06,87.0,temp_dist_trial,dist_items,qkpkxw,2.0,info,,16.600000000034925,0.0,16.600000000034925,16.600000000034925,0.0,16.600000000034925,1.0,0.0,0.0,,Slider,Slider,4.0,object-56,temp_dist_trial,39.0,s_sh_06_1,student_shared,clipboard,6.0,competing,paired,s_sh_06_1.jpg,Student,$${counterbalance_group},,sub-76
Desktop or Laptop,Chromium OS 14541.0.0,Chrome 137.0.0.0,1536x864,1536x695,Temporal Distance Task,cb_06,87.0,temp_dist_trial,dist_items,qkpkxw,2.0,continue,,2235.2000000059493,2232.399999999965,2235.2000000059493,2235.2000000059493,2232.399999999965,2235.2000000059493,1.0,0.0,0.0,,Click To Continue,Next button,7.0,object-60,temp_dist_trial,39.0,s_sh_06_1,student_shared,clipboard,6.0,competing,paired,s_sh_06_1.jpg,Student,$${counterbalance_group},,sub-76
Desktop or Laptop,Chromium OS 14541.0.0,Chrome 137.0.0.0,1536x864,1536x695,Temporal Distance Task,cb_06,87.0,temp_dist_trial,dist_items,qkpkxw,2.0,response,40,1299.399999999965,2232.399999999965,2235.7999999999884,1299.399999999965,2232.399999999965,2235.7999999999884,1.0,936.4000000000232,0.0,,Slider,Slider,4.0,object-56,temp_dist_trial,39.0,s_sh_06_1,student_shared,clipboard,6.0,competing,paired,s_sh_06_1.jpg,Student,$${counterbalance_group},,sub-76
Desktop or Laptop,Chromium OS 14541.0.0,Chrome 137.0.0.0,1536x864,1536x695,Temporal Distance Task,cb_06,88.0,temp_dist_trial,num_items,zn7si1,1.0,response,1_ITEM,948.2000000044935,933.8000000000467,948.2000000044935,948.2000000044935,933.8000000000467,948.2000000044935,1.0,0.0,0.0,,Click Response,1_count,3.0,object-46,temp_dist_trial,40.0,s_sh_05_1,student_shared,laptop,6.0,competing,single,s_sh_05_1.jpg,Student,$${counterbalance_group},,sub-76
Desktop or Laptop,Chromium OS 14541.0.0,Chrome 137.0.0.0,1536x864,1536x695,Temporal Distance Task,cb_06,89.0,temp_dist_trial,num_items,zn7si1,1.0,response,1_ITEM,1368.8000000015018,1366.100000000035,1368.8000000015018,1368.8000000015018,1366.100000000035,1368.8000000015018,1.0,0.0,0.0,,Click Response,1_count,3.0,object-46,temp_dist_trial,41.0,s_sh_14_1,student_shared,printer,6.0,competing,paired,s_sh_14_1.jpg,Student,$${counterbalance_group},,sub-76
Desktop or Laptop,Chromium OS 14541.0.0,Chrome 137.0.0.0,1536x864,1536x695,Temporal Distance Task,cb_06,90.0,temp_dist_trial,num_items,zn7si1,1.0,response,1_ITEM,775.5999999999768,766.2999999999884,775.5999999999768,775.5999999999768,766.2999999999884,775.5999999999768,1.0,0.0,0.0,,Click Response,1_count,3.0,object-46,temp_dist_trial,42.0,s_s_05_1,student_stem,lab goggles,6.0,unique,single,s_s_05_1.jpg,Student,$${counterbalance_group},,sub-76
Desktop or Laptop,Chromium OS 14541.0.0,Chrome 137.0.0.0,1536x864,1536x695,Temporal Distance Task,cb_06,91.0,temp_dist_trial,num_items,zn7si1,1.0,response,1_ITEM,1315.5000000015136,1299.4000000000233,1315.5000000015136,1315.5000000015136,1299.4000000000233,1315.5000000015136,1.0,0.0,0.0,,Click Response,1_count,3.0,object-46,temp_dist_trial,43.0,s_sh_16_1,student_shared,stapler,6.0,competing,single,s_sh_16_1.jpg,Student,$${counterbalance_group},,sub-76
Desktop or Laptop,Chromium OS 14541.0.0,Chrome 137.0.0.0,1536x864,1536x695,Temporal Distance Task,cb_06,92.0,temp_dist_trial,num_items,zn7si1,1.0,response,1_ITEM,815.0,799.7000000000116,815.0,815.0,799.7000000000116,815.0,1.0,0.0,0.0,,Click Response,1_count,3.0,object-46,temp_dist_trial,44.0,s_sh_20_1,student_shared,tape,6.0,competing,paired,s_sh_20_1.jpg,Student,$${counterbalance_group},,sub-76
Desktop or Laptop,Chromium OS 14541.0.0,Chrome 137.0.0.0,1536x864,1536x695,Temporal Distance Task,cb_06,93.0,temp_dist_trial,num_items,zn7si1,1.0,response,2_ITEM,1593.4000000000233,1582.6000000000354,1593.4000000000233,1593.4000000000233,1582.6000000000354,1593.4000000000233,1.0,0.0,0.0,,Click Response,2_count,5.0,object-49,temp_dist_trial,45.0,s_s_17_1,student_stem,ring stand,6.0,unique,paired,s_s_17_1.jpg,Student,$${counterbalance_group},,sub-76
Desktop or Laptop,Chromium OS 14541.0.0,Chrome 137.0.0.0,1536x864,1536x695,Temporal Distance Task,cb_06,93.0,temp_dist_trial,dist_items,qkpkxw,2.0,info,,16.700000000011638,0.0,16.700000000011638,16.700000000011638,0.0,16.700000000011638,1.0,0.0,0.0,,Slider,Slider,4.0,object-56,temp_dist_trial,45.0,s_s_17_1,student_stem,ring stand,6.0,unique,paired,s_s_17_1.jpg,Student,$${counterbalance_group},,sub-76
Desktop or Laptop,Chromium OS 14541.0.0,Chrome 137.0.0.0,1536x864,1536x695,Temporal Distance Task,cb_06,93.0,temp_dist_trial,dist_items,qkpkxw,2.0,continue,,1216.2000000000114,1199.5,1216.2000000000114,1216.2000000000114,1199.5,1216.2000000000114,1.0,0.0,0.0,,Click To Continue,Next button,7.0,object-60,temp_dist_trial,45.0,s_s_17_1,student_stem,ring stand,6.0,unique,paired,s_s_17_1.jpg,Student,$${counterbalance_group},,sub-76
Desktop or Laptop,Chromium OS 14541.0.0,Chrome 137.0.0.0,1536x864,1536x695,Temporal Distance Task,cb_06,93.0,temp_dist_trial,dist_items,qkpkxw,2.0,response,31,599.7999999999884,1199.5,1216.2000000000114,599.7999999999884,1199.5,1216.2000000000114,1.0,616.4000000000233,0.0,,Slider,Slider,4.0,object-56,temp_dist_trial,45.0,s_s_17_1,student_stem,ring stand,6.0,unique,paired,s_s_17_1.jpg,Student,$${counterbalance_group},,sub-76
Desktop or Laptop,Chromium OS 14541.0.0,Chrome 137.0.0.0,1536x864,1536x695,Temporal Distance Task,cb_06,94.0,temp_dist_trial,num_items,zn7si1,1.0,response,num_miss,2998.7999999999884,2998.7999999999884,2998.7999999999884,2998.7999999999884,2998.7999999999884,2998.7999999999884,1.0,0.0,0.0,num_miss_tag,Time Limit,screen,0.0,screen,temp_dist_trial,46.0,s_sh_24_1,student_shared,desk organizer,6.0,competing,paired,s_sh_24_1.jpg,Student,$${counterbalance_group},,sub-76
Desktop or Laptop,Chromium OS 14541.0.0,Chrome 137.0.0.0,1536x864,1536x695,Temporal Distance Task,cb_06,95.0,temp_dist_trial,num_items,zn7si1,1.0,response,1_ITEM,35.50000000296859,33.29999999998836,35.50000000296859,35.50000000296859,33.29999999998836,35.50000000296859,1.0,0.0,0.0,,Click Response,1_count,3.0,object-46,temp_dist_trial,47.0,s_s_16_1,student_stem,toolbox,6.0,unique,paired,s_s_16_1.jpg,Student,$${counterbalance_group},,sub-76
Desktop or Laptop,Chromium OS 14541.0.0,Chrome 137.0.0.0,1536x864,1536x695,Temporal Distance Task,cb_06,96.0,temp_dist_trial,num_items,zn7si1,1.0,response,1_ITEM,957.800000002957,949.6999999999533,957.800000002957,957.800000002957,949.6999999999533,957.800000002957,1.0,0.0,0.0,,Click Response,1_count,3.0,object-46,temp_dist_trial,48.0,s_a_04_1,student_art,easel,6.0,unique,single,s_a_04_1.jpg,Student,$${counterbalance_group},,sub-76
Desktop or Laptop,Chromium OS 14541.0.0,Chrome 137.0.0.0,1536x864,1536x695,Temporal Distance Task,,,,,,,info,END,,,313846.0,,,,,,,,,,,,,,,,,,,,,,$${counterbalance_group},,sub-76
