Participant Device,Participant OS,Participant Browser,Participant Monitor Size,Participant Viewport Size,Task Name,Current Spreadsheet,Trial Number,Display,Screen,Screen ID,Screen Counter,Response Type,Response,Onset Time,Clock Time,Reaction Time,Absolute Onset Time,Absolute Clock Time,Absolute Reaction Time,Correct,Response Duration,Proportion,Tag,Component Name,Object Name,Object Number,Object ID,Spreadsheet: display,Spreadsheet: trial,Spreadsheet: stimulus_id,Spreadsheet: expected_goal,Spreadsheet: stimulus_name,Spreadsheet: c_group,Spreadsheet: condition,Spreadsheet: paired_status,Spreadsheet: stimulus_path,Spreadsheet: block_type,Manipulation: Spreadsheet,Store: enc_test_acc,sub_label
Desktop or Laptop,Windows 10,Chrome 138.0.0.0,2560x1440,2560x1305,Temporal Distance Task,$${counterbalance_group},,,,,,info,BEGIN,,,,,,,0.0,,,,,,,,,,,,,,,,,,,,sub-09
Desktop or Laptop,Windows 10,Chrome 138.0.0.0,2560x1440,2560x1305,Temporal Distance Task,cb_04,1.0,temp_instructions,intro_screen,3tnme7,1.0,continue,,7650.10000000298,7645.6,7650.10000000298,7650.10000000298,7645.6,7650.10000000298,1.0,0.0,0.0,,Click To Continue,Continue Button,4.0,object-29,temp_instructions,,,Travel,,,,,,,,,sub-09
Desktop or Laptop,Windows 10,Chrome 138.0.0.0,2560x1440,2560x1305,Temporal Distance Task,cb_04,1.0,temp_instructions,intro_screen_2,52v7ur,2.0,continue,,15117.7,15110.8,15117.7,15117.7,15110.8,15117.7,1.0,0.0,0.0,,Click To Continue,Continue Button,4.0,object-39,temp_instructions,,,Travel,,,,,,,,,sub-09
Desktop or Laptop,Windows 10,Chrome 138.0.0.0,2560x1440,2560x1305,Temporal Distance Task,cb_04,1.0,temp_instructions,intro_screen_3,i7lvwx,3.0,continue,,5272.299999997021,5270.799999999998,5272.299999997021,5272.299999997021,5270.799999999998,5272.299999997021,1.0,0.0,0.0,,Click To Continue,Continue Button,4.0,object-67,temp_instructions,,,Travel,,,,,,,,,sub-09
Desktop or Laptop,Windows 10,Chrome 138.0.0.0,2560x1440,2560x1305,Temporal Distance Task,cb_04,1.0,temp_instructions,test_q1,5ieqx1,4.0,response,choice_3,5326.100000000002,5319.200000000002,5326.100000000002,5326.100000000002,5319.200000000002,5326.100000000002,1.0,0.0,0.0,,Click Response,choice_3,5.0,object-345,temp_instructions,,,Travel,,,,,,,,,sub-09
Desktop or Laptop,Windows 10,Chrome 138.0.0.0,2560x1440,2560x1305,Temporal Distance Task,cb_04,1.0,temp_instructions,score_corr,7ilvjr,5.0,continue,,986.7000000029802,986.0999999999983,986.7000000029802,986.7000000029802,986.0999999999983,986.7000000029802,1.0,0.0,0.0,,Click To Continue,Continue Button,3.0,object-23,temp_instructions,,,Travel,,,,,,,,,sub-09
Desktop or Laptop,Windows 10,Chrome 138.0.0.0,2560x1440,2560x1305,Temporal Distance Task,cb_04,1.0,temp_eventStart,Screen 1,dgtyxe,1.0,continue,,1566.1999999970212,1562.5999999999985,1566.1999999970212,1566.1999999970212,1562.5999999999985,1566.1999999970212,1.0,0.0,0.0,,Click To Continue,Next Button,3.0,object-43,temp_eventStart,,,Travel,,,,,,,,,sub-09
Desktop or Laptop,Windows 10,Chrome 138.0.0.0,2560x1440,2560x1305,Temporal Distance Task,cb_04,1.0,temp_dist_trial,num_items,zn7si1,1.0,response,1_ITEM,2348.000000002983,2347.0,2348.000000002983,2348.000000002983,2347.0,2348.000000002983,1.0,0.0,0.0,,Click Response,1_count,3.0,object-46,temp_dist_trial,1.0,t_s_13_1,travel_shared,contact lens case,4.0,competing,single,t_s_13_1.jpg,Travel,,,sub-09
Desktop or Laptop,Windows 10,Chrome 138.0.0.0,2560x1440,2560x1305,Temporal Distance Task,cb_04,2.0,temp_dist_trial,num_items,zn7si1,1.0,response,2_ITEM,2381.8999999940424,2375.0,2381.8999999940424,2381.8999999940424,2375.0,2381.8999999940424,1.0,0.0,0.0,,Click Response,2_count,5.0,object-49,temp_dist_trial,2.0,t_i_05_1,travel_Iceland,hiking boots,4.0,unique,paired,t_i_05_1.jpg,Travel,,,sub-09
Desktop or Laptop,Windows 10,Chrome 138.0.0.0,2560x1440,2560x1305,Temporal Distance Task,cb_04,2.0,temp_dist_trial,dist_items,qkpkxw,2.0,info,,4.599999997022676,0.0,4.599999997022676,4.599999997022676,0.0,4.599999997022676,1.0,0.0,0.0,,Slider,Slider,4.0,object-56,temp_dist_trial,2.0,t_i_05_1,travel_Iceland,hiking boots,4.0,unique,paired,t_i_05_1.jpg,Travel,,,sub-09
Desktop or Laptop,Windows 10,Chrome 138.0.0.0,2560x1440,2560x1305,Temporal Distance Task,cb_04,2.0,temp_dist_trial,dist_items,qkpkxw,2.0,continue,,3776.199999991062,3770.700000000005,3776.199999991062,3776.199999991062,3770.700000000005,3776.199999991062,1.0,0.0,0.0,,Click To Continue,Next button,7.0,object-60,temp_dist_trial,2.0,t_i_05_1,travel_Iceland,hiking boots,4.0,unique,paired,t_i_05_1.jpg,Travel,,,sub-09
Desktop or Laptop,Windows 10,Chrome 138.0.0.0,2560x1440,2560x1305,Temporal Distance Task,cb_04,2.0,temp_dist_trial,dist_items,qkpkxw,2.0,response,73,1402.7000000000046,3770.700000000005,3777.699999991062,1402.7000000000046,3770.700000000005,3777.699999991062,1.0,2374.999999991058,0.0,,Slider,Slider,4.0,object-56,temp_dist_trial,2.0,t_i_05_1,travel_Iceland,hiking boots,4.0,unique,paired,t_i_05_1.jpg,Travel,,,sub-09
Desktop or Laptop,Windows 10,Chrome 138.0.0.0,2560x1440,2560x1305,Temporal Distance Task,cb_04,3.0,temp_dist_trial,num_items,zn7si1,1.0,response,2_ITEM,1405.8000000029788,1402.7999999999954,1405.8000000029788,1405.8000000029788,1402.7999999999954,1405.8000000029788,1.0,0.0,0.0,,Click Response,2_count,5.0,object-49,temp_dist_trial,3.0,t_s_07_1,travel_shared,phone charger cable,4.0,competing,paired,t_s_07_1.jpg,Travel,,,sub-09
Desktop or Laptop,Windows 10,Chrome 138.0.0.0,2560x1440,2560x1305,Temporal Distance Task,cb_04,3.0,temp_dist_trial,dist_items,qkpkxw,2.0,info,,2.6999999970212234,0.0,2.6999999970212234,2.6999999970212234,0.0,2.6999999970212234,1.0,0.0,0.0,,Slider,Slider,4.0,object-56,temp_dist_trial,3.0,t_s_07_1,travel_shared,phone charger cable,4.0,competing,paired,t_s_07_1.jpg,Travel,,,sub-09
Desktop or Laptop,Windows 10,Chrome 138.0.0.0,2560x1440,2560x1305,Temporal Distance Task,cb_04,3.0,temp_dist_trial,dist_items,qkpkxw,2.0,continue,,1888.6999999970208,1882.0,1888.6999999970208,1888.6999999970208,1882.0,1888.6999999970208,1.0,0.0,0.0,,Click To Continue,Next button,7.0,object-60,temp_dist_trial,3.0,t_s_07_1,travel_shared,phone charger cable,4.0,competing,paired,t_s_07_1.jpg,Travel,,,sub-09
Desktop or Laptop,Windows 10,Chrome 138.0.0.0,2560x1440,2560x1305,Temporal Distance Task,cb_04,3.0,temp_dist_trial,dist_items,qkpkxw,2.0,response,70,819.5,1882.0,1889.0,819.5,1882.0,1889.0,1.0,1069.5,0.0,,Slider,Slider,4.0,object-56,temp_dist_trial,3.0,t_s_07_1,travel_shared,phone charger cable,4.0,competing,paired,t_s_07_1.jpg,Travel,,,sub-09
Desktop or Laptop,Windows 10,Chrome 138.0.0.0,2560x1440,2560x1305,Temporal Distance Task,cb_04,4.0,temp_dist_trial,num_items,zn7si1,1.0,response,1_ITEM,2665.999999994041,2659.7000000000044,2665.999999994041,2665.999999994041,2659.7000000000044,2665.999999994041,1.0,0.0,0.0,,Click Response,1_count,3.0,object-46,temp_dist_trial,4.0,t_m_12_1,travel_Miami,foldable pail and shovel,4.0,unique,paired,t_m_12_1.jpg,Travel,,,sub-09
Desktop or Laptop,Windows 10,Chrome 138.0.0.0,2560x1440,2560x1305,Temporal Distance Task,cb_04,5.0,temp_dist_trial,num_items,zn7si1,1.0,response,2_ITEM,1851.1999999910627,1847.2000000000048,1851.1999999910627,1851.1999999910627,1847.2000000000048,1851.1999999910627,1.0,0.0,0.0,,Click Response,2_count,5.0,object-49,temp_dist_trial,5.0,t_s_04_1,travel_shared,instant camera,4.0,competing,single,t_s_04_1.jpg,Travel,,,sub-09
Desktop or Laptop,Windows 10,Chrome 138.0.0.0,2560x1440,2560x1305,Temporal Distance Task,cb_04,5.0,temp_dist_trial,dist_items,qkpkxw,2.0,info,,5.099999999998545,0.0,5.099999999998545,5.099999999998545,0.0,5.099999999998545,1.0,0.0,0.0,,Slider,Slider,4.0,object-56,temp_dist_trial,5.0,t_s_04_1,travel_shared,instant camera,4.0,competing,single,t_s_04_1.jpg,Travel,,,sub-09
Desktop or Laptop,Windows 10,Chrome 138.0.0.0,2560x1440,2560x1305,Temporal Distance Task,cb_04,5.0,temp_dist_trial,dist_items,qkpkxw,2.0,continue,,2158.999999991058,2152.699999999997,2158.999999991058,2158.999999991058,2152.699999999997,2158.999999991058,1.0,0.0,0.0,,Click To Continue,Next button,7.0,object-60,temp_dist_trial,5.0,t_s_04_1,travel_shared,instant camera,4.0,competing,single,t_s_04_1.jpg,Travel,,,sub-09
Desktop or Laptop,Windows 10,Chrome 138.0.0.0,2560x1440,2560x1305,Temporal Distance Task,cb_04,5.0,temp_dist_trial,dist_items,qkpkxw,2.0,response,34,1187.5,2152.699999999997,2159.4999999999927,1187.5,2152.699999999997,2159.4999999999927,1.0,971.9999999999927,0.0,,Slider,Slider,4.0,object-56,temp_dist_trial,5.0,t_s_04_1,travel_shared,instant camera,4.0,competing,single,t_s_04_1.jpg,Travel,,,sub-09
Desktop or Laptop,Windows 10,Chrome 138.0.0.0,2560x1440,2560x1305,Temporal Distance Task,cb_04,6.0,temp_dist_trial,num_items,zn7si1,1.0,response,2_ITEM,1466.9000000000015,1465.2000000000046,1466.9000000000015,1466.9000000000015,1465.2000000000046,1466.9000000000015,1.0,0.0,0.0,,Click Response,2_count,5.0,object-49,temp_dist_trial,6.0,t_s_12_1,travel_shared,clear toiletry bag,4.0,competing,paired,t_s_12_1.jpg,Travel,,,sub-09
Desktop or Laptop,Windows 10,Chrome 138.0.0.0,2560x1440,2560x1305,Temporal Distance Task,cb_04,6.0,temp_dist_trial,dist_items,qkpkxw,2.0,info,,3.5999999999985453,0.0,3.5999999999985453,3.5999999999985453,0.0,3.5999999999985453,1.0,0.0,0.0,,Slider,Slider,4.0,object-56,temp_dist_trial,6.0,t_s_12_1,travel_shared,clear toiletry bag,4.0,competing,paired,t_s_12_1.jpg,Travel,,,sub-09
Desktop or Laptop,Windows 10,Chrome 138.0.0.0,2560x1440,2560x1305,Temporal Distance Task,cb_04,6.0,temp_dist_trial,dist_items,qkpkxw,2.0,continue,,2096.199999994038,2090.199999999997,2096.199999994038,2096.199999994038,2090.199999999997,2096.199999994038,1.0,0.0,0.0,,Click To Continue,Next button,7.0,object-60,temp_dist_trial,6.0,t_s_12_1,travel_shared,clear toiletry bag,4.0,competing,paired,t_s_12_1.jpg,Travel,,,sub-09
Desktop or Laptop,Windows 10,Chrome 138.0.0.0,2560x1440,2560x1305,Temporal Distance Task,cb_04,6.0,temp_dist_trial,dist_items,qkpkxw,2.0,response,70,1131.9000000000015,2090.199999999997,2096.699999994038,1131.9000000000015,2090.199999999997,2096.699999994038,1.0,964.7999999940364,0.0,,Slider,Slider,4.0,object-56,temp_dist_trial,6.0,t_s_12_1,travel_shared,clear toiletry bag,4.0,competing,paired,t_s_12_1.jpg,Travel,,,sub-09
Desktop or Laptop,Windows 10,Chrome 138.0.0.0,2560x1440,2560x1305,Temporal Distance Task,cb_04,7.0,temp_dist_trial,num_items,zn7si1,1.0,response,2_ITEM,1096.2999999910608,1090.2000000000044,1096.2999999910608,1096.2999999910608,1090.2000000000044,1096.2999999910608,1.0,0.0,0.0,,Click Response,2_count,5.0,object-49,temp_dist_trial,7.0,t_s_16_1,travel_shared,chapstick,4.0,competing,paired,t_s_16_1.jpg,Travel,,,sub-09
Desktop or Laptop,Windows 10,Chrome 138.0.0.0,2560x1440,2560x1305,Temporal Distance Task,cb_04,7.0,temp_dist_trial,dist_items,qkpkxw,2.0,info,,3.399999997018313,0.0,3.399999997018313,3.399999997018313,0.0,3.399999997018313,1.0,0.0,0.0,,Slider,Slider,4.0,object-56,temp_dist_trial,7.0,t_s_16_1,travel_shared,chapstick,4.0,competing,paired,t_s_16_1.jpg,Travel,,,sub-09
Desktop or Laptop,Windows 10,Chrome 138.0.0.0,2560x1440,2560x1305,Temporal Distance Task,cb_04,7.0,temp_dist_trial,dist_items,qkpkxw,2.0,continue,,2530.999999991058,2527.699999999997,2530.999999991058,2530.999999991058,2527.699999999997,2530.999999991058,1.0,0.0,0.0,,Click To Continue,Next button,7.0,object-60,temp_dist_trial,7.0,t_s_16_1,travel_shared,chapstick,4.0,competing,paired,t_s_16_1.jpg,Travel,,,sub-09
Desktop or Laptop,Windows 10,Chrome 138.0.0.0,2560x1440,2560x1305,Temporal Distance Task,cb_04,7.0,temp_dist_trial,dist_items,qkpkxw,2.0,response,32,805.5,2527.699999999997,2531.5999999999985,805.5,2527.699999999997,2531.5999999999985,1.0,1726.0999999999985,0.0,,Slider,Slider,4.0,object-56,temp_dist_trial,7.0,t_s_16_1,travel_shared,chapstick,4.0,competing,paired,t_s_16_1.jpg,Travel,,,sub-09
Desktop or Laptop,Windows 10,Chrome 138.0.0.0,2560x1440,2560x1305,Temporal Distance Task,cb_04,8.0,temp_dist_trial,num_items,zn7si1,1.0,response,1_ITEM,1797.9000000000015,1791.5999999999985,1797.9000000000015,1797.9000000000015,1791.5999999999985,1797.9000000000015,1.0,0.0,0.0,,Click Response,1_count,3.0,object-46,temp_dist_trial,8.0,t_s_21_1,travel_shared,umbrella,4.0,competing,paired,t_s_21_1.jpg,Travel,,,sub-09
Desktop or Laptop,Windows 10,Chrome 138.0.0.0,2560x1440,2560x1305,Temporal Distance Task,cb_04,9.0,temp_dist_trial,num_items,zn7si1,1.0,response,2_ITEM,1807.5000000029834,1805.5,1807.5000000029834,1807.5000000029834,1805.5,1807.5000000029834,1.0,0.0,0.0,,Click Response,2_count,5.0,object-49,temp_dist_trial,9.0,t_s_03_1,travel_shared,portable charger,4.0,competing,paired,t_s_03_1.jpg,Travel,,,sub-09
Desktop or Laptop,Windows 10,Chrome 138.0.0.0,2560x1440,2560x1305,Temporal Distance Task,cb_04,9.0,temp_dist_trial,dist_items,qkpkxw,2.0,info,,2.599999997022678,0.0,2.599999997022678,2.599999997022678,0.0,2.599999997022678,1.0,0.0,0.0,,Slider,Slider,4.0,object-56,temp_dist_trial,9.0,t_s_03_1,travel_shared,portable charger,4.0,competing,paired,t_s_03_1.jpg,Travel,,,sub-09
Desktop or Laptop,Windows 10,Chrome 138.0.0.0,2560x1440,2560x1305,Temporal Distance Task,cb_04,9.0,temp_dist_trial,dist_items,qkpkxw,2.0,continue,,1927.3000000000034,1923.5,1927.3000000000034,1927.3000000000034,1923.5,1927.3000000000034,1.0,0.0,0.0,,Click To Continue,Next button,7.0,object-60,temp_dist_trial,9.0,t_s_03_1,travel_shared,portable charger,4.0,competing,paired,t_s_03_1.jpg,Travel,,,sub-09
Desktop or Laptop,Windows 10,Chrome 138.0.0.0,2560x1440,2560x1305,Temporal Distance Task,cb_04,9.0,temp_dist_trial,dist_items,qkpkxw,2.0,response,73,715.1999999999971,1923.5,1928.1999999910627,715.1999999999971,1923.5,1928.1999999910627,1.0,1212.9999999910651,0.0,,Slider,Slider,4.0,object-56,temp_dist_trial,9.0,t_s_03_1,travel_shared,portable charger,4.0,competing,paired,t_s_03_1.jpg,Travel,,,sub-09
Desktop or Laptop,Windows 10,Chrome 138.0.0.0,2560x1440,2560x1305,Temporal Distance Task,cb_04,10.0,temp_dist_trial,num_items,zn7si1,1.0,response,1_ITEM,1148.1999999910622,1145.8000000000031,1148.1999999910622,1148.1999999910622,1145.8000000000031,1148.1999999910622,1.0,0.0,0.0,,Click Response,1_count,3.0,object-46,temp_dist_trial,10.0,t_i_19_1,travel_Iceland,rope,4.0,unique,single,t_i_19_1.jpg,Travel,,,sub-09
Desktop or Laptop,Windows 10,Chrome 138.0.0.0,2560x1440,2560x1305,Temporal Distance Task,cb_04,11.0,temp_dist_trial,num_items,zn7si1,1.0,response,1_ITEM,1326.3999999999942,1319.3999999999942,1326.3999999999942,1326.3999999999942,1319.3999999999942,1326.3999999999942,1.0,0.0,0.0,,Click Response,1_count,3.0,object-46,temp_dist_trial,11.0,t_s_15_1,travel_shared,luggage tag,4.0,competing,single,t_s_15_1.jpg,Travel,,,sub-09
Desktop or Laptop,Windows 10,Chrome 138.0.0.0,2560x1440,2560x1305,Temporal Distance Task,cb_04,12.0,temp_dist_trial,num_items,zn7si1,1.0,response,1_ITEM,1413.7999999970193,1409.6000000000058,1413.7999999970193,1413.7999999970193,1409.6000000000058,1413.7999999970193,1.0,0.0,0.0,,Click Response,1_count,3.0,object-46,temp_dist_trial,12.0,t_i_07_1,travel_Iceland,hiking backpack,4.0,unique,paired,t_i_07_1.jpg,Travel,,,sub-09
Desktop or Laptop,Windows 10,Chrome 138.0.0.0,2560x1440,2560x1305,Temporal Distance Task,cb_04,13.0,temp_dist_trial,num_items,zn7si1,1.0,response,2_ITEM,1508.199999997014,1506.8999999999942,1508.199999997014,1508.199999997014,1506.8999999999942,1508.199999997014,1.0,0.0,0.0,,Click Response,2_count,5.0,object-49,temp_dist_trial,13.0,t_s_11_1,travel_shared,eye mask,4.0,competing,paired,t_s_11_1.jpg,Travel,,,sub-09
Desktop or Laptop,Windows 10,Chrome 138.0.0.0,2560x1440,2560x1305,Temporal Distance Task,cb_04,13.0,temp_dist_trial,dist_items,qkpkxw,2.0,info,,4.8999999910593015,0.0,4.8999999910593015,4.8999999910593015,0.0,4.8999999910593015,1.0,0.0,0.0,,Slider,Slider,4.0,object-56,temp_dist_trial,13.0,t_s_11_1,travel_shared,eye mask,4.0,competing,paired,t_s_11_1.jpg,Travel,,,sub-09
Desktop or Laptop,Windows 10,Chrome 138.0.0.0,2560x1440,2560x1305,Temporal Distance Task,cb_04,13.0,temp_dist_trial,dist_items,qkpkxw,2.0,continue,,2026.20000000298,2020.8000000000034,2026.20000000298,2026.20000000298,2020.8000000000034,2026.20000000298,1.0,0.0,0.0,,Click To Continue,Next button,7.0,object-60,temp_dist_trial,13.0,t_s_11_1,travel_shared,eye mask,4.0,competing,paired,t_s_11_1.jpg,Travel,,,sub-09
Desktop or Laptop,Windows 10,Chrome 138.0.0.0,2560x1440,2560x1305,Temporal Distance Task,cb_04,13.0,temp_dist_trial,dist_items,qkpkxw,2.0,response,66,798.6000000000058,2020.8000000000034,2027.7000000000119,798.6000000000058,2020.8000000000034,2027.7000000000119,1.0,1229.1000000000058,0.0,,Slider,Slider,4.0,object-56,temp_dist_trial,13.0,t_s_11_1,travel_shared,eye mask,4.0,competing,paired,t_s_11_1.jpg,Travel,,,sub-09
Desktop or Laptop,Windows 10,Chrome 138.0.0.0,2560x1440,2560x1305,Temporal Distance Task,cb_04,14.0,temp_dist_trial,num_items,zn7si1,1.0,response,1_ITEM,1340.2000000000114,1333.3000000000031,1340.2000000000114,1340.2000000000114,1333.3000000000031,1340.2000000000114,1.0,0.0,0.0,,Click Response,1_count,3.0,object-46,temp_dist_trial,14.0,t_m_19_1,travel_Miami,surfboard,4.0,unique,single,t_m_19_1.jpg,Travel,,,sub-09
Desktop or Laptop,Windows 10,Chrome 138.0.0.0,2560x1440,2560x1305,Temporal Distance Task,cb_04,15.0,temp_dist_trial,num_items,zn7si1,1.0,response,1_ITEM,1217.2999999910535,1215.2999999999886,1217.2999999910535,1217.2999999910535,1215.2999999999886,1217.2999999910535,1.0,0.0,0.0,,Click Response,1_count,3.0,object-46,temp_dist_trial,15.0,t_m_16_1,travel_Miami,flippers,4.0,unique,single,t_m_16_1.jpg,Travel,,,sub-09
Desktop or Laptop,Windows 10,Chrome 138.0.0.0,2560x1440,2560x1305,Temporal Distance Task,cb_04,16.0,temp_dist_trial,num_items,zn7si1,1.0,response,1_ITEM,1231.3999999970254,1229.0,1231.3999999970254,1231.3999999970254,1229.0,1231.3999999970254,1.0,0.0,0.0,,Click Response,1_count,3.0,object-46,temp_dist_trial,16.0,t_m_01_1,travel_Miami,sandals,4.0,unique,paired,t_m_01_1.jpg,Travel,,,sub-09
Desktop or Laptop,Windows 10,Chrome 138.0.0.0,2560x1440,2560x1305,Temporal Distance Task,cb_04,17.0,temp_dist_trial,num_items,zn7si1,1.0,response,2_ITEM,1067.7000000029802,1062.5,1067.7000000029802,1067.7000000029802,1062.5,1067.7000000029802,1.0,0.0,0.0,,Click Response,2_count,5.0,object-49,temp_dist_trial,17.0,t_s_22_1,travel_shared,belt,4.0,competing,paired,t_s_22_1.jpg,Travel,,,sub-09
Desktop or Laptop,Windows 10,Chrome 138.0.0.0,2560x1440,2560x1305,Temporal Distance Task,cb_04,17.0,temp_dist_trial,dist_items,qkpkxw,2.0,info,,4.3999999910593015,0.0,4.3999999910593015,4.3999999910593015,0.0,4.3999999910593015,1.0,0.0,0.0,,Slider,Slider,4.0,object-56,temp_dist_trial,17.0,t_s_22_1,travel_shared,belt,4.0,competing,paired,t_s_22_1.jpg,Travel,,,sub-09
Desktop or Laptop,Windows 10,Chrome 138.0.0.0,2560x1440,2560x1305,Temporal Distance Task,cb_04,17.0,temp_dist_trial,dist_items,qkpkxw,2.0,continue,,2939.0,2937.3999999999933,2939.0,2939.0,2937.3999999999933,2939.0,1.0,0.0,0.0,,Click To Continue,Next button,7.0,object-60,temp_dist_trial,17.0,t_s_22_1,travel_shared,belt,4.0,competing,paired,t_s_22_1.jpg,Travel,,,sub-09
Desktop or Laptop,Windows 10,Chrome 138.0.0.0,2560x1440,2560x1305,Temporal Distance Task,cb_04,17.0,temp_dist_trial,dist_items,qkpkxw,2.0,response,76,1680.5,2937.3999999999933,2939.2999999970198,1680.5,2937.3999999999933,2939.2999999970198,1.0,1258.7999999970198,0.0,,Slider,Slider,4.0,object-56,temp_dist_trial,17.0,t_s_22_1,travel_shared,belt,4.0,competing,paired,t_s_22_1.jpg,Travel,,,sub-09
Desktop or Laptop,Windows 10,Chrome 138.0.0.0,2560x1440,2560x1305,Temporal Distance Task,cb_04,18.0,temp_dist_trial,num_items,zn7si1,1.0,response,2_ITEM,2213.3999999970256,2208.300000000003,2213.3999999970256,2213.3999999970256,2208.300000000003,2213.3999999970256,1.0,0.0,0.0,,Click Response,2_count,5.0,object-49,temp_dist_trial,18.0,t_s_24_1,travel_shared,ear plugs,4.0,competing,single,t_s_24_1.jpg,Travel,,,sub-09
Desktop or Laptop,Windows 10,Chrome 138.0.0.0,2560x1440,2560x1305,Temporal Distance Task,cb_04,18.0,temp_dist_trial,dist_items,qkpkxw,2.0,info,,6.1999999999970905,0.0,6.1999999999970905,6.1999999999970905,0.0,6.1999999999970905,1.0,0.0,0.0,,Slider,Slider,4.0,object-56,temp_dist_trial,18.0,t_s_24_1,travel_shared,ear plugs,4.0,competing,single,t_s_24_1.jpg,Travel,,,sub-09
Desktop or Laptop,Windows 10,Chrome 138.0.0.0,2560x1440,2560x1305,Temporal Distance Task,cb_04,18.0,temp_dist_trial,dist_items,qkpkxw,2.0,continue,,1518.2999999940366,1513.8000000000034,1518.2999999940366,1518.2999999940366,1513.8000000000034,1518.2999999940366,1.0,0.0,0.0,,Click To Continue,Next button,7.0,object-60,temp_dist_trial,18.0,t_s_24_1,travel_shared,ear plugs,4.0,competing,single,t_s_24_1.jpg,Travel,,,sub-09
Desktop or Laptop,Windows 10,Chrome 138.0.0.0,2560x1440,2560x1305,Temporal Distance Task,cb_04,18.0,temp_dist_trial,dist_items,qkpkxw,2.0,response,31,805.3999999999942,1513.8000000000034,1518.4999999970166,805.3999999999942,1513.8000000000034,1518.4999999970166,1.0,713.0999999970227,0.0,,Slider,Slider,4.0,object-56,temp_dist_trial,18.0,t_s_24_1,travel_shared,ear plugs,4.0,competing,single,t_s_24_1.jpg,Travel,,,sub-09
Desktop or Laptop,Windows 10,Chrome 138.0.0.0,2560x1440,2560x1305,Temporal Distance Task,cb_04,19.0,temp_dist_trial,num_items,zn7si1,1.0,response,1_ITEM,1665.4999999940335,1659.599999999991,1665.4999999940335,1665.4999999940335,1659.599999999991,1665.4999999940335,1.0,0.0,0.0,,Click Response,1_count,3.0,object-46,temp_dist_trial,19.0,t_i_08_1,travel_Iceland,thick socks,4.0,unique,single,t_i_08_1.jpg,Travel,,,sub-09
Desktop or Laptop,Windows 10,Chrome 138.0.0.0,2560x1440,2560x1305,Temporal Distance Task,cb_04,20.0,temp_dist_trial,num_items,zn7si1,1.0,response,1_ITEM,1876.8999999940424,1875.0,1876.8999999940424,1876.8999999940424,1875.0,1876.8999999940424,1.0,0.0,0.0,,Click Response,1_count,3.0,object-46,temp_dist_trial,20.0,t_i_03_1,travel_Iceland,winter jacket,4.0,unique,paired,t_i_03_1.jpg,Travel,,,sub-09
Desktop or Laptop,Windows 10,Chrome 138.0.0.0,2560x1440,2560x1305,Temporal Distance Task,cb_04,21.0,temp_dist_trial,num_items,zn7si1,1.0,response,2_ITEM,990.3999999999942,986.0999999999913,990.3999999999942,990.3999999999942,986.0999999999913,990.3999999999942,1.0,0.0,0.0,,Click Response,2_count,5.0,object-49,temp_dist_trial,21.0,t_s_09_1,travel_shared,wallet,4.0,competing,paired,t_s_09_1.jpg,Travel,,,sub-09
Desktop or Laptop,Windows 10,Chrome 138.0.0.0,2560x1440,2560x1305,Temporal Distance Task,cb_04,21.0,temp_dist_trial,dist_items,qkpkxw,2.0,info,,3.399999994042446,0.0,3.399999994042446,3.399999994042446,0.0,3.399999994042446,1.0,0.0,0.0,,Slider,Slider,4.0,object-56,temp_dist_trial,21.0,t_s_09_1,travel_shared,wallet,4.0,competing,paired,t_s_09_1.jpg,Travel,,,sub-09
Desktop or Laptop,Windows 10,Chrome 138.0.0.0,2560x1440,2560x1305,Temporal Distance Task,cb_04,21.0,temp_dist_trial,dist_items,qkpkxw,2.0,continue,,1454.8999999940424,1451.5,1454.8999999940424,1454.8999999940424,1451.5,1454.8999999940424,1.0,0.0,0.0,,Click To Continue,Next button,7.0,object-60,temp_dist_trial,21.0,t_s_09_1,travel_shared,wallet,4.0,competing,paired,t_s_09_1.jpg,Travel,,,sub-09
Desktop or Laptop,Windows 10,Chrome 138.0.0.0,2560x1440,2560x1305,Temporal Distance Task,cb_04,21.0,temp_dist_trial,dist_items,qkpkxw,2.0,response,74,479.1999999999971,1451.5,1455.5999999970227,479.1999999999971,1451.5,1455.5999999970227,1.0,976.3999999970256,0.0,,Slider,Slider,4.0,object-56,temp_dist_trial,21.0,t_s_09_1,travel_shared,wallet,4.0,competing,paired,t_s_09_1.jpg,Travel,,,sub-09
Desktop or Laptop,Windows 10,Chrome 138.0.0.0,2560x1440,2560x1305,Temporal Distance Task,cb_04,22.0,temp_dist_trial,num_items,zn7si1,1.0,response,2_ITEM,1309.3000000000031,1305.4000000000087,1309.3000000000031,1309.3000000000031,1305.4000000000087,1309.3000000000031,1.0,0.0,0.0,,Click Response,2_count,5.0,object-49,temp_dist_trial,22.0,t_s_20_1,travel_shared,travel pill case,4.0,competing,paired,t_s_20_1.jpg,Travel,,,sub-09
Desktop or Laptop,Windows 10,Chrome 138.0.0.0,2560x1440,2560x1305,Temporal Distance Task,cb_04,22.0,temp_dist_trial,dist_items,qkpkxw,2.0,info,,4.6000000029744115,0.0,4.6000000029744115,4.6000000029744115,0.0,4.6000000029744115,1.0,0.0,0.0,,Slider,Slider,4.0,object-56,temp_dist_trial,22.0,t_s_20_1,travel_shared,travel pill case,4.0,competing,paired,t_s_20_1.jpg,Travel,,,sub-09
Desktop or Laptop,Windows 10,Chrome 138.0.0.0,2560x1440,2560x1305,Temporal Distance Task,cb_04,22.0,temp_dist_trial,dist_items,qkpkxw,2.0,continue,,1867.9999999999854,1861.0999999999915,1867.9999999999854,1867.9999999999854,1861.0999999999915,1867.9999999999854,1.0,0.0,0.0,,Click To Continue,Next button,7.0,object-60,temp_dist_trial,22.0,t_s_20_1,travel_shared,travel pill case,4.0,competing,paired,t_s_20_1.jpg,Travel,,,sub-09
Desktop or Laptop,Windows 10,Chrome 138.0.0.0,2560x1440,2560x1305,Temporal Distance Task,cb_04,22.0,temp_dist_trial,dist_items,qkpkxw,2.0,response,69,888.8999999999942,1861.0999999999915,1867.9999999999854,888.8999999999942,1861.0999999999915,1867.9999999999854,1.0,979.0999999999913,0.0,,Slider,Slider,4.0,object-56,temp_dist_trial,22.0,t_s_20_1,travel_shared,travel pill case,4.0,competing,paired,t_s_20_1.jpg,Travel,,,sub-09
Desktop or Laptop,Windows 10,Chrome 138.0.0.0,2560x1440,2560x1305,Temporal Distance Task,cb_04,23.0,temp_dist_trial,num_items,zn7si1,1.0,response,2_ITEM,1227.0999999970227,1222.1999999999969,1227.0999999970227,1227.0999999970227,1222.1999999999969,1227.0999999970227,1.0,0.0,0.0,,Click Response,2_count,5.0,object-49,temp_dist_trial,23.0,t_s_08_1,travel_shared,hand lotion,4.0,competing,paired,t_s_08_1.jpg,Travel,,,sub-09
Desktop or Laptop,Windows 10,Chrome 138.0.0.0,2560x1440,2560x1305,Temporal Distance Task,cb_04,23.0,temp_dist_trial,dist_items,qkpkxw,2.0,info,,4.499999991065124,0.0,4.499999991065124,4.499999991065124,0.0,4.499999991065124,1.0,0.0,0.0,,Slider,Slider,4.0,object-56,temp_dist_trial,23.0,t_s_08_1,travel_shared,hand lotion,4.0,competing,paired,t_s_08_1.jpg,Travel,,,sub-09
Desktop or Laptop,Windows 10,Chrome 138.0.0.0,2560x1440,2560x1305,Temporal Distance Task,cb_04,23.0,temp_dist_trial,dist_items,qkpkxw,2.0,continue,,1684.1000000000058,1680.6000000000058,1684.1000000000058,1684.1000000000058,1680.6000000000058,1684.1000000000058,1.0,0.0,0.0,,Click To Continue,Next button,7.0,object-60,temp_dist_trial,23.0,t_s_08_1,travel_shared,hand lotion,4.0,competing,paired,t_s_08_1.jpg,Travel,,,sub-09
Desktop or Laptop,Windows 10,Chrome 138.0.0.0,2560x1440,2560x1305,Temporal Distance Task,cb_04,23.0,temp_dist_trial,dist_items,qkpkxw,2.0,response,38,604.3000000000029,1680.6000000000058,1684.4999999910654,604.3000000000029,1680.6000000000058,1684.4999999910654,1.0,1080.1999999910622,0.0,,Slider,Slider,4.0,object-56,temp_dist_trial,23.0,t_s_08_1,travel_shared,hand lotion,4.0,competing,paired,t_s_08_1.jpg,Travel,,,sub-09
Desktop or Laptop,Windows 10,Chrome 138.0.0.0,2560x1440,2560x1305,Temporal Distance Task,cb_04,24.0,temp_dist_trial,num_items,zn7si1,1.0,response,1_ITEM,1683.0,1680.5,1683.0,1683.0,1680.5,1683.0,1.0,0.0,0.0,,Click Response,1_count,3.0,object-46,temp_dist_trial,24.0,t_m_18_1,travel_Miami,waterproof tote,4.0,unique,single,t_m_18_1.jpg,Travel,,,sub-09
Desktop or Laptop,Windows 10,Chrome 138.0.0.0,2560x1440,2560x1305,Temporal Distance Task,cb_04,25.0,temp_dist_trial,num_items,zn7si1,1.0,response,2_ITEM,1217.6999999940456,1215.3000000000031,1217.6999999940456,1217.6999999940456,1215.3000000000031,1217.6999999940456,1.0,0.0,0.0,,Click Response,2_count,5.0,object-49,temp_dist_trial,25.0,t_s_05_1,travel_shared,neck pillow,4.0,competing,paired,t_s_05_1.jpg,Travel,,,sub-09
Desktop or Laptop,Windows 10,Chrome 138.0.0.0,2560x1440,2560x1305,Temporal Distance Task,cb_04,25.0,temp_dist_trial,dist_items,qkpkxw,2.0,info,,1.8000000000029104,0.0,1.8000000000029104,1.8000000000029104,0.0,1.8000000000029104,1.0,0.0,0.0,,Slider,Slider,4.0,object-56,temp_dist_trial,25.0,t_s_05_1,travel_shared,neck pillow,4.0,competing,paired,t_s_05_1.jpg,Travel,,,sub-09
Desktop or Laptop,Windows 10,Chrome 138.0.0.0,2560x1440,2560x1305,Temporal Distance Task,cb_04,25.0,temp_dist_trial,dist_items,qkpkxw,2.0,continue,,1583.3000000000034,1576.400000000009,1583.3000000000034,1583.3000000000034,1576.400000000009,1583.3000000000034,1.0,0.0,0.0,,Click To Continue,Next button,7.0,object-60,temp_dist_trial,25.0,t_s_05_1,travel_shared,neck pillow,4.0,competing,paired,t_s_05_1.jpg,Travel,,,sub-09
Desktop or Laptop,Windows 10,Chrome 138.0.0.0,2560x1440,2560x1305,Temporal Distance Task,cb_04,25.0,temp_dist_trial,dist_items,qkpkxw,2.0,response,67,652.6999999999971,1576.400000000009,1583.5000000000146,652.6999999999971,1576.400000000009,1583.5000000000146,1.0,930.8000000000177,0.0,,Slider,Slider,4.0,object-56,temp_dist_trial,25.0,t_s_05_1,travel_shared,neck pillow,4.0,competing,paired,t_s_05_1.jpg,Travel,,,sub-09
Desktop or Laptop,Windows 10,Chrome 138.0.0.0,2560x1440,2560x1305,Temporal Distance Task,cb_04,26.0,temp_dist_trial,num_items,zn7si1,1.0,response,1_ITEM,1481.4999999940335,1479.0,1481.4999999940335,1481.4999999940335,1479.0,1481.4999999940335,1.0,0.0,0.0,,Click Response,1_count,3.0,object-46,temp_dist_trial,26.0,t_s_23_1,travel_shared,ball cap,4.0,competing,single,t_s_23_1.jpg,Travel,,,sub-09
Desktop or Laptop,Windows 10,Chrome 138.0.0.0,2560x1440,2560x1305,Temporal Distance Task,cb_04,27.0,temp_dist_trial,num_items,zn7si1,1.0,response,1_ITEM,1047.6000000029744,1041.5999999999913,1047.6000000029744,1047.6000000029744,1041.5999999999913,1047.6000000029744,1.0,0.0,0.0,,Click Response,1_count,3.0,object-46,temp_dist_trial,27.0,t_i_20_1,travel_Iceland,lantern,4.0,unique,single,t_i_20_1.jpg,Travel,,,sub-09
Desktop or Laptop,Windows 10,Chrome 138.0.0.0,2560x1440,2560x1305,Temporal Distance Task,cb_04,28.0,temp_dist_trial,num_items,zn7si1,1.0,response,1_ITEM,1381.0000000029834,1375.1000000000058,1381.0000000029834,1381.0000000029834,1375.1000000000058,1381.0000000029834,1.0,0.0,0.0,,Click Response,1_count,3.0,object-46,temp_dist_trial,28.0,t_i_02_1,travel_Iceland,scarf,4.0,unique,paired,t_i_02_1.jpg,Travel,,,sub-09
Desktop or Laptop,Windows 10,Chrome 138.0.0.0,2560x1440,2560x1305,Temporal Distance Task,cb_04,29.0,temp_dist_trial,num_items,zn7si1,1.0,response,1_ITEM,1496.1999999999966,1492.8999999999942,1496.1999999999966,1496.1999999999966,1492.8999999999942,1496.1999999999966,1.0,0.0,0.0,,Click Response,1_count,3.0,object-46,temp_dist_trial,29.0,t_s_10_1,travel_shared,luggage lock,4.0,competing,single,t_s_10_1.jpg,Travel,,,sub-09
Desktop or Laptop,Windows 10,Chrome 138.0.0.0,2560x1440,2560x1305,Temporal Distance Task,cb_04,30.0,temp_dist_trial,num_items,zn7si1,1.0,response,2_ITEM,1137.4999999970169,1131.8999999999942,1137.4999999970169,1137.4999999970169,1131.8999999999942,1137.4999999970169,1.0,0.0,0.0,,Click Response,2_count,5.0,object-49,temp_dist_trial,30.0,t_m_10_1,travel_Miami,tanktop,4.0,unique,paired,t_m_10_1.jpg,Travel,,,sub-09
Desktop or Laptop,Windows 10,Chrome 138.0.0.0,2560x1440,2560x1305,Temporal Distance Task,cb_04,30.0,temp_dist_trial,dist_items,qkpkxw,2.0,info,,3.5000000029831426,0.0,3.5000000029831426,3.5000000029831426,0.0,3.5000000029831426,1.0,0.0,0.0,,Slider,Slider,4.0,object-56,temp_dist_trial,30.0,t_m_10_1,travel_Miami,tanktop,4.0,unique,paired,t_m_10_1.jpg,Travel,,,sub-09
Desktop or Laptop,Windows 10,Chrome 138.0.0.0,2560x1440,2560x1305,Temporal Distance Task,cb_04,30.0,temp_dist_trial,dist_items,qkpkxw,2.0,continue,,2915.699999991062,2909.699999999997,2915.699999991062,2915.699999991062,2909.699999999997,2915.699999991062,1.0,0.0,0.0,,Click To Continue,Next button,7.0,object-60,temp_dist_trial,30.0,t_m_10_1,travel_Miami,tanktop,4.0,unique,paired,t_m_10_1.jpg,Travel,,,sub-09
Desktop or Laptop,Windows 10,Chrome 138.0.0.0,2560x1440,2560x1305,Temporal Distance Task,cb_04,30.0,temp_dist_trial,dist_items,qkpkxw,2.0,response,74,625.0,2909.699999999997,2916.0999999970227,625.0,2909.699999999997,2916.0999999970227,1.0,2291.099999997023,0.0,,Slider,Slider,4.0,object-56,temp_dist_trial,30.0,t_m_10_1,travel_Miami,tanktop,4.0,unique,paired,t_m_10_1.jpg,Travel,,,sub-09
Desktop or Laptop,Windows 10,Chrome 138.0.0.0,2560x1440,2560x1305,Temporal Distance Task,cb_04,31.0,temp_dist_trial,num_items,zn7si1,1.0,response,1_ITEM,2212.300000002986,2208.200000000012,2212.300000002986,2212.300000002986,2208.200000000012,2212.300000002986,1.0,0.0,0.0,,Click Response,1_count,3.0,object-46,temp_dist_trial,31.0,t_i_13_1,travel_Iceland,sleeping bag,4.0,unique,paired,t_i_13_1.jpg,Travel,,,sub-09
Desktop or Laptop,Windows 10,Chrome 138.0.0.0,2560x1440,2560x1305,Temporal Distance Task,cb_04,32.0,temp_dist_trial,num_items,zn7si1,1.0,response,1_ITEM,1242.6000000029746,1236.0999999999913,1242.6000000029746,1242.6000000029746,1236.0999999999913,1242.6000000029746,1.0,0.0,0.0,,Click Response,1_count,3.0,object-46,temp_dist_trial,32.0,t_i_10_1,travel_Iceland,trekking poles,4.0,unique,single,t_i_10_1.jpg,Travel,,,sub-09
Desktop or Laptop,Windows 10,Chrome 138.0.0.0,2560x1440,2560x1305,Temporal Distance Task,cb_04,33.0,temp_dist_trial,num_items,zn7si1,1.0,response,2_ITEM,927.3999999999942,923.7999999999884,927.3999999999942,927.3999999999942,923.7999999999884,927.3999999999942,1.0,0.0,0.0,,Click Response,2_count,5.0,object-49,temp_dist_trial,33.0,t_i_17_1,travel_Iceland,binoculars,4.0,unique,paired,t_i_17_1.jpg,Travel,,,sub-09
Desktop or Laptop,Windows 10,Chrome 138.0.0.0,2560x1440,2560x1305,Temporal Distance Task,cb_04,33.0,temp_dist_trial,dist_items,qkpkxw,2.0,info,,2.400000002977322,0.0,2.400000002977322,2.400000002977322,0.0,2.400000002977322,1.0,0.0,0.0,,Slider,Slider,4.0,object-56,temp_dist_trial,33.0,t_i_17_1,travel_Iceland,binoculars,4.0,unique,paired,t_i_17_1.jpg,Travel,,,sub-09
Desktop or Laptop,Windows 10,Chrome 138.0.0.0,2560x1440,2560x1305,Temporal Distance Task,cb_04,33.0,temp_dist_trial,dist_items,qkpkxw,2.0,continue,,1683.2999999940366,1680.5,1683.2999999940366,1683.2999999940366,1680.5,1683.2999999940366,1.0,0.0,0.0,,Click To Continue,Next button,7.0,object-60,temp_dist_trial,33.0,t_i_17_1,travel_Iceland,binoculars,4.0,unique,paired,t_i_17_1.jpg,Travel,,,sub-09
Desktop or Laptop,Windows 10,Chrome 138.0.0.0,2560x1440,2560x1305,Temporal Distance Task,cb_04,33.0,temp_dist_trial,dist_items,qkpkxw,2.0,response,74,680.5,1680.5,1683.6999999999966,680.5,1680.5,1683.6999999999966,1.0,1003.1999999999972,0.0,,Slider,Slider,4.0,object-56,temp_dist_trial,33.0,t_i_17_1,travel_Iceland,binoculars,4.0,unique,paired,t_i_17_1.jpg,Travel,,,sub-09
Desktop or Laptop,Windows 10,Chrome 138.0.0.0,2560x1440,2560x1305,Temporal Distance Task,cb_04,34.0,temp_dist_trial,num_items,zn7si1,1.0,response,2_ITEM,1262.1999999999969,1256.8000000000031,1262.1999999999969,1262.1999999999969,1256.8000000000031,1262.1999999999969,1.0,0.0,0.0,,Click Response,2_count,5.0,object-49,temp_dist_trial,34.0,t_s_18_1,travel_shared,first aid kit,4.0,competing,paired,t_s_18_1.jpg,Travel,,,sub-09
Desktop or Laptop,Windows 10,Chrome 138.0.0.0,2560x1440,2560x1305,Temporal Distance Task,cb_04,34.0,temp_dist_trial,dist_items,qkpkxw,2.0,info,,2.4999999940337148,0.0,2.4999999940337148,2.4999999940337148,0.0,2.4999999940337148,1.0,0.0,0.0,,Slider,Slider,4.0,object-56,temp_dist_trial,34.0,t_s_18_1,travel_shared,first aid kit,4.0,competing,paired,t_s_18_1.jpg,Travel,,,sub-09
Desktop or Laptop,Windows 10,Chrome 138.0.0.0,2560x1440,2560x1305,Temporal Distance Task,cb_04,34.0,temp_dist_trial,dist_items,qkpkxw,2.0,continue,,1597.2999999999884,1590.3999999999942,1597.2999999999884,1597.2999999999884,1590.3999999999942,1597.2999999999884,1.0,0.0,0.0,,Click To Continue,Next button,7.0,object-60,temp_dist_trial,34.0,t_s_18_1,travel_shared,first aid kit,4.0,competing,paired,t_s_18_1.jpg,Travel,,,sub-09
Desktop or Laptop,Windows 10,Chrome 138.0.0.0,2560x1440,2560x1305,Temporal Distance Task,cb_04,34.0,temp_dist_trial,dist_items,qkpkxw,2.0,response,81,611.1999999999971,1590.3999999999942,1597.2999999999884,611.1999999999971,1590.3999999999942,1597.2999999999884,1.0,986.0999999999913,0.0,,Slider,Slider,4.0,object-56,temp_dist_trial,34.0,t_s_18_1,travel_shared,first aid kit,4.0,competing,paired,t_s_18_1.jpg,Travel,,,sub-09
Desktop or Laptop,Windows 10,Chrome 138.0.0.0,2560x1440,2560x1305,Temporal Distance Task,cb_04,35.0,temp_dist_trial,num_items,zn7si1,1.0,response,2_ITEM,1266.7999999970198,1263.7999999999886,1266.7999999970198,1266.7999999970198,1263.7999999999886,1266.7999999970198,1.0,0.0,0.0,,Click Response,2_count,5.0,object-49,temp_dist_trial,35.0,t_s_06_1,travel_shared,luggage,4.0,competing,paired,t_s_06_1.jpg,Travel,,,sub-09
Desktop or Laptop,Windows 10,Chrome 138.0.0.0,2560x1440,2560x1305,Temporal Distance Task,cb_04,35.0,temp_dist_trial,dist_items,qkpkxw,2.0,info,,3.0999999970081262,0.0,3.0999999970081262,3.0999999970081262,0.0,3.0999999970081262,1.0,0.0,0.0,,Slider,Slider,4.0,object-56,temp_dist_trial,35.0,t_s_06_1,travel_shared,luggage,4.0,competing,paired,t_s_06_1.jpg,Travel,,,sub-09
Desktop or Laptop,Windows 10,Chrome 138.0.0.0,2560x1440,2560x1305,Temporal Distance Task,cb_04,35.0,temp_dist_trial,dist_items,qkpkxw,2.0,continue,,1597.1999999999825,1590.2999999999884,1597.1999999999825,1597.1999999999825,1590.2999999999884,1597.1999999999825,1.0,0.0,0.0,,Click To Continue,Next button,7.0,object-60,temp_dist_trial,35.0,t_s_06_1,travel_shared,luggage,4.0,competing,paired,t_s_06_1.jpg,Travel,,,sub-09
Desktop or Laptop,Windows 10,Chrome 138.0.0.0,2560x1440,2560x1305,Temporal Distance Task,cb_04,35.0,temp_dist_trial,dist_items,qkpkxw,2.0,response,35,819.5,1590.2999999999884,1597.1999999999825,819.5,1590.2999999999884,1597.1999999999825,1.0,777.6999999999823,0.0,,Slider,Slider,4.0,object-56,temp_dist_trial,35.0,t_s_06_1,travel_shared,luggage,4.0,competing,paired,t_s_06_1.jpg,Travel,,,sub-09
Desktop or Laptop,Windows 10,Chrome 138.0.0.0,2560x1440,2560x1305,Temporal Distance Task,cb_04,36.0,temp_dist_trial,num_items,zn7si1,1.0,response,1_ITEM,1902.5,1895.8999999999944,1902.5,1902.5,1895.8999999999944,1902.5,1.0,0.0,0.0,,Click Response,1_count,3.0,object-46,temp_dist_trial,36.0,t_m_02_1,travel_Miami,t-shirt,4.0,unique,paired,t_m_02_1.jpg,Travel,,,sub-09
Desktop or Laptop,Windows 10,Chrome 138.0.0.0,2560x1440,2560x1305,Temporal Distance Task,cb_04,37.0,temp_dist_trial,num_items,zn7si1,1.0,response,2_ITEM,1256.8999999940281,1250.0999999999767,1256.8999999940281,1256.8999999940281,1250.0999999999767,1256.8999999940281,1.0,0.0,0.0,,Click Response,2_count,5.0,object-49,temp_dist_trial,37.0,t_m_04_1,travel_Miami,UV jacket,4.0,unique,paired,t_m_04_1.jpg,Travel,,,sub-09
Desktop or Laptop,Windows 10,Chrome 138.0.0.0,2560x1440,2560x1305,Temporal Distance Task,cb_04,37.0,temp_dist_trial,dist_items,qkpkxw,2.0,info,,2.6999999910476618,0.0,2.6999999910476618,2.6999999910476618,0.0,2.6999999910476618,1.0,0.0,0.0,,Slider,Slider,4.0,object-56,temp_dist_trial,37.0,t_m_04_1,travel_Miami,UV jacket,4.0,unique,paired,t_m_04_1.jpg,Travel,,,sub-09
Desktop or Laptop,Windows 10,Chrome 138.0.0.0,2560x1440,2560x1305,Temporal Distance Task,cb_04,37.0,temp_dist_trial,dist_items,qkpkxw,2.0,continue,,1645.8999999940281,1638.8999999999942,1645.8999999940281,1645.8999999940281,1638.8999999999942,1645.8999999940281,1.0,0.0,0.0,,Click To Continue,Next button,7.0,object-60,temp_dist_trial,37.0,t_m_04_1,travel_Miami,UV jacket,4.0,unique,paired,t_m_04_1.jpg,Travel,,,sub-09
Desktop or Laptop,Windows 10,Chrome 138.0.0.0,2560x1440,2560x1305,Temporal Distance Task,cb_04,37.0,temp_dist_trial,dist_items,qkpkxw,2.0,response,73,569.5,1638.8999999999942,1645.8999999999942,569.5,1638.8999999999942,1645.8999999999942,1.0,1076.3999999999942,0.0,,Slider,Slider,4.0,object-56,temp_dist_trial,37.0,t_m_04_1,travel_Miami,UV jacket,4.0,unique,paired,t_m_04_1.jpg,Travel,,,sub-09
Desktop or Laptop,Windows 10,Chrome 138.0.0.0,2560x1440,2560x1305,Temporal Distance Task,cb_04,38.0,temp_dist_trial,num_items,zn7si1,1.0,response,1_ITEM,1506.8999999999942,1500.0,1506.8999999999942,1506.8999999999942,1500.0,1506.8999999999942,1.0,0.0,0.0,,Click Response,1_count,3.0,object-46,temp_dist_trial,38.0,t_s_19_1,travel_shared,pajamas,4.0,competing,single,t_s_19_1.jpg,Travel,,,sub-09
Desktop or Laptop,Windows 10,Chrome 138.0.0.0,2560x1440,2560x1305,Temporal Distance Task,cb_04,39.0,temp_dist_trial,num_items,zn7si1,1.0,response,2_ITEM,1546.699999997014,1541.6000000000058,1546.699999997014,1546.699999997014,1541.6000000000058,1546.699999997014,1.0,0.0,0.0,,Click Response,2_count,5.0,object-49,temp_dist_trial,39.0,t_s_02_1,travel_shared,water bottle,4.0,competing,paired,t_s_02_1.jpg,Travel,,,sub-09
Desktop or Laptop,Windows 10,Chrome 138.0.0.0,2560x1440,2560x1305,Temporal Distance Task,cb_04,39.0,temp_dist_trial,dist_items,qkpkxw,2.0,info,,3.0999999970081262,0.0,3.0999999970081262,3.0999999970081262,0.0,3.0999999970081262,1.0,0.0,0.0,,Slider,Slider,4.0,object-56,temp_dist_trial,39.0,t_s_02_1,travel_shared,water bottle,4.0,competing,paired,t_s_02_1.jpg,Travel,,,sub-09
Desktop or Laptop,Windows 10,Chrome 138.0.0.0,2560x1440,2560x1305,Temporal Distance Task,cb_04,39.0,temp_dist_trial,dist_items,qkpkxw,2.0,continue,,1395.2999999999884,1388.7999999999884,1395.2999999999884,1395.2999999999884,1388.7999999999884,1395.2999999999884,1.0,0.0,0.0,,Click To Continue,Next button,7.0,object-60,temp_dist_trial,39.0,t_s_02_1,travel_shared,water bottle,4.0,competing,paired,t_s_02_1.jpg,Travel,,,sub-09
Desktop or Laptop,Windows 10,Chrome 138.0.0.0,2560x1440,2560x1305,Temporal Distance Task,cb_04,39.0,temp_dist_trial,dist_items,qkpkxw,2.0,response,64,499.8999999999942,1388.7999999999884,1395.5999999999767,499.8999999999942,1388.7999999999884,1395.5999999999767,1.0,895.6999999999823,0.0,,Slider,Slider,4.0,object-56,temp_dist_trial,39.0,t_s_02_1,travel_shared,water bottle,4.0,competing,paired,t_s_02_1.jpg,Travel,,,sub-09
Desktop or Laptop,Windows 10,Chrome 138.0.0.0,2560x1440,2560x1305,Temporal Distance Task,cb_04,40.0,temp_dist_trial,num_items,zn7si1,1.0,response,2_ITEM,1031.2999999970198,1027.7000000000116,1031.2999999970198,1031.2999999970198,1027.7000000000116,1031.2999999970198,1.0,0.0,0.0,,Click Response,2_count,5.0,object-49,temp_dist_trial,40.0,t_m_17_1,travel_Miami,water gun,4.0,unique,paired,t_m_17_1.jpg,Travel,,,sub-09
Desktop or Laptop,Windows 10,Chrome 138.0.0.0,2560x1440,2560x1305,Temporal Distance Task,cb_04,40.0,temp_dist_trial,dist_items,qkpkxw,2.0,info,,3.799999994051177,0.0,3.799999994051177,3.799999994051177,0.0,3.799999994051177,1.0,0.0,0.0,,Slider,Slider,4.0,object-56,temp_dist_trial,40.0,t_m_17_1,travel_Miami,water gun,4.0,unique,paired,t_m_17_1.jpg,Travel,,,sub-09
Desktop or Laptop,Windows 10,Chrome 138.0.0.0,2560x1440,2560x1305,Temporal Distance Task,cb_04,40.0,temp_dist_trial,dist_items,qkpkxw,2.0,continue,,2393.2999999940507,2388.800000000017,2393.2999999940507,2393.2999999940507,2388.800000000017,2393.2999999940507,1.0,0.0,0.0,,Click To Continue,Next button,7.0,object-60,temp_dist_trial,40.0,t_m_17_1,travel_Miami,water gun,4.0,unique,paired,t_m_17_1.jpg,Travel,,,sub-09
Desktop or Laptop,Windows 10,Chrome 138.0.0.0,2560x1440,2560x1305,Temporal Distance Task,cb_04,40.0,temp_dist_trial,dist_items,qkpkxw,2.0,response,71,520.8000000000175,2388.800000000017,2393.4999999970314,520.8000000000175,2388.800000000017,2393.4999999970314,1.0,1872.699999997014,0.0,,Slider,Slider,4.0,object-56,temp_dist_trial,40.0,t_m_17_1,travel_Miami,water gun,4.0,unique,paired,t_m_17_1.jpg,Travel,,,sub-09
Desktop or Laptop,Windows 10,Chrome 138.0.0.0,2560x1440,2560x1305,Temporal Distance Task,cb_04,41.0,temp_dist_trial,num_items,zn7si1,1.0,response,1_ITEM,1155.2999999910535,1152.7999999999886,1155.2999999910535,1155.2999999910535,1152.7999999999886,1155.2999999910535,1.0,0.0,0.0,,Click Response,1_count,3.0,object-46,temp_dist_trial,41.0,t_s_01_1,travel_shared,fanny pack,4.0,competing,single,t_s_01_1.jpg,Travel,,,sub-09
Desktop or Laptop,Windows 10,Chrome 138.0.0.0,2560x1440,2560x1305,Temporal Distance Task,cb_04,42.0,temp_dist_trial,num_items,zn7si1,1.0,response,1_ITEM,1067.300000002986,1062.5,1067.300000002986,1067.300000002986,1062.5,1067.300000002986,1.0,0.0,0.0,,Click Response,1_count,3.0,object-46,temp_dist_trial,42.0,t_m_14_1,travel_Miami,swim goggles,4.0,unique,paired,t_m_14_1.jpg,Travel,,,sub-09
Desktop or Laptop,Windows 10,Chrome 138.0.0.0,2560x1440,2560x1305,Temporal Distance Task,cb_04,43.0,temp_dist_trial,num_items,zn7si1,1.0,response,1_ITEM,1094.5999999940395,1090.1000000000058,1094.5999999940395,1094.5999999940395,1090.1000000000058,1094.5999999940395,1.0,0.0,0.0,,Click Response,1_count,3.0,object-46,temp_dist_trial,43.0,t_s_17_1,travel_shared,toothbrush,4.0,competing,paired,t_s_17_1.jpg,Travel,,,sub-09
Desktop or Laptop,Windows 10,Chrome 138.0.0.0,2560x1440,2560x1305,Temporal Distance Task,cb_04,44.0,temp_dist_trial,num_items,zn7si1,1.0,response,2_ITEM,1624.4999999940335,1618.0,1624.4999999940335,1624.4999999940335,1618.0,1624.4999999940335,1.0,0.0,0.0,,Click Response,2_count,5.0,object-49,temp_dist_trial,44.0,t_m_20_1,travel_Miami,inflatable beachball,4.0,unique,paired,t_m_20_1.jpg,Travel,,,sub-09
Desktop or Laptop,Windows 10,Chrome 138.0.0.0,2560x1440,2560x1305,Temporal Distance Task,cb_04,44.0,temp_dist_trial,dist_items,qkpkxw,2.0,info,,3.2999999999883585,0.0,3.2999999999883585,3.2999999999883585,0.0,3.2999999999883585,1.0,0.0,0.0,,Slider,Slider,4.0,object-56,temp_dist_trial,44.0,t_m_20_1,travel_Miami,inflatable beachball,4.0,unique,paired,t_m_20_1.jpg,Travel,,,sub-09
Desktop or Laptop,Windows 10,Chrome 138.0.0.0,2560x1440,2560x1305,Temporal Distance Task,cb_04,44.0,temp_dist_trial,dist_items,qkpkxw,2.0,continue,,1697.1999999910474,1694.2999999999884,1697.1999999910474,1697.1999999910474,1694.2999999999884,1697.1999999910474,1.0,0.0,0.0,,Click To Continue,Next button,7.0,object-60,temp_dist_trial,44.0,t_m_20_1,travel_Miami,inflatable beachball,4.0,unique,paired,t_m_20_1.jpg,Travel,,,sub-09
Desktop or Laptop,Windows 10,Chrome 138.0.0.0,2560x1440,2560x1305,Temporal Distance Task,cb_04,44.0,temp_dist_trial,dist_items,qkpkxw,2.0,response,29,576.2999999999884,1694.2999999999884,1701.1999999910474,576.2999999999884,1694.2999999999884,1701.1999999910474,1.0,1124.8999999910593,0.0,,Slider,Slider,4.0,object-56,temp_dist_trial,44.0,t_m_20_1,travel_Miami,inflatable beachball,4.0,unique,paired,t_m_20_1.jpg,Travel,,,sub-09
Desktop or Laptop,Windows 10,Chrome 138.0.0.0,2560x1440,2560x1305,Temporal Distance Task,cb_04,45.0,temp_dist_trial,num_items,zn7si1,1.0,response,2_ITEM,1402.2000000029807,1395.7999999999884,1402.2000000029807,1402.2000000029807,1395.7999999999884,1402.2000000029807,1.0,0.0,0.0,,Click Response,2_count,5.0,object-49,temp_dist_trial,45.0,t_s_14_1,travel_shared,hand sanitizer,4.0,competing,paired,t_s_14_1.jpg,Travel,,,sub-09
Desktop or Laptop,Windows 10,Chrome 138.0.0.0,2560x1440,2560x1305,Temporal Distance Task,cb_04,45.0,temp_dist_trial,dist_items,qkpkxw,2.0,info,,3.799999994051177,0.0,3.799999994051177,3.799999994051177,0.0,3.799999994051177,1.0,0.0,0.0,,Slider,Slider,4.0,object-56,temp_dist_trial,45.0,t_s_14_1,travel_shared,hand sanitizer,4.0,competing,paired,t_s_14_1.jpg,Travel,,,sub-09
Desktop or Laptop,Windows 10,Chrome 138.0.0.0,2560x1440,2560x1305,Temporal Distance Task,cb_04,45.0,temp_dist_trial,dist_items,qkpkxw,2.0,continue,,1800.599999991071,1798.5,1800.599999991071,1800.599999991071,1798.5,1800.599999991071,1.0,0.0,0.0,,Click To Continue,Next button,7.0,object-60,temp_dist_trial,45.0,t_s_14_1,travel_shared,hand sanitizer,4.0,competing,paired,t_s_14_1.jpg,Travel,,,sub-09
Desktop or Laptop,Windows 10,Chrome 138.0.0.0,2560x1440,2560x1305,Temporal Distance Task,cb_04,45.0,temp_dist_trial,dist_items,qkpkxw,2.0,response,71,625.1000000000057,1798.5,1800.9000000029919,625.1000000000057,1798.5,1800.9000000029919,1.0,1175.800000002986,0.0,,Slider,Slider,4.0,object-56,temp_dist_trial,45.0,t_s_14_1,travel_shared,hand sanitizer,4.0,competing,paired,t_s_14_1.jpg,Travel,,,sub-09
Desktop or Laptop,Windows 10,Chrome 138.0.0.0,2560x1440,2560x1305,Temporal Distance Task,cb_04,46.0,temp_dist_trial,num_items,zn7si1,1.0,response,1_ITEM,2427.599999991071,2423.6000000000063,2427.599999991071,2427.599999991071,2423.6000000000063,2427.599999991071,1.0,0.0,0.0,,Click Response,1_count,3.0,object-46,temp_dist_trial,46.0,t_m_15_1,travel_Miami,shorts,4.0,unique,single,t_m_15_1.jpg,Travel,,,sub-09
Desktop or Laptop,Windows 10,Chrome 138.0.0.0,2560x1440,2560x1305,Temporal Distance Task,cb_04,47.0,temp_dist_trial,num_items,zn7si1,1.0,response,2_ITEM,949.0,944.3999999999942,949.0,949.0,944.3999999999942,949.0,1.0,0.0,0.0,,Click Response,2_count,5.0,object-49,temp_dist_trial,47.0,t_i_09_1,travel_Iceland,ear muffs,4.0,unique,paired,t_i_09_1.jpg,Travel,,,sub-09
Desktop or Laptop,Windows 10,Chrome 138.0.0.0,2560x1440,2560x1305,Temporal Distance Task,cb_04,47.0,temp_dist_trial,dist_items,qkpkxw,2.0,info,,2.9999999970314093,0.0,2.9999999970314093,2.9999999970314093,0.0,2.9999999970314093,1.0,0.0,0.0,,Slider,Slider,4.0,object-56,temp_dist_trial,47.0,t_i_09_1,travel_Iceland,ear muffs,4.0,unique,paired,t_i_09_1.jpg,Travel,,,sub-09
Desktop or Laptop,Windows 10,Chrome 138.0.0.0,2560x1440,2560x1305,Temporal Distance Task,cb_04,47.0,temp_dist_trial,dist_items,qkpkxw,2.0,continue,,1564.099999991071,1562.5,1564.099999991071,1564.099999991071,1562.5,1564.099999991071,1.0,0.0,0.0,,Click To Continue,Next button,7.0,object-60,temp_dist_trial,47.0,t_i_09_1,travel_Iceland,ear muffs,4.0,unique,paired,t_i_09_1.jpg,Travel,,,sub-09
Desktop or Laptop,Windows 10,Chrome 138.0.0.0,2560x1440,2560x1305,Temporal Distance Task,cb_04,47.0,temp_dist_trial,dist_items,qkpkxw,2.0,response,72,618.0,1562.5,1564.2999999940512,618.0,1562.5,1564.2999999940512,1.0,946.2999999940512,0.0,,Slider,Slider,4.0,object-56,temp_dist_trial,47.0,t_i_09_1,travel_Iceland,ear muffs,4.0,unique,paired,t_i_09_1.jpg,Travel,,,sub-09
Desktop or Laptop,Windows 10,Chrome 138.0.0.0,2560x1440,2560x1305,Temporal Distance Task,cb_04,48.0,temp_dist_trial,num_items,zn7si1,1.0,response,2_ITEM,1087.099999991071,1083.3000000000177,1087.099999991071,1087.099999991071,1083.3000000000177,1087.099999991071,1.0,0.0,0.0,,Click Response,2_count,5.0,object-49,temp_dist_trial,48.0,t_i_15_1,travel_Iceland,compass,4.0,unique,paired,t_i_15_1.jpg,Travel,,,sub-09
Desktop or Laptop,Windows 10,Chrome 138.0.0.0,2560x1440,2560x1305,Temporal Distance Task,cb_04,48.0,temp_dist_trial,dist_items,qkpkxw,2.0,info,,3.2999999910534825,0.0,3.2999999910534825,3.2999999910534825,0.0,3.2999999910534825,1.0,0.0,0.0,,Slider,Slider,4.0,object-56,temp_dist_trial,48.0,t_i_15_1,travel_Iceland,compass,4.0,unique,paired,t_i_15_1.jpg,Travel,,,sub-09
Desktop or Laptop,Windows 10,Chrome 138.0.0.0,2560x1440,2560x1305,Temporal Distance Task,cb_04,48.0,temp_dist_trial,dist_items,qkpkxw,2.0,continue,,1198.9999999940335,1194.3999999999942,1198.9999999940335,1198.9999999940335,1194.3999999999942,1198.9999999940335,1.0,0.0,0.0,,Click To Continue,Next button,7.0,object-60,temp_dist_trial,48.0,t_i_15_1,travel_Iceland,compass,4.0,unique,paired,t_i_15_1.jpg,Travel,,,sub-09
Desktop or Laptop,Windows 10,Chrome 138.0.0.0,2560x1440,2560x1305,Temporal Distance Task,cb_04,48.0,temp_dist_trial,dist_items,qkpkxw,2.0,response,34,444.5,1194.3999999999942,1199.2999999910535,444.5,1194.3999999999942,1199.2999999910535,1.0,754.7999999910535,0.0,,Slider,Slider,4.0,object-56,temp_dist_trial,48.0,t_i_15_1,travel_Iceland,compass,4.0,unique,paired,t_i_15_1.jpg,Travel,,,sub-09
Desktop or Laptop,Windows 10,Chrome 138.0.0.0,2560x1440,2560x1305,Temporal Distance Task,cb_04,2.0,temp_eventStart,Screen 1,dgtyxe,1.0,continue,,1109.0999999940395,1104.2000000000116,1109.0999999940395,1109.0999999940395,1104.2000000000116,1109.0999999940395,1.0,0.0,0.0,,Click To Continue,Next Button,3.0,object-43,temp_eventStart,,,Student,,,,,,,,,sub-09
Desktop or Laptop,Windows 10,Chrome 138.0.0.0,2560x1440,2560x1305,Temporal Distance Task,cb_04,49.0,temp_dist_trial,num_items,zn7si1,1.0,response,1_ITEM,1465.1999999910474,1458.2999999999884,1465.1999999910474,1465.1999999910474,1458.2999999999884,1465.1999999910474,1.0,0.0,0.0,,Click Response,1_count,3.0,object-46,temp_dist_trial,1.0,s_a_08_1,student_art,sewing machine,4.0,unique,paired,s_a_08_1.jpg,Student,,,sub-09
Desktop or Laptop,Windows 10,Chrome 138.0.0.0,2560x1440,2560x1305,Temporal Distance Task,cb_04,50.0,temp_dist_trial,num_items,zn7si1,1.0,response,2_ITEM,1303.3999999970254,1298.6000000000058,1303.3999999970254,1303.3999999970254,1298.6000000000058,1303.3999999970254,1.0,0.0,0.0,,Click Response,2_count,5.0,object-49,temp_dist_trial,2.0,s_sh_10_1,student_shared,scissors,4.0,competing,paired,s_sh_10_1.jpg,Student,,,sub-09
Desktop or Laptop,Windows 10,Chrome 138.0.0.0,2560x1440,2560x1305,Temporal Distance Task,cb_04,50.0,temp_dist_trial,dist_items,qkpkxw,2.0,info,,2.899999991059304,0.0,2.899999991059304,2.899999991059304,0.0,2.899999991059304,1.0,0.0,0.0,,Slider,Slider,4.0,object-56,temp_dist_trial,2.0,s_sh_10_1,student_shared,scissors,4.0,competing,paired,s_sh_10_1.jpg,Student,,,sub-09
Desktop or Laptop,Windows 10,Chrome 138.0.0.0,2560x1440,2560x1305,Temporal Distance Task,cb_04,50.0,temp_dist_trial,dist_items,qkpkxw,2.0,continue,,2033.79999999702,2027.7999999999884,2033.79999999702,2033.79999999702,2027.7999999999884,2033.79999999702,1.0,0.0,0.0,,Click To Continue,Next button,7.0,object-60,temp_dist_trial,2.0,s_sh_10_1,student_shared,scissors,4.0,competing,paired,s_sh_10_1.jpg,Student,,,sub-09
Desktop or Laptop,Windows 10,Chrome 138.0.0.0,2560x1440,2560x1305,Temporal Distance Task,cb_04,50.0,temp_dist_trial,dist_items,qkpkxw,2.0,response,67,1034.7999999999884,2027.7999999999884,2034.29999999702,1034.7999999999884,2027.7999999999884,2034.29999999702,1.0,999.4999999970314,0.0,,Slider,Slider,4.0,object-56,temp_dist_trial,2.0,s_sh_10_1,student_shared,scissors,4.0,competing,paired,s_sh_10_1.jpg,Student,,,sub-09
Desktop or Laptop,Windows 10,Chrome 138.0.0.0,2560x1440,2560x1305,Temporal Distance Task,cb_04,51.0,temp_dist_trial,num_items,zn7si1,1.0,response,1_ITEM,1091.4000000029919,1090.2000000000116,1091.4000000029919,1091.4000000029919,1090.2000000000116,1091.4000000029919,1.0,0.0,0.0,,Click Response,1_count,3.0,object-46,temp_dist_trial,3.0,s_a_16_1,student_art,piano,4.0,unique,single,s_a_16_1.jpg,Student,,,sub-09
Desktop or Laptop,Windows 10,Chrome 138.0.0.0,2560x1440,2560x1305,Temporal Distance Task,cb_04,52.0,temp_dist_trial,num_items,zn7si1,1.0,response,1_ITEM,1461.2000000029807,1458.2000000000116,1461.2000000029807,1461.2000000029807,1458.2000000000116,1461.2000000029807,1.0,0.0,0.0,,Click Response,1_count,3.0,object-46,temp_dist_trial,4.0,s_a_02_1,student_art,canvas,4.0,unique,single,s_a_02_1.jpg,Student,,,sub-09
Desktop or Laptop,Windows 10,Chrome 138.0.0.0,2560x1440,2560x1305,Temporal Distance Task,cb_04,53.0,temp_dist_trial,num_items,zn7si1,1.0,response,1_ITEM,1312.499999999971,1305.5999999999767,1312.499999999971,1312.499999999971,1305.5999999999767,1312.499999999971,1.0,0.0,0.0,,Click Response,1_count,3.0,object-46,temp_dist_trial,5.0,s_s_01_1,student_stem,microscope,4.0,unique,single,s_s_01_1.jpg,Student,,,sub-09
Desktop or Laptop,Windows 10,Chrome 138.0.0.0,2560x1440,2560x1305,Temporal Distance Task,cb_04,54.0,temp_dist_trial,num_items,zn7si1,1.0,response,2_ITEM,1281.4000000029919,1277.8000000000175,1281.4000000029919,1281.4000000029919,1277.8000000000175,1281.4000000029919,1.0,0.0,0.0,,Click Response,2_count,5.0,object-49,temp_dist_trial,6.0,s_sh_19_1,student_shared,portable plastic drawer,4.0,competing,paired,s_sh_19_1.jpg,Student,,,sub-09
Desktop or Laptop,Windows 10,Chrome 138.0.0.0,2560x1440,2560x1305,Temporal Distance Task,cb_04,54.0,temp_dist_trial,dist_items,qkpkxw,2.0,info,,2.0999999940395355,0.0,2.0999999940395355,2.0999999940395355,0.0,2.0999999940395355,1.0,0.0,0.0,,Slider,Slider,4.0,object-56,temp_dist_trial,6.0,s_sh_19_1,student_shared,portable plastic drawer,4.0,competing,paired,s_sh_19_1.jpg,Student,,,sub-09
Desktop or Laptop,Windows 10,Chrome 138.0.0.0,2560x1440,2560x1305,Temporal Distance Task,cb_04,54.0,temp_dist_trial,dist_items,qkpkxw,2.0,continue,,1340.2999999970198,1333.3999999999942,1340.2999999970198,1340.2999999970198,1333.3999999999942,1340.2999999970198,1.0,0.0,0.0,,Click To Continue,Next button,7.0,object-60,temp_dist_trial,6.0,s_sh_19_1,student_shared,portable plastic drawer,4.0,competing,paired,s_sh_19_1.jpg,Student,,,sub-09
Desktop or Laptop,Windows 10,Chrome 138.0.0.0,2560x1440,2560x1305,Temporal Distance Task,cb_04,54.0,temp_dist_trial,dist_items,qkpkxw,2.0,response,70,583.2999999999884,1333.3999999999942,1340.3999999999942,583.2999999999884,1333.3999999999942,1340.3999999999942,1.0,757.1000000000058,0.0,,Slider,Slider,4.0,object-56,temp_dist_trial,6.0,s_sh_19_1,student_shared,portable plastic drawer,4.0,competing,paired,s_sh_19_1.jpg,Student,,,sub-09
Desktop or Laptop,Windows 10,Chrome 138.0.0.0,2560x1440,2560x1305,Temporal Distance Task,cb_04,55.0,temp_dist_trial,num_items,zn7si1,1.0,response,2_ITEM,1537.1999999940454,1534.6000000000058,1537.1999999940454,1537.1999999940454,1534.6000000000058,1537.1999999940454,1.0,0.0,0.0,,Click Response,2_count,5.0,object-49,temp_dist_trial,7.0,s_sh_15_1,student_shared,usb drive,4.0,competing,paired,s_sh_15_1.jpg,Student,,,sub-09
Desktop or Laptop,Windows 10,Chrome 138.0.0.0,2560x1440,2560x1305,Temporal Distance Task,cb_04,55.0,temp_dist_trial,dist_items,qkpkxw,2.0,info,,3.3999999999941792,0.0,3.3999999999941792,3.3999999999941792,0.0,3.3999999999941792,1.0,0.0,0.0,,Slider,Slider,4.0,object-56,temp_dist_trial,7.0,s_sh_15_1,student_shared,usb drive,4.0,competing,paired,s_sh_15_1.jpg,Student,,,sub-09
Desktop or Laptop,Windows 10,Chrome 138.0.0.0,2560x1440,2560x1305,Temporal Distance Task,cb_04,55.0,temp_dist_trial,dist_items,qkpkxw,2.0,continue,,1181.8999999999942,1180.5,1181.8999999999942,1181.8999999999942,1180.5,1181.8999999999942,1.0,0.0,0.0,,Click To Continue,Next button,7.0,object-60,temp_dist_trial,7.0,s_sh_15_1,student_shared,usb drive,4.0,competing,paired,s_sh_15_1.jpg,Student,,,sub-09
Desktop or Laptop,Windows 10,Chrome 138.0.0.0,2560x1440,2560x1305,Temporal Distance Task,cb_04,55.0,temp_dist_trial,dist_items,qkpkxw,2.0,response,35,527.7999999999884,1180.5,1182.4999999940335,527.7999999999884,1180.5,1182.4999999940335,1.0,654.6999999940454,0.0,,Slider,Slider,4.0,object-56,temp_dist_trial,7.0,s_sh_15_1,student_shared,usb drive,4.0,competing,paired,s_sh_15_1.jpg,Student,,,sub-09
Desktop or Laptop,Windows 10,Chrome 138.0.0.0,2560x1440,2560x1305,Temporal Distance Task,cb_04,56.0,temp_dist_trial,num_items,zn7si1,1.0,response,1_ITEM,1420.7999999910535,1416.6000000000058,1420.7999999910535,1420.7999999910535,1416.6000000000058,1420.7999999910535,1.0,0.0,0.0,,Click Response,1_count,3.0,object-46,temp_dist_trial,8.0,s_sh_06_1,student_shared,clipboard,4.0,competing,paired,s_sh_06_1.jpg,Student,,,sub-09
Desktop or Laptop,Windows 10,Chrome 138.0.0.0,2560x1440,2560x1305,Temporal Distance Task,cb_04,57.0,temp_dist_trial,num_items,zn7si1,1.0,response,1_ITEM,1404.2999999999884,1402.6999999999825,1404.2999999999884,1404.2999999999884,1402.6999999999825,1404.2999999999884,1.0,0.0,0.0,,Click Response,1_count,3.0,object-46,temp_dist_trial,9.0,s_sh_03_1,student_shared,highlighter,4.0,competing,paired,s_sh_03_1.jpg,Student,,,sub-09
Desktop or Laptop,Windows 10,Chrome 138.0.0.0,2560x1440,2560x1305,Temporal Distance Task,cb_04,58.0,temp_dist_trial,num_items,zn7si1,1.0,response,2_ITEM,1161.7000000029802,1159.6000000000058,1161.7000000029802,1161.7000000029802,1159.6000000000058,1161.7000000029802,1.0,0.0,0.0,,Click Response,2_count,5.0,object-49,temp_dist_trial,10.0,s_sh_02_1,student_shared,eraser,4.0,competing,paired,s_sh_02_1.jpg,Student,,,sub-09
Desktop or Laptop,Windows 10,Chrome 138.0.0.0,2560x1440,2560x1305,Temporal Distance Task,cb_04,58.0,temp_dist_trial,dist_items,qkpkxw,2.0,info,,2.700000002980232,0.0,2.700000002980232,2.700000002980232,0.0,2.700000002980232,1.0,0.0,0.0,,Slider,Slider,4.0,object-56,temp_dist_trial,10.0,s_sh_02_1,student_shared,eraser,4.0,competing,paired,s_sh_02_1.jpg,Student,,,sub-09
Desktop or Laptop,Windows 10,Chrome 138.0.0.0,2560x1440,2560x1305,Temporal Distance Task,cb_04,58.0,temp_dist_trial,dist_items,qkpkxw,2.0,continue,,1306.8999999910593,1305.6000000000058,1306.8999999910593,1306.8999999910593,1305.6000000000058,1306.8999999910593,1.0,0.0,0.0,,Click To Continue,Next button,7.0,object-60,temp_dist_trial,10.0,s_sh_02_1,student_shared,eraser,4.0,competing,paired,s_sh_02_1.jpg,Student,,,sub-09
Desktop or Laptop,Windows 10,Chrome 138.0.0.0,2560x1440,2560x1305,Temporal Distance Task,cb_04,58.0,temp_dist_trial,dist_items,qkpkxw,2.0,response,67,507.1000000000058,1305.6000000000058,1307.2999999970198,507.1000000000058,1305.6000000000058,1307.2999999970198,1.0,800.1999999970142,0.0,,Slider,Slider,4.0,object-56,temp_dist_trial,10.0,s_sh_02_1,student_shared,eraser,4.0,competing,paired,s_sh_02_1.jpg,Student,,,sub-09
Desktop or Laptop,Windows 10,Chrome 138.0.0.0,2560x1440,2560x1305,Temporal Distance Task,cb_04,59.0,temp_dist_trial,num_items,zn7si1,1.0,response,2_ITEM,1856.699999997014,1854.1999999999825,1856.699999997014,1856.699999997014,1854.1999999999825,1856.699999997014,1.0,0.0,0.0,,Click Response,2_count,5.0,object-49,temp_dist_trial,11.0,s_sh_07_1,student_shared,ruler,4.0,competing,paired,s_sh_07_1.jpg,Student,,,sub-09
Desktop or Laptop,Windows 10,Chrome 138.0.0.0,2560x1440,2560x1305,Temporal Distance Task,cb_04,59.0,temp_dist_trial,dist_items,qkpkxw,2.0,info,,2.299999994051177,0.0,2.299999994051177,2.299999994051177,0.0,2.299999994051177,1.0,0.0,0.0,,Slider,Slider,4.0,object-56,temp_dist_trial,11.0,s_sh_07_1,student_shared,ruler,4.0,competing,paired,s_sh_07_1.jpg,Student,,,sub-09
Desktop or Laptop,Windows 10,Chrome 138.0.0.0,2560x1440,2560x1305,Temporal Distance Task,cb_04,59.0,temp_dist_trial,dist_items,qkpkxw,2.0,continue,,1533.099999991071,1527.8000000000175,1533.099999991071,1533.099999991071,1527.8000000000175,1533.099999991071,1.0,0.0,0.0,,Click To Continue,Next button,7.0,object-60,temp_dist_trial,11.0,s_sh_07_1,student_shared,ruler,4.0,competing,paired,s_sh_07_1.jpg,Student,,,sub-09
Desktop or Laptop,Windows 10,Chrome 138.0.0.0,2560x1440,2560x1305,Temporal Distance Task,cb_04,59.0,temp_dist_trial,dist_items,qkpkxw,2.0,response,70,631.9000000000233,1527.8000000000175,1533.7000000000116,631.9000000000233,1527.8000000000175,1533.7000000000116,1.0,901.7999999999884,0.0,,Slider,Slider,4.0,object-56,temp_dist_trial,11.0,s_sh_07_1,student_shared,ruler,4.0,competing,paired,s_sh_07_1.jpg,Student,,,sub-09
Desktop or Laptop,Windows 10,Chrome 138.0.0.0,2560x1440,2560x1305,Temporal Distance Task,cb_04,60.0,temp_dist_trial,num_items,zn7si1,1.0,response,1_ITEM,1108.6000000029744,1104.0,1108.6000000029744,1108.6000000029744,1104.0,1108.6000000029744,1.0,0.0,0.0,,Click Response,1_count,3.0,object-46,temp_dist_trial,12.0,s_sh_22_1,student_shared,hole puncher,4.0,competing,single,s_sh_22_1.jpg,Student,,,sub-09
Desktop or Laptop,Windows 10,Chrome 138.0.0.0,2560x1440,2560x1305,Temporal Distance Task,cb_04,61.0,temp_dist_trial,num_items,zn7si1,1.0,response,2_ITEM,1864.4999999940333,1861.0,1864.4999999940333,1864.4999999940333,1861.0,1864.4999999940333,1.0,0.0,0.0,,Click Response,2_count,5.0,object-49,temp_dist_trial,13.0,s_s_03_1,student_stem,petri dish,4.0,unique,paired,s_s_03_1.jpg,Student,,,sub-09
Desktop or Laptop,Windows 10,Chrome 138.0.0.0,2560x1440,2560x1305,Temporal Distance Task,cb_04,61.0,temp_dist_trial,dist_items,qkpkxw,2.0,info,,2.2999999999883585,0.0,2.2999999999883585,2.2999999999883585,0.0,2.2999999999883585,1.0,0.0,0.0,,Slider,Slider,4.0,object-56,temp_dist_trial,13.0,s_s_03_1,student_stem,petri dish,4.0,unique,paired,s_s_03_1.jpg,Student,,,sub-09
Desktop or Laptop,Windows 10,Chrome 138.0.0.0,2560x1440,2560x1305,Temporal Distance Task,cb_04,61.0,temp_dist_trial,dist_items,qkpkxw,2.0,continue,,1279.5999999970081,1277.6999999999825,1279.5999999970081,1279.5999999970081,1277.6999999999825,1279.5999999970081,1.0,0.0,0.0,,Click To Continue,Next button,7.0,object-60,temp_dist_trial,13.0,s_s_03_1,student_stem,petri dish,4.0,unique,paired,s_s_03_1.jpg,Student,,,sub-09
Desktop or Laptop,Windows 10,Chrome 138.0.0.0,2560x1440,2560x1305,Temporal Distance Task,cb_04,61.0,temp_dist_trial,dist_items,qkpkxw,2.0,response,35,611.0999999999767,1277.6999999999825,1279.8999999940281,611.0999999999767,1277.6999999999825,1279.8999999940281,1.0,668.7999999940513,0.0,,Slider,Slider,4.0,object-56,temp_dist_trial,13.0,s_s_03_1,student_stem,petri dish,4.0,unique,paired,s_s_03_1.jpg,Student,,,sub-09
Desktop or Laptop,Windows 10,Chrome 138.0.0.0,2560x1440,2560x1305,Temporal Distance Task,cb_04,62.0,temp_dist_trial,num_items,zn7si1,1.0,response,2_ITEM,1776.6000000000058,1770.8000000000175,1776.6000000000058,1776.6000000000058,1770.8000000000175,1776.6000000000058,1.0,0.0,0.0,,Click Response,2_count,5.0,object-49,temp_dist_trial,14.0,s_s_12_1,student_stem,robotic arm,4.0,unique,paired,s_s_12_1.jpg,Student,,,sub-09
Desktop or Laptop,Windows 10,Chrome 138.0.0.0,2560x1440,2560x1305,Temporal Distance Task,cb_04,62.0,temp_dist_trial,dist_items,qkpkxw,2.0,info,,2.7999999999883585,0.0,2.7999999999883585,2.7999999999883585,0.0,2.7999999999883585,1.0,0.0,0.0,,Slider,Slider,4.0,object-56,temp_dist_trial,14.0,s_s_12_1,student_stem,robotic arm,4.0,unique,paired,s_s_12_1.jpg,Student,,,sub-09
Desktop or Laptop,Windows 10,Chrome 138.0.0.0,2560x1440,2560x1305,Temporal Distance Task,cb_04,62.0,temp_dist_trial,dist_items,qkpkxw,2.0,continue,,2015.8999999940281,2013.8999999999944,2015.8999999940281,2015.8999999940281,2013.8999999999944,2015.8999999940281,1.0,0.0,0.0,,Click To Continue,Next button,7.0,object-60,temp_dist_trial,14.0,s_s_12_1,student_stem,robotic arm,4.0,unique,paired,s_s_12_1.jpg,Student,,,sub-09
Desktop or Laptop,Windows 10,Chrome 138.0.0.0,2560x1440,2560x1305,Temporal Distance Task,cb_04,62.0,temp_dist_trial,dist_items,qkpkxw,2.0,response,67,1208.2999999999886,2013.8999999999944,2016.699999991048,1208.2999999999886,2013.8999999999944,2016.699999991048,1.0,808.3999999910593,0.0,,Slider,Slider,4.0,object-56,temp_dist_trial,14.0,s_s_12_1,student_stem,robotic arm,4.0,unique,paired,s_s_12_1.jpg,Student,,,sub-09
Desktop or Laptop,Windows 10,Chrome 138.0.0.0,2560x1440,2560x1305,Temporal Distance Task,cb_04,63.0,temp_dist_trial,num_items,zn7si1,1.0,response,1_ITEM,1201.1000000029746,1194.3999999999942,1201.1000000029746,1201.1000000029746,1194.3999999999942,1201.1000000029746,1.0,0.0,0.0,,Click Response,1_count,3.0,object-46,temp_dist_trial,15.0,s_s_09_1,student_stem,multimeter,4.0,unique,single,s_s_09_1.jpg,Student,,,sub-09
Desktop or Laptop,Windows 10,Chrome 138.0.0.0,2560x1440,2560x1305,Temporal Distance Task,cb_04,64.0,temp_dist_trial,num_items,zn7si1,1.0,response,2_ITEM,1067.0999999940395,1062.5,1067.0999999940395,1067.0999999940395,1062.5,1067.0999999940395,1.0,0.0,0.0,,Click Response,2_count,5.0,object-49,temp_dist_trial,16.0,s_a_10_1,student_art,tripod,4.0,unique,paired,s_a_10_1.jpg,Student,,,sub-09
Desktop or Laptop,Windows 10,Chrome 138.0.0.0,2560x1440,2560x1305,Temporal Distance Task,cb_04,64.0,temp_dist_trial,dist_items,qkpkxw,2.0,info,,3.5999999940395355,0.0,3.5999999940395355,3.5999999940395355,0.0,3.5999999940395355,1.0,0.0,0.0,,Slider,Slider,4.0,object-56,temp_dist_trial,16.0,s_a_10_1,student_art,tripod,4.0,unique,paired,s_a_10_1.jpg,Student,,,sub-09
Desktop or Laptop,Windows 10,Chrome 138.0.0.0,2560x1440,2560x1305,Temporal Distance Task,cb_04,64.0,temp_dist_trial,dist_items,qkpkxw,2.0,continue,,1479.0,1472.1000000000058,1479.0,1479.0,1472.1000000000058,1479.0,1.0,0.0,0.0,,Click To Continue,Next button,7.0,object-60,temp_dist_trial,16.0,s_a_10_1,student_art,tripod,4.0,unique,paired,s_a_10_1.jpg,Student,,,sub-09
Desktop or Laptop,Windows 10,Chrome 138.0.0.0,2560x1440,2560x1305,Temporal Distance Task,cb_04,64.0,temp_dist_trial,dist_items,qkpkxw,2.0,response,69,576.3999999999943,1472.1000000000058,1479.0,576.3999999999943,1472.1000000000058,1479.0,1.0,902.6000000000058,0.0,,Slider,Slider,4.0,object-56,temp_dist_trial,16.0,s_a_10_1,student_art,tripod,4.0,unique,paired,s_a_10_1.jpg,Student,,,sub-09
Desktop or Laptop,Windows 10,Chrome 138.0.0.0,2560x1440,2560x1305,Temporal Distance Task,cb_04,65.0,temp_dist_trial,num_items,zn7si1,1.0,response,2_ITEM,1537.699999997014,1534.7999999999884,1537.699999997014,1537.699999997014,1534.7999999999884,1537.699999997014,1.0,0.0,0.0,,Click Response,2_count,5.0,object-49,temp_dist_trial,17.0,s_s_14_1,student_stem,funnel,4.0,unique,paired,s_s_14_1.jpg,Student,,,sub-09
Desktop or Laptop,Windows 10,Chrome 138.0.0.0,2560x1440,2560x1305,Temporal Distance Task,cb_04,65.0,temp_dist_trial,dist_items,qkpkxw,2.0,info,,2.7000000000116415,0.0,2.7000000000116415,2.7000000000116415,0.0,2.7000000000116415,1.0,0.0,0.0,,Slider,Slider,4.0,object-56,temp_dist_trial,17.0,s_s_14_1,student_stem,funnel,4.0,unique,paired,s_s_14_1.jpg,Student,,,sub-09
Desktop or Laptop,Windows 10,Chrome 138.0.0.0,2560x1440,2560x1305,Temporal Distance Task,cb_04,65.0,temp_dist_trial,dist_items,qkpkxw,2.0,continue,,1368.099999991071,1361.1000000000058,1368.099999991071,1368.099999991071,1361.1000000000058,1368.099999991071,1.0,0.0,0.0,,Click To Continue,Next button,7.0,object-60,temp_dist_trial,17.0,s_s_14_1,student_stem,funnel,4.0,unique,paired,s_s_14_1.jpg,Student,,,sub-09
Desktop or Laptop,Windows 10,Chrome 138.0.0.0,2560x1440,2560x1305,Temporal Distance Task,cb_04,65.0,temp_dist_trial,dist_items,qkpkxw,2.0,response,74,486.1000000000058,1361.1000000000058,1368.1000000000058,486.1000000000058,1361.1000000000058,1368.1000000000058,1.0,882.0,0.0,,Slider,Slider,4.0,object-56,temp_dist_trial,17.0,s_s_14_1,student_stem,funnel,4.0,unique,paired,s_s_14_1.jpg,Student,,,sub-09
Desktop or Laptop,Windows 10,Chrome 138.0.0.0,2560x1440,2560x1305,Temporal Distance Task,cb_04,66.0,temp_dist_trial,num_items,zn7si1,1.0,response,1_ITEM,1752.1000000000058,1750.0,1752.1000000000058,1752.1000000000058,1750.0,1752.1000000000058,1.0,0.0,0.0,,Click Response,1_count,3.0,object-46,temp_dist_trial,18.0,s_s_07_1,student_stem,periodic table,4.0,unique,single,s_s_07_1.jpg,Student,,,sub-09
Desktop or Laptop,Windows 10,Chrome 138.0.0.0,2560x1440,2560x1305,Temporal Distance Task,cb_04,67.0,temp_dist_trial,num_items,zn7si1,1.0,response,1_ITEM,1411.8999999910593,1409.5,1411.8999999910593,1411.8999999910593,1409.5,1411.8999999910593,1.0,0.0,0.0,,Click Response,1_count,3.0,object-46,temp_dist_trial,19.0,s_a_13_1,student_art,violin,4.0,unique,paired,s_a_13_1.jpg,Student,,,sub-09
Desktop or Laptop,Windows 10,Chrome 138.0.0.0,2560x1440,2560x1305,Temporal Distance Task,cb_04,68.0,temp_dist_trial,num_items,zn7si1,1.0,response,2_ITEM,1702.199999997014,1701.2999999999884,1702.199999997014,1702.199999997014,1701.2999999999884,1702.199999997014,1.0,0.0,0.0,,Click Response,2_count,5.0,object-49,temp_dist_trial,20.0,s_sh_24_1,student_shared,desk organizer,4.0,competing,paired,s_sh_24_1.jpg,Student,,,sub-09
Desktop or Laptop,Windows 10,Chrome 138.0.0.0,2560x1440,2560x1305,Temporal Distance Task,cb_04,68.0,temp_dist_trial,dist_items,qkpkxw,2.0,info,,2.800000002986053,0.0,2.800000002986053,2.800000002986053,0.0,2.800000002986053,1.0,0.0,0.0,,Slider,Slider,4.0,object-56,temp_dist_trial,20.0,s_sh_24_1,student_shared,desk organizer,4.0,competing,paired,s_sh_24_1.jpg,Student,,,sub-09
Desktop or Laptop,Windows 10,Chrome 138.0.0.0,2560x1440,2560x1305,Temporal Distance Task,cb_04,68.0,temp_dist_trial,dist_items,qkpkxw,2.0,continue,,1686.300000002986,1680.5,1686.300000002986,1686.300000002986,1680.5,1686.300000002986,1.0,0.0,0.0,,Click To Continue,Next button,7.0,object-60,temp_dist_trial,20.0,s_sh_24_1,student_shared,desk organizer,4.0,competing,paired,s_sh_24_1.jpg,Student,,,sub-09
Desktop or Laptop,Windows 10,Chrome 138.0.0.0,2560x1440,2560x1305,Temporal Distance Task,cb_04,68.0,temp_dist_trial,dist_items,qkpkxw,2.0,response,37,805.6000000000058,1680.5,1687.1999999940454,805.6000000000058,1680.5,1687.1999999940454,1.0,881.5999999940393,0.0,,Slider,Slider,4.0,object-56,temp_dist_trial,20.0,s_sh_24_1,student_shared,desk organizer,4.0,competing,paired,s_sh_24_1.jpg,Student,,,sub-09
Desktop or Laptop,Windows 10,Chrome 138.0.0.0,2560x1440,2560x1305,Temporal Distance Task,cb_04,69.0,temp_dist_trial,num_items,zn7si1,1.0,response,1_ITEM,1159.500000000029,1152.7000000000114,1159.500000000029,1159.500000000029,1152.7000000000114,1159.500000000029,1.0,0.0,0.0,,Click Response,1_count,3.0,object-46,temp_dist_trial,21.0,s_sh_08_1,student_shared,post-its,4.0,competing,single,s_sh_08_1.jpg,Student,,,sub-09
Desktop or Laptop,Windows 10,Chrome 138.0.0.0,2560x1440,2560x1305,Temporal Distance Task,cb_04,70.0,temp_dist_trial,num_items,zn7si1,1.0,response,2_ITEM,1587.199999997014,1583.3999999999942,1587.199999997014,1587.199999997014,1583.3999999999942,1587.199999997014,1.0,0.0,0.0,,Click Response,2_count,5.0,object-49,temp_dist_trial,22.0,s_a_11_1,student_art,clapperboard,4.0,unique,paired,s_a_11_1.jpg,Student,,,sub-09
Desktop or Laptop,Windows 10,Chrome 138.0.0.0,2560x1440,2560x1305,Temporal Distance Task,cb_04,70.0,temp_dist_trial,dist_items,qkpkxw,2.0,info,,3.1000000000058208,0.0,3.1000000000058208,3.1000000000058208,0.0,3.1000000000058208,1.0,0.0,0.0,,Slider,Slider,4.0,object-56,temp_dist_trial,22.0,s_a_11_1,student_art,clapperboard,4.0,unique,paired,s_a_11_1.jpg,Student,,,sub-09
Desktop or Laptop,Windows 10,Chrome 138.0.0.0,2560x1440,2560x1305,Temporal Distance Task,cb_04,70.0,temp_dist_trial,dist_items,qkpkxw,2.0,continue,,2554.499999991065,2548.6000000000063,2554.499999991065,2554.499999991065,2548.6000000000063,2554.499999991065,1.0,0.0,0.0,,Click To Continue,Next button,7.0,object-60,temp_dist_trial,22.0,s_a_11_1,student_art,clapperboard,4.0,unique,paired,s_a_11_1.jpg,Student,,,sub-09
Desktop or Laptop,Windows 10,Chrome 138.0.0.0,2560x1440,2560x1305,Temporal Distance Task,cb_04,70.0,temp_dist_trial,dist_items,qkpkxw,2.0,response,30,444.6000000000058,2548.6000000000063,2554.999999991065,444.6000000000058,2548.6000000000063,2554.999999991065,1.0,2110.3999999910598,0.0,,Slider,Slider,4.0,object-56,temp_dist_trial,22.0,s_a_11_1,student_art,clapperboard,4.0,unique,paired,s_a_11_1.jpg,Student,,,sub-09
Desktop or Laptop,Windows 10,Chrome 138.0.0.0,2560x1440,2560x1305,Temporal Distance Task,cb_04,71.0,temp_dist_trial,num_items,zn7si1,1.0,response,2_ITEM,1160.3999999910593,1159.7000000000114,1160.3999999910593,1160.3999999910593,1159.7000000000114,1160.3999999910593,1.0,0.0,0.0,,Click Response,2_count,5.0,object-49,temp_dist_trial,23.0,s_a_20_1,student_art,pin cushion,4.0,unique,paired,s_a_20_1.jpg,Student,,,sub-09
Desktop or Laptop,Windows 10,Chrome 138.0.0.0,2560x1440,2560x1305,Temporal Distance Task,cb_04,71.0,temp_dist_trial,dist_items,qkpkxw,2.0,info,,2.9000000029918738,0.0,2.9000000029918738,2.9000000029918738,0.0,2.9000000029918738,1.0,0.0,0.0,,Slider,Slider,4.0,object-56,temp_dist_trial,23.0,s_a_20_1,student_art,pin cushion,4.0,unique,paired,s_a_20_1.jpg,Student,,,sub-09
Desktop or Laptop,Windows 10,Chrome 138.0.0.0,2560x1440,2560x1305,Temporal Distance Task,cb_04,71.0,temp_dist_trial,dist_items,qkpkxw,2.0,continue,,1506.2999999940512,1500.0,1506.2999999940512,1506.2999999940512,1500.0,1506.2999999940512,1.0,0.0,0.0,,Click To Continue,Next button,7.0,object-60,temp_dist_trial,23.0,s_a_20_1,student_art,pin cushion,4.0,unique,paired,s_a_20_1.jpg,Student,,,sub-09
Desktop or Laptop,Windows 10,Chrome 138.0.0.0,2560x1440,2560x1305,Temporal Distance Task,cb_04,71.0,temp_dist_trial,dist_items,qkpkxw,2.0,response,74,569.3000000000175,1500.0,1507.0,569.3000000000175,1500.0,1507.0,1.0,937.6999999999823,0.0,,Slider,Slider,4.0,object-56,temp_dist_trial,23.0,s_a_20_1,student_art,pin cushion,4.0,unique,paired,s_a_20_1.jpg,Student,,,sub-09
Desktop or Laptop,Windows 10,Chrome 138.0.0.0,2560x1440,2560x1305,Temporal Distance Task,cb_04,72.0,temp_dist_trial,num_items,zn7si1,1.0,response,1_ITEM,1535.4000000029919,1534.6000000000058,1535.4000000029919,1535.4000000029919,1534.6000000000058,1535.4000000029919,1.0,0.0,0.0,,Click Response,1_count,3.0,object-46,temp_dist_trial,24.0,s_sh_04_1,student_shared,laptop stand,4.0,competing,single,s_sh_04_1.jpg,Student,,,sub-09
Desktop or Laptop,Windows 10,Chrome 138.0.0.0,2560x1440,2560x1305,Temporal Distance Task,cb_04,73.0,temp_dist_trial,num_items,zn7si1,1.0,response,2_ITEM,1446.2999999970193,1444.2999999999884,1446.2999999970193,1446.2999999970193,1444.2999999999884,1446.2999999970193,1.0,0.0,0.0,,Click Response,2_count,5.0,object-49,temp_dist_trial,25.0,s_a_03_1,student_art,palette,4.0,unique,paired,s_a_03_1.jpg,Student,,,sub-09
Desktop or Laptop,Windows 10,Chrome 138.0.0.0,2560x1440,2560x1305,Temporal Distance Task,cb_04,73.0,temp_dist_trial,dist_items,qkpkxw,2.0,info,,2.5999999970081262,0.0,2.5999999970081262,2.5999999970081262,0.0,2.5999999970081262,1.0,0.0,0.0,,Slider,Slider,4.0,object-56,temp_dist_trial,25.0,s_a_03_1,student_art,palette,4.0,unique,paired,s_a_03_1.jpg,Student,,,sub-09
Desktop or Laptop,Windows 10,Chrome 138.0.0.0,2560x1440,2560x1305,Temporal Distance Task,cb_04,73.0,temp_dist_trial,dist_items,qkpkxw,2.0,continue,,1308.5999999970081,1305.5999999999767,1308.5999999970081,1308.5999999970081,1305.5999999999767,1308.5999999970081,1.0,0.0,0.0,,Click To Continue,Next button,7.0,object-60,temp_dist_trial,25.0,s_a_03_1,student_art,palette,4.0,unique,paired,s_a_03_1.jpg,Student,,,sub-09
Desktop or Laptop,Windows 10,Chrome 138.0.0.0,2560x1440,2560x1305,Temporal Distance Task,cb_04,73.0,temp_dist_trial,dist_items,qkpkxw,2.0,response,68,534.6999999999825,1305.5999999999767,1309.0999999970081,534.6999999999825,1305.5999999999767,1309.0999999970081,1.0,774.3999999970256,0.0,,Slider,Slider,4.0,object-56,temp_dist_trial,25.0,s_a_03_1,student_art,palette,4.0,unique,paired,s_a_03_1.jpg,Student,,,sub-09
Desktop or Laptop,Windows 10,Chrome 138.0.0.0,2560x1440,2560x1305,Temporal Distance Task,cb_04,74.0,temp_dist_trial,num_items,zn7si1,1.0,response,1_ITEM,1005.900000002992,999.9000000000232,1005.900000002992,1005.900000002992,999.9000000000232,1005.900000002992,1.0,0.0,0.0,,Click Response,1_count,3.0,object-46,temp_dist_trial,26.0,s_s_02_1,student_stem,flask,4.0,unique,single,s_s_02_1.jpg,Student,,,sub-09
Desktop or Laptop,Windows 10,Chrome 138.0.0.0,2560x1440,2560x1305,Temporal Distance Task,cb_04,75.0,temp_dist_trial,num_items,zn7si1,1.0,response,1_ITEM,1445.9000000029919,1444.3000000000175,1445.9000000029919,1445.9000000029919,1444.3000000000175,1445.9000000029919,1.0,0.0,0.0,,Click Response,1_count,3.0,object-46,temp_dist_trial,27.0,s_a_17_1,student_art,microphone,4.0,unique,single,s_a_17_1.jpg,Student,,,sub-09
Desktop or Laptop,Windows 10,Chrome 138.0.0.0,2560x1440,2560x1305,Temporal Distance Task,cb_04,76.0,temp_dist_trial,num_items,zn7si1,1.0,response,2_ITEM,1301.7999999910535,1298.6000000000058,1301.7999999910535,1301.7999999910535,1298.6000000000058,1301.7999999910535,1.0,0.0,0.0,,Click Response,2_count,5.0,object-49,temp_dist_trial,28.0,s_sh_21_1,student_shared,file holder,4.0,competing,paired,s_sh_21_1.jpg,Student,,,sub-09
Desktop or Laptop,Windows 10,Chrome 138.0.0.0,2560x1440,2560x1305,Temporal Distance Task,cb_04,76.0,temp_dist_trial,dist_items,qkpkxw,2.0,info,,3.399999994027893,0.0,3.399999994027893,3.399999994027893,0.0,3.399999994027893,1.0,0.0,0.0,,Slider,Slider,4.0,object-56,temp_dist_trial,28.0,s_sh_21_1,student_shared,file holder,4.0,competing,paired,s_sh_21_1.jpg,Student,,,sub-09
Desktop or Laptop,Windows 10,Chrome 138.0.0.0,2560x1440,2560x1305,Temporal Distance Task,cb_04,76.0,temp_dist_trial,dist_items,qkpkxw,2.0,continue,,1408.1999999910474,1402.6999999999825,1408.1999999910474,1408.1999999910474,1402.6999999999825,1408.1999999910474,1.0,0.0,0.0,,Click To Continue,Next button,7.0,object-60,temp_dist_trial,28.0,s_sh_21_1,student_shared,file holder,4.0,competing,paired,s_sh_21_1.jpg,Student,,,sub-09
Desktop or Laptop,Windows 10,Chrome 138.0.0.0,2560x1440,2560x1305,Temporal Distance Task,cb_04,76.0,temp_dist_trial,dist_items,qkpkxw,2.0,response,69,548.5999999999766,1402.6999999999825,1408.5999999970081,548.5999999999766,1402.6999999999825,1408.5999999970081,1.0,859.9999999970314,0.0,,Slider,Slider,4.0,object-56,temp_dist_trial,28.0,s_sh_21_1,student_shared,file holder,4.0,competing,paired,s_sh_21_1.jpg,Student,,,sub-09
Desktop or Laptop,Windows 10,Chrome 138.0.0.0,2560x1440,2560x1305,Temporal Distance Task,cb_04,77.0,temp_dist_trial,num_items,zn7si1,1.0,response,2_ITEM,1475.6999999940454,1472.3000000000175,1475.6999999940454,1475.6999999940454,1472.3000000000175,1475.6999999940454,1.0,0.0,0.0,,Click Response,2_count,5.0,object-49,temp_dist_trial,29.0,s_sh_05_1,student_shared,laptop,4.0,competing,paired,s_sh_05_1.jpg,Student,,,sub-09
Desktop or Laptop,Windows 10,Chrome 138.0.0.0,2560x1440,2560x1305,Temporal Distance Task,cb_04,77.0,temp_dist_trial,dist_items,qkpkxw,2.0,info,,3.1000000029744115,0.0,3.1000000029744115,3.1000000029744115,0.0,3.1000000029744115,1.0,0.0,0.0,,Slider,Slider,4.0,object-56,temp_dist_trial,29.0,s_sh_05_1,student_shared,laptop,4.0,competing,paired,s_sh_05_1.jpg,Student,,,sub-09
Desktop or Laptop,Windows 10,Chrome 138.0.0.0,2560x1440,2560x1305,Temporal Distance Task,cb_04,77.0,temp_dist_trial,dist_items,qkpkxw,2.0,continue,,1885.199999997014,1882.1000000000056,1885.199999997014,1885.199999997014,1882.1000000000056,1885.199999997014,1.0,0.0,0.0,,Click To Continue,Next button,7.0,object-60,temp_dist_trial,29.0,s_sh_05_1,student_shared,laptop,4.0,competing,paired,s_sh_05_1.jpg,Student,,,sub-09
Desktop or Laptop,Windows 10,Chrome 138.0.0.0,2560x1440,2560x1305,Temporal Distance Task,cb_04,77.0,temp_dist_trial,dist_items,qkpkxw,2.0,response,74,590.2999999999884,1882.1000000000056,1889.000000000029,590.2999999999884,1882.1000000000056,1889.000000000029,1.0,1298.7000000000407,0.0,,Slider,Slider,4.0,object-56,temp_dist_trial,29.0,s_sh_05_1,student_shared,laptop,4.0,competing,paired,s_sh_05_1.jpg,Student,,,sub-09
Desktop or Laptop,Windows 10,Chrome 138.0.0.0,2560x1440,2560x1305,Temporal Distance Task,cb_04,78.0,temp_dist_trial,num_items,zn7si1,1.0,response,1_ITEM,1531.6999999910474,1527.5999999999767,1531.6999999910474,1531.6999999910474,1527.5999999999767,1531.6999999910474,1.0,0.0,0.0,,Click Response,1_count,3.0,object-46,temp_dist_trial,30.0,s_sh_01_1,student_shared,notebook,4.0,competing,single,s_sh_01_1.jpg,Student,,,sub-09
Desktop or Laptop,Windows 10,Chrome 138.0.0.0,2560x1440,2560x1305,Temporal Distance Task,cb_04,79.0,temp_dist_trial,num_items,zn7si1,1.0,response,2_ITEM,1639.0,1632.0,1639.0,1639.0,1632.0,1639.0,1.0,0.0,0.0,,Click Response,2_count,5.0,object-49,temp_dist_trial,31.0,s_s_17_1,student_stem,ring stand,4.0,unique,paired,s_s_17_1.jpg,Student,,,sub-09
Desktop or Laptop,Windows 10,Chrome 138.0.0.0,2560x1440,2560x1305,Temporal Distance Task,cb_04,79.0,temp_dist_trial,dist_items,qkpkxw,2.0,info,,3.6999999910476618,0.0,3.6999999910476618,3.6999999910476618,0.0,3.6999999910476618,1.0,0.0,0.0,,Slider,Slider,4.0,object-56,temp_dist_trial,31.0,s_s_17_1,student_stem,ring stand,4.0,unique,paired,s_s_17_1.jpg,Student,,,sub-09
Desktop or Laptop,Windows 10,Chrome 138.0.0.0,2560x1440,2560x1305,Temporal Distance Task,cb_04,79.0,temp_dist_trial,dist_items,qkpkxw,2.0,continue,,2401.699999991048,2395.7999999999884,2401.699999991048,2401.699999991048,2395.7999999999884,2401.699999991048,1.0,0.0,0.0,,Click To Continue,Next button,7.0,object-60,temp_dist_trial,31.0,s_s_17_1,student_stem,ring stand,4.0,unique,paired,s_s_17_1.jpg,Student,,,sub-09
Desktop or Laptop,Windows 10,Chrome 138.0.0.0,2560x1440,2560x1305,Temporal Distance Task,cb_04,79.0,temp_dist_trial,dist_items,qkpkxw,2.0,response,70,784.7999999999884,2395.7999999999884,2402.199999991048,784.7999999999884,2395.7999999999884,2402.199999991048,1.0,1617.3999999910593,0.0,,Slider,Slider,4.0,object-56,temp_dist_trial,31.0,s_s_17_1,student_stem,ring stand,4.0,unique,paired,s_s_17_1.jpg,Student,,,sub-09
Desktop or Laptop,Windows 10,Chrome 138.0.0.0,2560x1440,2560x1305,Temporal Distance Task,cb_04,80.0,temp_dist_trial,num_items,zn7si1,1.0,response,1_ITEM,1621.0999999940395,1618.1000000000058,1621.0999999940395,1621.0999999940395,1618.1000000000058,1621.0999999940395,1.0,0.0,0.0,,Click Response,1_count,3.0,object-46,temp_dist_trial,32.0,s_s_04_1,student_stem,bunsen burner,4.0,unique,paired,s_s_04_1.jpg,Student,,,sub-09
Desktop or Laptop,Windows 10,Chrome 138.0.0.0,2560x1440,2560x1305,Temporal Distance Task,cb_04,81.0,temp_dist_trial,num_items,zn7si1,1.0,response,2_ITEM,1493.2000000000116,1486.2000000000116,1493.2000000000116,1493.2000000000116,1486.2000000000116,1493.2000000000116,1.0,0.0,0.0,,Click Response,2_count,5.0,object-49,temp_dist_trial,33.0,s_sh_13_1,student_shared,index cards,4.0,competing,paired,s_sh_13_1.jpg,Student,,,sub-09
Desktop or Laptop,Windows 10,Chrome 138.0.0.0,2560x1440,2560x1305,Temporal Distance Task,cb_04,81.0,temp_dist_trial,dist_items,qkpkxw,2.0,info,,1.8999999910593035,0.0,1.8999999910593035,1.8999999910593035,0.0,1.8999999910593035,1.0,0.0,0.0,,Slider,Slider,4.0,object-56,temp_dist_trial,33.0,s_sh_13_1,student_shared,index cards,4.0,competing,paired,s_sh_13_1.jpg,Student,,,sub-09
Desktop or Laptop,Windows 10,Chrome 138.0.0.0,2560x1440,2560x1305,Temporal Distance Task,cb_04,81.0,temp_dist_trial,dist_items,qkpkxw,2.0,continue,,1123.2999999970198,1118.1000000000058,1123.2999999970198,1123.2999999970198,1118.1000000000058,1123.2999999970198,1.0,0.0,0.0,,Click To Continue,Next button,7.0,object-60,temp_dist_trial,33.0,s_sh_13_1,student_shared,index cards,4.0,competing,paired,s_sh_13_1.jpg,Student,,,sub-09
Desktop or Laptop,Windows 10,Chrome 138.0.0.0,2560x1440,2560x1305,Temporal Distance Task,cb_04,81.0,temp_dist_trial,dist_items,qkpkxw,2.0,response,71,465.3999999999942,1118.1000000000058,1125.1000000000058,465.3999999999942,1118.1000000000058,1125.1000000000058,1.0,659.7000000000116,0.0,,Slider,Slider,4.0,object-56,temp_dist_trial,33.0,s_sh_13_1,student_shared,index cards,4.0,competing,paired,s_sh_13_1.jpg,Student,,,sub-09
Desktop or Laptop,Windows 10,Chrome 138.0.0.0,2560x1440,2560x1305,Temporal Distance Task,cb_04,82.0,temp_dist_trial,num_items,zn7si1,1.0,response,1_ITEM,1530.7999999910535,1527.7999999999884,1530.7999999910535,1530.7999999910535,1527.7999999999884,1530.7999999910535,1.0,0.0,0.0,,Click Response,1_count,3.0,object-46,temp_dist_trial,34.0,s_a_04_1,student_art,easel,4.0,unique,paired,s_a_04_1.jpg,Student,,,sub-09
Desktop or Laptop,Windows 10,Chrome 138.0.0.0,2560x1440,2560x1305,Temporal Distance Task,cb_04,83.0,temp_dist_trial,num_items,zn7si1,1.0,response,2_ITEM,2091.8999999970256,2090.1000000000063,2091.8999999970256,2091.8999999970256,2090.1000000000063,2091.8999999970256,1.0,0.0,0.0,,Click Response,2_count,5.0,object-49,temp_dist_trial,35.0,s_s_18_1,student_stem,brain model,4.0,unique,paired,s_s_18_1.jpg,Student,,,sub-09
Desktop or Laptop,Windows 10,Chrome 138.0.0.0,2560x1440,2560x1305,Temporal Distance Task,cb_04,83.0,temp_dist_trial,dist_items,qkpkxw,2.0,info,,2.299999997019768,0.0,2.299999997019768,2.299999997019768,0.0,2.299999997019768,1.0,0.0,0.0,,Slider,Slider,4.0,object-56,temp_dist_trial,35.0,s_s_18_1,student_stem,brain model,4.0,unique,paired,s_s_18_1.jpg,Student,,,sub-09
Desktop or Laptop,Windows 10,Chrome 138.0.0.0,2560x1440,2560x1305,Temporal Distance Task,cb_04,83.0,temp_dist_trial,dist_items,qkpkxw,2.0,continue,,1346.5999999940395,1340.3999999999942,1346.5999999940395,1346.5999999940395,1340.3999999999942,1346.5999999940395,1.0,0.0,0.0,,Click To Continue,Next button,7.0,object-60,temp_dist_trial,35.0,s_s_18_1,student_stem,brain model,4.0,unique,paired,s_s_18_1.jpg,Student,,,sub-09
Desktop or Laptop,Windows 10,Chrome 138.0.0.0,2560x1440,2560x1305,Temporal Distance Task,cb_04,83.0,temp_dist_trial,dist_items,qkpkxw,2.0,response,38,597.2000000000116,1340.3999999999942,1347.2000000029802,597.2000000000116,1340.3999999999942,1347.2000000029802,1.0,750.0000000029686,0.0,,Slider,Slider,4.0,object-56,temp_dist_trial,35.0,s_s_18_1,student_stem,brain model,4.0,unique,paired,s_s_18_1.jpg,Student,,,sub-09
Desktop or Laptop,Windows 10,Chrome 138.0.0.0,2560x1440,2560x1305,Temporal Distance Task,cb_04,84.0,temp_dist_trial,num_items,zn7si1,1.0,response,1_ITEM,1935.199999994045,1930.3999999999944,1935.199999994045,1935.199999994045,1930.3999999999944,1935.199999994045,1.0,0.0,0.0,,Click Response,1_count,3.0,object-46,temp_dist_trial,36.0,s_sh_09_1,student_shared,paper clips,4.0,competing,single,s_sh_09_1.jpg,Student,,,sub-09
Desktop or Laptop,Windows 10,Chrome 138.0.0.0,2560x1440,2560x1305,Temporal Distance Task,cb_04,85.0,temp_dist_trial,num_items,zn7si1,1.0,response,2_ITEM,1245.2000000000114,1243.0,1245.2000000000114,1245.2000000000114,1243.0,1245.2000000000114,1.0,0.0,0.0,,Click Response,2_count,5.0,object-49,temp_dist_trial,37.0,s_s_05_1,student_stem,lab goggles,4.0,unique,paired,s_s_05_1.jpg,Student,,,sub-09
Desktop or Laptop,Windows 10,Chrome 138.0.0.0,2560x1440,2560x1305,Temporal Distance Task,cb_04,85.0,temp_dist_trial,dist_items,qkpkxw,2.0,info,,1.7000000000116415,0.0,1.7000000000116415,1.7000000000116415,0.0,1.7000000000116415,1.0,0.0,0.0,,Slider,Slider,4.0,object-56,temp_dist_trial,37.0,s_s_05_1,student_stem,lab goggles,4.0,unique,paired,s_s_05_1.jpg,Student,,,sub-09
Desktop or Laptop,Windows 10,Chrome 138.0.0.0,2560x1440,2560x1305,Temporal Distance Task,cb_04,85.0,temp_dist_trial,dist_items,qkpkxw,2.0,continue,,1231.7999999940512,1229.2000000000114,1231.7999999940512,1231.7999999940512,1229.2000000000114,1231.7999999940512,1.0,0.0,0.0,,Click To Continue,Next button,7.0,object-60,temp_dist_trial,37.0,s_s_05_1,student_stem,lab goggles,4.0,unique,paired,s_s_05_1.jpg,Student,,,sub-09
Desktop or Laptop,Windows 10,Chrome 138.0.0.0,2560x1440,2560x1305,Temporal Distance Task,cb_04,85.0,temp_dist_trial,dist_items,qkpkxw,2.0,response,72,416.7000000000117,1229.2000000000114,1233.9999999970316,416.7000000000117,1229.2000000000114,1233.9999999970316,1.0,817.2999999970198,0.0,,Slider,Slider,4.0,object-56,temp_dist_trial,37.0,s_s_05_1,student_stem,lab goggles,4.0,unique,paired,s_s_05_1.jpg,Student,,,sub-09
Desktop or Laptop,Windows 10,Chrome 138.0.0.0,2560x1440,2560x1305,Temporal Distance Task,cb_04,86.0,temp_dist_trial,num_items,zn7si1,1.0,response,2_ITEM,1402.6000000000354,1395.7000000000116,1402.6000000000354,1402.6000000000354,1395.7000000000116,1402.6000000000354,1.0,0.0,0.0,,Click Response,2_count,5.0,object-49,temp_dist_trial,38.0,s_a_09_1,student_art,picture frame,4.0,unique,paired,s_a_09_1.jpg,Student,,,sub-09
Desktop or Laptop,Windows 10,Chrome 138.0.0.0,2560x1440,2560x1305,Temporal Distance Task,cb_04,86.0,temp_dist_trial,dist_items,qkpkxw,2.0,info,,2.5000000029685907,0.0,2.5000000029685907,2.5000000029685907,0.0,2.5000000029685907,1.0,0.0,0.0,,Slider,Slider,4.0,object-56,temp_dist_trial,38.0,s_a_09_1,student_art,picture frame,4.0,unique,paired,s_a_09_1.jpg,Student,,,sub-09
Desktop or Laptop,Windows 10,Chrome 138.0.0.0,2560x1440,2560x1305,Temporal Distance Task,cb_04,86.0,temp_dist_trial,dist_items,qkpkxw,2.0,continue,,1497.5999999970081,1493.0999999999767,1497.5999999970081,1497.5999999970081,1493.0999999999767,1497.5999999970081,1.0,0.0,0.0,,Click To Continue,Next button,7.0,object-60,temp_dist_trial,38.0,s_a_09_1,student_art,picture frame,4.0,unique,paired,s_a_09_1.jpg,Student,,,sub-09
Desktop or Laptop,Windows 10,Chrome 138.0.0.0,2560x1440,2560x1305,Temporal Distance Task,cb_04,86.0,temp_dist_trial,dist_items,qkpkxw,2.0,response,69,750.0,1493.0999999999767,1498.0000000029684,750.0,1493.0999999999767,1498.0000000029684,1.0,748.0000000029686,0.0,,Slider,Slider,4.0,object-56,temp_dist_trial,38.0,s_a_09_1,student_art,picture frame,4.0,unique,paired,s_a_09_1.jpg,Student,,,sub-09
Desktop or Laptop,Windows 10,Chrome 138.0.0.0,2560x1440,2560x1305,Temporal Distance Task,cb_04,87.0,temp_dist_trial,num_items,zn7si1,1.0,response,2_ITEM,1268.9999999970316,1263.9000000000233,1268.9999999970316,1268.9999999970316,1263.9000000000233,1268.9999999970316,1.0,0.0,0.0,,Click Response,2_count,5.0,object-49,temp_dist_trial,39.0,s_sh_23_1,student_shared,ballpoint pen,4.0,competing,paired,s_sh_23_1.jpg,Student,,,sub-09
Desktop or Laptop,Windows 10,Chrome 138.0.0.0,2560x1440,2560x1305,Temporal Distance Task,cb_04,87.0,temp_dist_trial,dist_items,qkpkxw,2.0,info,,3.1999999970430517,0.0,3.1999999970430517,3.1999999970430517,0.0,3.1999999970430517,1.0,0.0,0.0,,Slider,Slider,4.0,object-56,temp_dist_trial,39.0,s_sh_23_1,student_shared,ballpoint pen,4.0,competing,paired,s_sh_23_1.jpg,Student,,,sub-09
Desktop or Laptop,Windows 10,Chrome 138.0.0.0,2560x1440,2560x1305,Temporal Distance Task,cb_04,87.0,temp_dist_trial,dist_items,qkpkxw,2.0,continue,,2200.2999999910826,2194.4000000000233,2200.2999999910826,2200.2999999910826,2194.4000000000233,2200.2999999910826,1.0,0.0,0.0,,Click To Continue,Next button,7.0,object-60,temp_dist_trial,39.0,s_sh_23_1,student_shared,ballpoint pen,4.0,competing,paired,s_sh_23_1.jpg,Student,,,sub-09
Desktop or Laptop,Windows 10,Chrome 138.0.0.0,2560x1440,2560x1305,Temporal Distance Task,cb_04,87.0,temp_dist_trial,dist_items,qkpkxw,2.0,response,79,479.2000000000117,2194.4000000000233,2200.699999997043,479.2000000000117,2194.4000000000233,2200.699999997043,1.0,1721.4999999970316,0.0,,Slider,Slider,4.0,object-56,temp_dist_trial,39.0,s_sh_23_1,student_shared,ballpoint pen,4.0,competing,paired,s_sh_23_1.jpg,Student,,,sub-09
Desktop or Laptop,Windows 10,Chrome 138.0.0.0,2560x1440,2560x1305,Temporal Distance Task,cb_04,88.0,temp_dist_trial,num_items,zn7si1,1.0,response,1_ITEM,1375.7000000029807,1375.0,1375.7000000029807,1375.7000000029807,1375.0,1375.7000000029807,1.0,0.0,0.0,,Click Response,1_count,3.0,object-46,temp_dist_trial,40.0,s_sh_17_1,student_shared,wireless mouse,4.0,competing,single,s_sh_17_1.jpg,Student,,,sub-09
Desktop or Laptop,Windows 10,Chrome 138.0.0.0,2560x1440,2560x1305,Temporal Distance Task,cb_04,89.0,temp_dist_trial,num_items,zn7si1,1.0,response,1_ITEM,1761.1000000030035,1756.8000000000463,1761.1000000030035,1761.1000000030035,1756.8000000000463,1761.1000000030035,1.0,0.0,0.0,,Click Response,1_count,3.0,object-46,temp_dist_trial,41.0,s_sh_11_1,student_shared,pencil case,4.0,competing,paired,s_sh_11_1.jpg,Student,,,sub-09
Desktop or Laptop,Windows 10,Chrome 138.0.0.0,2560x1440,2560x1305,Temporal Distance Task,cb_04,90.0,temp_dist_trial,num_items,zn7si1,1.0,response,1_ITEM,1299.1999999940165,1298.5999999999767,1299.1999999940165,1299.1999999940165,1298.5999999999767,1299.1999999940165,1.0,0.0,0.0,,Click Response,1_count,3.0,object-46,temp_dist_trial,42.0,s_sh_14_1,student_shared,printer,4.0,competing,paired,s_sh_14_1.jpg,Student,,,sub-09
Desktop or Laptop,Windows 10,Chrome 138.0.0.0,2560x1440,2560x1305,Temporal Distance Task,cb_04,91.0,temp_dist_trial,num_items,zn7si1,1.0,response,2_ITEM,1160.2000000029802,1159.5999999999767,1160.2000000029802,1160.2000000029802,1159.5999999999767,1160.2000000029802,1.0,0.0,0.0,,Click Response,2_count,5.0,object-49,temp_dist_trial,43.0,s_sh_12_1,student_shared,binder,4.0,competing,paired,s_sh_12_1.jpg,Student,,,sub-09
Desktop or Laptop,Windows 10,Chrome 138.0.0.0,2560x1440,2560x1305,Temporal Distance Task,cb_04,91.0,temp_dist_trial,dist_items,qkpkxw,2.0,info,,2.600000003003516,0.0,2.600000003003516,2.600000003003516,0.0,2.600000003003516,1.0,0.0,0.0,,Slider,Slider,4.0,object-56,temp_dist_trial,43.0,s_sh_12_1,student_shared,binder,4.0,competing,paired,s_sh_12_1.jpg,Student,,,sub-09
Desktop or Laptop,Windows 10,Chrome 138.0.0.0,2560x1440,2560x1305,Temporal Distance Task,cb_04,91.0,temp_dist_trial,dist_items,qkpkxw,2.0,continue,,1291.5999999999767,1284.7000000000114,1291.5999999999767,1291.5999999999767,1284.7000000000114,1291.5999999999767,1.0,0.0,0.0,,Click To Continue,Next button,7.0,object-60,temp_dist_trial,43.0,s_sh_12_1,student_shared,binder,4.0,competing,paired,s_sh_12_1.jpg,Student,,,sub-09
Desktop or Laptop,Windows 10,Chrome 138.0.0.0,2560x1440,2560x1305,Temporal Distance Task,cb_04,91.0,temp_dist_trial,dist_items,qkpkxw,2.0,response,72,562.6000000000348,1284.7000000000114,1291.5999999999767,562.6000000000348,1284.7000000000114,1291.5999999999767,1.0,728.9999999999417,0.0,,Slider,Slider,4.0,object-56,temp_dist_trial,43.0,s_sh_12_1,student_shared,binder,4.0,competing,paired,s_sh_12_1.jpg,Student,,,sub-09
Desktop or Laptop,Windows 10,Chrome 138.0.0.0,2560x1440,2560x1305,Temporal Distance Task,cb_04,92.0,temp_dist_trial,num_items,zn7si1,1.0,response,2_ITEM,1151.2000000000114,1145.9000000000233,1151.2000000000114,1151.2000000000114,1145.9000000000233,1151.2000000000114,1.0,0.0,0.0,,Click Response,2_count,5.0,object-49,temp_dist_trial,44.0,s_sh_16_1,student_shared,stapler,4.0,competing,paired,s_sh_16_1.jpg,Student,,,sub-09
Desktop or Laptop,Windows 10,Chrome 138.0.0.0,2560x1440,2560x1305,Temporal Distance Task,cb_04,92.0,temp_dist_trial,dist_items,qkpkxw,2.0,info,,2.899999994027893,0.0,2.899999994027893,2.899999994027893,0.0,2.899999994027893,1.0,0.0,0.0,,Slider,Slider,4.0,object-56,temp_dist_trial,44.0,s_sh_16_1,student_shared,stapler,4.0,competing,paired,s_sh_16_1.jpg,Student,,,sub-09
Desktop or Laptop,Windows 10,Chrome 138.0.0.0,2560x1440,2560x1305,Temporal Distance Task,cb_04,92.0,temp_dist_trial,dist_items,qkpkxw,2.0,continue,,1695.6999999910474,1694.2999999999884,1695.6999999910474,1695.6999999910474,1694.2999999999884,1695.6999999910474,1.0,0.0,0.0,,Click To Continue,Next button,7.0,object-60,temp_dist_trial,44.0,s_sh_16_1,student_shared,stapler,4.0,competing,paired,s_sh_16_1.jpg,Student,,,sub-09
Desktop or Laptop,Windows 10,Chrome 138.0.0.0,2560x1440,2560x1305,Temporal Distance Task,cb_04,92.0,temp_dist_trial,dist_items,qkpkxw,2.0,response,72,513.7999999999884,1694.2999999999884,1696.5000000029684,513.7999999999884,1694.2999999999884,1696.5000000029684,1.0,1182.7000000029802,0.0,,Slider,Slider,4.0,object-56,temp_dist_trial,44.0,s_sh_16_1,student_shared,stapler,4.0,competing,paired,s_sh_16_1.jpg,Student,,,sub-09
Desktop or Laptop,Windows 10,Chrome 138.0.0.0,2560x1440,2560x1305,Temporal Distance Task,cb_04,93.0,temp_dist_trial,num_items,zn7si1,1.0,response,1_ITEM,1231.7999999970198,1229.2000000000114,1231.7999999970198,1231.7999999970198,1229.2000000000114,1231.7999999970198,1.0,0.0,0.0,,Click Response,1_count,3.0,object-46,temp_dist_trial,45.0,s_a_19_1,student_art,ballet shoes,4.0,unique,single,s_a_19_1.jpg,Student,,,sub-09
Desktop or Laptop,Windows 10,Chrome 138.0.0.0,2560x1440,2560x1305,Temporal Distance Task,cb_04,94.0,temp_dist_trial,num_items,zn7si1,1.0,response,1_ITEM,1976.699999997043,1972.2000000000119,1976.699999997043,1976.699999997043,1972.2000000000119,1976.699999997043,1.0,0.0,0.0,,Click Response,1_count,3.0,object-46,temp_dist_trial,46.0,s_s_13_1,student_stem,telescope,4.0,unique,paired,s_s_13_1.jpg,Student,,,sub-09
Desktop or Laptop,Windows 10,Chrome 138.0.0.0,2560x1440,2560x1305,Temporal Distance Task,cb_04,95.0,temp_dist_trial,num_items,zn7si1,1.0,response,1_ITEM,824.4999999970314,819.4000000000232,824.4999999970314,824.4999999970314,819.4000000000232,824.4999999970314,1.0,0.0,0.0,,Click Response,1_count,3.0,object-46,temp_dist_trial,47.0,s_sh_20_1,student_shared,tape,4.0,competing,single,s_sh_20_1.jpg,Student,,,sub-09
Desktop or Laptop,Windows 10,Chrome 138.0.0.0,2560x1440,2560x1305,Temporal Distance Task,cb_04,96.0,temp_dist_trial,num_items,zn7si1,1.0,response,1_ITEM,939.7999999999884,937.5,939.7999999999884,939.7999999999884,937.5,939.7999999999884,1.0,0.0,0.0,,Click Response,1_count,3.0,object-46,temp_dist_trial,48.0,s_sh_18_1,student_shared,wall calendar,4.0,competing,single,s_sh_18_1.jpg,Student,,,sub-09
Desktop or Laptop,Windows 10,Chrome 138.0.0.0,2560x1440,2560x1305,Temporal Distance Task,$${counterbalance_group},,,,,,info,END,,,283120.0,,,,0.0,,,,,,,,,,,,,,,,,,,,sub-09
