Participant Device,Participant OS,Participant Browser,Participant Monitor Size,Participant Viewport Size,Task Name,Current Spreadsheet,Trial Number,Display,Screen,Screen ID,Screen Counter,Response Type,Response,Onset Time,Clock Time,Reaction Time,Absolute Onset Time,Absolute Clock Time,Absolute Reaction Time,Correct,Response Duration,Proportion,Tag,Component Name,Object Name,Object Number,Object ID,Spreadsheet: display,Spreadsheet: trial,Spreadsheet: stimulus_id,Spreadsheet: expected_goal,Spreadsheet: stimulus_name,Spreadsheet: c_group,Spreadsheet: condition,Spreadsheet: paired_status,Spreadsheet: stimulus_path,Spreadsheet: block_type,Manipulation: Spreadsheet,Store: enc_test_acc,sub_label
Desktop or Laptop,Windows 10,Chrome 138.0.0.0,1920x1080,1920x1080,Temporal Distance Task,,,,,,,info,BEGIN,,,,,,,,,,,,,,,,,,,,,,,,,$${counterbalance_group},,sub-75
Desktop or Laptop,Windows 10,Chrome 138.0.0.0,1920x1080,1920x1080,Temporal Distance Task,cb_02,1.0,temp_instructions,intro_screen,3tnme7,1.0,continue,,7133.399999999998,7116.799999999997,7133.399999999998,7133.399999999998,7116.799999999997,7133.399999999998,1.0,0.0,0.0,,Click To Continue,Continue Button,4.0,object-29,temp_instructions,,,Travel,,,,,,,$${counterbalance_group},,sub-75
Desktop or Laptop,Windows 10,Chrome 138.0.0.0,1920x1080,1920x1080,Temporal Distance Task,cb_02,1.0,temp_instructions,intro_screen_2,52v7ur,2.0,continue,,16439.499999952317,16433.600000000002,16439.499999952317,16439.499999952317,16433.600000000002,16439.499999952317,1.0,0.0,0.0,,Click To Continue,Continue Button,4.0,object-39,temp_instructions,,,Travel,,,,,,,$${counterbalance_group},,sub-75
Desktop or Laptop,Windows 10,Chrome 138.0.0.0,1920x1080,1920x1080,Temporal Distance Task,cb_02,1.0,temp_instructions,intro_screen_3,i7lvwx,3.0,continue,,4579.799999928473,4566.399999999998,4579.799999928473,4579.799999928473,4566.399999999998,4579.799999928473,1.0,0.0,0.0,,Click To Continue,Continue Button,4.0,object-67,temp_instructions,,,Travel,,,,,,,$${counterbalance_group},,sub-75
Desktop or Laptop,Windows 10,Chrome 138.0.0.0,1920x1080,1920x1080,Temporal Distance Task,cb_02,1.0,temp_instructions,test_q1,5ieqx1,4.0,response,choice_3,7446.700000000003,7433.500000000004,7446.700000000003,7446.700000000003,7433.500000000004,7446.700000000003,1.0,0.0,0.0,,Click Response,choice_3,5.0,object-345,temp_instructions,,,Travel,,,,,,,$${counterbalance_group},,sub-75
Desktop or Laptop,Windows 10,Chrome 138.0.0.0,1920x1080,1920x1080,Temporal Distance Task,cb_02,1.0,temp_instructions,score_corr,7ilvjr,5.0,continue,,921.4999999523134,916.3999999999942,921.4999999523134,921.4999999523134,916.3999999999942,921.4999999523134,1.0,0.0,0.0,,Click To Continue,Continue Button,3.0,object-23,temp_instructions,,,Travel,,,,,,,$${counterbalance_group},,sub-75
Desktop or Laptop,Windows 10,Chrome 138.0.0.0,1920x1080,1920x1080,Temporal Distance Task,cb_02,1.0,temp_eventStart,Screen 1,dgtyxe,1.0,continue,,1462.5999999523196,1450.4000000000015,1462.5999999523196,1462.5999999523196,1450.4000000000015,1462.5999999523196,1.0,0.0,0.0,,Click To Continue,Next Button,3.0,object-43,temp_eventStart,,,Travel,,,,,,,$${counterbalance_group},,sub-75
Desktop or Laptop,Windows 10,Chrome 138.0.0.0,1920x1080,1920x1080,Temporal Distance Task,cb_02,1.0,temp_dist_trial,num_items,zn7si1,1.0,response,1_ITEM,1644.999999904634,1633.2000000000046,1644.999999904634,1644.999999904634,1633.2000000000046,1644.999999904634,1.0,0.0,0.0,,Click Response,1_count,3.0,object-46,temp_dist_trial,1.0,t_s_02_1,travel_shared,water bottle,2.0,competing,single,t_s_02_1.jpg,Travel,$${counterbalance_group},,sub-75
Desktop or Laptop,Windows 10,Chrome 138.0.0.0,1920x1080,1920x1080,Temporal Distance Task,cb_02,2.0,temp_dist_trial,num_items,zn7si1,1.0,response,2_ITEM,2104.399999976158,2100.0999999999985,2104.399999976158,2104.399999976158,2100.0999999999985,2104.399999976158,1.0,0.0,0.0,,Click Response,2_count,5.0,object-49,temp_dist_trial,2.0,t_s_11_1,travel_shared,eye mask,2.0,competing,paired,t_s_11_1.jpg,Travel,$${counterbalance_group},,sub-75
Desktop or Laptop,Windows 10,Chrome 138.0.0.0,1920x1080,1920x1080,Temporal Distance Task,cb_02,2.0,temp_dist_trial,dist_items,qkpkxw,2.0,info,,11.699999952317741,0.0,11.699999952317741,11.699999952317741,0.0,11.699999952317741,1.0,0.0,0.0,,Slider,Slider,4.0,object-56,temp_dist_trial,2.0,t_s_11_1,travel_shared,eye mask,2.0,competing,paired,t_s_11_1.jpg,Travel,$${counterbalance_group},,sub-75
Desktop or Laptop,Windows 10,Chrome 138.0.0.0,1920x1080,1920x1080,Temporal Distance Task,cb_02,2.0,temp_dist_trial,dist_items,qkpkxw,2.0,continue,,2650.4000000000087,2633.7000000000044,2650.4000000000087,2650.4000000000087,2633.7000000000044,2650.4000000000087,1.0,0.0,0.0,,Click To Continue,Next button,7.0,object-60,temp_dist_trial,2.0,t_s_11_1,travel_shared,eye mask,2.0,competing,paired,t_s_11_1.jpg,Travel,$${counterbalance_group},,sub-75
Desktop or Laptop,Windows 10,Chrome 138.0.0.0,1920x1080,1920x1080,Temporal Distance Task,cb_02,2.0,temp_dist_trial,dist_items,qkpkxw,2.0,response,61,1433.2000000000046,2633.7000000000044,2650.4000000000087,1433.2000000000046,2633.7000000000044,2650.4000000000087,1.0,1217.2000000000044,0.0,,Slider,Slider,4.0,object-56,temp_dist_trial,2.0,t_s_11_1,travel_shared,eye mask,2.0,competing,paired,t_s_11_1.jpg,Travel,$${counterbalance_group},,sub-75
Desktop or Laptop,Windows 10,Chrome 138.0.0.0,1920x1080,1920x1080,Temporal Distance Task,cb_02,3.0,temp_dist_trial,num_items,zn7si1,1.0,response,1_ITEM,1472.5999999761555,1466.1999999999966,1472.5999999761555,1472.5999999761555,1466.1999999999966,1472.5999999761555,1.0,0.0,0.0,,Click Response,1_count,3.0,object-46,temp_dist_trial,3.0,t_s_21_1,travel_shared,umbrella,2.0,competing,single,t_s_21_1.jpg,Travel,$${counterbalance_group},,sub-75
Desktop or Laptop,Windows 10,Chrome 138.0.0.0,1920x1080,1920x1080,Temporal Distance Task,cb_02,4.0,temp_dist_trial,num_items,zn7si1,1.0,response,1_ITEM,1654.4999999284769,1650.0,1654.4999999284769,1654.4999999284769,1650.0,1654.4999999284769,1.0,0.0,0.0,,Click Response,1_count,3.0,object-46,temp_dist_trial,4.0,t_m_18_1,travel_Miami,waterproof tote,2.0,unique,paired,t_m_18_1.jpg,Travel,$${counterbalance_group},,sub-75
Desktop or Laptop,Windows 10,Chrome 138.0.0.0,1920x1080,1920x1080,Temporal Distance Task,cb_02,5.0,temp_dist_trial,num_items,zn7si1,1.0,response,1_ITEM,1520.1999999523175,1516.7000000000046,1520.1999999523175,1520.1999999523175,1516.7000000000046,1520.1999999523175,1.0,0.0,0.0,,Click Response,1_count,3.0,object-46,temp_dist_trial,5.0,t_i_15_1,travel_Iceland,compass,2.0,unique,paired,t_i_15_1.jpg,Travel,$${counterbalance_group},,sub-75
Desktop or Laptop,Windows 10,Chrome 138.0.0.0,1920x1080,1920x1080,Temporal Distance Task,cb_02,6.0,temp_dist_trial,num_items,zn7si1,1.0,response,1_ITEM,1283.1000000000058,1266.4000000000015,1283.1000000000058,1283.1000000000058,1266.4000000000015,1283.1000000000058,1.0,0.0,0.0,,Click Response,1_count,3.0,object-46,temp_dist_trial,6.0,t_s_09_1,travel_shared,wallet,2.0,competing,single,t_s_09_1.jpg,Travel,$${counterbalance_group},,sub-75
Desktop or Laptop,Windows 10,Chrome 138.0.0.0,1920x1080,1920x1080,Temporal Distance Task,cb_02,7.0,temp_dist_trial,num_items,zn7si1,1.0,response,1_ITEM,1502.7999999523165,1499.9000000000015,1502.7999999523165,1502.7999999523165,1499.9000000000015,1502.7999999523165,1.0,0.0,0.0,,Click Response,1_count,3.0,object-46,temp_dist_trial,7.0,t_s_18_1,travel_shared,first aid kit,2.0,competing,paired,t_s_18_1.jpg,Travel,$${counterbalance_group},,sub-75
Desktop or Laptop,Windows 10,Chrome 138.0.0.0,1920x1080,1920x1080,Temporal Distance Task,cb_02,8.0,temp_dist_trial,num_items,zn7si1,1.0,response,2_ITEM,1770.0,1766.8000000000034,1770.0,1770.0,1766.8000000000034,1770.0,1.0,0.0,0.0,,Click Response,2_count,5.0,object-49,temp_dist_trial,8.0,t_s_16_1,travel_shared,chapstick,2.0,competing,single,t_s_16_1.jpg,Travel,$${counterbalance_group},,sub-75
Desktop or Laptop,Windows 10,Chrome 138.0.0.0,1920x1080,1920x1080,Temporal Distance Task,cb_02,8.0,temp_dist_trial,dist_items,qkpkxw,2.0,info,,8.799999904629658,0.0,8.799999904629658,8.799999904629658,0.0,8.799999904629658,1.0,0.0,0.0,,Slider,Slider,4.0,object-56,temp_dist_trial,8.0,t_s_16_1,travel_shared,chapstick,2.0,competing,single,t_s_16_1.jpg,Travel,$${counterbalance_group},,sub-75
Desktop or Laptop,Windows 10,Chrome 138.0.0.0,1920x1080,1920x1080,Temporal Distance Task,cb_02,8.0,temp_dist_trial,dist_items,qkpkxw,2.0,continue,,2197.699999999997,2183.0,2197.699999999997,2197.699999999997,2183.0,2197.699999999997,1.0,0.0,0.0,,Click To Continue,Next button,7.0,object-60,temp_dist_trial,8.0,t_s_16_1,travel_shared,chapstick,2.0,competing,single,t_s_16_1.jpg,Travel,$${counterbalance_group},,sub-75
Desktop or Laptop,Windows 10,Chrome 138.0.0.0,1920x1080,1920x1080,Temporal Distance Task,cb_02,8.0,temp_dist_trial,dist_items,qkpkxw,2.0,response,34,1149.8999999999942,2183.0,2199.6000000000063,1149.8999999999942,2183.0,2199.6000000000063,1.0,1049.7000000000116,0.0,,Slider,Slider,4.0,object-56,temp_dist_trial,8.0,t_s_16_1,travel_shared,chapstick,2.0,competing,single,t_s_16_1.jpg,Travel,$${counterbalance_group},,sub-75
Desktop or Laptop,Windows 10,Chrome 138.0.0.0,1920x1080,1920x1080,Temporal Distance Task,cb_02,9.0,temp_dist_trial,num_items,zn7si1,1.0,response,1_ITEM,1365.9999999523136,1349.8999999999942,1365.9999999523136,1365.9999999523136,1349.8999999999942,1365.9999999523136,1.0,0.0,0.0,,Click Response,1_count,3.0,object-46,temp_dist_trial,9.0,t_m_01_1,travel_Miami,sandals,2.0,unique,paired,t_m_01_1.jpg,Travel,$${counterbalance_group},,sub-75
Desktop or Laptop,Windows 10,Chrome 138.0.0.0,1920x1080,1920x1080,Temporal Distance Task,cb_02,10.0,temp_dist_trial,num_items,zn7si1,1.0,response,2_ITEM,1454.7999999523165,1450.0,1454.7999999523165,1454.7999999523165,1450.0,1454.7999999523165,1.0,0.0,0.0,,Click Response,2_count,5.0,object-49,temp_dist_trial,10.0,t_i_20_1,travel_Iceland,lantern,2.0,unique,paired,t_i_20_1.jpg,Travel,$${counterbalance_group},,sub-75
Desktop or Laptop,Windows 10,Chrome 138.0.0.0,1920x1080,1920x1080,Temporal Distance Task,cb_02,10.0,temp_dist_trial,dist_items,qkpkxw,2.0,info,,3.2999999046296584,0.0,3.2999999046296584,3.2999999046296584,0.0,3.2999999046296584,1.0,0.0,0.0,,Slider,Slider,4.0,object-56,temp_dist_trial,10.0,t_i_20_1,travel_Iceland,lantern,2.0,unique,paired,t_i_20_1.jpg,Travel,$${counterbalance_group},,sub-75
Desktop or Laptop,Windows 10,Chrome 138.0.0.0,1920x1080,1920x1080,Temporal Distance Task,cb_02,10.0,temp_dist_trial,dist_items,qkpkxw,2.0,continue,,2116.7999999046297,2100.199999999997,2116.7999999046297,2116.7999999046297,2100.199999999997,2116.7999999046297,1.0,0.0,0.0,,Click To Continue,Next button,7.0,object-60,temp_dist_trial,10.0,t_i_20_1,travel_Iceland,lantern,2.0,unique,paired,t_i_20_1.jpg,Travel,$${counterbalance_group},,sub-75
Desktop or Laptop,Windows 10,Chrome 138.0.0.0,1920x1080,1920x1080,Temporal Distance Task,cb_02,10.0,temp_dist_trial,dist_items,qkpkxw,2.0,response,26,1116.8000000000031,2100.199999999997,2116.800000000003,1116.8000000000031,2100.199999999997,2116.800000000003,1.0,1000.0,0.0,,Slider,Slider,4.0,object-56,temp_dist_trial,10.0,t_i_20_1,travel_Iceland,lantern,2.0,unique,paired,t_i_20_1.jpg,Travel,$${counterbalance_group},,sub-75
Desktop or Laptop,Windows 10,Chrome 138.0.0.0,1920x1080,1920x1080,Temporal Distance Task,cb_02,11.0,temp_dist_trial,num_items,zn7si1,1.0,response,1_ITEM,1534.6999999284744,1533.1999999999966,1534.6999999284744,1534.6999999284744,1533.1999999999966,1534.6999999284744,1.0,0.0,0.0,,Click Response,1_count,3.0,object-46,temp_dist_trial,11.0,t_s_07_1,travel_shared,phone charger cable,2.0,competing,paired,t_s_07_1.jpg,Travel,$${counterbalance_group},,sub-75
Desktop or Laptop,Windows 10,Chrome 138.0.0.0,1920x1080,1920x1080,Temporal Distance Task,cb_02,12.0,temp_dist_trial,num_items,zn7si1,1.0,response,2_ITEM,1743.3999999046357,1733.400000000009,1743.3999999046357,1743.3999999046357,1733.400000000009,1743.3999999046357,1.0,0.0,0.0,,Click Response,2_count,5.0,object-49,temp_dist_trial,12.0,t_s_01_1,travel_shared,fanny pack,2.0,competing,paired,t_s_01_1.jpg,Travel,$${counterbalance_group},,sub-75
Desktop or Laptop,Windows 10,Chrome 138.0.0.0,1920x1080,1920x1080,Temporal Distance Task,cb_02,12.0,temp_dist_trial,dist_items,qkpkxw,2.0,info,,3.799999952316284,0.0,3.799999952316284,3.799999952316284,0.0,3.799999952316284,1.0,0.0,0.0,,Slider,Slider,4.0,object-56,temp_dist_trial,12.0,t_s_01_1,travel_shared,fanny pack,2.0,competing,paired,t_s_01_1.jpg,Travel,$${counterbalance_group},,sub-75
Desktop or Laptop,Windows 10,Chrome 138.0.0.0,1920x1080,1920x1080,Temporal Distance Task,cb_02,12.0,temp_dist_trial,dist_items,qkpkxw,2.0,continue,,1920.0999999046328,1916.8000000000034,1920.0999999046328,1920.0999999046328,1916.8000000000034,1920.0999999046328,1.0,0.0,0.0,,Click To Continue,Next button,7.0,object-60,temp_dist_trial,12.0,t_s_01_1,travel_shared,fanny pack,2.0,competing,paired,t_s_01_1.jpg,Travel,$${counterbalance_group},,sub-75
Desktop or Laptop,Windows 10,Chrome 138.0.0.0,1920x1080,1920x1080,Temporal Distance Task,cb_02,12.0,temp_dist_trial,dist_items,qkpkxw,2.0,response,44,867.1000000000058,1916.8000000000034,1924.5,867.1000000000058,1916.8000000000034,1924.5,1.0,1057.3999999999942,0.0,,Slider,Slider,4.0,object-56,temp_dist_trial,12.0,t_s_01_1,travel_shared,fanny pack,2.0,competing,paired,t_s_01_1.jpg,Travel,$${counterbalance_group},,sub-75
Desktop or Laptop,Windows 10,Chrome 138.0.0.0,1920x1080,1920x1080,Temporal Distance Task,cb_02,13.0,temp_dist_trial,num_items,zn7si1,1.0,response,1_ITEM,1651.2999999046294,1650.0,1651.2999999046294,1651.2999999046294,1650.0,1651.2999999046294,1.0,0.0,0.0,,Click Response,1_count,3.0,object-46,temp_dist_trial,13.0,t_m_12_1,travel_Miami,foldable pail and shovel,2.0,unique,paired,t_m_12_1.jpg,Travel,$${counterbalance_group},,sub-75
Desktop or Laptop,Windows 10,Chrome 138.0.0.0,1920x1080,1920x1080,Temporal Distance Task,cb_02,14.0,temp_dist_trial,num_items,zn7si1,1.0,response,1_ITEM,1497.8999999284713,1483.3999999999942,1497.8999999284713,1497.8999999284713,1483.3999999999942,1497.8999999284713,1.0,0.0,0.0,,Click Response,1_count,3.0,object-46,temp_dist_trial,14.0,t_i_14_1,travel_Iceland,snow pants,2.0,unique,single,t_i_14_1.jpg,Travel,$${counterbalance_group},,sub-75
Desktop or Laptop,Windows 10,Chrome 138.0.0.0,1920x1080,1920x1080,Temporal Distance Task,cb_02,15.0,temp_dist_trial,num_items,zn7si1,1.0,response,1_ITEM,1257.2999999046294,1249.8000000000031,1257.2999999046294,1257.2999999046294,1249.8000000000031,1257.2999999046294,1.0,0.0,0.0,,Click Response,1_count,3.0,object-46,temp_dist_trial,15.0,t_s_04_1,travel_shared,instant camera,2.0,competing,paired,t_s_04_1.jpg,Travel,$${counterbalance_group},,sub-75
Desktop or Laptop,Windows 10,Chrome 138.0.0.0,1920x1080,1920x1080,Temporal Distance Task,cb_02,16.0,temp_dist_trial,num_items,zn7si1,1.0,response,1_ITEM,1373.7999999523165,1366.6999999999969,1373.7999999523165,1373.7999999523165,1366.6999999999969,1373.7999999523165,1.0,0.0,0.0,,Click Response,1_count,3.0,object-46,temp_dist_trial,16.0,t_i_16_1,travel_Iceland,skis,2.0,unique,single,t_i_16_1.jpg,Travel,$${counterbalance_group},,sub-75
Desktop or Laptop,Windows 10,Chrome 138.0.0.0,1920x1080,1920x1080,Temporal Distance Task,cb_02,17.0,temp_dist_trial,num_items,zn7si1,1.0,response,1_ITEM,1135.4999999523136,1133.3000000000031,1135.4999999523136,1135.4999999523136,1133.3000000000031,1135.4999999523136,1.0,0.0,0.0,,Click Response,1_count,3.0,object-46,temp_dist_trial,17.0,t_m_08_1,travel_Miami,flipflops,2.0,unique,single,t_m_08_1.jpg,Travel,$${counterbalance_group},,sub-75
Desktop or Laptop,Windows 10,Chrome 138.0.0.0,1920x1080,1920x1080,Temporal Distance Task,cb_02,18.0,temp_dist_trial,num_items,zn7si1,1.0,response,1_ITEM,1189.899999976158,1183.3999999999942,1189.899999976158,1189.899999976158,1183.3999999999942,1189.899999976158,1.0,0.0,0.0,,Click Response,1_count,3.0,object-46,temp_dist_trial,18.0,t_i_19_1,travel_Iceland,rope,2.0,unique,paired,t_i_19_1.jpg,Travel,$${counterbalance_group},,sub-75
Desktop or Laptop,Windows 10,Chrome 138.0.0.0,1920x1080,1920x1080,Temporal Distance Task,cb_02,19.0,temp_dist_trial,num_items,zn7si1,1.0,response,1_ITEM,1598.999999976164,1582.900000000009,1598.999999976164,1598.999999976164,1582.900000000009,1598.999999976164,1.0,0.0,0.0,,Click Response,1_count,3.0,object-46,temp_dist_trial,19.0,t_i_04_1,travel_Iceland,portable camping stove,2.0,unique,single,t_i_04_1.jpg,Travel,$${counterbalance_group},,sub-75
Desktop or Laptop,Windows 10,Chrome 138.0.0.0,1920x1080,1920x1080,Temporal Distance Task,cb_02,20.0,temp_dist_trial,num_items,zn7si1,1.0,response,1_ITEM,1187.2999999761525,1183.2999999999886,1187.2999999761525,1187.2999999761525,1183.2999999999886,1187.2999999761525,1.0,0.0,0.0,,Click Response,1_count,3.0,object-46,temp_dist_trial,20.0,t_s_06_1,travel_shared,luggage,2.0,competing,single,t_s_06_1.jpg,Travel,$${counterbalance_group},,sub-75
Desktop or Laptop,Windows 10,Chrome 138.0.0.0,1920x1080,1920x1080,Temporal Distance Task,cb_02,21.0,temp_dist_trial,num_items,zn7si1,1.0,response,1_ITEM,1225.8999999999942,1216.6999999999969,1225.8999999999942,1225.8999999999942,1216.6999999999969,1225.8999999999942,1.0,0.0,0.0,,Click Response,1_count,3.0,object-46,temp_dist_trial,21.0,t_s_17_1,travel_shared,toothbrush,2.0,competing,paired,t_s_17_1.jpg,Travel,$${counterbalance_group},,sub-75
Desktop or Laptop,Windows 10,Chrome 138.0.0.0,1920x1080,1920x1080,Temporal Distance Task,cb_02,22.0,temp_dist_trial,num_items,zn7si1,1.0,response,2_ITEM,1153.8999999046355,1150.1999999999969,1153.8999999046355,1153.8999999046355,1150.1999999999969,1153.8999999046355,1.0,0.0,0.0,,Click Response,2_count,5.0,object-49,temp_dist_trial,22.0,t_i_09_1,travel_Iceland,ear muffs,2.0,unique,paired,t_i_09_1.jpg,Travel,$${counterbalance_group},,sub-75
Desktop or Laptop,Windows 10,Chrome 138.0.0.0,1920x1080,1920x1080,Temporal Distance Task,cb_02,22.0,temp_dist_trial,dist_items,qkpkxw,2.0,info,,6.899999904635477,0.0,6.899999904635477,6.899999904635477,0.0,6.899999904635477,1.0,0.0,0.0,,Slider,Slider,4.0,object-56,temp_dist_trial,22.0,t_i_09_1,travel_Iceland,ear muffs,2.0,unique,paired,t_i_09_1.jpg,Travel,$${counterbalance_group},,sub-75
Desktop or Laptop,Windows 10,Chrome 138.0.0.0,1920x1080,1920x1080,Temporal Distance Task,cb_02,22.0,temp_dist_trial,dist_items,qkpkxw,2.0,continue,,1921.899999904636,1916.900000000009,1921.899999904636,1921.899999904636,1916.900000000009,1921.899999904636,1.0,0.0,0.0,,Click To Continue,Next button,7.0,object-60,temp_dist_trial,22.0,t_i_09_1,travel_Iceland,ear muffs,2.0,unique,paired,t_i_09_1.jpg,Travel,$${counterbalance_group},,sub-75
Desktop or Laptop,Windows 10,Chrome 138.0.0.0,1920x1080,1920x1080,Temporal Distance Task,cb_02,22.0,temp_dist_trial,dist_items,qkpkxw,2.0,response,63,833.4000000000087,1916.900000000009,1922.899999904636,833.4000000000087,1916.900000000009,1922.899999904636,1.0,1089.4999999046267,0.0,,Slider,Slider,4.0,object-56,temp_dist_trial,22.0,t_i_09_1,travel_Iceland,ear muffs,2.0,unique,paired,t_i_09_1.jpg,Travel,$${counterbalance_group},,sub-75
Desktop or Laptop,Windows 10,Chrome 138.0.0.0,1920x1080,1920x1080,Temporal Distance Task,cb_02,23.0,temp_dist_trial,num_items,zn7si1,1.0,response,2_ITEM,1899.7999999999884,1883.0999999999915,1899.7999999999884,1899.7999999999884,1883.0999999999915,1899.7999999999884,1.0,0.0,0.0,,Click Response,2_count,5.0,object-49,temp_dist_trial,23.0,t_m_17_1,travel_Miami,water gun,2.0,unique,paired,t_m_17_1.jpg,Travel,$${counterbalance_group},,sub-75
Desktop or Laptop,Windows 10,Chrome 138.0.0.0,1920x1080,1920x1080,Temporal Distance Task,cb_02,23.0,temp_dist_trial,dist_items,qkpkxw,2.0,info,,7.800000000002909,0.0,7.800000000002909,7.800000000002909,0.0,7.800000000002909,1.0,0.0,0.0,,Slider,Slider,4.0,object-56,temp_dist_trial,23.0,t_m_17_1,travel_Miami,water gun,2.0,unique,paired,t_m_17_1.jpg,Travel,$${counterbalance_group},,sub-75
Desktop or Laptop,Windows 10,Chrome 138.0.0.0,1920x1080,1920x1080,Temporal Distance Task,cb_02,23.0,temp_dist_trial,dist_items,qkpkxw,2.0,continue,,2068.9999999284773,2066.6000000000063,2068.9999999284773,2068.9999999284773,2066.6000000000063,2068.9999999284773,1.0,0.0,0.0,,Click To Continue,Next button,7.0,object-60,temp_dist_trial,23.0,t_m_17_1,travel_Miami,water gun,2.0,unique,paired,t_m_17_1.jpg,Travel,$${counterbalance_group},,sub-75
Desktop or Laptop,Windows 10,Chrome 138.0.0.0,1920x1080,1920x1080,Temporal Distance Task,cb_02,23.0,temp_dist_trial,dist_items,qkpkxw,2.0,response,60,966.6999999999972,2066.6000000000063,2071.599999952319,966.6999999999972,2066.6000000000063,2071.599999952319,1.0,1104.8999999523219,0.0,,Slider,Slider,4.0,object-56,temp_dist_trial,23.0,t_m_17_1,travel_Miami,water gun,2.0,unique,paired,t_m_17_1.jpg,Travel,$${counterbalance_group},,sub-75
Desktop or Laptop,Windows 10,Chrome 138.0.0.0,1920x1080,1920x1080,Temporal Distance Task,cb_02,24.0,temp_dist_trial,num_items,zn7si1,1.0,response,1_ITEM,1066.8999999999942,1050.1999999999969,1066.8999999999942,1066.8999999999942,1050.1999999999969,1066.8999999999942,1.0,0.0,0.0,,Click Response,1_count,3.0,object-46,temp_dist_trial,24.0,t_s_23_1,travel_shared,ball cap,2.0,competing,paired,t_s_23_1.jpg,Travel,$${counterbalance_group},,sub-75
Desktop or Laptop,Windows 10,Chrome 138.0.0.0,1920x1080,1920x1080,Temporal Distance Task,cb_02,25.0,temp_dist_trial,num_items,zn7si1,1.0,response,2_ITEM,1200.8000000000031,1183.8000000000031,1200.8000000000031,1200.8000000000031,1183.8000000000031,1200.8000000000031,1.0,0.0,0.0,,Click Response,2_count,5.0,object-49,temp_dist_trial,25.0,t_m_02_1,travel_Miami,t-shirt,2.0,unique,paired,t_m_02_1.jpg,Travel,$${counterbalance_group},,sub-75
Desktop or Laptop,Windows 10,Chrome 138.0.0.0,1920x1080,1920x1080,Temporal Distance Task,cb_02,25.0,temp_dist_trial,dist_items,qkpkxw,2.0,info,,5.799999976152321,0.0,5.799999976152321,5.799999976152321,0.0,5.799999976152321,1.0,0.0,0.0,,Slider,Slider,4.0,object-56,temp_dist_trial,25.0,t_m_02_1,travel_Miami,t-shirt,2.0,unique,paired,t_m_02_1.jpg,Travel,$${counterbalance_group},,sub-75
Desktop or Laptop,Windows 10,Chrome 138.0.0.0,1920x1080,1920x1080,Temporal Distance Task,cb_02,25.0,temp_dist_trial,dist_items,qkpkxw,2.0,continue,,1750.5999999999767,1733.7999999999884,1750.5999999999767,1750.5999999999767,1733.7999999999884,1750.5999999999767,1.0,0.0,0.0,,Click To Continue,Next button,7.0,object-60,temp_dist_trial,25.0,t_m_02_1,travel_Miami,t-shirt,2.0,unique,paired,t_m_02_1.jpg,Travel,$${counterbalance_group},,sub-75
Desktop or Laptop,Windows 10,Chrome 138.0.0.0,1920x1080,1920x1080,Temporal Distance Task,cb_02,25.0,temp_dist_trial,dist_items,qkpkxw,2.0,response,40,900.1999999999971,1733.7999999999884,1750.5999999999767,900.1999999999971,1733.7999999999884,1750.5999999999767,1.0,850.3999999999795,0.0,,Slider,Slider,4.0,object-56,temp_dist_trial,25.0,t_m_02_1,travel_Miami,t-shirt,2.0,unique,paired,t_m_02_1.jpg,Travel,$${counterbalance_group},,sub-75
Desktop or Laptop,Windows 10,Chrome 138.0.0.0,1920x1080,1920x1080,Temporal Distance Task,cb_02,26.0,temp_dist_trial,num_items,zn7si1,1.0,response,1_ITEM,1257.3999999523219,1249.7000000000114,1257.3999999523219,1257.3999999523219,1249.7000000000114,1257.3999999523219,1.0,0.0,0.0,,Click Response,1_count,3.0,object-46,temp_dist_trial,26.0,t_m_06_1,travel_Miami,handheld fan,2.0,unique,single,t_m_06_1.jpg,Travel,$${counterbalance_group},,sub-75
Desktop or Laptop,Windows 10,Chrome 138.0.0.0,1920x1080,1920x1080,Temporal Distance Task,cb_02,27.0,temp_dist_trial,num_items,zn7si1,1.0,response,2_ITEM,2012.2999999046292,1999.8000000000034,2012.2999999046292,2012.2999999046292,1999.8000000000034,2012.2999999046292,1.0,0.0,0.0,,Click Response,2_count,5.0,object-49,temp_dist_trial,27.0,t_s_13_1,travel_shared,contact lens case,2.0,competing,paired,t_s_13_1.jpg,Travel,$${counterbalance_group},,sub-75
Desktop or Laptop,Windows 10,Chrome 138.0.0.0,1920x1080,1920x1080,Temporal Distance Task,cb_02,27.0,temp_dist_trial,dist_items,qkpkxw,2.0,info,,3.5,0.0,3.5,3.5,0.0,3.5,1.0,0.0,0.0,,Slider,Slider,4.0,object-56,temp_dist_trial,27.0,t_s_13_1,travel_shared,contact lens case,2.0,competing,paired,t_s_13_1.jpg,Travel,$${counterbalance_group},,sub-75
Desktop or Laptop,Windows 10,Chrome 138.0.0.0,1920x1080,1920x1080,Temporal Distance Task,cb_02,27.0,temp_dist_trial,dist_items,qkpkxw,2.0,continue,,1691.1999999284744,1683.5,1691.1999999284744,1691.1999999284744,1683.5,1691.1999999284744,1.0,0.0,0.0,,Click To Continue,Next button,7.0,object-60,temp_dist_trial,27.0,t_s_13_1,travel_shared,contact lens case,2.0,competing,paired,t_s_13_1.jpg,Travel,$${counterbalance_group},,sub-75
Desktop or Laptop,Windows 10,Chrome 138.0.0.0,1920x1080,1920x1080,Temporal Distance Task,cb_02,27.0,temp_dist_trial,dist_items,qkpkxw,2.0,response,25,833.3999999999942,1683.5,1691.7999999523165,833.3999999999942,1683.5,1691.7999999523165,1.0,858.3999999523221,0.0,,Slider,Slider,4.0,object-56,temp_dist_trial,27.0,t_s_13_1,travel_shared,contact lens case,2.0,competing,paired,t_s_13_1.jpg,Travel,$${counterbalance_group},,sub-75
Desktop or Laptop,Windows 10,Chrome 138.0.0.0,1920x1080,1920x1080,Temporal Distance Task,cb_02,28.0,temp_dist_trial,num_items,zn7si1,1.0,response,1_ITEM,1584.8999999761581,1583.1999999999966,1584.8999999761581,1584.8999999761581,1583.1999999999966,1584.8999999761581,1.0,0.0,0.0,,Click Response,1_count,3.0,object-46,temp_dist_trial,28.0,t_s_03_1,travel_shared,portable charger,2.0,competing,single,t_s_03_1.jpg,Travel,$${counterbalance_group},,sub-75
Desktop or Laptop,Windows 10,Chrome 138.0.0.0,1920x1080,1920x1080,Temporal Distance Task,cb_02,29.0,temp_dist_trial,num_items,zn7si1,1.0,response,2_ITEM,1774.5999999046326,1766.8999999999942,1774.5999999046326,1774.5999999046326,1766.8999999999942,1774.5999999046326,1.0,0.0,0.0,,Click Response,2_count,5.0,object-49,temp_dist_trial,29.0,t_s_24_1,travel_shared,ear plugs,2.0,competing,paired,t_s_24_1.jpg,Travel,$${counterbalance_group},,sub-75
Desktop or Laptop,Windows 10,Chrome 138.0.0.0,1920x1080,1920x1080,Temporal Distance Task,cb_02,29.0,temp_dist_trial,dist_items,qkpkxw,2.0,info,,6.699999928474426,0.0,6.699999928474426,6.699999928474426,0.0,6.699999928474426,1.0,0.0,0.0,,Slider,Slider,4.0,object-56,temp_dist_trial,29.0,t_s_24_1,travel_shared,ear plugs,2.0,competing,paired,t_s_24_1.jpg,Travel,$${counterbalance_group},,sub-75
Desktop or Laptop,Windows 10,Chrome 138.0.0.0,1920x1080,1920x1080,Temporal Distance Task,cb_02,29.0,temp_dist_trial,dist_items,qkpkxw,2.0,continue,,2270.6999999284744,2266.6000000000063,2270.6999999284744,2270.6999999284744,2266.6000000000063,2270.6999999284744,1.0,0.0,0.0,,Click To Continue,Next button,7.0,object-60,temp_dist_trial,29.0,t_s_24_1,travel_shared,ear plugs,2.0,competing,paired,t_s_24_1.jpg,Travel,$${counterbalance_group},,sub-75
Desktop or Laptop,Windows 10,Chrome 138.0.0.0,1920x1080,1920x1080,Temporal Distance Task,cb_02,29.0,temp_dist_trial,dist_items,qkpkxw,2.0,response,17,766.6000000000058,2266.6000000000063,2271.1999999284744,766.6000000000058,2266.6000000000063,2271.1999999284744,1.0,1504.5999999284686,0.0,,Slider,Slider,4.0,object-56,temp_dist_trial,29.0,t_s_24_1,travel_shared,ear plugs,2.0,competing,paired,t_s_24_1.jpg,Travel,$${counterbalance_group},,sub-75
Desktop or Laptop,Windows 10,Chrome 138.0.0.0,1920x1080,1920x1080,Temporal Distance Task,cb_02,30.0,temp_dist_trial,num_items,zn7si1,1.0,response,1_ITEM,1089.5999999284686,1083.2999999999884,1089.5999999284686,1089.5999999284686,1083.2999999999884,1089.5999999284686,1.0,0.0,0.0,,Click Response,1_count,3.0,object-46,temp_dist_trial,30.0,t_m_19_1,travel_Miami,surfboard,2.0,unique,paired,t_m_19_1.jpg,Travel,$${counterbalance_group},,sub-75
Desktop or Laptop,Windows 10,Chrome 138.0.0.0,1920x1080,1920x1080,Temporal Distance Task,cb_02,31.0,temp_dist_trial,num_items,zn7si1,1.0,response,2_ITEM,1567.1000000000058,1550.1000000000058,1567.1000000000058,1567.1000000000058,1550.1000000000058,1567.1000000000058,1.0,0.0,0.0,,Click Response,2_count,5.0,object-49,temp_dist_trial,31.0,t_s_15_1,travel_shared,luggage tag,2.0,competing,paired,t_s_15_1.jpg,Travel,$${counterbalance_group},,sub-75
Desktop or Laptop,Windows 10,Chrome 138.0.0.0,1920x1080,1920x1080,Temporal Distance Task,cb_02,31.0,temp_dist_trial,dist_items,qkpkxw,2.0,info,,7.399999928471518,0.0,7.399999928471518,7.399999928471518,0.0,7.399999928471518,1.0,0.0,0.0,,Slider,Slider,4.0,object-56,temp_dist_trial,31.0,t_s_15_1,travel_shared,luggage tag,2.0,competing,paired,t_s_15_1.jpg,Travel,$${counterbalance_group},,sub-75
Desktop or Laptop,Windows 10,Chrome 138.0.0.0,1920x1080,1920x1080,Temporal Distance Task,cb_02,31.0,temp_dist_trial,dist_items,qkpkxw,2.0,continue,,1373.9999999523136,1366.8000000000031,1373.9999999523136,1373.9999999523136,1366.8000000000031,1373.9999999523136,1.0,0.0,0.0,,Click To Continue,Next button,7.0,object-60,temp_dist_trial,31.0,t_s_15_1,travel_shared,luggage tag,2.0,competing,paired,t_s_15_1.jpg,Travel,$${counterbalance_group},,sub-75
Desktop or Laptop,Windows 10,Chrome 138.0.0.0,1920x1080,1920x1080,Temporal Distance Task,cb_02,31.0,temp_dist_trial,dist_items,qkpkxw,2.0,response,18,667.0999999999913,1366.8000000000031,1374.7999999046294,667.0999999999913,1366.8000000000031,1374.7999999046294,1.0,707.6999999046384,0.0,,Slider,Slider,4.0,object-56,temp_dist_trial,31.0,t_s_15_1,travel_shared,luggage tag,2.0,competing,paired,t_s_15_1.jpg,Travel,$${counterbalance_group},,sub-75
Desktop or Laptop,Windows 10,Chrome 138.0.0.0,1920x1080,1920x1080,Temporal Distance Task,cb_02,32.0,temp_dist_trial,num_items,zn7si1,1.0,response,1_ITEM,2118.1999999523105,2116.699999999997,2118.1999999523105,2118.1999999523105,2116.699999999997,2118.1999999523105,1.0,0.0,0.0,,Click Response,1_count,3.0,object-46,temp_dist_trial,32.0,t_i_18_1,travel_Iceland,ski mask,2.0,unique,single,t_i_18_1.jpg,Travel,$${counterbalance_group},,sub-75
Desktop or Laptop,Windows 10,Chrome 138.0.0.0,1920x1080,1920x1080,Temporal Distance Task,cb_02,33.0,temp_dist_trial,num_items,zn7si1,1.0,response,2_ITEM,1110.9999999284773,1100.0,1110.9999999284773,1110.9999999284773,1100.0,1110.9999999284773,1.0,0.0,0.0,,Click Response,2_count,5.0,object-49,temp_dist_trial,33.0,t_s_05_1,travel_shared,neck pillow,2.0,competing,paired,t_s_05_1.jpg,Travel,$${counterbalance_group},,sub-75
Desktop or Laptop,Windows 10,Chrome 138.0.0.0,1920x1080,1920x1080,Temporal Distance Task,cb_02,33.0,temp_dist_trial,dist_items,qkpkxw,2.0,info,,3.5999999523191946,0.0,3.5999999523191946,3.5999999523191946,0.0,3.5999999523191946,1.0,0.0,0.0,,Slider,Slider,4.0,object-56,temp_dist_trial,33.0,t_s_05_1,travel_shared,neck pillow,2.0,competing,paired,t_s_05_1.jpg,Travel,$${counterbalance_group},,sub-75
Desktop or Laptop,Windows 10,Chrome 138.0.0.0,1920x1080,1920x1080,Temporal Distance Task,cb_02,33.0,temp_dist_trial,dist_items,qkpkxw,2.0,continue,,1522.6999999761608,1517.0,1522.6999999761608,1522.6999999761608,1517.0,1522.6999999761608,1.0,0.0,0.0,,Click To Continue,Next button,7.0,object-60,temp_dist_trial,33.0,t_s_05_1,travel_shared,neck pillow,2.0,competing,paired,t_s_05_1.jpg,Travel,$${counterbalance_group},,sub-75
Desktop or Laptop,Windows 10,Chrome 138.0.0.0,1920x1080,1920x1080,Temporal Distance Task,cb_02,33.0,temp_dist_trial,dist_items,qkpkxw,2.0,response,37,733.4000000000087,1517.0,1523.3000000000034,733.4000000000087,1517.0,1523.3000000000034,1.0,789.8999999999942,0.0,,Slider,Slider,4.0,object-56,temp_dist_trial,33.0,t_s_05_1,travel_shared,neck pillow,2.0,competing,paired,t_s_05_1.jpg,Travel,$${counterbalance_group},,sub-75
Desktop or Laptop,Windows 10,Chrome 138.0.0.0,1920x1080,1920x1080,Temporal Distance Task,cb_02,34.0,temp_dist_trial,num_items,zn7si1,1.0,response,2_ITEM,1605.3000000000034,1599.6999999999966,1605.3000000000034,1605.3000000000034,1599.6999999999966,1605.3000000000034,1.0,0.0,0.0,,Click Response,2_count,5.0,object-49,temp_dist_trial,34.0,t_s_20_1,travel_shared,travel pill case,2.0,competing,paired,t_s_20_1.jpg,Travel,$${counterbalance_group},,sub-75
Desktop or Laptop,Windows 10,Chrome 138.0.0.0,1920x1080,1920x1080,Temporal Distance Task,cb_02,34.0,temp_dist_trial,dist_items,qkpkxw,2.0,info,,6.899999928471518,0.0,6.899999928471518,6.899999928471518,0.0,6.899999928471518,1.0,0.0,0.0,,Slider,Slider,4.0,object-56,temp_dist_trial,34.0,t_s_20_1,travel_shared,travel pill case,2.0,competing,paired,t_s_20_1.jpg,Travel,$${counterbalance_group},,sub-75
Desktop or Laptop,Windows 10,Chrome 138.0.0.0,1920x1080,1920x1080,Temporal Distance Task,cb_02,34.0,temp_dist_trial,dist_items,qkpkxw,2.0,continue,,1941.1999999999966,1934.0,1941.1999999999966,1941.1999999999966,1934.0,1941.1999999999966,1.0,0.0,0.0,,Click To Continue,Next button,7.0,object-60,temp_dist_trial,34.0,t_s_20_1,travel_shared,travel pill case,2.0,competing,paired,t_s_20_1.jpg,Travel,$${counterbalance_group},,sub-75
Desktop or Laptop,Windows 10,Chrome 138.0.0.0,1920x1080,1920x1080,Temporal Distance Task,cb_02,34.0,temp_dist_trial,dist_items,qkpkxw,2.0,response,56,1017.0999999999913,1934.0,1941.7999999046292,1017.0999999999913,1934.0,1941.7999999046292,1.0,924.6999999046384,0.0,,Slider,Slider,4.0,object-56,temp_dist_trial,34.0,t_s_20_1,travel_shared,travel pill case,2.0,competing,paired,t_s_20_1.jpg,Travel,$${counterbalance_group},,sub-75
Desktop or Laptop,Windows 10,Chrome 138.0.0.0,1920x1080,1920x1080,Temporal Distance Task,cb_02,35.0,temp_dist_trial,num_items,zn7si1,1.0,response,1_ITEM,1102.0999999761552,1099.5,1102.0999999761552,1102.0999999761552,1099.5,1102.0999999761552,1.0,0.0,0.0,,Click Response,1_count,3.0,object-46,temp_dist_trial,35.0,t_i_10_1,travel_Iceland,trekking poles,2.0,unique,paired,t_i_10_1.jpg,Travel,$${counterbalance_group},,sub-75
Desktop or Laptop,Windows 10,Chrome 138.0.0.0,1920x1080,1920x1080,Temporal Distance Task,cb_02,36.0,temp_dist_trial,num_items,zn7si1,1.0,response,2_ITEM,1111.3999999284717,1099.8999999999942,1111.3999999284717,1111.3999999284717,1099.8999999999942,1111.3999999284717,1.0,0.0,0.0,,Click Response,2_count,5.0,object-49,temp_dist_trial,36.0,t_s_08_1,travel_shared,hand lotion,2.0,competing,paired,t_s_08_1.jpg,Travel,$${counterbalance_group},,sub-75
Desktop or Laptop,Windows 10,Chrome 138.0.0.0,1920x1080,1920x1080,Temporal Distance Task,cb_02,36.0,temp_dist_trial,dist_items,qkpkxw,2.0,info,,4.3000000000029095,0.0,4.3000000000029095,4.3000000000029095,0.0,4.3000000000029095,1.0,0.0,0.0,,Slider,Slider,4.0,object-56,temp_dist_trial,36.0,t_s_08_1,travel_shared,hand lotion,2.0,competing,paired,t_s_08_1.jpg,Travel,$${counterbalance_group},,sub-75
Desktop or Laptop,Windows 10,Chrome 138.0.0.0,1920x1080,1920x1080,Temporal Distance Task,cb_02,36.0,temp_dist_trial,dist_items,qkpkxw,2.0,continue,,2179.4999999284773,2167.199999999997,2179.4999999284773,2179.4999999284773,2167.199999999997,2179.4999999284773,1.0,0.0,0.0,,Click To Continue,Next button,7.0,object-60,temp_dist_trial,36.0,t_s_08_1,travel_shared,hand lotion,2.0,competing,paired,t_s_08_1.jpg,Travel,$${counterbalance_group},,sub-75
Desktop or Laptop,Windows 10,Chrome 138.0.0.0,1920x1080,1920x1080,Temporal Distance Task,cb_02,36.0,temp_dist_trial,dist_items,qkpkxw,2.0,response,22,1066.6999999999969,2167.199999999997,2184.2999999999884,1066.6999999999969,2167.199999999997,2184.2999999999884,1.0,1117.5999999999913,0.0,,Slider,Slider,4.0,object-56,temp_dist_trial,36.0,t_s_08_1,travel_shared,hand lotion,2.0,competing,paired,t_s_08_1.jpg,Travel,$${counterbalance_group},,sub-75
Desktop or Laptop,Windows 10,Chrome 138.0.0.0,1920x1080,1920x1080,Temporal Distance Task,cb_02,37.0,temp_dist_trial,num_items,zn7si1,1.0,response,1_ITEM,1178.8999999523219,1166.6000000000058,1178.8999999523219,1178.8999999523219,1166.6000000000058,1178.8999999523219,1.0,0.0,0.0,,Click Response,1_count,3.0,object-46,temp_dist_trial,37.0,t_m_03_1,travel_Miami,wetsuit,2.0,unique,single,t_m_03_1.jpg,Travel,$${counterbalance_group},,sub-75
Desktop or Laptop,Windows 10,Chrome 138.0.0.0,1920x1080,1920x1080,Temporal Distance Task,cb_02,38.0,temp_dist_trial,num_items,zn7si1,1.0,response,2_ITEM,1828.399999952322,1816.5,1828.399999952322,1828.399999952322,1816.5,1828.399999952322,1.0,0.0,0.0,,Click Response,2_count,5.0,object-49,temp_dist_trial,38.0,t_s_22_1,travel_shared,belt,2.0,competing,paired,t_s_22_1.jpg,Travel,$${counterbalance_group},,sub-75
Desktop or Laptop,Windows 10,Chrome 138.0.0.0,1920x1080,1920x1080,Temporal Distance Task,cb_02,38.0,temp_dist_trial,dist_items,qkpkxw,2.0,info,,7.7999999999883585,0.0,7.7999999999883585,7.7999999999883585,0.0,7.7999999999883585,1.0,0.0,0.0,,Slider,Slider,4.0,object-56,temp_dist_trial,38.0,t_s_22_1,travel_shared,belt,2.0,competing,paired,t_s_22_1.jpg,Travel,$${counterbalance_group},,sub-75
Desktop or Laptop,Windows 10,Chrome 138.0.0.0,1920x1080,1920x1080,Temporal Distance Task,cb_02,38.0,temp_dist_trial,dist_items,qkpkxw,2.0,continue,,2295.899999904621,2283.2999999999884,2295.899999904621,2295.899999904621,2283.2999999999884,2295.899999904621,1.0,0.0,0.0,,Click To Continue,Next button,7.0,object-60,temp_dist_trial,38.0,t_s_22_1,travel_shared,belt,2.0,competing,paired,t_s_22_1.jpg,Travel,$${counterbalance_group},,sub-75
Desktop or Laptop,Windows 10,Chrome 138.0.0.0,1920x1080,1920x1080,Temporal Distance Task,cb_02,38.0,temp_dist_trial,dist_items,qkpkxw,2.0,response,58,1016.7999999999884,2283.2999999999884,2296.4999999284632,1016.7999999999884,2283.2999999999884,2296.4999999284632,1.0,1279.6999999284744,0.0,,Slider,Slider,4.0,object-56,temp_dist_trial,38.0,t_s_22_1,travel_shared,belt,2.0,competing,paired,t_s_22_1.jpg,Travel,$${counterbalance_group},,sub-75
Desktop or Laptop,Windows 10,Chrome 138.0.0.0,1920x1080,1920x1080,Temporal Distance Task,cb_02,39.0,temp_dist_trial,num_items,zn7si1,1.0,response,2_ITEM,1725.7999999523165,1716.7999999999884,1725.7999999523165,1725.7999999523165,1716.7999999999884,1725.7999999523165,1.0,0.0,0.0,,Click Response,2_count,5.0,object-49,temp_dist_trial,39.0,t_m_07_1,travel_Miami,sunglasses,2.0,unique,single,t_m_07_1.jpg,Travel,$${counterbalance_group},,sub-75
Desktop or Laptop,Windows 10,Chrome 138.0.0.0,1920x1080,1920x1080,Temporal Distance Task,cb_02,39.0,temp_dist_trial,dist_items,qkpkxw,2.0,info,,5.799999976152321,0.0,5.799999976152321,5.799999976152321,0.0,5.799999976152321,1.0,0.0,0.0,,Slider,Slider,4.0,object-56,temp_dist_trial,39.0,t_m_07_1,travel_Miami,sunglasses,2.0,unique,single,t_m_07_1.jpg,Travel,$${counterbalance_group},,sub-75
Desktop or Laptop,Windows 10,Chrome 138.0.0.0,1920x1080,1920x1080,Temporal Distance Task,cb_02,39.0,temp_dist_trial,dist_items,qkpkxw,2.0,continue,,1580.9999999046267,1566.7999999999884,1580.9999999046267,1580.9999999046267,1566.7999999999884,1580.9999999046267,1.0,0.0,0.0,,Click To Continue,Next button,7.0,object-60,temp_dist_trial,39.0,t_m_07_1,travel_Miami,sunglasses,2.0,unique,single,t_m_07_1.jpg,Travel,$${counterbalance_group},,sub-75
Desktop or Laptop,Windows 10,Chrome 138.0.0.0,1920x1080,1920x1080,Temporal Distance Task,cb_02,39.0,temp_dist_trial,dist_items,qkpkxw,2.0,response,41,883.8999999999942,1566.7999999999884,1581.4999999046267,883.8999999999942,1566.7999999999884,1581.4999999046267,1.0,697.5999999046326,0.0,,Slider,Slider,4.0,object-56,temp_dist_trial,39.0,t_m_07_1,travel_Miami,sunglasses,2.0,unique,single,t_m_07_1.jpg,Travel,$${counterbalance_group},,sub-75
Desktop or Laptop,Windows 10,Chrome 138.0.0.0,1920x1080,1920x1080,Temporal Distance Task,cb_02,40.0,temp_dist_trial,num_items,zn7si1,1.0,response,2_ITEM,1447.7999999284802,1433.6000000000058,1447.7999999284802,1447.7999999284802,1433.6000000000058,1447.7999999284802,1.0,0.0,0.0,,Click Response,2_count,5.0,object-49,temp_dist_trial,40.0,t_s_19_1,travel_shared,pajamas,2.0,competing,paired,t_s_19_1.jpg,Travel,$${counterbalance_group},,sub-75
Desktop or Laptop,Windows 10,Chrome 138.0.0.0,1920x1080,1920x1080,Temporal Distance Task,cb_02,40.0,temp_dist_trial,dist_items,qkpkxw,2.0,info,,6.9999999284627865,0.0,6.9999999284627865,6.9999999284627865,0.0,6.9999999284627865,1.0,0.0,0.0,,Slider,Slider,4.0,object-56,temp_dist_trial,40.0,t_s_19_1,travel_shared,pajamas,2.0,competing,paired,t_s_19_1.jpg,Travel,$${counterbalance_group},,sub-75
Desktop or Laptop,Windows 10,Chrome 138.0.0.0,1920x1080,1920x1080,Temporal Distance Task,cb_02,40.0,temp_dist_trial,dist_items,qkpkxw,2.0,continue,,1708.1999999761465,1700.0,1708.1999999761465,1708.1999999761465,1700.0,1708.1999999761465,1.0,0.0,0.0,,Click To Continue,Next button,7.0,object-60,temp_dist_trial,40.0,t_s_19_1,travel_shared,pajamas,2.0,competing,paired,t_s_19_1.jpg,Travel,$${counterbalance_group},,sub-75
Desktop or Laptop,Windows 10,Chrome 138.0.0.0,1920x1080,1920x1080,Temporal Distance Task,cb_02,40.0,temp_dist_trial,dist_items,qkpkxw,2.0,response,33,883.5999999999768,1700.0,1708.6999999761465,883.5999999999768,1700.0,1708.6999999761465,1.0,825.0999999761698,0.0,,Slider,Slider,4.0,object-56,temp_dist_trial,40.0,t_s_19_1,travel_shared,pajamas,2.0,competing,paired,t_s_19_1.jpg,Travel,$${counterbalance_group},,sub-75
Desktop or Laptop,Windows 10,Chrome 138.0.0.0,1920x1080,1920x1080,Temporal Distance Task,cb_02,41.0,temp_dist_trial,num_items,zn7si1,1.0,response,1_ITEM,1054.899999904621,1050.0,1054.899999904621,1054.899999904621,1050.0,1054.899999904621,1.0,0.0,0.0,,Click Response,1_count,3.0,object-46,temp_dist_trial,41.0,t_i_05_1,travel_Iceland,hiking boots,2.0,unique,paired,t_i_05_1.jpg,Travel,$${counterbalance_group},,sub-75
Desktop or Laptop,Windows 10,Chrome 138.0.0.0,1920x1080,1920x1080,Temporal Distance Task,cb_02,42.0,temp_dist_trial,num_items,zn7si1,1.0,response,1_ITEM,139.99999992846278,133.39999999999418,139.99999992846278,139.99999992846278,133.39999999999418,139.99999992846278,1.0,0.0,0.0,,Click Response,1_count,3.0,object-46,temp_dist_trial,42.0,t_i_08_1,travel_Iceland,thick socks,2.0,unique,paired,t_i_08_1.jpg,Travel,$${counterbalance_group},,sub-75
Desktop or Laptop,Windows 10,Chrome 138.0.0.0,1920x1080,1920x1080,Temporal Distance Task,cb_02,43.0,temp_dist_trial,num_items,zn7si1,1.0,response,2_ITEM,1988.9999999046267,1983.6000000000056,1988.9999999046267,1988.9999999046267,1983.6000000000056,1988.9999999046267,1.0,0.0,0.0,,Click Response,2_count,5.0,object-49,temp_dist_trial,43.0,t_m_15_1,travel_Miami,shorts,2.0,unique,paired,t_m_15_1.jpg,Travel,$${counterbalance_group},,sub-75
Desktop or Laptop,Windows 10,Chrome 138.0.0.0,1920x1080,1920x1080,Temporal Distance Task,cb_02,43.0,temp_dist_trial,dist_items,qkpkxw,2.0,info,,3.2000000000116415,0.0,3.2000000000116415,3.2000000000116415,0.0,3.2000000000116415,1.0,0.0,0.0,,Slider,Slider,4.0,object-56,temp_dist_trial,43.0,t_m_15_1,travel_Miami,shorts,2.0,unique,paired,t_m_15_1.jpg,Travel,$${counterbalance_group},,sub-75
Desktop or Laptop,Windows 10,Chrome 138.0.0.0,1920x1080,1920x1080,Temporal Distance Task,cb_02,43.0,temp_dist_trial,dist_items,qkpkxw,2.0,continue,,1402.499999952328,1400.1000000000058,1402.499999952328,1402.499999952328,1400.1000000000058,1402.499999952328,1.0,0.0,0.0,,Click To Continue,Next button,7.0,object-60,temp_dist_trial,43.0,t_m_15_1,travel_Miami,shorts,2.0,unique,paired,t_m_15_1.jpg,Travel,$${counterbalance_group},,sub-75
Desktop or Laptop,Windows 10,Chrome 138.0.0.0,1920x1080,1920x1080,Temporal Distance Task,cb_02,43.0,temp_dist_trial,dist_items,qkpkxw,2.0,response,23,600.2000000000116,1400.1000000000058,1402.899999928486,600.2000000000116,1400.1000000000058,1402.899999928486,1.0,802.6999999284744,0.0,,Slider,Slider,4.0,object-56,temp_dist_trial,43.0,t_m_15_1,travel_Miami,shorts,2.0,unique,paired,t_m_15_1.jpg,Travel,$${counterbalance_group},,sub-75
Desktop or Laptop,Windows 10,Chrome 138.0.0.0,1920x1080,1920x1080,Temporal Distance Task,cb_02,44.0,temp_dist_trial,num_items,zn7si1,1.0,response,1_ITEM,1492.6999999046384,1483.5,1492.6999999046384,1492.6999999046384,1483.5,1492.6999999046384,1.0,0.0,0.0,,Click Response,1_count,3.0,object-46,temp_dist_trial,44.0,t_s_14_1,travel_shared,hand sanitizer,2.0,competing,single,t_s_14_1.jpg,Travel,$${counterbalance_group},,sub-75
Desktop or Laptop,Windows 10,Chrome 138.0.0.0,1920x1080,1920x1080,Temporal Distance Task,cb_02,45.0,temp_dist_trial,num_items,zn7si1,1.0,response,2_ITEM,909.0999999284686,899.7999999999884,909.0999999284686,909.0999999284686,899.7999999999884,909.0999999284686,1.0,0.0,0.0,,Click Response,2_count,5.0,object-49,temp_dist_trial,45.0,t_s_10_1,travel_shared,luggage lock,2.0,competing,paired,t_s_10_1.jpg,Travel,$${counterbalance_group},,sub-75
Desktop or Laptop,Windows 10,Chrome 138.0.0.0,1920x1080,1920x1080,Temporal Distance Task,cb_02,45.0,temp_dist_trial,dist_items,qkpkxw,2.0,info,,4.499999904626748,0.0,4.499999904626748,4.499999904626748,0.0,4.499999904626748,1.0,0.0,0.0,,Slider,Slider,4.0,object-56,temp_dist_trial,45.0,t_s_10_1,travel_shared,luggage lock,2.0,competing,paired,t_s_10_1.jpg,Travel,$${counterbalance_group},,sub-75
Desktop or Laptop,Windows 10,Chrome 138.0.0.0,1920x1080,1920x1080,Temporal Distance Task,cb_02,45.0,temp_dist_trial,dist_items,qkpkxw,2.0,continue,,1670.9999999046267,1666.7999999999884,1670.9999999046267,1670.9999999046267,1666.7999999999884,1670.9999999046267,1.0,0.0,0.0,,Click To Continue,Next button,7.0,object-60,temp_dist_trial,45.0,t_s_10_1,travel_shared,luggage lock,2.0,competing,paired,t_s_10_1.jpg,Travel,$${counterbalance_group},,sub-75
Desktop or Laptop,Windows 10,Chrome 138.0.0.0,1920x1080,1920x1080,Temporal Distance Task,cb_02,45.0,temp_dist_trial,dist_items,qkpkxw,2.0,response,29,750.1999999999823,1666.7999999999884,1671.1999999523105,750.1999999999823,1666.7999999999884,1671.1999999523105,1.0,920.999999952328,0.0,,Slider,Slider,4.0,object-56,temp_dist_trial,45.0,t_s_10_1,travel_shared,luggage lock,2.0,competing,paired,t_s_10_1.jpg,Travel,$${counterbalance_group},,sub-75
Desktop or Laptop,Windows 10,Chrome 138.0.0.0,1920x1080,1920x1080,Temporal Distance Task,cb_02,46.0,temp_dist_trial,num_items,zn7si1,1.0,response,1_ITEM,1292.2999999284802,1283.3000000000175,1292.2999999284802,1292.2999999284802,1283.3000000000175,1292.2999999284802,1.0,0.0,0.0,,Click Response,1_count,3.0,object-46,temp_dist_trial,46.0,t_s_12_1,travel_shared,clear toiletry bag,2.0,competing,single,t_s_12_1.jpg,Travel,$${counterbalance_group},,sub-75
Desktop or Laptop,Windows 10,Chrome 138.0.0.0,1920x1080,1920x1080,Temporal Distance Task,cb_02,47.0,temp_dist_trial,num_items,zn7si1,1.0,response,2_ITEM,1087.0999999761698,1083.0,1087.0999999761698,1087.0999999761698,1083.0,1087.0999999761698,1.0,0.0,0.0,,Click Response,2_count,5.0,object-49,temp_dist_trial,47.0,t_i_13_1,travel_Iceland,sleeping bag,2.0,unique,paired,t_i_13_1.jpg,Travel,$${counterbalance_group},,sub-75
Desktop or Laptop,Windows 10,Chrome 138.0.0.0,1920x1080,1920x1080,Temporal Distance Task,cb_02,47.0,temp_dist_trial,dist_items,qkpkxw,2.0,info,,7.199999952310463,0.0,7.199999952310463,7.199999952310463,0.0,7.199999952310463,1.0,0.0,0.0,,Slider,Slider,4.0,object-56,temp_dist_trial,47.0,t_i_13_1,travel_Iceland,sleeping bag,2.0,unique,paired,t_i_13_1.jpg,Travel,$${counterbalance_group},,sub-75
Desktop or Laptop,Windows 10,Chrome 138.0.0.0,1920x1080,1920x1080,Temporal Distance Task,cb_02,47.0,temp_dist_trial,dist_items,qkpkxw,2.0,continue,,1666.8000000000175,1650.1000000000058,1666.8000000000175,1666.8000000000175,1650.1000000000058,1666.8000000000175,1.0,0.0,0.0,,Click To Continue,Next button,7.0,object-60,temp_dist_trial,47.0,t_i_13_1,travel_Iceland,sleeping bag,2.0,unique,paired,t_i_13_1.jpg,Travel,$${counterbalance_group},,sub-75
Desktop or Laptop,Windows 10,Chrome 138.0.0.0,1920x1080,1920x1080,Temporal Distance Task,cb_02,47.0,temp_dist_trial,dist_items,qkpkxw,2.0,response,60,616.6000000000057,1650.1000000000058,1666.8000000000175,616.6000000000057,1650.1000000000058,1666.8000000000175,1.0,1050.2000000000116,0.0,,Slider,Slider,4.0,object-56,temp_dist_trial,47.0,t_i_13_1,travel_Iceland,sleeping bag,2.0,unique,paired,t_i_13_1.jpg,Travel,$${counterbalance_group},,sub-75
Desktop or Laptop,Windows 10,Chrome 138.0.0.0,1920x1080,1920x1080,Temporal Distance Task,cb_02,48.0,temp_dist_trial,num_items,zn7si1,1.0,response,1_ITEM,1208.7999999999886,1199.8999999999942,1208.7999999999886,1208.7999999999886,1199.8999999999942,1208.7999999999886,1.0,0.0,0.0,,Click Response,1_count,3.0,object-46,temp_dist_trial,48.0,t_m_16_1,travel_Miami,flippers,2.0,unique,paired,t_m_16_1.jpg,Travel,$${counterbalance_group},,sub-75
Desktop or Laptop,Windows 10,Chrome 138.0.0.0,1920x1080,1920x1080,Temporal Distance Task,cb_02,2.0,temp_eventStart,Screen 1,dgtyxe,1.0,continue,,1056.2999999523165,1050.0,1056.2999999523165,1056.2999999523165,1050.0,1056.2999999523165,1.0,0.0,0.0,,Click To Continue,Next Button,3.0,object-43,temp_eventStart,,,Student,,,,,,,$${counterbalance_group},,sub-75
Desktop or Laptop,Windows 10,Chrome 138.0.0.0,1920x1080,1920x1080,Temporal Distance Task,cb_02,49.0,temp_dist_trial,num_items,zn7si1,1.0,response,1_ITEM,1733.0,1716.7999999999884,1733.0,1733.0,1716.7999999999884,1733.0,1.0,0.0,0.0,,Click Response,1_count,3.0,object-46,temp_dist_trial,1.0,s_sh_24_1,student_shared,desk organizer,2.0,competing,single,s_sh_24_1.jpg,Student,$${counterbalance_group},,sub-75
Desktop or Laptop,Windows 10,Chrome 138.0.0.0,1920x1080,1920x1080,Temporal Distance Task,cb_02,50.0,temp_dist_trial,num_items,zn7si1,1.0,response,1_ITEM,1167.0999999523046,1151.1999999999825,1167.0999999523046,1167.0999999523046,1151.1999999999825,1167.0999999523046,1.0,0.0,0.0,,Click Response,1_count,3.0,object-46,temp_dist_trial,2.0,s_sh_12_1,student_shared,binder,2.0,competing,single,s_sh_12_1.jpg,Student,$${counterbalance_group},,sub-75
Desktop or Laptop,Windows 10,Chrome 138.0.0.0,1920x1080,1920x1080,Temporal Distance Task,cb_02,51.0,temp_dist_trial,num_items,zn7si1,1.0,response,1_ITEM,1103.3999999999942,1100.2999999999884,1103.3999999999942,1103.3999999999942,1100.2999999999884,1103.3999999999942,1.0,0.0,0.0,,Click Response,1_count,3.0,object-46,temp_dist_trial,3.0,s_sh_13_1,student_shared,index cards,2.0,competing,single,s_sh_13_1.jpg,Student,$${counterbalance_group},,sub-75
Desktop or Laptop,Windows 10,Chrome 138.0.0.0,1920x1080,1920x1080,Temporal Distance Task,cb_02,52.0,temp_dist_trial,num_items,zn7si1,1.0,response,2_ITEM,1304.899999976158,1299.7000000000114,1304.899999976158,1304.899999976158,1299.7000000000114,1304.899999976158,1.0,0.0,0.0,,Click Response,2_count,5.0,object-49,temp_dist_trial,4.0,s_s_05_1,student_stem,lab goggles,2.0,unique,paired,s_s_05_1.jpg,Student,$${counterbalance_group},,sub-75
Desktop or Laptop,Windows 10,Chrome 138.0.0.0,1920x1080,1920x1080,Temporal Distance Task,cb_02,52.0,temp_dist_trial,dist_items,qkpkxw,2.0,info,,4.7999999999883585,0.0,4.7999999999883585,4.7999999999883585,0.0,4.7999999999883585,1.0,0.0,0.0,,Slider,Slider,4.0,object-56,temp_dist_trial,4.0,s_s_05_1,student_stem,lab goggles,2.0,unique,paired,s_s_05_1.jpg,Student,$${counterbalance_group},,sub-75
Desktop or Laptop,Windows 10,Chrome 138.0.0.0,1920x1080,1920x1080,Temporal Distance Task,cb_02,52.0,temp_dist_trial,dist_items,qkpkxw,2.0,continue,,1690.4999999284628,1683.6999999999825,1690.4999999284628,1690.4999999284628,1683.6999999999825,1690.4999999284628,1.0,0.0,0.0,,Click To Continue,Next button,7.0,object-60,temp_dist_trial,4.0,s_s_05_1,student_stem,lab goggles,2.0,unique,paired,s_s_05_1.jpg,Student,$${counterbalance_group},,sub-75
Desktop or Laptop,Windows 10,Chrome 138.0.0.0,1920x1080,1920x1080,Temporal Distance Task,cb_02,52.0,temp_dist_trial,dist_items,qkpkxw,2.0,response,18,700.1999999999823,1683.6999999999825,1691.0999999523044,700.1999999999823,1683.6999999999825,1691.0999999523044,1.0,990.8999999523219,0.0,,Slider,Slider,4.0,object-56,temp_dist_trial,4.0,s_s_05_1,student_stem,lab goggles,2.0,unique,paired,s_s_05_1.jpg,Student,$${counterbalance_group},,sub-75
Desktop or Laptop,Windows 10,Chrome 138.0.0.0,1920x1080,1920x1080,Temporal Distance Task,cb_02,53.0,temp_dist_trial,num_items,zn7si1,1.0,response,1_ITEM,1077.999999976164,1066.3999999999942,1077.999999976164,1077.999999976164,1066.3999999999942,1077.999999976164,1.0,0.0,0.0,,Click Response,1_count,3.0,object-46,temp_dist_trial,5.0,s_a_05_1,student_art,clay,2.0,unique,single,s_a_05_1.jpg,Student,$${counterbalance_group},,sub-75
Desktop or Laptop,Windows 10,Chrome 138.0.0.0,1920x1080,1920x1080,Temporal Distance Task,cb_02,54.0,temp_dist_trial,num_items,zn7si1,1.0,response,1_ITEM,936.7000000000116,933.3000000000177,936.7000000000116,936.7000000000116,933.3000000000177,936.7000000000116,1.0,0.0,0.0,,Click Response,1_count,3.0,object-46,temp_dist_trial,6.0,s_sh_18_1,student_shared,wall calendar,2.0,competing,paired,s_sh_18_1.jpg,Student,$${counterbalance_group},,sub-75
Desktop or Laptop,Windows 10,Chrome 138.0.0.0,1920x1080,1920x1080,Temporal Distance Task,cb_02,55.0,temp_dist_trial,num_items,zn7si1,1.0,response,1_ITEM,1268.2999999761525,1266.6999999999825,1268.2999999761525,1268.2999999761525,1266.6999999999825,1268.2999999761525,1.0,0.0,0.0,,Click Response,1_count,3.0,object-46,temp_dist_trial,7.0,s_a_17_1,student_art,microphone,2.0,unique,paired,s_a_17_1.jpg,Student,$${counterbalance_group},,sub-75
Desktop or Laptop,Windows 10,Chrome 138.0.0.0,1920x1080,1920x1080,Temporal Distance Task,cb_02,56.0,temp_dist_trial,num_items,zn7si1,1.0,response,2_ITEM,1357.999999952328,1350.1000000000058,1357.999999952328,1357.999999952328,1350.1000000000058,1357.999999952328,1.0,0.0,0.0,,Click Response,2_count,5.0,object-49,temp_dist_trial,8.0,s_sh_02_1,student_shared,eraser,2.0,competing,paired,s_sh_02_1.jpg,Student,$${counterbalance_group},,sub-75
Desktop or Laptop,Windows 10,Chrome 138.0.0.0,1920x1080,1920x1080,Temporal Distance Task,cb_02,56.0,temp_dist_trial,dist_items,qkpkxw,2.0,info,,6.4999999284627865,0.0,6.4999999284627865,6.4999999284627865,0.0,6.4999999284627865,1.0,0.0,0.0,,Slider,Slider,4.0,object-56,temp_dist_trial,8.0,s_sh_02_1,student_shared,eraser,2.0,competing,paired,s_sh_02_1.jpg,Student,$${counterbalance_group},,sub-75
Desktop or Laptop,Windows 10,Chrome 138.0.0.0,1920x1080,1920x1080,Temporal Distance Task,cb_02,56.0,temp_dist_trial,dist_items,qkpkxw,2.0,continue,,1573.1999999761465,1566.6999999999825,1573.1999999761465,1573.1999999761465,1566.6999999999825,1573.1999999761465,1.0,0.0,0.0,,Click To Continue,Next button,7.0,object-60,temp_dist_trial,8.0,s_sh_02_1,student_shared,eraser,2.0,competing,paired,s_sh_02_1.jpg,Student,$${counterbalance_group},,sub-75
Desktop or Laptop,Windows 10,Chrome 138.0.0.0,1920x1080,1920x1080,Temporal Distance Task,cb_02,56.0,temp_dist_trial,dist_items,qkpkxw,2.0,response,40,833.5,1566.6999999999825,1573.5999999523044,833.5,1566.6999999999825,1573.5999999523044,1.0,740.0999999523046,0.0,,Slider,Slider,4.0,object-56,temp_dist_trial,8.0,s_sh_02_1,student_shared,eraser,2.0,competing,paired,s_sh_02_1.jpg,Student,$${counterbalance_group},,sub-75
Desktop or Laptop,Windows 10,Chrome 138.0.0.0,1920x1080,1920x1080,Temporal Distance Task,cb_02,57.0,temp_dist_trial,num_items,zn7si1,1.0,response,1_ITEM,944.1999999046384,933.6000000000058,944.1999999046384,944.1999999046384,933.6000000000058,944.1999999046384,1.0,0.0,0.0,,Click Response,1_count,3.0,object-46,temp_dist_trial,9.0,s_a_10_1,student_art,tripod,2.0,unique,paired,s_a_10_1.jpg,Student,$${counterbalance_group},,sub-75
Desktop or Laptop,Windows 10,Chrome 138.0.0.0,1920x1080,1920x1080,Temporal Distance Task,cb_02,58.0,temp_dist_trial,num_items,zn7si1,1.0,response,1_ITEM,1190.6999999523105,1182.8999999999942,1190.6999999523105,1190.6999999523105,1182.8999999999942,1190.6999999523105,1.0,0.0,0.0,,Click Response,1_count,3.0,object-46,temp_dist_trial,10.0,s_sh_09_1,student_shared,paper clips,2.0,competing,paired,s_sh_09_1.jpg,Student,$${counterbalance_group},,sub-75
Desktop or Laptop,Windows 10,Chrome 138.0.0.0,1920x1080,1920x1080,Temporal Distance Task,cb_02,59.0,temp_dist_trial,num_items,zn7si1,1.0,response,2_ITEM,1832.5999999046328,1816.7000000000119,1832.5999999046328,1832.5999999046328,1816.7000000000119,1832.5999999046328,1.0,0.0,0.0,,Click Response,2_count,5.0,object-49,temp_dist_trial,11.0,s_sh_19_1,student_shared,portable plastic drawer,2.0,competing,paired,s_sh_19_1.jpg,Student,$${counterbalance_group},,sub-75
Desktop or Laptop,Windows 10,Chrome 138.0.0.0,1920x1080,1920x1080,Temporal Distance Task,cb_02,59.0,temp_dist_trial,dist_items,qkpkxw,2.0,info,,6.9999999284627865,0.0,6.9999999284627865,6.9999999284627865,0.0,6.9999999284627865,1.0,0.0,0.0,,Slider,Slider,4.0,object-56,temp_dist_trial,11.0,s_sh_19_1,student_shared,portable plastic drawer,2.0,competing,paired,s_sh_19_1.jpg,Student,$${counterbalance_group},,sub-75
Desktop or Laptop,Windows 10,Chrome 138.0.0.0,1920x1080,1920x1080,Temporal Distance Task,cb_02,59.0,temp_dist_trial,dist_items,qkpkxw,2.0,continue,,1788.899999904621,1783.3999999999942,1788.899999904621,1788.899999904621,1783.3999999999942,1788.899999904621,1.0,0.0,0.0,,Click To Continue,Next button,7.0,object-60,temp_dist_trial,11.0,s_sh_19_1,student_shared,portable plastic drawer,2.0,competing,paired,s_sh_19_1.jpg,Student,$${counterbalance_group},,sub-75
Desktop or Laptop,Windows 10,Chrome 138.0.0.0,1920x1080,1920x1080,Temporal Distance Task,cb_02,59.0,temp_dist_trial,dist_items,qkpkxw,2.0,response,63,800.0,1783.3999999999942,1789.899999904621,800.0,1783.3999999999942,1789.899999904621,1.0,989.8999999046208,0.0,,Slider,Slider,4.0,object-56,temp_dist_trial,11.0,s_sh_19_1,student_shared,portable plastic drawer,2.0,competing,paired,s_sh_19_1.jpg,Student,$${counterbalance_group},,sub-75
Desktop or Laptop,Windows 10,Chrome 138.0.0.0,1920x1080,1920x1080,Temporal Distance Task,cb_02,60.0,temp_dist_trial,num_items,zn7si1,1.0,response,2_ITEM,1444.9999999046267,1433.5,1444.9999999046267,1444.9999999046267,1433.5,1444.9999999046267,1.0,0.0,0.0,,Click Response,2_count,5.0,object-49,temp_dist_trial,12.0,s_s_18_1,student_stem,brain model,2.0,unique,paired,s_s_18_1.jpg,Student,$${counterbalance_group},,sub-75
Desktop or Laptop,Windows 10,Chrome 138.0.0.0,1920x1080,1920x1080,Temporal Distance Task,cb_02,60.0,temp_dist_trial,dist_items,qkpkxw,2.0,info,,6.899999976158142,0.0,6.899999976158142,6.899999976158142,0.0,6.899999976158142,1.0,0.0,0.0,,Slider,Slider,4.0,object-56,temp_dist_trial,12.0,s_s_18_1,student_stem,brain model,2.0,unique,paired,s_s_18_1.jpg,Student,$${counterbalance_group},,sub-75
Desktop or Laptop,Windows 10,Chrome 138.0.0.0,1920x1080,1920x1080,Temporal Distance Task,cb_02,60.0,temp_dist_trial,dist_items,qkpkxw,2.0,continue,,2216.5999999999767,2199.8999999999937,2216.5999999999767,2216.5999999999767,2199.8999999999937,2216.5999999999767,1.0,0.0,0.0,,Click To Continue,Next button,7.0,object-60,temp_dist_trial,12.0,s_s_18_1,student_stem,brain model,2.0,unique,paired,s_s_18_1.jpg,Student,$${counterbalance_group},,sub-75
Desktop or Laptop,Windows 10,Chrome 138.0.0.0,1920x1080,1920x1080,Temporal Distance Task,cb_02,60.0,temp_dist_trial,dist_items,qkpkxw,2.0,response,62,1383.2000000000116,2199.8999999999937,2216.5999999999767,1383.2000000000116,2199.8999999999937,2216.5999999999767,1.0,833.3999999999651,0.0,,Slider,Slider,4.0,object-56,temp_dist_trial,12.0,s_s_18_1,student_stem,brain model,2.0,unique,paired,s_s_18_1.jpg,Student,$${counterbalance_group},,sub-75
Desktop or Laptop,Windows 10,Chrome 138.0.0.0,1920x1080,1920x1080,Temporal Distance Task,cb_02,61.0,temp_dist_trial,num_items,zn7si1,1.0,response,2_ITEM,1338.6000000000058,1333.7000000000114,1338.6000000000058,1338.6000000000058,1333.7000000000114,1338.6000000000058,1.0,0.0,0.0,,Click Response,2_count,5.0,object-49,temp_dist_trial,13.0,s_a_11_1,student_art,clapperboard,2.0,unique,paired,s_a_11_1.jpg,Student,$${counterbalance_group},,sub-75
Desktop or Laptop,Windows 10,Chrome 138.0.0.0,1920x1080,1920x1080,Temporal Distance Task,cb_02,61.0,temp_dist_trial,dist_items,qkpkxw,2.0,info,,6.4999999284627865,0.0,6.4999999284627865,6.4999999284627865,0.0,6.4999999284627865,1.0,0.0,0.0,,Slider,Slider,4.0,object-56,temp_dist_trial,13.0,s_a_11_1,student_art,clapperboard,2.0,unique,paired,s_a_11_1.jpg,Student,$${counterbalance_group},,sub-75
Desktop or Laptop,Windows 10,Chrome 138.0.0.0,1920x1080,1920x1080,Temporal Distance Task,cb_02,61.0,temp_dist_trial,dist_items,qkpkxw,2.0,continue,,1650.0,1633.3999999999942,1650.0,1650.0,1633.3999999999942,1650.0,1.0,0.0,0.0,,Click To Continue,Next button,7.0,object-60,temp_dist_trial,13.0,s_a_11_1,student_art,clapperboard,2.0,unique,paired,s_a_11_1.jpg,Student,$${counterbalance_group},,sub-75
Desktop or Laptop,Windows 10,Chrome 138.0.0.0,1920x1080,1920x1080,Temporal Distance Task,cb_02,61.0,temp_dist_trial,dist_items,qkpkxw,2.0,response,66,666.6999999999825,1633.3999999999942,1650.0,666.6999999999825,1633.3999999999942,1650.0,1.0,983.3000000000177,0.0,,Slider,Slider,4.0,object-56,temp_dist_trial,13.0,s_a_11_1,student_art,clapperboard,2.0,unique,paired,s_a_11_1.jpg,Student,$${counterbalance_group},,sub-75
Desktop or Laptop,Windows 10,Chrome 138.0.0.0,1920x1080,1920x1080,Temporal Distance Task,cb_02,62.0,temp_dist_trial,num_items,zn7si1,1.0,response,1_ITEM,1282.2999999761525,1266.6000000000058,1282.2999999761525,1282.2999999761525,1266.6000000000058,1282.2999999761525,1.0,0.0,0.0,,Click Response,1_count,3.0,object-46,temp_dist_trial,14.0,s_sh_22_1,student_shared,hole puncher,2.0,competing,paired,s_sh_22_1.jpg,Student,$${counterbalance_group},,sub-75
Desktop or Laptop,Windows 10,Chrome 138.0.0.0,1920x1080,1920x1080,Temporal Distance Task,cb_02,63.0,temp_dist_trial,num_items,zn7si1,1.0,response,2_ITEM,1334.3999999999942,1333.0,1334.3999999999942,1334.3999999999942,1333.0,1334.3999999999942,1.0,0.0,0.0,,Click Response,2_count,5.0,object-49,temp_dist_trial,15.0,s_sh_21_1,student_shared,file holder,2.0,competing,paired,s_sh_21_1.jpg,Student,$${counterbalance_group},,sub-75
Desktop or Laptop,Windows 10,Chrome 138.0.0.0,1920x1080,1920x1080,Temporal Distance Task,cb_02,63.0,temp_dist_trial,dist_items,qkpkxw,2.0,info,,7.499999904626748,0.0,7.499999904626748,7.499999904626748,0.0,7.499999904626748,1.0,0.0,0.0,,Slider,Slider,4.0,object-56,temp_dist_trial,15.0,s_sh_21_1,student_shared,file holder,2.0,competing,paired,s_sh_21_1.jpg,Student,$${counterbalance_group},,sub-75
Desktop or Laptop,Windows 10,Chrome 138.0.0.0,1920x1080,1920x1080,Temporal Distance Task,cb_02,63.0,temp_dist_trial,dist_items,qkpkxw,2.0,continue,,1548.2999999761525,1533.3999999999942,1548.2999999761525,1548.2999999761525,1533.3999999999942,1548.2999999761525,1.0,0.0,0.0,,Click To Continue,Next button,7.0,object-60,temp_dist_trial,15.0,s_sh_21_1,student_shared,file holder,2.0,competing,paired,s_sh_21_1.jpg,Student,$${counterbalance_group},,sub-75
Desktop or Laptop,Windows 10,Chrome 138.0.0.0,1920x1080,1920x1080,Temporal Distance Task,cb_02,63.0,temp_dist_trial,dist_items,qkpkxw,2.0,response,15,583.5,1533.3999999999942,1548.6999999523105,583.5,1533.3999999999942,1548.6999999523105,1.0,965.1999999523103,0.0,,Slider,Slider,4.0,object-56,temp_dist_trial,15.0,s_sh_21_1,student_shared,file holder,2.0,competing,paired,s_sh_21_1.jpg,Student,$${counterbalance_group},,sub-75
Desktop or Laptop,Windows 10,Chrome 138.0.0.0,1920x1080,1920x1080,Temporal Distance Task,cb_02,64.0,temp_dist_trial,num_items,zn7si1,1.0,response,1_ITEM,1070.1999999284744,1066.5,1070.1999999284744,1070.1999999284744,1066.5,1070.1999999284744,1.0,0.0,0.0,,Click Response,1_count,3.0,object-46,temp_dist_trial,16.0,s_s_15_1,student_stem,jumper cables,2.0,unique,single,s_s_15_1.jpg,Student,$${counterbalance_group},,sub-75
Desktop or Laptop,Windows 10,Chrome 138.0.0.0,1920x1080,1920x1080,Temporal Distance Task,cb_02,65.0,temp_dist_trial,num_items,zn7si1,1.0,response,1_ITEM,1337.4999999284628,1333.1999999999825,1337.4999999284628,1337.4999999284628,1333.1999999999825,1337.4999999284628,1.0,0.0,0.0,,Click Response,1_count,3.0,object-46,temp_dist_trial,17.0,s_sh_14_1,student_shared,printer,2.0,competing,single,s_sh_14_1.jpg,Student,$${counterbalance_group},,sub-75
Desktop or Laptop,Windows 10,Chrome 138.0.0.0,1920x1080,1920x1080,Temporal Distance Task,cb_02,66.0,temp_dist_trial,num_items,zn7si1,1.0,response,1_ITEM,1259.6999999284744,1250.1000000000058,1259.6999999284744,1259.6999999284744,1250.1000000000058,1259.6999999284744,1.0,0.0,0.0,,Click Response,1_count,3.0,object-46,temp_dist_trial,18.0,s_sh_20_1,student_shared,tape,2.0,competing,paired,s_sh_20_1.jpg,Student,$${counterbalance_group},,sub-75
Desktop or Laptop,Windows 10,Chrome 138.0.0.0,1920x1080,1920x1080,Temporal Distance Task,cb_02,67.0,temp_dist_trial,num_items,zn7si1,1.0,response,2_ITEM,1864.4999999046267,1849.8999999999944,1864.4999999046267,1864.4999999046267,1849.8999999999944,1864.4999999046267,1.0,0.0,0.0,,Click Response,2_count,5.0,object-49,temp_dist_trial,19.0,s_s_09_1,student_stem,multimeter,2.0,unique,paired,s_s_09_1.jpg,Student,$${counterbalance_group},,sub-75
Desktop or Laptop,Windows 10,Chrome 138.0.0.0,1920x1080,1920x1080,Temporal Distance Task,cb_02,67.0,temp_dist_trial,dist_items,qkpkxw,2.0,info,,6.600000000005821,0.0,6.600000000005821,6.600000000005821,0.0,6.600000000005821,1.0,0.0,0.0,,Slider,Slider,4.0,object-56,temp_dist_trial,19.0,s_s_09_1,student_stem,multimeter,2.0,unique,paired,s_s_09_1.jpg,Student,$${counterbalance_group},,sub-75
Desktop or Laptop,Windows 10,Chrome 138.0.0.0,1920x1080,1920x1080,Temporal Distance Task,cb_02,67.0,temp_dist_trial,dist_items,qkpkxw,2.0,continue,,3236.7999999284802,3233.3999999999933,3236.7999999284802,3236.7999999284802,3233.3999999999933,3236.7999999284802,1.0,0.0,0.0,,Click To Continue,Next button,7.0,object-60,temp_dist_trial,19.0,s_s_09_1,student_stem,multimeter,2.0,unique,paired,s_s_09_1.jpg,Student,$${counterbalance_group},,sub-75
Desktop or Laptop,Windows 10,Chrome 138.0.0.0,1920x1080,1920x1080,Temporal Distance Task,cb_02,67.0,temp_dist_trial,dist_items,qkpkxw,2.0,response,41,2449.8999999999937,3233.3999999999933,3237.3999999523217,2449.8999999999937,3233.3999999999933,3237.3999999523217,1.0,787.4999999523279,0.0,,Slider,Slider,4.0,object-56,temp_dist_trial,19.0,s_s_09_1,student_stem,multimeter,2.0,unique,paired,s_s_09_1.jpg,Student,$${counterbalance_group},,sub-75
Desktop or Laptop,Windows 10,Chrome 138.0.0.0,1920x1080,1920x1080,Temporal Distance Task,cb_02,68.0,temp_dist_trial,num_items,zn7si1,1.0,response,2_ITEM,2211.0999999761702,2200.0,2211.0999999761702,2211.0999999761702,2200.0,2211.0999999761702,1.0,0.0,0.0,,Click Response,2_count,5.0,object-49,temp_dist_trial,20.0,s_sh_05_1,student_shared,laptop,2.0,competing,paired,s_sh_05_1.jpg,Student,$${counterbalance_group},,sub-75
Desktop or Laptop,Windows 10,Chrome 138.0.0.0,1920x1080,1920x1080,Temporal Distance Task,cb_02,68.0,temp_dist_trial,dist_items,qkpkxw,2.0,info,,6.199999976146501,0.0,6.199999976146501,6.199999976146501,0.0,6.199999976146501,1.0,0.0,0.0,,Slider,Slider,4.0,object-56,temp_dist_trial,20.0,s_sh_05_1,student_shared,laptop,2.0,competing,paired,s_sh_05_1.jpg,Student,$${counterbalance_group},,sub-75
Desktop or Laptop,Windows 10,Chrome 138.0.0.0,1920x1080,1920x1080,Temporal Distance Task,cb_02,68.0,temp_dist_trial,dist_items,qkpkxw,2.0,continue,,2697.399999904621,2683.3999999999937,2697.399999904621,2697.399999904621,2683.3999999999937,2697.399999904621,1.0,0.0,0.0,,Click To Continue,Next button,7.0,object-60,temp_dist_trial,20.0,s_sh_05_1,student_shared,laptop,2.0,competing,paired,s_sh_05_1.jpg,Student,$${counterbalance_group},,sub-75
Desktop or Laptop,Windows 10,Chrome 138.0.0.0,1920x1080,1920x1080,Temporal Distance Task,cb_02,68.0,temp_dist_trial,dist_items,qkpkxw,2.0,response,28,1033.7999999999884,2683.3999999999937,2699.700000000012,1033.7999999999884,2683.3999999999937,2699.700000000012,1.0,1665.9000000000233,0.0,,Slider,Slider,4.0,object-56,temp_dist_trial,20.0,s_sh_05_1,student_shared,laptop,2.0,competing,paired,s_sh_05_1.jpg,Student,$${counterbalance_group},,sub-75
Desktop or Laptop,Windows 10,Chrome 138.0.0.0,1920x1080,1920x1080,Temporal Distance Task,cb_02,69.0,temp_dist_trial,num_items,zn7si1,1.0,response,1_ITEM,907.9999999046267,899.8999999999942,907.9999999046267,907.9999999046267,899.8999999999942,907.9999999046267,1.0,0.0,0.0,,Click Response,1_count,3.0,object-46,temp_dist_trial,21.0,s_s_19_1,student_stem,circuit board,2.0,unique,single,s_s_19_1.jpg,Student,$${counterbalance_group},,sub-75
Desktop or Laptop,Windows 10,Chrome 138.0.0.0,1920x1080,1920x1080,Temporal Distance Task,cb_02,70.0,temp_dist_trial,num_items,zn7si1,1.0,response,1_ITEM,973.3999999523219,966.8000000000177,973.3999999523219,973.3999999523219,966.8000000000177,973.3999999523219,1.0,0.0,0.0,,Click Response,1_count,3.0,object-46,temp_dist_trial,22.0,s_a_14_1,student_art,guitar pick,2.0,unique,single,s_a_14_1.jpg,Student,$${counterbalance_group},,sub-75
Desktop or Laptop,Windows 10,Chrome 138.0.0.0,1920x1080,1920x1080,Temporal Distance Task,cb_02,71.0,temp_dist_trial,num_items,zn7si1,1.0,response,1_ITEM,1400.0,1383.3999999999942,1400.0,1400.0,1383.3999999999942,1400.0,1.0,0.0,0.0,,Click Response,1_count,3.0,object-46,temp_dist_trial,23.0,s_sh_04_1,student_shared,laptop stand,2.0,competing,paired,s_sh_04_1.jpg,Student,$${counterbalance_group},,sub-75
Desktop or Laptop,Windows 10,Chrome 138.0.0.0,1920x1080,1920x1080,Temporal Distance Task,cb_02,72.0,temp_dist_trial,num_items,zn7si1,1.0,response,1_ITEM,1549.5999999999767,1532.8999999999942,1549.5999999999767,1549.5999999999767,1532.8999999999942,1549.5999999999767,1.0,0.0,0.0,,Click Response,1_count,3.0,object-46,temp_dist_trial,24.0,s_sh_15_1,student_shared,usb drive,2.0,competing,single,s_sh_15_1.jpg,Student,$${counterbalance_group},,sub-75
Desktop or Laptop,Windows 10,Chrome 138.0.0.0,1920x1080,1920x1080,Temporal Distance Task,cb_02,73.0,temp_dist_trial,num_items,zn7si1,1.0,response,1_ITEM,1299.8000000000175,1283.1000000000058,1299.8000000000175,1299.8000000000175,1283.1000000000058,1299.8000000000175,1.0,0.0,0.0,,Click Response,1_count,3.0,object-46,temp_dist_trial,25.0,s_s_12_1,student_stem,robotic arm,2.0,unique,paired,s_s_12_1.jpg,Student,$${counterbalance_group},,sub-75
Desktop or Laptop,Windows 10,Chrome 138.0.0.0,1920x1080,1920x1080,Temporal Distance Task,cb_02,74.0,temp_dist_trial,num_items,zn7si1,1.0,response,1_ITEM,1001.1999999761464,999.5,1001.1999999761464,1001.1999999761464,999.5,1001.1999999761464,1.0,0.0,0.0,,Click Response,1_count,3.0,object-46,temp_dist_trial,26.0,s_sh_23_1,student_shared,ballpoint pen,2.0,competing,paired,s_sh_23_1.jpg,Student,$${counterbalance_group},,sub-75
Desktop or Laptop,Windows 10,Chrome 138.0.0.0,1920x1080,1920x1080,Temporal Distance Task,cb_02,75.0,temp_dist_trial,num_items,zn7si1,1.0,response,1_ITEM,1325.2000000000114,1316.7000000000114,1325.2000000000114,1325.2000000000114,1316.7000000000114,1325.2000000000114,1.0,0.0,0.0,,Click Response,1_count,3.0,object-46,temp_dist_trial,27.0,s_sh_11_1,student_shared,pencil case,2.0,competing,single,s_sh_11_1.jpg,Student,$${counterbalance_group},,sub-75
Desktop or Laptop,Windows 10,Chrome 138.0.0.0,1920x1080,1920x1080,Temporal Distance Task,cb_02,76.0,temp_dist_trial,num_items,zn7si1,1.0,response,1_ITEM,1321.7999999046442,1317.2000000000114,1321.7999999046442,1321.7999999046442,1317.2000000000114,1321.7999999046442,1.0,0.0,0.0,,Click Response,1_count,3.0,object-46,temp_dist_trial,28.0,s_a_12_1,student_art,saxophone,2.0,unique,single,s_a_12_1.jpg,Student,$${counterbalance_group},,sub-75
Desktop or Laptop,Windows 10,Chrome 138.0.0.0,1920x1080,1920x1080,Temporal Distance Task,cb_02,77.0,temp_dist_trial,num_items,zn7si1,1.0,response,1_ITEM,1216.9999999284628,1200.3999999999942,1216.9999999284628,1216.9999999284628,1200.3999999999942,1216.9999999284628,1.0,0.0,0.0,,Click Response,1_count,3.0,object-46,temp_dist_trial,29.0,s_a_18_1,student_art,tutu,2.0,unique,single,s_a_18_1.jpg,Student,$${counterbalance_group},,sub-75
Desktop or Laptop,Windows 10,Chrome 138.0.0.0,1920x1080,1920x1080,Temporal Distance Task,cb_02,78.0,temp_dist_trial,num_items,zn7si1,1.0,response,1_ITEM,1063.899999976158,1050.2000000000116,1063.899999976158,1063.899999976158,1050.2000000000116,1063.899999976158,1.0,0.0,0.0,,Click Response,1_count,3.0,object-46,temp_dist_trial,30.0,s_s_02_1,student_stem,flask,2.0,unique,paired,s_s_02_1.jpg,Student,$${counterbalance_group},,sub-75
Desktop or Laptop,Windows 10,Chrome 138.0.0.0,1920x1080,1920x1080,Temporal Distance Task,cb_02,79.0,temp_dist_trial,num_items,zn7si1,1.0,response,1_ITEM,1899.499999952328,1883.4000000000235,1899.499999952328,1899.499999952328,1883.4000000000235,1899.499999952328,1.0,0.0,0.0,,Click Response,1_count,3.0,object-46,temp_dist_trial,31.0,s_sh_03_1,student_shared,highlighter,2.0,competing,paired,s_sh_03_1.jpg,Student,$${counterbalance_group},,sub-75
Desktop or Laptop,Windows 10,Chrome 138.0.0.0,1920x1080,1920x1080,Temporal Distance Task,cb_02,80.0,temp_dist_trial,num_items,zn7si1,1.0,response,2_ITEM,1339.999999952328,1332.9000000000233,1339.999999952328,1339.999999952328,1332.9000000000233,1339.999999952328,1.0,0.0,0.0,,Click Response,2_count,5.0,object-49,temp_dist_trial,32.0,s_sh_06_1,student_shared,clipboard,2.0,competing,single,s_sh_06_1.jpg,Student,$${counterbalance_group},,sub-75
Desktop or Laptop,Windows 10,Chrome 138.0.0.0,1920x1080,1920x1080,Temporal Distance Task,cb_02,80.0,temp_dist_trial,dist_items,qkpkxw,2.0,info,,3.0999999284686046,0.0,3.0999999284686046,3.0999999284686046,0.0,3.0999999284686046,1.0,0.0,0.0,,Slider,Slider,4.0,object-56,temp_dist_trial,32.0,s_sh_06_1,student_shared,clipboard,2.0,competing,single,s_sh_06_1.jpg,Student,$${counterbalance_group},,sub-75
Desktop or Laptop,Windows 10,Chrome 138.0.0.0,1920x1080,1920x1080,Temporal Distance Task,cb_02,80.0,temp_dist_trial,dist_items,qkpkxw,2.0,continue,,2190.799999976153,2183.6000000000063,2190.799999976153,2190.799999976153,2183.6000000000063,2190.799999976153,1.0,0.0,0.0,,Click To Continue,Next button,7.0,object-60,temp_dist_trial,32.0,s_sh_06_1,student_shared,clipboard,2.0,competing,single,s_sh_06_1.jpg,Student,$${counterbalance_group},,sub-75
Desktop or Laptop,Windows 10,Chrome 138.0.0.0,1920x1080,1920x1080,Temporal Distance Task,cb_02,80.0,temp_dist_trial,dist_items,qkpkxw,2.0,response,16,1500.3999999999942,2183.6000000000063,2191.4999999046267,1500.3999999999942,2183.6000000000063,2191.4999999046267,1.0,691.0999999046326,0.0,,Slider,Slider,4.0,object-56,temp_dist_trial,32.0,s_sh_06_1,student_shared,clipboard,2.0,competing,single,s_sh_06_1.jpg,Student,$${counterbalance_group},,sub-75
Desktop or Laptop,Windows 10,Chrome 138.0.0.0,1920x1080,1920x1080,Temporal Distance Task,cb_02,81.0,temp_dist_trial,num_items,zn7si1,1.0,response,2_ITEM,1480.4999999284628,1466.5,1480.4999999284628,1480.4999999284628,1466.5,1480.4999999284628,1.0,0.0,0.0,,Click Response,2_count,5.0,object-49,temp_dist_trial,33.0,s_s_01_1,student_stem,microscope,2.0,unique,paired,s_s_01_1.jpg,Student,$${counterbalance_group},,sub-75
Desktop or Laptop,Windows 10,Chrome 138.0.0.0,1920x1080,1920x1080,Temporal Distance Task,cb_02,81.0,temp_dist_trial,dist_items,qkpkxw,2.0,info,,5.899999904620928,0.0,5.899999904620928,5.899999904620928,0.0,5.899999904620928,1.0,0.0,0.0,,Slider,Slider,4.0,object-56,temp_dist_trial,33.0,s_s_01_1,student_stem,microscope,2.0,unique,paired,s_s_01_1.jpg,Student,$${counterbalance_group},,sub-75
Desktop or Laptop,Windows 10,Chrome 138.0.0.0,1920x1080,1920x1080,Temporal Distance Task,cb_02,81.0,temp_dist_trial,dist_items,qkpkxw,2.0,continue,,1808.7999999999884,1800.5,1808.7999999999884,1808.7999999999884,1800.5,1808.7999999999884,1.0,0.0,0.0,,Click To Continue,Next button,7.0,object-60,temp_dist_trial,33.0,s_s_01_1,student_stem,microscope,2.0,unique,paired,s_s_01_1.jpg,Student,$${counterbalance_group},,sub-75
Desktop or Laptop,Windows 10,Chrome 138.0.0.0,1920x1080,1920x1080,Temporal Distance Task,cb_02,81.0,temp_dist_trial,dist_items,qkpkxw,2.0,response,30,1016.6999999999823,1800.5,1808.9999999284628,1016.6999999999823,1800.5,1808.9999999284628,1.0,792.2999999284802,0.0,,Slider,Slider,4.0,object-56,temp_dist_trial,33.0,s_s_01_1,student_stem,microscope,2.0,unique,paired,s_s_01_1.jpg,Student,$${counterbalance_group},,sub-75
Desktop or Laptop,Windows 10,Chrome 138.0.0.0,1920x1080,1920x1080,Temporal Distance Task,cb_02,82.0,temp_dist_trial,num_items,zn7si1,1.0,response,1_ITEM,819.7999999999884,816.3999999999942,819.7999999999884,819.7999999999884,816.3999999999942,819.7999999999884,1.0,0.0,0.0,,Click Response,1_count,3.0,object-46,temp_dist_trial,34.0,s_a_20_1,student_art,pin cushion,2.0,unique,paired,s_a_20_1.jpg,Student,$${counterbalance_group},,sub-75
Desktop or Laptop,Windows 10,Chrome 138.0.0.0,1920x1080,1920x1080,Temporal Distance Task,cb_02,83.0,temp_dist_trial,num_items,zn7si1,1.0,response,1_ITEM,1046.499999976164,1033.3999999999942,1046.499999976164,1046.499999976164,1033.3999999999942,1046.499999976164,1.0,0.0,0.0,,Click Response,1_count,3.0,object-46,temp_dist_trial,35.0,s_s_04_1,student_stem,bunsen burner,2.0,unique,paired,s_s_04_1.jpg,Student,$${counterbalance_group},,sub-75
Desktop or Laptop,Windows 10,Chrome 138.0.0.0,1920x1080,1920x1080,Temporal Distance Task,cb_02,84.0,temp_dist_trial,num_items,zn7si1,1.0,response,1_ITEM,875.2999999999884,866.5999999999768,875.2999999999884,875.2999999999884,866.5999999999768,875.2999999999884,1.0,0.0,0.0,,Click Response,1_count,3.0,object-46,temp_dist_trial,36.0,s_s_08_1,student_stem,soldering iron,2.0,unique,single,s_s_08_1.jpg,Student,$${counterbalance_group},,sub-75
Desktop or Laptop,Windows 10,Chrome 138.0.0.0,1920x1080,1920x1080,Temporal Distance Task,cb_02,85.0,temp_dist_trial,num_items,zn7si1,1.0,response,1_ITEM,1766.1999999999537,1749.5999999999767,1766.1999999999537,1766.1999999999537,1749.5999999999767,1766.1999999999537,1.0,0.0,0.0,,Click Response,1_count,3.0,object-46,temp_dist_trial,37.0,s_sh_16_1,student_shared,stapler,2.0,competing,paired,s_sh_16_1.jpg,Student,$${counterbalance_group},,sub-75
Desktop or Laptop,Windows 10,Chrome 138.0.0.0,1920x1080,1920x1080,Temporal Distance Task,cb_02,86.0,temp_dist_trial,num_items,zn7si1,1.0,response,1_ITEM,1615.8999999761581,1600.1000000000058,1615.8999999761581,1615.8999999761581,1600.1000000000058,1615.8999999761581,1.0,0.0,0.0,,Click Response,1_count,3.0,object-46,temp_dist_trial,38.0,s_sh_17_1,student_shared,wireless mouse,2.0,competing,paired,s_sh_17_1.jpg,Student,$${counterbalance_group},,sub-75
Desktop or Laptop,Windows 10,Chrome 138.0.0.0,1920x1080,1920x1080,Temporal Distance Task,cb_02,87.0,temp_dist_trial,num_items,zn7si1,1.0,response,1_ITEM,1228.2999999284802,1216.6000000000058,1228.2999999284802,1228.2999999284802,1216.6000000000058,1228.2999999284802,1.0,0.0,0.0,,Click Response,1_count,3.0,object-46,temp_dist_trial,39.0,s_a_16_1,student_art,piano,2.0,unique,paired,s_a_16_1.jpg,Student,$${counterbalance_group},,sub-75
Desktop or Laptop,Windows 10,Chrome 138.0.0.0,1920x1080,1920x1080,Temporal Distance Task,cb_02,88.0,temp_dist_trial,num_items,zn7si1,1.0,response,2_ITEM,1369.3999999523219,1366.3000000000175,1369.3999999523219,1369.3999999523219,1366.3000000000175,1369.3999999523219,1.0,0.0,0.0,,Click Response,2_count,5.0,object-49,temp_dist_trial,40.0,s_sh_01_1,student_shared,notebook,2.0,competing,paired,s_sh_01_1.jpg,Student,$${counterbalance_group},,sub-75
Desktop or Laptop,Windows 10,Chrome 138.0.0.0,1920x1080,1920x1080,Temporal Distance Task,cb_02,88.0,temp_dist_trial,dist_items,qkpkxw,2.0,info,,3.79999999998836,0.0,3.79999999998836,3.79999999998836,0.0,3.79999999998836,1.0,0.0,0.0,,Slider,Slider,4.0,object-56,temp_dist_trial,40.0,s_sh_01_1,student_shared,notebook,2.0,competing,paired,s_sh_01_1.jpg,Student,$${counterbalance_group},,sub-75
Desktop or Laptop,Windows 10,Chrome 138.0.0.0,1920x1080,1920x1080,Temporal Distance Task,cb_02,88.0,temp_dist_trial,dist_items,qkpkxw,2.0,continue,,1626.899999904621,1616.5999999999767,1626.899999904621,1626.899999904621,1616.5999999999767,1626.899999904621,1.0,0.0,0.0,,Click To Continue,Next button,7.0,object-60,temp_dist_trial,40.0,s_sh_01_1,student_shared,notebook,2.0,competing,paired,s_sh_01_1.jpg,Student,$${counterbalance_group},,sub-75
Desktop or Laptop,Windows 10,Chrome 138.0.0.0,1920x1080,1920x1080,Temporal Distance Task,cb_02,88.0,temp_dist_trial,dist_items,qkpkxw,2.0,response,62,800.0,1616.5999999999767,1627.399999904621,800.0,1616.5999999999767,1627.399999904621,1.0,827.3999999046208,0.0,,Slider,Slider,4.0,object-56,temp_dist_trial,40.0,s_sh_01_1,student_shared,notebook,2.0,competing,paired,s_sh_01_1.jpg,Student,$${counterbalance_group},,sub-75
Desktop or Laptop,Windows 10,Chrome 138.0.0.0,1920x1080,1920x1080,Temporal Distance Task,cb_02,89.0,temp_dist_trial,num_items,zn7si1,1.0,response,1_ITEM,2090.399999928486,2083.700000000012,2090.399999928486,2090.399999928486,2083.700000000012,2090.399999928486,1.0,0.0,0.0,,Click Response,1_count,3.0,object-46,temp_dist_trial,41.0,s_a_19_1,student_art,ballet shoes,2.0,unique,paired,s_a_19_1.jpg,Student,$${counterbalance_group},,sub-75
Desktop or Laptop,Windows 10,Chrome 138.0.0.0,1920x1080,1920x1080,Temporal Distance Task,cb_02,90.0,temp_dist_trial,num_items,zn7si1,1.0,response,2_ITEM,1603.999999952328,1600.3000000000175,1603.999999952328,1603.999999952328,1600.3000000000175,1603.999999952328,1.0,0.0,0.0,,Click Response,2_count,5.0,object-49,temp_dist_trial,42.0,s_sh_08_1,student_shared,post-its,2.0,competing,paired,s_sh_08_1.jpg,Student,$${counterbalance_group},,sub-75
Desktop or Laptop,Windows 10,Chrome 138.0.0.0,1920x1080,1920x1080,Temporal Distance Task,cb_02,90.0,temp_dist_trial,dist_items,qkpkxw,2.0,info,,8.299999999988357,0.0,8.299999999988357,8.299999999988357,0.0,8.299999999988357,1.0,0.0,0.0,,Slider,Slider,4.0,object-56,temp_dist_trial,42.0,s_sh_08_1,student_shared,post-its,2.0,competing,paired,s_sh_08_1.jpg,Student,$${counterbalance_group},,sub-75
Desktop or Laptop,Windows 10,Chrome 138.0.0.0,1920x1080,1920x1080,Temporal Distance Task,cb_02,90.0,temp_dist_trial,dist_items,qkpkxw,2.0,continue,,1536.899999904621,1533.2999999999884,1536.899999904621,1536.899999904621,1533.2999999999884,1536.899999904621,1.0,0.0,0.0,,Click To Continue,Next button,7.0,object-60,temp_dist_trial,42.0,s_sh_08_1,student_shared,post-its,2.0,competing,paired,s_sh_08_1.jpg,Student,$${counterbalance_group},,sub-75
Desktop or Laptop,Windows 10,Chrome 138.0.0.0,1920x1080,1920x1080,Temporal Distance Task,cb_02,90.0,temp_dist_trial,dist_items,qkpkxw,2.0,response,37,883.2999999999884,1533.2999999999884,1537.2999999999884,883.2999999999884,1533.2999999999884,1537.2999999999884,1.0,654.0,0.0,,Slider,Slider,4.0,object-56,temp_dist_trial,42.0,s_sh_08_1,student_shared,post-its,2.0,competing,paired,s_sh_08_1.jpg,Student,$${counterbalance_group},,sub-75
Desktop or Laptop,Windows 10,Chrome 138.0.0.0,1920x1080,1920x1080,Temporal Distance Task,cb_02,91.0,temp_dist_trial,num_items,zn7si1,1.0,response,2_ITEM,1220.2999999523165,1216.7000000000114,1220.2999999523165,1220.2999999523165,1216.7000000000114,1220.2999999523165,1.0,0.0,0.0,,Click Response,2_count,5.0,object-49,temp_dist_trial,43.0,s_a_02_1,student_art,canvas,2.0,unique,paired,s_a_02_1.jpg,Student,$${counterbalance_group},,sub-75
Desktop or Laptop,Windows 10,Chrome 138.0.0.0,1920x1080,1920x1080,Temporal Distance Task,cb_02,91.0,temp_dist_trial,dist_items,qkpkxw,2.0,info,,2.899999928486068,0.0,2.899999928486068,2.899999928486068,0.0,2.899999928486068,1.0,0.0,0.0,,Slider,Slider,4.0,object-56,temp_dist_trial,43.0,s_a_02_1,student_art,canvas,2.0,unique,paired,s_a_02_1.jpg,Student,$${counterbalance_group},,sub-75
Desktop or Laptop,Windows 10,Chrome 138.0.0.0,1920x1080,1920x1080,Temporal Distance Task,cb_02,91.0,temp_dist_trial,dist_items,qkpkxw,2.0,continue,,1282.999999952328,1266.6000000000058,1282.999999952328,1282.999999952328,1266.6000000000058,1282.999999952328,1.0,0.0,0.0,,Click To Continue,Next button,7.0,object-60,temp_dist_trial,43.0,s_a_02_1,student_art,canvas,2.0,unique,paired,s_a_02_1.jpg,Student,$${counterbalance_group},,sub-75
Desktop or Laptop,Windows 10,Chrome 138.0.0.0,1920x1080,1920x1080,Temporal Distance Task,cb_02,91.0,temp_dist_trial,dist_items,qkpkxw,2.0,response,54,616.9000000000233,1266.6000000000058,1283.2999999999886,616.9000000000233,1266.6000000000058,1283.2999999999886,1.0,666.3999999999653,0.0,,Slider,Slider,4.0,object-56,temp_dist_trial,43.0,s_a_02_1,student_art,canvas,2.0,unique,paired,s_a_02_1.jpg,Student,$${counterbalance_group},,sub-75
Desktop or Laptop,Windows 10,Chrome 138.0.0.0,1920x1080,1920x1080,Temporal Distance Task,cb_02,92.0,temp_dist_trial,num_items,zn7si1,1.0,response,2_ITEM,1126.3999999523219,1116.6000000000058,1126.3999999523219,1126.3999999523219,1116.6000000000058,1126.3999999523219,1.0,0.0,0.0,,Click Response,2_count,5.0,object-49,temp_dist_trial,44.0,s_sh_07_1,student_shared,ruler,2.0,competing,paired,s_sh_07_1.jpg,Student,$${counterbalance_group},,sub-75
Desktop or Laptop,Windows 10,Chrome 138.0.0.0,1920x1080,1920x1080,Temporal Distance Task,cb_02,92.0,temp_dist_trial,dist_items,qkpkxw,2.0,info,,2.599999928468605,0.0,2.599999928468605,2.599999928468605,0.0,2.599999928468605,1.0,0.0,0.0,,Slider,Slider,4.0,object-56,temp_dist_trial,44.0,s_sh_07_1,student_shared,ruler,2.0,competing,paired,s_sh_07_1.jpg,Student,$${counterbalance_group},,sub-75
Desktop or Laptop,Windows 10,Chrome 138.0.0.0,1920x1080,1920x1080,Temporal Distance Task,cb_02,92.0,temp_dist_trial,dist_items,qkpkxw,2.0,continue,,1712.4999999046267,1699.8999999999942,1712.4999999046267,1712.4999999046267,1699.8999999999942,1712.4999999046267,1.0,0.0,0.0,,Click To Continue,Next button,7.0,object-60,temp_dist_trial,44.0,s_sh_07_1,student_shared,ruler,2.0,competing,paired,s_sh_07_1.jpg,Student,$${counterbalance_group},,sub-75
Desktop or Laptop,Windows 10,Chrome 138.0.0.0,1920x1080,1920x1080,Temporal Distance Task,cb_02,92.0,temp_dist_trial,dist_items,qkpkxw,2.0,response,29,933.2999999999884,1699.8999999999942,1712.8999999999942,933.2999999999884,1699.8999999999942,1712.8999999999942,1.0,779.6000000000058,0.0,,Slider,Slider,4.0,object-56,temp_dist_trial,44.0,s_sh_07_1,student_shared,ruler,2.0,competing,paired,s_sh_07_1.jpg,Student,$${counterbalance_group},,sub-75
Desktop or Laptop,Windows 10,Chrome 138.0.0.0,1920x1080,1920x1080,Temporal Distance Task,cb_02,93.0,temp_dist_trial,num_items,zn7si1,1.0,response,1_ITEM,837.0999999046326,833.6000000000058,837.0999999046326,837.0999999046326,833.6000000000058,837.0999999046326,1.0,0.0,0.0,,Click Response,1_count,3.0,object-46,temp_dist_trial,45.0,s_sh_10_1,student_shared,scissors,2.0,competing,single,s_sh_10_1.jpg,Student,$${counterbalance_group},,sub-75
Desktop or Laptop,Windows 10,Chrome 138.0.0.0,1920x1080,1920x1080,Temporal Distance Task,cb_02,94.0,temp_dist_trial,num_items,zn7si1,1.0,response,1_ITEM,1018.5999999284686,1016.6000000000058,1018.5999999284686,1018.5999999284686,1016.6000000000058,1018.5999999284686,1.0,0.0,0.0,,Click Response,1_count,3.0,object-46,temp_dist_trial,46.0,s_s_10_1,student_stem,3d molecule,2.0,unique,single,s_s_10_1.jpg,Student,$${counterbalance_group},,sub-75
Desktop or Laptop,Windows 10,Chrome 138.0.0.0,1920x1080,1920x1080,Temporal Distance Task,cb_02,95.0,temp_dist_trial,num_items,zn7si1,1.0,response,2_ITEM,1549.3999999999942,1533.2999999999884,1549.3999999999942,1549.3999999999942,1533.2999999999884,1549.3999999999942,1.0,0.0,0.0,,Click Response,2_count,5.0,object-49,temp_dist_trial,47.0,s_a_04_1,student_art,easel,2.0,unique,paired,s_a_04_1.jpg,Student,$${counterbalance_group},,sub-75
Desktop or Laptop,Windows 10,Chrome 138.0.0.0,1920x1080,1920x1080,Temporal Distance Task,cb_02,95.0,temp_dist_trial,dist_items,qkpkxw,2.0,info,,3.0,0.0,3.0,3.0,0.0,3.0,1.0,0.0,0.0,,Slider,Slider,4.0,object-56,temp_dist_trial,47.0,s_a_04_1,student_art,easel,2.0,unique,paired,s_a_04_1.jpg,Student,$${counterbalance_group},,sub-75
Desktop or Laptop,Windows 10,Chrome 138.0.0.0,1920x1080,1920x1080,Temporal Distance Task,cb_02,95.0,temp_dist_trial,dist_items,qkpkxw,2.0,continue,,3632.5,3616.6000000000067,3632.5,3632.5,3616.6000000000067,3632.5,1.0,0.0,0.0,,Click To Continue,Next button,7.0,object-60,temp_dist_trial,47.0,s_a_04_1,student_art,easel,2.0,unique,paired,s_a_04_1.jpg,Student,$${counterbalance_group},,sub-75
Desktop or Laptop,Windows 10,Chrome 138.0.0.0,1920x1080,1920x1080,Temporal Distance Task,cb_02,95.0,temp_dist_trial,dist_items,qkpkxw,2.0,response,34,2699.8999999999937,3616.6000000000067,3633.4000000000233,2699.8999999999937,3616.6000000000067,3633.4000000000233,1.0,933.5000000000293,0.0,,Slider,Slider,4.0,object-56,temp_dist_trial,47.0,s_a_04_1,student_art,easel,2.0,unique,paired,s_a_04_1.jpg,Student,$${counterbalance_group},,sub-75
Desktop or Laptop,Windows 10,Chrome 138.0.0.0,1920x1080,1920x1080,Temporal Distance Task,cb_02,96.0,temp_dist_trial,num_items,zn7si1,1.0,response,1_ITEM,2481.299999976153,2466.999999999971,2481.299999976153,2481.299999976153,2466.999999999971,2481.299999976153,1.0,0.0,0.0,,Click Response,1_count,3.0,object-46,temp_dist_trial,48.0,s_s_07_1,student_stem,periodic table,2.0,unique,paired,s_s_07_1.jpg,Student,$${counterbalance_group},,sub-75
Desktop or Laptop,Windows 10,Chrome 138.0.0.0,1920x1080,1920x1080,Temporal Distance Task,,,,,,,info,END,,,260672.0,,,,,,,,,,,,,,,,,,,,,,$${counterbalance_group},,sub-75
