Participant Device,Participant OS,Participant Browser,Participant Monitor Size,Participant Viewport Size,Task Name,Current Spreadsheet,Trial Number,Display,Screen,Screen ID,Screen Counter,Response Type,Response,Onset Time,Clock Time,Reaction Time,Absolute Onset Time,Absolute Clock Time,Absolute Reaction Time,Correct,Response Duration,Proportion,Tag,Component Name,Object Name,Object Number,Object ID,Spreadsheet: display,Spreadsheet: trial,Spreadsheet: stimulus_id,Spreadsheet: expected_goal,Spreadsheet: stimulus_name,Spreadsheet: c_group,Spreadsheet: condition,Spreadsheet: paired_status,Spreadsheet: stimulus_path,Spreadsheet: block_type,Manipulation: Spreadsheet,Store: enc_test_acc,sub_label
Desktop or Laptop,Windows 10,Chrome 137.0.0.0,1920x1080,1920x1080,Temporal Distance Task,$${counterbalance_group},,,,,,info,BEGIN,,,,,,,0.0,,,,,,,,,,,,,,,,,,,,sub-06
Desktop or Laptop,Windows 10,Chrome 137.0.0.0,1920x1080,1920x1080,Temporal Distance Task,cb_10,1.0,temp_instructions,intro_screen,3tnme7,1.0,continue,,9249.4,9233.2,9249.4,9249.4,9233.2,9249.4,1.0,0.0,0.0,,Click To Continue,Continue Button,4.0,object-29,temp_instructions,,,Travel,,,,,,,,,sub-06
Desktop or Laptop,Windows 10,Chrome 137.0.0.0,1920x1080,1920x1080,Temporal Distance Task,cb_10,1.0,temp_instructions,intro_screen_2,52v7ur,2.0,continue,,5391.099999998511,5383.299999999998,5391.099999998511,5391.099999998511,5383.299999999998,5391.099999998511,1.0,0.0,0.0,,Click To Continue,Continue Button,4.0,object-39,temp_instructions,,,Travel,,,,,,,,,sub-06
Desktop or Laptop,Windows 10,Chrome 137.0.0.0,1920x1080,1920x1080,Temporal Distance Task,cb_10,1.0,temp_instructions,intro_screen_3,i7lvwx,3.0,continue,,5189.199999997021,5183.200000000002,5189.199999997021,5189.199999997021,5183.200000000002,5189.199999997021,1.0,0.0,0.0,,Click To Continue,Continue Button,4.0,object-67,temp_instructions,,,Travel,,,,,,,,,sub-06
Desktop or Laptop,Windows 10,Chrome 137.0.0.0,1920x1080,1920x1080,Temporal Distance Task,cb_10,1.0,temp_instructions,test_q1,5ieqx1,4.0,response,choice_3,5574.299999994039,5566.5,5574.299999994039,5574.299999994039,5566.5,5574.299999994039,1.0,0.0,0.0,,Click Response,choice_3,5.0,object-345,temp_instructions,,,Travel,,,,,,,,,sub-06
Desktop or Laptop,Windows 10,Chrome 137.0.0.0,1920x1080,1920x1080,Temporal Distance Task,cb_10,1.0,temp_instructions,score_corr,7ilvjr,5.0,continue,,883.8999999955304,883.2999999999993,883.8999999955304,883.8999999955304,883.2999999999993,883.8999999955304,1.0,0.0,0.0,,Click To Continue,Continue Button,3.0,object-23,temp_instructions,,,Travel,,,,,,,,,sub-06
Desktop or Laptop,Windows 10,Chrome 137.0.0.0,1920x1080,1920x1080,Temporal Distance Task,cb_10,1.0,temp_eventStart,Screen 1,dgtyxe,1.0,continue,,1230.6999999970212,1216.7000000000007,1230.6999999970212,1230.6999999970212,1216.7000000000007,1230.6999999970212,1.0,0.0,0.0,,Click To Continue,Next Button,3.0,object-43,temp_eventStart,,,Travel,,,,,,,,,sub-06
Desktop or Laptop,Windows 10,Chrome 137.0.0.0,1920x1080,1920x1080,Temporal Distance Task,cb_10,1.0,temp_dist_trial,num_items,zn7si1,1.0,response,2_ITEM,2248.7999999940407,2233.2000000000007,2248.7999999940407,2248.7999999940407,2233.2000000000007,2248.7999999940407,1.0,0.0,0.0,,Click Response,2_count,5.0,object-49,temp_dist_trial,1.0,t_m_13_1,travel_Miami,floatie,10.0,unique,single,t_m_13_1.jpg,Travel,,,sub-06
Desktop or Laptop,Windows 10,Chrome 137.0.0.0,1920x1080,1920x1080,Temporal Distance Task,cb_10,1.0,temp_dist_trial,dist_items,qkpkxw,2.0,info,,8.0,0.0,8.0,8.0,0.0,8.0,1.0,0.0,0.0,,Slider,Slider,4.0,object-56,temp_dist_trial,1.0,t_m_13_1,travel_Miami,floatie,10.0,unique,single,t_m_13_1.jpg,Travel,,,sub-06
Desktop or Laptop,Windows 10,Chrome 137.0.0.0,1920x1080,1920x1080,Temporal Distance Task,cb_10,1.0,temp_dist_trial,dist_items,qkpkxw,2.0,continue,,3599.0,3583.300000000003,3599.0,3599.0,3583.300000000003,3599.0,1.0,0.0,0.0,,Click To Continue,Next button,7.0,object-60,temp_dist_trial,1.0,t_m_13_1,travel_Miami,floatie,10.0,unique,single,t_m_13_1.jpg,Travel,,,sub-06
Desktop or Laptop,Windows 10,Chrome 137.0.0.0,1920x1080,1920x1080,Temporal Distance Task,cb_10,1.0,temp_dist_trial,dist_items,qkpkxw,2.0,response,87,1800.0,3583.300000000003,3599.6999999955297,1800.0,3583.300000000003,3599.6999999955297,1.0,1799.6999999955294,0.0,,Slider,Slider,4.0,object-56,temp_dist_trial,1.0,t_m_13_1,travel_Miami,floatie,10.0,unique,single,t_m_13_1.jpg,Travel,,,sub-06
Desktop or Laptop,Windows 10,Chrome 137.0.0.0,1920x1080,1920x1080,Temporal Distance Task,cb_10,2.0,temp_dist_trial,num_items,zn7si1,1.0,response,2_ITEM,1477.2999999940366,1466.5999999999985,1477.2999999940366,1477.2999999940366,1466.5999999999985,1477.2999999940366,1.0,0.0,0.0,,Click Response,2_count,5.0,object-49,temp_dist_trial,2.0,t_i_16_1,travel_Iceland,skis,10.0,unique,paired,t_i_16_1.jpg,Travel,,,sub-06
Desktop or Laptop,Windows 10,Chrome 137.0.0.0,1920x1080,1920x1080,Temporal Distance Task,cb_10,2.0,temp_dist_trial,dist_items,qkpkxw,2.0,info,,3.9999999985084287,0.0,3.9999999985084287,3.9999999985084287,0.0,3.9999999985084287,1.0,0.0,0.0,,Slider,Slider,4.0,object-56,temp_dist_trial,2.0,t_i_16_1,travel_Iceland,skis,10.0,unique,paired,t_i_16_1.jpg,Travel,,,sub-06
Desktop or Laptop,Windows 10,Chrome 137.0.0.0,1920x1080,1920x1080,Temporal Distance Task,cb_10,2.0,temp_dist_trial,dist_items,qkpkxw,2.0,continue,,2710.199999994038,2700.0,2710.199999994038,2710.199999994038,2700.0,2710.199999994038,1.0,0.0,0.0,,Click To Continue,Next button,7.0,object-60,temp_dist_trial,2.0,t_i_16_1,travel_Iceland,skis,10.0,unique,paired,t_i_16_1.jpg,Travel,,,sub-06
Desktop or Laptop,Windows 10,Chrome 137.0.0.0,1920x1080,1920x1080,Temporal Distance Task,cb_10,2.0,temp_dist_trial,dist_items,qkpkxw,2.0,response,22,1050.0,2700.0,2713.2999999955277,1050.0,2700.0,2713.2999999955277,1.0,1663.2999999955282,0.0,,Slider,Slider,4.0,object-56,temp_dist_trial,2.0,t_i_16_1,travel_Iceland,skis,10.0,unique,paired,t_i_16_1.jpg,Travel,,,sub-06
Desktop or Laptop,Windows 10,Chrome 137.0.0.0,1920x1080,1920x1080,Temporal Distance Task,cb_10,3.0,temp_dist_trial,num_items,zn7si1,1.0,response,num_miss,2999.900000000001,2999.900000000001,2999.900000000001,2999.900000000001,2999.900000000001,2999.900000000001,1.0,0.0,0.0,num_miss_tag,Time Limit,screen,0.0,screen,temp_dist_trial,3.0,t_i_06_1,travel_Iceland,knit hat,10.0,unique,single,t_i_06_1.jpg,Travel,,,sub-06
Desktop or Laptop,Windows 10,Chrome 137.0.0.0,1920x1080,1920x1080,Temporal Distance Task,cb_10,4.0,temp_dist_trial,num_items,zn7si1,1.0,response,1_ITEM,172.29999999851134,166.70000000000437,172.29999999851134,172.29999999851134,166.70000000000437,172.29999999851134,1.0,0.0,0.0,,Click Response,1_count,3.0,object-46,temp_dist_trial,4.0,t_s_04_1,travel_shared,instant camera,10.0,competing,single,t_s_04_1.jpg,Travel,,,sub-06
Desktop or Laptop,Windows 10,Chrome 137.0.0.0,1920x1080,1920x1080,Temporal Distance Task,cb_10,5.0,temp_dist_trial,num_items,zn7si1,1.0,response,2_ITEM,1792.6999999999966,1783.1999999999966,1792.6999999999966,1792.6999999999966,1783.1999999999966,1792.6999999999966,1.0,0.0,0.0,,Click Response,2_count,5.0,object-49,temp_dist_trial,5.0,t_i_12_1,travel_Iceland,tent,10.0,unique,single,t_i_12_1.jpg,Travel,,,sub-06
Desktop or Laptop,Windows 10,Chrome 137.0.0.0,1920x1080,1920x1080,Temporal Distance Task,cb_10,5.0,temp_dist_trial,dist_items,qkpkxw,2.0,info,,3.5999999940395355,0.0,3.5999999940395355,3.5999999940395355,0.0,3.5999999940395355,1.0,0.0,0.0,,Slider,Slider,4.0,object-56,temp_dist_trial,5.0,t_i_12_1,travel_Iceland,tent,10.0,unique,single,t_i_12_1.jpg,Travel,,,sub-06
Desktop or Laptop,Windows 10,Chrome 137.0.0.0,1920x1080,1920x1080,Temporal Distance Task,cb_10,5.0,temp_dist_trial,dist_items,qkpkxw,2.0,continue,,3041.0,3033.400000000001,3041.0,3041.0,3033.400000000001,3041.0,1.0,0.0,0.0,,Click To Continue,Next button,7.0,object-60,temp_dist_trial,5.0,t_i_12_1,travel_Iceland,tent,10.0,unique,single,t_i_12_1.jpg,Travel,,,sub-06
Desktop or Laptop,Windows 10,Chrome 137.0.0.0,1920x1080,1920x1080,Temporal Distance Task,cb_10,5.0,temp_dist_trial,dist_items,qkpkxw,2.0,response,78,1116.6999999999969,3033.400000000001,3041.399999998511,1116.6999999999969,3033.400000000001,3041.399999998511,1.0,1924.6999999985128,0.0,,Slider,Slider,4.0,object-56,temp_dist_trial,5.0,t_i_12_1,travel_Iceland,tent,10.0,unique,single,t_i_12_1.jpg,Travel,,,sub-06
Desktop or Laptop,Windows 10,Chrome 137.0.0.0,1920x1080,1920x1080,Temporal Distance Task,cb_10,6.0,temp_dist_trial,num_items,zn7si1,1.0,response,1_ITEM,2027.299999995528,2016.5999999999985,2027.299999995528,2027.299999995528,2016.5999999999985,2027.299999995528,1.0,0.0,0.0,,Click Response,1_count,3.0,object-46,temp_dist_trial,6.0,t_m_11_1,travel_Miami,collapsible beach chair,10.0,unique,single,t_m_11_1.jpg,Travel,,,sub-06
Desktop or Laptop,Windows 10,Chrome 137.0.0.0,1920x1080,1920x1080,Temporal Distance Task,cb_10,7.0,temp_dist_trial,num_items,zn7si1,1.0,response,2_ITEM,2784.0999999940386,2783.300000000003,2784.0999999940386,2784.0999999940386,2783.300000000003,2784.0999999940386,1.0,0.0,0.0,,Click Response,2_count,5.0,object-49,temp_dist_trial,7.0,t_i_10_1,travel_Iceland,trekking poles,10.0,unique,paired,t_i_10_1.jpg,Travel,,,sub-06
Desktop or Laptop,Windows 10,Chrome 137.0.0.0,1920x1080,1920x1080,Temporal Distance Task,cb_10,7.0,temp_dist_trial,dist_items,qkpkxw,2.0,info,,3.599999997022678,0.0,3.599999997022678,3.599999997022678,0.0,3.599999997022678,1.0,0.0,0.0,,Slider,Slider,4.0,object-56,temp_dist_trial,7.0,t_i_10_1,travel_Iceland,trekking poles,10.0,unique,paired,t_i_10_1.jpg,Travel,,,sub-06
Desktop or Laptop,Windows 10,Chrome 137.0.0.0,1920x1080,1920x1080,Temporal Distance Task,cb_10,7.0,temp_dist_trial,dist_items,qkpkxw,2.0,continue,,2694.699999998513,2683.300000000003,2694.699999998513,2694.699999998513,2683.300000000003,2694.699999998513,1.0,0.0,0.0,,Click To Continue,Next button,7.0,object-60,temp_dist_trial,7.0,t_i_10_1,travel_Iceland,trekking poles,10.0,unique,paired,t_i_10_1.jpg,Travel,,,sub-06
Desktop or Laptop,Windows 10,Chrome 137.0.0.0,1920x1080,1920x1080,Temporal Distance Task,cb_10,7.0,temp_dist_trial,dist_items,qkpkxw,2.0,response,41,1316.7000000000044,2683.300000000003,2694.999999995533,1316.7000000000044,2683.300000000003,2694.999999995533,1.0,1378.2999999955282,0.0,,Slider,Slider,4.0,object-56,temp_dist_trial,7.0,t_i_10_1,travel_Iceland,trekking poles,10.0,unique,paired,t_i_10_1.jpg,Travel,,,sub-06
Desktop or Laptop,Windows 10,Chrome 137.0.0.0,1920x1080,1920x1080,Temporal Distance Task,cb_10,8.0,temp_dist_trial,num_items,zn7si1,1.0,response,2_ITEM,1292.3999999985099,1283.4000000000015,1292.3999999985099,1292.3999999985099,1283.4000000000015,1292.3999999985099,1.0,0.0,0.0,,Click Response,2_count,5.0,object-49,temp_dist_trial,8.0,t_s_17_1,travel_shared,toothbrush,10.0,competing,paired,t_s_17_1.jpg,Travel,,,sub-06
Desktop or Laptop,Windows 10,Chrome 137.0.0.0,1920x1080,1920x1080,Temporal Distance Task,cb_10,8.0,temp_dist_trial,dist_items,qkpkxw,2.0,info,,4.299999994036625,0.0,4.299999994036625,4.299999994036625,0.0,4.299999994036625,1.0,0.0,0.0,,Slider,Slider,4.0,object-56,temp_dist_trial,8.0,t_s_17_1,travel_shared,toothbrush,10.0,competing,paired,t_s_17_1.jpg,Travel,,,sub-06
Desktop or Laptop,Windows 10,Chrome 137.0.0.0,1920x1080,1920x1080,Temporal Distance Task,cb_10,8.0,temp_dist_trial,dist_items,qkpkxw,2.0,continue,,2629.399999995527,2616.699999999997,2629.399999995527,2629.399999995527,2616.699999999997,2629.399999995527,1.0,0.0,0.0,,Click To Continue,Next button,7.0,object-60,temp_dist_trial,8.0,t_s_17_1,travel_shared,toothbrush,10.0,competing,paired,t_s_17_1.jpg,Travel,,,sub-06
Desktop or Laptop,Windows 10,Chrome 137.0.0.0,1920x1080,1920x1080,Temporal Distance Task,cb_10,8.0,temp_dist_trial,dist_items,qkpkxw,2.0,response,82,1850.0999999999985,2616.699999999997,2631.899999995527,1850.0999999999985,2616.699999999997,2631.899999995527,1.0,781.7999999955283,0.0,,Slider,Slider,4.0,object-56,temp_dist_trial,8.0,t_s_17_1,travel_shared,toothbrush,10.0,competing,paired,t_s_17_1.jpg,Travel,,,sub-06
Desktop or Laptop,Windows 10,Chrome 137.0.0.0,1920x1080,1920x1080,Temporal Distance Task,cb_10,9.0,temp_dist_trial,num_items,zn7si1,1.0,response,1_ITEM,1597.5999999940395,1583.1999999999966,1597.5999999940395,1597.5999999940395,1583.1999999999966,1597.5999999940395,1.0,0.0,0.0,,Click Response,1_count,3.0,object-46,temp_dist_trial,9.0,t_m_15_1,travel_Miami,shorts,10.0,unique,paired,t_m_15_1.jpg,Travel,,,sub-06
Desktop or Laptop,Windows 10,Chrome 137.0.0.0,1920x1080,1920x1080,Temporal Distance Task,cb_10,10.0,temp_dist_trial,num_items,zn7si1,1.0,response,2_ITEM,1932.9999999970166,1916.5999999999985,1932.9999999970166,1932.9999999970166,1916.5999999999985,1932.9999999970166,1.0,0.0,0.0,,Click Response,2_count,5.0,object-49,temp_dist_trial,10.0,t_m_18_1,travel_Miami,waterproof tote,10.0,unique,paired,t_m_18_1.jpg,Travel,,,sub-06
Desktop or Laptop,Windows 10,Chrome 137.0.0.0,1920x1080,1920x1080,Temporal Distance Task,cb_10,10.0,temp_dist_trial,dist_items,qkpkxw,2.0,info,,2.9999999970168574,0.0,2.9999999970168574,2.9999999970168574,0.0,2.9999999970168574,1.0,0.0,0.0,,Slider,Slider,4.0,object-56,temp_dist_trial,10.0,t_m_18_1,travel_Miami,waterproof tote,10.0,unique,paired,t_m_18_1.jpg,Travel,,,sub-06
Desktop or Laptop,Windows 10,Chrome 137.0.0.0,1920x1080,1920x1080,Temporal Distance Task,cb_10,10.0,temp_dist_trial,dist_items,qkpkxw,2.0,continue,,2909.799999994037,2900.0,2909.799999994037,2909.799999994037,2900.0,2909.799999994037,1.0,0.0,0.0,,Click To Continue,Next button,7.0,object-60,temp_dist_trial,10.0,t_m_18_1,travel_Miami,waterproof tote,10.0,unique,paired,t_m_18_1.jpg,Travel,,,sub-06
Desktop or Laptop,Windows 10,Chrome 137.0.0.0,1920x1080,1920x1080,Temporal Distance Task,cb_10,10.0,temp_dist_trial,dist_items,qkpkxw,2.0,response,29,2300.0999999999913,2900.0,2910.099999998507,2300.0999999999913,2900.0,2910.099999998507,1.0,609.9999999985158,0.0,,Slider,Slider,4.0,object-56,temp_dist_trial,10.0,t_m_18_1,travel_Miami,waterproof tote,10.0,unique,paired,t_m_18_1.jpg,Travel,,,sub-06
Desktop or Laptop,Windows 10,Chrome 137.0.0.0,1920x1080,1920x1080,Temporal Distance Task,cb_10,11.0,temp_dist_trial,num_items,zn7si1,1.0,response,num_miss,2999.8999999999933,2999.8999999999933,2999.8999999999933,2999.8999999999933,2999.8999999999933,2999.8999999999933,1.0,0.0,0.0,num_miss_tag,Time Limit,screen,0.0,screen,temp_dist_trial,11.0,t_s_24_1,travel_shared,ear plugs,10.0,competing,single,t_s_24_1.jpg,Travel,,,sub-06
Desktop or Laptop,Windows 10,Chrome 137.0.0.0,1920x1080,1920x1080,Temporal Distance Task,cb_10,12.0,temp_dist_trial,num_items,zn7si1,1.0,response,2_ITEM,118.5,116.60000000000582,118.5,118.5,116.60000000000582,118.5,1.0,0.0,0.0,,Click Response,2_count,5.0,object-49,temp_dist_trial,12.0,t_s_12_1,travel_shared,clear toiletry bag,10.0,competing,paired,t_s_12_1.jpg,Travel,,,sub-06
Desktop or Laptop,Windows 10,Chrome 137.0.0.0,1920x1080,1920x1080,Temporal Distance Task,cb_10,12.0,temp_dist_trial,dist_items,qkpkxw,2.0,info,,2.999999995532562,0.0,2.999999995532562,2.999999995532562,0.0,2.999999995532562,1.0,0.0,0.0,,Slider,Slider,4.0,object-56,temp_dist_trial,12.0,t_s_12_1,travel_shared,clear toiletry bag,10.0,competing,paired,t_s_12_1.jpg,Travel,,,sub-06
Desktop or Laptop,Windows 10,Chrome 137.0.0.0,1920x1080,1920x1080,Temporal Distance Task,cb_10,12.0,temp_dist_trial,dist_items,qkpkxw,2.0,continue,,2995.1999999985132,2983.199999999997,2995.1999999985132,2995.1999999985132,2983.199999999997,2995.1999999985132,1.0,0.0,0.0,,Click To Continue,Next button,7.0,object-60,temp_dist_trial,12.0,t_s_12_1,travel_shared,clear toiletry bag,10.0,competing,paired,t_s_12_1.jpg,Travel,,,sub-06
Desktop or Laptop,Windows 10,Chrome 137.0.0.0,1920x1080,1920x1080,Temporal Distance Task,cb_10,12.0,temp_dist_trial,dist_items,qkpkxw,2.0,response,40,2116.6000000000063,2983.199999999997,2995.3999999940424,2116.6000000000063,2983.199999999997,2995.3999999940424,1.0,878.7999999940365,0.0,,Slider,Slider,4.0,object-56,temp_dist_trial,12.0,t_s_12_1,travel_shared,clear toiletry bag,10.0,competing,paired,t_s_12_1.jpg,Travel,,,sub-06
Desktop or Laptop,Windows 10,Chrome 137.0.0.0,1920x1080,1920x1080,Temporal Distance Task,cb_10,13.0,temp_dist_trial,num_items,zn7si1,1.0,response,1_ITEM,2234.8999999970256,2233.4000000000087,2234.8999999970256,2234.8999999970256,2233.4000000000087,2234.8999999970256,1.0,0.0,0.0,,Click Response,1_count,3.0,object-46,temp_dist_trial,13.0,t_i_14_1,travel_Iceland,snow pants,10.0,unique,paired,t_i_14_1.jpg,Travel,,,sub-06
Desktop or Laptop,Windows 10,Chrome 137.0.0.0,1920x1080,1920x1080,Temporal Distance Task,cb_10,14.0,temp_dist_trial,num_items,zn7si1,1.0,response,1_ITEM,1440.3999999955267,1433.3000000000034,1440.3999999955267,1440.3999999955267,1433.3000000000034,1440.3999999955267,1.0,0.0,0.0,,Click Response,1_count,3.0,object-46,temp_dist_trial,14.0,t_s_19_1,travel_shared,pajamas,10.0,competing,single,t_s_19_1.jpg,Travel,,,sub-06
Desktop or Laptop,Windows 10,Chrome 137.0.0.0,1920x1080,1920x1080,Temporal Distance Task,cb_10,15.0,temp_dist_trial,num_items,zn7si1,1.0,response,2_ITEM,1155.5999999955236,1150.0,1155.5999999955236,1155.5999999955236,1150.0,1155.5999999955236,1.0,0.0,0.0,,Click Response,2_count,5.0,object-49,temp_dist_trial,15.0,t_s_21_1,travel_shared,umbrella,10.0,competing,paired,t_s_21_1.jpg,Travel,,,sub-06
Desktop or Laptop,Windows 10,Chrome 137.0.0.0,1920x1080,1920x1080,Temporal Distance Task,cb_10,15.0,temp_dist_trial,dist_items,qkpkxw,2.0,info,,3.6999999955296516,0.0,3.6999999955296516,3.6999999955296516,0.0,3.6999999955296516,1.0,0.0,0.0,,Slider,Slider,4.0,object-56,temp_dist_trial,15.0,t_s_21_1,travel_shared,umbrella,10.0,competing,paired,t_s_21_1.jpg,Travel,,,sub-06
Desktop or Laptop,Windows 10,Chrome 137.0.0.0,1920x1080,1920x1080,Temporal Distance Task,cb_10,15.0,temp_dist_trial,dist_items,qkpkxw,2.0,continue,,5818.69999999553,5816.600000000006,5818.69999999553,5818.69999999553,5816.600000000006,5818.69999999553,1.0,0.0,0.0,,Click To Continue,Next button,7.0,object-60,temp_dist_trial,15.0,t_s_21_1,travel_shared,umbrella,10.0,competing,paired,t_s_21_1.jpg,Travel,,,sub-06
Desktop or Laptop,Windows 10,Chrome 137.0.0.0,1920x1080,1920x1080,Temporal Distance Task,cb_10,15.0,temp_dist_trial,dist_items,qkpkxw,2.0,response,71,2000.0,5816.600000000006,5821.0999999940395,2000.0,5816.600000000006,5821.0999999940395,1.0,3821.09999999404,0.0,,Slider,Slider,4.0,object-56,temp_dist_trial,15.0,t_s_21_1,travel_shared,umbrella,10.0,competing,paired,t_s_21_1.jpg,Travel,,,sub-06
Desktop or Laptop,Windows 10,Chrome 137.0.0.0,1920x1080,1920x1080,Temporal Distance Task,cb_10,16.0,temp_dist_trial,num_items,zn7si1,1.0,response,2_ITEM,2350.8999999999937,2350.0,2350.8999999999937,2350.8999999999937,2350.0,2350.8999999999937,1.0,0.0,0.0,,Click Response,2_count,5.0,object-49,temp_dist_trial,16.0,t_i_04_1,travel_Iceland,portable camping stove,10.0,unique,paired,t_i_04_1.jpg,Travel,,,sub-06
Desktop or Laptop,Windows 10,Chrome 137.0.0.0,1920x1080,1920x1080,Temporal Distance Task,cb_10,16.0,temp_dist_trial,dist_items,qkpkxw,2.0,info,,3.4999999940337148,0.0,3.4999999940337148,3.4999999940337148,0.0,3.4999999940337148,1.0,0.0,0.0,,Slider,Slider,4.0,object-56,temp_dist_trial,16.0,t_i_04_1,travel_Iceland,portable camping stove,10.0,unique,paired,t_i_04_1.jpg,Travel,,,sub-06
Desktop or Laptop,Windows 10,Chrome 137.0.0.0,1920x1080,1920x1080,Temporal Distance Task,cb_10,16.0,temp_dist_trial,dist_items,qkpkxw,2.0,continue,,2183.8999999999937,2183.199999999997,2183.8999999999937,2183.8999999999937,2183.199999999997,2183.8999999999937,1.0,0.0,0.0,,Click To Continue,Next button,7.0,object-60,temp_dist_trial,16.0,t_i_04_1,travel_Iceland,portable camping stove,10.0,unique,paired,t_i_04_1.jpg,Travel,,,sub-06
Desktop or Laptop,Windows 10,Chrome 137.0.0.0,1920x1080,1920x1080,Temporal Distance Task,cb_10,16.0,temp_dist_trial,dist_items,qkpkxw,2.0,response,61,1049.8999999999942,2183.199999999997,2184.199999997014,1049.8999999999942,2183.199999999997,2184.199999997014,1.0,1134.2999999970198,0.0,,Slider,Slider,4.0,object-56,temp_dist_trial,16.0,t_i_04_1,travel_Iceland,portable camping stove,10.0,unique,paired,t_i_04_1.jpg,Travel,,,sub-06
Desktop or Laptop,Windows 10,Chrome 137.0.0.0,1920x1080,1920x1080,Temporal Distance Task,cb_10,17.0,temp_dist_trial,num_items,zn7si1,1.0,response,2_ITEM,1737.599999998507,1733.3000000000034,1737.599999998507,1737.599999998507,1733.3000000000034,1737.599999998507,1.0,0.0,0.0,,Click Response,2_count,5.0,object-49,temp_dist_trial,17.0,t_i_18_1,travel_Iceland,ski mask,10.0,unique,paired,t_i_18_1.jpg,Travel,,,sub-06
Desktop or Laptop,Windows 10,Chrome 137.0.0.0,1920x1080,1920x1080,Temporal Distance Task,cb_10,17.0,temp_dist_trial,dist_items,qkpkxw,2.0,info,,3.799999998504063,0.0,3.799999998504063,3.799999998504063,0.0,3.799999998504063,1.0,0.0,0.0,,Slider,Slider,4.0,object-56,temp_dist_trial,17.0,t_i_18_1,travel_Iceland,ski mask,10.0,unique,paired,t_i_18_1.jpg,Travel,,,sub-06
Desktop or Laptop,Windows 10,Chrome 137.0.0.0,1920x1080,1920x1080,Temporal Distance Task,cb_10,17.0,temp_dist_trial,dist_items,qkpkxw,2.0,continue,,2448.299999998504,2433.2999999999884,2448.299999998504,2448.299999998504,2433.2999999999884,2448.299999998504,1.0,0.0,0.0,,Click To Continue,Next button,7.0,object-60,temp_dist_trial,17.0,t_i_18_1,travel_Iceland,ski mask,10.0,unique,paired,t_i_18_1.jpg,Travel,,,sub-06
Desktop or Laptop,Windows 10,Chrome 137.0.0.0,1920x1080,1920x1080,Temporal Distance Task,cb_10,17.0,temp_dist_trial,dist_items,qkpkxw,2.0,response,15,1050.0,2433.2999999999884,2448.8999999999937,1050.0,2433.2999999999884,2448.8999999999937,1.0,1398.8999999999942,0.0,,Slider,Slider,4.0,object-56,temp_dist_trial,17.0,t_i_18_1,travel_Iceland,ski mask,10.0,unique,paired,t_i_18_1.jpg,Travel,,,sub-06
Desktop or Laptop,Windows 10,Chrome 137.0.0.0,1920x1080,1920x1080,Temporal Distance Task,cb_10,18.0,temp_dist_trial,num_items,zn7si1,1.0,response,2_ITEM,1211.1000000000058,1200.1000000000058,1211.1000000000058,1211.1000000000058,1200.1000000000058,1211.1000000000058,1.0,0.0,0.0,,Click Response,2_count,5.0,object-49,temp_dist_trial,18.0,t_i_19_1,travel_Iceland,rope,10.0,unique,paired,t_i_19_1.jpg,Travel,,,sub-06
Desktop or Laptop,Windows 10,Chrome 137.0.0.0,1920x1080,1920x1080,Temporal Distance Task,cb_10,18.0,temp_dist_trial,dist_items,qkpkxw,2.0,info,,4.699999994045356,0.0,4.699999994045356,4.699999994045356,0.0,4.699999994045356,1.0,0.0,0.0,,Slider,Slider,4.0,object-56,temp_dist_trial,18.0,t_i_19_1,travel_Iceland,rope,10.0,unique,paired,t_i_19_1.jpg,Travel,,,sub-06
Desktop or Laptop,Windows 10,Chrome 137.0.0.0,1920x1080,1920x1080,Temporal Distance Task,cb_10,18.0,temp_dist_trial,dist_items,qkpkxw,2.0,continue,,2456.4999999985157,2450.0,2456.4999999985157,2456.4999999985157,2450.0,2456.4999999985157,1.0,0.0,0.0,,Click To Continue,Next button,7.0,object-60,temp_dist_trial,18.0,t_i_19_1,travel_Iceland,rope,10.0,unique,paired,t_i_19_1.jpg,Travel,,,sub-06
Desktop or Laptop,Windows 10,Chrome 137.0.0.0,1920x1080,1920x1080,Temporal Distance Task,cb_10,18.0,temp_dist_trial,dist_items,qkpkxw,2.0,response,13,1016.7000000000116,2450.0,2456.7999999955355,1016.7000000000116,2450.0,2456.7999999955355,1.0,1440.0999999955234,0.0,,Slider,Slider,4.0,object-56,temp_dist_trial,18.0,t_i_19_1,travel_Iceland,rope,10.0,unique,paired,t_i_19_1.jpg,Travel,,,sub-06
Desktop or Laptop,Windows 10,Chrome 137.0.0.0,1920x1080,1920x1080,Temporal Distance Task,cb_10,19.0,temp_dist_trial,num_items,zn7si1,1.0,response,1_ITEM,1748.9999999985157,1733.2000000000116,1748.9999999985157,1748.9999999985157,1733.2000000000116,1748.9999999985157,1.0,0.0,0.0,,Click Response,1_count,3.0,object-46,temp_dist_trial,19.0,t_s_01_1,travel_shared,fanny pack,10.0,competing,single,t_s_01_1.jpg,Travel,,,sub-06
Desktop or Laptop,Windows 10,Chrome 137.0.0.0,1920x1080,1920x1080,Temporal Distance Task,cb_10,20.0,temp_dist_trial,num_items,zn7si1,1.0,response,2_ITEM,1429.5999999955234,1416.7999999999884,1429.5999999955234,1429.5999999955234,1416.7999999999884,1429.5999999955234,1.0,0.0,0.0,,Click Response,2_count,5.0,object-49,temp_dist_trial,20.0,t_m_19_1,travel_Miami,surfboard,10.0,unique,paired,t_m_19_1.jpg,Travel,,,sub-06
Desktop or Laptop,Windows 10,Chrome 137.0.0.0,1920x1080,1920x1080,Temporal Distance Task,cb_10,20.0,temp_dist_trial,dist_items,qkpkxw,2.0,info,,4.199999998512793,0.0,4.199999998512793,4.199999998512793,0.0,4.199999998512793,1.0,0.0,0.0,,Slider,Slider,4.0,object-56,temp_dist_trial,20.0,t_m_19_1,travel_Miami,surfboard,10.0,unique,paired,t_m_19_1.jpg,Travel,,,sub-06
Desktop or Laptop,Windows 10,Chrome 137.0.0.0,1920x1080,1920x1080,Temporal Distance Task,cb_10,20.0,temp_dist_trial,dist_items,qkpkxw,2.0,continue,,4520.499999995533,4516.699999999997,4520.499999995533,4520.499999995533,4516.699999999997,4520.499999995533,1.0,0.0,0.0,,Click To Continue,Next button,7.0,object-60,temp_dist_trial,20.0,t_m_19_1,travel_Miami,surfboard,10.0,unique,paired,t_m_19_1.jpg,Travel,,,sub-06
Desktop or Laptop,Windows 10,Chrome 137.0.0.0,1920x1080,1920x1080,Temporal Distance Task,cb_10,20.0,temp_dist_trial,dist_items,qkpkxw,2.0,response,63,1516.8000000000034,4516.699999999997,4524.999999995533,1516.8000000000034,4516.699999999997,4524.999999995533,1.0,3008.1999999955297,0.0,,Slider,Slider,4.0,object-56,temp_dist_trial,20.0,t_m_19_1,travel_Miami,surfboard,10.0,unique,paired,t_m_19_1.jpg,Travel,,,sub-06
Desktop or Laptop,Windows 10,Chrome 137.0.0.0,1920x1080,1920x1080,Temporal Distance Task,cb_10,21.0,temp_dist_trial,num_items,zn7si1,1.0,response,1_ITEM,1328.6000000000058,1316.6000000000058,1328.6000000000058,1328.6000000000058,1316.6000000000058,1328.6000000000058,1.0,0.0,0.0,,Click Response,1_count,3.0,object-46,temp_dist_trial,21.0,t_m_05_1,travel_Miami,sunscreen,10.0,unique,single,t_m_05_1.jpg,Travel,,,sub-06
Desktop or Laptop,Windows 10,Chrome 137.0.0.0,1920x1080,1920x1080,Temporal Distance Task,cb_10,22.0,temp_dist_trial,num_items,zn7si1,1.0,response,1_ITEM,1661.3999999970254,1650.0,1661.3999999970254,1661.3999999970254,1650.0,1661.3999999970254,1.0,0.0,0.0,,Click Response,1_count,3.0,object-46,temp_dist_trial,22.0,t_s_16_1,travel_shared,chapstick,10.0,competing,paired,t_s_16_1.jpg,Travel,,,sub-06
Desktop or Laptop,Windows 10,Chrome 137.0.0.0,1920x1080,1920x1080,Temporal Distance Task,cb_10,23.0,temp_dist_trial,num_items,zn7si1,1.0,response,1_ITEM,1280.8999999985099,1266.5,1280.8999999985099,1280.8999999985099,1266.5,1280.8999999985099,1.0,0.0,0.0,,Click Response,1_count,3.0,object-46,temp_dist_trial,23.0,t_s_05_1,travel_shared,neck pillow,10.0,competing,paired,t_s_05_1.jpg,Travel,,,sub-06
Desktop or Laptop,Windows 10,Chrome 137.0.0.0,1920x1080,1920x1080,Temporal Distance Task,cb_10,24.0,temp_dist_trial,num_items,zn7si1,1.0,response,2_ITEM,1412.8999999985099,1400.0,1412.8999999985099,1412.8999999985099,1400.0,1412.8999999985099,1.0,0.0,0.0,,Click Response,2_count,5.0,object-49,temp_dist_trial,24.0,t_s_02_1,travel_shared,water bottle,10.0,competing,paired,t_s_02_1.jpg,Travel,,,sub-06
Desktop or Laptop,Windows 10,Chrome 137.0.0.0,1920x1080,1920x1080,Temporal Distance Task,cb_10,24.0,temp_dist_trial,dist_items,qkpkxw,2.0,info,,2.799999997019768,0.0,2.799999997019768,2.799999997019768,0.0,2.799999997019768,1.0,0.0,0.0,,Slider,Slider,4.0,object-56,temp_dist_trial,24.0,t_s_02_1,travel_shared,water bottle,10.0,competing,paired,t_s_02_1.jpg,Travel,,,sub-06
Desktop or Laptop,Windows 10,Chrome 137.0.0.0,1920x1080,1920x1080,Temporal Distance Task,cb_10,24.0,temp_dist_trial,dist_items,qkpkxw,2.0,continue,,2756.5999999940386,2750.1000000000067,2756.5999999940386,2756.5999999940386,2750.1000000000067,2756.5999999940386,1.0,0.0,0.0,,Click To Continue,Next button,7.0,object-60,temp_dist_trial,24.0,t_s_02_1,travel_shared,water bottle,10.0,competing,paired,t_s_02_1.jpg,Travel,,,sub-06
Desktop or Laptop,Windows 10,Chrome 137.0.0.0,1920x1080,1920x1080,Temporal Distance Task,cb_10,24.0,temp_dist_trial,dist_items,qkpkxw,2.0,response,51,866.6999999999971,2750.1000000000067,2757.0,866.6999999999971,2750.1000000000067,2757.0,1.0,1890.3000000000034,0.0,,Slider,Slider,4.0,object-56,temp_dist_trial,24.0,t_s_02_1,travel_shared,water bottle,10.0,competing,paired,t_s_02_1.jpg,Travel,,,sub-06
Desktop or Laptop,Windows 10,Chrome 137.0.0.0,1920x1080,1920x1080,Temporal Distance Task,cb_10,25.0,temp_dist_trial,num_items,zn7si1,1.0,response,2_ITEM,1337.5999999955236,1333.1999999999969,1337.5999999955236,1337.5999999955236,1333.1999999999969,1337.5999999955236,1.0,0.0,0.0,,Click Response,2_count,5.0,object-49,temp_dist_trial,25.0,t_m_08_1,travel_Miami,flipflops,10.0,unique,paired,t_m_08_1.jpg,Travel,,,sub-06
Desktop or Laptop,Windows 10,Chrome 137.0.0.0,1920x1080,1920x1080,Temporal Distance Task,cb_10,25.0,temp_dist_trial,dist_items,qkpkxw,2.0,info,,3.499999995532562,0.0,3.499999995532562,3.499999995532562,0.0,3.499999995532562,1.0,0.0,0.0,,Slider,Slider,4.0,object-56,temp_dist_trial,25.0,t_m_08_1,travel_Miami,flipflops,10.0,unique,paired,t_m_08_1.jpg,Travel,,,sub-06
Desktop or Laptop,Windows 10,Chrome 137.0.0.0,1920x1080,1920x1080,Temporal Distance Task,cb_10,25.0,temp_dist_trial,dist_items,qkpkxw,2.0,continue,,3238.800000000003,3233.300000000003,3238.800000000003,3238.800000000003,3233.300000000003,3238.800000000003,1.0,0.0,0.0,,Click To Continue,Next button,7.0,object-60,temp_dist_trial,25.0,t_m_08_1,travel_Miami,flipflops,10.0,unique,paired,t_m_08_1.jpg,Travel,,,sub-06
Desktop or Laptop,Windows 10,Chrome 137.0.0.0,1920x1080,1920x1080,Temporal Distance Task,cb_10,25.0,temp_dist_trial,dist_items,qkpkxw,2.0,response,32,1066.6999999999969,3233.300000000003,3239.0999999970227,1066.6999999999969,3233.300000000003,3239.0999999970227,1.0,2172.3999999970256,0.0,,Slider,Slider,4.0,object-56,temp_dist_trial,25.0,t_m_08_1,travel_Miami,flipflops,10.0,unique,paired,t_m_08_1.jpg,Travel,,,sub-06
Desktop or Laptop,Windows 10,Chrome 137.0.0.0,1920x1080,1920x1080,Temporal Distance Task,cb_10,26.0,temp_dist_trial,num_items,zn7si1,1.0,response,2_ITEM,1007.5,1000.1000000000058,1007.5,1007.5,1000.1000000000058,1007.5,1.0,0.0,0.0,,Click Response,2_count,5.0,object-49,temp_dist_trial,26.0,t_s_06_1,travel_shared,luggage,10.0,competing,paired,t_s_06_1.jpg,Travel,,,sub-06
Desktop or Laptop,Windows 10,Chrome 137.0.0.0,1920x1080,1920x1080,Temporal Distance Task,cb_10,26.0,temp_dist_trial,dist_items,qkpkxw,2.0,info,,3.6999999955296516,0.0,3.6999999955296516,3.6999999955296516,0.0,3.6999999955296516,1.0,0.0,0.0,,Slider,Slider,4.0,object-56,temp_dist_trial,26.0,t_s_06_1,travel_shared,luggage,10.0,competing,paired,t_s_06_1.jpg,Travel,,,sub-06
Desktop or Laptop,Windows 10,Chrome 137.0.0.0,1920x1080,1920x1080,Temporal Distance Task,cb_10,26.0,temp_dist_trial,dist_items,qkpkxw,2.0,continue,,2541.1999999955297,2533.300000000003,2541.1999999955297,2541.1999999955297,2533.300000000003,2541.1999999955297,1.0,0.0,0.0,,Click To Continue,Next button,7.0,object-60,temp_dist_trial,26.0,t_s_06_1,travel_shared,luggage,10.0,competing,paired,t_s_06_1.jpg,Travel,,,sub-06
Desktop or Laptop,Windows 10,Chrome 137.0.0.0,1920x1080,1920x1080,Temporal Distance Task,cb_10,26.0,temp_dist_trial,dist_items,qkpkxw,2.0,response,60,999.8999999999942,2533.300000000003,2541.5,999.8999999999942,2533.300000000003,2541.5,1.0,1541.6000000000058,0.0,,Slider,Slider,4.0,object-56,temp_dist_trial,26.0,t_s_06_1,travel_shared,luggage,10.0,competing,paired,t_s_06_1.jpg,Travel,,,sub-06
Desktop or Laptop,Windows 10,Chrome 137.0.0.0,1920x1080,1920x1080,Temporal Distance Task,cb_10,27.0,temp_dist_trial,num_items,zn7si1,1.0,response,num_miss,3000.0,3000.0,3000.0,3000.0,3000.0,3000.0,1.0,0.0,0.0,num_miss_tag,Time Limit,screen,0.0,screen,temp_dist_trial,27.0,t_s_20_1,travel_shared,travel pill case,10.0,competing,paired,t_s_20_1.jpg,Travel,,,sub-06
Desktop or Laptop,Windows 10,Chrome 137.0.0.0,1920x1080,1920x1080,Temporal Distance Task,cb_10,28.0,temp_dist_trial,num_items,zn7si1,1.0,response,2_ITEM,1452.7999999970193,1450.1000000000058,1452.7999999970193,1452.7999999970193,1450.1000000000058,1452.7999999970193,1.0,0.0,0.0,,Click Response,2_count,5.0,object-49,temp_dist_trial,28.0,t_i_08_1,travel_Iceland,thick socks,10.0,unique,paired,t_i_08_1.jpg,Travel,,,sub-06
Desktop or Laptop,Windows 10,Chrome 137.0.0.0,1920x1080,1920x1080,Temporal Distance Task,cb_10,28.0,temp_dist_trial,dist_items,qkpkxw,2.0,info,,3.3999999999941792,0.0,3.3999999999941792,3.3999999999941792,0.0,3.3999999999941792,1.0,0.0,0.0,,Slider,Slider,4.0,object-56,temp_dist_trial,28.0,t_i_08_1,travel_Iceland,thick socks,10.0,unique,paired,t_i_08_1.jpg,Travel,,,sub-06
Desktop or Laptop,Windows 10,Chrome 137.0.0.0,1920x1080,1920x1080,Temporal Distance Task,cb_10,28.0,temp_dist_trial,dist_items,qkpkxw,2.0,continue,,4761.599999995525,4749.6999999999825,4761.599999995525,4761.599999995525,4749.6999999999825,4761.599999995525,1.0,0.0,0.0,,Click To Continue,Next button,7.0,object-60,temp_dist_trial,28.0,t_i_08_1,travel_Iceland,thick socks,10.0,unique,paired,t_i_08_1.jpg,Travel,,,sub-06
Desktop or Laptop,Windows 10,Chrome 137.0.0.0,1920x1080,1920x1080,Temporal Distance Task,cb_10,28.0,temp_dist_trial,dist_items,qkpkxw,2.0,response,35,966.6000000000058,4749.6999999999825,4761.999999994034,966.6000000000058,4749.6999999999825,4761.999999994034,1.0,3795.399999994028,0.0,,Slider,Slider,4.0,object-56,temp_dist_trial,28.0,t_i_08_1,travel_Iceland,thick socks,10.0,unique,paired,t_i_08_1.jpg,Travel,,,sub-06
Desktop or Laptop,Windows 10,Chrome 137.0.0.0,1920x1080,1920x1080,Temporal Distance Task,cb_10,29.0,temp_dist_trial,num_items,zn7si1,1.0,response,2_ITEM,1187.5999999985215,1183.4000000000233,1187.5999999985215,1187.5999999985215,1183.4000000000233,1187.5999999985215,1.0,0.0,0.0,,Click Response,2_count,5.0,object-49,temp_dist_trial,29.0,t_s_11_1,travel_shared,eye mask,10.0,competing,paired,t_s_11_1.jpg,Travel,,,sub-06
Desktop or Laptop,Windows 10,Chrome 137.0.0.0,1920x1080,1920x1080,Temporal Distance Task,cb_10,29.0,temp_dist_trial,dist_items,qkpkxw,2.0,info,,3.2999999999883585,0.0,3.2999999999883585,3.2999999999883585,0.0,3.2999999999883585,1.0,0.0,0.0,,Slider,Slider,4.0,object-56,temp_dist_trial,29.0,t_s_11_1,travel_shared,eye mask,10.0,competing,paired,t_s_11_1.jpg,Travel,,,sub-06
Desktop or Laptop,Windows 10,Chrome 137.0.0.0,1920x1080,1920x1080,Temporal Distance Task,cb_10,29.0,temp_dist_trial,dist_items,qkpkxw,2.0,continue,,1770.5999999970081,1766.5999999999767,1770.5999999970081,1770.5999999970081,1766.5999999999767,1770.5999999970081,1.0,0.0,0.0,,Click To Continue,Next button,7.0,object-60,temp_dist_trial,29.0,t_s_11_1,travel_shared,eye mask,10.0,competing,paired,t_s_11_1.jpg,Travel,,,sub-06
Desktop or Laptop,Windows 10,Chrome 137.0.0.0,1920x1080,1920x1080,Temporal Distance Task,cb_10,29.0,temp_dist_trial,dist_items,qkpkxw,2.0,response,29,916.6999999999823,1766.5999999999767,1770.8999999940281,916.6999999999823,1766.5999999999767,1770.8999999940281,1.0,854.1999999940454,0.0,,Slider,Slider,4.0,object-56,temp_dist_trial,29.0,t_s_11_1,travel_shared,eye mask,10.0,competing,paired,t_s_11_1.jpg,Travel,,,sub-06
Desktop or Laptop,Windows 10,Chrome 137.0.0.0,1920x1080,1920x1080,Temporal Distance Task,cb_10,30.0,temp_dist_trial,num_items,zn7si1,1.0,response,1_ITEM,1698.2999999940512,1683.3000000000175,1698.2999999940512,1698.2999999940512,1683.3000000000175,1698.2999999940512,1.0,0.0,0.0,,Click Response,1_count,3.0,object-46,temp_dist_trial,30.0,t_s_14_1,travel_shared,hand sanitizer,10.0,competing,paired,t_s_14_1.jpg,Travel,,,sub-06
Desktop or Laptop,Windows 10,Chrome 137.0.0.0,1920x1080,1920x1080,Temporal Distance Task,cb_10,31.0,temp_dist_trial,num_items,zn7si1,1.0,response,2_ITEM,1150.699999997014,1149.8999999999942,1150.699999997014,1150.699999997014,1149.8999999999942,1150.699999997014,1.0,0.0,0.0,,Click Response,2_count,5.0,object-49,temp_dist_trial,31.0,t_s_22_1,travel_shared,belt,10.0,competing,paired,t_s_22_1.jpg,Travel,,,sub-06
Desktop or Laptop,Windows 10,Chrome 137.0.0.0,1920x1080,1920x1080,Temporal Distance Task,cb_10,31.0,temp_dist_trial,dist_items,qkpkxw,2.0,info,,3.0999999955238318,0.0,3.0999999955238318,3.0999999955238318,0.0,3.0999999955238318,1.0,0.0,0.0,,Slider,Slider,4.0,object-56,temp_dist_trial,31.0,t_s_22_1,travel_shared,belt,10.0,competing,paired,t_s_22_1.jpg,Travel,,,sub-06
Desktop or Laptop,Windows 10,Chrome 137.0.0.0,1920x1080,1920x1080,Temporal Distance Task,cb_10,31.0,temp_dist_trial,dist_items,qkpkxw,2.0,response,dist_miss,6999.899999999994,6999.899999999994,6999.899999999994,6999.899999999994,6999.899999999994,6999.899999999994,1.0,0.0,0.0,dist_miss_tag,Time Limit,screen,0.0,screen,temp_dist_trial,31.0,t_s_22_1,travel_shared,belt,10.0,competing,paired,t_s_22_1.jpg,Travel,,,sub-06
Desktop or Laptop,Windows 10,Chrome 137.0.0.0,1920x1080,1920x1080,Temporal Distance Task,cb_10,31.0,temp_dist_trial,dist_items,qkpkxw,2.0,response,5,2416.6999999999825,6999.899999999994,7001.099999995524,2416.6999999999825,6999.899999999994,7001.099999995524,1.0,4584.3999999955395,0.0,,Slider,Slider,4.0,object-56,temp_dist_trial,31.0,t_s_22_1,travel_shared,belt,10.0,competing,paired,t_s_22_1.jpg,Travel,,,sub-06
Desktop or Laptop,Windows 10,Chrome 137.0.0.0,1920x1080,1920x1080,Temporal Distance Task,cb_10,32.0,temp_dist_trial,num_items,zn7si1,1.0,response,1_ITEM,2940.2999999970198,2933.200000000012,2940.2999999970198,2940.2999999970198,2933.200000000012,2940.2999999970198,1.0,0.0,0.0,,Click Response,1_count,3.0,object-46,temp_dist_trial,32.0,t_i_20_1,travel_Iceland,lantern,10.0,unique,paired,t_i_20_1.jpg,Travel,,,sub-06
Desktop or Laptop,Windows 10,Chrome 137.0.0.0,1920x1080,1920x1080,Temporal Distance Task,cb_10,33.0,temp_dist_trial,num_items,zn7si1,1.0,response,1_ITEM,1568.0999999985215,1566.6000000000058,1568.0999999985215,1568.0999999985215,1566.6000000000058,1568.0999999985215,1.0,0.0,0.0,,Click Response,1_count,3.0,object-46,temp_dist_trial,33.0,t_s_10_1,travel_shared,luggage lock,10.0,competing,single,t_s_10_1.jpg,Travel,,,sub-06
Desktop or Laptop,Windows 10,Chrome 137.0.0.0,1920x1080,1920x1080,Temporal Distance Task,cb_10,34.0,temp_dist_trial,num_items,zn7si1,1.0,response,1_ITEM,1316.5999999999767,1300.0,1316.5999999999767,1316.5999999999767,1300.0,1316.5999999999767,1.0,0.0,0.0,,Click Response,1_count,3.0,object-46,temp_dist_trial,34.0,t_s_13_1,travel_shared,contact lens case,10.0,competing,single,t_s_13_1.jpg,Travel,,,sub-06
Desktop or Laptop,Windows 10,Chrome 137.0.0.0,1920x1080,1920x1080,Temporal Distance Task,cb_10,35.0,temp_dist_trial,num_items,zn7si1,1.0,response,1_ITEM,1138.1000000000058,1133.3999999999942,1138.1000000000058,1138.1000000000058,1133.3999999999942,1138.1000000000058,1.0,0.0,0.0,,Click Response,1_count,3.0,object-46,temp_dist_trial,35.0,t_s_08_1,travel_shared,hand lotion,10.0,competing,paired,t_s_08_1.jpg,Travel,,,sub-06
Desktop or Laptop,Windows 10,Chrome 137.0.0.0,1920x1080,1920x1080,Temporal Distance Task,cb_10,36.0,temp_dist_trial,num_items,zn7si1,1.0,response,2_ITEM,1576.5999999955234,1566.6999999999825,1576.5999999955234,1576.5999999955234,1566.6999999999825,1576.5999999955234,1.0,0.0,0.0,,Click Response,2_count,5.0,object-49,temp_dist_trial,36.0,t_s_07_1,travel_shared,phone charger cable,10.0,competing,paired,t_s_07_1.jpg,Travel,,,sub-06
Desktop or Laptop,Windows 10,Chrome 137.0.0.0,1920x1080,1920x1080,Temporal Distance Task,cb_10,36.0,temp_dist_trial,dist_items,qkpkxw,2.0,info,,3.2999999955354724,0.0,3.2999999955354724,3.2999999955354724,0.0,3.2999999955354724,1.0,0.0,0.0,,Slider,Slider,4.0,object-56,temp_dist_trial,36.0,t_s_07_1,travel_shared,phone charger cable,10.0,competing,paired,t_s_07_1.jpg,Travel,,,sub-06
Desktop or Laptop,Windows 10,Chrome 137.0.0.0,1920x1080,1920x1080,Temporal Distance Task,cb_10,36.0,temp_dist_trial,dist_items,qkpkxw,2.0,continue,,2922.1000000000067,2916.6000000000067,2922.1000000000067,2922.1000000000067,2916.6000000000067,2922.1000000000067,1.0,0.0,0.0,,Click To Continue,Next button,7.0,object-60,temp_dist_trial,36.0,t_s_07_1,travel_shared,phone charger cable,10.0,competing,paired,t_s_07_1.jpg,Travel,,,sub-06
Desktop or Laptop,Windows 10,Chrome 137.0.0.0,1920x1080,1920x1080,Temporal Distance Task,cb_10,36.0,temp_dist_trial,dist_items,qkpkxw,2.0,response,14,1133.2000000000114,2916.6000000000067,2922.499999998516,1133.2000000000114,2916.6000000000067,2922.499999998516,1.0,1789.299999998504,0.0,,Slider,Slider,4.0,object-56,temp_dist_trial,36.0,t_s_07_1,travel_shared,phone charger cable,10.0,competing,paired,t_s_07_1.jpg,Travel,,,sub-06
Desktop or Laptop,Windows 10,Chrome 137.0.0.0,1920x1080,1920x1080,Temporal Distance Task,cb_10,37.0,temp_dist_trial,num_items,zn7si1,1.0,response,1_ITEM,1559.5,1550.0,1559.5,1559.5,1550.0,1559.5,1.0,0.0,0.0,,Click Response,1_count,3.0,object-46,temp_dist_trial,37.0,t_m_06_1,travel_Miami,handheld fan,10.0,unique,paired,t_m_06_1.jpg,Travel,,,sub-06
Desktop or Laptop,Windows 10,Chrome 137.0.0.0,1920x1080,1920x1080,Temporal Distance Task,cb_10,38.0,temp_dist_trial,num_items,zn7si1,1.0,response,2_ITEM,1232.2000000000114,1216.7000000000114,1232.2000000000114,1232.2000000000114,1216.7000000000114,1232.2000000000114,1.0,0.0,0.0,,Click Response,2_count,5.0,object-49,temp_dist_trial,38.0,t_s_18_1,travel_shared,first aid kit,10.0,competing,paired,t_s_18_1.jpg,Travel,,,sub-06
Desktop or Laptop,Windows 10,Chrome 137.0.0.0,1920x1080,1920x1080,Temporal Distance Task,cb_10,38.0,temp_dist_trial,dist_items,qkpkxw,2.0,info,,3.7999999955354715,0.0,3.7999999955354715,3.7999999955354715,0.0,3.7999999955354715,1.0,0.0,0.0,,Slider,Slider,4.0,object-56,temp_dist_trial,38.0,t_s_18_1,travel_shared,first aid kit,10.0,competing,paired,t_s_18_1.jpg,Travel,,,sub-06
Desktop or Laptop,Windows 10,Chrome 137.0.0.0,1920x1080,1920x1080,Temporal Distance Task,cb_10,38.0,temp_dist_trial,dist_items,qkpkxw,2.0,continue,,2607.1000000000063,2600.0,2607.1000000000063,2607.1000000000063,2600.0,2607.1000000000063,1.0,0.0,0.0,,Click To Continue,Next button,7.0,object-60,temp_dist_trial,38.0,t_s_18_1,travel_shared,first aid kit,10.0,competing,paired,t_s_18_1.jpg,Travel,,,sub-06
Desktop or Laptop,Windows 10,Chrome 137.0.0.0,1920x1080,1920x1080,Temporal Distance Task,cb_10,38.0,temp_dist_trial,dist_items,qkpkxw,2.0,response,79,1050.0,2600.0,2607.2999999955355,1050.0,2600.0,2607.2999999955355,1.0,1557.2999999955355,0.0,,Slider,Slider,4.0,object-56,temp_dist_trial,38.0,t_s_18_1,travel_shared,first aid kit,10.0,competing,paired,t_s_18_1.jpg,Travel,,,sub-06
Desktop or Laptop,Windows 10,Chrome 137.0.0.0,1920x1080,1920x1080,Temporal Distance Task,cb_10,39.0,temp_dist_trial,num_items,zn7si1,1.0,response,1_ITEM,1107.7999999955355,1100.0,1107.7999999955355,1107.7999999955355,1100.0,1107.7999999955355,1.0,0.0,0.0,,Click Response,1_count,3.0,object-46,temp_dist_trial,39.0,t_s_09_1,travel_shared,wallet,10.0,competing,paired,t_s_09_1.jpg,Travel,,,sub-06
Desktop or Laptop,Windows 10,Chrome 137.0.0.0,1920x1080,1920x1080,Temporal Distance Task,cb_10,40.0,temp_dist_trial,num_items,zn7si1,1.0,response,1_ITEM,2250.1999999999825,2233.3999999999937,2250.1999999999825,2250.1999999999825,2233.3999999999937,2250.1999999999825,1.0,0.0,0.0,,Click Response,1_count,3.0,object-46,temp_dist_trial,40.0,t_s_03_1,travel_shared,portable charger,10.0,competing,paired,t_s_03_1.jpg,Travel,,,sub-06
Desktop or Laptop,Windows 10,Chrome 137.0.0.0,1920x1080,1920x1080,Temporal Distance Task,cb_10,41.0,temp_dist_trial,num_items,zn7si1,1.0,response,1_ITEM,1531.1999999984982,1516.5999999999767,1531.1999999984982,1531.1999999984982,1516.5999999999767,1531.1999999984982,1.0,0.0,0.0,,Click Response,1_count,3.0,object-46,temp_dist_trial,41.0,t_s_23_1,travel_shared,ball cap,10.0,competing,single,t_s_23_1.jpg,Travel,,,sub-06
Desktop or Laptop,Windows 10,Chrome 137.0.0.0,1920x1080,1920x1080,Temporal Distance Task,cb_10,42.0,temp_dist_trial,num_items,zn7si1,1.0,response,1_ITEM,1675.5999999985215,1666.7000000000116,1675.5999999985215,1675.5999999985215,1666.7000000000116,1675.5999999985215,1.0,0.0,0.0,,Click Response,1_count,3.0,object-46,temp_dist_trial,42.0,t_m_03_1,travel_Miami,wetsuit,10.0,unique,paired,t_m_03_1.jpg,Travel,,,sub-06
Desktop or Laptop,Windows 10,Chrome 137.0.0.0,1920x1080,1920x1080,Temporal Distance Task,cb_10,43.0,temp_dist_trial,num_items,zn7si1,1.0,response,1_ITEM,1355.0999999940395,1349.8999999999942,1355.0999999940395,1355.0999999940395,1349.8999999999942,1355.0999999940395,1.0,0.0,0.0,,Click Response,1_count,3.0,object-46,temp_dist_trial,43.0,t_s_15_1,travel_shared,luggage tag,10.0,competing,single,t_s_15_1.jpg,Travel,,,sub-06
Desktop or Laptop,Windows 10,Chrome 137.0.0.0,1920x1080,1920x1080,Temporal Distance Task,cb_10,44.0,temp_dist_trial,num_items,zn7si1,1.0,response,1_ITEM,1057.3999999985099,1049.8999999999942,1057.3999999985099,1057.3999999985099,1049.8999999999942,1057.3999999985099,1.0,0.0,0.0,,Click Response,1_count,3.0,object-46,temp_dist_trial,44.0,t_m_09_1,travel_Miami,beach towel,10.0,unique,single,t_m_09_1.jpg,Travel,,,sub-06
Desktop or Laptop,Windows 10,Chrome 137.0.0.0,1920x1080,1920x1080,Temporal Distance Task,cb_10,45.0,temp_dist_trial,num_items,zn7si1,1.0,response,1_ITEM,1352.8999999970254,1349.8999999999942,1352.8999999970254,1352.8999999970254,1349.8999999999942,1352.8999999970254,1.0,0.0,0.0,,Click Response,1_count,3.0,object-46,temp_dist_trial,45.0,t_i_11_1,travel_Iceland,headlamp,10.0,unique,single,t_i_11_1.jpg,Travel,,,sub-06
Desktop or Laptop,Windows 10,Chrome 137.0.0.0,1920x1080,1920x1080,Temporal Distance Task,cb_10,46.0,temp_dist_trial,num_items,zn7si1,1.0,response,2_ITEM,1123.6999999940454,1116.6000000000058,1123.6999999940454,1123.6999999940454,1116.6000000000058,1123.6999999940454,1.0,0.0,0.0,,Click Response,2_count,5.0,object-49,temp_dist_trial,46.0,t_m_16_1,travel_Miami,flippers,10.0,unique,paired,t_m_16_1.jpg,Travel,,,sub-06
Desktop or Laptop,Windows 10,Chrome 137.0.0.0,1920x1080,1920x1080,Temporal Distance Task,cb_10,46.0,temp_dist_trial,dist_items,qkpkxw,2.0,info,,2.6999999970139466,0.0,2.6999999970139466,2.6999999970139466,0.0,2.6999999970139466,1.0,0.0,0.0,,Slider,Slider,4.0,object-56,temp_dist_trial,46.0,t_m_16_1,travel_Miami,flippers,10.0,unique,paired,t_m_16_1.jpg,Travel,,,sub-06
Desktop or Laptop,Windows 10,Chrome 137.0.0.0,1920x1080,1920x1080,Temporal Distance Task,cb_10,46.0,temp_dist_trial,dist_items,qkpkxw,2.0,continue,,2604.699999997014,2599.8999999999937,2604.699999997014,2604.699999997014,2599.8999999999937,2604.699999997014,1.0,0.0,0.0,,Click To Continue,Next button,7.0,object-60,temp_dist_trial,46.0,t_m_16_1,travel_Miami,flippers,10.0,unique,paired,t_m_16_1.jpg,Travel,,,sub-06
Desktop or Laptop,Windows 10,Chrome 137.0.0.0,1920x1080,1920x1080,Temporal Distance Task,cb_10,46.0,temp_dist_trial,dist_items,qkpkxw,2.0,response,18,1049.8999999999942,2599.8999999999937,2604.9999999940337,1049.8999999999942,2599.8999999999937,2604.9999999940337,1.0,1555.0999999940395,0.0,,Slider,Slider,4.0,object-56,temp_dist_trial,46.0,t_m_16_1,travel_Miami,flippers,10.0,unique,paired,t_m_16_1.jpg,Travel,,,sub-06
Desktop or Laptop,Windows 10,Chrome 137.0.0.0,1920x1080,1920x1080,Temporal Distance Task,cb_10,47.0,temp_dist_trial,num_items,zn7si1,1.0,response,1_ITEM,2059.3999999985103,2049.8999999999937,2059.3999999985103,2059.3999999985103,2049.8999999999937,2059.3999999985103,1.0,0.0,0.0,,Click Response,1_count,3.0,object-46,temp_dist_trial,47.0,t_i_01_1,travel_Iceland,gloves,10.0,unique,single,t_i_01_1.jpg,Travel,,,sub-06
Desktop or Laptop,Windows 10,Chrome 137.0.0.0,1920x1080,1920x1080,Temporal Distance Task,cb_10,48.0,temp_dist_trial,num_items,zn7si1,1.0,response,2_ITEM,1508.8999999970254,1500.0,1508.8999999970254,1508.8999999970254,1500.0,1508.8999999970254,1.0,0.0,0.0,,Click Response,2_count,5.0,object-49,temp_dist_trial,48.0,t_m_07_1,travel_Miami,sunglasses,10.0,unique,paired,t_m_07_1.jpg,Travel,,,sub-06
Desktop or Laptop,Windows 10,Chrome 137.0.0.0,1920x1080,1920x1080,Temporal Distance Task,cb_10,48.0,temp_dist_trial,dist_items,qkpkxw,2.0,info,,3.3999999970255885,0.0,3.3999999970255885,3.3999999970255885,0.0,3.3999999970255885,1.0,0.0,0.0,,Slider,Slider,4.0,object-56,temp_dist_trial,48.0,t_m_07_1,travel_Miami,sunglasses,10.0,unique,paired,t_m_07_1.jpg,Travel,,,sub-06
Desktop or Laptop,Windows 10,Chrome 137.0.0.0,1920x1080,1920x1080,Temporal Distance Task,cb_10,48.0,temp_dist_trial,dist_items,qkpkxw,2.0,continue,,2269.199999994045,2266.6000000000063,2269.199999994045,2269.199999994045,2266.6000000000063,2269.199999994045,1.0,0.0,0.0,,Click To Continue,Next button,7.0,object-60,temp_dist_trial,48.0,t_m_07_1,travel_Miami,sunglasses,10.0,unique,paired,t_m_07_1.jpg,Travel,,,sub-06
Desktop or Laptop,Windows 10,Chrome 137.0.0.0,1920x1080,1920x1080,Temporal Distance Task,cb_10,48.0,temp_dist_trial,dist_items,qkpkxw,2.0,response,67,1133.2000000000114,2266.6000000000063,2269.3999999970256,1133.2000000000114,2266.6000000000063,2269.3999999970256,1.0,1136.199999997014,0.0,,Slider,Slider,4.0,object-56,temp_dist_trial,48.0,t_m_07_1,travel_Miami,sunglasses,10.0,unique,paired,t_m_07_1.jpg,Travel,,,sub-06
Desktop or Laptop,Windows 10,Chrome 137.0.0.0,1920x1080,1920x1080,Temporal Distance Task,cb_10,2.0,temp_eventStart,Screen 1,dgtyxe,1.0,continue,,2685.0999999940395,2683.200000000012,2685.0999999940395,2685.0999999940395,2683.200000000012,2685.0999999940395,1.0,0.0,0.0,,Click To Continue,Next Button,3.0,object-43,temp_eventStart,,,Student,,,,,,,,,sub-06
Desktop or Laptop,Windows 10,Chrome 137.0.0.0,1920x1080,1920x1080,Temporal Distance Task,cb_10,49.0,temp_dist_trial,num_items,zn7si1,1.0,response,1_ITEM,1900.9999999955176,1900.0,1900.9999999955176,1900.9999999955176,1900.0,1900.9999999955176,1.0,0.0,0.0,,Click Response,1_count,3.0,object-46,temp_dist_trial,1.0,s_sh_14_1,student_shared,printer,10.0,competing,paired,s_sh_14_1.jpg,Student,,,sub-06
Desktop or Laptop,Windows 10,Chrome 137.0.0.0,1920x1080,1920x1080,Temporal Distance Task,cb_10,50.0,temp_dist_trial,num_items,zn7si1,1.0,response,2_ITEM,1515.199999997014,1500.1000000000058,1515.199999997014,1515.199999997014,1500.1000000000058,1515.199999997014,1.0,0.0,0.0,,Click Response,2_count,5.0,object-49,temp_dist_trial,2.0,s_sh_13_1,student_shared,index cards,10.0,competing,paired,s_sh_13_1.jpg,Student,,,sub-06
Desktop or Laptop,Windows 10,Chrome 137.0.0.0,1920x1080,1920x1080,Temporal Distance Task,cb_10,50.0,temp_dist_trial,dist_items,qkpkxw,2.0,info,,2.9999999970314093,0.0,2.9999999970314093,2.9999999970314093,0.0,2.9999999970314093,1.0,0.0,0.0,,Slider,Slider,4.0,object-56,temp_dist_trial,2.0,s_sh_13_1,student_shared,index cards,10.0,competing,paired,s_sh_13_1.jpg,Student,,,sub-06
Desktop or Laptop,Windows 10,Chrome 137.0.0.0,1920x1080,1920x1080,Temporal Distance Task,cb_10,50.0,temp_dist_trial,dist_items,qkpkxw,2.0,continue,,2285.4999999970314,2283.200000000012,2285.4999999970314,2285.4999999970314,2283.200000000012,2285.4999999970314,1.0,0.0,0.0,,Click To Continue,Next button,7.0,object-60,temp_dist_trial,2.0,s_sh_13_1,student_shared,index cards,10.0,competing,paired,s_sh_13_1.jpg,Student,,,sub-06
Desktop or Laptop,Windows 10,Chrome 137.0.0.0,1920x1080,1920x1080,Temporal Distance Task,cb_10,50.0,temp_dist_trial,dist_items,qkpkxw,2.0,response,85,1116.5,2283.200000000012,2285.7999999940507,1116.5,2283.200000000012,2285.7999999940507,1.0,1169.2999999940512,0.0,,Slider,Slider,4.0,object-56,temp_dist_trial,2.0,s_sh_13_1,student_shared,index cards,10.0,competing,paired,s_sh_13_1.jpg,Student,,,sub-06
Desktop or Laptop,Windows 10,Chrome 137.0.0.0,1920x1080,1920x1080,Temporal Distance Task,cb_10,51.0,temp_dist_trial,num_items,zn7si1,1.0,response,1_ITEM,2293.5,2283.200000000012,2293.5,2293.5,2283.200000000012,2293.5,1.0,0.0,0.0,,Click Response,1_count,3.0,object-46,temp_dist_trial,3.0,s_sh_01_1,student_shared,notebook,10.0,competing,single,s_sh_01_1.jpg,Student,,,sub-06
Desktop or Laptop,Windows 10,Chrome 137.0.0.0,1920x1080,1920x1080,Temporal Distance Task,cb_10,52.0,temp_dist_trial,num_items,zn7si1,1.0,response,2_ITEM,1308.0999999970081,1300.0,1308.0999999970081,1308.0999999970081,1300.0,1308.0999999970081,1.0,0.0,0.0,,Click Response,2_count,5.0,object-49,temp_dist_trial,4.0,s_s_15_1,student_stem,jumper cables,10.0,unique,paired,s_s_15_1.jpg,Student,,,sub-06
Desktop or Laptop,Windows 10,Chrome 137.0.0.0,1920x1080,1920x1080,Temporal Distance Task,cb_10,52.0,temp_dist_trial,dist_items,qkpkxw,2.0,info,,2.799999994051177,0.0,2.799999994051177,2.799999994051177,0.0,2.799999994051177,1.0,0.0,0.0,,Slider,Slider,4.0,object-56,temp_dist_trial,4.0,s_s_15_1,student_stem,jumper cables,10.0,unique,paired,s_s_15_1.jpg,Student,,,sub-06
Desktop or Laptop,Windows 10,Chrome 137.0.0.0,1920x1080,1920x1080,Temporal Distance Task,cb_10,52.0,temp_dist_trial,dist_items,qkpkxw,2.0,continue,,1711.2000000000116,1699.9000000000233,1711.2000000000116,1711.2000000000116,1699.9000000000233,1711.2000000000116,1.0,0.0,0.0,,Click To Continue,Next button,7.0,object-60,temp_dist_trial,4.0,s_s_15_1,student_stem,jumper cables,10.0,unique,paired,s_s_15_1.jpg,Student,,,sub-06
Desktop or Laptop,Windows 10,Chrome 137.0.0.0,1920x1080,1920x1080,Temporal Distance Task,cb_10,52.0,temp_dist_trial,dist_items,qkpkxw,2.0,response,24,833.2000000000116,1699.9000000000233,1711.4999999970316,833.2000000000116,1699.9000000000233,1711.4999999970316,1.0,878.2999999970198,0.0,,Slider,Slider,4.0,object-56,temp_dist_trial,4.0,s_s_15_1,student_stem,jumper cables,10.0,unique,paired,s_s_15_1.jpg,Student,,,sub-06
Desktop or Laptop,Windows 10,Chrome 137.0.0.0,1920x1080,1920x1080,Temporal Distance Task,cb_10,53.0,temp_dist_trial,num_items,zn7si1,1.0,response,1_ITEM,1442.5999999970081,1433.2999999999884,1442.5999999970081,1442.5999999970081,1433.2999999999884,1442.5999999970081,1.0,0.0,0.0,,Click Response,1_count,3.0,object-46,temp_dist_trial,5.0,s_s_08_1,student_stem,soldering iron,10.0,unique,paired,s_s_08_1.jpg,Student,,,sub-06
Desktop or Laptop,Windows 10,Chrome 137.0.0.0,1920x1080,1920x1080,Temporal Distance Task,cb_10,54.0,temp_dist_trial,num_items,zn7si1,1.0,response,2_ITEM,1243.8999999985099,1233.2999999999886,1243.8999999985099,1243.8999999985099,1233.2999999999886,1243.8999999985099,1.0,0.0,0.0,,Click Response,2_count,5.0,object-49,temp_dist_trial,6.0,s_s_09_1,student_stem,multimeter,10.0,unique,paired,s_s_09_1.jpg,Student,,,sub-06
Desktop or Laptop,Windows 10,Chrome 137.0.0.0,1920x1080,1920x1080,Temporal Distance Task,cb_10,54.0,temp_dist_trial,dist_items,qkpkxw,2.0,info,,3.399999995541293,0.0,3.399999995541293,3.399999995541293,0.0,3.399999995541293,1.0,0.0,0.0,,Slider,Slider,4.0,object-56,temp_dist_trial,6.0,s_s_09_1,student_stem,multimeter,10.0,unique,paired,s_s_09_1.jpg,Student,,,sub-06
Desktop or Laptop,Windows 10,Chrome 137.0.0.0,1920x1080,1920x1080,Temporal Distance Task,cb_10,54.0,temp_dist_trial,dist_items,qkpkxw,2.0,continue,,2994.2999999940507,2983.200000000012,2994.2999999940507,2994.2999999940507,2983.200000000012,2994.2999999940507,1.0,0.0,0.0,,Click To Continue,Next button,7.0,object-60,temp_dist_trial,6.0,s_s_09_1,student_stem,multimeter,10.0,unique,paired,s_s_09_1.jpg,Student,,,sub-06
Desktop or Laptop,Windows 10,Chrome 137.0.0.0,1920x1080,1920x1080,Temporal Distance Task,cb_10,54.0,temp_dist_trial,dist_items,qkpkxw,2.0,response,13,949.9000000000232,2983.200000000012,2994.4999999970314,949.9000000000232,2983.200000000012,2994.4999999970314,1.0,2044.5999999970081,0.0,,Slider,Slider,4.0,object-56,temp_dist_trial,6.0,s_s_09_1,student_stem,multimeter,10.0,unique,paired,s_s_09_1.jpg,Student,,,sub-06
Desktop or Laptop,Windows 10,Chrome 137.0.0.0,1920x1080,1920x1080,Temporal Distance Task,cb_10,55.0,temp_dist_trial,num_items,zn7si1,1.0,response,1_ITEM,1658.1999999955294,1650.0,1658.1999999955294,1658.1999999955294,1650.0,1658.1999999955294,1.0,0.0,0.0,,Click Response,1_count,3.0,object-46,temp_dist_trial,7.0,s_sh_04_1,student_shared,laptop stand,10.0,competing,single,s_sh_04_1.jpg,Student,,,sub-06
Desktop or Laptop,Windows 10,Chrome 137.0.0.0,1920x1080,1920x1080,Temporal Distance Task,cb_10,56.0,temp_dist_trial,num_items,zn7si1,1.0,response,2_ITEM,1219.1999999955294,1216.6000000000058,1219.1999999955294,1219.1999999955294,1216.6000000000058,1219.1999999955294,1.0,0.0,0.0,,Click Response,2_count,5.0,object-49,temp_dist_trial,8.0,s_sh_06_1,student_shared,clipboard,10.0,competing,paired,s_sh_06_1.jpg,Student,,,sub-06
Desktop or Laptop,Windows 10,Chrome 137.0.0.0,1920x1080,1920x1080,Temporal Distance Task,cb_10,56.0,temp_dist_trial,dist_items,qkpkxw,2.0,info,,2.9999999955180097,0.0,2.9999999955180097,2.9999999955180097,0.0,2.9999999955180097,1.0,0.0,0.0,,Slider,Slider,4.0,object-56,temp_dist_trial,8.0,s_sh_06_1,student_shared,clipboard,10.0,competing,paired,s_sh_06_1.jpg,Student,,,sub-06
Desktop or Laptop,Windows 10,Chrome 137.0.0.0,1920x1080,1920x1080,Temporal Distance Task,cb_10,56.0,temp_dist_trial,dist_items,qkpkxw,2.0,continue,,2290.399999994028,2283.1999999999825,2290.399999994028,2290.399999994028,2283.1999999999825,2290.399999994028,1.0,0.0,0.0,,Click To Continue,Next button,7.0,object-60,temp_dist_trial,8.0,s_sh_06_1,student_shared,clipboard,10.0,competing,paired,s_sh_06_1.jpg,Student,,,sub-06
Desktop or Laptop,Windows 10,Chrome 137.0.0.0,1920x1080,1920x1080,Temporal Distance Task,cb_10,56.0,temp_dist_trial,dist_items,qkpkxw,2.0,response,73,1449.8999999999942,2283.1999999999825,2290.599999997008,1449.8999999999942,2283.1999999999825,2290.599999997008,1.0,840.6999999970142,0.0,,Slider,Slider,4.0,object-56,temp_dist_trial,8.0,s_sh_06_1,student_shared,clipboard,10.0,competing,paired,s_sh_06_1.jpg,Student,,,sub-06
Desktop or Laptop,Windows 10,Chrome 137.0.0.0,1920x1080,1920x1080,Temporal Distance Task,cb_10,57.0,temp_dist_trial,num_items,zn7si1,1.0,response,1_ITEM,2536.6000000000063,2533.200000000012,2536.6000000000063,2536.6000000000063,2533.200000000012,2536.6000000000063,1.0,0.0,0.0,,Click Response,1_count,3.0,object-46,temp_dist_trial,9.0,s_sh_07_1,student_shared,ruler,10.0,competing,paired,s_sh_07_1.jpg,Student,,,sub-06
Desktop or Laptop,Windows 10,Chrome 137.0.0.0,1920x1080,1920x1080,Temporal Distance Task,cb_10,58.0,temp_dist_trial,num_items,zn7si1,1.0,response,2_ITEM,1163.8999999940281,1150.0,1163.8999999940281,1163.8999999940281,1150.0,1163.8999999940281,1.0,0.0,0.0,,Click Response,2_count,5.0,object-49,temp_dist_trial,10.0,s_a_12_1,student_art,saxophone,10.0,unique,paired,s_a_12_1.jpg,Student,,,sub-06
Desktop or Laptop,Windows 10,Chrome 137.0.0.0,1920x1080,1920x1080,Temporal Distance Task,cb_10,58.0,temp_dist_trial,dist_items,qkpkxw,2.0,info,,3.6999999984982415,0.0,3.6999999984982415,3.6999999984982415,0.0,3.6999999984982415,1.0,0.0,0.0,,Slider,Slider,4.0,object-56,temp_dist_trial,10.0,s_a_12_1,student_art,saxophone,10.0,unique,paired,s_a_12_1.jpg,Student,,,sub-06
Desktop or Laptop,Windows 10,Chrome 137.0.0.0,1920x1080,1920x1080,Temporal Distance Task,cb_10,58.0,temp_dist_trial,dist_items,qkpkxw,2.0,continue,,3228.499999995518,3216.5999999999767,3228.499999995518,3228.499999995518,3216.5999999999767,3228.499999995518,1.0,0.0,0.0,,Click To Continue,Next button,7.0,object-60,temp_dist_trial,10.0,s_a_12_1,student_art,saxophone,10.0,unique,paired,s_a_12_1.jpg,Student,,,sub-06
Desktop or Laptop,Windows 10,Chrome 137.0.0.0,1920x1080,1920x1080,Temporal Distance Task,cb_10,58.0,temp_dist_trial,dist_items,qkpkxw,2.0,response,87,1983.2999999999884,3216.5999999999767,3228.7999999999884,1983.2999999999884,3216.5999999999767,3228.7999999999884,1.0,1245.5,0.0,,Slider,Slider,4.0,object-56,temp_dist_trial,10.0,s_a_12_1,student_art,saxophone,10.0,unique,paired,s_a_12_1.jpg,Student,,,sub-06
Desktop or Laptop,Windows 10,Chrome 137.0.0.0,1920x1080,1920x1080,Temporal Distance Task,cb_10,59.0,temp_dist_trial,num_items,zn7si1,1.0,response,1_ITEM,1772.9999999970316,1766.6000000000058,1772.9999999970316,1772.9999999970316,1766.6000000000058,1772.9999999970316,1.0,0.0,0.0,,Click Response,1_count,3.0,object-46,temp_dist_trial,11.0,s_sh_05_1,student_shared,laptop,10.0,competing,paired,s_sh_05_1.jpg,Student,,,sub-06
Desktop or Laptop,Windows 10,Chrome 137.0.0.0,1920x1080,1920x1080,Temporal Distance Task,cb_10,60.0,temp_dist_trial,num_items,zn7si1,1.0,response,2_ITEM,824.1000000000058,816.6000000000058,824.1000000000058,824.1000000000058,816.6000000000058,824.1000000000058,1.0,0.0,0.0,,Click Response,2_count,5.0,object-49,temp_dist_trial,12.0,s_a_18_1,student_art,tutu,10.0,unique,paired,s_a_18_1.jpg,Student,,,sub-06
Desktop or Laptop,Windows 10,Chrome 137.0.0.0,1920x1080,1920x1080,Temporal Distance Task,cb_10,60.0,temp_dist_trial,dist_items,qkpkxw,2.0,info,,3.6999999955296516,0.0,3.6999999955296516,3.6999999955296516,0.0,3.6999999955296516,1.0,0.0,0.0,,Slider,Slider,4.0,object-56,temp_dist_trial,12.0,s_a_18_1,student_art,tutu,10.0,unique,paired,s_a_18_1.jpg,Student,,,sub-06
Desktop or Laptop,Windows 10,Chrome 137.0.0.0,1920x1080,1920x1080,Temporal Distance Task,cb_10,60.0,temp_dist_trial,dist_items,qkpkxw,2.0,continue,,3819.59999999404,3816.6000000000067,3819.59999999404,3819.59999999404,3816.6000000000067,3819.59999999404,1.0,0.0,0.0,,Click To Continue,Next button,7.0,object-60,temp_dist_trial,12.0,s_a_18_1,student_art,tutu,10.0,unique,paired,s_a_18_1.jpg,Student,,,sub-06
Desktop or Laptop,Windows 10,Chrome 137.0.0.0,1920x1080,1920x1080,Temporal Distance Task,cb_10,60.0,temp_dist_trial,dist_items,qkpkxw,2.0,response,6,1050.1000000000058,3816.6000000000067,3822.0,1050.1000000000058,3816.6000000000067,3822.0,1.0,2771.8999999999933,0.0,,Slider,Slider,4.0,object-56,temp_dist_trial,12.0,s_a_18_1,student_art,tutu,10.0,unique,paired,s_a_18_1.jpg,Student,,,sub-06
Desktop or Laptop,Windows 10,Chrome 137.0.0.0,1920x1080,1920x1080,Temporal Distance Task,cb_10,61.0,temp_dist_trial,num_items,zn7si1,1.0,response,1_ITEM,1617.199999997014,1616.6999999999825,1617.199999997014,1617.199999997014,1616.6999999999825,1617.199999997014,1.0,0.0,0.0,,Click Response,1_count,3.0,object-46,temp_dist_trial,13.0,s_s_02_1,student_stem,flask,10.0,unique,paired,s_s_02_1.jpg,Student,,,sub-06
Desktop or Laptop,Windows 10,Chrome 137.0.0.0,1920x1080,1920x1080,Temporal Distance Task,cb_10,62.0,temp_dist_trial,num_items,zn7si1,1.0,response,2_ITEM,2243.2999999940507,2233.3000000000175,2243.2999999940507,2243.2999999940507,2233.3000000000175,2243.2999999940507,1.0,0.0,0.0,,Click Response,2_count,5.0,object-49,temp_dist_trial,14.0,s_sh_17_1,student_shared,wireless mouse,10.0,competing,single,s_sh_17_1.jpg,Student,,,sub-06
Desktop or Laptop,Windows 10,Chrome 137.0.0.0,1920x1080,1920x1080,Temporal Distance Task,cb_10,62.0,temp_dist_trial,dist_items,qkpkxw,2.0,info,,2.9999999940337148,0.0,2.9999999940337148,2.9999999940337148,0.0,2.9999999940337148,1.0,0.0,0.0,,Slider,Slider,4.0,object-56,temp_dist_trial,14.0,s_sh_17_1,student_shared,wireless mouse,10.0,competing,single,s_sh_17_1.jpg,Student,,,sub-06
Desktop or Laptop,Windows 10,Chrome 137.0.0.0,1920x1080,1920x1080,Temporal Distance Task,cb_10,62.0,temp_dist_trial,dist_items,qkpkxw,2.0,continue,,2636.599999995524,2633.1999999999825,2636.599999995524,2636.599999995524,2633.1999999999825,2636.599999995524,1.0,0.0,0.0,,Click To Continue,Next button,7.0,object-60,temp_dist_trial,14.0,s_sh_17_1,student_shared,wireless mouse,10.0,competing,single,s_sh_17_1.jpg,Student,,,sub-06
Desktop or Laptop,Windows 10,Chrome 137.0.0.0,1920x1080,1920x1080,Temporal Distance Task,cb_10,62.0,temp_dist_trial,dist_items,qkpkxw,2.0,response,51,1449.8999999999942,2633.1999999999825,2636.799999998504,1449.8999999999942,2633.1999999999825,2636.799999998504,1.0,1186.8999999985099,0.0,,Slider,Slider,4.0,object-56,temp_dist_trial,14.0,s_sh_17_1,student_shared,wireless mouse,10.0,competing,single,s_sh_17_1.jpg,Student,,,sub-06
Desktop or Laptop,Windows 10,Chrome 137.0.0.0,1920x1080,1920x1080,Temporal Distance Task,cb_10,63.0,temp_dist_trial,num_items,zn7si1,1.0,response,2_ITEM,2625.9999999970314,2616.700000000012,2625.9999999970314,2625.9999999970314,2616.700000000012,2625.9999999970314,1.0,0.0,0.0,,Click Response,2_count,5.0,object-49,temp_dist_trial,15.0,s_sh_24_1,student_shared,desk organizer,10.0,competing,paired,s_sh_24_1.jpg,Student,,,sub-06
Desktop or Laptop,Windows 10,Chrome 137.0.0.0,1920x1080,1920x1080,Temporal Distance Task,cb_10,63.0,temp_dist_trial,dist_items,qkpkxw,2.0,info,,6.999999998515705,0.0,6.999999998515705,6.999999998515705,0.0,6.999999998515705,1.0,0.0,0.0,,Slider,Slider,4.0,object-56,temp_dist_trial,15.0,s_sh_24_1,student_shared,desk organizer,10.0,competing,paired,s_sh_24_1.jpg,Student,,,sub-06
Desktop or Laptop,Windows 10,Chrome 137.0.0.0,1920x1080,1920x1080,Temporal Distance Task,cb_10,63.0,temp_dist_trial,dist_items,qkpkxw,2.0,continue,,2603.1000000000063,2600.0,2603.1000000000063,2603.1000000000063,2600.0,2603.1000000000063,1.0,0.0,0.0,,Click To Continue,Next button,7.0,object-60,temp_dist_trial,15.0,s_sh_24_1,student_shared,desk organizer,10.0,competing,paired,s_sh_24_1.jpg,Student,,,sub-06
Desktop or Laptop,Windows 10,Chrome 137.0.0.0,1920x1080,1920x1080,Temporal Distance Task,cb_10,63.0,temp_dist_trial,dist_items,qkpkxw,2.0,response,29,1383.3000000000175,2600.0,2606.1000000000063,1383.3000000000175,2600.0,2606.1000000000063,1.0,1222.7999999999886,0.0,,Slider,Slider,4.0,object-56,temp_dist_trial,15.0,s_sh_24_1,student_shared,desk organizer,10.0,competing,paired,s_sh_24_1.jpg,Student,,,sub-06
Desktop or Laptop,Windows 10,Chrome 137.0.0.0,1920x1080,1920x1080,Temporal Distance Task,cb_10,64.0,temp_dist_trial,num_items,zn7si1,1.0,response,2_ITEM,1215.2999999955355,1199.8999999999942,1215.2999999955355,1215.2999999955355,1199.8999999999942,1215.2999999955355,1.0,0.0,0.0,,Click Response,2_count,5.0,object-49,temp_dist_trial,16.0,s_s_19_1,student_stem,circuit board,10.0,unique,paired,s_s_19_1.jpg,Student,,,sub-06
Desktop or Laptop,Windows 10,Chrome 137.0.0.0,1920x1080,1920x1080,Temporal Distance Task,cb_10,64.0,temp_dist_trial,dist_items,qkpkxw,2.0,info,,2.7999999955354724,0.0,2.7999999955354724,2.7999999955354724,0.0,2.7999999955354724,1.0,0.0,0.0,,Slider,Slider,4.0,object-56,temp_dist_trial,16.0,s_s_19_1,student_stem,circuit board,10.0,unique,paired,s_s_19_1.jpg,Student,,,sub-06
Desktop or Laptop,Windows 10,Chrome 137.0.0.0,1920x1080,1920x1080,Temporal Distance Task,cb_10,64.0,temp_dist_trial,dist_items,qkpkxw,2.0,continue,,3950.6000000000067,3949.800000000018,3950.6000000000067,3950.6000000000067,3949.800000000018,3950.6000000000067,1.0,0.0,0.0,,Click To Continue,Next button,7.0,object-60,temp_dist_trial,16.0,s_s_19_1,student_stem,circuit board,10.0,unique,paired,s_s_19_1.jpg,Student,,,sub-06
Desktop or Laptop,Windows 10,Chrome 137.0.0.0,1920x1080,1920x1080,Temporal Distance Task,cb_10,64.0,temp_dist_trial,dist_items,qkpkxw,2.0,response,6,1066.6000000000058,3949.800000000018,3950.799999995536,1066.6000000000058,3949.800000000018,3950.799999995536,1.0,2884.1999999955297,0.0,,Slider,Slider,4.0,object-56,temp_dist_trial,16.0,s_s_19_1,student_stem,circuit board,10.0,unique,paired,s_s_19_1.jpg,Student,,,sub-06
Desktop or Laptop,Windows 10,Chrome 137.0.0.0,1920x1080,1920x1080,Temporal Distance Task,cb_10,65.0,temp_dist_trial,num_items,zn7si1,1.0,response,2_ITEM,1028.999999995518,1016.6999999999823,1028.999999995518,1028.999999995518,1016.6999999999823,1028.999999995518,1.0,0.0,0.0,,Click Response,2_count,5.0,object-49,temp_dist_trial,17.0,s_sh_02_1,student_shared,eraser,10.0,competing,paired,s_sh_02_1.jpg,Student,,,sub-06
Desktop or Laptop,Windows 10,Chrome 137.0.0.0,1920x1080,1920x1080,Temporal Distance Task,cb_10,65.0,temp_dist_trial,dist_items,qkpkxw,2.0,info,,3.1999999940453563,0.0,3.1999999940453563,3.1999999940453563,0.0,3.1999999940453563,1.0,0.0,0.0,,Slider,Slider,4.0,object-56,temp_dist_trial,17.0,s_sh_02_1,student_shared,eraser,10.0,competing,paired,s_sh_02_1.jpg,Student,,,sub-06
Desktop or Laptop,Windows 10,Chrome 137.0.0.0,1920x1080,1920x1080,Temporal Distance Task,cb_10,65.0,temp_dist_trial,dist_items,qkpkxw,2.0,continue,,2021.2999999955355,2016.6000000000056,2021.2999999955355,2021.2999999955355,2016.6000000000056,2021.2999999955355,1.0,0.0,0.0,,Click To Continue,Next button,7.0,object-60,temp_dist_trial,17.0,s_sh_02_1,student_shared,eraser,10.0,competing,paired,s_sh_02_1.jpg,Student,,,sub-06
Desktop or Laptop,Windows 10,Chrome 137.0.0.0,1920x1080,1920x1080,Temporal Distance Task,cb_10,65.0,temp_dist_trial,dist_items,qkpkxw,2.0,response,63,616.7000000000116,2016.6000000000056,2021.699999994045,616.7000000000116,2016.6000000000056,2021.699999994045,1.0,1404.9999999940335,0.0,,Slider,Slider,4.0,object-56,temp_dist_trial,17.0,s_sh_02_1,student_shared,eraser,10.0,competing,paired,s_sh_02_1.jpg,Student,,,sub-06
Desktop or Laptop,Windows 10,Chrome 137.0.0.0,1920x1080,1920x1080,Temporal Distance Task,cb_10,66.0,temp_dist_trial,num_items,zn7si1,1.0,response,num_miss,3000.0,3000.0,3000.0,3000.0,3000.0,3000.0,1.0,0.0,0.0,num_miss_tag,Time Limit,screen,0.0,screen,temp_dist_trial,18.0,s_sh_03_1,student_shared,highlighter,10.0,competing,paired,s_sh_03_1.jpg,Student,,,sub-06
Desktop or Laptop,Windows 10,Chrome 137.0.0.0,1920x1080,1920x1080,Temporal Distance Task,cb_10,67.0,temp_dist_trial,num_items,zn7si1,1.0,response,2_ITEM,2075.9999999970314,2066.6000000000063,2075.9999999970314,2075.9999999970314,2066.6000000000063,2075.9999999970314,1.0,0.0,0.0,,Click Response,2_count,5.0,object-49,temp_dist_trial,19.0,s_a_07_1,student_art,yarn,10.0,unique,single,s_a_07_1.jpg,Student,,,sub-06
Desktop or Laptop,Windows 10,Chrome 137.0.0.0,1920x1080,1920x1080,Temporal Distance Task,cb_10,67.0,temp_dist_trial,dist_items,qkpkxw,2.0,info,,4.499999998515705,0.0,4.499999998515705,4.499999998515705,0.0,4.499999998515705,1.0,0.0,0.0,,Slider,Slider,4.0,object-56,temp_dist_trial,19.0,s_a_07_1,student_art,yarn,10.0,unique,single,s_a_07_1.jpg,Student,,,sub-06
Desktop or Laptop,Windows 10,Chrome 137.0.0.0,1920x1080,1920x1080,Temporal Distance Task,cb_10,67.0,temp_dist_trial,dist_items,qkpkxw,2.0,continue,,2663.3999999970256,2650.0,2663.3999999970256,2663.3999999970256,2650.0,2663.3999999970256,1.0,0.0,0.0,,Click To Continue,Next button,7.0,object-60,temp_dist_trial,19.0,s_a_07_1,student_art,yarn,10.0,unique,single,s_a_07_1.jpg,Student,,,sub-06
Desktop or Laptop,Windows 10,Chrome 137.0.0.0,1920x1080,1920x1080,Temporal Distance Task,cb_10,67.0,temp_dist_trial,dist_items,qkpkxw,2.0,response,27,1266.6000000000058,2650.0,2663.699999994045,1266.6000000000058,2650.0,2663.699999994045,1.0,1397.0999999940395,0.0,,Slider,Slider,4.0,object-56,temp_dist_trial,19.0,s_a_07_1,student_art,yarn,10.0,unique,single,s_a_07_1.jpg,Student,,,sub-06
Desktop or Laptop,Windows 10,Chrome 137.0.0.0,1920x1080,1920x1080,Temporal Distance Task,cb_10,68.0,temp_dist_trial,num_items,zn7si1,1.0,response,1_ITEM,1336.1000000000058,1333.3000000000175,1336.1000000000058,1336.1000000000058,1333.3000000000175,1336.1000000000058,1.0,0.0,0.0,,Click Response,1_count,3.0,object-46,temp_dist_trial,20.0,s_sh_15_1,student_shared,usb drive,10.0,competing,paired,s_sh_15_1.jpg,Student,,,sub-06
Desktop or Laptop,Windows 10,Chrome 137.0.0.0,1920x1080,1920x1080,Temporal Distance Task,cb_10,69.0,temp_dist_trial,num_items,zn7si1,1.0,response,1_ITEM,1283.0999999955236,1266.6999999999825,1283.0999999955236,1283.0999999955236,1266.6999999999825,1283.0999999955236,1.0,0.0,0.0,,Click Response,1_count,3.0,object-46,temp_dist_trial,21.0,s_sh_09_1,student_shared,paper clips,10.0,competing,single,s_sh_09_1.jpg,Student,,,sub-06
Desktop or Laptop,Windows 10,Chrome 137.0.0.0,1920x1080,1920x1080,Temporal Distance Task,cb_10,70.0,temp_dist_trial,num_items,zn7si1,1.0,response,2_ITEM,1158.3999999955413,1150.0,1158.3999999955413,1158.3999999955413,1150.0,1158.3999999955413,1.0,0.0,0.0,,Click Response,2_count,5.0,object-49,temp_dist_trial,22.0,s_s_01_1,student_stem,microscope,10.0,unique,paired,s_s_01_1.jpg,Student,,,sub-06
Desktop or Laptop,Windows 10,Chrome 137.0.0.0,1920x1080,1920x1080,Temporal Distance Task,cb_10,70.0,temp_dist_trial,dist_items,qkpkxw,2.0,info,,3.4999999970314093,0.0,3.4999999970314093,3.4999999970314093,0.0,3.4999999970314093,1.0,0.0,0.0,,Slider,Slider,4.0,object-56,temp_dist_trial,22.0,s_s_01_1,student_stem,microscope,10.0,unique,paired,s_s_01_1.jpg,Student,,,sub-06
Desktop or Laptop,Windows 10,Chrome 137.0.0.0,1920x1080,1920x1080,Temporal Distance Task,cb_10,70.0,temp_dist_trial,dist_items,qkpkxw,2.0,continue,,5266.299999994051,5249.799999999987,5266.299999994051,5266.299999994051,5249.799999999987,5266.299999994051,1.0,0.0,0.0,,Click To Continue,Next button,7.0,object-60,temp_dist_trial,22.0,s_s_01_1,student_stem,microscope,10.0,unique,paired,s_s_01_1.jpg,Student,,,sub-06
Desktop or Laptop,Windows 10,Chrome 137.0.0.0,1920x1080,1920x1080,Temporal Distance Task,cb_10,70.0,temp_dist_trial,dist_items,qkpkxw,2.0,response,93,1066.7000000000116,5249.799999999987,5266.499999999942,1066.7000000000116,5249.799999999987,5266.499999999942,1.0,4199.79999999993,0.0,,Slider,Slider,4.0,object-56,temp_dist_trial,22.0,s_s_01_1,student_stem,microscope,10.0,unique,paired,s_s_01_1.jpg,Student,,,sub-06
Desktop or Laptop,Windows 10,Chrome 137.0.0.0,1920x1080,1920x1080,Temporal Distance Task,cb_10,71.0,temp_dist_trial,num_items,zn7si1,1.0,response,1_ITEM,1216.2999999985334,1200.0,1216.2999999985334,1216.2999999985334,1200.0,1216.2999999985334,1.0,0.0,0.0,,Click Response,1_count,3.0,object-46,temp_dist_trial,23.0,s_s_06_1,student_stem,calculator,10.0,unique,single,s_s_06_1.jpg,Student,,,sub-06
Desktop or Laptop,Windows 10,Chrome 137.0.0.0,1920x1080,1920x1080,Temporal Distance Task,cb_10,72.0,temp_dist_trial,num_items,zn7si1,1.0,response,2_ITEM,1118.5999999970081,1116.5,1118.5999999970081,1118.5999999970081,1116.5,1118.5999999970081,1.0,0.0,0.0,,Click Response,2_count,5.0,object-49,temp_dist_trial,24.0,s_a_15_1,student_art,drum kit,10.0,unique,single,s_a_15_1.jpg,Student,,,sub-06
Desktop or Laptop,Windows 10,Chrome 137.0.0.0,1920x1080,1920x1080,Temporal Distance Task,cb_10,72.0,temp_dist_trial,dist_items,qkpkxw,2.0,info,,2.9999999955180097,0.0,2.9999999955180097,2.9999999955180097,0.0,2.9999999955180097,1.0,0.0,0.0,,Slider,Slider,4.0,object-56,temp_dist_trial,24.0,s_a_15_1,student_art,drum kit,10.0,unique,single,s_a_15_1.jpg,Student,,,sub-06
Desktop or Laptop,Windows 10,Chrome 137.0.0.0,1920x1080,1920x1080,Temporal Distance Task,cb_10,72.0,temp_dist_trial,dist_items,qkpkxw,2.0,continue,,2755.399999994028,2750.0,2755.399999994028,2755.399999994028,2750.0,2755.399999994028,1.0,0.0,0.0,,Click To Continue,Next button,7.0,object-60,temp_dist_trial,24.0,s_a_15_1,student_art,drum kit,10.0,unique,single,s_a_15_1.jpg,Student,,,sub-06
Desktop or Laptop,Windows 10,Chrome 137.0.0.0,1920x1080,1920x1080,Temporal Distance Task,cb_10,72.0,temp_dist_trial,dist_items,qkpkxw,2.0,response,39,766.7000000000116,2750.0,2755.699999998499,766.7000000000116,2750.0,2755.699999998499,1.0,1988.9999999984866,0.0,,Slider,Slider,4.0,object-56,temp_dist_trial,24.0,s_a_15_1,student_art,drum kit,10.0,unique,single,s_a_15_1.jpg,Student,,,sub-06
Desktop or Laptop,Windows 10,Chrome 137.0.0.0,1920x1080,1920x1080,Temporal Distance Task,cb_10,73.0,temp_dist_trial,num_items,zn7si1,1.0,response,2_ITEM,2406.7999999999884,2400.0,2406.7999999999884,2406.7999999999884,2400.0,2406.7999999999884,1.0,0.0,0.0,,Click Response,2_count,5.0,object-49,temp_dist_trial,25.0,s_a_01_1,student_art,paintbrush,10.0,unique,single,s_a_01_1.jpg,Student,,,sub-06
Desktop or Laptop,Windows 10,Chrome 137.0.0.0,1920x1080,1920x1080,Temporal Distance Task,cb_10,73.0,temp_dist_trial,dist_items,qkpkxw,2.0,info,,2.9999999955180097,0.0,2.9999999955180097,2.9999999955180097,0.0,2.9999999955180097,1.0,0.0,0.0,,Slider,Slider,4.0,object-56,temp_dist_trial,25.0,s_a_01_1,student_art,paintbrush,10.0,unique,single,s_a_01_1.jpg,Student,,,sub-06
Desktop or Laptop,Windows 10,Chrome 137.0.0.0,1920x1080,1920x1080,Temporal Distance Task,cb_10,73.0,temp_dist_trial,dist_items,qkpkxw,2.0,continue,,2278.899999994028,2266.599999999977,2278.899999994028,2278.899999994028,2266.599999999977,2278.899999994028,1.0,0.0,0.0,,Click To Continue,Next button,7.0,object-60,temp_dist_trial,25.0,s_a_01_1,student_art,paintbrush,10.0,unique,single,s_a_01_1.jpg,Student,,,sub-06
Desktop or Laptop,Windows 10,Chrome 137.0.0.0,1920x1080,1920x1080,Temporal Distance Task,cb_10,73.0,temp_dist_trial,dist_items,qkpkxw,2.0,response,63,1099.899999999965,2266.599999999977,2281.199999998499,1099.899999999965,2266.599999999977,2281.199999998499,1.0,1181.2999999985334,0.0,,Slider,Slider,4.0,object-56,temp_dist_trial,25.0,s_a_01_1,student_art,paintbrush,10.0,unique,single,s_a_01_1.jpg,Student,,,sub-06
Desktop or Laptop,Windows 10,Chrome 137.0.0.0,1920x1080,1920x1080,Temporal Distance Task,cb_10,74.0,temp_dist_trial,num_items,zn7si1,1.0,response,2_ITEM,1058.7000000000116,1050.0,1058.7000000000116,1058.7000000000116,1050.0,1058.7000000000116,1.0,0.0,0.0,,Click Response,2_count,5.0,object-49,temp_dist_trial,26.0,s_a_17_1,student_art,microphone,10.0,unique,paired,s_a_17_1.jpg,Student,,,sub-06
Desktop or Laptop,Windows 10,Chrome 137.0.0.0,1920x1080,1920x1080,Temporal Distance Task,cb_10,74.0,temp_dist_trial,dist_items,qkpkxw,2.0,info,,2.9999999955180097,0.0,2.9999999955180097,2.9999999955180097,0.0,2.9999999955180097,1.0,0.0,0.0,,Slider,Slider,4.0,object-56,temp_dist_trial,26.0,s_a_17_1,student_art,microphone,10.0,unique,paired,s_a_17_1.jpg,Student,,,sub-06
Desktop or Laptop,Windows 10,Chrome 137.0.0.0,1920x1080,1920x1080,Temporal Distance Task,cb_10,74.0,temp_dist_trial,dist_items,qkpkxw,2.0,continue,,4990.899999994028,4983.299999999987,4990.899999994028,4990.899999994028,4983.299999999987,4990.899999994028,1.0,0.0,0.0,,Click To Continue,Next button,7.0,object-60,temp_dist_trial,26.0,s_a_17_1,student_art,microphone,10.0,unique,paired,s_a_17_1.jpg,Student,,,sub-06
Desktop or Laptop,Windows 10,Chrome 137.0.0.0,1920x1080,1920x1080,Temporal Distance Task,cb_10,74.0,temp_dist_trial,dist_items,qkpkxw,2.0,response,1,700.0,4983.299999999987,4991.199999998498,700.0,4983.299999999987,4991.199999998498,1.0,4291.199999998498,0.0,,Slider,Slider,4.0,object-56,temp_dist_trial,26.0,s_a_17_1,student_art,microphone,10.0,unique,paired,s_a_17_1.jpg,Student,,,sub-06
Desktop or Laptop,Windows 10,Chrome 137.0.0.0,1920x1080,1920x1080,Temporal Distance Task,cb_10,75.0,temp_dist_trial,num_items,zn7si1,1.0,response,1_ITEM,1751.0999999940395,1749.9000000000233,1751.0999999940395,1751.0999999940395,1749.9000000000233,1751.0999999940395,1.0,0.0,0.0,,Click Response,1_count,3.0,object-46,temp_dist_trial,27.0,s_a_05_1,student_art,clay,10.0,unique,paired,s_a_05_1.jpg,Student,,,sub-06
Desktop or Laptop,Windows 10,Chrome 137.0.0.0,1920x1080,1920x1080,Temporal Distance Task,cb_10,76.0,temp_dist_trial,num_items,zn7si1,1.0,response,2_ITEM,1832.9999999984866,1816.6999999999528,1832.9999999984866,1832.9999999984866,1816.6999999999528,1832.9999999984866,1.0,0.0,0.0,,Click Response,2_count,5.0,object-49,temp_dist_trial,28.0,s_sh_21_1,student_shared,file holder,10.0,competing,paired,s_sh_21_1.jpg,Student,,,sub-06
Desktop or Laptop,Windows 10,Chrome 137.0.0.0,1920x1080,1920x1080,Temporal Distance Task,cb_10,76.0,temp_dist_trial,dist_items,qkpkxw,2.0,info,,3.5999999940395355,0.0,3.5999999940395355,3.5999999940395355,0.0,3.5999999940395355,1.0,0.0,0.0,,Slider,Slider,4.0,object-56,temp_dist_trial,28.0,s_sh_21_1,student_shared,file holder,10.0,competing,paired,s_sh_21_1.jpg,Student,,,sub-06
Desktop or Laptop,Windows 10,Chrome 137.0.0.0,1920x1080,1920x1080,Temporal Distance Task,cb_10,76.0,temp_dist_trial,dist_items,qkpkxw,2.0,continue,,1629.6999999955294,1616.7000000000116,1629.6999999955294,1629.6999999955294,1616.7000000000116,1629.6999999955294,1.0,0.0,0.0,,Click To Continue,Next button,7.0,object-60,temp_dist_trial,28.0,s_sh_21_1,student_shared,file holder,10.0,competing,paired,s_sh_21_1.jpg,Student,,,sub-06
Desktop or Laptop,Windows 10,Chrome 137.0.0.0,1920x1080,1920x1080,Temporal Distance Task,cb_10,76.0,temp_dist_trial,dist_items,qkpkxw,2.0,response,27,650.0,1616.7000000000116,1629.8999999985099,650.0,1616.7000000000116,1629.8999999985099,1.0,979.89999999851,0.0,,Slider,Slider,4.0,object-56,temp_dist_trial,28.0,s_sh_21_1,student_shared,file holder,10.0,competing,paired,s_sh_21_1.jpg,Student,,,sub-06
Desktop or Laptop,Windows 10,Chrome 137.0.0.0,1920x1080,1920x1080,Temporal Distance Task,cb_10,77.0,temp_dist_trial,num_items,zn7si1,1.0,response,2_ITEM,1020.099999997008,1016.5999999999768,1020.099999997008,1020.099999997008,1016.5999999999768,1020.099999997008,1.0,0.0,0.0,,Click Response,2_count,5.0,object-49,temp_dist_trial,29.0,s_a_02_1,student_art,canvas,10.0,unique,paired,s_a_02_1.jpg,Student,,,sub-06
Desktop or Laptop,Windows 10,Chrome 137.0.0.0,1920x1080,1920x1080,Temporal Distance Task,cb_10,77.0,temp_dist_trial,dist_items,qkpkxw,2.0,info,,3.0999999999767165,0.0,3.0999999999767165,3.0999999999767165,0.0,3.0999999999767165,1.0,0.0,0.0,,Slider,Slider,4.0,object-56,temp_dist_trial,29.0,s_a_02_1,student_art,canvas,10.0,unique,paired,s_a_02_1.jpg,Student,,,sub-06
Desktop or Laptop,Windows 10,Chrome 137.0.0.0,1920x1080,1920x1080,Temporal Distance Task,cb_10,77.0,temp_dist_trial,dist_items,qkpkxw,2.0,continue,,2754.0999999999767,2749.899999999965,2754.0999999999767,2754.0999999999767,2749.899999999965,2754.0999999999767,1.0,0.0,0.0,,Click To Continue,Next button,7.0,object-60,temp_dist_trial,29.0,s_a_02_1,student_art,canvas,10.0,unique,paired,s_a_02_1.jpg,Student,,,sub-06
Desktop or Laptop,Windows 10,Chrome 137.0.0.0,1920x1080,1920x1080,Temporal Distance Task,cb_10,77.0,temp_dist_trial,dist_items,qkpkxw,2.0,response,12,883.1999999999533,2749.899999999965,2754.4999999984857,883.1999999999533,2749.899999999965,2754.4999999984857,1.0,1871.2999999985327,0.0,,Slider,Slider,4.0,object-56,temp_dist_trial,29.0,s_a_02_1,student_art,canvas,10.0,unique,paired,s_a_02_1.jpg,Student,,,sub-06
Desktop or Laptop,Windows 10,Chrome 137.0.0.0,1920x1080,1920x1080,Temporal Distance Task,cb_10,78.0,temp_dist_trial,num_items,zn7si1,1.0,response,1_ITEM,1894.3999999955413,1883.2999999999884,1894.3999999955413,1894.3999999955413,1883.2999999999884,1894.3999999955413,1.0,0.0,0.0,,Click Response,1_count,3.0,object-46,temp_dist_trial,30.0,s_s_11_1,student_stem,scientific scale,10.0,unique,single,s_s_11_1.jpg,Student,,,sub-06
Desktop or Laptop,Windows 10,Chrome 137.0.0.0,1920x1080,1920x1080,Temporal Distance Task,cb_10,79.0,temp_dist_trial,num_items,zn7si1,1.0,response,2_ITEM,1162.199999997043,1150.0,1162.199999997043,1162.199999997043,1150.0,1162.199999997043,1.0,0.0,0.0,,Click Response,2_count,5.0,object-49,temp_dist_trial,31.0,s_a_14_1,student_art,guitar pick,10.0,unique,paired,s_a_14_1.jpg,Student,,,sub-06
Desktop or Laptop,Windows 10,Chrome 137.0.0.0,1920x1080,1920x1080,Temporal Distance Task,cb_10,79.0,temp_dist_trial,dist_items,qkpkxw,2.0,info,,3.0999999955529347,0.0,3.0999999955529347,3.0999999955529347,0.0,3.0999999955529347,1.0,0.0,0.0,,Slider,Slider,4.0,object-56,temp_dist_trial,31.0,s_a_14_1,student_art,guitar pick,10.0,unique,paired,s_a_14_1.jpg,Student,,,sub-06
Desktop or Laptop,Windows 10,Chrome 137.0.0.0,1920x1080,1920x1080,Temporal Distance Task,cb_10,79.0,temp_dist_trial,dist_items,qkpkxw,2.0,continue,,4189.999999994063,4183.200000000013,4189.999999994063,4189.999999994063,4183.200000000013,4189.999999994063,1.0,0.0,0.0,,Click To Continue,Next button,7.0,object-60,temp_dist_trial,31.0,s_a_14_1,student_art,guitar pick,10.0,unique,paired,s_a_14_1.jpg,Student,,,sub-06
Desktop or Laptop,Windows 10,Chrome 137.0.0.0,1920x1080,1920x1080,Temporal Distance Task,cb_10,79.0,temp_dist_trial,dist_items,qkpkxw,2.0,response,5,733.2000000000116,4183.200000000013,4193.099999995553,733.2000000000116,4183.200000000013,4193.099999995553,1.0,3459.899999995541,0.0,,Slider,Slider,4.0,object-56,temp_dist_trial,31.0,s_a_14_1,student_art,guitar pick,10.0,unique,paired,s_a_14_1.jpg,Student,,,sub-06
Desktop or Laptop,Windows 10,Chrome 137.0.0.0,1920x1080,1920x1080,Temporal Distance Task,cb_10,80.0,temp_dist_trial,num_items,zn7si1,1.0,response,1_ITEM,1332.5999999985215,1316.7000000000114,1332.5999999985215,1332.5999999985215,1316.7000000000114,1332.5999999985215,1.0,0.0,0.0,,Click Response,1_count,3.0,object-46,temp_dist_trial,32.0,s_sh_22_1,student_shared,hole puncher,10.0,competing,single,s_sh_22_1.jpg,Student,,,sub-06
Desktop or Laptop,Windows 10,Chrome 137.0.0.0,1920x1080,1920x1080,Temporal Distance Task,cb_10,81.0,temp_dist_trial,num_items,zn7si1,1.0,response,1_ITEM,1085.7999999955064,1083.399999999965,1085.7999999955064,1085.7999999955064,1083.399999999965,1085.7999999955064,1.0,0.0,0.0,,Click Response,1_count,3.0,object-46,temp_dist_trial,33.0,s_sh_11_1,student_shared,pencil case,10.0,competing,paired,s_sh_11_1.jpg,Student,,,sub-06
Desktop or Laptop,Windows 10,Chrome 137.0.0.0,1920x1080,1920x1080,Temporal Distance Task,cb_10,82.0,temp_dist_trial,num_items,zn7si1,1.0,response,1_ITEM,2041.599999998521,2033.2000000000119,2041.599999998521,2041.599999998521,2033.2000000000119,2041.599999998521,1.0,0.0,0.0,,Click Response,1_count,3.0,object-46,temp_dist_trial,34.0,s_s_20_1,student_stem,dna model,10.0,unique,single,s_s_20_1.jpg,Student,,,sub-06
Desktop or Laptop,Windows 10,Chrome 137.0.0.0,1920x1080,1920x1080,Temporal Distance Task,cb_10,83.0,temp_dist_trial,num_items,zn7si1,1.0,response,2_ITEM,812.0,800.0,812.0,812.0,800.0,812.0,1.0,0.0,0.0,,Click Response,2_count,5.0,object-49,temp_dist_trial,35.0,s_s_07_1,student_stem,periodic table,10.0,unique,paired,s_s_07_1.jpg,Student,,,sub-06
Desktop or Laptop,Windows 10,Chrome 137.0.0.0,1920x1080,1920x1080,Temporal Distance Task,cb_10,83.0,temp_dist_trial,dist_items,qkpkxw,2.0,info,,3.0999999940395355,0.0,3.0999999940395355,3.0999999940395355,0.0,3.0999999940395355,1.0,0.0,0.0,,Slider,Slider,4.0,object-56,temp_dist_trial,35.0,s_s_07_1,student_stem,periodic table,10.0,unique,paired,s_s_07_1.jpg,Student,,,sub-06
Desktop or Laptop,Windows 10,Chrome 137.0.0.0,1920x1080,1920x1080,Temporal Distance Task,cb_10,83.0,temp_dist_trial,dist_items,qkpkxw,2.0,continue,,2368.1999999955297,2366.599999999977,2368.1999999955297,2368.1999999955297,2366.599999999977,2368.1999999955297,1.0,0.0,0.0,,Click To Continue,Next button,7.0,object-60,temp_dist_trial,35.0,s_s_07_1,student_stem,periodic table,10.0,unique,paired,s_s_07_1.jpg,Student,,,sub-06
Desktop or Laptop,Windows 10,Chrome 137.0.0.0,1920x1080,1920x1080,Temporal Distance Task,cb_10,83.0,temp_dist_trial,dist_items,qkpkxw,2.0,response,30,1033.2999999999884,2366.599999999977,2368.5999999940395,1033.2999999999884,2366.599999999977,2368.5999999940395,1.0,1335.2999999940512,0.0,,Slider,Slider,4.0,object-56,temp_dist_trial,35.0,s_s_07_1,student_stem,periodic table,10.0,unique,paired,s_s_07_1.jpg,Student,,,sub-06
Desktop or Laptop,Windows 10,Chrome 137.0.0.0,1920x1080,1920x1080,Temporal Distance Task,cb_10,84.0,temp_dist_trial,num_items,zn7si1,1.0,response,2_ITEM,1622.099999995553,1616.7000000000116,1622.099999995553,1622.099999995553,1616.7000000000116,1622.099999995553,1.0,0.0,0.0,,Click Response,2_count,5.0,object-49,temp_dist_trial,36.0,s_sh_19_1,student_shared,portable plastic drawer,10.0,competing,paired,s_sh_19_1.jpg,Student,,,sub-06
Desktop or Laptop,Windows 10,Chrome 137.0.0.0,1920x1080,1920x1080,Temporal Distance Task,cb_10,84.0,temp_dist_trial,dist_items,qkpkxw,2.0,info,,3.79999999998836,0.0,3.79999999998836,3.79999999998836,0.0,3.79999999998836,1.0,0.0,0.0,,Slider,Slider,4.0,object-56,temp_dist_trial,36.0,s_sh_19_1,student_shared,portable plastic drawer,10.0,competing,paired,s_sh_19_1.jpg,Student,,,sub-06
Desktop or Laptop,Windows 10,Chrome 137.0.0.0,1920x1080,1920x1080,Temporal Distance Task,cb_10,84.0,temp_dist_trial,dist_items,qkpkxw,2.0,continue,,1666.8999999940281,1650.0999999999767,1666.8999999940281,1666.8999999940281,1650.0999999999767,1666.8999999940281,1.0,0.0,0.0,,Click To Continue,Next button,7.0,object-60,temp_dist_trial,36.0,s_sh_19_1,student_shared,portable plastic drawer,10.0,competing,paired,s_sh_19_1.jpg,Student,,,sub-06
Desktop or Laptop,Windows 10,Chrome 137.0.0.0,1920x1080,1920x1080,Temporal Distance Task,cb_10,84.0,temp_dist_trial,dist_items,qkpkxw,2.0,response,13,683.3999999999653,1650.0999999999767,1666.8999999999646,683.3999999999653,1650.0999999999767,1666.8999999999646,1.0,983.5,0.0,,Slider,Slider,4.0,object-56,temp_dist_trial,36.0,s_sh_19_1,student_shared,portable plastic drawer,10.0,competing,paired,s_sh_19_1.jpg,Student,,,sub-06
Desktop or Laptop,Windows 10,Chrome 137.0.0.0,1920x1080,1920x1080,Temporal Distance Task,cb_10,85.0,temp_dist_trial,num_items,zn7si1,1.0,response,2_ITEM,910.7000000000116,899.9000000000232,910.7000000000116,910.7000000000116,899.9000000000232,910.7000000000116,1.0,0.0,0.0,,Click Response,2_count,5.0,object-49,temp_dist_trial,37.0,s_a_19_1,student_art,ballet shoes,10.0,unique,paired,s_a_19_1.jpg,Student,,,sub-06
Desktop or Laptop,Windows 10,Chrome 137.0.0.0,1920x1080,1920x1080,Temporal Distance Task,cb_10,85.0,temp_dist_trial,dist_items,qkpkxw,2.0,info,,3.6999999970430513,0.0,3.6999999970430513,3.6999999970430513,0.0,3.6999999970430513,1.0,0.0,0.0,,Slider,Slider,4.0,object-56,temp_dist_trial,37.0,s_a_19_1,student_art,ballet shoes,10.0,unique,paired,s_a_19_1.jpg,Student,,,sub-06
Desktop or Laptop,Windows 10,Chrome 137.0.0.0,1920x1080,1920x1080,Temporal Distance Task,cb_10,85.0,temp_dist_trial,dist_items,qkpkxw,2.0,continue,,2961.699999997043,2950.0,2961.699999997043,2961.699999997043,2950.0,2961.699999997043,1.0,0.0,0.0,,Click To Continue,Next button,7.0,object-60,temp_dist_trial,37.0,s_a_19_1,student_art,ballet shoes,10.0,unique,paired,s_a_19_1.jpg,Student,,,sub-06
Desktop or Laptop,Windows 10,Chrome 137.0.0.0,1920x1080,1920x1080,Temporal Distance Task,cb_10,85.0,temp_dist_trial,dist_items,qkpkxw,2.0,response,12,866.7000000000116,2950.0,2962.099999995553,866.7000000000116,2950.0,2962.099999995553,1.0,2095.3999999955413,0.0,,Slider,Slider,4.0,object-56,temp_dist_trial,37.0,s_a_19_1,student_art,ballet shoes,10.0,unique,paired,s_a_19_1.jpg,Student,,,sub-06
Desktop or Laptop,Windows 10,Chrome 137.0.0.0,1920x1080,1920x1080,Temporal Distance Task,cb_10,86.0,temp_dist_trial,num_items,zn7si1,1.0,response,2_ITEM,1322.7999999985334,1316.600000000035,1322.7999999985334,1322.7999999985334,1316.600000000035,1322.7999999985334,1.0,0.0,0.0,,Click Response,2_count,5.0,object-49,temp_dist_trial,38.0,s_sh_12_1,student_shared,binder,10.0,competing,paired,s_sh_12_1.jpg,Student,,,sub-06
Desktop or Laptop,Windows 10,Chrome 137.0.0.0,1920x1080,1920x1080,Temporal Distance Task,cb_10,86.0,temp_dist_trial,dist_items,qkpkxw,2.0,info,,2.7999999999883585,0.0,2.7999999999883585,2.7999999999883585,0.0,2.7999999999883585,1.0,0.0,0.0,,Slider,Slider,4.0,object-56,temp_dist_trial,38.0,s_sh_12_1,student_shared,binder,10.0,competing,paired,s_sh_12_1.jpg,Student,,,sub-06
Desktop or Laptop,Windows 10,Chrome 137.0.0.0,1920x1080,1920x1080,Temporal Distance Task,cb_10,86.0,temp_dist_trial,dist_items,qkpkxw,2.0,continue,,2074.899999994028,2066.700000000012,2074.899999994028,2074.899999994028,2066.700000000012,2074.899999994028,1.0,0.0,0.0,,Click To Continue,Next button,7.0,object-60,temp_dist_trial,38.0,s_sh_12_1,student_shared,binder,10.0,competing,paired,s_sh_12_1.jpg,Student,,,sub-06
Desktop or Laptop,Windows 10,Chrome 137.0.0.0,1920x1080,1920x1080,Temporal Distance Task,cb_10,86.0,temp_dist_trial,dist_items,qkpkxw,2.0,response,61,1033.399999999965,2066.700000000012,2075.2999999999884,1033.399999999965,2066.700000000012,2075.2999999999884,1.0,1041.9000000000233,0.0,,Slider,Slider,4.0,object-56,temp_dist_trial,38.0,s_sh_12_1,student_shared,binder,10.0,competing,paired,s_sh_12_1.jpg,Student,,,sub-06
Desktop or Laptop,Windows 10,Chrome 137.0.0.0,1920x1080,1920x1080,Temporal Distance Task,cb_10,87.0,temp_dist_trial,num_items,zn7si1,1.0,response,1_ITEM,1486.7999999955066,1483.2999999999884,1486.7999999955066,1486.7999999955066,1483.2999999999884,1486.7999999955066,1.0,0.0,0.0,,Click Response,1_count,3.0,object-46,temp_dist_trial,39.0,s_sh_20_1,student_shared,tape,10.0,competing,single,s_sh_20_1.jpg,Student,,,sub-06
Desktop or Laptop,Windows 10,Chrome 137.0.0.0,1920x1080,1920x1080,Temporal Distance Task,cb_10,88.0,temp_dist_trial,num_items,zn7si1,1.0,response,1_ITEM,1488.199999997043,1483.4000000000233,1488.199999997043,1488.199999997043,1483.4000000000233,1488.199999997043,1.0,0.0,0.0,,Click Response,1_count,3.0,object-46,temp_dist_trial,40.0,s_s_10_1,student_stem,3d molecule,10.0,unique,paired,s_s_10_1.jpg,Student,,,sub-06
Desktop or Laptop,Windows 10,Chrome 137.0.0.0,1920x1080,1920x1080,Temporal Distance Task,cb_10,89.0,temp_dist_trial,num_items,zn7si1,1.0,response,2_ITEM,1806.6999999955292,1800.0,1806.6999999955292,1806.6999999955292,1800.0,1806.6999999955292,1.0,0.0,0.0,,Click Response,2_count,5.0,object-49,temp_dist_trial,41.0,s_sh_16_1,student_shared,stapler,10.0,competing,paired,s_sh_16_1.jpg,Student,,,sub-06
Desktop or Laptop,Windows 10,Chrome 137.0.0.0,1920x1080,1920x1080,Temporal Distance Task,cb_10,89.0,temp_dist_trial,dist_items,qkpkxw,2.0,info,,3.5999999999767165,0.0,3.5999999999767165,3.5999999999767165,0.0,3.5999999999767165,1.0,0.0,0.0,,Slider,Slider,4.0,object-56,temp_dist_trial,41.0,s_sh_16_1,student_shared,stapler,10.0,competing,paired,s_sh_16_1.jpg,Student,,,sub-06
Desktop or Laptop,Windows 10,Chrome 137.0.0.0,1920x1080,1920x1080,Temporal Distance Task,cb_10,89.0,temp_dist_trial,dist_items,qkpkxw,2.0,continue,,1805.4999999984866,1799.8999999999646,1805.4999999984866,1805.4999999984866,1799.8999999999646,1805.4999999984866,1.0,0.0,0.0,,Click To Continue,Next button,7.0,object-60,temp_dist_trial,41.0,s_sh_16_1,student_shared,stapler,10.0,competing,paired,s_sh_16_1.jpg,Student,,,sub-06
Desktop or Laptop,Windows 10,Chrome 137.0.0.0,1920x1080,1920x1080,Temporal Distance Task,cb_10,89.0,temp_dist_trial,dist_items,qkpkxw,2.0,response,86,783.2999999999884,1799.8999999999646,1805.7999999955066,783.2999999999884,1799.8999999999646,1805.7999999955066,1.0,1022.499999995518,0.0,,Slider,Slider,4.0,object-56,temp_dist_trial,41.0,s_sh_16_1,student_shared,stapler,10.0,competing,paired,s_sh_16_1.jpg,Student,,,sub-06
Desktop or Laptop,Windows 10,Chrome 137.0.0.0,1920x1080,1920x1080,Temporal Distance Task,cb_10,90.0,temp_dist_trial,num_items,zn7si1,1.0,response,1_ITEM,1198.3999999955413,1183.4000000000233,1198.3999999955413,1198.3999999955413,1183.4000000000233,1198.3999999955413,1.0,0.0,0.0,,Click Response,1_count,3.0,object-46,temp_dist_trial,42.0,s_a_06_1,student_art,pastels,10.0,unique,single,s_a_06_1.jpg,Student,,,sub-06
Desktop or Laptop,Windows 10,Chrome 137.0.0.0,1920x1080,1920x1080,Temporal Distance Task,cb_10,91.0,temp_dist_trial,num_items,zn7si1,1.0,response,1_ITEM,1293.6999999984982,1283.2999999999886,1293.6999999984982,1293.6999999984982,1283.2999999999886,1293.6999999984982,1.0,0.0,0.0,,Click Response,1_count,3.0,object-46,temp_dist_trial,43.0,s_s_16_1,student_stem,toolbox,10.0,unique,single,s_s_16_1.jpg,Student,,,sub-06
Desktop or Laptop,Windows 10,Chrome 137.0.0.0,1920x1080,1920x1080,Temporal Distance Task,cb_10,92.0,temp_dist_trial,num_items,zn7si1,1.0,response,2_ITEM,864.4000000000232,849.9000000000232,864.4000000000232,864.4000000000232,849.9000000000232,864.4000000000232,1.0,0.0,0.0,,Click Response,2_count,5.0,object-49,temp_dist_trial,44.0,s_a_16_1,student_art,piano,10.0,unique,paired,s_a_16_1.jpg,Student,,,sub-06
Desktop or Laptop,Windows 10,Chrome 137.0.0.0,1920x1080,1920x1080,Temporal Distance Task,cb_10,92.0,temp_dist_trial,dist_items,qkpkxw,2.0,info,,3.799999995506369,0.0,3.799999995506369,3.799999995506369,0.0,3.799999995506369,1.0,0.0,0.0,,Slider,Slider,4.0,object-56,temp_dist_trial,44.0,s_a_16_1,student_art,piano,10.0,unique,paired,s_a_16_1.jpg,Student,,,sub-06
Desktop or Laptop,Windows 10,Chrome 137.0.0.0,1920x1080,1920x1080,Temporal Distance Task,cb_10,92.0,temp_dist_trial,dist_items,qkpkxw,2.0,continue,,1932.8999999969965,1916.7999999999884,1932.8999999969965,1932.8999999969965,1916.7999999999884,1932.8999999969965,1.0,0.0,0.0,,Click To Continue,Next button,7.0,object-60,temp_dist_trial,44.0,s_a_16_1,student_art,piano,10.0,unique,paired,s_a_16_1.jpg,Student,,,sub-06
Desktop or Laptop,Windows 10,Chrome 137.0.0.0,1920x1080,1920x1080,Temporal Distance Task,cb_10,92.0,temp_dist_trial,dist_items,qkpkxw,2.0,response,85,883.3999999999651,1916.7999999999884,1933.7000000000119,883.3999999999651,1916.7999999999884,1933.7000000000119,1.0,1050.3000000000468,0.0,,Slider,Slider,4.0,object-56,temp_dist_trial,44.0,s_a_16_1,student_art,piano,10.0,unique,paired,s_a_16_1.jpg,Student,,,sub-06
Desktop or Laptop,Windows 10,Chrome 137.0.0.0,1920x1080,1920x1080,Temporal Distance Task,cb_10,93.0,temp_dist_trial,num_items,zn7si1,1.0,response,2_ITEM,1766.5999999999185,1749.8999999999646,1766.5999999999185,1766.5999999999185,1749.8999999999646,1766.5999999999185,1.0,0.0,0.0,,Click Response,2_count,5.0,object-49,temp_dist_trial,45.0,s_sh_10_1,student_shared,scissors,10.0,competing,paired,s_sh_10_1.jpg,Student,,,sub-06
Desktop or Laptop,Windows 10,Chrome 137.0.0.0,1920x1080,1920x1080,Temporal Distance Task,cb_10,93.0,temp_dist_trial,dist_items,qkpkxw,2.0,info,,3.79999999998836,0.0,3.79999999998836,3.79999999998836,0.0,3.79999999998836,1.0,0.0,0.0,,Slider,Slider,4.0,object-56,temp_dist_trial,45.0,s_sh_10_1,student_shared,scissors,10.0,competing,paired,s_sh_10_1.jpg,Student,,,sub-06
Desktop or Laptop,Windows 10,Chrome 137.0.0.0,1920x1080,1920x1080,Temporal Distance Task,cb_10,93.0,temp_dist_trial,dist_items,qkpkxw,2.0,continue,,1931.6999999984985,1916.5,1931.6999999984985,1931.6999999984985,1916.5,1931.6999999984985,1.0,0.0,0.0,,Click To Continue,Next button,7.0,object-60,temp_dist_trial,45.0,s_sh_10_1,student_shared,scissors,10.0,competing,paired,s_sh_10_1.jpg,Student,,,sub-06
Desktop or Laptop,Windows 10,Chrome 137.0.0.0,1920x1080,1920x1080,Temporal Distance Task,cb_10,93.0,temp_dist_trial,dist_items,qkpkxw,2.0,response,30,900.0,1916.5,1931.9999999955176,900.0,1916.5,1931.9999999955176,1.0,1031.999999995518,0.0,,Slider,Slider,4.0,object-56,temp_dist_trial,45.0,s_sh_10_1,student_shared,scissors,10.0,competing,paired,s_sh_10_1.jpg,Student,,,sub-06
Desktop or Laptop,Windows 10,Chrome 137.0.0.0,1920x1080,1920x1080,Temporal Distance Task,cb_10,94.0,temp_dist_trial,num_items,zn7si1,1.0,response,1_ITEM,1221.0999999970081,1216.7000000000114,1221.0999999970081,1221.0999999970081,1216.7000000000114,1221.0999999970081,1.0,0.0,0.0,,Click Response,1_count,3.0,object-46,temp_dist_trial,46.0,s_sh_18_1,student_shared,wall calendar,10.0,competing,single,s_sh_18_1.jpg,Student,,,sub-06
Desktop or Laptop,Windows 10,Chrome 137.0.0.0,1920x1080,1920x1080,Temporal Distance Task,cb_10,95.0,temp_dist_trial,num_items,zn7si1,1.0,response,2_ITEM,870.2000000000116,866.6000000000349,870.2000000000116,870.2000000000116,866.6000000000349,870.2000000000116,1.0,0.0,0.0,,Click Response,2_count,5.0,object-49,temp_dist_trial,47.0,s_sh_23_1,student_shared,ballpoint pen,10.0,competing,paired,s_sh_23_1.jpg,Student,,,sub-06
Desktop or Laptop,Windows 10,Chrome 137.0.0.0,1920x1080,1920x1080,Temporal Distance Task,cb_10,95.0,temp_dist_trial,dist_items,qkpkxw,2.0,info,,3.5999999940395355,0.0,3.5999999940395355,3.5999999940395355,0.0,3.5999999940395355,1.0,0.0,0.0,,Slider,Slider,4.0,object-56,temp_dist_trial,47.0,s_sh_23_1,student_shared,ballpoint pen,10.0,competing,paired,s_sh_23_1.jpg,Student,,,sub-06
Desktop or Laptop,Windows 10,Chrome 137.0.0.0,1920x1080,1920x1080,Temporal Distance Task,cb_10,95.0,temp_dist_trial,dist_items,qkpkxw,2.0,continue,,1521.2999999970193,1516.5999999999767,1521.2999999970193,1521.2999999970193,1516.5999999999767,1521.2999999970193,1.0,0.0,0.0,,Click To Continue,Next button,7.0,object-60,temp_dist_trial,47.0,s_sh_23_1,student_shared,ballpoint pen,10.0,competing,paired,s_sh_23_1.jpg,Student,,,sub-06
Desktop or Laptop,Windows 10,Chrome 137.0.0.0,1920x1080,1920x1080,Temporal Distance Task,cb_10,95.0,temp_dist_trial,dist_items,qkpkxw,2.0,response,43,766.7000000000116,1516.5999999999767,1522.1999999955294,766.7000000000116,1516.5999999999767,1522.1999999955294,1.0,755.499999995518,0.0,,Slider,Slider,4.0,object-56,temp_dist_trial,47.0,s_sh_23_1,student_shared,ballpoint pen,10.0,competing,paired,s_sh_23_1.jpg,Student,,,sub-06
