Participant Device,Participant OS,Participant Browser,Participant Monitor Size,Participant Viewport Size,Task Name,Current Spreadsheet,Trial Number,Display,Screen,Screen ID,Screen Counter,Response Type,Response,Onset Time,Clock Time,Reaction Time,Absolute Onset Time,Absolute Clock Time,Absolute Reaction Time,Correct,Response Duration,Proportion,Tag,Component Name,Object Name,Object Number,Object ID,Spreadsheet: display,Spreadsheet: trial,Spreadsheet: stimulus_id,Spreadsheet: expected_goal,Spreadsheet: stimulus_name,Spreadsheet: c_group,Spreadsheet: condition,Spreadsheet: paired_status,Spreadsheet: stimulus_path,Spreadsheet: block_type,Manipulation: Spreadsheet,Store: enc_test_acc,sub_label
Desktop or Laptop,Windows 10,Edge 137.0.0.0,1920x1080,1920x922,Temporal Distance Task,$${counterbalance_group},,,,,,info,BEGIN,,,,,,,0.0,,,,,,,,,,,,,,,,,,,,sub-38
Desktop or Laptop,Windows 10,Edge 137.0.0.0,1920x1080,1920x922,Temporal Distance Task,cb_08,1.0,temp_instructions,intro_screen,3tnme7,1.0,continue,,8356.200000095367,8347.2,8356.200000095367,8356.200000095367,8347.2,8356.200000095367,1.0,0.0,0.0,,Click To Continue,Continue Button,4.0,object-29,temp_instructions,,,Travel,,,,,,,,,sub-38
Desktop or Laptop,Windows 10,Edge 137.0.0.0,1920x1080,1920x922,Temporal Distance Task,cb_08,1.0,temp_instructions,intro_screen_2,52v7ur,2.0,continue,,7784.1,7780.6,7784.1,7784.1,7780.6,7784.1,1.0,0.0,0.0,,Click To Continue,Continue Button,4.0,object-39,temp_instructions,,,Travel,,,,,,,,,sub-38
Desktop or Laptop,Windows 10,Edge 137.0.0.0,1920x1080,1920x922,Temporal Distance Task,cb_08,1.0,temp_instructions,intro_screen_3,i7lvwx,3.0,continue,,4435.4000000953665,4431.9000000000015,4435.4000000953665,4435.4000000953665,4431.9000000000015,4435.4000000953665,1.0,0.0,0.0,,Click To Continue,Continue Button,4.0,object-67,temp_instructions,,,Travel,,,,,,,,,sub-38
Desktop or Laptop,Windows 10,Edge 137.0.0.0,1920x1080,1920x922,Temporal Distance Task,cb_08,1.0,temp_instructions,test_q1,5ieqx1,4.0,response,choice_3,6361.200000143051,6347.799999999997,6361.200000143051,6361.200000143051,6347.799999999997,6361.200000143051,1.0,0.0,0.0,,Click Response,choice_3,5.0,object-345,temp_instructions,,,Travel,,,,,,,,,sub-38
Desktop or Laptop,Windows 10,Edge 137.0.0.0,1920x1080,1920x922,Temporal Distance Task,cb_08,1.0,temp_instructions,score_corr,7ilvjr,5.0,continue,,942.7000000953668,933.0999999999983,942.7000000953668,942.7000000953668,933.0999999999983,942.7000000953668,1.0,0.0,0.0,,Click To Continue,Continue Button,3.0,object-23,temp_instructions,,,Travel,,,,,,,,,sub-38
Desktop or Laptop,Windows 10,Edge 137.0.0.0,1920x1080,1920x922,Temporal Distance Task,cb_08,1.0,temp_eventStart,Screen 1,dgtyxe,1.0,continue,,1703.300000143052,1699.3999999999978,1703.300000143052,1703.300000143052,1699.3999999999978,1703.300000143052,1.0,0.0,0.0,,Click To Continue,Next Button,3.0,object-43,temp_eventStart,,,Travel,,,,,,,,,sub-38
Desktop or Laptop,Windows 10,Edge 137.0.0.0,1920x1080,1920x922,Temporal Distance Task,cb_08,1.0,temp_dist_trial,num_items,zn7si1,1.0,response,2_ITEM,1298.1000001907378,1283.4000000000015,1298.1000001907378,1298.1000001907378,1283.4000000000015,1298.1000001907378,1.0,0.0,0.0,,Click Response,2_count,5.0,object-49,temp_dist_trial,1.0,t_s_23_1,travel_shared,ball cap,8.0,competing,paired,t_s_23_1.jpg,Travel,,,sub-38
Desktop or Laptop,Windows 10,Edge 137.0.0.0,1920x1080,1920x922,Temporal Distance Task,cb_08,1.0,temp_dist_trial,dist_items,qkpkxw,2.0,info,,8.600000143051147,0.0,8.600000143051147,8.600000143051147,0.0,8.600000143051147,1.0,0.0,0.0,,Slider,Slider,4.0,object-56,temp_dist_trial,1.0,t_s_23_1,travel_shared,ball cap,8.0,competing,paired,t_s_23_1.jpg,Travel,,,sub-38
Desktop or Laptop,Windows 10,Edge 137.0.0.0,1920x1080,1920x922,Temporal Distance Task,cb_08,1.0,temp_dist_trial,dist_items,qkpkxw,2.0,continue,,3540.2000000476837,3532.199999999997,3540.2000000476837,3540.2000000476837,3532.199999999997,3540.2000000476837,1.0,0.0,0.0,,Click To Continue,Next button,7.0,object-60,temp_dist_trial,1.0,t_s_23_1,travel_shared,ball cap,8.0,competing,paired,t_s_23_1.jpg,Travel,,,sub-38
Desktop or Laptop,Windows 10,Edge 137.0.0.0,1920x1080,1920x922,Temporal Distance Task,cb_08,1.0,temp_dist_trial,dist_items,qkpkxw,2.0,response,58,2299.300000000003,3532.199999999997,3541.800000190735,2299.300000000003,3532.199999999997,3541.800000190735,1.0,1242.500000190732,0.0,,Slider,Slider,4.0,object-56,temp_dist_trial,1.0,t_s_23_1,travel_shared,ball cap,8.0,competing,paired,t_s_23_1.jpg,Travel,,,sub-38
Desktop or Laptop,Windows 10,Edge 137.0.0.0,1920x1080,1920x922,Temporal Distance Task,cb_08,2.0,temp_dist_trial,num_items,zn7si1,1.0,response,2_ITEM,1345.900000143054,1332.8000000000031,1345.900000143054,1345.900000143054,1332.8000000000031,1345.900000143054,1.0,0.0,0.0,,Click Response,2_count,5.0,object-49,temp_dist_trial,2.0,t_s_20_1,travel_shared,travel pill case,8.0,competing,paired,t_s_20_1.jpg,Travel,,,sub-38
Desktop or Laptop,Windows 10,Edge 137.0.0.0,1920x1080,1920x922,Temporal Distance Task,cb_08,2.0,temp_dist_trial,dist_items,qkpkxw,2.0,info,,4.100000095364522,0.0,4.100000095364522,4.100000095364522,0.0,4.100000095364522,1.0,0.0,0.0,,Slider,Slider,4.0,object-56,temp_dist_trial,2.0,t_s_20_1,travel_shared,travel pill case,8.0,competing,paired,t_s_20_1.jpg,Travel,,,sub-38
Desktop or Laptop,Windows 10,Edge 137.0.0.0,1920x1080,1920x922,Temporal Distance Task,cb_08,2.0,temp_dist_trial,dist_items,qkpkxw,2.0,continue,,1540.3000001430485,1533.0999999999985,1540.3000001430485,1540.3000001430485,1533.0999999999985,1540.3000001430485,1.0,0.0,0.0,,Click To Continue,Next button,7.0,object-60,temp_dist_trial,2.0,t_s_20_1,travel_shared,travel pill case,8.0,competing,paired,t_s_20_1.jpg,Travel,,,sub-38
Desktop or Laptop,Windows 10,Edge 137.0.0.0,1920x1080,1920x922,Temporal Distance Task,cb_08,2.0,temp_dist_trial,dist_items,qkpkxw,2.0,response,41,600.0,1533.0999999999985,1549.9000000000015,600.0,1533.0999999999985,1549.9000000000015,1.0,949.9000000000017,0.0,,Slider,Slider,4.0,object-56,temp_dist_trial,2.0,t_s_20_1,travel_shared,travel pill case,8.0,competing,paired,t_s_20_1.jpg,Travel,,,sub-38
Desktop or Laptop,Windows 10,Edge 137.0.0.0,1920x1080,1920x922,Temporal Distance Task,cb_08,3.0,temp_dist_trial,num_items,zn7si1,1.0,response,2_ITEM,828.0999999999983,816.4000000000017,828.0999999999983,828.0999999999983,816.4000000000017,828.0999999999983,1.0,0.0,0.0,,Click Response,2_count,5.0,object-49,temp_dist_trial,3.0,t_s_17_1,travel_shared,toothbrush,8.0,competing,paired,t_s_17_1.jpg,Travel,,,sub-38
Desktop or Laptop,Windows 10,Edge 137.0.0.0,1920x1080,1920x922,Temporal Distance Task,cb_08,3.0,temp_dist_trial,dist_items,qkpkxw,2.0,info,,10.600000047685171,0.0,10.600000047685171,10.600000047685171,0.0,10.600000047685171,1.0,0.0,0.0,,Slider,Slider,4.0,object-56,temp_dist_trial,3.0,t_s_17_1,travel_shared,toothbrush,8.0,competing,paired,t_s_17_1.jpg,Travel,,,sub-38
Desktop or Laptop,Windows 10,Edge 137.0.0.0,1920x1080,1920x922,Temporal Distance Task,cb_08,3.0,temp_dist_trial,dist_items,qkpkxw,2.0,continue,,2294.500000143053,2282.5999999999985,2294.500000143053,2294.500000143053,2282.5999999999985,2294.500000143053,1.0,0.0,0.0,,Click To Continue,Next button,7.0,object-60,temp_dist_trial,3.0,t_s_17_1,travel_shared,toothbrush,8.0,competing,paired,t_s_17_1.jpg,Travel,,,sub-38
Desktop or Laptop,Windows 10,Edge 137.0.0.0,1920x1080,1920x922,Temporal Distance Task,cb_08,3.0,temp_dist_trial,dist_items,qkpkxw,2.0,response,39,699.7000000000045,2282.5999999999985,2295.6000000476847,699.7000000000045,2282.5999999999985,2295.6000000476847,1.0,1595.9000000476804,0.0,,Slider,Slider,4.0,object-56,temp_dist_trial,3.0,t_s_17_1,travel_shared,toothbrush,8.0,competing,paired,t_s_17_1.jpg,Travel,,,sub-38
Desktop or Laptop,Windows 10,Edge 137.0.0.0,1920x1080,1920x922,Temporal Distance Task,cb_08,4.0,temp_dist_trial,num_items,zn7si1,1.0,response,2_ITEM,1403.5000000476864,1399.5,1403.5000000476864,1403.5000000476864,1399.5,1403.5000000476864,1.0,0.0,0.0,,Click Response,2_count,5.0,object-49,temp_dist_trial,4.0,t_m_08_1,travel_Miami,flipflops,8.0,unique,paired,t_m_08_1.jpg,Travel,,,sub-38
Desktop or Laptop,Windows 10,Edge 137.0.0.0,1920x1080,1920x922,Temporal Distance Task,cb_08,4.0,temp_dist_trial,dist_items,qkpkxw,2.0,info,,10.300000095368887,0.0,10.300000095368887,10.300000095368887,0.0,10.300000095368887,1.0,0.0,0.0,,Slider,Slider,4.0,object-56,temp_dist_trial,4.0,t_m_08_1,travel_Miami,flipflops,8.0,unique,paired,t_m_08_1.jpg,Travel,,,sub-38
Desktop or Laptop,Windows 10,Edge 137.0.0.0,1920x1080,1920x922,Temporal Distance Task,cb_08,4.0,temp_dist_trial,dist_items,qkpkxw,2.0,continue,,1975.2000001907363,1966.0999999999985,1975.2000001907363,1975.2000001907363,1966.0999999999985,1975.2000001907363,1.0,0.0,0.0,,Click To Continue,Next button,7.0,object-60,temp_dist_trial,4.0,t_m_08_1,travel_Miami,flipflops,8.0,unique,paired,t_m_08_1.jpg,Travel,,,sub-38
Desktop or Laptop,Windows 10,Edge 137.0.0.0,1920x1080,1920x922,Temporal Distance Task,cb_08,4.0,temp_dist_trial,dist_items,qkpkxw,2.0,response,31,949.7000000000045,1966.0999999999985,1976.800000095369,949.7000000000045,1966.0999999999985,1976.800000095369,1.0,1027.1000000953643,0.0,,Slider,Slider,4.0,object-56,temp_dist_trial,4.0,t_m_08_1,travel_Miami,flipflops,8.0,unique,paired,t_m_08_1.jpg,Travel,,,sub-38
Desktop or Laptop,Windows 10,Edge 137.0.0.0,1920x1080,1920x922,Temporal Distance Task,cb_08,5.0,temp_dist_trial,num_items,zn7si1,1.0,response,2_ITEM,866.1000001907378,849.6000000000058,866.1000001907378,866.1000001907378,849.6000000000058,866.1000001907378,1.0,0.0,0.0,,Click Response,2_count,5.0,object-49,temp_dist_trial,5.0,t_s_03_1,travel_shared,portable charger,8.0,competing,single,t_s_03_1.jpg,Travel,,,sub-38
Desktop or Laptop,Windows 10,Edge 137.0.0.0,1920x1080,1920x922,Temporal Distance Task,cb_08,5.0,temp_dist_trial,dist_items,qkpkxw,2.0,info,,8.500000047686626,0.0,8.500000047686626,8.500000047686626,0.0,8.500000047686626,1.0,0.0,0.0,,Slider,Slider,4.0,object-56,temp_dist_trial,5.0,t_s_03_1,travel_shared,portable charger,8.0,competing,single,t_s_03_1.jpg,Travel,,,sub-38
Desktop or Laptop,Windows 10,Edge 137.0.0.0,1920x1080,1920x922,Temporal Distance Task,cb_08,5.0,temp_dist_trial,dist_items,qkpkxw,2.0,continue,,3015.699999999997,2999.0,3015.699999999997,3015.699999999997,2999.0,3015.699999999997,1.0,0.0,0.0,,Click To Continue,Next button,7.0,object-60,temp_dist_trial,5.0,t_s_03_1,travel_shared,portable charger,8.0,competing,single,t_s_03_1.jpg,Travel,,,sub-38
Desktop or Laptop,Windows 10,Edge 137.0.0.0,1920x1080,1920x922,Temporal Distance Task,cb_08,5.0,temp_dist_trial,dist_items,qkpkxw,2.0,response,42,1382.9000000000015,2999.0,3015.699999999997,1382.9000000000015,2999.0,3015.699999999997,1.0,1632.7999999999954,0.0,,Slider,Slider,4.0,object-56,temp_dist_trial,5.0,t_s_03_1,travel_shared,portable charger,8.0,competing,single,t_s_03_1.jpg,Travel,,,sub-38
Desktop or Laptop,Windows 10,Edge 137.0.0.0,1920x1080,1920x922,Temporal Distance Task,cb_08,6.0,temp_dist_trial,num_items,zn7si1,1.0,response,2_ITEM,1115.400000143054,1099.7000000000044,1115.400000143054,1115.400000143054,1099.7000000000044,1115.400000143054,1.0,0.0,0.0,,Click Response,2_count,5.0,object-49,temp_dist_trial,6.0,t_s_24_1,travel_shared,ear plugs,8.0,competing,paired,t_s_24_1.jpg,Travel,,,sub-38
Desktop or Laptop,Windows 10,Edge 137.0.0.0,1920x1080,1920x922,Temporal Distance Task,cb_08,6.0,temp_dist_trial,dist_items,qkpkxw,2.0,info,,9.700000095370342,0.0,9.700000095370342,9.700000095370342,0.0,9.700000095370342,1.0,0.0,0.0,,Slider,Slider,4.0,object-56,temp_dist_trial,6.0,t_s_24_1,travel_shared,ear plugs,8.0,competing,paired,t_s_24_1.jpg,Travel,,,sub-38
Desktop or Laptop,Windows 10,Edge 137.0.0.0,1920x1080,1920x922,Temporal Distance Task,cb_08,6.0,temp_dist_trial,dist_items,qkpkxw,2.0,continue,,2260.0000000476866,2249.300000000003,2260.0000000476866,2260.0000000476866,2249.300000000003,2260.0000000476866,1.0,0.0,0.0,,Click To Continue,Next button,7.0,object-60,temp_dist_trial,6.0,t_s_24_1,travel_shared,ear plugs,8.0,competing,paired,t_s_24_1.jpg,Travel,,,sub-38
Desktop or Laptop,Windows 10,Edge 137.0.0.0,1920x1080,1920x922,Temporal Distance Task,cb_08,6.0,temp_dist_trial,dist_items,qkpkxw,2.0,response,26,683.1000000000057,2249.300000000003,2260.900000143054,683.1000000000057,2249.300000000003,2260.900000143054,1.0,1577.8000001430485,0.0,,Slider,Slider,4.0,object-56,temp_dist_trial,6.0,t_s_24_1,travel_shared,ear plugs,8.0,competing,paired,t_s_24_1.jpg,Travel,,,sub-38
Desktop or Laptop,Windows 10,Edge 137.0.0.0,1920x1080,1920x922,Temporal Distance Task,cb_08,7.0,temp_dist_trial,num_items,zn7si1,1.0,response,2_ITEM,991.6000001430513,983.0,991.6000001430513,991.6000001430513,983.0,991.6000001430513,1.0,0.0,0.0,,Click Response,2_count,5.0,object-49,temp_dist_trial,7.0,t_i_12_1,travel_Iceland,tent,8.0,unique,paired,t_i_12_1.jpg,Travel,,,sub-38
Desktop or Laptop,Windows 10,Edge 137.0.0.0,1920x1080,1920x922,Temporal Distance Task,cb_08,7.0,temp_dist_trial,dist_items,qkpkxw,2.0,info,,9.500000190731953,0.0,9.500000190731953,9.500000190731953,0.0,9.500000190731953,1.0,0.0,0.0,,Slider,Slider,4.0,object-56,temp_dist_trial,7.0,t_i_12_1,travel_Iceland,tent,8.0,unique,paired,t_i_12_1.jpg,Travel,,,sub-38
Desktop or Laptop,Windows 10,Edge 137.0.0.0,1920x1080,1920x922,Temporal Distance Task,cb_08,7.0,temp_dist_trial,dist_items,qkpkxw,2.0,continue,,1120.9000000476808,1116.5,1120.9000000476808,1120.9000000476808,1116.5,1120.9000000476808,1.0,0.0,0.0,,Click To Continue,Next button,7.0,object-60,temp_dist_trial,7.0,t_i_12_1,travel_Iceland,tent,8.0,unique,paired,t_i_12_1.jpg,Travel,,,sub-38
Desktop or Laptop,Windows 10,Edge 137.0.0.0,1920x1080,1920x922,Temporal Distance Task,cb_08,7.0,temp_dist_trial,dist_items,qkpkxw,2.0,response,38,433.29999999999563,1116.5,1122.1999999999969,433.29999999999563,1116.5,1122.1999999999969,1.0,688.9000000000017,0.0,,Slider,Slider,4.0,object-56,temp_dist_trial,7.0,t_i_12_1,travel_Iceland,tent,8.0,unique,paired,t_i_12_1.jpg,Travel,,,sub-38
Desktop or Laptop,Windows 10,Edge 137.0.0.0,1920x1080,1920x922,Temporal Distance Task,cb_08,8.0,temp_dist_trial,num_items,zn7si1,1.0,response,2_ITEM,1522.3000001430485,1515.8999999999942,1522.3000001430485,1522.3000001430485,1515.8999999999942,1522.3000001430485,1.0,0.0,0.0,,Click Response,2_count,5.0,object-49,temp_dist_trial,8.0,t_s_10_1,travel_shared,luggage lock,8.0,competing,paired,t_s_10_1.jpg,Travel,,,sub-38
Desktop or Laptop,Windows 10,Edge 137.0.0.0,1920x1080,1920x922,Temporal Distance Task,cb_08,8.0,temp_dist_trial,dist_items,qkpkxw,2.0,info,,11.19999999999709,0.0,11.19999999999709,11.19999999999709,0.0,11.19999999999709,1.0,0.0,0.0,,Slider,Slider,4.0,object-56,temp_dist_trial,8.0,t_s_10_1,travel_shared,luggage lock,8.0,competing,paired,t_s_10_1.jpg,Travel,,,sub-38
Desktop or Laptop,Windows 10,Edge 137.0.0.0,1920x1080,1920x922,Temporal Distance Task,cb_08,8.0,temp_dist_trial,dist_items,qkpkxw,2.0,continue,,1116.1999999999969,1099.5999999999983,1116.1999999999969,1116.1999999999969,1099.5999999999983,1116.1999999999969,1.0,0.0,0.0,,Click To Continue,Next button,7.0,object-60,temp_dist_trial,8.0,t_s_10_1,travel_shared,luggage lock,8.0,competing,paired,t_s_10_1.jpg,Travel,,,sub-38
Desktop or Laptop,Windows 10,Edge 137.0.0.0,1920x1080,1920x922,Temporal Distance Task,cb_08,8.0,temp_dist_trial,dist_items,qkpkxw,2.0,response,37,649.6999999999971,1099.5999999999983,1116.1999999999969,649.6999999999971,1099.5999999999983,1116.1999999999969,1.0,466.5,0.0,,Slider,Slider,4.0,object-56,temp_dist_trial,8.0,t_s_10_1,travel_shared,luggage lock,8.0,competing,paired,t_s_10_1.jpg,Travel,,,sub-38
Desktop or Laptop,Windows 10,Edge 137.0.0.0,1920x1080,1920x922,Temporal Distance Task,cb_08,9.0,temp_dist_trial,num_items,zn7si1,1.0,response,1_ITEM,1979.8000000476825,1966.0,1979.8000000476825,1979.8000000476825,1966.0,1979.8000000476825,1.0,0.0,0.0,,Click Response,1_count,3.0,object-46,temp_dist_trial,9.0,t_m_20_1,travel_Miami,inflatable beachball,8.0,unique,single,t_m_20_1.jpg,Travel,,,sub-38
Desktop or Laptop,Windows 10,Edge 137.0.0.0,1920x1080,1920x922,Temporal Distance Task,cb_08,10.0,temp_dist_trial,num_items,zn7si1,1.0,response,1_ITEM,1705.8000001430485,1699.5,1705.8000001430485,1705.8000001430485,1699.5,1705.8000001430485,1.0,0.0,0.0,,Click Response,1_count,3.0,object-46,temp_dist_trial,10.0,t_i_03_1,travel_Iceland,winter jacket,8.0,unique,single,t_i_03_1.jpg,Travel,,,sub-38
Desktop or Laptop,Windows 10,Edge 137.0.0.0,1920x1080,1920x922,Temporal Distance Task,cb_08,11.0,temp_dist_trial,num_items,zn7si1,1.0,response,2_ITEM,894.8000001907349,883.1999999999971,894.8000001907349,894.8000001907349,883.1999999999971,894.8000001907349,1.0,0.0,0.0,,Click Response,2_count,5.0,object-49,temp_dist_trial,11.0,t_s_22_1,travel_shared,belt,8.0,competing,paired,t_s_22_1.jpg,Travel,,,sub-38
Desktop or Laptop,Windows 10,Edge 137.0.0.0,1920x1080,1920x922,Temporal Distance Task,cb_08,11.0,temp_dist_trial,dist_items,qkpkxw,2.0,info,,10.100000047677897,0.0,10.100000047677897,10.100000047677897,0.0,10.100000047677897,1.0,0.0,0.0,,Slider,Slider,4.0,object-56,temp_dist_trial,11.0,t_s_22_1,travel_shared,belt,8.0,competing,paired,t_s_22_1.jpg,Travel,,,sub-38
Desktop or Laptop,Windows 10,Edge 137.0.0.0,1920x1080,1920x922,Temporal Distance Task,cb_08,11.0,temp_dist_trial,dist_items,qkpkxw,2.0,continue,,1577.600000047678,1566.1999999999966,1577.600000047678,1577.600000047678,1566.1999999999966,1577.600000047678,1.0,0.0,0.0,,Click To Continue,Next button,7.0,object-60,temp_dist_trial,11.0,t_s_22_1,travel_shared,belt,8.0,competing,paired,t_s_22_1.jpg,Travel,,,sub-38
Desktop or Laptop,Windows 10,Edge 137.0.0.0,1920x1080,1920x922,Temporal Distance Task,cb_08,11.0,temp_dist_trial,dist_items,qkpkxw,2.0,response,59,516.3999999999942,1566.1999999999966,1578.3999999999942,516.3999999999942,1566.1999999999966,1578.3999999999942,1.0,1062.0,0.0,,Slider,Slider,4.0,object-56,temp_dist_trial,11.0,t_s_22_1,travel_shared,belt,8.0,competing,paired,t_s_22_1.jpg,Travel,,,sub-38
Desktop or Laptop,Windows 10,Edge 137.0.0.0,1920x1080,1920x922,Temporal Distance Task,cb_08,12.0,temp_dist_trial,num_items,zn7si1,1.0,response,2_ITEM,1222.1000000953645,1216.1999999999969,1222.1000000953645,1222.1000000953645,1216.1999999999969,1222.1000000953645,1.0,0.0,0.0,,Click Response,2_count,5.0,object-49,temp_dist_trial,12.0,t_s_05_1,travel_shared,neck pillow,8.0,competing,paired,t_s_05_1.jpg,Travel,,,sub-38
Desktop or Laptop,Windows 10,Edge 137.0.0.0,1920x1080,1920x922,Temporal Distance Task,cb_08,12.0,temp_dist_trial,dist_items,qkpkxw,2.0,info,,6.600000095364523,0.0,6.600000095364523,6.600000095364523,0.0,6.600000095364523,1.0,0.0,0.0,,Slider,Slider,4.0,object-56,temp_dist_trial,12.0,t_s_05_1,travel_shared,neck pillow,8.0,competing,paired,t_s_05_1.jpg,Travel,,,sub-38
Desktop or Laptop,Windows 10,Edge 137.0.0.0,1920x1080,1920x922,Temporal Distance Task,cb_08,12.0,temp_dist_trial,dist_items,qkpkxw,2.0,continue,,1241.1000000953645,1233.0,1241.1000000953645,1241.1000000953645,1233.0,1241.1000000953645,1.0,0.0,0.0,,Click To Continue,Next button,7.0,object-60,temp_dist_trial,12.0,t_s_05_1,travel_shared,neck pillow,8.0,competing,paired,t_s_05_1.jpg,Travel,,,sub-38
Desktop or Laptop,Windows 10,Edge 137.0.0.0,1920x1080,1920x922,Temporal Distance Task,cb_08,12.0,temp_dist_trial,dist_items,qkpkxw,2.0,response,21,433.1999999999971,1233.0,1242.6999999999969,433.1999999999971,1233.0,1242.6999999999969,1.0,809.5,0.0,,Slider,Slider,4.0,object-56,temp_dist_trial,12.0,t_s_05_1,travel_shared,neck pillow,8.0,competing,paired,t_s_05_1.jpg,Travel,,,sub-38
Desktop or Laptop,Windows 10,Edge 137.0.0.0,1920x1080,1920x922,Temporal Distance Task,cb_08,13.0,temp_dist_trial,num_items,zn7si1,1.0,response,2_ITEM,846.3000001430482,833.0,846.3000001430482,846.3000001430482,833.0,846.3000001430482,1.0,0.0,0.0,,Click Response,2_count,5.0,object-49,temp_dist_trial,13.0,t_s_19_1,travel_shared,pajamas,8.0,competing,paired,t_s_19_1.jpg,Travel,,,sub-38
Desktop or Laptop,Windows 10,Edge 137.0.0.0,1920x1080,1920x922,Temporal Distance Task,cb_08,13.0,temp_dist_trial,dist_items,qkpkxw,2.0,info,,3.8000000953616113,0.0,3.8000000953616113,3.8000000953616113,0.0,3.8000000953616113,1.0,0.0,0.0,,Slider,Slider,4.0,object-56,temp_dist_trial,13.0,t_s_19_1,travel_shared,pajamas,8.0,competing,paired,t_s_19_1.jpg,Travel,,,sub-38
Desktop or Laptop,Windows 10,Edge 137.0.0.0,1920x1080,1920x922,Temporal Distance Task,cb_08,13.0,temp_dist_trial,dist_items,qkpkxw,2.0,continue,,1531.5000001430453,1516.2999999999884,1531.5000001430453,1531.5000001430453,1516.2999999999884,1531.5000001430453,1.0,0.0,0.0,,Click To Continue,Next button,7.0,object-60,temp_dist_trial,13.0,t_s_19_1,travel_shared,pajamas,8.0,competing,paired,t_s_19_1.jpg,Travel,,,sub-38
Desktop or Laptop,Windows 10,Edge 137.0.0.0,1920x1080,1920x922,Temporal Distance Task,cb_08,13.0,temp_dist_trial,dist_items,qkpkxw,2.0,response,69,849.8999999999942,1516.2999999999884,1532.8999999999796,849.8999999999942,1516.2999999999884,1532.8999999999796,1.0,682.9999999999852,0.0,,Slider,Slider,4.0,object-56,temp_dist_trial,13.0,t_s_19_1,travel_shared,pajamas,8.0,competing,paired,t_s_19_1.jpg,Travel,,,sub-38
Desktop or Laptop,Windows 10,Edge 137.0.0.0,1920x1080,1920x922,Temporal Distance Task,cb_08,14.0,temp_dist_trial,num_items,zn7si1,1.0,response,2_ITEM,816.5,799.8000000000029,816.5,816.5,799.8000000000029,816.5,1.0,0.0,0.0,,Click Response,2_count,5.0,object-49,temp_dist_trial,14.0,t_m_09_1,travel_Miami,beach towel,8.0,unique,paired,t_m_09_1.jpg,Travel,,,sub-38
Desktop or Laptop,Windows 10,Edge 137.0.0.0,1920x1080,1920x922,Temporal Distance Task,cb_08,14.0,temp_dist_trial,dist_items,qkpkxw,2.0,info,,10.10000014305115,0.0,10.10000014305115,10.10000014305115,0.0,10.10000014305115,1.0,0.0,0.0,,Slider,Slider,4.0,object-56,temp_dist_trial,14.0,t_m_09_1,travel_Miami,beach towel,8.0,unique,paired,t_m_09_1.jpg,Travel,,,sub-38
Desktop or Laptop,Windows 10,Edge 137.0.0.0,1920x1080,1920x922,Temporal Distance Task,cb_08,14.0,temp_dist_trial,dist_items,qkpkxw,2.0,continue,,2799.199999999997,2782.5,2799.199999999997,2799.199999999997,2782.5,2799.199999999997,1.0,0.0,0.0,,Click To Continue,Next button,7.0,object-60,temp_dist_trial,14.0,t_m_09_1,travel_Miami,beach towel,8.0,unique,paired,t_m_09_1.jpg,Travel,,,sub-38
Desktop or Laptop,Windows 10,Edge 137.0.0.0,1920x1080,1920x922,Temporal Distance Task,cb_08,14.0,temp_dist_trial,dist_items,qkpkxw,2.0,response,39,2099.3999999999937,2782.5,2799.199999999997,2099.3999999999937,2782.5,2799.199999999997,1.0,699.8000000000029,0.0,,Slider,Slider,4.0,object-56,temp_dist_trial,14.0,t_m_09_1,travel_Miami,beach towel,8.0,unique,paired,t_m_09_1.jpg,Travel,,,sub-38
Desktop or Laptop,Windows 10,Edge 137.0.0.0,1920x1080,1920x922,Temporal Distance Task,cb_08,15.0,temp_dist_trial,num_items,zn7si1,1.0,response,1_ITEM,2457.200000047684,2449.1000000000063,2457.200000047684,2457.200000047684,2449.1000000000063,2457.200000047684,1.0,0.0,0.0,,Click Response,1_count,3.0,object-46,temp_dist_trial,15.0,t_s_21_1,travel_shared,umbrella,8.0,competing,single,t_s_21_1.jpg,Travel,,,sub-38
Desktop or Laptop,Windows 10,Edge 137.0.0.0,1920x1080,1920x922,Temporal Distance Task,cb_08,16.0,temp_dist_trial,num_items,zn7si1,1.0,response,1_ITEM,1274.000000143045,1266.1999999999969,1274.000000143045,1274.000000143045,1266.1999999999969,1274.000000143045,1.0,0.0,0.0,,Click Response,1_count,3.0,object-46,temp_dist_trial,16.0,t_m_14_1,travel_Miami,swim goggles,8.0,unique,single,t_m_14_1.jpg,Travel,,,sub-38
Desktop or Laptop,Windows 10,Edge 137.0.0.0,1920x1080,1920x922,Temporal Distance Task,cb_08,17.0,temp_dist_trial,num_items,zn7si1,1.0,response,2_ITEM,1244.900000143054,1233.0,1244.900000143054,1244.900000143054,1233.0,1244.900000143054,1.0,0.0,0.0,,Click Response,2_count,5.0,object-49,temp_dist_trial,17.0,t_m_05_1,travel_Miami,sunscreen,8.0,unique,paired,t_m_05_1.jpg,Travel,,,sub-38
Desktop or Laptop,Windows 10,Edge 137.0.0.0,1920x1080,1920x922,Temporal Distance Task,cb_08,17.0,temp_dist_trial,dist_items,qkpkxw,2.0,info,,10.60000014305115,0.0,10.60000014305115,10.60000014305115,0.0,10.60000014305115,1.0,0.0,0.0,,Slider,Slider,4.0,object-56,temp_dist_trial,17.0,t_m_05_1,travel_Miami,sunscreen,8.0,unique,paired,t_m_05_1.jpg,Travel,,,sub-38
Desktop or Laptop,Windows 10,Edge 137.0.0.0,1920x1080,1920x922,Temporal Distance Task,cb_08,17.0,temp_dist_trial,dist_items,qkpkxw,2.0,continue,,1933.8000000000175,1916.6000000000056,1933.8000000000175,1933.8000000000175,1916.6000000000056,1933.8000000000175,1.0,0.0,0.0,,Click To Continue,Next button,7.0,object-60,temp_dist_trial,17.0,t_m_05_1,travel_Miami,sunscreen,8.0,unique,paired,t_m_05_1.jpg,Travel,,,sub-38
Desktop or Laptop,Windows 10,Edge 137.0.0.0,1920x1080,1920x922,Temporal Distance Task,cb_08,17.0,temp_dist_trial,dist_items,qkpkxw,2.0,response,58,1016.3999999999942,1916.6000000000056,1933.8000000000175,1016.3999999999942,1916.6000000000056,1933.8000000000175,1.0,917.4000000000232,0.0,,Slider,Slider,4.0,object-56,temp_dist_trial,17.0,t_m_05_1,travel_Miami,sunscreen,8.0,unique,paired,t_m_05_1.jpg,Travel,,,sub-38
Desktop or Laptop,Windows 10,Edge 137.0.0.0,1920x1080,1920x922,Temporal Distance Task,cb_08,18.0,temp_dist_trial,num_items,zn7si1,1.0,response,1_ITEM,1752.200000190729,1748.8999999999942,1752.200000190729,1752.200000190729,1748.8999999999942,1752.200000190729,1.0,0.0,0.0,,Click Response,1_count,3.0,object-46,temp_dist_trial,18.0,t_i_07_1,travel_Iceland,hiking backpack,8.0,unique,single,t_i_07_1.jpg,Travel,,,sub-38
Desktop or Laptop,Windows 10,Edge 137.0.0.0,1920x1080,1920x922,Temporal Distance Task,cb_08,19.0,temp_dist_trial,num_items,zn7si1,1.0,response,1_ITEM,2381.200000143057,2365.9000000000087,2381.200000143057,2381.200000143057,2365.9000000000087,2381.200000143057,1.0,0.0,0.0,,Click Response,1_count,3.0,object-46,temp_dist_trial,19.0,t_m_13_1,travel_Miami,floatie,8.0,unique,paired,t_m_13_1.jpg,Travel,,,sub-38
Desktop or Laptop,Windows 10,Edge 137.0.0.0,1920x1080,1920x922,Temporal Distance Task,cb_08,20.0,temp_dist_trial,num_items,zn7si1,1.0,response,1_ITEM,1023.8999999999942,1016.3999999999942,1023.8999999999942,1023.8999999999942,1016.3999999999942,1023.8999999999942,1.0,0.0,0.0,,Click Response,1_count,3.0,object-46,temp_dist_trial,20.0,t_s_14_1,travel_shared,hand sanitizer,8.0,competing,single,t_s_14_1.jpg,Travel,,,sub-38
Desktop or Laptop,Windows 10,Edge 137.0.0.0,1920x1080,1920x922,Temporal Distance Task,cb_08,21.0,temp_dist_trial,num_items,zn7si1,1.0,response,num_miss,2999.0,2999.0,2999.0,2999.0,2999.0,2999.0,1.0,0.0,0.0,num_miss_tag,Time Limit,screen,0.0,screen,temp_dist_trial,21.0,t_s_12_1,travel_shared,clear toiletry bag,8.0,competing,single,t_s_12_1.jpg,Travel,,,sub-38
Desktop or Laptop,Windows 10,Edge 137.0.0.0,1920x1080,1920x922,Temporal Distance Task,cb_08,22.0,temp_dist_trial,num_items,zn7si1,1.0,response,1_ITEM,1429.2000000953706,1416.1999999999966,1429.2000000953706,1429.2000000953706,1416.1999999999966,1429.2000000953706,1.0,0.0,0.0,,Click Response,1_count,3.0,object-46,temp_dist_trial,22.0,t_s_01_1,travel_shared,fanny pack,8.0,competing,paired,t_s_01_1.jpg,Travel,,,sub-38
Desktop or Laptop,Windows 10,Edge 137.0.0.0,1920x1080,1920x922,Temporal Distance Task,cb_08,23.0,temp_dist_trial,num_items,zn7si1,1.0,response,2_ITEM,1202.5000000476864,1199.6000000000058,1202.5000000476864,1202.5000000476864,1199.6000000000058,1202.5000000476864,1.0,0.0,0.0,,Click Response,2_count,5.0,object-49,temp_dist_trial,23.0,t_s_02_1,travel_shared,water bottle,8.0,competing,single,t_s_02_1.jpg,Travel,,,sub-38
Desktop or Laptop,Windows 10,Edge 137.0.0.0,1920x1080,1920x922,Temporal Distance Task,cb_08,23.0,temp_dist_trial,dist_items,qkpkxw,2.0,info,,11.19999999999709,0.0,11.19999999999709,11.19999999999709,0.0,11.19999999999709,1.0,0.0,0.0,,Slider,Slider,4.0,object-56,temp_dist_trial,23.0,t_s_02_1,travel_shared,water bottle,8.0,competing,single,t_s_02_1.jpg,Travel,,,sub-38
Desktop or Laptop,Windows 10,Edge 137.0.0.0,1920x1080,1920x922,Temporal Distance Task,cb_08,23.0,temp_dist_trial,dist_items,qkpkxw,2.0,continue,,3278.699999999997,3265.5,3278.699999999997,3278.699999999997,3265.5,3278.699999999997,1.0,0.0,0.0,,Click To Continue,Next button,7.0,object-60,temp_dist_trial,23.0,t_s_02_1,travel_shared,water bottle,8.0,competing,single,t_s_02_1.jpg,Travel,,,sub-38
Desktop or Laptop,Windows 10,Edge 137.0.0.0,1920x1080,1920x922,Temporal Distance Task,cb_08,23.0,temp_dist_trial,dist_items,qkpkxw,2.0,response,32,1199.5999999999913,3265.5,3279.699999999997,1199.5999999999913,3265.5,3279.699999999997,1.0,2080.1000000000063,0.0,,Slider,Slider,4.0,object-56,temp_dist_trial,23.0,t_s_02_1,travel_shared,water bottle,8.0,competing,single,t_s_02_1.jpg,Travel,,,sub-38
Desktop or Laptop,Windows 10,Edge 137.0.0.0,1920x1080,1920x922,Temporal Distance Task,cb_08,24.0,temp_dist_trial,num_items,zn7si1,1.0,response,2_ITEM,893.3000001430482,883.1999999999971,893.3000001430482,893.3000001430482,883.1999999999971,893.3000001430482,1.0,0.0,0.0,,Click Response,2_count,5.0,object-49,temp_dist_trial,24.0,t_m_06_1,travel_Miami,handheld fan,8.0,unique,paired,t_m_06_1.jpg,Travel,,,sub-38
Desktop or Laptop,Windows 10,Edge 137.0.0.0,1920x1080,1920x922,Temporal Distance Task,cb_08,24.0,temp_dist_trial,dist_items,qkpkxw,2.0,info,,6.500000190731952,0.0,6.500000190731952,6.500000190731952,0.0,6.500000190731952,1.0,0.0,0.0,,Slider,Slider,4.0,object-56,temp_dist_trial,24.0,t_m_06_1,travel_Miami,handheld fan,8.0,unique,paired,t_m_06_1.jpg,Travel,,,sub-38
Desktop or Laptop,Windows 10,Edge 137.0.0.0,1920x1080,1920x922,Temporal Distance Task,cb_08,24.0,temp_dist_trial,dist_items,qkpkxw,2.0,continue,,1451.4000000476804,1449.5,1451.4000000476804,1451.4000000476804,1449.5,1451.4000000476804,1.0,0.0,0.0,,Click To Continue,Next button,7.0,object-60,temp_dist_trial,24.0,t_m_06_1,travel_Miami,handheld fan,8.0,unique,paired,t_m_06_1.jpg,Travel,,,sub-38
Desktop or Laptop,Windows 10,Edge 137.0.0.0,1920x1080,1920x922,Temporal Distance Task,cb_08,24.0,temp_dist_trial,dist_items,qkpkxw,2.0,response,56,599.8000000000029,1449.5,1452.6000000953643,599.8000000000029,1449.5,1452.6000000953643,1.0,852.8000000953616,0.0,,Slider,Slider,4.0,object-56,temp_dist_trial,24.0,t_m_06_1,travel_Miami,handheld fan,8.0,unique,paired,t_m_06_1.jpg,Travel,,,sub-38
Desktop or Laptop,Windows 10,Edge 137.0.0.0,1920x1080,1920x922,Temporal Distance Task,cb_08,25.0,temp_dist_trial,num_items,zn7si1,1.0,response,2_ITEM,828.6000000953645,816.3000000000029,828.6000000953645,828.6000000953645,816.3000000000029,828.6000000953645,1.0,0.0,0.0,,Click Response,2_count,5.0,object-49,temp_dist_trial,25.0,t_i_16_1,travel_Iceland,skis,8.0,unique,paired,t_i_16_1.jpg,Travel,,,sub-38
Desktop or Laptop,Windows 10,Edge 137.0.0.0,1920x1080,1920x922,Temporal Distance Task,cb_08,25.0,temp_dist_trial,dist_items,qkpkxw,2.0,info,,3.4000000953674316,0.0,3.4000000953674316,3.4000000953674316,0.0,3.4000000953674316,1.0,0.0,0.0,,Slider,Slider,4.0,object-56,temp_dist_trial,25.0,t_i_16_1,travel_Iceland,skis,8.0,unique,paired,t_i_16_1.jpg,Travel,,,sub-38
Desktop or Laptop,Windows 10,Edge 137.0.0.0,1920x1080,1920x922,Temporal Distance Task,cb_08,25.0,temp_dist_trial,dist_items,qkpkxw,2.0,continue,,1383.0,1366.3000000000031,1383.0,1383.0,1366.3000000000031,1383.0,1.0,0.0,0.0,,Click To Continue,Next button,7.0,object-60,temp_dist_trial,25.0,t_i_16_1,travel_Iceland,skis,8.0,unique,paired,t_i_16_1.jpg,Travel,,,sub-38
Desktop or Laptop,Windows 10,Edge 137.0.0.0,1920x1080,1920x922,Temporal Distance Task,cb_08,25.0,temp_dist_trial,dist_items,qkpkxw,2.0,response,34,866.3999999999942,1366.3000000000031,1383.0,866.3999999999942,1366.3000000000031,1383.0,1.0,516.6000000000058,0.0,,Slider,Slider,4.0,object-56,temp_dist_trial,25.0,t_i_16_1,travel_Iceland,skis,8.0,unique,paired,t_i_16_1.jpg,Travel,,,sub-38
Desktop or Laptop,Windows 10,Edge 137.0.0.0,1920x1080,1920x922,Temporal Distance Task,cb_08,26.0,temp_dist_trial,num_items,zn7si1,1.0,response,2_ITEM,880.3000001430482,866.3999999999942,880.3000001430482,880.3000001430482,866.3999999999942,880.3000001430482,1.0,0.0,0.0,,Click Response,2_count,5.0,object-49,temp_dist_trial,26.0,t_i_01_1,travel_Iceland,gloves,8.0,unique,paired,t_i_01_1.jpg,Travel,,,sub-38
Desktop or Laptop,Windows 10,Edge 137.0.0.0,1920x1080,1920x922,Temporal Distance Task,cb_08,26.0,temp_dist_trial,dist_items,qkpkxw,2.0,info,,6.600000000005821,0.0,6.600000000005821,6.600000000005821,0.0,6.600000000005821,1.0,0.0,0.0,,Slider,Slider,4.0,object-56,temp_dist_trial,26.0,t_i_01_1,travel_Iceland,gloves,8.0,unique,paired,t_i_01_1.jpg,Travel,,,sub-38
Desktop or Laptop,Windows 10,Edge 137.0.0.0,1920x1080,1920x922,Temporal Distance Task,cb_08,26.0,temp_dist_trial,dist_items,qkpkxw,2.0,continue,,1212.6000000000058,1199.7000000000114,1212.6000000000058,1212.6000000000058,1199.7000000000114,1212.6000000000058,1.0,0.0,0.0,,Click To Continue,Next button,7.0,object-60,temp_dist_trial,26.0,t_i_01_1,travel_Iceland,gloves,8.0,unique,paired,t_i_01_1.jpg,Travel,,,sub-38
Desktop or Laptop,Windows 10,Edge 137.0.0.0,1920x1080,1920x922,Temporal Distance Task,cb_08,26.0,temp_dist_trial,dist_items,qkpkxw,2.0,response,21,683.3000000000029,1199.7000000000114,1213.1000000000058,683.3000000000029,1199.7000000000114,1213.1000000000058,1.0,529.8000000000029,0.0,,Slider,Slider,4.0,object-56,temp_dist_trial,26.0,t_i_01_1,travel_Iceland,gloves,8.0,unique,paired,t_i_01_1.jpg,Travel,,,sub-38
Desktop or Laptop,Windows 10,Edge 137.0.0.0,1920x1080,1920x922,Temporal Distance Task,cb_08,27.0,temp_dist_trial,num_items,zn7si1,1.0,response,1_ITEM,1104.200000190729,1099.6999999999969,1104.200000190729,1104.200000190729,1099.6999999999969,1104.200000190729,1.0,0.0,0.0,,Click Response,1_count,3.0,object-46,temp_dist_trial,27.0,t_m_10_1,travel_Miami,tanktop,8.0,unique,single,t_m_10_1.jpg,Travel,,,sub-38
Desktop or Laptop,Windows 10,Edge 137.0.0.0,1920x1080,1920x922,Temporal Distance Task,cb_08,28.0,temp_dist_trial,num_items,zn7si1,1.0,response,2_ITEM,946.8000000953616,933.0,946.8000000953616,946.8000000953616,933.0,946.8000000953616,1.0,0.0,0.0,,Click Response,2_count,5.0,object-49,temp_dist_trial,28.0,t_s_15_1,travel_shared,luggage tag,8.0,competing,paired,t_s_15_1.jpg,Travel,,,sub-38
Desktop or Laptop,Windows 10,Edge 137.0.0.0,1920x1080,1920x922,Temporal Distance Task,cb_08,28.0,temp_dist_trial,dist_items,qkpkxw,2.0,info,,9.600000190737774,0.0,9.600000190737774,9.600000190737774,0.0,9.600000190737774,1.0,0.0,0.0,,Slider,Slider,4.0,object-56,temp_dist_trial,28.0,t_s_15_1,travel_shared,luggage tag,8.0,competing,paired,t_s_15_1.jpg,Travel,,,sub-38
Desktop or Laptop,Windows 10,Edge 137.0.0.0,1920x1080,1920x922,Temporal Distance Task,cb_08,28.0,temp_dist_trial,dist_items,qkpkxw,2.0,continue,,1482.7000000000116,1466.1000000000058,1482.7000000000116,1482.7000000000116,1466.1000000000058,1482.7000000000116,1.0,0.0,0.0,,Click To Continue,Next button,7.0,object-60,temp_dist_trial,28.0,t_s_15_1,travel_shared,luggage tag,8.0,competing,paired,t_s_15_1.jpg,Travel,,,sub-38
Desktop or Laptop,Windows 10,Edge 137.0.0.0,1920x1080,1920x922,Temporal Distance Task,cb_08,28.0,temp_dist_trial,dist_items,qkpkxw,2.0,response,36,949.6999999999972,1466.1000000000058,1482.7000000000116,949.6999999999972,1466.1000000000058,1482.7000000000116,1.0,533.0000000000148,0.0,,Slider,Slider,4.0,object-56,temp_dist_trial,28.0,t_s_15_1,travel_shared,luggage tag,8.0,competing,paired,t_s_15_1.jpg,Travel,,,sub-38
Desktop or Laptop,Windows 10,Edge 137.0.0.0,1920x1080,1920x922,Temporal Distance Task,cb_08,29.0,temp_dist_trial,num_items,zn7si1,1.0,response,2_ITEM,1062.6999999999969,1049.5999999999913,1062.6999999999969,1062.6999999999969,1049.5999999999913,1062.6999999999969,1.0,0.0,0.0,,Click Response,2_count,5.0,object-49,temp_dist_trial,29.0,t_s_13_1,travel_shared,contact lens case,8.0,competing,paired,t_s_13_1.jpg,Travel,,,sub-38
Desktop or Laptop,Windows 10,Edge 137.0.0.0,1920x1080,1920x922,Temporal Distance Task,cb_08,29.0,temp_dist_trial,dist_items,qkpkxw,2.0,info,,9.19999999999709,0.0,9.19999999999709,9.19999999999709,0.0,9.19999999999709,1.0,0.0,0.0,,Slider,Slider,4.0,object-56,temp_dist_trial,29.0,t_s_13_1,travel_shared,contact lens case,8.0,competing,paired,t_s_13_1.jpg,Travel,,,sub-38
Desktop or Laptop,Windows 10,Edge 137.0.0.0,1920x1080,1920x922,Temporal Distance Task,cb_08,29.0,temp_dist_trial,dist_items,qkpkxw,2.0,continue,,1482.4000000476804,1466.3000000000034,1482.4000000476804,1482.4000000476804,1466.3000000000034,1482.4000000476804,1.0,0.0,0.0,,Click To Continue,Next button,7.0,object-60,temp_dist_trial,29.0,t_s_13_1,travel_shared,contact lens case,8.0,competing,paired,t_s_13_1.jpg,Travel,,,sub-38
Desktop or Laptop,Windows 10,Edge 137.0.0.0,1920x1080,1920x922,Temporal Distance Task,cb_08,29.0,temp_dist_trial,dist_items,qkpkxw,2.0,response,63,566.5,1466.3000000000034,1483.0000000000146,566.5,1466.3000000000034,1483.0000000000146,1.0,916.5000000000148,0.0,,Slider,Slider,4.0,object-56,temp_dist_trial,29.0,t_s_13_1,travel_shared,contact lens case,8.0,competing,paired,t_s_13_1.jpg,Travel,,,sub-38
Desktop or Laptop,Windows 10,Edge 137.0.0.0,1920x1080,1920x922,Temporal Distance Task,cb_08,30.0,temp_dist_trial,num_items,zn7si1,1.0,response,2_ITEM,936.5000001430452,933.0,936.5000001430452,936.5000001430452,933.0,936.5000001430452,1.0,0.0,0.0,,Click Response,2_count,5.0,object-49,temp_dist_trial,30.0,t_m_03_1,travel_Miami,wetsuit,8.0,unique,paired,t_m_03_1.jpg,Travel,,,sub-38
Desktop or Laptop,Windows 10,Edge 137.0.0.0,1920x1080,1920x922,Temporal Distance Task,cb_08,30.0,temp_dist_trial,dist_items,qkpkxw,2.0,info,,9.800000047689537,0.0,9.800000047689537,9.800000047689537,0.0,9.800000047689537,1.0,0.0,0.0,,Slider,Slider,4.0,object-56,temp_dist_trial,30.0,t_m_03_1,travel_Miami,wetsuit,8.0,unique,paired,t_m_03_1.jpg,Travel,,,sub-38
Desktop or Laptop,Windows 10,Edge 137.0.0.0,1920x1080,1920x922,Temporal Distance Task,cb_08,30.0,temp_dist_trial,dist_items,qkpkxw,2.0,continue,,1031.1000000000058,1016.4000000000087,1031.1000000000058,1031.1000000000058,1016.4000000000087,1031.1000000000058,1.0,0.0,0.0,,Click To Continue,Next button,7.0,object-60,temp_dist_trial,30.0,t_m_03_1,travel_Miami,wetsuit,8.0,unique,paired,t_m_03_1.jpg,Travel,,,sub-38
Desktop or Laptop,Windows 10,Edge 137.0.0.0,1920x1080,1920x922,Temporal Distance Task,cb_08,30.0,temp_dist_trial,dist_items,qkpkxw,2.0,response,43,533.2000000000116,1016.4000000000087,1033.0000000000146,533.2000000000116,1016.4000000000087,1033.0000000000146,1.0,499.8000000000029,0.0,,Slider,Slider,4.0,object-56,temp_dist_trial,30.0,t_m_03_1,travel_Miami,wetsuit,8.0,unique,paired,t_m_03_1.jpg,Travel,,,sub-38
Desktop or Laptop,Windows 10,Edge 137.0.0.0,1920x1080,1920x922,Temporal Distance Task,cb_08,31.0,temp_dist_trial,num_items,zn7si1,1.0,response,1_ITEM,1086.500000190732,1083.0,1086.500000190732,1086.500000190732,1083.0,1086.500000190732,1.0,0.0,0.0,,Click Response,1_count,3.0,object-46,temp_dist_trial,31.0,t_i_02_1,travel_Iceland,scarf,8.0,unique,single,t_i_02_1.jpg,Travel,,,sub-38
Desktop or Laptop,Windows 10,Edge 137.0.0.0,1920x1080,1920x922,Temporal Distance Task,cb_08,32.0,temp_dist_trial,num_items,zn7si1,1.0,response,1_ITEM,905.9000000953674,899.8000000000029,905.9000000953674,905.9000000953674,899.8000000000029,905.9000000953674,1.0,0.0,0.0,,Click Response,1_count,3.0,object-46,temp_dist_trial,32.0,t_s_16_1,travel_shared,chapstick,8.0,competing,single,t_s_16_1.jpg,Travel,,,sub-38
Desktop or Laptop,Windows 10,Edge 137.0.0.0,1920x1080,1920x922,Temporal Distance Task,cb_08,33.0,temp_dist_trial,num_items,zn7si1,1.0,response,1_ITEM,770.1999999999971,766.3999999999942,770.1999999999971,770.1999999999971,766.3999999999942,770.1999999999971,1.0,0.0,0.0,,Click Response,1_count,3.0,object-46,temp_dist_trial,33.0,t_i_17_1,travel_Iceland,binoculars,8.0,unique,single,t_i_17_1.jpg,Travel,,,sub-38
Desktop or Laptop,Windows 10,Edge 137.0.0.0,1920x1080,1920x922,Temporal Distance Task,cb_08,34.0,temp_dist_trial,num_items,zn7si1,1.0,response,2_ITEM,1419.5000001430453,1416.1999999999966,1419.5000001430453,1419.5000001430453,1416.1999999999966,1419.5000001430453,1.0,0.0,0.0,,Click Response,2_count,5.0,object-49,temp_dist_trial,34.0,t_s_04_1,travel_shared,instant camera,8.0,competing,paired,t_s_04_1.jpg,Travel,,,sub-38
Desktop or Laptop,Windows 10,Edge 137.0.0.0,1920x1080,1920x922,Temporal Distance Task,cb_08,34.0,temp_dist_trial,dist_items,qkpkxw,2.0,info,,7.700000095370343,0.0,7.700000095370343,7.700000095370343,0.0,7.700000095370343,1.0,0.0,0.0,,Slider,Slider,4.0,object-56,temp_dist_trial,34.0,t_s_04_1,travel_shared,instant camera,8.0,competing,paired,t_s_04_1.jpg,Travel,,,sub-38
Desktop or Laptop,Windows 10,Edge 137.0.0.0,1920x1080,1920x922,Temporal Distance Task,cb_08,34.0,temp_dist_trial,dist_items,qkpkxw,2.0,continue,,2242.100000190738,2232.6000000000063,2242.100000190738,2242.100000190738,2232.6000000000063,2242.100000190738,1.0,0.0,0.0,,Click To Continue,Next button,7.0,object-60,temp_dist_trial,34.0,t_s_04_1,travel_shared,instant camera,8.0,competing,paired,t_s_04_1.jpg,Travel,,,sub-38
Desktop or Laptop,Windows 10,Edge 137.0.0.0,1920x1080,1920x922,Temporal Distance Task,cb_08,34.0,temp_dist_trial,dist_items,qkpkxw,2.0,response,66,699.8000000000029,2232.6000000000063,2242.300000000003,699.8000000000029,2232.6000000000063,2242.300000000003,1.0,1542.5,0.0,,Slider,Slider,4.0,object-56,temp_dist_trial,34.0,t_s_04_1,travel_shared,instant camera,8.0,competing,paired,t_s_04_1.jpg,Travel,,,sub-38
Desktop or Laptop,Windows 10,Edge 137.0.0.0,1920x1080,1920x922,Temporal Distance Task,cb_08,35.0,temp_dist_trial,num_items,zn7si1,1.0,response,2_ITEM,842.9000000476808,833.0999999999913,842.9000000476808,842.9000000476808,833.0999999999913,842.9000000476808,1.0,0.0,0.0,,Click Response,2_count,5.0,object-49,temp_dist_trial,35.0,t_s_08_1,travel_shared,hand lotion,8.0,competing,paired,t_s_08_1.jpg,Travel,,,sub-38
Desktop or Laptop,Windows 10,Edge 137.0.0.0,1920x1080,1920x922,Temporal Distance Task,cb_08,35.0,temp_dist_trial,dist_items,qkpkxw,2.0,info,,7.800000000002909,0.0,7.800000000002909,7.800000000002909,0.0,7.800000000002909,1.0,0.0,0.0,,Slider,Slider,4.0,object-56,temp_dist_trial,35.0,t_s_08_1,travel_shared,hand lotion,8.0,competing,paired,t_s_08_1.jpg,Travel,,,sub-38
Desktop or Laptop,Windows 10,Edge 137.0.0.0,1920x1080,1920x922,Temporal Distance Task,cb_08,35.0,temp_dist_trial,dist_items,qkpkxw,2.0,continue,,1072.900000143054,1066.4000000000087,1072.900000143054,1072.900000143054,1066.4000000000087,1072.900000143054,1.0,0.0,0.0,,Click To Continue,Next button,7.0,object-60,temp_dist_trial,35.0,t_s_08_1,travel_shared,hand lotion,8.0,competing,paired,t_s_08_1.jpg,Travel,,,sub-38
Desktop or Laptop,Windows 10,Edge 137.0.0.0,1920x1080,1920x922,Temporal Distance Task,cb_08,35.0,temp_dist_trial,dist_items,qkpkxw,2.0,response,34,483.3000000000029,1066.4000000000087,1074.6000001907378,483.3000000000029,1066.4000000000087,1074.6000001907378,1.0,591.3000001907349,0.0,,Slider,Slider,4.0,object-56,temp_dist_trial,35.0,t_s_08_1,travel_shared,hand lotion,8.0,competing,paired,t_s_08_1.jpg,Travel,,,sub-38
Desktop or Laptop,Windows 10,Edge 137.0.0.0,1920x1080,1920x922,Temporal Distance Task,cb_08,36.0,temp_dist_trial,num_items,zn7si1,1.0,response,2_ITEM,1084.8000000953616,1082.8999999999942,1084.8000000953616,1084.8000000953616,1082.8999999999942,1084.8000000953616,1.0,0.0,0.0,,Click Response,2_count,5.0,object-49,temp_dist_trial,36.0,t_i_04_1,travel_Iceland,portable camping stove,8.0,unique,paired,t_i_04_1.jpg,Travel,,,sub-38
Desktop or Laptop,Windows 10,Edge 137.0.0.0,1920x1080,1920x922,Temporal Distance Task,cb_08,36.0,temp_dist_trial,dist_items,qkpkxw,2.0,info,,4.900000190740684,0.0,4.900000190740684,4.900000190740684,0.0,4.900000190740684,1.0,0.0,0.0,,Slider,Slider,4.0,object-56,temp_dist_trial,36.0,t_i_04_1,travel_Iceland,portable camping stove,8.0,unique,paired,t_i_04_1.jpg,Travel,,,sub-38
Desktop or Laptop,Windows 10,Edge 137.0.0.0,1920x1080,1920x922,Temporal Distance Task,cb_08,36.0,temp_dist_trial,dist_items,qkpkxw,2.0,continue,,1372.1000000000058,1366.3000000000031,1372.1000000000058,1372.1000000000058,1366.3000000000031,1372.1000000000058,1.0,0.0,0.0,,Click To Continue,Next button,7.0,object-60,temp_dist_trial,36.0,t_i_04_1,travel_Iceland,portable camping stove,8.0,unique,paired,t_i_04_1.jpg,Travel,,,sub-38
Desktop or Laptop,Windows 10,Edge 137.0.0.0,1920x1080,1920x922,Temporal Distance Task,cb_08,36.0,temp_dist_trial,dist_items,qkpkxw,2.0,response,27,883.1000000000058,1366.3000000000031,1372.8000000476895,883.1000000000058,1366.3000000000031,1372.8000000476895,1.0,489.7000000476837,0.0,,Slider,Slider,4.0,object-56,temp_dist_trial,36.0,t_i_04_1,travel_Iceland,portable camping stove,8.0,unique,paired,t_i_04_1.jpg,Travel,,,sub-38
Desktop or Laptop,Windows 10,Edge 137.0.0.0,1920x1080,1920x922,Temporal Distance Task,cb_08,37.0,temp_dist_trial,num_items,zn7si1,1.0,response,1_ITEM,762.7000000953702,749.6999999999971,762.7000000953702,762.7000000953702,749.6999999999971,762.7000000953702,1.0,0.0,0.0,,Click Response,1_count,3.0,object-46,temp_dist_trial,37.0,t_m_04_1,travel_Miami,UV jacket,8.0,unique,single,t_m_04_1.jpg,Travel,,,sub-38
Desktop or Laptop,Windows 10,Edge 137.0.0.0,1920x1080,1920x922,Temporal Distance Task,cb_08,38.0,temp_dist_trial,num_items,zn7si1,1.0,response,2_ITEM,890.000000190732,883.0999999999913,890.000000190732,890.000000190732,883.0999999999913,890.000000190732,1.0,0.0,0.0,,Click Response,2_count,5.0,object-49,temp_dist_trial,38.0,t_i_14_1,travel_Iceland,snow pants,8.0,unique,paired,t_i_14_1.jpg,Travel,,,sub-38
Desktop or Laptop,Windows 10,Edge 137.0.0.0,1920x1080,1920x922,Temporal Distance Task,cb_08,38.0,temp_dist_trial,dist_items,qkpkxw,2.0,info,,8.70000009535579,0.0,8.70000009535579,8.70000009535579,0.0,8.70000009535579,1.0,0.0,0.0,,Slider,Slider,4.0,object-56,temp_dist_trial,38.0,t_i_14_1,travel_Iceland,snow pants,8.0,unique,paired,t_i_14_1.jpg,Travel,,,sub-38
Desktop or Laptop,Windows 10,Edge 137.0.0.0,1920x1080,1920x922,Temporal Distance Task,cb_08,38.0,temp_dist_trial,dist_items,qkpkxw,2.0,continue,,1326.4000001430395,1316.2999999999886,1326.4000001430395,1326.4000001430395,1316.2999999999886,1326.4000001430395,1.0,0.0,0.0,,Click To Continue,Next button,7.0,object-60,temp_dist_trial,38.0,t_i_14_1,travel_Iceland,snow pants,8.0,unique,paired,t_i_14_1.jpg,Travel,,,sub-38
Desktop or Laptop,Windows 10,Edge 137.0.0.0,1920x1080,1920x922,Temporal Distance Task,cb_08,38.0,temp_dist_trial,dist_items,qkpkxw,2.0,response,64,599.7999999999884,1316.2999999999886,1327.2999999999886,599.7999999999884,1316.2999999999886,1327.2999999999886,1.0,727.5,0.0,,Slider,Slider,4.0,object-56,temp_dist_trial,38.0,t_i_14_1,travel_Iceland,snow pants,8.0,unique,paired,t_i_14_1.jpg,Travel,,,sub-38
Desktop or Laptop,Windows 10,Edge 137.0.0.0,1920x1080,1920x922,Temporal Distance Task,cb_08,39.0,temp_dist_trial,num_items,zn7si1,1.0,response,2_ITEM,1375.1000001430511,1366.2000000000114,1375.1000001430511,1375.1000001430511,1366.2000000000114,1375.1000001430511,1.0,0.0,0.0,,Click Response,2_count,5.0,object-49,temp_dist_trial,39.0,t_i_06_1,travel_Iceland,knit hat,8.0,unique,paired,t_i_06_1.jpg,Travel,,,sub-38
Desktop or Laptop,Windows 10,Edge 137.0.0.0,1920x1080,1920x922,Temporal Distance Task,cb_08,39.0,temp_dist_trial,dist_items,qkpkxw,2.0,info,,9.600000047677897,0.0,9.600000047677897,9.600000047677897,0.0,9.600000047677897,1.0,0.0,0.0,,Slider,Slider,4.0,object-56,temp_dist_trial,39.0,t_i_06_1,travel_Iceland,knit hat,8.0,unique,paired,t_i_06_1.jpg,Travel,,,sub-38
Desktop or Laptop,Windows 10,Edge 137.0.0.0,1920x1080,1920x922,Temporal Distance Task,cb_08,39.0,temp_dist_trial,dist_items,qkpkxw,2.0,continue,,2112.700000190729,2099.1000000000063,2112.700000190729,2112.700000190729,2099.1000000000063,2112.700000190729,1.0,0.0,0.0,,Click To Continue,Next button,7.0,object-60,temp_dist_trial,39.0,t_i_06_1,travel_Iceland,knit hat,8.0,unique,paired,t_i_06_1.jpg,Travel,,,sub-38
Desktop or Laptop,Windows 10,Edge 137.0.0.0,1920x1080,1920x922,Temporal Distance Task,cb_08,39.0,temp_dist_trial,dist_items,qkpkxw,2.0,response,81,1099.6000000000058,2099.1000000000063,2113.200000190729,1099.6000000000058,2099.1000000000063,2113.200000190729,1.0,1013.6000001907232,0.0,,Slider,Slider,4.0,object-56,temp_dist_trial,39.0,t_i_06_1,travel_Iceland,knit hat,8.0,unique,paired,t_i_06_1.jpg,Travel,,,sub-38
Desktop or Laptop,Windows 10,Edge 137.0.0.0,1920x1080,1920x922,Temporal Distance Task,cb_08,40.0,temp_dist_trial,num_items,zn7si1,1.0,response,2_ITEM,1235.9000001430395,1233.0999999999767,1235.9000001430395,1235.9000001430395,1233.0999999999767,1235.9000001430395,1.0,0.0,0.0,,Click Response,2_count,5.0,object-49,temp_dist_trial,40.0,t_s_07_1,travel_shared,phone charger cable,8.0,competing,paired,t_s_07_1.jpg,Travel,,,sub-38
Desktop or Laptop,Windows 10,Edge 137.0.0.0,1920x1080,1920x922,Temporal Distance Task,cb_08,40.0,temp_dist_trial,dist_items,qkpkxw,2.0,info,,8.800000190734863,0.0,8.800000190734863,8.800000190734863,0.0,8.800000190734863,1.0,0.0,0.0,,Slider,Slider,4.0,object-56,temp_dist_trial,40.0,t_s_07_1,travel_shared,phone charger cable,8.0,competing,paired,t_s_07_1.jpg,Travel,,,sub-38
Desktop or Laptop,Windows 10,Edge 137.0.0.0,1920x1080,1920x922,Temporal Distance Task,cb_08,40.0,temp_dist_trial,dist_items,qkpkxw,2.0,continue,,2134.700000047684,2132.2999999999884,2134.700000047684,2134.700000047684,2132.2999999999884,2134.700000047684,1.0,0.0,0.0,,Click To Continue,Next button,7.0,object-60,temp_dist_trial,40.0,t_s_07_1,travel_shared,phone charger cable,8.0,competing,paired,t_s_07_1.jpg,Travel,,,sub-38
Desktop or Laptop,Windows 10,Edge 137.0.0.0,1920x1080,1920x922,Temporal Distance Task,cb_08,40.0,temp_dist_trial,dist_items,qkpkxw,2.0,response,39,1449.2000000000116,2132.2999999999884,2135.300000190735,1449.2000000000116,2132.2999999999884,2135.300000190735,1.0,686.1000001907232,0.0,,Slider,Slider,4.0,object-56,temp_dist_trial,40.0,t_s_07_1,travel_shared,phone charger cable,8.0,competing,paired,t_s_07_1.jpg,Travel,,,sub-38
Desktop or Laptop,Windows 10,Edge 137.0.0.0,1920x1080,1920x922,Temporal Distance Task,cb_08,41.0,temp_dist_trial,num_items,zn7si1,1.0,response,2_ITEM,961.9000000476954,949.7000000000116,961.9000000476954,961.9000000476954,949.7000000000116,961.9000000476954,1.0,0.0,0.0,,Click Response,2_count,5.0,object-49,temp_dist_trial,41.0,t_m_07_1,travel_Miami,sunglasses,8.0,unique,paired,t_m_07_1.jpg,Travel,,,sub-38
Desktop or Laptop,Windows 10,Edge 137.0.0.0,1920x1080,1920x922,Temporal Distance Task,cb_08,41.0,temp_dist_trial,dist_items,qkpkxw,2.0,info,,8.800000143062789,0.0,8.800000143062789,8.800000143062789,0.0,8.800000143062789,1.0,0.0,0.0,,Slider,Slider,4.0,object-56,temp_dist_trial,41.0,t_m_07_1,travel_Miami,sunglasses,8.0,unique,paired,t_m_07_1.jpg,Travel,,,sub-38
Desktop or Laptop,Windows 10,Edge 137.0.0.0,1920x1080,1920x922,Temporal Distance Task,cb_08,41.0,temp_dist_trial,dist_items,qkpkxw,2.0,continue,,1098.8000001430628,1083.1000000000058,1098.8000001430628,1098.8000001430628,1083.1000000000058,1098.8000001430628,1.0,0.0,0.0,,Click To Continue,Next button,7.0,object-60,temp_dist_trial,41.0,t_m_07_1,travel_Miami,sunglasses,8.0,unique,paired,t_m_07_1.jpg,Travel,,,sub-38
Desktop or Laptop,Windows 10,Edge 137.0.0.0,1920x1080,1920x922,Temporal Distance Task,cb_08,41.0,temp_dist_trial,dist_items,qkpkxw,2.0,response,40,633.3000000000175,1083.1000000000058,1099.7999999999884,633.3000000000175,1083.1000000000058,1099.7999999999884,1.0,466.49999999997084,0.0,,Slider,Slider,4.0,object-56,temp_dist_trial,41.0,t_m_07_1,travel_Miami,sunglasses,8.0,unique,paired,t_m_07_1.jpg,Travel,,,sub-38
Desktop or Laptop,Windows 10,Edge 137.0.0.0,1920x1080,1920x922,Temporal Distance Task,cb_08,42.0,temp_dist_trial,num_items,zn7si1,1.0,response,2_ITEM,1036.6000000000058,1033.0,1036.6000000000058,1036.6000000000058,1033.0,1036.6000000000058,1.0,0.0,0.0,,Click Response,2_count,5.0,object-49,temp_dist_trial,42.0,t_i_11_1,travel_Iceland,headlamp,8.0,unique,paired,t_i_11_1.jpg,Travel,,,sub-38
Desktop or Laptop,Windows 10,Edge 137.0.0.0,1920x1080,1920x922,Temporal Distance Task,cb_08,42.0,temp_dist_trial,dist_items,qkpkxw,2.0,info,,9.000000047672074,0.0,9.000000047672074,9.000000047672074,0.0,9.000000047672074,1.0,0.0,0.0,,Slider,Slider,4.0,object-56,temp_dist_trial,42.0,t_i_11_1,travel_Iceland,headlamp,8.0,unique,paired,t_i_11_1.jpg,Travel,,,sub-38
Desktop or Laptop,Windows 10,Edge 137.0.0.0,1920x1080,1920x922,Temporal Distance Task,cb_08,42.0,temp_dist_trial,dist_items,qkpkxw,2.0,continue,,1915.000000047672,1899.3999999999944,1915.000000047672,1915.000000047672,1899.3999999999944,1915.000000047672,1.0,0.0,0.0,,Click To Continue,Next button,7.0,object-60,temp_dist_trial,42.0,t_i_11_1,travel_Iceland,headlamp,8.0,unique,paired,t_i_11_1.jpg,Travel,,,sub-38
Desktop or Laptop,Windows 10,Edge 137.0.0.0,1920x1080,1920x922,Temporal Distance Task,cb_08,42.0,temp_dist_trial,dist_items,qkpkxw,2.0,response,75,599.8999999999943,1899.3999999999944,1916.0,599.8999999999943,1899.3999999999944,1916.0,1.0,1316.1000000000058,0.0,,Slider,Slider,4.0,object-56,temp_dist_trial,42.0,t_i_11_1,travel_Iceland,headlamp,8.0,unique,paired,t_i_11_1.jpg,Travel,,,sub-38
Desktop or Laptop,Windows 10,Edge 137.0.0.0,1920x1080,1920x922,Temporal Distance Task,cb_08,43.0,temp_dist_trial,num_items,zn7si1,1.0,response,1_ITEM,1030.200000190729,1016.3999999999942,1030.200000190729,1030.200000190729,1016.3999999999942,1030.200000190729,1.0,0.0,0.0,,Click Response,1_count,3.0,object-46,temp_dist_trial,43.0,t_i_18_1,travel_Iceland,ski mask,8.0,unique,paired,t_i_18_1.jpg,Travel,,,sub-38
Desktop or Laptop,Windows 10,Edge 137.0.0.0,1920x1080,1920x922,Temporal Distance Task,cb_08,44.0,temp_dist_trial,num_items,zn7si1,1.0,response,1_ITEM,1073.900000190741,1066.3000000000177,1073.900000190741,1073.900000190741,1066.3000000000177,1073.900000190741,1.0,0.0,0.0,,Click Response,1_count,3.0,object-46,temp_dist_trial,44.0,t_s_18_1,travel_shared,first aid kit,8.0,competing,paired,t_s_18_1.jpg,Travel,,,sub-38
Desktop or Laptop,Windows 10,Edge 137.0.0.0,1920x1080,1920x922,Temporal Distance Task,cb_08,45.0,temp_dist_trial,num_items,zn7si1,1.0,response,1_ITEM,1771.5000001430453,1766.1000000000058,1771.5000001430453,1771.5000001430453,1766.1000000000058,1771.5000001430453,1.0,0.0,0.0,,Click Response,1_count,3.0,object-46,temp_dist_trial,45.0,t_s_11_1,travel_shared,eye mask,8.0,competing,paired,t_s_11_1.jpg,Travel,,,sub-38
Desktop or Laptop,Windows 10,Edge 137.0.0.0,1920x1080,1920x922,Temporal Distance Task,cb_08,46.0,temp_dist_trial,num_items,zn7si1,1.0,response,1_ITEM,1304.7999999999886,1299.3999999999942,1304.7999999999886,1304.7999999999886,1299.3999999999942,1304.7999999999886,1.0,0.0,0.0,,Click Response,1_count,3.0,object-46,temp_dist_trial,46.0,t_m_11_1,travel_Miami,collapsible beach chair,8.0,unique,paired,t_m_11_1.jpg,Travel,,,sub-38
Desktop or Laptop,Windows 10,Edge 137.0.0.0,1920x1080,1920x922,Temporal Distance Task,cb_08,47.0,temp_dist_trial,num_items,zn7si1,1.0,response,1_ITEM,1148.3000001907346,1133.1000000000058,1148.3000001907346,1148.3000001907346,1133.1000000000058,1148.3000001907346,1.0,0.0,0.0,,Click Response,1_count,3.0,object-46,temp_dist_trial,47.0,t_s_09_1,travel_shared,wallet,8.0,competing,single,t_s_09_1.jpg,Travel,,,sub-38
Desktop or Laptop,Windows 10,Edge 137.0.0.0,1920x1080,1920x922,Temporal Distance Task,cb_08,48.0,temp_dist_trial,num_items,zn7si1,1.0,response,2_ITEM,1140.4000000953674,1132.8999999999942,1140.4000000953674,1140.4000000953674,1132.8999999999942,1140.4000000953674,1.0,0.0,0.0,,Click Response,2_count,5.0,object-49,temp_dist_trial,48.0,t_s_06_1,travel_shared,luggage,8.0,competing,single,t_s_06_1.jpg,Travel,,,sub-38
Desktop or Laptop,Windows 10,Edge 137.0.0.0,1920x1080,1920x922,Temporal Distance Task,cb_08,48.0,temp_dist_trial,dist_items,qkpkxw,2.0,info,,3.6000000476778946,0.0,3.6000000476778946,3.6000000476778946,0.0,3.6000000476778946,1.0,0.0,0.0,,Slider,Slider,4.0,object-56,temp_dist_trial,48.0,t_s_06_1,travel_shared,luggage,8.0,competing,single,t_s_06_1.jpg,Travel,,,sub-38
Desktop or Laptop,Windows 10,Edge 137.0.0.0,1920x1080,1920x922,Temporal Distance Task,cb_08,48.0,temp_dist_trial,dist_items,qkpkxw,2.0,continue,,1437.200000190729,1433.0,1437.200000190729,1437.200000190729,1433.0,1437.200000190729,1.0,0.0,0.0,,Click To Continue,Next button,7.0,object-60,temp_dist_trial,48.0,t_s_06_1,travel_shared,luggage,8.0,competing,single,t_s_06_1.jpg,Travel,,,sub-38
Desktop or Laptop,Windows 10,Edge 137.0.0.0,1920x1080,1920x922,Temporal Distance Task,cb_08,48.0,temp_dist_trial,dist_items,qkpkxw,2.0,response,35,616.6000000000057,1433.0,1438.200000190729,616.6000000000057,1433.0,1438.200000190729,1.0,821.6000001907232,0.0,,Slider,Slider,4.0,object-56,temp_dist_trial,48.0,t_s_06_1,travel_shared,luggage,8.0,competing,single,t_s_06_1.jpg,Travel,,,sub-38
Desktop or Laptop,Windows 10,Edge 137.0.0.0,1920x1080,1920x922,Temporal Distance Task,cb_08,2.0,temp_eventStart,Screen 1,dgtyxe,1.0,continue,,1605.8999999999942,1599.5,1605.8999999999942,1605.8999999999942,1599.5,1605.8999999999942,1.0,0.0,0.0,,Click To Continue,Next Button,3.0,object-43,temp_eventStart,,,Student,,,,,,,,,sub-38
Desktop or Laptop,Windows 10,Edge 137.0.0.0,1920x1080,1920x922,Temporal Distance Task,cb_08,49.0,temp_dist_trial,num_items,zn7si1,1.0,response,1_ITEM,2116.1000000000063,2099.3999999999937,2116.1000000000063,2116.1000000000063,2099.3999999999937,2116.1000000000063,1.0,0.0,0.0,,Click Response,1_count,3.0,object-46,temp_dist_trial,1.0,s_sh_11_1,student_shared,pencil case,8.0,competing,single,s_sh_11_1.jpg,Student,,,sub-38
Desktop or Laptop,Windows 10,Edge 137.0.0.0,1920x1080,1920x922,Temporal Distance Task,cb_08,50.0,temp_dist_trial,num_items,zn7si1,1.0,response,2_ITEM,976.2000000000116,966.3000000000177,976.2000000000116,976.2000000000116,966.3000000000177,976.2000000000116,1.0,0.0,0.0,,Click Response,2_count,5.0,object-49,temp_dist_trial,2.0,s_a_14_1,student_art,guitar pick,8.0,unique,paired,s_a_14_1.jpg,Student,,,sub-38
Desktop or Laptop,Windows 10,Edge 137.0.0.0,1920x1080,1920x922,Temporal Distance Task,cb_08,50.0,temp_dist_trial,dist_items,qkpkxw,2.0,info,,9.899999999994181,0.0,9.899999999994181,9.899999999994181,0.0,9.899999999994181,1.0,0.0,0.0,,Slider,Slider,4.0,object-56,temp_dist_trial,2.0,s_a_14_1,student_art,guitar pick,8.0,unique,paired,s_a_14_1.jpg,Student,,,sub-38
Desktop or Laptop,Windows 10,Edge 137.0.0.0,1920x1080,1920x922,Temporal Distance Task,cb_08,50.0,temp_dist_trial,dist_items,qkpkxw,2.0,continue,,1828.0000001430453,1816.0,1828.0000001430453,1828.0000001430453,1816.0,1828.0000001430453,1.0,0.0,0.0,,Click To Continue,Next button,7.0,object-60,temp_dist_trial,2.0,s_a_14_1,student_art,guitar pick,8.0,unique,paired,s_a_14_1.jpg,Student,,,sub-38
Desktop or Laptop,Windows 10,Edge 137.0.0.0,1920x1080,1920x922,Temporal Distance Task,cb_08,50.0,temp_dist_trial,dist_items,qkpkxw,2.0,response,44,1099.6000000000058,1816.0,1828.700000190729,1099.6000000000058,1816.0,1828.700000190729,1.0,729.1000001907232,0.0,,Slider,Slider,4.0,object-56,temp_dist_trial,2.0,s_a_14_1,student_art,guitar pick,8.0,unique,paired,s_a_14_1.jpg,Student,,,sub-38
Desktop or Laptop,Windows 10,Edge 137.0.0.0,1920x1080,1920x922,Temporal Distance Task,cb_08,51.0,temp_dist_trial,num_items,zn7si1,1.0,response,1_ITEM,1754.0000001430453,1749.5,1754.0000001430453,1754.0000001430453,1749.5,1754.0000001430453,1.0,0.0,0.0,,Click Response,1_count,3.0,object-46,temp_dist_trial,3.0,s_sh_06_1,student_shared,clipboard,8.0,competing,single,s_sh_06_1.jpg,Student,,,sub-38
Desktop or Laptop,Windows 10,Edge 137.0.0.0,1920x1080,1920x922,Temporal Distance Task,cb_08,52.0,temp_dist_trial,num_items,zn7si1,1.0,response,2_ITEM,1019.6000000000058,1016.3000000000177,1019.6000000000058,1019.6000000000058,1016.3000000000177,1019.6000000000058,1.0,0.0,0.0,,Click Response,2_count,5.0,object-49,temp_dist_trial,4.0,s_sh_16_1,student_shared,stapler,8.0,competing,paired,s_sh_16_1.jpg,Student,,,sub-38
Desktop or Laptop,Windows 10,Edge 137.0.0.0,1920x1080,1920x922,Temporal Distance Task,cb_08,52.0,temp_dist_trial,dist_items,qkpkxw,2.0,info,,8.600000047677895,0.0,8.600000047677895,8.600000047677895,0.0,8.600000047677895,1.0,0.0,0.0,,Slider,Slider,4.0,object-56,temp_dist_trial,4.0,s_sh_16_1,student_shared,stapler,8.0,competing,paired,s_sh_16_1.jpg,Student,,,sub-38
Desktop or Laptop,Windows 10,Edge 137.0.0.0,1920x1080,1920x922,Temporal Distance Task,cb_08,52.0,temp_dist_trial,dist_items,qkpkxw,2.0,continue,,2325.3999999999937,2316.0,2325.3999999999937,2325.3999999999937,2316.0,2325.3999999999937,1.0,0.0,0.0,,Click To Continue,Next button,7.0,object-60,temp_dist_trial,4.0,s_sh_16_1,student_shared,stapler,8.0,competing,paired,s_sh_16_1.jpg,Student,,,sub-38
Desktop or Laptop,Windows 10,Edge 137.0.0.0,1920x1080,1920x922,Temporal Distance Task,cb_08,52.0,temp_dist_trial,dist_items,qkpkxw,2.0,response,18,649.7999999999884,2316.0,2326.700000190729,649.7999999999884,2316.0,2326.700000190729,1.0,1676.9000001907407,0.0,,Slider,Slider,4.0,object-56,temp_dist_trial,4.0,s_sh_16_1,student_shared,stapler,8.0,competing,paired,s_sh_16_1.jpg,Student,,,sub-38
Desktop or Laptop,Windows 10,Edge 137.0.0.0,1920x1080,1920x922,Temporal Distance Task,cb_08,53.0,temp_dist_trial,num_items,zn7si1,1.0,response,2_ITEM,885.700000190729,883.0,885.700000190729,885.700000190729,883.0,885.700000190729,1.0,0.0,0.0,,Click Response,2_count,5.0,object-49,temp_dist_trial,5.0,s_a_12_1,student_art,saxophone,8.0,unique,paired,s_a_12_1.jpg,Student,,,sub-38
Desktop or Laptop,Windows 10,Edge 137.0.0.0,1920x1080,1920x922,Temporal Distance Task,cb_08,53.0,temp_dist_trial,dist_items,qkpkxw,2.0,info,,8.300000190734862,0.0,8.300000190734862,8.300000190734862,0.0,8.300000190734862,1.0,0.0,0.0,,Slider,Slider,4.0,object-56,temp_dist_trial,5.0,s_a_12_1,student_art,saxophone,8.0,unique,paired,s_a_12_1.jpg,Student,,,sub-38
Desktop or Laptop,Windows 10,Edge 137.0.0.0,1920x1080,1920x922,Temporal Distance Task,cb_08,53.0,temp_dist_trial,dist_items,qkpkxw,2.0,continue,,1244.6000001430514,1232.8999999999942,1244.6000001430514,1244.6000001430514,1232.8999999999942,1244.6000001430514,1.0,0.0,0.0,,Click To Continue,Next button,7.0,object-60,temp_dist_trial,5.0,s_a_12_1,student_art,saxophone,8.0,unique,paired,s_a_12_1.jpg,Student,,,sub-38
Desktop or Laptop,Windows 10,Edge 137.0.0.0,1920x1080,1920x922,Temporal Distance Task,cb_08,53.0,temp_dist_trial,dist_items,qkpkxw,2.0,response,34,733.1000000000058,1232.8999999999942,1249.5999999999767,733.1000000000058,1232.8999999999942,1249.5999999999767,1.0,516.4999999999709,0.0,,Slider,Slider,4.0,object-56,temp_dist_trial,5.0,s_a_12_1,student_art,saxophone,8.0,unique,paired,s_a_12_1.jpg,Student,,,sub-38
Desktop or Laptop,Windows 10,Edge 137.0.0.0,1920x1080,1920x922,Temporal Distance Task,cb_08,54.0,temp_dist_trial,num_items,zn7si1,1.0,response,1_ITEM,1481.6000000000058,1466.2000000000116,1481.6000000000058,1481.6000000000058,1466.2000000000116,1481.6000000000058,1.0,0.0,0.0,,Click Response,1_count,3.0,object-46,temp_dist_trial,6.0,s_a_03_1,student_art,palette,8.0,unique,single,s_a_03_1.jpg,Student,,,sub-38
Desktop or Laptop,Windows 10,Edge 137.0.0.0,1920x1080,1920x922,Temporal Distance Task,cb_08,55.0,temp_dist_trial,num_items,zn7si1,1.0,response,2_ITEM,1137.600000095379,1133.1000000000058,1137.600000095379,1137.600000095379,1133.1000000000058,1137.600000095379,1.0,0.0,0.0,,Click Response,2_count,5.0,object-49,temp_dist_trial,7.0,s_s_08_1,student_stem,soldering iron,8.0,unique,paired,s_s_08_1.jpg,Student,,,sub-38
Desktop or Laptop,Windows 10,Edge 137.0.0.0,1920x1080,1920x922,Temporal Distance Task,cb_08,55.0,temp_dist_trial,dist_items,qkpkxw,2.0,info,,8.400000143039506,0.0,8.400000143039506,8.400000143039506,0.0,8.400000143039506,1.0,0.0,0.0,,Slider,Slider,4.0,object-56,temp_dist_trial,7.0,s_s_08_1,student_stem,soldering iron,8.0,unique,paired,s_s_08_1.jpg,Student,,,sub-38
Desktop or Laptop,Windows 10,Edge 137.0.0.0,1920x1080,1920x922,Temporal Distance Task,cb_08,55.0,temp_dist_trial,dist_items,qkpkxw,2.0,continue,,1580.1000001907232,1566.2999999999884,1580.1000001907232,1580.1000001907232,1566.2999999999884,1580.1000001907232,1.0,0.0,0.0,,Click To Continue,Next button,7.0,object-60,temp_dist_trial,7.0,s_s_08_1,student_stem,soldering iron,8.0,unique,paired,s_s_08_1.jpg,Student,,,sub-38
Desktop or Laptop,Windows 10,Edge 137.0.0.0,1920x1080,1920x922,Temporal Distance Task,cb_08,55.0,temp_dist_trial,dist_items,qkpkxw,2.0,response,29,949.8999999999942,1566.2999999999884,1581.000000047672,949.8999999999942,1566.2999999999884,1581.000000047672,1.0,631.1000000476779,0.0,,Slider,Slider,4.0,object-56,temp_dist_trial,7.0,s_s_08_1,student_stem,soldering iron,8.0,unique,paired,s_s_08_1.jpg,Student,,,sub-38
Desktop or Laptop,Windows 10,Edge 137.0.0.0,1920x1080,1920x922,Temporal Distance Task,cb_08,56.0,temp_dist_trial,num_items,zn7si1,1.0,response,1_ITEM,952.9000000953674,949.7000000000116,952.9000000953674,952.9000000953674,949.7000000000116,952.9000000953674,1.0,0.0,0.0,,Click Response,1_count,3.0,object-46,temp_dist_trial,8.0,s_s_03_1,student_stem,petri dish,8.0,unique,single,s_s_03_1.jpg,Student,,,sub-38
Desktop or Laptop,Windows 10,Edge 137.0.0.0,1920x1080,1920x922,Temporal Distance Task,cb_08,57.0,temp_dist_trial,num_items,zn7si1,1.0,response,1_ITEM,891.200000190729,883.0,891.200000190729,891.200000190729,883.0,891.200000190729,1.0,0.0,0.0,,Click Response,1_count,3.0,object-46,temp_dist_trial,9.0,s_sh_14_1,student_shared,printer,8.0,competing,single,s_sh_14_1.jpg,Student,,,sub-38
Desktop or Laptop,Windows 10,Edge 137.0.0.0,1920x1080,1920x922,Temporal Distance Task,cb_08,58.0,temp_dist_trial,num_items,zn7si1,1.0,response,2_ITEM,2026.8000001907349,2016.0,2026.8000001907349,2026.8000001907349,2016.0,2026.8000001907349,1.0,0.0,0.0,,Click Response,2_count,5.0,object-49,temp_dist_trial,10.0,s_sh_02_1,student_shared,eraser,8.0,competing,paired,s_sh_02_1.jpg,Student,,,sub-38
Desktop or Laptop,Windows 10,Edge 137.0.0.0,1920x1080,1920x922,Temporal Distance Task,cb_08,58.0,temp_dist_trial,dist_items,qkpkxw,2.0,info,,8.100000000005819,0.0,8.100000000005819,8.100000000005819,0.0,8.100000000005819,1.0,0.0,0.0,,Slider,Slider,4.0,object-56,temp_dist_trial,10.0,s_sh_02_1,student_shared,eraser,8.0,competing,paired,s_sh_02_1.jpg,Student,,,sub-38
Desktop or Laptop,Windows 10,Edge 137.0.0.0,1920x1080,1920x922,Temporal Distance Task,cb_08,58.0,temp_dist_trial,dist_items,qkpkxw,2.0,continue,,1920.0000000953733,1916.0,1920.0000000953733,1920.0000000953733,1916.0,1920.0000000953733,1.0,0.0,0.0,,Click To Continue,Next button,7.0,object-60,temp_dist_trial,10.0,s_sh_02_1,student_shared,eraser,8.0,competing,paired,s_sh_02_1.jpg,Student,,,sub-38
Desktop or Laptop,Windows 10,Edge 137.0.0.0,1920x1080,1920x922,Temporal Distance Task,cb_08,58.0,temp_dist_trial,dist_items,qkpkxw,2.0,response,41,1132.8999999999942,1916.0,1932.6000000000056,1132.8999999999942,1916.0,1932.6000000000056,1.0,799.7000000000116,0.0,,Slider,Slider,4.0,object-56,temp_dist_trial,10.0,s_sh_02_1,student_shared,eraser,8.0,competing,paired,s_sh_02_1.jpg,Student,,,sub-38
Desktop or Laptop,Windows 10,Edge 137.0.0.0,1920x1080,1920x922,Temporal Distance Task,cb_08,59.0,temp_dist_trial,num_items,zn7si1,1.0,response,2_ITEM,1246.0000000953733,1233.0,1246.0000000953733,1246.0000000953733,1233.0,1246.0000000953733,1.0,0.0,0.0,,Click Response,2_count,5.0,object-49,temp_dist_trial,11.0,s_s_19_1,student_stem,circuit board,8.0,unique,paired,s_s_19_1.jpg,Student,,,sub-38
Desktop or Laptop,Windows 10,Edge 137.0.0.0,1920x1080,1920x922,Temporal Distance Task,cb_08,59.0,temp_dist_trial,dist_items,qkpkxw,2.0,info,,9.800000143062787,0.0,9.800000143062787,9.800000143062787,0.0,9.800000143062787,1.0,0.0,0.0,,Slider,Slider,4.0,object-56,temp_dist_trial,11.0,s_s_19_1,student_stem,circuit board,8.0,unique,paired,s_s_19_1.jpg,Student,,,sub-38
Desktop or Laptop,Windows 10,Edge 137.0.0.0,1920x1080,1920x922,Temporal Distance Task,cb_08,59.0,temp_dist_trial,dist_items,qkpkxw,2.0,continue,,1332.9000000000233,1316.2000000000114,1332.9000000000233,1332.9000000000233,1316.2000000000114,1332.9000000000233,1.0,0.0,0.0,,Click To Continue,Next button,7.0,object-60,temp_dist_trial,11.0,s_s_19_1,student_stem,circuit board,8.0,unique,paired,s_s_19_1.jpg,Student,,,sub-38
Desktop or Laptop,Windows 10,Edge 137.0.0.0,1920x1080,1920x922,Temporal Distance Task,cb_08,59.0,temp_dist_trial,dist_items,qkpkxw,2.0,response,35,599.8000000000175,1316.2000000000114,1332.9000000000233,599.8000000000175,1316.2000000000114,1332.9000000000233,1.0,733.1000000000058,0.0,,Slider,Slider,4.0,object-56,temp_dist_trial,11.0,s_s_19_1,student_stem,circuit board,8.0,unique,paired,s_s_19_1.jpg,Student,,,sub-38
Desktop or Laptop,Windows 10,Edge 137.0.0.0,1920x1080,1920x922,Temporal Distance Task,cb_08,60.0,temp_dist_trial,num_items,zn7si1,1.0,response,1_ITEM,1045.1000001430514,1033.0,1045.1000001430514,1045.1000001430514,1033.0,1045.1000001430514,1.0,0.0,0.0,,Click Response,1_count,3.0,object-46,temp_dist_trial,12.0,s_s_11_1,student_stem,scientific scale,8.0,unique,paired,s_s_11_1.jpg,Student,,,sub-38
Desktop or Laptop,Windows 10,Edge 137.0.0.0,1920x1080,1920x922,Temporal Distance Task,cb_08,61.0,temp_dist_trial,num_items,zn7si1,1.0,response,1_ITEM,978.1000000000058,966.3000000000177,978.1000000000058,978.1000000000058,966.3000000000177,978.1000000000058,1.0,0.0,0.0,,Click Response,1_count,3.0,object-46,temp_dist_trial,13.0,s_s_14_1,student_stem,funnel,8.0,unique,single,s_s_14_1.jpg,Student,,,sub-38
Desktop or Laptop,Windows 10,Edge 137.0.0.0,1920x1080,1920x922,Temporal Distance Task,cb_08,62.0,temp_dist_trial,num_items,zn7si1,1.0,response,2_ITEM,849.6000000000058,833.0,849.6000000000058,849.6000000000058,833.0,849.6000000000058,1.0,0.0,0.0,,Click Response,2_count,5.0,object-49,temp_dist_trial,14.0,s_sh_04_1,student_shared,laptop stand,8.0,competing,paired,s_sh_04_1.jpg,Student,,,sub-38
Desktop or Laptop,Windows 10,Edge 137.0.0.0,1920x1080,1920x922,Temporal Distance Task,cb_08,62.0,temp_dist_trial,dist_items,qkpkxw,2.0,info,,9.200000190729044,0.0,9.200000190729044,9.200000190729044,0.0,9.200000190729044,1.0,0.0,0.0,,Slider,Slider,4.0,object-56,temp_dist_trial,14.0,s_sh_04_1,student_shared,laptop stand,8.0,competing,paired,s_sh_04_1.jpg,Student,,,sub-38
Desktop or Laptop,Windows 10,Edge 137.0.0.0,1920x1080,1920x922,Temporal Distance Task,cb_08,62.0,temp_dist_trial,dist_items,qkpkxw,2.0,continue,,1451.600000047678,1449.5,1451.600000047678,1451.600000047678,1449.5,1451.600000047678,1.0,0.0,0.0,,Click To Continue,Next button,7.0,object-60,temp_dist_trial,14.0,s_sh_04_1,student_shared,laptop stand,8.0,competing,paired,s_sh_04_1.jpg,Student,,,sub-38
Desktop or Laptop,Windows 10,Edge 137.0.0.0,1920x1080,1920x922,Temporal Distance Task,cb_08,62.0,temp_dist_trial,dist_items,qkpkxw,2.0,response,44,616.5,1449.5,1452.8999999999942,616.5,1449.5,1452.8999999999942,1.0,836.3999999999942,0.0,,Slider,Slider,4.0,object-56,temp_dist_trial,14.0,s_sh_04_1,student_shared,laptop stand,8.0,competing,paired,s_sh_04_1.jpg,Student,,,sub-38
Desktop or Laptop,Windows 10,Edge 137.0.0.0,1920x1080,1920x922,Temporal Distance Task,cb_08,63.0,temp_dist_trial,num_items,zn7si1,1.0,response,2_ITEM,863.3000000953616,849.6999999999823,863.3000000953616,863.3000000953616,849.6999999999823,863.3000000953616,1.0,0.0,0.0,,Click Response,2_count,5.0,object-49,temp_dist_trial,15.0,s_a_05_1,student_art,clay,8.0,unique,paired,s_a_05_1.jpg,Student,,,sub-38
Desktop or Laptop,Windows 10,Edge 137.0.0.0,1920x1080,1920x922,Temporal Distance Task,cb_08,63.0,temp_dist_trial,dist_items,qkpkxw,2.0,info,,8.799999999988357,0.0,8.799999999988357,8.799999999988357,0.0,8.799999999988357,1.0,0.0,0.0,,Slider,Slider,4.0,object-56,temp_dist_trial,15.0,s_a_05_1,student_art,clay,8.0,unique,paired,s_a_05_1.jpg,Student,,,sub-38
Desktop or Laptop,Windows 10,Edge 137.0.0.0,1920x1080,1920x922,Temporal Distance Task,cb_08,63.0,temp_dist_trial,dist_items,qkpkxw,2.0,continue,,1787.6000001907232,1782.8999999999942,1787.6000001907232,1787.6000001907232,1782.8999999999942,1787.6000001907232,1.0,0.0,0.0,,Click To Continue,Next button,7.0,object-60,temp_dist_trial,15.0,s_a_05_1,student_art,clay,8.0,unique,paired,s_a_05_1.jpg,Student,,,sub-38
Desktop or Laptop,Windows 10,Edge 137.0.0.0,1920x1080,1920x922,Temporal Distance Task,cb_08,63.0,temp_dist_trial,dist_items,qkpkxw,2.0,response,36,649.7999999999884,1782.8999999999942,1799.7000000000116,649.7999999999884,1782.8999999999942,1799.7000000000116,1.0,1149.9000000000233,0.0,,Slider,Slider,4.0,object-56,temp_dist_trial,15.0,s_a_05_1,student_art,clay,8.0,unique,paired,s_a_05_1.jpg,Student,,,sub-38
Desktop or Laptop,Windows 10,Edge 137.0.0.0,1920x1080,1920x922,Temporal Distance Task,cb_08,64.0,temp_dist_trial,num_items,zn7si1,1.0,response,2_ITEM,1119.8999999999942,1116.1999999999823,1119.8999999999942,1119.8999999999942,1116.1999999999823,1119.8999999999942,1.0,0.0,0.0,,Click Response,2_count,5.0,object-49,temp_dist_trial,16.0,s_sh_05_1,student_shared,laptop,8.0,competing,paired,s_sh_05_1.jpg,Student,,,sub-38
Desktop or Laptop,Windows 10,Edge 137.0.0.0,1920x1080,1920x922,Temporal Distance Task,cb_08,64.0,temp_dist_trial,dist_items,qkpkxw,2.0,info,,9.200000095355787,0.0,9.200000095355787,9.200000095355787,0.0,9.200000095355787,1.0,0.0,0.0,,Slider,Slider,4.0,object-56,temp_dist_trial,16.0,s_sh_05_1,student_shared,laptop,8.0,competing,paired,s_sh_05_1.jpg,Student,,,sub-38
Desktop or Laptop,Windows 10,Edge 137.0.0.0,1920x1080,1920x922,Temporal Distance Task,cb_08,64.0,temp_dist_trial,dist_items,qkpkxw,2.0,continue,,1865.8999999999944,1849.2999999999884,1865.8999999999944,1865.8999999999944,1849.2999999999884,1865.8999999999944,1.0,0.0,0.0,,Click To Continue,Next button,7.0,object-60,temp_dist_trial,16.0,s_sh_05_1,student_shared,laptop,8.0,competing,paired,s_sh_05_1.jpg,Student,,,sub-38
Desktop or Laptop,Windows 10,Edge 137.0.0.0,1920x1080,1920x922,Temporal Distance Task,cb_08,64.0,temp_dist_trial,dist_items,qkpkxw,2.0,response,67,583.0999999999767,1849.2999999999884,1865.8999999999944,583.0999999999767,1849.2999999999884,1865.8999999999944,1.0,1282.8000000000175,0.0,,Slider,Slider,4.0,object-56,temp_dist_trial,16.0,s_sh_05_1,student_shared,laptop,8.0,competing,paired,s_sh_05_1.jpg,Student,,,sub-38
Desktop or Laptop,Windows 10,Edge 137.0.0.0,1920x1080,1920x922,Temporal Distance Task,cb_08,65.0,temp_dist_trial,num_items,zn7si1,1.0,response,1_ITEM,1331.5,1316.2999999999886,1331.5,1331.5,1316.2999999999886,1331.5,1.0,0.0,0.0,,Click Response,1_count,3.0,object-46,temp_dist_trial,17.0,s_a_06_1,student_art,pastels,8.0,unique,paired,s_a_06_1.jpg,Student,,,sub-38
Desktop or Laptop,Windows 10,Edge 137.0.0.0,1920x1080,1920x922,Temporal Distance Task,cb_08,66.0,temp_dist_trial,num_items,zn7si1,1.0,response,2_ITEM,2202.600000047678,2199.3999999999937,2202.600000047678,2202.600000047678,2199.3999999999937,2202.600000047678,1.0,0.0,0.0,,Click Response,2_count,5.0,object-49,temp_dist_trial,18.0,s_sh_07_1,student_shared,ruler,8.0,competing,paired,s_sh_07_1.jpg,Student,,,sub-38
Desktop or Laptop,Windows 10,Edge 137.0.0.0,1920x1080,1920x922,Temporal Distance Task,cb_08,66.0,temp_dist_trial,dist_items,qkpkxw,2.0,info,,9.400000190740682,0.0,9.400000190740682,9.400000190740682,0.0,9.400000190740682,1.0,0.0,0.0,,Slider,Slider,4.0,object-56,temp_dist_trial,18.0,s_sh_07_1,student_shared,ruler,8.0,competing,paired,s_sh_07_1.jpg,Student,,,sub-38
Desktop or Laptop,Windows 10,Edge 137.0.0.0,1920x1080,1920x922,Temporal Distance Task,cb_08,66.0,temp_dist_trial,dist_items,qkpkxw,2.0,continue,,1328.3000000476895,1316.2000000000114,1328.3000000476895,1328.3000000476895,1316.2000000000114,1328.3000000476895,1.0,0.0,0.0,,Click To Continue,Next button,7.0,object-60,temp_dist_trial,18.0,s_sh_07_1,student_shared,ruler,8.0,competing,paired,s_sh_07_1.jpg,Student,,,sub-38
Desktop or Laptop,Windows 10,Edge 137.0.0.0,1920x1080,1920x922,Temporal Distance Task,cb_08,66.0,temp_dist_trial,dist_items,qkpkxw,2.0,response,26,782.8999999999942,1316.2000000000114,1329.400000190741,782.8999999999942,1316.2000000000114,1329.400000190741,1.0,546.5000001907465,0.0,,Slider,Slider,4.0,object-56,temp_dist_trial,18.0,s_sh_07_1,student_shared,ruler,8.0,competing,paired,s_sh_07_1.jpg,Student,,,sub-38
Desktop or Laptop,Windows 10,Edge 137.0.0.0,1920x1080,1920x922,Temporal Distance Task,cb_08,67.0,temp_dist_trial,num_items,zn7si1,1.0,response,2_ITEM,1703.5000001430453,1699.3999999999942,1703.5000001430453,1703.5000001430453,1699.3999999999942,1703.5000001430453,1.0,0.0,0.0,,Click Response,2_count,5.0,object-49,temp_dist_trial,19.0,s_sh_21_1,student_shared,file holder,8.0,competing,paired,s_sh_21_1.jpg,Student,,,sub-38
Desktop or Laptop,Windows 10,Edge 137.0.0.0,1920x1080,1920x922,Temporal Distance Task,cb_08,67.0,temp_dist_trial,dist_items,qkpkxw,2.0,info,,8.100000000005819,0.0,8.100000000005819,8.100000000005819,0.0,8.100000000005819,1.0,0.0,0.0,,Slider,Slider,4.0,object-56,temp_dist_trial,19.0,s_sh_21_1,student_shared,file holder,8.0,competing,paired,s_sh_21_1.jpg,Student,,,sub-38
Desktop or Laptop,Windows 10,Edge 137.0.0.0,1920x1080,1920x922,Temporal Distance Task,cb_08,67.0,temp_dist_trial,dist_items,qkpkxw,2.0,continue,,2593.700000143057,2582.5,2593.700000143057,2593.700000143057,2582.5,2593.700000143057,1.0,0.0,0.0,,Click To Continue,Next button,7.0,object-60,temp_dist_trial,19.0,s_sh_21_1,student_shared,file holder,8.0,competing,paired,s_sh_21_1.jpg,Student,,,sub-38
Desktop or Laptop,Windows 10,Edge 137.0.0.0,1920x1080,1920x922,Temporal Distance Task,cb_08,67.0,temp_dist_trial,dist_items,qkpkxw,2.0,response,13,1999.3000000000175,2582.5,2594.400000190741,1999.3000000000175,2582.5,2594.400000190741,1.0,595.1000001907232,0.0,,Slider,Slider,4.0,object-56,temp_dist_trial,19.0,s_sh_21_1,student_shared,file holder,8.0,competing,paired,s_sh_21_1.jpg,Student,,,sub-38
Desktop or Laptop,Windows 10,Edge 137.0.0.0,1920x1080,1920x922,Temporal Distance Task,cb_08,68.0,temp_dist_trial,num_items,zn7si1,1.0,response,2_ITEM,974.9000001907408,966.3999999999942,974.9000001907408,974.9000001907408,966.3999999999942,974.9000001907408,1.0,0.0,0.0,,Click Response,2_count,5.0,object-49,temp_dist_trial,20.0,s_sh_01_1,student_shared,notebook,8.0,competing,paired,s_sh_01_1.jpg,Student,,,sub-38
Desktop or Laptop,Windows 10,Edge 137.0.0.0,1920x1080,1920x922,Temporal Distance Task,cb_08,68.0,temp_dist_trial,dist_items,qkpkxw,2.0,info,,7.6000001430511475,0.0,7.6000001430511475,7.6000001430511475,0.0,7.6000001430511475,1.0,0.0,0.0,,Slider,Slider,4.0,object-56,temp_dist_trial,20.0,s_sh_01_1,student_shared,notebook,8.0,competing,paired,s_sh_01_1.jpg,Student,,,sub-38
Desktop or Laptop,Windows 10,Edge 137.0.0.0,1920x1080,1920x922,Temporal Distance Task,cb_08,68.0,temp_dist_trial,dist_items,qkpkxw,2.0,continue,,1283.0999999999767,1266.3999999999942,1283.0999999999767,1283.0999999999767,1266.3999999999942,1283.0999999999767,1.0,0.0,0.0,,Click To Continue,Next button,7.0,object-60,temp_dist_trial,20.0,s_sh_01_1,student_shared,notebook,8.0,competing,paired,s_sh_01_1.jpg,Student,,,sub-38
Desktop or Laptop,Windows 10,Edge 137.0.0.0,1920x1080,1920x922,Temporal Distance Task,cb_08,68.0,temp_dist_trial,dist_items,qkpkxw,2.0,response,17,683.2999999999884,1266.3999999999942,1283.0999999999767,683.2999999999884,1266.3999999999942,1283.0999999999767,1.0,599.7999999999884,0.0,,Slider,Slider,4.0,object-56,temp_dist_trial,20.0,s_sh_01_1,student_shared,notebook,8.0,competing,paired,s_sh_01_1.jpg,Student,,,sub-38
Desktop or Laptop,Windows 10,Edge 137.0.0.0,1920x1080,1920x922,Temporal Distance Task,cb_08,69.0,temp_dist_trial,num_items,zn7si1,1.0,response,1_ITEM,814.1000000000058,799.8999999999942,814.1000000000058,814.1000000000058,799.8999999999942,814.1000000000058,1.0,0.0,0.0,,Click Response,1_count,3.0,object-46,temp_dist_trial,21.0,s_s_13_1,student_stem,telescope,8.0,unique,single,s_s_13_1.jpg,Student,,,sub-38
Desktop or Laptop,Windows 10,Edge 137.0.0.0,1920x1080,1920x922,Temporal Distance Task,cb_08,70.0,temp_dist_trial,num_items,zn7si1,1.0,response,2_ITEM,1035.1000001430514,1033.0,1035.1000001430514,1035.1000001430514,1033.0,1035.1000001430514,1.0,0.0,0.0,,Click Response,2_count,5.0,object-49,temp_dist_trial,22.0,s_sh_19_1,student_shared,portable plastic drawer,8.0,competing,paired,s_sh_19_1.jpg,Student,,,sub-38
Desktop or Laptop,Windows 10,Edge 137.0.0.0,1920x1080,1920x922,Temporal Distance Task,cb_08,70.0,temp_dist_trial,dist_items,qkpkxw,2.0,info,,3.79999999998836,0.0,3.79999999998836,3.79999999998836,0.0,3.79999999998836,1.0,0.0,0.0,,Slider,Slider,4.0,object-56,temp_dist_trial,22.0,s_sh_19_1,student_shared,portable plastic drawer,8.0,competing,paired,s_sh_19_1.jpg,Student,,,sub-38
Desktop or Laptop,Windows 10,Edge 137.0.0.0,1920x1080,1920x922,Temporal Distance Task,cb_08,70.0,temp_dist_trial,dist_items,qkpkxw,2.0,continue,,5656.2999999999865,5648.2999999999865,5656.2999999999865,5656.2999999999865,5648.2999999999865,5656.2999999999865,1.0,0.0,0.0,,Click To Continue,Next button,7.0,object-60,temp_dist_trial,22.0,s_sh_19_1,student_shared,portable plastic drawer,8.0,competing,paired,s_sh_19_1.jpg,Student,,,sub-38
Desktop or Laptop,Windows 10,Edge 137.0.0.0,1920x1080,1920x922,Temporal Distance Task,cb_08,70.0,temp_dist_trial,dist_items,qkpkxw,2.0,response,8,4332.099999999977,5648.2999999999865,5664.899999999994,4332.099999999977,5648.2999999999865,5664.899999999994,1.0,1332.8000000000175,0.0,,Slider,Slider,4.0,object-56,temp_dist_trial,22.0,s_sh_19_1,student_shared,portable plastic drawer,8.0,competing,paired,s_sh_19_1.jpg,Student,,,sub-38
Desktop or Laptop,Windows 10,Edge 137.0.0.0,1920x1080,1920x922,Temporal Distance Task,cb_08,71.0,temp_dist_trial,num_items,zn7si1,1.0,response,1_ITEM,1536.8000001907349,1532.7999999999884,1536.8000001907349,1536.8000001907349,1532.7999999999884,1536.8000001907349,1.0,0.0,0.0,,Click Response,1_count,3.0,object-46,temp_dist_trial,23.0,s_sh_10_1,student_shared,scissors,8.0,competing,single,s_sh_10_1.jpg,Student,,,sub-38
Desktop or Laptop,Windows 10,Edge 137.0.0.0,1920x1080,1920x922,Temporal Distance Task,cb_08,72.0,temp_dist_trial,num_items,zn7si1,1.0,response,1_ITEM,882.1000001907232,866.3999999999942,882.1000001907232,882.1000001907232,866.3999999999942,882.1000001907232,1.0,0.0,0.0,,Click Response,1_count,3.0,object-46,temp_dist_trial,24.0,s_a_09_1,student_art,picture frame,8.0,unique,single,s_a_09_1.jpg,Student,,,sub-38
Desktop or Laptop,Windows 10,Edge 137.0.0.0,1920x1080,1920x922,Temporal Distance Task,cb_08,73.0,temp_dist_trial,num_items,zn7si1,1.0,response,1_ITEM,1531.4000000953674,1516.1000000000058,1531.4000000953674,1531.4000000953674,1516.1000000000058,1531.4000000953674,1.0,0.0,0.0,,Click Response,1_count,3.0,object-46,temp_dist_trial,25.0,s_a_13_1,student_art,violin,8.0,unique,single,s_a_13_1.jpg,Student,,,sub-38
Desktop or Laptop,Windows 10,Edge 137.0.0.0,1920x1080,1920x922,Temporal Distance Task,cb_08,74.0,temp_dist_trial,num_items,zn7si1,1.0,response,1_ITEM,1398.8000000953616,1382.7999999999884,1398.8000000953616,1398.8000000953616,1382.7999999999884,1398.8000000953616,1.0,0.0,0.0,,Click Response,1_count,3.0,object-46,temp_dist_trial,26.0,s_sh_13_1,student_shared,index cards,8.0,competing,single,s_sh_13_1.jpg,Student,,,sub-38
Desktop or Laptop,Windows 10,Edge 137.0.0.0,1920x1080,1920x922,Temporal Distance Task,cb_08,75.0,temp_dist_trial,num_items,zn7si1,1.0,response,1_ITEM,833.1999999999823,816.5,833.1999999999823,833.1999999999823,816.5,833.1999999999823,1.0,0.0,0.0,,Click Response,1_count,3.0,object-46,temp_dist_trial,27.0,s_sh_15_1,student_shared,usb drive,8.0,competing,single,s_sh_15_1.jpg,Student,,,sub-38
Desktop or Laptop,Windows 10,Edge 137.0.0.0,1920x1080,1920x922,Temporal Distance Task,cb_08,76.0,temp_dist_trial,num_items,zn7si1,1.0,response,2_ITEM,885.6000000476779,883.0,885.6000000476779,885.6000000476779,883.0,885.6000000476779,1.0,0.0,0.0,,Click Response,2_count,5.0,object-49,temp_dist_trial,28.0,s_sh_12_1,student_shared,binder,8.0,competing,single,s_sh_12_1.jpg,Student,,,sub-38
Desktop or Laptop,Windows 10,Edge 137.0.0.0,1920x1080,1920x922,Temporal Distance Task,cb_08,76.0,temp_dist_trial,dist_items,qkpkxw,2.0,info,,7.700000190729043,0.0,7.700000190729043,7.700000190729043,0.0,7.700000190729043,1.0,0.0,0.0,,Slider,Slider,4.0,object-56,temp_dist_trial,28.0,s_sh_12_1,student_shared,binder,8.0,competing,single,s_sh_12_1.jpg,Student,,,sub-38
Desktop or Laptop,Windows 10,Edge 137.0.0.0,1920x1080,1920x922,Temporal Distance Task,cb_08,76.0,temp_dist_trial,dist_items,qkpkxw,2.0,continue,,1423.700000190729,1416.2999999999884,1423.700000190729,1423.700000190729,1416.2999999999884,1423.700000190729,1.0,0.0,0.0,,Click To Continue,Next button,7.0,object-60,temp_dist_trial,28.0,s_sh_12_1,student_shared,binder,8.0,competing,single,s_sh_12_1.jpg,Student,,,sub-38
Desktop or Laptop,Windows 10,Edge 137.0.0.0,1920x1080,1920x922,Temporal Distance Task,cb_08,76.0,temp_dist_trial,dist_items,qkpkxw,2.0,response,28,399.8999999999942,1416.2999999999884,1424.100000047678,399.8999999999942,1416.2999999999884,1424.100000047678,1.0,1024.2000000476835,0.0,,Slider,Slider,4.0,object-56,temp_dist_trial,28.0,s_sh_12_1,student_shared,binder,8.0,competing,single,s_sh_12_1.jpg,Student,,,sub-38
Desktop or Laptop,Windows 10,Edge 137.0.0.0,1920x1080,1920x922,Temporal Distance Task,cb_08,77.0,temp_dist_trial,num_items,zn7si1,1.0,response,2_ITEM,1332.0000000953733,1316.1000000000058,1332.0000000953733,1332.0000000953733,1316.1000000000058,1332.0000000953733,1.0,0.0,0.0,,Click Response,2_count,5.0,object-49,temp_dist_trial,29.0,s_a_15_1,student_art,drum kit,8.0,unique,paired,s_a_15_1.jpg,Student,,,sub-38
Desktop or Laptop,Windows 10,Edge 137.0.0.0,1920x1080,1920x922,Temporal Distance Task,cb_08,77.0,temp_dist_trial,dist_items,qkpkxw,2.0,info,,8.900000190740682,0.0,8.900000190740682,8.900000190740682,0.0,8.900000190740682,1.0,0.0,0.0,,Slider,Slider,4.0,object-56,temp_dist_trial,29.0,s_a_15_1,student_art,drum kit,8.0,unique,paired,s_a_15_1.jpg,Student,,,sub-38
Desktop or Laptop,Windows 10,Edge 137.0.0.0,1920x1080,1920x922,Temporal Distance Task,cb_08,77.0,temp_dist_trial,dist_items,qkpkxw,2.0,continue,,1713.3000000476895,1699.5,1713.3000000476895,1713.3000000476895,1699.5,1713.3000000476895,1.0,0.0,0.0,,Click To Continue,Next button,7.0,object-60,temp_dist_trial,29.0,s_a_15_1,student_art,drum kit,8.0,unique,paired,s_a_15_1.jpg,Student,,,sub-38
Desktop or Laptop,Windows 10,Edge 137.0.0.0,1920x1080,1920x922,Temporal Distance Task,cb_08,77.0,temp_dist_trial,dist_items,qkpkxw,2.0,response,66,766.5,1699.5,1713.9000001907407,766.5,1699.5,1713.9000001907407,1.0,947.4000001907408,0.0,,Slider,Slider,4.0,object-56,temp_dist_trial,29.0,s_a_15_1,student_art,drum kit,8.0,unique,paired,s_a_15_1.jpg,Student,,,sub-38
Desktop or Laptop,Windows 10,Edge 137.0.0.0,1920x1080,1920x922,Temporal Distance Task,cb_08,78.0,temp_dist_trial,num_items,zn7si1,1.0,response,2_ITEM,1021.700000143057,1016.2000000000116,1021.700000143057,1021.700000143057,1016.2000000000116,1021.700000143057,1.0,0.0,0.0,,Click Response,2_count,5.0,object-49,temp_dist_trial,30.0,s_s_15_1,student_stem,jumper cables,8.0,unique,paired,s_s_15_1.jpg,Student,,,sub-38
Desktop or Laptop,Windows 10,Edge 137.0.0.0,1920x1080,1920x922,Temporal Distance Task,cb_08,78.0,temp_dist_trial,dist_items,qkpkxw,2.0,info,,6.600000000005821,0.0,6.600000000005821,6.600000000005821,0.0,6.600000000005821,1.0,0.0,0.0,,Slider,Slider,4.0,object-56,temp_dist_trial,30.0,s_s_15_1,student_stem,jumper cables,8.0,unique,paired,s_s_15_1.jpg,Student,,,sub-38
Desktop or Laptop,Windows 10,Edge 137.0.0.0,1920x1080,1920x922,Temporal Distance Task,cb_08,78.0,temp_dist_trial,dist_items,qkpkxw,2.0,continue,,1246.700000143057,1232.7000000000114,1246.700000143057,1246.700000143057,1232.7000000000114,1246.700000143057,1.0,0.0,0.0,,Click To Continue,Next button,7.0,object-60,temp_dist_trial,30.0,s_s_15_1,student_stem,jumper cables,8.0,unique,paired,s_s_15_1.jpg,Student,,,sub-38
Desktop or Laptop,Windows 10,Edge 137.0.0.0,1920x1080,1920x922,Temporal Distance Task,cb_08,78.0,temp_dist_trial,dist_items,qkpkxw,2.0,response,24,549.6000000000058,1232.7000000000114,1247.6000000000058,549.6000000000058,1232.7000000000114,1247.6000000000058,1.0,698.0,0.0,,Slider,Slider,4.0,object-56,temp_dist_trial,30.0,s_s_15_1,student_stem,jumper cables,8.0,unique,paired,s_s_15_1.jpg,Student,,,sub-38
Desktop or Laptop,Windows 10,Edge 137.0.0.0,1920x1080,1920x922,Temporal Distance Task,cb_08,79.0,temp_dist_trial,num_items,zn7si1,1.0,response,2_ITEM,1009.6000000476781,999.6000000000058,1009.6000000476781,1009.6000000476781,999.6000000000058,1009.6000000476781,1.0,0.0,0.0,,Click Response,2_count,5.0,object-49,temp_dist_trial,31.0,s_sh_17_1,student_shared,wireless mouse,8.0,competing,paired,s_sh_17_1.jpg,Student,,,sub-38
Desktop or Laptop,Windows 10,Edge 137.0.0.0,1920x1080,1920x922,Temporal Distance Task,cb_08,79.0,temp_dist_trial,dist_items,qkpkxw,2.0,info,,8.600000047677895,0.0,8.600000047677895,8.600000047677895,0.0,8.600000047677895,1.0,0.0,0.0,,Slider,Slider,4.0,object-56,temp_dist_trial,31.0,s_sh_17_1,student_shared,wireless mouse,8.0,competing,paired,s_sh_17_1.jpg,Student,,,sub-38
Desktop or Laptop,Windows 10,Edge 137.0.0.0,1920x1080,1920x922,Temporal Distance Task,cb_08,79.0,temp_dist_trial,dist_items,qkpkxw,2.0,continue,,1924.5000001430453,1916.1000000000056,1924.5000001430453,1924.5000001430453,1916.1000000000056,1924.5000001430453,1.0,0.0,0.0,,Click To Continue,Next button,7.0,object-60,temp_dist_trial,31.0,s_sh_17_1,student_shared,wireless mouse,8.0,competing,paired,s_sh_17_1.jpg,Student,,,sub-38
Desktop or Laptop,Windows 10,Edge 137.0.0.0,1920x1080,1920x922,Temporal Distance Task,cb_08,79.0,temp_dist_trial,dist_items,qkpkxw,2.0,response,58,1266.1999999999825,1916.1000000000056,1926.0000001430453,1266.1999999999825,1916.1000000000056,1926.0000001430453,1.0,659.8000001430628,0.0,,Slider,Slider,4.0,object-56,temp_dist_trial,31.0,s_sh_17_1,student_shared,wireless mouse,8.0,competing,paired,s_sh_17_1.jpg,Student,,,sub-38
Desktop or Laptop,Windows 10,Edge 137.0.0.0,1920x1080,1920x922,Temporal Distance Task,cb_08,80.0,temp_dist_trial,num_items,zn7si1,1.0,response,2_ITEM,1031.2000000953558,1016.1999999999823,1031.2000000953558,1031.2000000953558,1016.1999999999823,1031.2000000953558,1.0,0.0,0.0,,Click Response,2_count,5.0,object-49,temp_dist_trial,32.0,s_s_10_1,student_stem,3d molecule,8.0,unique,paired,s_s_10_1.jpg,Student,,,sub-38
Desktop or Laptop,Windows 10,Edge 137.0.0.0,1920x1080,1920x922,Temporal Distance Task,cb_08,80.0,temp_dist_trial,dist_items,qkpkxw,2.0,info,,8.200000000011643,0.0,8.200000000011643,8.200000000011643,0.0,8.200000000011643,1.0,0.0,0.0,,Slider,Slider,4.0,object-56,temp_dist_trial,32.0,s_s_10_1,student_stem,3d molecule,8.0,unique,paired,s_s_10_1.jpg,Student,,,sub-38
Desktop or Laptop,Windows 10,Edge 137.0.0.0,1920x1080,1920x922,Temporal Distance Task,cb_08,80.0,temp_dist_trial,dist_items,qkpkxw,2.0,continue,,3052.0000001907465,3049.1000000000067,3052.0000001907465,3052.0000001907465,3049.1000000000067,3052.0000001907465,1.0,0.0,0.0,,Click To Continue,Next button,7.0,object-60,temp_dist_trial,32.0,s_s_10_1,student_stem,3d molecule,8.0,unique,paired,s_s_10_1.jpg,Student,,,sub-38
Desktop or Laptop,Windows 10,Edge 137.0.0.0,1920x1080,1920x922,Temporal Distance Task,cb_08,80.0,temp_dist_trial,dist_items,qkpkxw,2.0,response,37,666.6000000000057,3049.1000000000067,3065.7999999999884,666.6000000000057,3049.1000000000067,3065.7999999999884,1.0,2399.1999999999825,0.0,,Slider,Slider,4.0,object-56,temp_dist_trial,32.0,s_s_10_1,student_stem,3d molecule,8.0,unique,paired,s_s_10_1.jpg,Student,,,sub-38
Desktop or Laptop,Windows 10,Edge 137.0.0.0,1920x1080,1920x922,Temporal Distance Task,cb_08,81.0,temp_dist_trial,num_items,zn7si1,1.0,response,2_ITEM,1923.700000143057,1916.0,1923.700000143057,1923.700000143057,1916.0,1923.700000143057,1.0,0.0,0.0,,Click Response,2_count,5.0,object-49,temp_dist_trial,33.0,s_sh_08_1,student_shared,post-its,8.0,competing,paired,s_sh_08_1.jpg,Student,,,sub-38
Desktop or Laptop,Windows 10,Edge 137.0.0.0,1920x1080,1920x922,Temporal Distance Task,cb_08,81.0,temp_dist_trial,dist_items,qkpkxw,2.0,info,,7.0000000476720725,0.0,7.0000000476720725,7.0000000476720725,0.0,7.0000000476720725,1.0,0.0,0.0,,Slider,Slider,4.0,object-56,temp_dist_trial,33.0,s_sh_08_1,student_shared,post-its,8.0,competing,paired,s_sh_08_1.jpg,Student,,,sub-38
Desktop or Laptop,Windows 10,Edge 137.0.0.0,1920x1080,1920x922,Temporal Distance Task,cb_08,81.0,temp_dist_trial,dist_items,qkpkxw,2.0,continue,,2512.2000000953562,2499.1999999999825,2512.2000000953562,2512.2000000953562,2499.1999999999825,2512.2000000953562,1.0,0.0,0.0,,Click To Continue,Next button,7.0,object-60,temp_dist_trial,33.0,s_sh_08_1,student_shared,post-its,8.0,competing,paired,s_sh_08_1.jpg,Student,,,sub-38
Desktop or Laptop,Windows 10,Edge 137.0.0.0,1920x1080,1920x922,Temporal Distance Task,cb_08,81.0,temp_dist_trial,dist_items,qkpkxw,2.0,response,62,1082.8999999999942,2499.1999999999825,2513.000000047672,1082.8999999999942,2499.1999999999825,2513.000000047672,1.0,1430.100000047678,0.0,,Slider,Slider,4.0,object-56,temp_dist_trial,33.0,s_sh_08_1,student_shared,post-its,8.0,competing,paired,s_sh_08_1.jpg,Student,,,sub-38
Desktop or Laptop,Windows 10,Edge 137.0.0.0,1920x1080,1920x922,Temporal Distance Task,cb_08,82.0,temp_dist_trial,num_items,zn7si1,1.0,response,1_ITEM,845.6000000000058,833.0,845.6000000000058,845.6000000000058,833.0,845.6000000000058,1.0,0.0,0.0,,Click Response,1_count,3.0,object-46,temp_dist_trial,34.0,s_s_17_1,student_stem,ring stand,8.0,unique,single,s_s_17_1.jpg,Student,,,sub-38
Desktop or Laptop,Windows 10,Edge 137.0.0.0,1920x1080,1920x922,Temporal Distance Task,cb_08,83.0,temp_dist_trial,num_items,zn7si1,1.0,response,2_ITEM,1435.1000001430511,1432.7999999999884,1435.1000001430511,1435.1000001430511,1432.7999999999884,1435.1000001430511,1.0,0.0,0.0,,Click Response,2_count,5.0,object-49,temp_dist_trial,35.0,s_s_06_1,student_stem,calculator,8.0,unique,paired,s_s_06_1.jpg,Student,,,sub-38
Desktop or Laptop,Windows 10,Edge 137.0.0.0,1920x1080,1920x922,Temporal Distance Task,cb_08,83.0,temp_dist_trial,dist_items,qkpkxw,2.0,info,,3.700000047683716,0.0,3.700000047683716,3.700000047683716,0.0,3.700000047683716,1.0,0.0,0.0,,Slider,Slider,4.0,object-56,temp_dist_trial,35.0,s_s_06_1,student_stem,calculator,8.0,unique,paired,s_s_06_1.jpg,Student,,,sub-38
Desktop or Laptop,Windows 10,Edge 137.0.0.0,1920x1080,1920x922,Temporal Distance Task,cb_08,83.0,temp_dist_trial,dist_items,qkpkxw,2.0,continue,,1249.7000000000114,1233.1000000000058,1249.7000000000114,1249.7000000000114,1233.1000000000058,1249.7000000000114,1.0,0.0,0.0,,Click To Continue,Next button,7.0,object-60,temp_dist_trial,35.0,s_s_06_1,student_stem,calculator,8.0,unique,paired,s_s_06_1.jpg,Student,,,sub-38
Desktop or Laptop,Windows 10,Edge 137.0.0.0,1920x1080,1920x922,Temporal Distance Task,cb_08,83.0,temp_dist_trial,dist_items,qkpkxw,2.0,response,38,633.2999999999884,1233.1000000000058,1249.7000000000114,633.2999999999884,1233.1000000000058,1249.7000000000114,1.0,616.4000000000233,0.0,,Slider,Slider,4.0,object-56,temp_dist_trial,35.0,s_s_06_1,student_stem,calculator,8.0,unique,paired,s_s_06_1.jpg,Student,,,sub-38
Desktop or Laptop,Windows 10,Edge 137.0.0.0,1920x1080,1920x922,Temporal Distance Task,cb_08,84.0,temp_dist_trial,num_items,zn7si1,1.0,response,2_ITEM,1091.3000000953616,1082.8999999999942,1091.3000000953616,1091.3000000953616,1082.8999999999942,1091.3000000953616,1.0,0.0,0.0,,Click Response,2_count,5.0,object-49,temp_dist_trial,36.0,s_s_20_1,student_stem,dna model,8.0,unique,paired,s_s_20_1.jpg,Student,,,sub-38
Desktop or Laptop,Windows 10,Edge 137.0.0.0,1920x1080,1920x922,Temporal Distance Task,cb_08,84.0,temp_dist_trial,dist_items,qkpkxw,2.0,info,,8.800000047689537,0.0,8.800000047689537,8.800000047689537,0.0,8.800000047689537,1.0,0.0,0.0,,Slider,Slider,4.0,object-56,temp_dist_trial,36.0,s_s_20_1,student_stem,dna model,8.0,unique,paired,s_s_20_1.jpg,Student,,,sub-38
Desktop or Laptop,Windows 10,Edge 137.0.0.0,1920x1080,1920x922,Temporal Distance Task,cb_08,84.0,temp_dist_trial,dist_items,qkpkxw,2.0,continue,,2120.1000000000063,2116.0,2120.1000000000063,2120.1000000000063,2116.0,2120.1000000000063,1.0,0.0,0.0,,Click To Continue,Next button,7.0,object-60,temp_dist_trial,36.0,s_s_20_1,student_stem,dna model,8.0,unique,paired,s_s_20_1.jpg,Student,,,sub-38
Desktop or Laptop,Windows 10,Edge 137.0.0.0,1920x1080,1920x922,Temporal Distance Task,cb_08,84.0,temp_dist_trial,dist_items,qkpkxw,2.0,response,17,1382.8999999999942,2116.0,2120.6000000000063,1382.8999999999942,2116.0,2120.6000000000063,1.0,737.7000000000116,0.0,,Slider,Slider,4.0,object-56,temp_dist_trial,36.0,s_s_20_1,student_stem,dna model,8.0,unique,paired,s_s_20_1.jpg,Student,,,sub-38
Desktop or Laptop,Windows 10,Edge 137.0.0.0,1920x1080,1920x922,Temporal Distance Task,cb_08,85.0,temp_dist_trial,num_items,zn7si1,1.0,response,1_ITEM,1539.4000001907407,1532.8000000000175,1539.4000001907407,1539.4000001907407,1532.8000000000175,1539.4000001907407,1.0,0.0,0.0,,Click Response,1_count,3.0,object-46,temp_dist_trial,37.0,s_sh_09_1,student_shared,paper clips,8.0,competing,paired,s_sh_09_1.jpg,Student,,,sub-38
Desktop or Laptop,Windows 10,Edge 137.0.0.0,1920x1080,1920x922,Temporal Distance Task,cb_08,86.0,temp_dist_trial,num_items,zn7si1,1.0,response,2_ITEM,1109.700000190729,1099.6999999999823,1109.700000190729,1109.700000190729,1099.6999999999823,1109.700000190729,1.0,0.0,0.0,,Click Response,2_count,5.0,object-49,temp_dist_trial,38.0,s_a_01_1,student_art,paintbrush,8.0,unique,paired,s_a_01_1.jpg,Student,,,sub-38
Desktop or Laptop,Windows 10,Edge 137.0.0.0,1920x1080,1920x922,Temporal Distance Task,cb_08,86.0,temp_dist_trial,dist_items,qkpkxw,2.0,info,,3.300000190734864,0.0,3.300000190734864,3.300000190734864,0.0,3.300000190734864,1.0,0.0,0.0,,Slider,Slider,4.0,object-56,temp_dist_trial,38.0,s_a_01_1,student_art,paintbrush,8.0,unique,paired,s_a_01_1.jpg,Student,,,sub-38
Desktop or Laptop,Windows 10,Edge 137.0.0.0,1920x1080,1920x922,Temporal Distance Task,cb_08,86.0,temp_dist_trial,dist_items,qkpkxw,2.0,continue,,2132.700000047684,2116.200000000012,2132.700000047684,2132.700000047684,2116.200000000012,2132.700000047684,1.0,0.0,0.0,,Click To Continue,Next button,7.0,object-60,temp_dist_trial,38.0,s_a_01_1,student_art,paintbrush,8.0,unique,paired,s_a_01_1.jpg,Student,,,sub-38
Desktop or Laptop,Windows 10,Edge 137.0.0.0,1920x1080,1920x922,Temporal Distance Task,cb_08,86.0,temp_dist_trial,dist_items,qkpkxw,2.0,response,34,1333.1000000000058,2116.200000000012,2132.9000000000233,1333.1000000000058,2116.200000000012,2132.9000000000233,1.0,799.8000000000177,0.0,,Slider,Slider,4.0,object-56,temp_dist_trial,38.0,s_a_01_1,student_art,paintbrush,8.0,unique,paired,s_a_01_1.jpg,Student,,,sub-38
Desktop or Laptop,Windows 10,Edge 137.0.0.0,1920x1080,1920x922,Temporal Distance Task,cb_08,87.0,temp_dist_trial,num_items,zn7si1,1.0,response,1_ITEM,755.4000001430395,749.6999999999823,755.4000001430395,755.4000001430395,749.6999999999823,755.4000001430395,1.0,0.0,0.0,,Click Response,1_count,3.0,object-46,temp_dist_trial,39.0,s_s_16_1,student_stem,toolbox,8.0,unique,paired,s_s_16_1.jpg,Student,,,sub-38
Desktop or Laptop,Windows 10,Edge 137.0.0.0,1920x1080,1920x922,Temporal Distance Task,cb_08,88.0,temp_dist_trial,num_items,zn7si1,1.0,response,2_ITEM,863.3000001430628,849.6000000000058,863.3000001430628,863.3000001430628,849.6000000000058,863.3000001430628,1.0,0.0,0.0,,Click Response,2_count,5.0,object-49,temp_dist_trial,40.0,s_a_18_1,student_art,tutu,8.0,unique,paired,s_a_18_1.jpg,Student,,,sub-38
Desktop or Laptop,Windows 10,Edge 137.0.0.0,1920x1080,1920x922,Temporal Distance Task,cb_08,88.0,temp_dist_trial,dist_items,qkpkxw,2.0,info,,8.900000190740682,0.0,8.900000190740682,8.900000190740682,0.0,8.900000190740682,1.0,0.0,0.0,,Slider,Slider,4.0,object-56,temp_dist_trial,40.0,s_a_18_1,student_art,tutu,8.0,unique,paired,s_a_18_1.jpg,Student,,,sub-38
