Participant Device,Participant OS,Participant Browser,Participant Monitor Size,Participant Viewport Size,Task Name,Current Spreadsheet,Trial Number,Display,Screen,Screen ID,Screen Counter,Response Type,Response,Onset Time,Clock Time,Reaction Time,Absolute Onset Time,Absolute Clock Time,Absolute Reaction Time,Correct,Response Duration,Proportion,Tag,Component Name,Object Name,Object Number,Object ID,Spreadsheet: display,Spreadsheet: trial,Spreadsheet: stimulus_id,Spreadsheet: expected_goal,Spreadsheet: stimulus_name,Spreadsheet: c_group,Spreadsheet: condition,Spreadsheet: paired_status,Spreadsheet: stimulus_path,Spreadsheet: block_type,Manipulation: Spreadsheet,Store: enc_test_acc,sub_label
Desktop or Laptop,Windows 10,Chrome 137.0.0.0,2048x1152,2048x1026,Temporal Distance Task,$${counterbalance_group},,,,,,info,BEGIN,,,,,,,0.0,,,,,,,,,,,,,,,,,,,,sub-32
Desktop or Laptop,Windows 10,Chrome 137.0.0.0,2048x1152,2048x1026,Temporal Distance Task,cb_03,1.0,temp_instructions,intro_screen,3tnme7,1.0,continue,,3708.400000286102,3703.1,3708.400000286102,3708.400000286102,3703.1,3708.400000286102,1.0,0.0,0.0,,Click To Continue,Continue Button,4.0,object-29,temp_instructions,,,Student,,,,,,,,,sub-32
Desktop or Laptop,Windows 10,Chrome 137.0.0.0,2048x1152,2048x1026,Temporal Distance Task,cb_03,1.0,temp_instructions,intro_screen_2,52v7ur,2.0,continue,,3644.4000001907348,3636.300000000001,3644.4000001907348,3644.4000001907348,3636.300000000001,3644.4000001907348,1.0,0.0,0.0,,Click To Continue,Continue Button,4.0,object-39,temp_instructions,,,Student,,,,,,,,,sub-32
Desktop or Laptop,Windows 10,Chrome 137.0.0.0,2048x1152,2048x1026,Temporal Distance Task,cb_03,1.0,temp_instructions,intro_screen_3,i7lvwx,3.0,continue,,3152.5000002861016,3136.0,3152.5000002861016,3152.5000002861016,3136.0,3152.5000002861016,1.0,0.0,0.0,,Click To Continue,Continue Button,4.0,object-67,temp_instructions,,,Student,,,,,,,,,sub-32
Desktop or Laptop,Windows 10,Chrome 137.0.0.0,2048x1152,2048x1026,Temporal Distance Task,cb_03,1.0,temp_instructions,test_q1,5ieqx1,4.0,response,choice_3,3827.400000381469,3819.8999999999987,3827.400000381469,3827.400000381469,3819.8999999999987,3827.400000381469,1.0,0.0,0.0,,Click Response,choice_3,5.0,object-345,temp_instructions,,,Student,,,,,,,,,sub-32
Desktop or Laptop,Windows 10,Chrome 137.0.0.0,2048x1152,2048x1026,Temporal Distance Task,cb_03,1.0,temp_instructions,score_corr,7ilvjr,5.0,continue,,1011.600000286104,1000.9000000000017,1011.600000286104,1011.600000286104,1000.9000000000017,1011.600000286104,1.0,0.0,0.0,,Click To Continue,Continue Button,3.0,object-23,temp_instructions,,,Student,,,,,,,,,sub-32
Desktop or Laptop,Windows 10,Chrome 137.0.0.0,2048x1152,2048x1026,Temporal Distance Task,cb_03,1.0,temp_eventStart,Screen 1,dgtyxe,1.0,continue,,1196.3000001907346,1184.2999999999993,1196.3000001907346,1196.3000001907346,1184.2999999999993,1196.3000001907346,1.0,0.0,0.0,,Click To Continue,Next Button,3.0,object-43,temp_eventStart,,,Student,,,,,,,,,sub-32
Desktop or Laptop,Windows 10,Chrome 137.0.0.0,2048x1152,2048x1026,Temporal Distance Task,cb_03,1.0,temp_dist_trial,num_items,zn7si1,1.0,response,1_ITEM,2606.7000000000007,2602.2000000000007,2606.7000000000007,2606.7000000000007,2602.2000000000007,2606.7000000000007,1.0,0.0,0.0,,Click Response,1_count,3.0,object-46,temp_dist_trial,1.0,s_sh_21_1,student_shared,file holder,3.0,competing,single,s_sh_21_1.jpg,Student,,,sub-32
Desktop or Laptop,Windows 10,Chrome 137.0.0.0,2048x1152,2048x1026,Temporal Distance Task,cb_03,2.0,temp_dist_trial,num_items,zn7si1,1.0,response,2_ITEM,1946.9000002861026,1935.0,1946.9000002861026,1946.9000002861026,1935.0,1946.9000002861026,1.0,0.0,0.0,,Click Response,2_count,5.0,object-49,temp_dist_trial,2.0,s_a_11_1,student_art,clapperboard,3.0,unique,paired,s_a_11_1.jpg,Student,,,sub-32
Desktop or Laptop,Windows 10,Chrome 137.0.0.0,2048x1152,2048x1026,Temporal Distance Task,cb_03,2.0,temp_dist_trial,dist_items,qkpkxw,2.0,info,,4.000000286101567,0.0,4.000000286101567,4.000000286101567,0.0,4.000000286101567,1.0,0.0,0.0,,Slider,Slider,4.0,object-56,temp_dist_trial,2.0,s_a_11_1,student_art,clapperboard,3.0,unique,paired,s_a_11_1.jpg,Student,,,sub-32
Desktop or Laptop,Windows 10,Chrome 137.0.0.0,2048x1152,2048x1026,Temporal Distance Task,cb_03,2.0,temp_dist_trial,dist_items,qkpkxw,2.0,continue,,3004.7999999999993,3002.7999999999993,3004.7999999999993,3004.7999999999993,3002.7999999999993,3004.7999999999993,1.0,0.0,0.0,,Click To Continue,Next button,7.0,object-60,temp_dist_trial,2.0,s_a_11_1,student_art,clapperboard,3.0,unique,paired,s_a_11_1.jpg,Student,,,sub-32
Desktop or Laptop,Windows 10,Chrome 137.0.0.0,2048x1152,2048x1026,Temporal Distance Task,cb_03,2.0,temp_dist_trial,dist_items,qkpkxw,2.0,response,78,1368.0,3002.7999999999993,3006.2000000953667,1368.0,3002.7999999999993,3006.2000000953667,1.0,1638.2000000953672,0.0,,Slider,Slider,4.0,object-56,temp_dist_trial,2.0,s_a_11_1,student_art,clapperboard,3.0,unique,paired,s_a_11_1.jpg,Student,,,sub-32
Desktop or Laptop,Windows 10,Chrome 137.0.0.0,2048x1152,2048x1026,Temporal Distance Task,cb_03,3.0,temp_dist_trial,num_items,zn7si1,1.0,response,2_ITEM,2435.299999999996,2418.5999999999985,2435.299999999996,2435.299999999996,2418.5999999999985,2435.299999999996,1.0,0.0,0.0,,Click Response,2_count,5.0,object-49,temp_dist_trial,3.0,s_a_08_1,student_art,sewing machine,3.0,unique,paired,s_a_08_1.jpg,Student,,,sub-32
Desktop or Laptop,Windows 10,Chrome 137.0.0.0,2048x1152,2048x1026,Temporal Distance Task,cb_03,3.0,temp_dist_trial,dist_items,qkpkxw,2.0,info,,5.000000190735591,0.0,5.000000190735591,5.000000190735591,0.0,5.000000190735591,1.0,0.0,0.0,,Slider,Slider,4.0,object-56,temp_dist_trial,3.0,s_a_08_1,student_art,sewing machine,3.0,unique,paired,s_a_08_1.jpg,Student,,,sub-32
Desktop or Laptop,Windows 10,Chrome 137.0.0.0,2048x1152,2048x1026,Temporal Distance Task,cb_03,3.0,temp_dist_trial,dist_items,qkpkxw,2.0,continue,,1784.8999999999978,1768.2000000000005,1784.8999999999978,1784.8999999999978,1768.2000000000005,1784.8999999999978,1.0,0.0,0.0,,Click To Continue,Next button,7.0,object-60,temp_dist_trial,3.0,s_a_08_1,student_art,sewing machine,3.0,unique,paired,s_a_08_1.jpg,Student,,,sub-32
Desktop or Laptop,Windows 10,Chrome 137.0.0.0,2048x1152,2048x1026,Temporal Distance Task,cb_03,3.0,temp_dist_trial,dist_items,qkpkxw,2.0,response,70,700.6000000000023,1768.2000000000005,1784.8999999999978,700.6000000000023,1768.2000000000005,1784.8999999999978,1.0,1084.2999999999956,0.0,,Slider,Slider,4.0,object-56,temp_dist_trial,3.0,s_a_08_1,student_art,sewing machine,3.0,unique,paired,s_a_08_1.jpg,Student,,,sub-32
Desktop or Laptop,Windows 10,Chrome 137.0.0.0,2048x1152,2048x1026,Temporal Distance Task,cb_03,4.0,temp_dist_trial,num_items,zn7si1,1.0,response,1_ITEM,2118.2000002861027,2101.800000000003,2118.2000002861027,2118.2000002861027,2101.800000000003,2118.2000002861027,1.0,0.0,0.0,,Click Response,1_count,3.0,object-46,temp_dist_trial,4.0,s_sh_23_1,student_shared,ballpoint pen,3.0,competing,single,s_sh_23_1.jpg,Student,,,sub-32
Desktop or Laptop,Windows 10,Chrome 137.0.0.0,2048x1152,2048x1026,Temporal Distance Task,cb_03,5.0,temp_dist_trial,num_items,zn7si1,1.0,response,1_ITEM,1923.4000000953674,1918.3000000000034,1923.4000000953674,1923.4000000953674,1918.3000000000034,1923.4000000953674,1.0,0.0,0.0,,Click Response,1_count,3.0,object-46,temp_dist_trial,5.0,s_sh_16_1,student_shared,stapler,3.0,competing,single,s_sh_16_1.jpg,Student,,,sub-32
Desktop or Laptop,Windows 10,Chrome 137.0.0.0,2048x1152,2048x1026,Temporal Distance Task,cb_03,6.0,temp_dist_trial,num_items,zn7si1,1.0,response,2_ITEM,1257.3000001907346,1251.0999999999985,1257.3000001907346,1257.3000001907346,1251.0999999999985,1257.3000001907346,1.0,0.0,0.0,,Click Response,2_count,5.0,object-49,temp_dist_trial,6.0,s_a_10_1,student_art,tripod,3.0,unique,paired,s_a_10_1.jpg,Student,,,sub-32
Desktop or Laptop,Windows 10,Chrome 137.0.0.0,2048x1152,2048x1026,Temporal Distance Task,cb_03,6.0,temp_dist_trial,dist_items,qkpkxw,2.0,info,,7.0000002861052035,0.0,7.0000002861052035,7.0000002861052035,0.0,7.0000002861052035,1.0,0.0,0.0,,Slider,Slider,4.0,object-56,temp_dist_trial,6.0,s_a_10_1,student_art,tripod,3.0,unique,paired,s_a_10_1.jpg,Student,,,sub-32
Desktop or Laptop,Windows 10,Chrome 137.0.0.0,2048x1152,2048x1026,Temporal Distance Task,cb_03,6.0,temp_dist_trial,dist_items,qkpkxw,2.0,continue,,2754.800000000003,2752.400000000001,2754.800000000003,2754.800000000003,2752.400000000001,2754.800000000003,1.0,0.0,0.0,,Click To Continue,Next button,7.0,object-60,temp_dist_trial,6.0,s_a_10_1,student_art,tripod,3.0,unique,paired,s_a_10_1.jpg,Student,,,sub-32
Desktop or Laptop,Windows 10,Chrome 137.0.0.0,2048x1152,2048x1026,Temporal Distance Task,cb_03,6.0,temp_dist_trial,dist_items,qkpkxw,2.0,response,62,1668.1000000000058,2752.400000000001,2755.100000190738,1668.1000000000058,2752.400000000001,2755.100000190738,1.0,1087.000000190732,0.0,,Slider,Slider,4.0,object-56,temp_dist_trial,6.0,s_a_10_1,student_art,tripod,3.0,unique,paired,s_a_10_1.jpg,Student,,,sub-32
Desktop or Laptop,Windows 10,Chrome 137.0.0.0,2048x1152,2048x1026,Temporal Distance Task,cb_03,7.0,temp_dist_trial,num_items,zn7si1,1.0,response,1_ITEM,1901.4000000000005,1884.9000000000005,1901.4000000000005,1901.4000000000005,1884.9000000000005,1901.4000000000005,1.0,0.0,0.0,,Click Response,1_count,3.0,object-46,temp_dist_trial,7.0,s_sh_20_1,student_shared,tape,3.0,competing,paired,s_sh_20_1.jpg,Student,,,sub-32
Desktop or Laptop,Windows 10,Chrome 137.0.0.0,2048x1152,2048x1026,Temporal Distance Task,cb_03,8.0,temp_dist_trial,num_items,zn7si1,1.0,response,2_ITEM,1617.9000000000015,1601.3000000000034,1617.9000000000015,1617.9000000000015,1601.3000000000034,1617.9000000000015,1.0,0.0,0.0,,Click Response,2_count,5.0,object-49,temp_dist_trial,8.0,s_sh_04_1,student_shared,laptop stand,3.0,competing,paired,s_sh_04_1.jpg,Student,,,sub-32
Desktop or Laptop,Windows 10,Chrome 137.0.0.0,2048x1152,2048x1026,Temporal Distance Task,cb_03,8.0,temp_dist_trial,dist_items,qkpkxw,2.0,info,,3.5000002861052053,0.0,3.5000002861052053,3.5000002861052053,0.0,3.5000002861052053,1.0,0.0,0.0,,Slider,Slider,4.0,object-56,temp_dist_trial,8.0,s_sh_04_1,student_shared,laptop stand,3.0,competing,paired,s_sh_04_1.jpg,Student,,,sub-32
Desktop or Laptop,Windows 10,Chrome 137.0.0.0,2048x1152,2048x1026,Temporal Distance Task,cb_03,8.0,temp_dist_trial,dist_items,qkpkxw,2.0,continue,,2412.7000000953703,2402.0,2412.7000000953703,2412.7000000953703,2402.0,2412.7000000953703,1.0,0.0,0.0,,Click To Continue,Next button,7.0,object-60,temp_dist_trial,8.0,s_sh_04_1,student_shared,laptop stand,3.0,competing,paired,s_sh_04_1.jpg,Student,,,sub-32
Desktop or Laptop,Windows 10,Chrome 137.0.0.0,2048x1152,2048x1026,Temporal Distance Task,cb_03,8.0,temp_dist_trial,dist_items,qkpkxw,2.0,response,83,1217.7000000000044,2402.0,2415.100000190738,1217.7000000000044,2402.0,2415.100000190738,1.0,1197.4000001907334,0.0,,Slider,Slider,4.0,object-56,temp_dist_trial,8.0,s_sh_04_1,student_shared,laptop stand,3.0,competing,paired,s_sh_04_1.jpg,Student,,,sub-32
Desktop or Laptop,Windows 10,Chrome 137.0.0.0,2048x1152,2048x1026,Temporal Distance Task,cb_03,9.0,temp_dist_trial,num_items,zn7si1,1.0,response,1_ITEM,1508.6000001907375,1501.3000000000034,1508.6000001907375,1508.6000001907375,1501.3000000000034,1508.6000001907375,1.0,0.0,0.0,,Click Response,1_count,3.0,object-46,temp_dist_trial,9.0,s_a_17_1,student_art,microphone,3.0,unique,single,s_a_17_1.jpg,Student,,,sub-32
Desktop or Laptop,Windows 10,Chrome 137.0.0.0,2048x1152,2048x1026,Temporal Distance Task,cb_03,10.0,temp_dist_trial,num_items,zn7si1,1.0,response,2_ITEM,1239.300000095369,1234.5,1239.300000095369,1239.300000095369,1234.5,1239.300000095369,1.0,0.0,0.0,,Click Response,2_count,5.0,object-49,temp_dist_trial,10.0,s_s_03_1,student_stem,petri dish,3.0,unique,paired,s_s_03_1.jpg,Student,,,sub-32
Desktop or Laptop,Windows 10,Chrome 137.0.0.0,2048x1152,2048x1026,Temporal Distance Task,cb_03,10.0,temp_dist_trial,dist_items,qkpkxw,2.0,info,,11.800000381466816,0.0,11.800000381466816,11.800000381466816,0.0,11.800000381466816,1.0,0.0,0.0,,Slider,Slider,4.0,object-56,temp_dist_trial,10.0,s_s_03_1,student_stem,petri dish,3.0,unique,paired,s_s_03_1.jpg,Student,,,sub-32
Desktop or Laptop,Windows 10,Chrome 137.0.0.0,2048x1152,2048x1026,Temporal Distance Task,cb_03,10.0,temp_dist_trial,dist_items,qkpkxw,2.0,continue,,1953.1999999999966,1951.5999999999985,1953.1999999999966,1953.1999999999966,1951.5999999999985,1953.1999999999966,1.0,0.0,0.0,,Click To Continue,Next button,7.0,object-60,temp_dist_trial,10.0,s_s_03_1,student_stem,petri dish,3.0,unique,paired,s_s_03_1.jpg,Student,,,sub-32
Desktop or Laptop,Windows 10,Chrome 137.0.0.0,2048x1152,2048x1026,Temporal Distance Task,cb_03,10.0,temp_dist_trial,dist_items,qkpkxw,2.0,response,54,1050.7999999999956,1951.5999999999985,1954.4000002860998,1050.7999999999956,1951.5999999999985,1954.4000002860998,1.0,903.600000286104,0.0,,Slider,Slider,4.0,object-56,temp_dist_trial,10.0,s_s_03_1,student_stem,petri dish,3.0,unique,paired,s_s_03_1.jpg,Student,,,sub-32
Desktop or Laptop,Windows 10,Chrome 137.0.0.0,2048x1152,2048x1026,Temporal Distance Task,cb_03,11.0,temp_dist_trial,num_items,zn7si1,1.0,response,1_ITEM,2185.299999999996,2168.5999999999985,2185.299999999996,2185.299999999996,2168.5999999999985,2185.299999999996,1.0,0.0,0.0,,Click Response,1_count,3.0,object-46,temp_dist_trial,11.0,s_s_02_1,student_stem,flask,3.0,unique,single,s_s_02_1.jpg,Student,,,sub-32
Desktop or Laptop,Windows 10,Chrome 137.0.0.0,2048x1152,2048x1026,Temporal Distance Task,cb_03,12.0,temp_dist_trial,num_items,zn7si1,1.0,response,2_ITEM,1623.6000002861038,1618.0999999999985,1623.6000002861038,1623.6000002861038,1618.0999999999985,1623.6000002861038,1.0,0.0,0.0,,Click Response,2_count,5.0,object-49,temp_dist_trial,12.0,s_s_05_1,student_stem,lab goggles,3.0,unique,paired,s_s_05_1.jpg,Student,,,sub-32
Desktop or Laptop,Windows 10,Chrome 137.0.0.0,2048x1152,2048x1026,Temporal Distance Task,cb_03,12.0,temp_dist_trial,dist_items,qkpkxw,2.0,info,,3.8000000000029104,0.0,3.8000000000029104,3.8000000000029104,0.0,3.8000000000029104,1.0,0.0,0.0,,Slider,Slider,4.0,object-56,temp_dist_trial,12.0,s_s_05_1,student_stem,lab goggles,3.0,unique,paired,s_s_05_1.jpg,Student,,,sub-32
Desktop or Laptop,Windows 10,Chrome 137.0.0.0,2048x1152,2048x1026,Temporal Distance Task,cb_03,12.0,temp_dist_trial,dist_items,qkpkxw,2.0,continue,,2235.100000190738,2218.6000000000063,2235.100000190738,2235.100000190738,2218.6000000000063,2235.100000190738,1.0,0.0,0.0,,Click To Continue,Next button,7.0,object-60,temp_dist_trial,12.0,s_s_05_1,student_stem,lab goggles,3.0,unique,paired,s_s_05_1.jpg,Student,,,sub-32
Desktop or Laptop,Windows 10,Chrome 137.0.0.0,2048x1152,2048x1026,Temporal Distance Task,cb_03,12.0,temp_dist_trial,dist_items,qkpkxw,2.0,response,39,1251.3000000000031,2218.6000000000063,2235.200000000012,1251.3000000000031,2218.6000000000063,2235.200000000012,1.0,983.9000000000087,0.0,,Slider,Slider,4.0,object-56,temp_dist_trial,12.0,s_s_05_1,student_stem,lab goggles,3.0,unique,paired,s_s_05_1.jpg,Student,,,sub-32
Desktop or Laptop,Windows 10,Chrome 137.0.0.0,2048x1152,2048x1026,Temporal Distance Task,cb_03,13.0,temp_dist_trial,num_items,zn7si1,1.0,response,2_ITEM,1403.8000003814664,1401.1999999999966,1403.8000003814664,1403.8000003814664,1401.1999999999966,1403.8000003814664,1.0,0.0,0.0,,Click Response,2_count,5.0,object-49,temp_dist_trial,13.0,s_sh_08_1,student_shared,post-its,3.0,competing,paired,s_sh_08_1.jpg,Student,,,sub-32
Desktop or Laptop,Windows 10,Chrome 137.0.0.0,2048x1152,2048x1026,Temporal Distance Task,cb_03,13.0,temp_dist_trial,dist_items,qkpkxw,2.0,info,,7.500000190731952,0.0,7.500000190731952,7.500000190731952,0.0,7.500000190731952,1.0,0.0,0.0,,Slider,Slider,4.0,object-56,temp_dist_trial,13.0,s_sh_08_1,student_shared,post-its,3.0,competing,paired,s_sh_08_1.jpg,Student,,,sub-32
Desktop or Laptop,Windows 10,Chrome 137.0.0.0,2048x1152,2048x1026,Temporal Distance Task,cb_03,13.0,temp_dist_trial,dist_items,qkpkxw,2.0,continue,,1918.3000000000034,1901.5999999999985,1918.3000000000034,1918.3000000000034,1901.5999999999985,1918.3000000000034,1.0,0.0,0.0,,Click To Continue,Next button,7.0,object-60,temp_dist_trial,13.0,s_sh_08_1,student_shared,post-its,3.0,competing,paired,s_sh_08_1.jpg,Student,,,sub-32
Desktop or Laptop,Windows 10,Chrome 137.0.0.0,2048x1152,2048x1026,Temporal Distance Task,cb_03,13.0,temp_dist_trial,dist_items,qkpkxw,2.0,response,86,800.6999999999971,1901.5999999999985,1918.3000000000034,800.6999999999971,1901.5999999999985,1918.3000000000034,1.0,1117.6000000000058,0.0,,Slider,Slider,4.0,object-56,temp_dist_trial,13.0,s_sh_08_1,student_shared,post-its,3.0,competing,paired,s_sh_08_1.jpg,Student,,,sub-32
Desktop or Laptop,Windows 10,Chrome 137.0.0.0,2048x1152,2048x1026,Temporal Distance Task,cb_03,14.0,temp_dist_trial,num_items,zn7si1,1.0,response,2_ITEM,1021.0000000953661,1017.5999999999983,1021.0000000953661,1021.0000000953661,1017.5999999999983,1021.0000000953661,1.0,0.0,0.0,,Click Response,2_count,5.0,object-49,temp_dist_trial,14.0,s_a_03_1,student_art,palette,3.0,unique,paired,s_a_03_1.jpg,Student,,,sub-32
Desktop or Laptop,Windows 10,Chrome 137.0.0.0,2048x1152,2048x1026,Temporal Distance Task,cb_03,14.0,temp_dist_trial,dist_items,qkpkxw,2.0,info,,4.200000286102295,0.0,4.200000286102295,4.200000286102295,0.0,4.200000286102295,1.0,0.0,0.0,,Slider,Slider,4.0,object-56,temp_dist_trial,14.0,s_a_03_1,student_art,palette,3.0,unique,paired,s_a_03_1.jpg,Student,,,sub-32
Desktop or Laptop,Windows 10,Chrome 137.0.0.0,2048x1152,2048x1026,Temporal Distance Task,cb_03,14.0,temp_dist_trial,dist_items,qkpkxw,2.0,continue,,2669.9000000953674,2668.8999999999937,2669.9000000953674,2669.9000000953674,2668.8999999999937,2669.9000000953674,1.0,0.0,0.0,,Click To Continue,Next button,7.0,object-60,temp_dist_trial,14.0,s_a_03_1,student_art,palette,3.0,unique,paired,s_a_03_1.jpg,Student,,,sub-32
Desktop or Laptop,Windows 10,Chrome 137.0.0.0,2048x1152,2048x1026,Temporal Distance Task,cb_03,14.0,temp_dist_trial,dist_items,qkpkxw,2.0,response,35,1317.8999999999942,2668.8999999999937,2670.2000002861027,1317.8999999999942,2668.8999999999937,2670.2000002861027,1.0,1352.300000286108,0.0,,Slider,Slider,4.0,object-56,temp_dist_trial,14.0,s_a_03_1,student_art,palette,3.0,unique,paired,s_a_03_1.jpg,Student,,,sub-32
Desktop or Laptop,Windows 10,Chrome 137.0.0.0,2048x1152,2048x1026,Temporal Distance Task,cb_03,15.0,temp_dist_trial,num_items,zn7si1,1.0,response,2_ITEM,1090.7000003814758,1084.3000000000031,1090.7000003814758,1090.7000003814758,1084.3000000000031,1090.7000003814758,1.0,0.0,0.0,,Click Response,2_count,5.0,object-49,temp_dist_trial,15.0,s_sh_11_1,student_shared,pencil case,3.0,competing,paired,s_sh_11_1.jpg,Student,,,sub-32
Desktop or Laptop,Windows 10,Chrome 137.0.0.0,2048x1152,2048x1026,Temporal Distance Task,cb_03,15.0,temp_dist_trial,dist_items,qkpkxw,2.0,info,,4.100000095364522,0.0,4.100000095364522,4.100000095364522,0.0,4.100000095364522,1.0,0.0,0.0,,Slider,Slider,4.0,object-56,temp_dist_trial,15.0,s_sh_11_1,student_shared,pencil case,3.0,competing,paired,s_sh_11_1.jpg,Student,,,sub-32
Desktop or Laptop,Windows 10,Chrome 137.0.0.0,2048x1152,2048x1026,Temporal Distance Task,cb_03,15.0,temp_dist_trial,dist_items,qkpkxw,2.0,continue,,1952.0,1935.1999999999966,1952.0,1952.0,1935.1999999999966,1952.0,1.0,0.0,0.0,,Click To Continue,Next button,7.0,object-60,temp_dist_trial,15.0,s_sh_11_1,student_shared,pencil case,3.0,competing,paired,s_sh_11_1.jpg,Student,,,sub-32
Desktop or Laptop,Windows 10,Chrome 137.0.0.0,2048x1152,2048x1026,Temporal Distance Task,cb_03,15.0,temp_dist_trial,dist_items,qkpkxw,2.0,response,31,967.8000000000028,1935.1999999999966,1952.0,967.8000000000028,1935.1999999999966,1952.0,1.0,984.1999999999972,0.0,,Slider,Slider,4.0,object-56,temp_dist_trial,15.0,s_sh_11_1,student_shared,pencil case,3.0,competing,paired,s_sh_11_1.jpg,Student,,,sub-32
Desktop or Laptop,Windows 10,Chrome 137.0.0.0,2048x1152,2048x1026,Temporal Distance Task,cb_03,16.0,temp_dist_trial,num_items,zn7si1,1.0,response,1_ITEM,2431.7000002861027,2418.6000000000063,2431.7000002861027,2431.7000002861027,2418.6000000000063,2431.7000002861027,1.0,0.0,0.0,,Click Response,1_count,3.0,object-46,temp_dist_trial,16.0,s_s_01_1,student_stem,microscope,3.0,unique,single,s_s_01_1.jpg,Student,,,sub-32
Desktop or Laptop,Windows 10,Chrome 137.0.0.0,2048x1152,2048x1026,Temporal Distance Task,cb_03,17.0,temp_dist_trial,num_items,zn7si1,1.0,response,2_ITEM,970.6000000953644,967.5,970.6000000953644,970.6000000953644,967.5,970.6000000953644,1.0,0.0,0.0,,Click Response,2_count,5.0,object-49,temp_dist_trial,17.0,s_s_12_1,student_stem,robotic arm,3.0,unique,paired,s_s_12_1.jpg,Student,,,sub-32
Desktop or Laptop,Windows 10,Chrome 137.0.0.0,2048x1152,2048x1026,Temporal Distance Task,cb_03,17.0,temp_dist_trial,dist_items,qkpkxw,2.0,info,,3.9000000953674316,0.0,3.9000000953674316,3.9000000953674316,0.0,3.9000000953674316,1.0,0.0,0.0,,Slider,Slider,4.0,object-56,temp_dist_trial,17.0,s_s_12_1,student_stem,robotic arm,3.0,unique,paired,s_s_12_1.jpg,Student,,,sub-32
Desktop or Laptop,Windows 10,Chrome 137.0.0.0,2048x1152,2048x1026,Temporal Distance Task,cb_03,17.0,temp_dist_trial,dist_items,qkpkxw,2.0,continue,,2278.6000003814693,2268.6000000000063,2278.6000003814693,2278.6000003814693,2268.6000000000063,2278.6000003814693,1.0,0.0,0.0,,Click To Continue,Next button,7.0,object-60,temp_dist_trial,17.0,s_s_12_1,student_stem,robotic arm,3.0,unique,paired,s_s_12_1.jpg,Student,,,sub-32
Desktop or Laptop,Windows 10,Chrome 137.0.0.0,2048x1152,2048x1026,Temporal Distance Task,cb_03,17.0,temp_dist_trial,dist_items,qkpkxw,2.0,response,78,1201.1000000000058,2268.6000000000063,2279.4000000953674,1201.1000000000058,2268.6000000000063,2279.4000000953674,1.0,1078.3000000953616,0.0,,Slider,Slider,4.0,object-56,temp_dist_trial,17.0,s_s_12_1,student_stem,robotic arm,3.0,unique,paired,s_s_12_1.jpg,Student,,,sub-32
Desktop or Laptop,Windows 10,Chrome 137.0.0.0,2048x1152,2048x1026,Temporal Distance Task,cb_03,18.0,temp_dist_trial,num_items,zn7si1,1.0,response,2_ITEM,1002.8000000953616,1001.0,1002.8000000953616,1002.8000000953616,1001.0,1002.8000000953616,1.0,0.0,0.0,,Click Response,2_count,5.0,object-49,temp_dist_trial,18.0,s_s_18_1,student_stem,brain model,3.0,unique,paired,s_s_18_1.jpg,Student,,,sub-32
Desktop or Laptop,Windows 10,Chrome 137.0.0.0,2048x1152,2048x1026,Temporal Distance Task,cb_03,18.0,temp_dist_trial,dist_items,qkpkxw,2.0,info,,3.3000000953616118,0.0,3.3000000953616118,3.3000000953616118,0.0,3.3000000953616118,1.0,0.0,0.0,,Slider,Slider,4.0,object-56,temp_dist_trial,18.0,s_s_18_1,student_stem,brain model,3.0,unique,paired,s_s_18_1.jpg,Student,,,sub-32
Desktop or Laptop,Windows 10,Chrome 137.0.0.0,2048x1152,2048x1026,Temporal Distance Task,cb_03,18.0,temp_dist_trial,dist_items,qkpkxw,2.0,continue,,1640.3000000953616,1634.7999999999884,1640.3000000953616,1640.3000000953616,1634.7999999999884,1640.3000000953616,1.0,0.0,0.0,,Click To Continue,Next button,7.0,object-60,temp_dist_trial,18.0,s_s_18_1,student_stem,brain model,3.0,unique,paired,s_s_18_1.jpg,Student,,,sub-32
Desktop or Laptop,Windows 10,Chrome 137.0.0.0,2048x1152,2048x1026,Temporal Distance Task,cb_03,18.0,temp_dist_trial,dist_items,qkpkxw,2.0,response,97,433.7999999999884,1634.7999999999884,1640.500000381464,433.7999999999884,1634.7999999999884,1640.500000381464,1.0,1206.7000003814755,0.0,,Slider,Slider,4.0,object-56,temp_dist_trial,18.0,s_s_18_1,student_stem,brain model,3.0,unique,paired,s_s_18_1.jpg,Student,,,sub-32
Desktop or Laptop,Windows 10,Chrome 137.0.0.0,2048x1152,2048x1026,Temporal Distance Task,cb_03,19.0,temp_dist_trial,num_items,zn7si1,1.0,response,2_ITEM,1070.0000000953733,1067.5,1070.0000000953733,1070.0000000953733,1067.5,1070.0000000953733,1.0,0.0,0.0,,Click Response,2_count,5.0,object-49,temp_dist_trial,19.0,s_sh_09_1,student_shared,paper clips,3.0,competing,paired,s_sh_09_1.jpg,Student,,,sub-32
Desktop or Laptop,Windows 10,Chrome 137.0.0.0,2048x1152,2048x1026,Temporal Distance Task,cb_03,19.0,temp_dist_trial,dist_items,qkpkxw,2.0,info,,3.2000001907290425,0.0,3.2000001907290425,3.2000001907290425,0.0,3.2000001907290425,1.0,0.0,0.0,,Slider,Slider,4.0,object-56,temp_dist_trial,19.0,s_sh_09_1,student_shared,paper clips,3.0,competing,paired,s_sh_09_1.jpg,Student,,,sub-32
Desktop or Laptop,Windows 10,Chrome 137.0.0.0,2048x1152,2048x1026,Temporal Distance Task,cb_03,19.0,temp_dist_trial,dist_items,qkpkxw,2.0,continue,,1452.1000002860965,1451.2999999999884,1452.1000002860965,1452.1000002860965,1451.2999999999884,1452.1000002860965,1.0,0.0,0.0,,Click To Continue,Next button,7.0,object-60,temp_dist_trial,19.0,s_sh_09_1,student_shared,paper clips,3.0,competing,paired,s_sh_09_1.jpg,Student,,,sub-32
Desktop or Laptop,Windows 10,Chrome 137.0.0.0,2048x1152,2048x1026,Temporal Distance Task,cb_03,19.0,temp_dist_trial,dist_items,qkpkxw,2.0,response,55,717.2999999999884,1451.2999999999884,1452.3000000953616,717.2999999999884,1451.2999999999884,1452.3000000953616,1.0,735.0000000953733,0.0,,Slider,Slider,4.0,object-56,temp_dist_trial,19.0,s_sh_09_1,student_shared,paper clips,3.0,competing,paired,s_sh_09_1.jpg,Student,,,sub-32
Desktop or Laptop,Windows 10,Chrome 137.0.0.0,2048x1152,2048x1026,Temporal Distance Task,cb_03,20.0,temp_dist_trial,num_items,zn7si1,1.0,response,1_ITEM,1232.300000286108,1217.7000000000114,1232.300000286108,1232.300000286108,1217.7000000000114,1232.300000286108,1.0,0.0,0.0,,Click Response,1_count,3.0,object-46,temp_dist_trial,20.0,s_s_07_1,student_stem,periodic table,3.0,unique,single,s_s_07_1.jpg,Student,,,sub-32
Desktop or Laptop,Windows 10,Chrome 137.0.0.0,2048x1152,2048x1026,Temporal Distance Task,cb_03,21.0,temp_dist_trial,num_items,zn7si1,1.0,response,2_ITEM,1078.1000001907378,1067.5,1078.1000001907378,1078.1000001907378,1067.5,1078.1000001907378,1.0,0.0,0.0,,Click Response,2_count,5.0,object-49,temp_dist_trial,21.0,s_sh_15_1,student_shared,usb drive,3.0,competing,paired,s_sh_15_1.jpg,Student,,,sub-32
Desktop or Laptop,Windows 10,Chrome 137.0.0.0,2048x1152,2048x1026,Temporal Distance Task,cb_03,21.0,temp_dist_trial,dist_items,qkpkxw,2.0,info,,3.5000000953732524,0.0,3.5000000953732524,3.5000000953732524,0.0,3.5000000953732524,1.0,0.0,0.0,,Slider,Slider,4.0,object-56,temp_dist_trial,21.0,s_sh_15_1,student_shared,usb drive,3.0,competing,paired,s_sh_15_1.jpg,Student,,,sub-32
Desktop or Laptop,Windows 10,Chrome 137.0.0.0,2048x1152,2048x1026,Temporal Distance Task,cb_03,21.0,temp_dist_trial,dist_items,qkpkxw,2.0,continue,,1924.6000000000056,1918.400000000009,1924.6000000000056,1924.6000000000056,1918.400000000009,1924.6000000000056,1.0,0.0,0.0,,Click To Continue,Next button,7.0,object-60,temp_dist_trial,21.0,s_sh_15_1,student_shared,usb drive,3.0,competing,paired,s_sh_15_1.jpg,Student,,,sub-32
Desktop or Laptop,Windows 10,Chrome 137.0.0.0,2048x1152,2048x1026,Temporal Distance Task,cb_03,21.0,temp_dist_trial,dist_items,qkpkxw,2.0,response,43,750.8000000000029,1918.400000000009,1925.0000000953733,750.8000000000029,1918.400000000009,1925.0000000953733,1.0,1174.2000000953706,0.0,,Slider,Slider,4.0,object-56,temp_dist_trial,21.0,s_sh_15_1,student_shared,usb drive,3.0,competing,paired,s_sh_15_1.jpg,Student,,,sub-32
Desktop or Laptop,Windows 10,Chrome 137.0.0.0,2048x1152,2048x1026,Temporal Distance Task,cb_03,22.0,temp_dist_trial,num_items,zn7si1,1.0,response,1_ITEM,1616.5000001907322,1601.3999999999942,1616.5000001907322,1616.5000001907322,1601.3999999999942,1616.5000001907322,1.0,0.0,0.0,,Click Response,1_count,3.0,object-46,temp_dist_trial,22.0,s_a_16_1,student_art,piano,3.0,unique,single,s_a_16_1.jpg,Student,,,sub-32
Desktop or Laptop,Windows 10,Chrome 137.0.0.0,2048x1152,2048x1026,Temporal Distance Task,cb_03,23.0,temp_dist_trial,num_items,zn7si1,1.0,response,1_ITEM,1178.6000000953645,1167.6999999999969,1178.6000000953645,1178.6000000953645,1167.6999999999969,1178.6000000953645,1.0,0.0,0.0,,Click Response,1_count,3.0,object-46,temp_dist_trial,23.0,s_a_19_1,student_art,ballet shoes,3.0,unique,single,s_a_19_1.jpg,Student,,,sub-32
Desktop or Laptop,Windows 10,Chrome 137.0.0.0,2048x1152,2048x1026,Temporal Distance Task,cb_03,24.0,temp_dist_trial,num_items,zn7si1,1.0,response,2_ITEM,1038.6000002860962,1034.2999999999884,1038.6000002860962,1038.6000002860962,1034.2999999999884,1038.6000002860962,1.0,0.0,0.0,,Click Response,2_count,5.0,object-49,temp_dist_trial,24.0,s_sh_06_1,student_shared,clipboard,3.0,competing,paired,s_sh_06_1.jpg,Student,,,sub-32
Desktop or Laptop,Windows 10,Chrome 137.0.0.0,2048x1152,2048x1026,Temporal Distance Task,cb_03,24.0,temp_dist_trial,dist_items,qkpkxw,2.0,info,,3.6000002860964733,0.0,3.6000002860964733,3.6000002860964733,0.0,3.6000002860964733,1.0,0.0,0.0,,Slider,Slider,4.0,object-56,temp_dist_trial,24.0,s_sh_06_1,student_shared,clipboard,3.0,competing,paired,s_sh_06_1.jpg,Student,,,sub-32
Desktop or Laptop,Windows 10,Chrome 137.0.0.0,2048x1152,2048x1026,Temporal Distance Task,cb_03,24.0,temp_dist_trial,dist_items,qkpkxw,2.0,continue,,1567.8999999999942,1551.2999999999884,1567.8999999999942,1567.8999999999942,1551.2999999999884,1567.8999999999942,1.0,0.0,0.0,,Click To Continue,Next button,7.0,object-60,temp_dist_trial,24.0,s_sh_06_1,student_shared,clipboard,3.0,competing,paired,s_sh_06_1.jpg,Student,,,sub-32
Desktop or Laptop,Windows 10,Chrome 137.0.0.0,2048x1152,2048x1026,Temporal Distance Task,cb_03,24.0,temp_dist_trial,dist_items,qkpkxw,2.0,response,35,517.1999999999971,1551.2999999999884,1567.9999999999854,517.1999999999971,1551.2999999999884,1567.9999999999854,1.0,1050.7999999999884,0.0,,Slider,Slider,4.0,object-56,temp_dist_trial,24.0,s_sh_06_1,student_shared,clipboard,3.0,competing,paired,s_sh_06_1.jpg,Student,,,sub-32
Desktop or Laptop,Windows 10,Chrome 137.0.0.0,2048x1152,2048x1026,Temporal Distance Task,cb_03,25.0,temp_dist_trial,num_items,zn7si1,1.0,response,2_ITEM,1926.3000002861081,1918.400000000009,1926.3000002861081,1926.3000002861081,1918.400000000009,1926.3000002861081,1.0,0.0,0.0,,Click Response,2_count,5.0,object-49,temp_dist_trial,25.0,s_a_20_1,student_art,pin cushion,3.0,unique,paired,s_a_20_1.jpg,Student,,,sub-32
Desktop or Laptop,Windows 10,Chrome 137.0.0.0,2048x1152,2048x1026,Temporal Distance Task,cb_03,25.0,temp_dist_trial,dist_items,qkpkxw,2.0,info,,3.1000000000058208,0.0,3.1000000000058208,3.1000000000058208,0.0,3.1000000000058208,1.0,0.0,0.0,,Slider,Slider,4.0,object-56,temp_dist_trial,25.0,s_a_20_1,student_art,pin cushion,3.0,unique,paired,s_a_20_1.jpg,Student,,,sub-32
Desktop or Laptop,Windows 10,Chrome 137.0.0.0,2048x1152,2048x1026,Temporal Distance Task,cb_03,25.0,temp_dist_trial,dist_items,qkpkxw,2.0,continue,,1511.4000001907407,1501.3000000000034,1511.4000001907407,1511.4000001907407,1501.3000000000034,1511.4000001907407,1.0,0.0,0.0,,Click To Continue,Next button,7.0,object-60,temp_dist_trial,25.0,s_a_20_1,student_art,pin cushion,3.0,unique,paired,s_a_20_1.jpg,Student,,,sub-32
Desktop or Laptop,Windows 10,Chrome 137.0.0.0,2048x1152,2048x1026,Temporal Distance Task,cb_03,25.0,temp_dist_trial,dist_items,qkpkxw,2.0,response,67,583.9000000000087,1501.3000000000034,1512.6000000000058,583.9000000000087,1501.3000000000034,1512.6000000000058,1.0,928.6999999999972,0.0,,Slider,Slider,4.0,object-56,temp_dist_trial,25.0,s_a_20_1,student_art,pin cushion,3.0,unique,paired,s_a_20_1.jpg,Student,,,sub-32
Desktop or Laptop,Windows 10,Chrome 137.0.0.0,2048x1152,2048x1026,Temporal Distance Task,cb_03,26.0,temp_dist_trial,num_items,zn7si1,1.0,response,2_ITEM,1070.7000000953703,1067.6000000000058,1070.7000000953703,1070.7000000953703,1067.6000000000058,1070.7000000953703,1.0,0.0,0.0,,Click Response,2_count,5.0,object-49,temp_dist_trial,26.0,s_s_04_1,student_stem,bunsen burner,3.0,unique,paired,s_s_04_1.jpg,Student,,,sub-32
Desktop or Laptop,Windows 10,Chrome 137.0.0.0,2048x1152,2048x1026,Temporal Distance Task,cb_03,26.0,temp_dist_trial,dist_items,qkpkxw,2.0,info,,3.1000000953645213,0.0,3.1000000953645213,3.1000000953645213,0.0,3.1000000953645213,1.0,0.0,0.0,,Slider,Slider,4.0,object-56,temp_dist_trial,26.0,s_s_04_1,student_stem,bunsen burner,3.0,unique,paired,s_s_04_1.jpg,Student,,,sub-32
Desktop or Laptop,Windows 10,Chrome 137.0.0.0,2048x1152,2048x1026,Temporal Distance Task,cb_03,26.0,temp_dist_trial,dist_items,qkpkxw,2.0,continue,,1346.6000000953645,1334.6999999999969,1346.6000000953645,1346.6000000953645,1334.6999999999969,1346.6000000953645,1.0,0.0,0.0,,Click To Continue,Next button,7.0,object-60,temp_dist_trial,26.0,s_s_04_1,student_stem,bunsen burner,3.0,unique,paired,s_s_04_1.jpg,Student,,,sub-32
Desktop or Laptop,Windows 10,Chrome 137.0.0.0,2048x1152,2048x1026,Temporal Distance Task,cb_03,26.0,temp_dist_trial,dist_items,qkpkxw,2.0,response,43,567.3999999999943,1334.6999999999969,1348.1999999999969,567.3999999999943,1334.6999999999969,1348.1999999999969,1.0,780.8000000000029,0.0,,Slider,Slider,4.0,object-56,temp_dist_trial,26.0,s_s_04_1,student_stem,bunsen burner,3.0,unique,paired,s_s_04_1.jpg,Student,,,sub-32
Desktop or Laptop,Windows 10,Chrome 137.0.0.0,2048x1152,2048x1026,Temporal Distance Task,cb_03,27.0,temp_dist_trial,num_items,zn7si1,1.0,response,2_ITEM,1035.7000002861025,1034.1000000000058,1035.7000002861025,1035.7000002861025,1034.1000000000058,1035.7000002861025,1.0,0.0,0.0,,Click Response,2_count,5.0,object-49,temp_dist_trial,27.0,s_sh_01_1,student_shared,notebook,3.0,competing,paired,s_sh_01_1.jpg,Student,,,sub-32
Desktop or Laptop,Windows 10,Chrome 137.0.0.0,2048x1152,2048x1026,Temporal Distance Task,cb_03,27.0,temp_dist_trial,dist_items,qkpkxw,2.0,info,,3.2000000953703416,0.0,3.2000000953703416,3.2000000953703416,0.0,3.2000000953703416,1.0,0.0,0.0,,Slider,Slider,4.0,object-56,temp_dist_trial,27.0,s_sh_01_1,student_shared,notebook,3.0,competing,paired,s_sh_01_1.jpg,Student,,,sub-32
Desktop or Laptop,Windows 10,Chrome 137.0.0.0,2048x1152,2048x1026,Temporal Distance Task,cb_03,27.0,temp_dist_trial,dist_items,qkpkxw,2.0,continue,,2045.5000002861048,2035.3000000000034,2045.5000002861048,2045.5000002861048,2035.3000000000034,2045.5000002861048,1.0,0.0,0.0,,Click To Continue,Next button,7.0,object-60,temp_dist_trial,27.0,s_sh_01_1,student_shared,notebook,3.0,competing,paired,s_sh_01_1.jpg,Student,,,sub-32
Desktop or Laptop,Windows 10,Chrome 137.0.0.0,2048x1152,2048x1026,Temporal Distance Task,cb_03,27.0,temp_dist_trial,dist_items,qkpkxw,2.0,response,55,1051.0,2035.3000000000034,2049.300000000003,1051.0,2035.3000000000034,2049.300000000003,1.0,998.3000000000028,0.0,,Slider,Slider,4.0,object-56,temp_dist_trial,27.0,s_sh_01_1,student_shared,notebook,3.0,competing,paired,s_sh_01_1.jpg,Student,,,sub-32
Desktop or Laptop,Windows 10,Chrome 137.0.0.0,2048x1152,2048x1026,Temporal Distance Task,cb_03,28.0,temp_dist_trial,num_items,zn7si1,1.0,response,2_ITEM,1782.1000003814695,1768.1000000000058,1782.1000003814695,1782.1000003814695,1768.1000000000058,1782.1000003814695,1.0,0.0,0.0,,Click Response,2_count,5.0,object-49,temp_dist_trial,28.0,s_a_04_1,student_art,easel,3.0,unique,paired,s_a_04_1.jpg,Student,,,sub-32
Desktop or Laptop,Windows 10,Chrome 137.0.0.0,2048x1152,2048x1026,Temporal Distance Task,cb_03,28.0,temp_dist_trial,dist_items,qkpkxw,2.0,info,,3.8000000000029104,0.0,3.8000000000029104,3.8000000000029104,0.0,3.8000000000029104,1.0,0.0,0.0,,Slider,Slider,4.0,object-56,temp_dist_trial,28.0,s_a_04_1,student_art,easel,3.0,unique,paired,s_a_04_1.jpg,Student,,,sub-32
Desktop or Laptop,Windows 10,Chrome 137.0.0.0,2048x1152,2048x1026,Temporal Distance Task,cb_03,28.0,temp_dist_trial,dist_items,qkpkxw,2.0,continue,,1829.1000001907373,1818.1999999999966,1829.1000001907373,1829.1000001907373,1818.1999999999966,1829.1000001907373,1.0,0.0,0.0,,Click To Continue,Next button,7.0,object-60,temp_dist_trial,28.0,s_a_04_1,student_art,easel,3.0,unique,paired,s_a_04_1.jpg,Student,,,sub-32
Desktop or Laptop,Windows 10,Chrome 137.0.0.0,2048x1152,2048x1026,Temporal Distance Task,cb_03,28.0,temp_dist_trial,dist_items,qkpkxw,2.0,response,80,583.9000000000087,1818.1999999999966,1829.4000003814729,583.9000000000087,1818.1999999999966,1829.4000003814729,1.0,1245.500000381464,0.0,,Slider,Slider,4.0,object-56,temp_dist_trial,28.0,s_a_04_1,student_art,easel,3.0,unique,paired,s_a_04_1.jpg,Student,,,sub-32
Desktop or Laptop,Windows 10,Chrome 137.0.0.0,2048x1152,2048x1026,Temporal Distance Task,cb_03,29.0,temp_dist_trial,num_items,zn7si1,1.0,response,1_ITEM,1700.4000001907407,1684.8000000000034,1700.4000001907407,1700.4000001907407,1684.8000000000034,1700.4000001907407,1.0,0.0,0.0,,Click Response,1_count,3.0,object-46,temp_dist_trial,29.0,s_s_14_1,student_stem,funnel,3.0,unique,paired,s_s_14_1.jpg,Student,,,sub-32
Desktop or Laptop,Windows 10,Chrome 137.0.0.0,2048x1152,2048x1026,Temporal Distance Task,cb_03,30.0,temp_dist_trial,num_items,zn7si1,1.0,response,2_ITEM,1348.800000286108,1334.5,1348.800000286108,1348.800000286108,1334.5,1348.800000286108,1.0,0.0,0.0,,Click Response,2_count,5.0,object-49,temp_dist_trial,30.0,s_sh_14_1,student_shared,printer,3.0,competing,paired,s_sh_14_1.jpg,Student,,,sub-32
Desktop or Laptop,Windows 10,Chrome 137.0.0.0,2048x1152,2048x1026,Temporal Distance Task,cb_03,30.0,temp_dist_trial,dist_items,qkpkxw,2.0,info,,3.1000003814697266,0.0,3.1000003814697266,3.1000003814697266,0.0,3.1000003814697266,1.0,0.0,0.0,,Slider,Slider,4.0,object-56,temp_dist_trial,30.0,s_sh_14_1,student_shared,printer,3.0,competing,paired,s_sh_14_1.jpg,Student,,,sub-32
Desktop or Laptop,Windows 10,Chrome 137.0.0.0,2048x1152,2048x1026,Temporal Distance Task,cb_03,30.0,temp_dist_trial,dist_items,qkpkxw,2.0,continue,,1314.2000002861025,1301.1999999999969,1314.2000002861025,1314.2000002861025,1301.1999999999969,1314.2000002861025,1.0,0.0,0.0,,Click To Continue,Next button,7.0,object-60,temp_dist_trial,30.0,s_sh_14_1,student_shared,printer,3.0,competing,paired,s_sh_14_1.jpg,Student,,,sub-32
Desktop or Laptop,Windows 10,Chrome 137.0.0.0,2048x1152,2048x1026,Temporal Distance Task,cb_03,30.0,temp_dist_trial,dist_items,qkpkxw,2.0,response,32,517.3000000000029,1301.1999999999969,1314.6000003814695,517.3000000000029,1301.1999999999969,1314.6000003814695,1.0,797.3000003814667,0.0,,Slider,Slider,4.0,object-56,temp_dist_trial,30.0,s_sh_14_1,student_shared,printer,3.0,competing,paired,s_sh_14_1.jpg,Student,,,sub-32
Desktop or Laptop,Windows 10,Chrome 137.0.0.0,2048x1152,2048x1026,Temporal Distance Task,cb_03,31.0,temp_dist_trial,num_items,zn7si1,1.0,response,2_ITEM,1087.2000000953703,1084.1999999999969,1087.2000000953703,1087.2000000953703,1084.1999999999969,1087.2000000953703,1.0,0.0,0.0,,Click Response,2_count,5.0,object-49,temp_dist_trial,31.0,s_s_17_1,student_stem,ring stand,3.0,unique,paired,s_s_17_1.jpg,Student,,,sub-32
Desktop or Laptop,Windows 10,Chrome 137.0.0.0,2048x1152,2048x1026,Temporal Distance Task,cb_03,31.0,temp_dist_trial,dist_items,qkpkxw,2.0,info,,3.3999999999941792,0.0,3.3999999999941792,3.3999999999941792,0.0,3.3999999999941792,1.0,0.0,0.0,,Slider,Slider,4.0,object-56,temp_dist_trial,31.0,s_s_17_1,student_stem,ring stand,3.0,unique,paired,s_s_17_1.jpg,Student,,,sub-32
Desktop or Laptop,Windows 10,Chrome 137.0.0.0,2048x1152,2048x1026,Temporal Distance Task,cb_03,31.0,temp_dist_trial,dist_items,qkpkxw,2.0,continue,,2250.3999999999937,2235.199999999997,2250.3999999999937,2250.3999999999937,2235.199999999997,2250.3999999999937,1.0,0.0,0.0,,Click To Continue,Next button,7.0,object-60,temp_dist_trial,31.0,s_s_17_1,student_stem,ring stand,3.0,unique,paired,s_s_17_1.jpg,Student,,,sub-32
Desktop or Laptop,Windows 10,Chrome 137.0.0.0,2048x1152,2048x1026,Temporal Distance Task,cb_03,31.0,temp_dist_trial,dist_items,qkpkxw,2.0,response,37,867.5,2235.199999999997,2251.800000000003,867.5,2235.199999999997,2251.800000000003,1.0,1384.3000000000034,0.0,,Slider,Slider,4.0,object-56,temp_dist_trial,31.0,s_s_17_1,student_stem,ring stand,3.0,unique,paired,s_s_17_1.jpg,Student,,,sub-32
Desktop or Laptop,Windows 10,Chrome 137.0.0.0,2048x1152,2048x1026,Temporal Distance Task,cb_03,32.0,temp_dist_trial,num_items,zn7si1,1.0,response,1_ITEM,1756.5000001907322,1751.5,1756.5000001907322,1756.5000001907322,1751.5,1756.5000001907322,1.0,0.0,0.0,,Click Response,1_count,3.0,object-46,temp_dist_trial,32.0,s_s_09_1,student_stem,multimeter,3.0,unique,single,s_s_09_1.jpg,Student,,,sub-32
Desktop or Laptop,Windows 10,Chrome 137.0.0.0,2048x1152,2048x1026,Temporal Distance Task,cb_03,33.0,temp_dist_trial,num_items,zn7si1,1.0,response,1_ITEM,1674.500000381464,1668.099999999991,1674.500000381464,1674.500000381464,1668.099999999991,1674.500000381464,1.0,0.0,0.0,,Click Response,1_count,3.0,object-46,temp_dist_trial,33.0,s_a_02_1,student_art,canvas,3.0,unique,single,s_a_02_1.jpg,Student,,,sub-32
Desktop or Laptop,Windows 10,Chrome 137.0.0.0,2048x1152,2048x1026,Temporal Distance Task,cb_03,34.0,temp_dist_trial,num_items,zn7si1,1.0,response,2_ITEM,848.7000000953702,834.1999999999971,848.7000000953702,848.7000000953702,834.1999999999971,848.7000000953702,1.0,0.0,0.0,,Click Response,2_count,5.0,object-49,temp_dist_trial,34.0,s_a_13_1,student_art,violin,3.0,unique,paired,s_a_13_1.jpg,Student,,,sub-32
Desktop or Laptop,Windows 10,Chrome 137.0.0.0,2048x1152,2048x1026,Temporal Distance Task,cb_03,34.0,temp_dist_trial,dist_items,qkpkxw,2.0,info,,3.0,0.0,3.0,3.0,0.0,3.0,1.0,0.0,0.0,,Slider,Slider,4.0,object-56,temp_dist_trial,34.0,s_a_13_1,student_art,violin,3.0,unique,paired,s_a_13_1.jpg,Student,,,sub-32
Desktop or Laptop,Windows 10,Chrome 137.0.0.0,2048x1152,2048x1026,Temporal Distance Task,cb_03,34.0,temp_dist_trial,dist_items,qkpkxw,2.0,continue,,1383.0,1367.8999999999942,1383.0,1383.0,1367.8999999999942,1383.0,1.0,0.0,0.0,,Click To Continue,Next button,7.0,object-60,temp_dist_trial,34.0,s_a_13_1,student_art,violin,3.0,unique,paired,s_a_13_1.jpg,Student,,,sub-32
Desktop or Laptop,Windows 10,Chrome 137.0.0.0,2048x1152,2048x1026,Temporal Distance Task,cb_03,34.0,temp_dist_trial,dist_items,qkpkxw,2.0,response,26,450.5,1367.8999999999942,1383.3000001907349,450.5,1367.8999999999942,1383.3000001907349,1.0,932.8000001907347,0.0,,Slider,Slider,4.0,object-56,temp_dist_trial,34.0,s_a_13_1,student_art,violin,3.0,unique,paired,s_a_13_1.jpg,Student,,,sub-32
Desktop or Laptop,Windows 10,Chrome 137.0.0.0,2048x1152,2048x1026,Temporal Distance Task,cb_03,35.0,temp_dist_trial,num_items,zn7si1,1.0,response,2_ITEM,1976.9000001907407,1968.3000000000034,1976.9000001907407,1976.9000001907407,1968.3000000000034,1976.9000001907407,1.0,0.0,0.0,,Click Response,2_count,5.0,object-49,temp_dist_trial,35.0,s_sh_10_1,student_shared,scissors,3.0,competing,paired,s_sh_10_1.jpg,Student,,,sub-32
Desktop or Laptop,Windows 10,Chrome 137.0.0.0,2048x1152,2048x1026,Temporal Distance Task,cb_03,35.0,temp_dist_trial,dist_items,qkpkxw,2.0,info,,3.1000000953645213,0.0,3.1000000953645213,3.1000000953645213,0.0,3.1000000953645213,1.0,0.0,0.0,,Slider,Slider,4.0,object-56,temp_dist_trial,35.0,s_sh_10_1,student_shared,scissors,3.0,competing,paired,s_sh_10_1.jpg,Student,,,sub-32
Desktop or Laptop,Windows 10,Chrome 137.0.0.0,2048x1152,2048x1026,Temporal Distance Task,cb_03,35.0,temp_dist_trial,dist_items,qkpkxw,2.0,continue,,1671.4000002860996,1668.1999999999966,1671.4000002860996,1671.4000002860996,1668.1999999999966,1671.4000002860996,1.0,0.0,0.0,,Click To Continue,Next button,7.0,object-60,temp_dist_trial,35.0,s_sh_10_1,student_shared,scissors,3.0,competing,paired,s_sh_10_1.jpg,Student,,,sub-32
Desktop or Laptop,Windows 10,Chrome 137.0.0.0,2048x1152,2048x1026,Temporal Distance Task,cb_03,35.0,temp_dist_trial,dist_items,qkpkxw,2.0,response,57,617.3000000000029,1668.1999999999966,1674.3000003814664,617.3000000000029,1668.1999999999966,1674.3000003814664,1.0,1057.000000381464,0.0,,Slider,Slider,4.0,object-56,temp_dist_trial,35.0,s_sh_10_1,student_shared,scissors,3.0,competing,paired,s_sh_10_1.jpg,Student,,,sub-32
Desktop or Laptop,Windows 10,Chrome 137.0.0.0,2048x1152,2048x1026,Temporal Distance Task,cb_03,36.0,temp_dist_trial,num_items,zn7si1,1.0,response,1_ITEM,1397.2000002861025,1384.5,1397.2000002861025,1397.2000002861025,1384.5,1397.2000002861025,1.0,0.0,0.0,,Click Response,1_count,3.0,object-46,temp_dist_trial,36.0,s_sh_03_1,student_shared,highlighter,3.0,competing,single,s_sh_03_1.jpg,Student,,,sub-32
Desktop or Laptop,Windows 10,Chrome 137.0.0.0,2048x1152,2048x1026,Temporal Distance Task,cb_03,37.0,temp_dist_trial,num_items,zn7si1,1.0,response,2_ITEM,1462.0000002861057,1451.1999999999966,1462.0000002861057,1462.0000002861057,1451.1999999999966,1462.0000002861057,1.0,0.0,0.0,,Click Response,2_count,5.0,object-49,temp_dist_trial,37.0,s_sh_12_1,student_shared,binder,3.0,competing,paired,s_sh_12_1.jpg,Student,,,sub-32
Desktop or Laptop,Windows 10,Chrome 137.0.0.0,2048x1152,2048x1026,Temporal Distance Task,cb_03,37.0,temp_dist_trial,dist_items,qkpkxw,2.0,info,,2.8999999999941792,0.0,2.8999999999941792,2.8999999999941792,0.0,2.8999999999941792,1.0,0.0,0.0,,Slider,Slider,4.0,object-56,temp_dist_trial,37.0,s_sh_12_1,student_shared,binder,3.0,competing,paired,s_sh_12_1.jpg,Student,,,sub-32
Desktop or Laptop,Windows 10,Chrome 137.0.0.0,2048x1152,2048x1026,Temporal Distance Task,cb_03,37.0,temp_dist_trial,dist_items,qkpkxw,2.0,continue,,2231.3000000953616,2218.6000000000063,2231.3000000953616,2231.3000000953616,2218.6000000000063,2231.3000000953616,1.0,0.0,0.0,,Click To Continue,Next button,7.0,object-60,temp_dist_trial,37.0,s_sh_12_1,student_shared,binder,3.0,competing,paired,s_sh_12_1.jpg,Student,,,sub-32
Desktop or Laptop,Windows 10,Chrome 137.0.0.0,2048x1152,2048x1026,Temporal Distance Task,cb_03,37.0,temp_dist_trial,dist_items,qkpkxw,2.0,response,57,667.1999999999971,2218.6000000000063,2232.200000190729,667.1999999999971,2218.6000000000063,2232.200000190729,1.0,1565.0000001907322,0.0,,Slider,Slider,4.0,object-56,temp_dist_trial,37.0,s_sh_12_1,student_shared,binder,3.0,competing,paired,s_sh_12_1.jpg,Student,,,sub-32
Desktop or Laptop,Windows 10,Chrome 137.0.0.0,2048x1152,2048x1026,Temporal Distance Task,cb_03,38.0,temp_dist_trial,num_items,zn7si1,1.0,response,1_ITEM,1674.5000002860907,1668.0,1674.5000002860907,1674.5000002860907,1668.0,1674.5000002860907,1.0,0.0,0.0,,Click Response,1_count,3.0,object-46,temp_dist_trial,38.0,s_s_13_1,student_stem,telescope,3.0,unique,paired,s_s_13_1.jpg,Student,,,sub-32
Desktop or Laptop,Windows 10,Chrome 137.0.0.0,2048x1152,2048x1026,Temporal Distance Task,cb_03,39.0,temp_dist_trial,num_items,zn7si1,1.0,response,1_ITEM,2047.4000001907407,2035.1000000000056,2047.4000001907407,2047.4000001907407,2035.1000000000056,2047.4000001907407,1.0,0.0,0.0,,Click Response,1_count,3.0,object-46,temp_dist_trial,39.0,s_sh_19_1,student_shared,portable plastic drawer,3.0,competing,single,s_sh_19_1.jpg,Student,,,sub-32
Desktop or Laptop,Windows 10,Chrome 137.0.0.0,2048x1152,2048x1026,Temporal Distance Task,cb_03,40.0,temp_dist_trial,num_items,zn7si1,1.0,response,1_ITEM,1818.900000381458,1818.1999999999825,1818.900000381458,1818.900000381458,1818.1999999999825,1818.900000381458,1.0,0.0,0.0,,Click Response,1_count,3.0,object-46,temp_dist_trial,40.0,s_a_09_1,student_art,picture frame,3.0,unique,paired,s_a_09_1.jpg,Student,,,sub-32
Desktop or Laptop,Windows 10,Chrome 137.0.0.0,2048x1152,2048x1026,Temporal Distance Task,cb_03,41.0,temp_dist_trial,num_items,zn7si1,1.0,response,2_ITEM,1031.9000000953674,1017.6000000000058,1031.9000000953674,1031.9000000953674,1017.6000000000058,1031.9000000953674,1.0,0.0,0.0,,Click Response,2_count,5.0,object-49,temp_dist_trial,41.0,s_sh_22_1,student_shared,hole puncher,3.0,competing,paired,s_sh_22_1.jpg,Student,,,sub-32
Desktop or Laptop,Windows 10,Chrome 137.0.0.0,2048x1152,2048x1026,Temporal Distance Task,cb_03,41.0,temp_dist_trial,dist_items,qkpkxw,2.0,info,,2.7999999999883585,0.0,2.7999999999883585,2.7999999999883585,0.0,2.7999999999883585,1.0,0.0,0.0,,Slider,Slider,4.0,object-56,temp_dist_trial,41.0,s_sh_22_1,student_shared,hole puncher,3.0,competing,paired,s_sh_22_1.jpg,Student,,,sub-32
Desktop or Laptop,Windows 10,Chrome 137.0.0.0,2048x1152,2048x1026,Temporal Distance Task,cb_03,41.0,temp_dist_trial,dist_items,qkpkxw,2.0,continue,,1471.900000381458,1468.0,1471.900000381458,1471.900000381458,1468.0,1471.900000381458,1.0,0.0,0.0,,Click To Continue,Next button,7.0,object-60,temp_dist_trial,41.0,s_sh_22_1,student_shared,hole puncher,3.0,competing,paired,s_sh_22_1.jpg,Student,,,sub-32
Desktop or Laptop,Windows 10,Chrome 137.0.0.0,2048x1152,2048x1026,Temporal Distance Task,cb_03,41.0,temp_dist_trial,dist_items,qkpkxw,2.0,response,40,650.6999999999825,1468.0,1472.2000000953558,650.6999999999825,1468.0,1472.2000000953558,1.0,821.5000000953733,0.0,,Slider,Slider,4.0,object-56,temp_dist_trial,41.0,s_sh_22_1,student_shared,hole puncher,3.0,competing,paired,s_sh_22_1.jpg,Student,,,sub-32
Desktop or Laptop,Windows 10,Chrome 137.0.0.0,2048x1152,2048x1026,Temporal Distance Task,cb_03,42.0,temp_dist_trial,num_items,zn7si1,1.0,response,1_ITEM,1376.0000002860907,1367.6999999999825,1376.0000002860907,1376.0000002860907,1367.6999999999825,1376.0000002860907,1.0,0.0,0.0,,Click Response,1_count,3.0,object-46,temp_dist_trial,42.0,s_sh_02_1,student_shared,eraser,3.0,competing,single,s_sh_02_1.jpg,Student,,,sub-32
Desktop or Laptop,Windows 10,Chrome 137.0.0.0,2048x1152,2048x1026,Temporal Distance Task,cb_03,43.0,temp_dist_trial,num_items,zn7si1,1.0,response,2_ITEM,1226.3000000953614,1217.7999999999886,1226.3000000953614,1226.3000000953614,1217.7999999999886,1226.3000000953614,1.0,0.0,0.0,,Click Response,2_count,5.0,object-49,temp_dist_trial,43.0,s_sh_18_1,student_shared,wall calendar,3.0,competing,paired,s_sh_18_1.jpg,Student,,,sub-32
Desktop or Laptop,Windows 10,Chrome 137.0.0.0,2048x1152,2048x1026,Temporal Distance Task,cb_03,43.0,temp_dist_trial,dist_items,qkpkxw,2.0,info,,3.300000190734864,0.0,3.300000190734864,3.300000190734864,0.0,3.300000190734864,1.0,0.0,0.0,,Slider,Slider,4.0,object-56,temp_dist_trial,43.0,s_sh_18_1,student_shared,wall calendar,3.0,competing,paired,s_sh_18_1.jpg,Student,,,sub-32
Desktop or Laptop,Windows 10,Chrome 137.0.0.0,2048x1152,2048x1026,Temporal Distance Task,cb_03,43.0,temp_dist_trial,dist_items,qkpkxw,2.0,continue,,1346.4000000953674,1334.6000000000058,1346.4000000953674,1346.4000000953674,1334.6000000000058,1346.4000000953674,1.0,0.0,0.0,,Click To Continue,Next button,7.0,object-60,temp_dist_trial,43.0,s_sh_18_1,student_shared,wall calendar,3.0,competing,paired,s_sh_18_1.jpg,Student,,,sub-32
Desktop or Laptop,Windows 10,Chrome 137.0.0.0,2048x1152,2048x1026,Temporal Distance Task,cb_03,43.0,temp_dist_trial,dist_items,qkpkxw,2.0,response,23,483.7999999999884,1334.6000000000058,1346.8000001907346,483.7999999999884,1334.6000000000058,1346.8000001907346,1.0,863.0000001907465,0.0,,Slider,Slider,4.0,object-56,temp_dist_trial,43.0,s_sh_18_1,student_shared,wall calendar,3.0,competing,paired,s_sh_18_1.jpg,Student,,,sub-32
Desktop or Laptop,Windows 10,Chrome 137.0.0.0,2048x1152,2048x1026,Temporal Distance Task,cb_03,44.0,temp_dist_trial,num_items,zn7si1,1.0,response,2_ITEM,1709.8000000953616,1701.3999999999942,1709.8000000953616,1709.8000000953616,1701.3999999999942,1709.8000000953616,1.0,0.0,0.0,,Click Response,2_count,5.0,object-49,temp_dist_trial,44.0,s_sh_13_1,student_shared,index cards,3.0,competing,paired,s_sh_13_1.jpg,Student,,,sub-32
Desktop or Laptop,Windows 10,Chrome 137.0.0.0,2048x1152,2048x1026,Temporal Distance Task,cb_03,44.0,temp_dist_trial,dist_items,qkpkxw,2.0,info,,2.8999999999941792,0.0,2.8999999999941792,2.8999999999941792,0.0,2.8999999999941792,1.0,0.0,0.0,,Slider,Slider,4.0,object-56,temp_dist_trial,44.0,s_sh_13_1,student_shared,index cards,3.0,competing,paired,s_sh_13_1.jpg,Student,,,sub-32
Desktop or Laptop,Windows 10,Chrome 137.0.0.0,2048x1152,2048x1026,Temporal Distance Task,cb_03,44.0,temp_dist_trial,dist_items,qkpkxw,2.0,continue,,2108.6000002860965,2102.0,2108.6000002860965,2108.6000002860965,2102.0,2108.6000002860965,1.0,0.0,0.0,,Click To Continue,Next button,7.0,object-60,temp_dist_trial,44.0,s_sh_13_1,student_shared,index cards,3.0,competing,paired,s_sh_13_1.jpg,Student,,,sub-32
Desktop or Laptop,Windows 10,Chrome 137.0.0.0,2048x1152,2048x1026,Temporal Distance Task,cb_03,44.0,temp_dist_trial,dist_items,qkpkxw,2.0,response,34,1267.8999999999942,2102.0,2111.8999999999937,1267.8999999999942,2102.0,2111.8999999999937,1.0,844.0,0.0,,Slider,Slider,4.0,object-56,temp_dist_trial,44.0,s_sh_13_1,student_shared,index cards,3.0,competing,paired,s_sh_13_1.jpg,Student,,,sub-32
Desktop or Laptop,Windows 10,Chrome 137.0.0.0,2048x1152,2048x1026,Temporal Distance Task,cb_03,45.0,temp_dist_trial,num_items,zn7si1,1.0,response,2_ITEM,1132.200000190729,1117.6000000000058,1132.200000190729,1132.200000190729,1117.6000000000058,1132.200000190729,1.0,0.0,0.0,,Click Response,2_count,5.0,object-49,temp_dist_trial,45.0,s_sh_24_1,student_shared,desk organizer,3.0,competing,paired,s_sh_24_1.jpg,Student,,,sub-32
Desktop or Laptop,Windows 10,Chrome 137.0.0.0,2048x1152,2048x1026,Temporal Distance Task,cb_03,45.0,temp_dist_trial,dist_items,qkpkxw,2.0,info,,3.600000095379073,0.0,3.600000095379073,3.600000095379073,0.0,3.600000095379073,1.0,0.0,0.0,,Slider,Slider,4.0,object-56,temp_dist_trial,45.0,s_sh_24_1,student_shared,desk organizer,3.0,competing,paired,s_sh_24_1.jpg,Student,,,sub-32
Desktop or Laptop,Windows 10,Chrome 137.0.0.0,2048x1152,2048x1026,Temporal Distance Task,cb_03,45.0,temp_dist_trial,dist_items,qkpkxw,2.0,continue,,1551.0000001907465,1534.5,1551.0000001907465,1551.0000001907465,1534.5,1551.0000001907465,1.0,0.0,0.0,,Click To Continue,Next button,7.0,object-60,temp_dist_trial,45.0,s_sh_24_1,student_shared,desk organizer,3.0,competing,paired,s_sh_24_1.jpg,Student,,,sub-32
Desktop or Laptop,Windows 10,Chrome 137.0.0.0,2048x1152,2048x1026,Temporal Distance Task,cb_03,45.0,temp_dist_trial,dist_items,qkpkxw,2.0,response,65,517.2000000000116,1534.5,1551.1999999999825,517.2000000000116,1534.5,1551.1999999999825,1.0,1033.999999999971,0.0,,Slider,Slider,4.0,object-56,temp_dist_trial,45.0,s_sh_24_1,student_shared,desk organizer,3.0,competing,paired,s_sh_24_1.jpg,Student,,,sub-32
Desktop or Laptop,Windows 10,Chrome 137.0.0.0,2048x1152,2048x1026,Temporal Distance Task,cb_03,46.0,temp_dist_trial,num_items,zn7si1,1.0,response,1_ITEM,1303.3000003814814,1301.2000000000114,1303.3000003814814,1303.3000003814814,1301.2000000000114,1303.3000003814814,1.0,0.0,0.0,,Click Response,1_count,3.0,object-46,temp_dist_trial,46.0,s_sh_07_1,student_shared,ruler,3.0,competing,single,s_sh_07_1.jpg,Student,,,sub-32
Desktop or Laptop,Windows 10,Chrome 137.0.0.0,2048x1152,2048x1026,Temporal Distance Task,cb_03,47.0,temp_dist_trial,num_items,zn7si1,1.0,response,2_ITEM,1984.600000095379,1968.3000000000175,1984.600000095379,1984.600000095379,1968.3000000000175,1984.600000095379,1.0,0.0,0.0,,Click Response,2_count,5.0,object-49,temp_dist_trial,47.0,s_sh_17_1,student_shared,wireless mouse,3.0,competing,paired,s_sh_17_1.jpg,Student,,,sub-32
Desktop or Laptop,Windows 10,Chrome 137.0.0.0,2048x1152,2048x1026,Temporal Distance Task,cb_03,47.0,temp_dist_trial,dist_items,qkpkxw,2.0,info,,3.6000001907232217,0.0,3.6000001907232217,3.6000001907232217,0.0,3.6000001907232217,1.0,0.0,0.0,,Slider,Slider,4.0,object-56,temp_dist_trial,47.0,s_sh_17_1,student_shared,wireless mouse,3.0,competing,paired,s_sh_17_1.jpg,Student,,,sub-32
Desktop or Laptop,Windows 10,Chrome 137.0.0.0,2048x1152,2048x1026,Temporal Distance Task,cb_03,47.0,temp_dist_trial,dist_items,qkpkxw,2.0,continue,,1798.2000000953558,1784.7999999999884,1798.2000000953558,1798.2000000953558,1784.7999999999884,1798.2000000953558,1.0,0.0,0.0,,Click To Continue,Next button,7.0,object-60,temp_dist_trial,47.0,s_sh_17_1,student_shared,wireless mouse,3.0,competing,paired,s_sh_17_1.jpg,Student,,,sub-32
Desktop or Laptop,Windows 10,Chrome 137.0.0.0,2048x1152,2048x1026,Temporal Distance Task,cb_03,47.0,temp_dist_trial,dist_items,qkpkxw,2.0,response,58,684.0,1784.7999999999884,1798.6000001907232,684.0,1784.7999999999884,1798.6000001907232,1.0,1114.6000001907232,0.0,,Slider,Slider,4.0,object-56,temp_dist_trial,47.0,s_sh_17_1,student_shared,wireless mouse,3.0,competing,paired,s_sh_17_1.jpg,Student,,,sub-32
Desktop or Laptop,Windows 10,Chrome 137.0.0.0,2048x1152,2048x1026,Temporal Distance Task,cb_03,48.0,temp_dist_trial,num_items,zn7si1,1.0,response,2_ITEM,1417.8999999999646,1401.2999999999884,1417.8999999999646,1417.8999999999646,1401.2999999999884,1417.8999999999646,1.0,0.0,0.0,,Click Response,2_count,5.0,object-49,temp_dist_trial,48.0,s_sh_05_1,student_shared,laptop,3.0,competing,single,s_sh_05_1.jpg,Student,,,sub-32
Desktop or Laptop,Windows 10,Chrome 137.0.0.0,2048x1152,2048x1026,Temporal Distance Task,cb_03,48.0,temp_dist_trial,dist_items,qkpkxw,2.0,info,,3.200000286102295,0.0,3.200000286102295,3.200000286102295,0.0,3.200000286102295,1.0,0.0,0.0,,Slider,Slider,4.0,object-56,temp_dist_trial,48.0,s_sh_05_1,student_shared,laptop,3.0,competing,single,s_sh_05_1.jpg,Student,,,sub-32
Desktop or Laptop,Windows 10,Chrome 137.0.0.0,2048x1152,2048x1026,Temporal Distance Task,cb_03,48.0,temp_dist_trial,dist_items,qkpkxw,2.0,continue,,2062.5,2051.700000000012,2062.5,2062.5,2051.700000000012,2062.5,1.0,0.0,0.0,,Click To Continue,Next button,7.0,object-60,temp_dist_trial,48.0,s_sh_05_1,student_shared,laptop,3.0,competing,single,s_sh_05_1.jpg,Student,,,sub-32
Desktop or Laptop,Windows 10,Chrome 137.0.0.0,2048x1152,2048x1026,Temporal Distance Task,cb_03,48.0,temp_dist_trial,dist_items,qkpkxw,2.0,response,40,467.0,2051.700000000012,2062.6000003814693,467.0,2051.700000000012,2062.6000003814693,1.0,1595.6000003814695,0.0,,Slider,Slider,4.0,object-56,temp_dist_trial,48.0,s_sh_05_1,student_shared,laptop,3.0,competing,single,s_sh_05_1.jpg,Student,,,sub-32
Desktop or Laptop,Windows 10,Chrome 137.0.0.0,2048x1152,2048x1026,Temporal Distance Task,cb_03,2.0,temp_eventStart,Screen 1,dgtyxe,1.0,continue,,1370.1000001907232,1367.7999999999886,1370.1000001907232,1370.1000001907232,1367.7999999999886,1370.1000001907232,1.0,0.0,0.0,,Click To Continue,Next Button,3.0,object-43,temp_eventStart,,,Travel,,,,,,,,,sub-32
Desktop or Laptop,Windows 10,Chrome 137.0.0.0,2048x1152,2048x1026,Temporal Distance Task,cb_03,49.0,temp_dist_trial,num_items,zn7si1,1.0,response,2_ITEM,1270.1000003814695,1267.7999999999886,1270.1000003814695,1270.1000003814695,1267.7999999999886,1270.1000003814695,1.0,0.0,0.0,,Click Response,2_count,5.0,object-49,temp_dist_trial,1.0,t_s_14_1,travel_shared,hand sanitizer,3.0,competing,paired,t_s_14_1.jpg,Travel,,,sub-32
Desktop or Laptop,Windows 10,Chrome 137.0.0.0,2048x1152,2048x1026,Temporal Distance Task,cb_03,49.0,temp_dist_trial,dist_items,qkpkxw,2.0,info,,3.1000000000058208,0.0,3.1000000000058208,3.1000000000058208,0.0,3.1000000000058208,1.0,0.0,0.0,,Slider,Slider,4.0,object-56,temp_dist_trial,1.0,t_s_14_1,travel_shared,hand sanitizer,3.0,competing,paired,t_s_14_1.jpg,Travel,,,sub-32
Desktop or Laptop,Windows 10,Chrome 137.0.0.0,2048x1152,2048x1026,Temporal Distance Task,cb_03,49.0,temp_dist_trial,dist_items,qkpkxw,2.0,continue,,2370.2000003814755,2368.800000000017,2370.2000003814755,2370.2000003814755,2368.800000000017,2370.2000003814755,1.0,0.0,0.0,,Click To Continue,Next button,7.0,object-60,temp_dist_trial,1.0,t_s_14_1,travel_shared,hand sanitizer,3.0,competing,paired,t_s_14_1.jpg,Travel,,,sub-32
Desktop or Laptop,Windows 10,Chrome 137.0.0.0,2048x1152,2048x1026,Temporal Distance Task,cb_03,49.0,temp_dist_trial,dist_items,qkpkxw,2.0,response,44,1167.7000000000114,2368.800000000017,2371.000000095373,1167.7000000000114,2368.800000000017,2371.000000095373,1.0,1203.3000000953614,0.0,,Slider,Slider,4.0,object-56,temp_dist_trial,1.0,t_s_14_1,travel_shared,hand sanitizer,3.0,competing,paired,t_s_14_1.jpg,Travel,,,sub-32
Desktop or Laptop,Windows 10,Chrome 137.0.0.0,2048x1152,2048x1026,Temporal Distance Task,cb_03,50.0,temp_dist_trial,num_items,zn7si1,1.0,response,2_ITEM,967.400000381458,950.7999999999884,967.400000381458,967.400000381458,950.7999999999884,967.400000381458,1.0,0.0,0.0,,Click Response,2_count,5.0,object-49,temp_dist_trial,2.0,t_s_01_1,travel_shared,fanny pack,3.0,competing,paired,t_s_01_1.jpg,Travel,,,sub-32
Desktop or Laptop,Windows 10,Chrome 137.0.0.0,2048x1152,2048x1026,Temporal Distance Task,cb_03,50.0,temp_dist_trial,dist_items,qkpkxw,2.0,info,,4.0,0.0,4.0,4.0,0.0,4.0,1.0,0.0,0.0,,Slider,Slider,4.0,object-56,temp_dist_trial,2.0,t_s_01_1,travel_shared,fanny pack,3.0,competing,paired,t_s_01_1.jpg,Travel,,,sub-32
Desktop or Laptop,Windows 10,Chrome 137.0.0.0,2048x1152,2048x1026,Temporal Distance Task,cb_03,50.0,temp_dist_trial,dist_items,qkpkxw,2.0,continue,,1906.100000381469,1901.7999999999884,1906.100000381469,1906.100000381469,1901.7999999999884,1906.100000381469,1.0,0.0,0.0,,Click To Continue,Next button,7.0,object-60,temp_dist_trial,2.0,t_s_01_1,travel_shared,fanny pack,3.0,competing,paired,t_s_01_1.jpg,Travel,,,sub-32
Desktop or Laptop,Windows 10,Chrome 137.0.0.0,2048x1152,2048x1026,Temporal Distance Task,cb_03,50.0,temp_dist_trial,dist_items,qkpkxw,2.0,response,60,534.0,1901.7999999999884,1917.8000001907349,534.0,1901.7999999999884,1917.8000001907349,1.0,1383.8000001907349,0.0,,Slider,Slider,4.0,object-56,temp_dist_trial,2.0,t_s_01_1,travel_shared,fanny pack,3.0,competing,paired,t_s_01_1.jpg,Travel,,,sub-32
Desktop or Laptop,Windows 10,Chrome 137.0.0.0,2048x1152,2048x1026,Temporal Distance Task,cb_03,51.0,temp_dist_trial,num_items,zn7si1,1.0,response,1_ITEM,2441.600000095379,2435.4000000000233,2441.600000095379,2441.600000095379,2435.4000000000233,2441.600000095379,1.0,0.0,0.0,,Click Response,1_count,3.0,object-46,temp_dist_trial,3.0,t_m_16_1,travel_Miami,flippers,3.0,unique,single,t_m_16_1.jpg,Travel,,,sub-32
Desktop or Laptop,Windows 10,Chrome 137.0.0.0,2048x1152,2048x1026,Temporal Distance Task,cb_03,52.0,temp_dist_trial,num_items,zn7si1,1.0,response,2_ITEM,1775.6000000000058,1768.1000000000058,1775.6000000000058,1775.6000000000058,1768.1000000000058,1775.6000000000058,1.0,0.0,0.0,,Click Response,2_count,5.0,object-49,temp_dist_trial,4.0,t_s_06_1,travel_shared,luggage,3.0,competing,paired,t_s_06_1.jpg,Travel,,,sub-32
Desktop or Laptop,Windows 10,Chrome 137.0.0.0,2048x1152,2048x1026,Temporal Distance Task,cb_03,52.0,temp_dist_trial,dist_items,qkpkxw,2.0,info,,3.79999999998836,0.0,3.79999999998836,3.79999999998836,0.0,3.79999999998836,1.0,0.0,0.0,,Slider,Slider,4.0,object-56,temp_dist_trial,4.0,t_s_06_1,travel_shared,luggage,3.0,competing,paired,t_s_06_1.jpg,Travel,,,sub-32
Desktop or Laptop,Windows 10,Chrome 137.0.0.0,2048x1152,2048x1026,Temporal Distance Task,cb_03,52.0,temp_dist_trial,dist_items,qkpkxw,2.0,continue,,3415.0000002860907,3402.7999999999884,3415.0000002860907,3415.0000002860907,3402.7999999999884,3415.0000002860907,1.0,0.0,0.0,,Click To Continue,Next button,7.0,object-60,temp_dist_trial,4.0,t_s_06_1,travel_shared,luggage,3.0,competing,paired,t_s_06_1.jpg,Travel,,,sub-32
Desktop or Laptop,Windows 10,Chrome 137.0.0.0,2048x1152,2048x1026,Temporal Distance Task,cb_03,52.0,temp_dist_trial,dist_items,qkpkxw,2.0,response,55,1451.2999999999884,3402.7999999999884,3415.400000381458,1451.2999999999884,3402.7999999999884,3415.400000381458,1.0,1964.100000381469,0.0,,Slider,Slider,4.0,object-56,temp_dist_trial,4.0,t_s_06_1,travel_shared,luggage,3.0,competing,paired,t_s_06_1.jpg,Travel,,,sub-32
Desktop or Laptop,Windows 10,Chrome 137.0.0.0,2048x1152,2048x1026,Temporal Distance Task,cb_03,53.0,temp_dist_trial,num_items,zn7si1,1.0,response,1_ITEM,1832.3000001907349,1818.2999999999884,1832.3000001907349,1832.3000001907349,1818.2999999999884,1832.3000001907349,1.0,0.0,0.0,,Click Response,1_count,3.0,object-46,temp_dist_trial,5.0,t_i_19_1,travel_Iceland,rope,3.0,unique,single,t_i_19_1.jpg,Travel,,,sub-32
Desktop or Laptop,Windows 10,Chrome 137.0.0.0,2048x1152,2048x1026,Temporal Distance Task,cb_03,54.0,temp_dist_trial,num_items,zn7si1,1.0,response,2_ITEM,1026.0,1017.5,1026.0,1026.0,1017.5,1026.0,1.0,0.0,0.0,,Click Response,2_count,5.0,object-49,temp_dist_trial,6.0,t_s_19_1,travel_shared,pajamas,3.0,competing,paired,t_s_19_1.jpg,Travel,,,sub-32
Desktop or Laptop,Windows 10,Chrome 137.0.0.0,2048x1152,2048x1026,Temporal Distance Task,cb_03,54.0,temp_dist_trial,dist_items,qkpkxw,2.0,info,,3.3000000953616118,0.0,3.3000000953616118,3.3000000953616118,0.0,3.3000000953616118,1.0,0.0,0.0,,Slider,Slider,4.0,object-56,temp_dist_trial,6.0,t_s_19_1,travel_shared,pajamas,3.0,competing,paired,t_s_19_1.jpg,Travel,,,sub-32
Desktop or Laptop,Windows 10,Chrome 137.0.0.0,2048x1152,2048x1026,Temporal Distance Task,cb_03,54.0,temp_dist_trial,dist_items,qkpkxw,2.0,continue,,1688.200000190729,1684.8999999999942,1688.200000190729,1688.200000190729,1684.8999999999942,1688.200000190729,1.0,0.0,0.0,,Click To Continue,Next button,7.0,object-60,temp_dist_trial,6.0,t_s_19_1,travel_shared,pajamas,3.0,competing,paired,t_s_19_1.jpg,Travel,,,sub-32
Desktop or Laptop,Windows 10,Chrome 137.0.0.0,2048x1152,2048x1026,Temporal Distance Task,cb_03,54.0,temp_dist_trial,dist_items,qkpkxw,2.0,response,40,517.1000000000058,1684.8999999999942,1688.6000002860965,517.1000000000058,1684.8999999999942,1688.6000002860965,1.0,1171.5000002860907,0.0,,Slider,Slider,4.0,object-56,temp_dist_trial,6.0,t_s_19_1,travel_shared,pajamas,3.0,competing,paired,t_s_19_1.jpg,Travel,,,sub-32
Desktop or Laptop,Windows 10,Chrome 137.0.0.0,2048x1152,2048x1026,Temporal Distance Task,cb_03,55.0,temp_dist_trial,num_items,zn7si1,1.0,response,1_ITEM,1486.7000002861025,1484.6000000000058,1486.7000002861025,1486.7000002861025,1484.6000000000058,1486.7000002861025,1.0,0.0,0.0,,Click Response,1_count,3.0,object-46,temp_dist_trial,7.0,t_s_17_1,travel_shared,toothbrush,3.0,competing,single,t_s_17_1.jpg,Travel,,,sub-32
Desktop or Laptop,Windows 10,Chrome 137.0.0.0,2048x1152,2048x1026,Temporal Distance Task,cb_03,56.0,temp_dist_trial,num_items,zn7si1,1.0,response,1_ITEM,1681.7000000000116,1668.1000000000058,1681.7000000000116,1681.7000000000116,1668.1000000000058,1681.7000000000116,1.0,0.0,0.0,,Click Response,1_count,3.0,object-46,temp_dist_trial,8.0,t_s_11_1,travel_shared,eye mask,3.0,competing,single,t_s_11_1.jpg,Travel,,,sub-32
Desktop or Laptop,Windows 10,Chrome 137.0.0.0,2048x1152,2048x1026,Temporal Distance Task,cb_03,57.0,temp_dist_trial,num_items,zn7si1,1.0,response,2_ITEM,1289.6000002860965,1284.2999999999886,1289.6000002860965,1289.6000002860965,1284.2999999999886,1289.6000002860965,1.0,0.0,0.0,,Click Response,2_count,5.0,object-49,temp_dist_trial,9.0,t_s_23_1,travel_shared,ball cap,3.0,competing,paired,t_s_23_1.jpg,Travel,,,sub-32
Desktop or Laptop,Windows 10,Chrome 137.0.0.0,2048x1152,2048x1026,Temporal Distance Task,cb_03,57.0,temp_dist_trial,dist_items,qkpkxw,2.0,info,,3.6000002860964733,0.0,3.6000002860964733,3.6000002860964733,0.0,3.6000002860964733,1.0,0.0,0.0,,Slider,Slider,4.0,object-56,temp_dist_trial,9.0,t_s_23_1,travel_shared,ball cap,3.0,competing,paired,t_s_23_1.jpg,Travel,,,sub-32
Desktop or Laptop,Windows 10,Chrome 137.0.0.0,2048x1152,2048x1026,Temporal Distance Task,cb_03,57.0,temp_dist_trial,dist_items,qkpkxw,2.0,continue,,2541.8999999999937,2535.6000000000063,2541.8999999999937,2541.8999999999937,2535.6000000000063,2541.8999999999937,1.0,0.0,0.0,,Click To Continue,Next button,7.0,object-60,temp_dist_trial,9.0,t_s_23_1,travel_shared,ball cap,3.0,competing,paired,t_s_23_1.jpg,Travel,,,sub-32
Desktop or Laptop,Windows 10,Chrome 137.0.0.0,2048x1152,2048x1026,Temporal Distance Task,cb_03,57.0,temp_dist_trial,dist_items,qkpkxw,2.0,response,63,784.1000000000058,2535.6000000000063,2542.3000000953616,784.1000000000058,2535.6000000000063,2542.3000000953616,1.0,1758.2000000953558,0.0,,Slider,Slider,4.0,object-56,temp_dist_trial,9.0,t_s_23_1,travel_shared,ball cap,3.0,competing,paired,t_s_23_1.jpg,Travel,,,sub-32
Desktop or Laptop,Windows 10,Chrome 137.0.0.0,2048x1152,2048x1026,Temporal Distance Task,cb_03,58.0,temp_dist_trial,num_items,zn7si1,1.0,response,1_ITEM,1016.5000002860907,1000.6999999999823,1016.5000002860907,1016.5000002860907,1000.6999999999823,1016.5000002860907,1.0,0.0,0.0,,Click Response,1_count,3.0,object-46,temp_dist_trial,10.0,t_s_13_1,travel_shared,contact lens case,3.0,competing,paired,t_s_13_1.jpg,Travel,,,sub-32
Desktop or Laptop,Windows 10,Chrome 137.0.0.0,2048x1152,2048x1026,Temporal Distance Task,cb_03,59.0,temp_dist_trial,num_items,zn7si1,1.0,response,1_ITEM,1508.5000002860907,1501.2999999999884,1508.5000002860907,1508.5000002860907,1501.2999999999884,1508.5000002860907,1.0,0.0,0.0,,Click Response,1_count,3.0,object-46,temp_dist_trial,11.0,t_m_04_1,travel_Miami,UV jacket,3.0,unique,paired,t_m_04_1.jpg,Travel,,,sub-32
Desktop or Laptop,Windows 10,Chrome 137.0.0.0,2048x1152,2048x1026,Temporal Distance Task,cb_03,60.0,temp_dist_trial,num_items,zn7si1,1.0,response,1_ITEM,2737.8000000953616,2735.6999999999825,2737.8000000953616,2737.8000000953616,2735.6999999999825,2737.8000000953616,1.0,0.0,0.0,,Click Response,1_count,3.0,object-46,temp_dist_trial,12.0,t_s_08_1,travel_shared,hand lotion,3.0,competing,single,t_s_08_1.jpg,Travel,,,sub-32
Desktop or Laptop,Windows 10,Chrome 137.0.0.0,2048x1152,2048x1026,Temporal Distance Task,cb_03,61.0,temp_dist_trial,num_items,zn7si1,1.0,response,1_ITEM,1787.3000001907349,1784.7999999999884,1787.3000001907349,1787.3000001907349,1784.7999999999884,1787.3000001907349,1.0,0.0,0.0,,Click Response,1_count,3.0,object-46,temp_dist_trial,13.0,t_m_15_1,travel_Miami,shorts,3.0,unique,single,t_m_15_1.jpg,Travel,,,sub-32
Desktop or Laptop,Windows 10,Chrome 137.0.0.0,2048x1152,2048x1026,Temporal Distance Task,cb_03,62.0,temp_dist_trial,num_items,zn7si1,1.0,response,1_ITEM,1092.3999999999942,1084.2999999999884,1092.3999999999942,1092.3999999999942,1084.2999999999884,1092.3999999999942,1.0,0.0,0.0,,Click Response,1_count,3.0,object-46,temp_dist_trial,14.0,t_s_22_1,travel_shared,belt,3.0,competing,single,t_s_22_1.jpg,Travel,,,sub-32
Desktop or Laptop,Windows 10,Chrome 137.0.0.0,2048x1152,2048x1026,Temporal Distance Task,cb_03,63.0,temp_dist_trial,num_items,zn7si1,1.0,response,2_ITEM,964.3000001907347,950.7999999999884,964.3000001907347,964.3000001907347,950.7999999999884,964.3000001907347,1.0,0.0,0.0,,Click Response,2_count,5.0,object-49,temp_dist_trial,15.0,t_m_01_1,travel_Miami,sandals,3.0,unique,paired,t_m_01_1.jpg,Travel,,,sub-32
Desktop or Laptop,Windows 10,Chrome 137.0.0.0,2048x1152,2048x1026,Temporal Distance Task,cb_03,63.0,temp_dist_trial,dist_items,qkpkxw,2.0,info,,3.3000002861081166,0.0,3.3000002861081166,3.3000002861081166,0.0,3.3000002861081166,1.0,0.0,0.0,,Slider,Slider,4.0,object-56,temp_dist_trial,15.0,t_m_01_1,travel_Miami,sandals,3.0,unique,paired,t_m_01_1.jpg,Travel,,,sub-32
Desktop or Laptop,Windows 10,Chrome 137.0.0.0,2048x1152,2048x1026,Temporal Distance Task,cb_03,63.0,temp_dist_trial,dist_items,qkpkxw,2.0,continue,,2245.7000003814755,2235.3999999999937,2245.7000003814755,2245.7000003814755,2235.3999999999937,2245.7000003814755,1.0,0.0,0.0,,Click To Continue,Next button,7.0,object-60,temp_dist_trial,15.0,t_m_01_1,travel_Miami,sandals,3.0,unique,paired,t_m_01_1.jpg,Travel,,,sub-32
Desktop or Laptop,Windows 10,Chrome 137.0.0.0,2048x1152,2048x1026,Temporal Distance Task,cb_03,63.0,temp_dist_trial,dist_items,qkpkxw,2.0,response,29,934.2000000000116,2235.3999999999937,2247.9000001907407,934.2000000000116,2235.3999999999937,2247.9000001907407,1.0,1313.700000190729,0.0,,Slider,Slider,4.0,object-56,temp_dist_trial,15.0,t_m_01_1,travel_Miami,sandals,3.0,unique,paired,t_m_01_1.jpg,Travel,,,sub-32
Desktop or Laptop,Windows 10,Chrome 137.0.0.0,2048x1152,2048x1026,Temporal Distance Task,cb_03,64.0,temp_dist_trial,num_items,zn7si1,1.0,response,2_ITEM,1391.600000095379,1384.5,1391.600000095379,1391.600000095379,1384.5,1391.600000095379,1.0,0.0,0.0,,Click Response,2_count,5.0,object-49,temp_dist_trial,16.0,t_s_15_1,travel_shared,luggage tag,3.0,competing,paired,t_s_15_1.jpg,Travel,,,sub-32
Desktop or Laptop,Windows 10,Chrome 137.0.0.0,2048x1152,2048x1026,Temporal Distance Task,cb_03,64.0,temp_dist_trial,dist_items,qkpkxw,2.0,info,,2.9000000953674316,0.0,2.9000000953674316,2.9000000953674316,0.0,2.9000000953674316,1.0,0.0,0.0,,Slider,Slider,4.0,object-56,temp_dist_trial,16.0,t_s_15_1,travel_shared,luggage tag,3.0,competing,paired,t_s_15_1.jpg,Travel,,,sub-32
Desktop or Laptop,Windows 10,Chrome 137.0.0.0,2048x1152,2048x1026,Temporal Distance Task,cb_03,64.0,temp_dist_trial,dist_items,qkpkxw,2.0,continue,,1532.3000001907349,1517.8999999999942,1532.3000001907349,1532.3000001907349,1517.8999999999942,1532.3000001907349,1.0,0.0,0.0,,Click To Continue,Next button,7.0,object-60,temp_dist_trial,16.0,t_s_15_1,travel_shared,luggage tag,3.0,competing,paired,t_s_15_1.jpg,Travel,,,sub-32
Desktop or Laptop,Windows 10,Chrome 137.0.0.0,2048x1152,2048x1026,Temporal Distance Task,cb_03,64.0,temp_dist_trial,dist_items,qkpkxw,2.0,response,33,583.7999999999884,1517.8999999999942,1532.5,583.7999999999884,1517.8999999999942,1532.5,1.0,948.7000000000116,0.0,,Slider,Slider,4.0,object-56,temp_dist_trial,16.0,t_s_15_1,travel_shared,luggage tag,3.0,competing,paired,t_s_15_1.jpg,Travel,,,sub-32
Desktop or Laptop,Windows 10,Chrome 137.0.0.0,2048x1152,2048x1026,Temporal Distance Task,cb_03,65.0,temp_dist_trial,num_items,zn7si1,1.0,response,1_ITEM,1915.8000002861081,1901.5,1915.8000002861081,1915.8000002861081,1901.5,1915.8000002861081,1.0,0.0,0.0,,Click Response,1_count,3.0,object-46,temp_dist_trial,17.0,t_s_20_1,travel_shared,travel pill case,3.0,competing,single,t_s_20_1.jpg,Travel,,,sub-32
Desktop or Laptop,Windows 10,Chrome 137.0.0.0,2048x1152,2048x1026,Temporal Distance Task,cb_03,66.0,temp_dist_trial,num_items,zn7si1,1.0,response,1_ITEM,1419.5000002860907,1417.7999999999884,1419.5000002860907,1419.5000002860907,1417.7999999999884,1419.5000002860907,1.0,0.0,0.0,,Click Response,1_count,3.0,object-46,temp_dist_trial,18.0,t_i_15_1,travel_Iceland,compass,3.0,unique,paired,t_i_15_1.jpg,Travel,,,sub-32
Desktop or Laptop,Windows 10,Chrome 137.0.0.0,2048x1152,2048x1026,Temporal Distance Task,cb_03,67.0,temp_dist_trial,num_items,zn7si1,1.0,response,1_ITEM,1242.600000095379,1234.3000000000175,1242.600000095379,1242.600000095379,1234.3000000000175,1242.600000095379,1.0,0.0,0.0,,Click Response,1_count,3.0,object-46,temp_dist_trial,19.0,t_m_10_1,travel_Miami,tanktop,3.0,unique,paired,t_m_10_1.jpg,Travel,,,sub-32
Desktop or Laptop,Windows 10,Chrome 137.0.0.0,2048x1152,2048x1026,Temporal Distance Task,cb_03,68.0,temp_dist_trial,num_items,zn7si1,1.0,response,2_ITEM,990.1000000000058,984.1000000000058,990.1000000000058,990.1000000000058,984.1000000000058,990.1000000000058,1.0,0.0,0.0,,Click Response,2_count,5.0,object-49,temp_dist_trial,20.0,t_m_17_1,travel_Miami,water gun,3.0,unique,paired,t_m_17_1.jpg,Travel,,,sub-32
Desktop or Laptop,Windows 10,Chrome 137.0.0.0,2048x1152,2048x1026,Temporal Distance Task,cb_03,68.0,temp_dist_trial,dist_items,qkpkxw,2.0,info,,3.1000002860964733,0.0,3.1000002860964733,3.1000002860964733,0.0,3.1000002860964733,1.0,0.0,0.0,,Slider,Slider,4.0,object-56,temp_dist_trial,20.0,t_m_17_1,travel_Miami,water gun,3.0,unique,paired,t_m_17_1.jpg,Travel,,,sub-32
Desktop or Laptop,Windows 10,Chrome 137.0.0.0,2048x1152,2048x1026,Temporal Distance Task,cb_03,68.0,temp_dist_trial,dist_items,qkpkxw,2.0,continue,,1442.3000000953616,1434.6999999999825,1442.3000000953616,1442.3000000953616,1434.6999999999825,1442.3000000953616,1.0,0.0,0.0,,Click To Continue,Next button,7.0,object-60,temp_dist_trial,20.0,t_m_17_1,travel_Miami,water gun,3.0,unique,paired,t_m_17_1.jpg,Travel,,,sub-32
Desktop or Laptop,Windows 10,Chrome 137.0.0.0,2048x1152,2048x1026,Temporal Distance Task,cb_03,68.0,temp_dist_trial,dist_items,qkpkxw,2.0,response,55,517.1999999999825,1434.6999999999825,1449.200000190729,517.1999999999825,1434.6999999999825,1449.200000190729,1.0,932.0000001907463,0.0,,Slider,Slider,4.0,object-56,temp_dist_trial,20.0,t_m_17_1,travel_Miami,water gun,3.0,unique,paired,t_m_17_1.jpg,Travel,,,sub-32
Desktop or Laptop,Windows 10,Chrome 137.0.0.0,2048x1152,2048x1026,Temporal Distance Task,cb_03,69.0,temp_dist_trial,num_items,zn7si1,1.0,response,2_ITEM,1310.900000286114,1301.0,1310.900000286114,1310.900000286114,1301.0,1310.900000286114,1.0,0.0,0.0,,Click Response,2_count,5.0,object-49,temp_dist_trial,21.0,t_s_16_1,travel_shared,chapstick,3.0,competing,paired,t_s_16_1.jpg,Travel,,,sub-32
Desktop or Laptop,Windows 10,Chrome 137.0.0.0,2048x1152,2048x1026,Temporal Distance Task,cb_03,69.0,temp_dist_trial,dist_items,qkpkxw,2.0,info,,4.100000381469728,0.0,4.100000381469728,4.100000381469728,0.0,4.100000381469728,1.0,0.0,0.0,,Slider,Slider,4.0,object-56,temp_dist_trial,21.0,t_s_16_1,travel_shared,chapstick,3.0,competing,paired,t_s_16_1.jpg,Travel,,,sub-32
Desktop or Laptop,Windows 10,Chrome 137.0.0.0,2048x1152,2048x1026,Temporal Distance Task,cb_03,69.0,temp_dist_trial,dist_items,qkpkxw,2.0,continue,,1542.7000002861025,1534.7000000000116,1542.7000002861025,1542.7000002861025,1534.7000000000116,1542.7000002861025,1.0,0.0,0.0,,Click To Continue,Next button,7.0,object-60,temp_dist_trial,21.0,t_s_16_1,travel_shared,chapstick,3.0,competing,paired,t_s_16_1.jpg,Travel,,,sub-32
Desktop or Laptop,Windows 10,Chrome 137.0.0.0,2048x1152,2048x1026,Temporal Distance Task,cb_03,69.0,temp_dist_trial,dist_items,qkpkxw,2.0,response,42,667.2999999999884,1534.7000000000116,1542.9000000953674,667.2999999999884,1534.7000000000116,1542.9000000953674,1.0,875.6000000953792,0.0,,Slider,Slider,4.0,object-56,temp_dist_trial,21.0,t_s_16_1,travel_shared,chapstick,3.0,competing,paired,t_s_16_1.jpg,Travel,,,sub-32
Desktop or Laptop,Windows 10,Chrome 137.0.0.0,2048x1152,2048x1026,Temporal Distance Task,cb_03,70.0,temp_dist_trial,num_items,zn7si1,1.0,response,1_ITEM,1244.2000000953558,1234.3999999999942,1244.2000000953558,1244.2000000953558,1234.3999999999942,1244.2000000953558,1.0,0.0,0.0,,Click Response,1_count,3.0,object-46,temp_dist_trial,22.0,t_i_09_1,travel_Iceland,ear muffs,3.0,unique,paired,t_i_09_1.jpg,Travel,,,sub-32
Desktop or Laptop,Windows 10,Chrome 137.0.0.0,2048x1152,2048x1026,Temporal Distance Task,cb_03,71.0,temp_dist_trial,num_items,zn7si1,1.0,response,2_ITEM,1258.8000003814814,1251.0,1258.8000003814814,1258.8000003814814,1251.0,1258.8000003814814,1.0,0.0,0.0,,Click Response,2_count,5.0,object-49,temp_dist_trial,23.0,t_s_24_1,travel_shared,ear plugs,3.0,competing,paired,t_s_24_1.jpg,Travel,,,sub-32
Desktop or Laptop,Windows 10,Chrome 137.0.0.0,2048x1152,2048x1026,Temporal Distance Task,cb_03,71.0,temp_dist_trial,dist_items,qkpkxw,2.0,info,,3.5000000953732524,0.0,3.5000000953732524,3.5000000953732524,0.0,3.5000000953732524,1.0,0.0,0.0,,Slider,Slider,4.0,object-56,temp_dist_trial,23.0,t_s_24_1,travel_shared,ear plugs,3.0,competing,paired,t_s_24_1.jpg,Travel,,,sub-32
Desktop or Laptop,Windows 10,Chrome 137.0.0.0,2048x1152,2048x1026,Temporal Distance Task,cb_03,71.0,temp_dist_trial,dist_items,qkpkxw,2.0,continue,,1943.6000000000056,1935.1000000000056,1943.6000000000056,1943.6000000000056,1935.1000000000056,1943.6000000000056,1.0,0.0,0.0,,Click To Continue,Next button,7.0,object-60,temp_dist_trial,23.0,t_s_24_1,travel_shared,ear plugs,3.0,competing,paired,t_s_24_1.jpg,Travel,,,sub-32
Desktop or Laptop,Windows 10,Chrome 137.0.0.0,2048x1152,2048x1026,Temporal Distance Task,cb_03,71.0,temp_dist_trial,dist_items,qkpkxw,2.0,response,21,700.7000000000116,1935.1000000000056,1944.0000000953733,700.7000000000116,1935.1000000000056,1944.0000000953733,1.0,1243.3000000953614,0.0,,Slider,Slider,4.0,object-56,temp_dist_trial,23.0,t_s_24_1,travel_shared,ear plugs,3.0,competing,paired,t_s_24_1.jpg,Travel,,,sub-32
Desktop or Laptop,Windows 10,Chrome 137.0.0.0,2048x1152,2048x1026,Temporal Distance Task,cb_03,72.0,temp_dist_trial,num_items,zn7si1,1.0,response,2_ITEM,1523.0,1517.8999999999942,1523.0,1523.0,1517.8999999999942,1523.0,1.0,0.0,0.0,,Click Response,2_count,5.0,object-49,temp_dist_trial,24.0,t_s_03_1,travel_shared,portable charger,3.0,competing,paired,t_s_03_1.jpg,Travel,,,sub-32
Desktop or Laptop,Windows 10,Chrome 137.0.0.0,2048x1152,2048x1026,Temporal Distance Task,cb_03,72.0,temp_dist_trial,dist_items,qkpkxw,2.0,info,,2.8000000953616104,0.0,2.8000000953616104,2.8000000953616104,0.0,2.8000000953616104,1.0,0.0,0.0,,Slider,Slider,4.0,object-56,temp_dist_trial,24.0,t_s_03_1,travel_shared,portable charger,3.0,competing,paired,t_s_03_1.jpg,Travel,,,sub-32
Desktop or Laptop,Windows 10,Chrome 137.0.0.0,2048x1152,2048x1026,Temporal Distance Task,cb_03,72.0,temp_dist_trial,dist_items,qkpkxw,2.0,continue,,2206.3999999999937,2201.8999999999937,2206.3999999999937,2206.3999999999937,2201.8999999999937,2206.3999999999937,1.0,0.0,0.0,,Click To Continue,Next button,7.0,object-60,temp_dist_trial,24.0,t_s_03_1,travel_shared,portable charger,3.0,competing,paired,t_s_03_1.jpg,Travel,,,sub-32
Desktop or Laptop,Windows 10,Chrome 137.0.0.0,2048x1152,2048x1026,Temporal Distance Task,cb_03,72.0,temp_dist_trial,dist_items,qkpkxw,2.0,response,26,1267.7999999999886,2201.8999999999937,2210.000000381464,1267.7999999999886,2201.8999999999937,2210.000000381464,1.0,942.2000003814757,0.0,,Slider,Slider,4.0,object-56,temp_dist_trial,24.0,t_s_03_1,travel_shared,portable charger,3.0,competing,paired,t_s_03_1.jpg,Travel,,,sub-32
Desktop or Laptop,Windows 10,Chrome 137.0.0.0,2048x1152,2048x1026,Temporal Distance Task,cb_03,73.0,temp_dist_trial,num_items,zn7si1,1.0,response,1_ITEM,1217.4000000953674,1201.0,1217.4000000953674,1217.4000000953674,1201.0,1217.4000000953674,1.0,0.0,0.0,,Click Response,1_count,3.0,object-46,temp_dist_trial,25.0,t_s_07_1,travel_shared,phone charger cable,3.0,competing,single,t_s_07_1.jpg,Travel,,,sub-32
Desktop or Laptop,Windows 10,Chrome 137.0.0.0,2048x1152,2048x1026,Temporal Distance Task,cb_03,74.0,temp_dist_trial,num_items,zn7si1,1.0,response,2_ITEM,1010.7999999999884,1000.8999999999942,1010.7999999999884,1010.7999999999884,1000.8999999999942,1010.7999999999884,1.0,0.0,0.0,,Click Response,2_count,5.0,object-49,temp_dist_trial,26.0,t_i_13_1,travel_Iceland,sleeping bag,3.0,unique,paired,t_i_13_1.jpg,Travel,,,sub-32
Desktop or Laptop,Windows 10,Chrome 137.0.0.0,2048x1152,2048x1026,Temporal Distance Task,cb_03,74.0,temp_dist_trial,dist_items,qkpkxw,2.0,info,,3.6000002860964733,0.0,3.6000002860964733,3.6000002860964733,0.0,3.6000002860964733,1.0,0.0,0.0,,Slider,Slider,4.0,object-56,temp_dist_trial,26.0,t_i_13_1,travel_Iceland,sleeping bag,3.0,unique,paired,t_i_13_1.jpg,Travel,,,sub-32
Desktop or Laptop,Windows 10,Chrome 137.0.0.0,2048x1152,2048x1026,Temporal Distance Task,cb_03,74.0,temp_dist_trial,dist_items,qkpkxw,2.0,continue,,2017.1000002860965,2001.8999999999944,2017.1000002860965,2017.1000002860965,2001.8999999999944,2017.1000002860965,1.0,0.0,0.0,,Click To Continue,Next button,7.0,object-60,temp_dist_trial,26.0,t_i_13_1,travel_Iceland,sleeping bag,3.0,unique,paired,t_i_13_1.jpg,Travel,,,sub-32
Desktop or Laptop,Windows 10,Chrome 137.0.0.0,2048x1152,2048x1026,Temporal Distance Task,cb_03,74.0,temp_dist_trial,dist_items,qkpkxw,2.0,response,18,534.0,2001.8999999999944,2017.3000000953616,534.0,2001.8999999999944,2017.3000000953616,1.0,1483.3000000953616,0.0,,Slider,Slider,4.0,object-56,temp_dist_trial,26.0,t_i_13_1,travel_Iceland,sleeping bag,3.0,unique,paired,t_i_13_1.jpg,Travel,,,sub-32
Desktop or Laptop,Windows 10,Chrome 137.0.0.0,2048x1152,2048x1026,Temporal Distance Task,cb_03,75.0,temp_dist_trial,num_items,zn7si1,1.0,response,1_ITEM,1163.3000001907346,1151.0,1163.3000001907346,1163.3000001907346,1151.0,1163.3000001907346,1.0,0.0,0.0,,Click Response,1_count,3.0,object-46,temp_dist_trial,27.0,t_m_14_1,travel_Miami,swim goggles,3.0,unique,paired,t_m_14_1.jpg,Travel,,,sub-32
Desktop or Laptop,Windows 10,Chrome 137.0.0.0,2048x1152,2048x1026,Temporal Distance Task,cb_03,76.0,temp_dist_trial,num_items,zn7si1,1.0,response,2_ITEM,916.1000002860964,900.7999999999884,916.1000002860964,916.1000002860964,900.7999999999884,916.1000002860964,1.0,0.0,0.0,,Click Response,2_count,5.0,object-49,temp_dist_trial,28.0,t_i_17_1,travel_Iceland,binoculars,3.0,unique,paired,t_i_17_1.jpg,Travel,,,sub-32
Desktop or Laptop,Windows 10,Chrome 137.0.0.0,2048x1152,2048x1026,Temporal Distance Task,cb_03,76.0,temp_dist_trial,dist_items,qkpkxw,2.0,info,,2.9000000953674316,0.0,2.9000000953674316,2.9000000953674316,0.0,2.9000000953674316,1.0,0.0,0.0,,Slider,Slider,4.0,object-56,temp_dist_trial,28.0,t_i_17_1,travel_Iceland,binoculars,3.0,unique,paired,t_i_17_1.jpg,Travel,,,sub-32
Desktop or Laptop,Windows 10,Chrome 137.0.0.0,2048x1152,2048x1026,Temporal Distance Task,cb_03,76.0,temp_dist_trial,dist_items,qkpkxw,2.0,continue,,1542.4000000953674,1534.7000000000116,1542.4000000953674,1542.4000000953674,1534.7000000000116,1542.4000000953674,1.0,0.0,0.0,,Click To Continue,Next button,7.0,object-60,temp_dist_trial,28.0,t_i_17_1,travel_Iceland,binoculars,3.0,unique,paired,t_i_17_1.jpg,Travel,,,sub-32
Desktop or Laptop,Windows 10,Chrome 137.0.0.0,2048x1152,2048x1026,Temporal Distance Task,cb_03,76.0,temp_dist_trial,dist_items,qkpkxw,2.0,response,44,650.7000000000116,1534.7000000000116,1543.8000001907349,650.7000000000116,1534.7000000000116,1543.8000001907349,1.0,893.1000001907232,0.0,,Slider,Slider,4.0,object-56,temp_dist_trial,28.0,t_i_17_1,travel_Iceland,binoculars,3.0,unique,paired,t_i_17_1.jpg,Travel,,,sub-32
Desktop or Laptop,Windows 10,Chrome 137.0.0.0,2048x1152,2048x1026,Temporal Distance Task,cb_03,77.0,temp_dist_trial,num_items,zn7si1,1.0,response,1_ITEM,1511.900000381458,1501.2999999999884,1511.900000381458,1511.900000381458,1501.2999999999884,1511.900000381458,1.0,0.0,0.0,,Click Response,1_count,3.0,object-46,temp_dist_trial,29.0,t_m_18_1,travel_Miami,waterproof tote,3.0,unique,single,t_m_18_1.jpg,Travel,,,sub-32
Desktop or Laptop,Windows 10,Chrome 137.0.0.0,2048x1152,2048x1026,Temporal Distance Task,cb_03,78.0,temp_dist_trial,num_items,zn7si1,1.0,response,1_ITEM,1774.900000381458,1768.0999999999767,1774.900000381458,1774.900000381458,1768.0999999999767,1774.900000381458,1.0,0.0,0.0,,Click Response,1_count,3.0,object-46,temp_dist_trial,30.0,t_m_20_1,travel_Miami,inflatable beachball,3.0,unique,paired,t_m_20_1.jpg,Travel,,,sub-32
Desktop or Laptop,Windows 10,Chrome 137.0.0.0,2048x1152,2048x1026,Temporal Distance Task,cb_03,79.0,temp_dist_trial,num_items,zn7si1,1.0,response,2_ITEM,974.3000002861079,967.6000000000058,974.3000002861079,974.3000002861079,967.6000000000058,974.3000002861079,1.0,0.0,0.0,,Click Response,2_count,5.0,object-49,temp_dist_trial,31.0,t_s_05_1,travel_shared,neck pillow,3.0,competing,single,t_s_05_1.jpg,Travel,,,sub-32
Desktop or Laptop,Windows 10,Chrome 137.0.0.0,2048x1152,2048x1026,Temporal Distance Task,cb_03,79.0,temp_dist_trial,dist_items,qkpkxw,2.0,info,,3.6000002860964733,0.0,3.6000002860964733,3.6000002860964733,0.0,3.6000002860964733,1.0,0.0,0.0,,Slider,Slider,4.0,object-56,temp_dist_trial,31.0,t_s_05_1,travel_shared,neck pillow,3.0,competing,single,t_s_05_1.jpg,Travel,,,sub-32
Desktop or Laptop,Windows 10,Chrome 137.0.0.0,2048x1152,2048x1026,Temporal Distance Task,cb_03,79.0,temp_dist_trial,dist_items,qkpkxw,2.0,continue,,2014.8999999999944,2001.7999999999884,2014.8999999999944,2014.8999999999944,2001.7999999999884,2014.8999999999944,1.0,0.0,0.0,,Click To Continue,Next button,7.0,object-60,temp_dist_trial,31.0,t_s_05_1,travel_shared,neck pillow,3.0,competing,single,t_s_05_1.jpg,Travel,,,sub-32
Desktop or Laptop,Windows 10,Chrome 137.0.0.0,2048x1152,2048x1026,Temporal Distance Task,cb_03,79.0,temp_dist_trial,dist_items,qkpkxw,2.0,response,38,650.6999999999825,2001.7999999999884,2015.000000381464,650.6999999999825,2001.7999999999884,2015.000000381464,1.0,1364.3000003814814,0.0,,Slider,Slider,4.0,object-56,temp_dist_trial,31.0,t_s_05_1,travel_shared,neck pillow,3.0,competing,single,t_s_05_1.jpg,Travel,,,sub-32
Desktop or Laptop,Windows 10,Chrome 137.0.0.0,2048x1152,2048x1026,Temporal Distance Task,cb_03,80.0,temp_dist_trial,num_items,zn7si1,1.0,response,1_ITEM,932.5000000953733,917.3999999999942,932.5000000953733,932.5000000953733,917.3999999999942,932.5000000953733,1.0,0.0,0.0,,Click Response,1_count,3.0,object-46,temp_dist_trial,32.0,t_m_19_1,travel_Miami,surfboard,3.0,unique,single,t_m_19_1.jpg,Travel,,,sub-32
Desktop or Laptop,Windows 10,Chrome 137.0.0.0,2048x1152,2048x1026,Temporal Distance Task,cb_03,81.0,temp_dist_trial,num_items,zn7si1,1.0,response,1_ITEM,1649.5,1634.7000000000116,1649.5,1649.5,1634.7000000000116,1649.5,1.0,0.0,0.0,,Click Response,1_count,3.0,object-46,temp_dist_trial,33.0,t_i_20_1,travel_Iceland,lantern,3.0,unique,single,t_i_20_1.jpg,Travel,,,sub-32
Desktop or Laptop,Windows 10,Chrome 137.0.0.0,2048x1152,2048x1026,Temporal Distance Task,cb_03,82.0,temp_dist_trial,num_items,zn7si1,1.0,response,2_ITEM,943.4000000953674,934.2000000000116,943.4000000953674,943.4000000953674,934.2000000000116,943.4000000953674,1.0,0.0,0.0,,Click Response,2_count,5.0,object-49,temp_dist_trial,34.0,t_s_21_1,travel_shared,umbrella,3.0,competing,paired,t_s_21_1.jpg,Travel,,,sub-32
Desktop or Laptop,Windows 10,Chrome 137.0.0.0,2048x1152,2048x1026,Temporal Distance Task,cb_03,82.0,temp_dist_trial,dist_items,qkpkxw,2.0,info,,3.100000095379073,0.0,3.100000095379073,3.100000095379073,0.0,3.100000095379073,1.0,0.0,0.0,,Slider,Slider,4.0,object-56,temp_dist_trial,34.0,t_s_21_1,travel_shared,umbrella,3.0,competing,paired,t_s_21_1.jpg,Travel,,,sub-32
Desktop or Laptop,Windows 10,Chrome 137.0.0.0,2048x1152,2048x1026,Temporal Distance Task,cb_03,82.0,temp_dist_trial,dist_items,qkpkxw,2.0,continue,,1934.8000003814814,1918.3000000000175,1934.8000003814814,1934.8000003814814,1918.3000000000175,1934.8000003814814,1.0,0.0,0.0,,Click To Continue,Next button,7.0,object-60,temp_dist_trial,34.0,t_s_21_1,travel_shared,umbrella,3.0,competing,paired,t_s_21_1.jpg,Travel,,,sub-32
Desktop or Laptop,Windows 10,Chrome 137.0.0.0,2048x1152,2048x1026,Temporal Distance Task,cb_03,82.0,temp_dist_trial,dist_items,qkpkxw,2.0,response,18,750.7000000000116,1918.3000000000175,1935.000000000029,750.7000000000116,1918.3000000000175,1935.000000000029,1.0,1184.3000000000175,0.0,,Slider,Slider,4.0,object-56,temp_dist_trial,34.0,t_s_21_1,travel_shared,umbrella,3.0,competing,paired,t_s_21_1.jpg,Travel,,,sub-32
Desktop or Laptop,Windows 10,Chrome 137.0.0.0,2048x1152,2048x1026,Temporal Distance Task,cb_03,83.0,temp_dist_trial,num_items,zn7si1,1.0,response,1_ITEM,1145.200000190729,1134.1999999999825,1145.200000190729,1145.200000190729,1134.1999999999825,1145.200000190729,1.0,0.0,0.0,,Click Response,1_count,3.0,object-46,temp_dist_trial,35.0,t_i_03_1,travel_Iceland,winter jacket,3.0,unique,paired,t_i_03_1.jpg,Travel,,,sub-32
Desktop or Laptop,Windows 10,Chrome 137.0.0.0,2048x1152,2048x1026,Temporal Distance Task,cb_03,84.0,temp_dist_trial,num_items,zn7si1,1.0,response,1_ITEM,1210.3000000953614,1201.1000000000058,1210.3000000953614,1210.3000000953614,1201.1000000000058,1210.3000000953614,1.0,0.0,0.0,,Click Response,1_count,3.0,object-46,temp_dist_trial,36.0,t_m_12_1,travel_Miami,foldable pail and shovel,3.0,unique,paired,t_m_12_1.jpg,Travel,,,sub-32
Desktop or Laptop,Windows 10,Chrome 137.0.0.0,2048x1152,2048x1026,Temporal Distance Task,cb_03,85.0,temp_dist_trial,num_items,zn7si1,1.0,response,1_ITEM,1059.5000002860907,1051.0,1059.5000002860907,1059.5000002860907,1051.0,1059.5000002860907,1.0,0.0,0.0,,Click Response,1_count,3.0,object-46,temp_dist_trial,37.0,t_i_10_1,travel_Iceland,trekking poles,3.0,unique,single,t_i_10_1.jpg,Travel,,,sub-32
Desktop or Laptop,Windows 10,Chrome 137.0.0.0,2048x1152,2048x1026,Temporal Distance Task,cb_03,86.0,temp_dist_trial,num_items,zn7si1,1.0,response,2_ITEM,1074.300000286108,1067.6000000000058,1074.300000286108,1074.300000286108,1067.6000000000058,1074.300000286108,1.0,0.0,0.0,,Click Response,2_count,5.0,object-49,temp_dist_trial,38.0,t_s_10_1,travel_shared,luggage lock,3.0,competing,paired,t_s_10_1.jpg,Travel,,,sub-32
Desktop or Laptop,Windows 10,Chrome 137.0.0.0,2048x1152,2048x1026,Temporal Distance Task,cb_03,86.0,temp_dist_trial,dist_items,qkpkxw,2.0,info,,3.3999999999941792,0.0,3.3999999999941792,3.3999999999941792,0.0,3.3999999999941792,1.0,0.0,0.0,,Slider,Slider,4.0,object-56,temp_dist_trial,38.0,t_s_10_1,travel_shared,luggage lock,3.0,competing,paired,t_s_10_1.jpg,Travel,,,sub-32
Desktop or Laptop,Windows 10,Chrome 137.0.0.0,2048x1152,2048x1026,Temporal Distance Task,cb_03,86.0,temp_dist_trial,dist_items,qkpkxw,2.0,continue,,2110.3000000953616,2101.8999999999937,2110.3000000953616,2110.3000000953616,2101.8999999999937,2110.3000000953616,1.0,0.0,0.0,,Click To Continue,Next button,7.0,object-60,temp_dist_trial,38.0,t_s_10_1,travel_shared,luggage lock,3.0,competing,paired,t_s_10_1.jpg,Travel,,,sub-32
Desktop or Laptop,Windows 10,Chrome 137.0.0.0,2048x1152,2048x1026,Temporal Distance Task,cb_03,86.0,temp_dist_trial,dist_items,qkpkxw,2.0,response,73,867.5,2101.8999999999937,2110.6000002860965,867.5,2101.8999999999937,2110.6000002860965,1.0,1243.1000002860965,0.0,,Slider,Slider,4.0,object-56,temp_dist_trial,38.0,t_s_10_1,travel_shared,luggage lock,3.0,competing,paired,t_s_10_1.jpg,Travel,,,sub-32
Desktop or Laptop,Windows 10,Chrome 137.0.0.0,2048x1152,2048x1026,Temporal Distance Task,cb_03,87.0,temp_dist_trial,num_items,zn7si1,1.0,response,2_ITEM,1128.6000003814695,1117.6000000000058,1128.6000003814695,1128.6000003814695,1117.6000000000058,1128.6000003814695,1.0,0.0,0.0,,Click Response,2_count,5.0,object-49,temp_dist_trial,39.0,t_i_02_1,travel_Iceland,scarf,3.0,unique,paired,t_i_02_1.jpg,Travel,,,sub-32
Desktop or Laptop,Windows 10,Chrome 137.0.0.0,2048x1152,2048x1026,Temporal Distance Task,cb_03,87.0,temp_dist_trial,dist_items,qkpkxw,2.0,info,,3.1000001907232217,0.0,3.1000001907232217,3.1000001907232217,0.0,3.1000001907232217,1.0,0.0,0.0,,Slider,Slider,4.0,object-56,temp_dist_trial,39.0,t_i_02_1,travel_Iceland,scarf,3.0,unique,paired,t_i_02_1.jpg,Travel,,,sub-32
Desktop or Laptop,Windows 10,Chrome 137.0.0.0,2048x1152,2048x1026,Temporal Distance Task,cb_03,87.0,temp_dist_trial,dist_items,qkpkxw,2.0,continue,,1592.6000001907232,1584.7999999999884,1592.6000001907232,1592.6000001907232,1584.7999999999884,1592.6000001907232,1.0,0.0,0.0,,Click To Continue,Next button,7.0,object-60,temp_dist_trial,39.0,t_i_02_1,travel_Iceland,scarf,3.0,unique,paired,t_i_02_1.jpg,Travel,,,sub-32
Desktop or Laptop,Windows 10,Chrome 137.0.0.0,2048x1152,2048x1026,Temporal Distance Task,cb_03,87.0,temp_dist_trial,dist_items,qkpkxw,2.0,response,45,700.6999999999823,1584.7999999999884,1601.5,700.6999999999823,1584.7999999999884,1601.5,1.0,900.8000000000177,0.0,,Slider,Slider,4.0,object-56,temp_dist_trial,39.0,t_i_02_1,travel_Iceland,scarf,3.0,unique,paired,t_i_02_1.jpg,Travel,,,sub-32
Desktop or Laptop,Windows 10,Chrome 137.0.0.0,2048x1152,2048x1026,Temporal Distance Task,cb_03,88.0,temp_dist_trial,num_items,zn7si1,1.0,response,1_ITEM,1016.5,1000.7999999999884,1016.5,1016.5,1000.7999999999884,1016.5,1.0,0.0,0.0,,Click Response,1_count,3.0,object-46,temp_dist_trial,40.0,t_i_07_1,travel_Iceland,hiking backpack,3.0,unique,paired,t_i_07_1.jpg,Travel,,,sub-32
Desktop or Laptop,Windows 10,Chrome 137.0.0.0,2048x1152,2048x1026,Temporal Distance Task,cb_03,89.0,temp_dist_trial,num_items,zn7si1,1.0,response,1_ITEM,1253.2000002861025,1251.1000000000058,1253.2000002861025,1253.2000002861025,1251.1000000000058,1253.2000002861025,1.0,0.0,0.0,,Click Response,1_count,3.0,object-46,temp_dist_trial,41.0,t_i_05_1,travel_Iceland,hiking boots,3.0,unique,paired,t_i_05_1.jpg,Travel,,,sub-32
Desktop or Laptop,Windows 10,Chrome 137.0.0.0,2048x1152,2048x1026,Temporal Distance Task,cb_03,90.0,temp_dist_trial,num_items,zn7si1,1.0,response,1_ITEM,1125.900000381458,1117.7000000000116,1125.900000381458,1125.900000381458,1117.7000000000116,1125.900000381458,1.0,0.0,0.0,,Click Response,1_count,3.0,object-46,temp_dist_trial,42.0,t_s_18_1,travel_shared,first aid kit,3.0,competing,single,t_s_18_1.jpg,Travel,,,sub-32
Desktop or Laptop,Windows 10,Chrome 137.0.0.0,2048x1152,2048x1026,Temporal Distance Task,cb_03,91.0,temp_dist_trial,num_items,zn7si1,1.0,response,2_ITEM,1292.2000002861025,1284.5,1292.2000002861025,1292.2000002861025,1284.5,1292.2000002861025,1.0,0.0,0.0,,Click Response,2_count,5.0,object-49,temp_dist_trial,43.0,t_s_12_1,travel_shared,clear toiletry bag,3.0,competing,paired,t_s_12_1.jpg,Travel,,,sub-32
Desktop or Laptop,Windows 10,Chrome 137.0.0.0,2048x1152,2048x1026,Temporal Distance Task,cb_03,91.0,temp_dist_trial,dist_items,qkpkxw,2.0,info,,3.3000000953907147,0.0,3.3000000953907147,3.3000000953907147,0.0,3.3000000953907147,1.0,0.0,0.0,,Slider,Slider,4.0,object-56,temp_dist_trial,43.0,t_s_12_1,travel_shared,clear toiletry bag,3.0,competing,paired,t_s_12_1.jpg,Travel,,,sub-32
Desktop or Laptop,Windows 10,Chrome 137.0.0.0,2048x1152,2048x1026,Temporal Distance Task,cb_03,91.0,temp_dist_trial,dist_items,qkpkxw,2.0,continue,,1444.8000000953907,1434.7000000000116,1444.8000000953907,1444.8000000953907,1434.7000000000116,1444.8000000953907,1.0,0.0,0.0,,Click To Continue,Next button,7.0,object-60,temp_dist_trial,43.0,t_s_12_1,travel_shared,clear toiletry bag,3.0,competing,paired,t_s_12_1.jpg,Travel,,,sub-32
Desktop or Laptop,Windows 10,Chrome 137.0.0.0,2048x1152,2048x1026,Temporal Distance Task,cb_03,91.0,temp_dist_trial,dist_items,qkpkxw,2.0,response,29,450.60000000003487,1434.7000000000116,1445.1000002861256,450.60000000003487,1434.7000000000116,1445.1000002861256,1.0,994.5000002860907,0.0,,Slider,Slider,4.0,object-56,temp_dist_trial,43.0,t_s_12_1,travel_shared,clear toiletry bag,3.0,competing,paired,t_s_12_1.jpg,Travel,,,sub-32
Desktop or Laptop,Windows 10,Chrome 137.0.0.0,2048x1152,2048x1026,Temporal Distance Task,cb_03,92.0,temp_dist_trial,num_items,zn7si1,1.0,response,1_ITEM,1364.8000003814814,1351.100000000035,1364.8000003814814,1364.8000003814814,1351.100000000035,1364.8000003814814,1.0,0.0,0.0,,Click Response,1_count,3.0,object-46,temp_dist_trial,44.0,t_s_09_1,travel_shared,wallet,3.0,competing,paired,t_s_09_1.jpg,Travel,,,sub-32
Desktop or Laptop,Windows 10,Chrome 137.0.0.0,2048x1152,2048x1026,Temporal Distance Task,cb_03,93.0,temp_dist_trial,num_items,zn7si1,1.0,response,1_ITEM,1090.0,1084.2999999999884,1090.0,1090.0,1084.2999999999884,1090.0,1.0,0.0,0.0,,Click Response,1_count,3.0,object-46,temp_dist_trial,45.0,t_i_08_1,travel_Iceland,thick socks,3.0,unique,single,t_i_08_1.jpg,Travel,,,sub-32
Desktop or Laptop,Windows 10,Chrome 137.0.0.0,2048x1152,2048x1026,Temporal Distance Task,cb_03,94.0,temp_dist_trial,num_items,zn7si1,1.0,response,1_ITEM,1589.2000002861025,1584.7999999999884,1589.2000002861025,1589.2000002861025,1584.7999999999884,1589.2000002861025,1.0,0.0,0.0,,Click Response,1_count,3.0,object-46,temp_dist_trial,46.0,t_m_02_1,travel_Miami,t-shirt,3.0,unique,paired,t_m_02_1.jpg,Travel,,,sub-32
Desktop or Laptop,Windows 10,Chrome 137.0.0.0,2048x1152,2048x1026,Temporal Distance Task,cb_03,95.0,temp_dist_trial,num_items,zn7si1,1.0,response,2_ITEM,1664.9000001907114,1651.3999999999646,1664.9000001907114,1664.9000001907114,1651.3999999999646,1664.9000001907114,1.0,0.0,0.0,,Click Response,2_count,5.0,object-49,temp_dist_trial,47.0,t_s_02_1,travel_shared,water bottle,3.0,competing,paired,t_s_02_1.jpg,Travel,,,sub-32
Desktop or Laptop,Windows 10,Chrome 137.0.0.0,2048x1152,2048x1026,Temporal Distance Task,cb_03,95.0,temp_dist_trial,dist_items,qkpkxw,2.0,info,,3.2000003814464435,0.0,3.2000003814464435,3.2000003814464435,0.0,3.2000003814464435,1.0,0.0,0.0,,Slider,Slider,4.0,object-56,temp_dist_trial,47.0,t_s_02_1,travel_shared,water bottle,3.0,competing,paired,t_s_02_1.jpg,Travel,,,sub-32
Desktop or Laptop,Windows 10,Chrome 137.0.0.0,2048x1152,2048x1026,Temporal Distance Task,cb_03,95.0,temp_dist_trial,dist_items,qkpkxw,2.0,continue,,1558.0999999999767,1551.3999999999646,1558.0999999999767,1558.0999999999767,1551.3999999999646,1558.0999999999767,1.0,0.0,0.0,,Click To Continue,Next button,7.0,object-60,temp_dist_trial,47.0,t_s_02_1,travel_shared,water bottle,3.0,competing,paired,t_s_02_1.jpg,Travel,,,sub-32
