Participant Device,Participant OS,Participant Browser,Participant Monitor Size,Participant Viewport Size,Task Name,Current Spreadsheet,Trial Number,Display,Screen,Screen ID,Screen Counter,Response Type,Response,Onset Time,Clock Time,Reaction Time,Absolute Onset Time,Absolute Clock Time,Absolute Reaction Time,Correct,Response Duration,Proportion,Tag,Component Name,Object Name,Object Number,Object ID,Spreadsheet: display,Spreadsheet: trial,Spreadsheet: stimulus_id,Spreadsheet: expected_goal,Spreadsheet: stimulus_name,Spreadsheet: c_group,Spreadsheet: condition,Spreadsheet: paired_status,Spreadsheet: stimulus_path,Spreadsheet: block_type,Manipulation: Spreadsheet,Store: enc_test_acc,sub_label
Desktop or Laptop,Windows 10,Edge 138.0.0.0,1920x1080,1912x962,Temporal Distance Task,,,,,,,info,BEGIN,,,,,,,,,,,,,,,,,,,,,,,,,$${counterbalance_group},,sub-95
Desktop or Laptop,Windows 10,Edge 138.0.0.0,1920x1080,1912x962,Temporal Distance Task,cb_04,1.0,temp_instructions,intro_screen,3tnme7,1.0,continue,,11800.59999999963,11795.2,11800.59999999963,11800.59999999963,11795.2,11800.59999999963,1.0,0.0,0.0,,Click To Continue,Continue Button,4.0,object-29,temp_instructions,,,Travel,,,,,,,$${counterbalance_group},,sub-95
Desktop or Laptop,Windows 10,Edge 138.0.0.0,1920x1080,1912x962,Temporal Distance Task,cb_04,1.0,temp_instructions,intro_screen_2,52v7ur,2.0,continue,,12966.899999999629,12962.8,12966.899999999629,12966.899999999629,12962.8,12966.899999999629,1.0,0.0,0.0,,Click To Continue,Continue Button,4.0,object-39,temp_instructions,,,Travel,,,,,,,$${counterbalance_group},,sub-95
Desktop or Laptop,Windows 10,Edge 138.0.0.0,1920x1080,1912x962,Temporal Distance Task,cb_04,1.0,temp_instructions,intro_screen_3,i7lvwx,3.0,continue,,8034.299999999815,8024.699999999998,8034.299999999815,8034.299999999815,8024.699999999998,8034.299999999815,1.0,0.0,0.0,,Click To Continue,Continue Button,4.0,object-67,temp_instructions,,,Travel,,,,,,,$${counterbalance_group},,sub-95
Desktop or Laptop,Windows 10,Edge 138.0.0.0,1920x1080,1912x962,Temporal Distance Task,cb_04,1.0,temp_instructions,test_q1,5ieqx1,4.0,response,choice_3,4344.800000000003,4337.700000000004,4344.800000000003,4344.800000000003,4337.700000000004,4344.800000000003,1.0,0.0,0.0,,Click Response,choice_3,5.0,object-345,temp_instructions,,,Travel,,,,,,,$${counterbalance_group},,sub-95
Desktop or Laptop,Windows 10,Edge 138.0.0.0,1920x1080,1912x962,Temporal Distance Task,cb_04,1.0,temp_instructions,score_corr,7ilvjr,5.0,continue,,1235.699999999626,1234.5,1235.699999999626,1235.699999999626,1234.5,1235.699999999626,1.0,0.0,0.0,,Click To Continue,Continue Button,3.0,object-23,temp_instructions,,,Travel,,,,,,,$${counterbalance_group},,sub-95
Desktop or Laptop,Windows 10,Edge 138.0.0.0,1920x1080,1912x962,Temporal Distance Task,cb_04,1.0,temp_eventStart,Screen 1,dgtyxe,1.0,continue,,4415.199999999626,4404.5,4415.199999999626,4415.199999999626,4404.5,4415.199999999626,1.0,0.0,0.0,,Click To Continue,Next Button,3.0,object-43,temp_eventStart,,,Travel,,,,,,,$${counterbalance_group},,sub-95
Desktop or Laptop,Windows 10,Edge 138.0.0.0,1920x1080,1912x962,Temporal Distance Task,cb_04,1.0,temp_dist_trial,num_items,zn7si1,1.0,response,1_ITEM,1823.6999999996256,1818.5,1823.6999999996256,1823.6999999996256,1818.5,1823.6999999996256,1.0,0.0,0.0,,Click Response,1_count,3.0,object-46,temp_dist_trial,1.0,t_s_13_1,travel_shared,contact lens case,4.0,competing,single,t_s_13_1.jpg,Travel,$${counterbalance_group},,sub-95
Desktop or Laptop,Windows 10,Edge 138.0.0.0,1920x1080,1912x962,Temporal Distance Task,cb_04,2.0,temp_dist_trial,num_items,zn7si1,1.0,response,2_ITEM,1205.9999999996292,1201.2000000000044,1205.9999999996292,1205.9999999996292,1201.2000000000044,1205.9999999996292,1.0,0.0,0.0,,Click Response,2_count,5.0,object-49,temp_dist_trial,2.0,t_i_05_1,travel_Iceland,hiking boots,4.0,unique,paired,t_i_05_1.jpg,Travel,$${counterbalance_group},,sub-95
Desktop or Laptop,Windows 10,Edge 138.0.0.0,1920x1080,1912x962,Temporal Distance Task,cb_04,2.0,temp_dist_trial,dist_items,qkpkxw,2.0,info,,3.799999999719148,0.0,3.799999999719148,3.799999999719148,0.0,3.799999999719148,1.0,0.0,0.0,,Slider,Slider,4.0,object-56,temp_dist_trial,2.0,t_i_05_1,travel_Iceland,hiking boots,4.0,unique,paired,t_i_05_1.jpg,Travel,$${counterbalance_group},,sub-95
Desktop or Laptop,Windows 10,Edge 138.0.0.0,1920x1080,1912x962,Temporal Distance Task,cb_04,2.0,temp_dist_trial,dist_items,qkpkxw,2.0,continue,,3317.499999999905,3303.5,3317.499999999905,3317.499999999905,3303.5,3317.499999999905,1.0,0.0,0.0,,Click To Continue,Next button,7.0,object-60,temp_dist_trial,2.0,t_i_05_1,travel_Iceland,hiking boots,4.0,unique,paired,t_i_05_1.jpg,Travel,$${counterbalance_group},,sub-95
Desktop or Laptop,Windows 10,Edge 138.0.0.0,1920x1080,1912x962,Temporal Distance Task,cb_04,2.0,temp_dist_trial,dist_items,qkpkxw,2.0,response,59,1167.9000000000015,3303.5,3320.2000000000044,1167.9000000000015,3303.5,3320.2000000000044,1.0,2152.300000000003,0.0,,Slider,Slider,4.0,object-56,temp_dist_trial,2.0,t_i_05_1,travel_Iceland,hiking boots,4.0,unique,paired,t_i_05_1.jpg,Travel,$${counterbalance_group},,sub-95
Desktop or Laptop,Windows 10,Edge 138.0.0.0,1920x1080,1912x962,Temporal Distance Task,cb_04,3.0,temp_dist_trial,num_items,zn7si1,1.0,response,1_ITEM,981.4999999999054,967.5999999999983,981.4999999999054,981.4999999999054,967.5999999999983,981.4999999999054,1.0,0.0,0.0,,Click Response,1_count,3.0,object-46,temp_dist_trial,3.0,t_s_07_1,travel_shared,phone charger cable,4.0,competing,paired,t_s_07_1.jpg,Travel,$${counterbalance_group},,sub-95
Desktop or Laptop,Windows 10,Edge 138.0.0.0,1920x1080,1912x962,Temporal Distance Task,cb_04,4.0,temp_dist_trial,num_items,zn7si1,1.0,response,2_ITEM,1067.099999999722,1051.0999999999983,1067.099999999722,1067.099999999722,1051.0999999999983,1067.099999999722,1.0,0.0,0.0,,Click Response,2_count,5.0,object-49,temp_dist_trial,4.0,t_m_12_1,travel_Miami,foldable pail and shovel,4.0,unique,paired,t_m_12_1.jpg,Travel,$${counterbalance_group},,sub-95
Desktop or Laptop,Windows 10,Edge 138.0.0.0,1920x1080,1912x962,Temporal Distance Task,cb_04,4.0,temp_dist_trial,dist_items,qkpkxw,2.0,info,,3.099999999627471,0.0,3.099999999627471,3.099999999627471,0.0,3.099999999627471,1.0,0.0,0.0,,Slider,Slider,4.0,object-56,temp_dist_trial,4.0,t_m_12_1,travel_Miami,foldable pail and shovel,4.0,unique,paired,t_m_12_1.jpg,Travel,$${counterbalance_group},,sub-95
Desktop or Laptop,Windows 10,Edge 138.0.0.0,1920x1080,1912x962,Temporal Distance Task,cb_04,4.0,temp_dist_trial,dist_items,qkpkxw,2.0,continue,,3071.199999999721,3069.800000000003,3071.199999999721,3071.199999999721,3069.800000000003,3071.199999999721,1.0,0.0,0.0,,Click To Continue,Next button,7.0,object-60,temp_dist_trial,4.0,t_m_12_1,travel_Miami,foldable pail and shovel,4.0,unique,paired,t_m_12_1.jpg,Travel,$${counterbalance_group},,sub-95
Desktop or Laptop,Windows 10,Edge 138.0.0.0,1920x1080,1912x962,Temporal Distance Task,cb_04,4.0,temp_dist_trial,dist_items,qkpkxw,2.0,response,60,1184.5,3069.800000000003,3072.3999999999073,1184.5,3069.800000000003,3072.3999999999073,1.0,1887.8999999999066,0.0,,Slider,Slider,4.0,object-56,temp_dist_trial,4.0,t_m_12_1,travel_Miami,foldable pail and shovel,4.0,unique,paired,t_m_12_1.jpg,Travel,$${counterbalance_group},,sub-95
Desktop or Laptop,Windows 10,Edge 138.0.0.0,1920x1080,1912x962,Temporal Distance Task,cb_04,5.0,temp_dist_trial,num_items,zn7si1,1.0,response,1_ITEM,1317.3999999997175,1301.2999999999956,1317.3999999997175,1317.3999999997175,1301.2999999999956,1317.3999999997175,1.0,0.0,0.0,,Click Response,1_count,3.0,object-46,temp_dist_trial,5.0,t_s_04_1,travel_shared,instant camera,4.0,competing,single,t_s_04_1.jpg,Travel,$${counterbalance_group},,sub-95
Desktop or Laptop,Windows 10,Edge 138.0.0.0,1920x1080,1912x962,Temporal Distance Task,cb_04,6.0,temp_dist_trial,num_items,zn7si1,1.0,response,2_ITEM,1075.3000000000031,1067.9000000000017,1075.3000000000031,1075.3000000000031,1067.9000000000017,1075.3000000000031,1.0,0.0,0.0,,Click Response,2_count,5.0,object-49,temp_dist_trial,6.0,t_s_12_1,travel_shared,clear toiletry bag,4.0,competing,paired,t_s_12_1.jpg,Travel,$${counterbalance_group},,sub-95
Desktop or Laptop,Windows 10,Edge 138.0.0.0,1920x1080,1912x962,Temporal Distance Task,cb_04,6.0,temp_dist_trial,dist_items,qkpkxw,2.0,info,,3.3000000000029104,0.0,3.3000000000029104,3.3000000000029104,0.0,3.3000000000029104,1.0,0.0,0.0,,Slider,Slider,4.0,object-56,temp_dist_trial,6.0,t_s_12_1,travel_shared,clear toiletry bag,4.0,competing,paired,t_s_12_1.jpg,Travel,$${counterbalance_group},,sub-95
Desktop or Laptop,Windows 10,Edge 138.0.0.0,1920x1080,1912x962,Temporal Distance Task,cb_04,6.0,temp_dist_trial,dist_items,qkpkxw,2.0,continue,,2827.9999999997235,2819.6000000000067,2827.9999999997235,2827.9999999997235,2819.6000000000067,2827.9999999997235,1.0,0.0,0.0,,Click To Continue,Next button,7.0,object-60,temp_dist_trial,6.0,t_s_12_1,travel_shared,clear toiletry bag,4.0,competing,paired,t_s_12_1.jpg,Travel,$${counterbalance_group},,sub-95
Desktop or Laptop,Windows 10,Edge 138.0.0.0,1920x1080,1912x962,Temporal Distance Task,cb_04,6.0,temp_dist_trial,dist_items,qkpkxw,2.0,response,33,1151.3000000000031,2819.6000000000067,2836.30000000001,1151.3000000000031,2819.6000000000067,2836.30000000001,1.0,1685.0000000000073,0.0,,Slider,Slider,4.0,object-56,temp_dist_trial,6.0,t_s_12_1,travel_shared,clear toiletry bag,4.0,competing,paired,t_s_12_1.jpg,Travel,$${counterbalance_group},,sub-95
Desktop or Laptop,Windows 10,Edge 138.0.0.0,1920x1080,1912x962,Temporal Distance Task,cb_04,7.0,temp_dist_trial,num_items,zn7si1,1.0,response,2_ITEM,1045.7999999996246,1034.3999999999942,1045.7999999996246,1045.7999999996246,1034.3999999999942,1045.7999999996246,1.0,0.0,0.0,,Click Response,2_count,5.0,object-49,temp_dist_trial,7.0,t_s_16_1,travel_shared,chapstick,4.0,competing,paired,t_s_16_1.jpg,Travel,$${counterbalance_group},,sub-95
Desktop or Laptop,Windows 10,Edge 138.0.0.0,1920x1080,1912x962,Temporal Distance Task,cb_04,7.0,temp_dist_trial,dist_items,qkpkxw,2.0,info,,2.999999999810825,0.0,2.999999999810825,2.999999999810825,0.0,2.999999999810825,1.0,0.0,0.0,,Slider,Slider,4.0,object-56,temp_dist_trial,7.0,t_s_16_1,travel_shared,chapstick,4.0,competing,paired,t_s_16_1.jpg,Travel,$${counterbalance_group},,sub-95
Desktop or Laptop,Windows 10,Edge 138.0.0.0,1920x1080,1912x962,Temporal Distance Task,cb_04,7.0,temp_dist_trial,dist_items,qkpkxw,2.0,continue,,2450.799999999625,2435.800000000003,2450.799999999625,2450.799999999625,2435.800000000003,2450.799999999625,1.0,0.0,0.0,,Click To Continue,Next button,7.0,object-60,temp_dist_trial,7.0,t_s_16_1,travel_shared,chapstick,4.0,competing,paired,t_s_16_1.jpg,Travel,$${counterbalance_group},,sub-95
Desktop or Laptop,Windows 10,Edge 138.0.0.0,1920x1080,1912x962,Temporal Distance Task,cb_04,7.0,temp_dist_trial,dist_items,qkpkxw,2.0,response,62,1368.1999999999969,2435.800000000003,2451.099999999904,1368.1999999999969,2435.800000000003,2451.099999999904,1.0,1082.8999999999069,0.0,,Slider,Slider,4.0,object-56,temp_dist_trial,7.0,t_s_16_1,travel_shared,chapstick,4.0,competing,paired,t_s_16_1.jpg,Travel,$${counterbalance_group},,sub-95
Desktop or Laptop,Windows 10,Edge 138.0.0.0,1920x1080,1912x962,Temporal Distance Task,cb_04,8.0,temp_dist_trial,num_items,zn7si1,1.0,response,2_ITEM,1093.3999999999942,1084.5,1093.3999999999942,1093.3999999999942,1084.5,1093.3999999999942,1.0,0.0,0.0,,Click Response,2_count,5.0,object-49,temp_dist_trial,8.0,t_s_21_1,travel_shared,umbrella,4.0,competing,paired,t_s_21_1.jpg,Travel,$${counterbalance_group},,sub-95
Desktop or Laptop,Windows 10,Edge 138.0.0.0,1920x1080,1912x962,Temporal Distance Task,cb_04,8.0,temp_dist_trial,dist_items,qkpkxw,2.0,info,,3.8000000000029104,0.0,3.8000000000029104,3.8000000000029104,0.0,3.8000000000029104,1.0,0.0,0.0,,Slider,Slider,4.0,object-56,temp_dist_trial,8.0,t_s_21_1,travel_shared,umbrella,4.0,competing,paired,t_s_21_1.jpg,Travel,$${counterbalance_group},,sub-95
Desktop or Laptop,Windows 10,Edge 138.0.0.0,1920x1080,1912x962,Temporal Distance Task,cb_04,8.0,temp_dist_trial,dist_items,qkpkxw,2.0,continue,,3316.1999999999102,3303.400000000009,3316.1999999999102,3316.1999999999102,3303.400000000009,3316.1999999999102,1.0,0.0,0.0,,Click To Continue,Next button,7.0,object-60,temp_dist_trial,8.0,t_s_21_1,travel_shared,umbrella,4.0,competing,paired,t_s_21_1.jpg,Travel,$${counterbalance_group},,sub-95
Desktop or Laptop,Windows 10,Edge 138.0.0.0,1920x1080,1912x962,Temporal Distance Task,cb_04,8.0,temp_dist_trial,dist_items,qkpkxw,2.0,response,55,1201.3000000000031,3303.400000000009,3317.6999999999102,1201.3000000000031,3303.400000000009,3317.6999999999102,1.0,2116.399999999907,0.0,,Slider,Slider,4.0,object-56,temp_dist_trial,8.0,t_s_21_1,travel_shared,umbrella,4.0,competing,paired,t_s_21_1.jpg,Travel,$${counterbalance_group},,sub-95
Desktop or Laptop,Windows 10,Edge 138.0.0.0,1920x1080,1912x962,Temporal Distance Task,cb_04,9.0,temp_dist_trial,num_items,zn7si1,1.0,response,2_ITEM,1087.4999999996217,1084.3999999999942,1087.4999999996217,1087.4999999996217,1084.3999999999942,1087.4999999996217,1.0,0.0,0.0,,Click Response,2_count,5.0,object-49,temp_dist_trial,9.0,t_s_03_1,travel_shared,portable charger,4.0,competing,paired,t_s_03_1.jpg,Travel,$${counterbalance_group},,sub-95
Desktop or Laptop,Windows 10,Edge 138.0.0.0,1920x1080,1912x962,Temporal Distance Task,cb_04,9.0,temp_dist_trial,dist_items,qkpkxw,2.0,info,,3.3999999996303814,0.0,3.3999999996303814,3.3999999996303814,0.0,3.3999999996303814,1.0,0.0,0.0,,Slider,Slider,4.0,object-56,temp_dist_trial,9.0,t_s_03_1,travel_shared,portable charger,4.0,competing,paired,t_s_03_1.jpg,Travel,$${counterbalance_group},,sub-95
Desktop or Laptop,Windows 10,Edge 138.0.0.0,1920x1080,1912x962,Temporal Distance Task,cb_04,9.0,temp_dist_trial,dist_items,qkpkxw,2.0,continue,,3717.800000000003,3703.800000000003,3717.800000000003,3717.800000000003,3703.800000000003,3717.800000000003,1.0,0.0,0.0,,Click To Continue,Next button,7.0,object-60,temp_dist_trial,9.0,t_s_03_1,travel_shared,portable charger,4.0,competing,paired,t_s_03_1.jpg,Travel,$${counterbalance_group},,sub-95
Desktop or Laptop,Windows 10,Edge 138.0.0.0,1920x1080,1912x962,Temporal Distance Task,cb_04,9.0,temp_dist_trial,dist_items,qkpkxw,2.0,response,39,951.1000000000058,3703.800000000003,3720.5,951.1000000000058,3703.800000000003,3720.5,1.0,2769.3999999999933,0.0,,Slider,Slider,4.0,object-56,temp_dist_trial,9.0,t_s_03_1,travel_shared,portable charger,4.0,competing,paired,t_s_03_1.jpg,Travel,$${counterbalance_group},,sub-95
Desktop or Laptop,Windows 10,Edge 138.0.0.0,1920x1080,1912x962,Temporal Distance Task,cb_04,10.0,temp_dist_trial,num_items,zn7si1,1.0,response,1_ITEM,1125.8999999994412,1117.8000000000031,1125.8999999994412,1125.8999999994412,1117.8000000000031,1125.8999999994412,1.0,0.0,0.0,,Click Response,1_count,3.0,object-46,temp_dist_trial,10.0,t_i_19_1,travel_Iceland,rope,4.0,unique,single,t_i_19_1.jpg,Travel,$${counterbalance_group},,sub-95
Desktop or Laptop,Windows 10,Edge 138.0.0.0,1920x1080,1912x962,Temporal Distance Task,cb_04,11.0,temp_dist_trial,num_items,zn7si1,1.0,response,1_ITEM,1295.8999999998196,1284.7000000000114,1295.8999999998196,1295.8999999998196,1284.7000000000114,1295.8999999998196,1.0,0.0,0.0,,Click Response,1_count,3.0,object-46,temp_dist_trial,11.0,t_s_15_1,travel_shared,luggage tag,4.0,competing,single,t_s_15_1.jpg,Travel,$${counterbalance_group},,sub-95
Desktop or Laptop,Windows 10,Edge 138.0.0.0,1920x1080,1912x962,Temporal Distance Task,cb_04,12.0,temp_dist_trial,num_items,zn7si1,1.0,response,1_ITEM,1032.6999999999969,1017.6999999999972,1032.6999999999969,1032.6999999999969,1017.6999999999972,1032.6999999999969,1.0,0.0,0.0,,Click Response,1_count,3.0,object-46,temp_dist_trial,12.0,t_i_07_1,travel_Iceland,hiking backpack,4.0,unique,paired,t_i_07_1.jpg,Travel,$${counterbalance_group},,sub-95
Desktop or Laptop,Windows 10,Edge 138.0.0.0,1920x1080,1912x962,Temporal Distance Task,cb_04,13.0,temp_dist_trial,num_items,zn7si1,1.0,response,2_ITEM,1038.0999999994383,1034.3999999999942,1038.0999999994383,1038.0999999994383,1034.3999999999942,1038.0999999994383,1.0,0.0,0.0,,Click Response,2_count,5.0,object-49,temp_dist_trial,13.0,t_s_11_1,travel_shared,eye mask,4.0,competing,paired,t_s_11_1.jpg,Travel,$${counterbalance_group},,sub-95
Desktop or Laptop,Windows 10,Edge 138.0.0.0,1920x1080,1912x962,Temporal Distance Task,cb_04,13.0,temp_dist_trial,dist_items,qkpkxw,2.0,info,,2.8000000001920853,0.0,2.8000000001920853,2.8000000001920853,0.0,2.8000000001920853,1.0,0.0,0.0,,Slider,Slider,4.0,object-56,temp_dist_trial,13.0,t_s_11_1,travel_shared,eye mask,4.0,competing,paired,t_s_11_1.jpg,Travel,$${counterbalance_group},,sub-95
Desktop or Laptop,Windows 10,Edge 138.0.0.0,1920x1080,1912x962,Temporal Distance Task,cb_04,13.0,temp_dist_trial,dist_items,qkpkxw,2.0,continue,,3540.1999999996333,3536.900000000009,3540.1999999996333,3540.1999999996333,3536.900000000009,3540.1999999996333,1.0,0.0,0.0,,Click To Continue,Next button,7.0,object-60,temp_dist_trial,13.0,t_s_11_1,travel_shared,eye mask,4.0,competing,paired,t_s_11_1.jpg,Travel,$${counterbalance_group},,sub-95
Desktop or Laptop,Windows 10,Edge 138.0.0.0,1920x1080,1912x962,Temporal Distance Task,cb_04,13.0,temp_dist_trial,dist_items,qkpkxw,2.0,response,64,1034.4000000000087,3536.900000000009,3541.499999999447,1034.4000000000087,3536.900000000009,3541.499999999447,1.0,2507.0999999994383,0.0,,Slider,Slider,4.0,object-56,temp_dist_trial,13.0,t_s_11_1,travel_shared,eye mask,4.0,competing,paired,t_s_11_1.jpg,Travel,$${counterbalance_group},,sub-95
Desktop or Laptop,Windows 10,Edge 138.0.0.0,1920x1080,1912x962,Temporal Distance Task,cb_04,14.0,temp_dist_trial,num_items,zn7si1,1.0,response,1_ITEM,1266.9000000001836,1251.1999999999969,1266.9000000001836,1266.9000000001836,1251.1999999999969,1266.9000000001836,1.0,0.0,0.0,,Click Response,1_count,3.0,object-46,temp_dist_trial,14.0,t_m_19_1,travel_Miami,surfboard,4.0,unique,single,t_m_19_1.jpg,Travel,$${counterbalance_group},,sub-95
Desktop or Laptop,Windows 10,Edge 138.0.0.0,1920x1080,1912x962,Temporal Distance Task,cb_04,15.0,temp_dist_trial,num_items,zn7si1,1.0,response,1_ITEM,895.1999999994441,884.3000000000029,895.1999999994441,895.1999999994441,884.3000000000029,895.1999999994441,1.0,0.0,0.0,,Click Response,1_count,3.0,object-46,temp_dist_trial,15.0,t_m_16_1,travel_Miami,flippers,4.0,unique,single,t_m_16_1.jpg,Travel,$${counterbalance_group},,sub-95
Desktop or Laptop,Windows 10,Edge 138.0.0.0,1920x1080,1912x962,Temporal Distance Task,cb_04,16.0,temp_dist_trial,num_items,zn7si1,1.0,response,2_ITEM,894.9999999998108,884.1999999999971,894.9999999998108,894.9999999998108,884.1999999999971,894.9999999998108,1.0,0.0,0.0,,Click Response,2_count,5.0,object-49,temp_dist_trial,16.0,t_m_01_1,travel_Miami,sandals,4.0,unique,paired,t_m_01_1.jpg,Travel,$${counterbalance_group},,sub-95
Desktop or Laptop,Windows 10,Edge 138.0.0.0,1920x1080,1912x962,Temporal Distance Task,cb_04,16.0,temp_dist_trial,dist_items,qkpkxw,2.0,info,,2.6999999998079147,0.0,2.6999999998079147,2.6999999998079147,0.0,2.6999999998079147,1.0,0.0,0.0,,Slider,Slider,4.0,object-56,temp_dist_trial,16.0,t_m_01_1,travel_Miami,sandals,4.0,unique,paired,t_m_01_1.jpg,Travel,$${counterbalance_group},,sub-95
Desktop or Laptop,Windows 10,Edge 138.0.0.0,1920x1080,1912x962,Temporal Distance Task,cb_04,16.0,temp_dist_trial,dist_items,qkpkxw,2.0,continue,,2727.199999999808,2719.5,2727.199999999808,2727.199999999808,2719.5,2727.199999999808,1.0,0.0,0.0,,Click To Continue,Next button,7.0,object-60,temp_dist_trial,16.0,t_m_01_1,travel_Miami,sandals,4.0,unique,paired,t_m_01_1.jpg,Travel,$${counterbalance_group},,sub-95
Desktop or Laptop,Windows 10,Edge 138.0.0.0,1920x1080,1912x962,Temporal Distance Task,cb_04,16.0,temp_dist_trial,dist_items,qkpkxw,2.0,response,55,1618.5,2719.5,2727.4999999996217,1618.5,2719.5,2727.4999999996217,1.0,1108.9999999996217,0.0,,Slider,Slider,4.0,object-56,temp_dist_trial,16.0,t_m_01_1,travel_Miami,sandals,4.0,unique,paired,t_m_01_1.jpg,Travel,$${counterbalance_group},,sub-95
Desktop or Laptop,Windows 10,Edge 138.0.0.0,1920x1080,1912x962,Temporal Distance Task,cb_04,17.0,temp_dist_trial,num_items,zn7si1,1.0,response,2_ITEM,1404.3999999999942,1401.3999999999942,1404.3999999999942,1404.3999999999942,1401.3999999999942,1404.3999999999942,1.0,0.0,0.0,,Click Response,2_count,5.0,object-49,temp_dist_trial,17.0,t_s_22_1,travel_shared,belt,4.0,competing,paired,t_s_22_1.jpg,Travel,$${counterbalance_group},,sub-95
Desktop or Laptop,Windows 10,Edge 138.0.0.0,1920x1080,1912x962,Temporal Distance Task,cb_04,17.0,temp_dist_trial,dist_items,qkpkxw,2.0,info,,2.8000000000029104,0.0,2.8000000000029104,2.8000000000029104,0.0,2.8000000000029104,1.0,0.0,0.0,,Slider,Slider,4.0,object-56,temp_dist_trial,17.0,t_s_22_1,travel_shared,belt,4.0,competing,paired,t_s_22_1.jpg,Travel,$${counterbalance_group},,sub-95
Desktop or Laptop,Windows 10,Edge 138.0.0.0,1920x1080,1912x962,Temporal Distance Task,cb_04,17.0,temp_dist_trial,dist_items,qkpkxw,2.0,continue,,2369.1000000000204,2352.4000000000087,2369.1000000000204,2369.1000000000204,2352.4000000000087,2369.1000000000204,1.0,0.0,0.0,,Click To Continue,Next button,7.0,object-60,temp_dist_trial,17.0,t_s_22_1,travel_shared,belt,4.0,competing,paired,t_s_22_1.jpg,Travel,$${counterbalance_group},,sub-95
Desktop or Laptop,Windows 10,Edge 138.0.0.0,1920x1080,1912x962,Temporal Distance Task,cb_04,17.0,temp_dist_trial,dist_items,qkpkxw,2.0,response,61,1384.8000000000034,2352.4000000000087,2369.1000000000204,1384.8000000000034,2352.4000000000087,2369.1000000000204,1.0,984.3000000000177,0.0,,Slider,Slider,4.0,object-56,temp_dist_trial,17.0,t_s_22_1,travel_shared,belt,4.0,competing,paired,t_s_22_1.jpg,Travel,$${counterbalance_group},,sub-95
Desktop or Laptop,Windows 10,Edge 138.0.0.0,1920x1080,1912x962,Temporal Distance Task,cb_04,18.0,temp_dist_trial,num_items,zn7si1,1.0,response,1_ITEM,962.8999999999942,950.8999999999942,962.8999999999942,962.8999999999942,950.8999999999942,962.8999999999942,1.0,0.0,0.0,,Click Response,1_count,3.0,object-46,temp_dist_trial,18.0,t_s_24_1,travel_shared,ear plugs,4.0,competing,single,t_s_24_1.jpg,Travel,$${counterbalance_group},,sub-95
Desktop or Laptop,Windows 10,Edge 138.0.0.0,1920x1080,1912x962,Temporal Distance Task,cb_04,19.0,temp_dist_trial,num_items,zn7si1,1.0,response,1_ITEM,1125.199999999444,1117.9000000000087,1125.199999999444,1125.199999999444,1117.9000000000087,1125.199999999444,1.0,0.0,0.0,,Click Response,1_count,3.0,object-46,temp_dist_trial,19.0,t_i_08_1,travel_Iceland,thick socks,4.0,unique,single,t_i_08_1.jpg,Travel,$${counterbalance_group},,sub-95
Desktop or Laptop,Windows 10,Edge 138.0.0.0,1920x1080,1912x962,Temporal Distance Task,cb_04,20.0,temp_dist_trial,num_items,zn7si1,1.0,response,1_ITEM,729.4000000001834,717.3999999999942,729.4000000001834,729.4000000001834,717.3999999999942,729.4000000001834,1.0,0.0,0.0,,Click Response,1_count,3.0,object-46,temp_dist_trial,20.0,t_i_03_1,travel_Iceland,winter jacket,4.0,unique,paired,t_i_03_1.jpg,Travel,$${counterbalance_group},,sub-95
Desktop or Laptop,Windows 10,Edge 138.0.0.0,1920x1080,1912x962,Temporal Distance Task,cb_04,21.0,temp_dist_trial,num_items,zn7si1,1.0,response,2_ITEM,1242.4000000001836,1234.8000000000031,1242.4000000001836,1242.4000000001836,1234.8000000000031,1242.4000000001836,1.0,0.0,0.0,,Click Response,2_count,5.0,object-49,temp_dist_trial,21.0,t_s_09_1,travel_shared,wallet,4.0,competing,paired,t_s_09_1.jpg,Travel,$${counterbalance_group},,sub-95
Desktop or Laptop,Windows 10,Edge 138.0.0.0,1920x1080,1912x962,Temporal Distance Task,cb_04,21.0,temp_dist_trial,dist_items,qkpkxw,2.0,info,,2.8999999996303814,0.0,2.8999999996303814,2.8999999996303814,0.0,2.8999999996303814,1.0,0.0,0.0,,Slider,Slider,4.0,object-56,temp_dist_trial,21.0,t_s_09_1,travel_shared,wallet,4.0,competing,paired,t_s_09_1.jpg,Travel,$${counterbalance_group},,sub-95
Desktop or Laptop,Windows 10,Edge 138.0.0.0,1920x1080,1912x962,Temporal Distance Task,cb_04,21.0,temp_dist_trial,dist_items,qkpkxw,2.0,continue,,2612.8999999996304,2602.699999999997,2612.8999999996304,2612.8999999996304,2602.699999999997,2612.8999999996304,1.0,0.0,0.0,,Click To Continue,Next button,7.0,object-60,temp_dist_trial,21.0,t_s_09_1,travel_shared,wallet,4.0,competing,paired,t_s_09_1.jpg,Travel,$${counterbalance_group},,sub-95
Desktop or Laptop,Windows 10,Edge 138.0.0.0,1920x1080,1912x962,Temporal Distance Task,cb_04,21.0,temp_dist_trial,dist_items,qkpkxw,2.0,response,65,967.6999999999972,2602.699999999997,2614.0000000001887,967.6999999999972,2602.699999999997,2614.0000000001887,1.0,1646.3000000001919,0.0,,Slider,Slider,4.0,object-56,temp_dist_trial,21.0,t_s_09_1,travel_shared,wallet,4.0,competing,paired,t_s_09_1.jpg,Travel,$${counterbalance_group},,sub-95
Desktop or Laptop,Windows 10,Edge 138.0.0.0,1920x1080,1912x962,Temporal Distance Task,cb_04,22.0,temp_dist_trial,num_items,zn7si1,1.0,response,2_ITEM,1093.3000000001919,1084.4000000000087,1093.3000000001919,1093.3000000001919,1084.4000000000087,1093.3000000001919,1.0,0.0,0.0,,Click Response,2_count,5.0,object-49,temp_dist_trial,22.0,t_s_20_1,travel_shared,travel pill case,4.0,competing,paired,t_s_20_1.jpg,Travel,$${counterbalance_group},,sub-95
Desktop or Laptop,Windows 10,Edge 138.0.0.0,1920x1080,1912x962,Temporal Distance Task,cb_04,22.0,temp_dist_trial,dist_items,qkpkxw,2.0,info,,3.1000000000058208,0.0,3.1000000000058208,3.1000000000058208,0.0,3.1000000000058208,1.0,0.0,0.0,,Slider,Slider,4.0,object-56,temp_dist_trial,22.0,t_s_20_1,travel_shared,travel pill case,4.0,competing,paired,t_s_20_1.jpg,Travel,$${counterbalance_group},,sub-95
Desktop or Laptop,Windows 10,Edge 138.0.0.0,1920x1080,1912x962,Temporal Distance Task,cb_04,22.0,temp_dist_trial,dist_items,qkpkxw,2.0,continue,,2208.499999999447,2202.4000000000087,2208.499999999447,2208.499999999447,2202.4000000000087,2208.499999999447,1.0,0.0,0.0,,Click To Continue,Next button,7.0,object-60,temp_dist_trial,22.0,t_s_20_1,travel_shared,travel pill case,4.0,competing,paired,t_s_20_1.jpg,Travel,$${counterbalance_group},,sub-95
Desktop or Laptop,Windows 10,Edge 138.0.0.0,1920x1080,1912x962,Temporal Distance Task,cb_04,22.0,temp_dist_trial,dist_items,qkpkxw,2.0,response,73,1218.0,2202.4000000000087,2219.1000000000063,1218.0,2202.4000000000087,2219.1000000000063,1.0,1001.1000000000058,0.0,,Slider,Slider,4.0,object-56,temp_dist_trial,22.0,t_s_20_1,travel_shared,travel pill case,4.0,competing,paired,t_s_20_1.jpg,Travel,$${counterbalance_group},,sub-95
Desktop or Laptop,Windows 10,Edge 138.0.0.0,1920x1080,1912x962,Temporal Distance Task,cb_04,23.0,temp_dist_trial,num_items,zn7si1,1.0,response,2_ITEM,864.9999999998108,850.8000000000029,864.9999999998108,864.9999999998108,850.8000000000029,864.9999999998108,1.0,0.0,0.0,,Click Response,2_count,5.0,object-49,temp_dist_trial,23.0,t_s_08_1,travel_shared,hand lotion,4.0,competing,paired,t_s_08_1.jpg,Travel,$${counterbalance_group},,sub-95
Desktop or Laptop,Windows 10,Edge 138.0.0.0,1920x1080,1912x962,Temporal Distance Task,cb_04,23.0,temp_dist_trial,dist_items,qkpkxw,2.0,info,,2.499999999810825,0.0,2.499999999810825,2.499999999810825,0.0,2.499999999810825,1.0,0.0,0.0,,Slider,Slider,4.0,object-56,temp_dist_trial,23.0,t_s_08_1,travel_shared,hand lotion,4.0,competing,paired,t_s_08_1.jpg,Travel,$${counterbalance_group},,sub-95
Desktop or Laptop,Windows 10,Edge 138.0.0.0,1920x1080,1912x962,Temporal Distance Task,cb_04,23.0,temp_dist_trial,dist_items,qkpkxw,2.0,continue,,3016.2999999996255,3003.0999999999913,3016.2999999996255,3016.2999999996255,3003.0999999999913,3016.2999999996255,1.0,0.0,0.0,,Click To Continue,Next button,7.0,object-60,temp_dist_trial,23.0,t_s_08_1,travel_shared,hand lotion,4.0,competing,paired,t_s_08_1.jpg,Travel,$${counterbalance_group},,sub-95
Desktop or Laptop,Windows 10,Edge 138.0.0.0,1920x1080,1912x962,Temporal Distance Task,cb_04,23.0,temp_dist_trial,dist_items,qkpkxw,2.0,response,62,650.8000000000029,3003.0999999999913,3016.5999999994383,650.8000000000029,3003.0999999999913,3016.5999999994383,1.0,2365.7999999994354,0.0,,Slider,Slider,4.0,object-56,temp_dist_trial,23.0,t_s_08_1,travel_shared,hand lotion,4.0,competing,paired,t_s_08_1.jpg,Travel,$${counterbalance_group},,sub-95
Desktop or Laptop,Windows 10,Edge 138.0.0.0,1920x1080,1912x962,Temporal Distance Task,cb_04,24.0,temp_dist_trial,num_items,zn7si1,1.0,response,1_ITEM,1804.39999999982,1801.7000000000119,1804.39999999982,1804.39999999982,1801.7000000000119,1804.39999999982,1.0,0.0,0.0,,Click Response,1_count,3.0,object-46,temp_dist_trial,24.0,t_m_18_1,travel_Miami,waterproof tote,4.0,unique,single,t_m_18_1.jpg,Travel,$${counterbalance_group},,sub-95
Desktop or Laptop,Windows 10,Edge 138.0.0.0,1920x1080,1912x962,Temporal Distance Task,cb_04,25.0,temp_dist_trial,num_items,zn7si1,1.0,response,2_ITEM,1118.6999999996333,1117.8000000000031,1118.6999999996333,1118.6999999996333,1117.8000000000031,1118.6999999996333,1.0,0.0,0.0,,Click Response,2_count,5.0,object-49,temp_dist_trial,25.0,t_s_05_1,travel_shared,neck pillow,4.0,competing,paired,t_s_05_1.jpg,Travel,$${counterbalance_group},,sub-95
Desktop or Laptop,Windows 10,Edge 138.0.0.0,1920x1080,1912x962,Temporal Distance Task,cb_04,25.0,temp_dist_trial,dist_items,qkpkxw,2.0,info,,2.8000000001920853,0.0,2.8000000001920853,2.8000000001920853,0.0,2.8000000001920853,1.0,0.0,0.0,,Slider,Slider,4.0,object-56,temp_dist_trial,25.0,t_s_05_1,travel_shared,neck pillow,4.0,competing,paired,t_s_05_1.jpg,Travel,$${counterbalance_group},,sub-95
Desktop or Laptop,Windows 10,Edge 138.0.0.0,1920x1080,1912x962,Temporal Distance Task,cb_04,25.0,temp_dist_trial,dist_items,qkpkxw,2.0,continue,,1768.1999999996333,1751.8000000000034,1768.1999999996333,1768.1999999996333,1751.8000000000034,1768.1999999996333,1.0,0.0,0.0,,Click To Continue,Next button,7.0,object-60,temp_dist_trial,25.0,t_s_05_1,travel_shared,neck pillow,4.0,competing,paired,t_s_05_1.jpg,Travel,$${counterbalance_group},,sub-95
Desktop or Laptop,Windows 10,Edge 138.0.0.0,1920x1080,1912x962,Temporal Distance Task,cb_04,25.0,temp_dist_trial,dist_items,qkpkxw,2.0,response,58,784.2000000000116,1751.8000000000034,1768.5,784.2000000000116,1751.8000000000034,1768.5,1.0,984.2999999999884,0.0,,Slider,Slider,4.0,object-56,temp_dist_trial,25.0,t_s_05_1,travel_shared,neck pillow,4.0,competing,paired,t_s_05_1.jpg,Travel,$${counterbalance_group},,sub-95
Desktop or Laptop,Windows 10,Edge 138.0.0.0,1920x1080,1912x962,Temporal Distance Task,cb_04,26.0,temp_dist_trial,num_items,zn7si1,1.0,response,1_ITEM,800.3000000000029,784.1000000000058,800.3000000000029,800.3000000000029,784.1000000000058,800.3000000000029,1.0,0.0,0.0,,Click Response,1_count,3.0,object-46,temp_dist_trial,26.0,t_s_23_1,travel_shared,ball cap,4.0,competing,single,t_s_23_1.jpg,Travel,$${counterbalance_group},,sub-95
Desktop or Laptop,Windows 10,Edge 138.0.0.0,1920x1080,1912x962,Temporal Distance Task,cb_04,27.0,temp_dist_trial,num_items,zn7si1,1.0,response,1_ITEM,736.7999999998137,734.1000000000058,736.7999999998137,736.7999999998137,734.1000000000058,736.7999999998137,1.0,0.0,0.0,,Click Response,1_count,3.0,object-46,temp_dist_trial,27.0,t_i_20_1,travel_Iceland,lantern,4.0,unique,single,t_i_20_1.jpg,Travel,$${counterbalance_group},,sub-95
Desktop or Laptop,Windows 10,Edge 138.0.0.0,1920x1080,1912x962,Temporal Distance Task,cb_04,28.0,temp_dist_trial,num_items,zn7si1,1.0,response,2_ITEM,1153.1999999999969,1151.0999999999913,1153.1999999999969,1153.1999999999969,1151.0999999999913,1153.1999999999969,1.0,0.0,0.0,,Click Response,2_count,5.0,object-49,temp_dist_trial,28.0,t_i_02_1,travel_Iceland,scarf,4.0,unique,paired,t_i_02_1.jpg,Travel,$${counterbalance_group},,sub-95
Desktop or Laptop,Windows 10,Edge 138.0.0.0,1920x1080,1912x962,Temporal Distance Task,cb_04,28.0,temp_dist_trial,dist_items,qkpkxw,2.0,info,,2.500000000189175,0.0,2.500000000189175,2.500000000189175,0.0,2.500000000189175,1.0,0.0,0.0,,Slider,Slider,4.0,object-56,temp_dist_trial,28.0,t_i_02_1,travel_Iceland,scarf,4.0,unique,paired,t_i_02_1.jpg,Travel,$${counterbalance_group},,sub-95
Desktop or Laptop,Windows 10,Edge 138.0.0.0,1920x1080,1912x962,Temporal Distance Task,cb_04,28.0,temp_dist_trial,dist_items,qkpkxw,2.0,continue,,2145.099999999817,2135.5,2145.099999999817,2145.099999999817,2135.5,2145.099999999817,1.0,0.0,0.0,,Click To Continue,Next button,7.0,object-60,temp_dist_trial,28.0,t_i_02_1,travel_Iceland,scarf,4.0,unique,paired,t_i_02_1.jpg,Travel,$${counterbalance_group},,sub-95
Desktop or Laptop,Windows 10,Edge 138.0.0.0,1920x1080,1912x962,Temporal Distance Task,cb_04,28.0,temp_dist_trial,dist_items,qkpkxw,2.0,response,63,1051.1999999999969,2135.5,2145.300000000003,1051.1999999999969,2135.5,2145.300000000003,1.0,1094.1000000000058,0.0,,Slider,Slider,4.0,object-56,temp_dist_trial,28.0,t_i_02_1,travel_Iceland,scarf,4.0,unique,paired,t_i_02_1.jpg,Travel,$${counterbalance_group},,sub-95
Desktop or Laptop,Windows 10,Edge 138.0.0.0,1920x1080,1912x962,Temporal Distance Task,cb_04,29.0,temp_dist_trial,num_items,zn7si1,1.0,response,1_ITEM,1481.0000000001892,1468.1999999999966,1481.0000000001892,1481.0000000001892,1468.1999999999966,1481.0000000001892,1.0,0.0,0.0,,Click Response,1_count,3.0,object-46,temp_dist_trial,29.0,t_s_10_1,travel_shared,luggage lock,4.0,competing,single,t_s_10_1.jpg,Travel,$${counterbalance_group},,sub-95
Desktop or Laptop,Windows 10,Edge 138.0.0.0,1920x1080,1912x962,Temporal Distance Task,cb_04,30.0,temp_dist_trial,num_items,zn7si1,1.0,response,1_ITEM,2133.2000000001863,2118.8999999999937,2133.2000000001863,2133.2000000001863,2118.8999999999937,2133.2000000001863,1.0,0.0,0.0,,Click Response,1_count,3.0,object-46,temp_dist_trial,30.0,t_m_10_1,travel_Miami,tanktop,4.0,unique,paired,t_m_10_1.jpg,Travel,$${counterbalance_group},,sub-95
Desktop or Laptop,Windows 10,Edge 138.0.0.0,1920x1080,1912x962,Temporal Distance Task,cb_04,31.0,temp_dist_trial,num_items,zn7si1,1.0,response,2_ITEM,1487.2999999994354,1484.8999999999942,1487.2999999994354,1487.2999999994354,1484.8999999999942,1487.2999999994354,1.0,0.0,0.0,,Click Response,2_count,5.0,object-49,temp_dist_trial,31.0,t_i_13_1,travel_Iceland,sleeping bag,4.0,unique,paired,t_i_13_1.jpg,Travel,$${counterbalance_group},,sub-95
Desktop or Laptop,Windows 10,Edge 138.0.0.0,1920x1080,1912x962,Temporal Distance Task,cb_04,31.0,temp_dist_trial,dist_items,qkpkxw,2.0,info,,2.500000000189175,0.0,2.500000000189175,2.500000000189175,0.0,2.500000000189175,1.0,0.0,0.0,,Slider,Slider,4.0,object-56,temp_dist_trial,31.0,t_i_13_1,travel_Iceland,sleeping bag,4.0,unique,paired,t_i_13_1.jpg,Travel,$${counterbalance_group},,sub-95
Desktop or Laptop,Windows 10,Edge 138.0.0.0,1920x1080,1912x962,Temporal Distance Task,cb_04,31.0,temp_dist_trial,dist_items,qkpkxw,2.0,continue,,1978.5999999998169,1968.6999999999966,1978.5999999998169,1978.5999999998169,1968.6999999999966,1978.5999999998169,1.0,0.0,0.0,,Click To Continue,Next button,7.0,object-60,temp_dist_trial,31.0,t_i_13_1,travel_Iceland,sleeping bag,4.0,unique,paired,t_i_13_1.jpg,Travel,$${counterbalance_group},,sub-95
Desktop or Laptop,Windows 10,Edge 138.0.0.0,1920x1080,1912x962,Temporal Distance Task,cb_04,31.0,temp_dist_trial,dist_items,qkpkxw,2.0,response,56,917.6000000000058,1968.6999999999966,1979.3000000000034,917.6000000000058,1968.6999999999966,1979.3000000000034,1.0,1061.6999999999969,0.0,,Slider,Slider,4.0,object-56,temp_dist_trial,31.0,t_i_13_1,travel_Iceland,sleeping bag,4.0,unique,paired,t_i_13_1.jpg,Travel,$${counterbalance_group},,sub-95
Desktop or Laptop,Windows 10,Edge 138.0.0.0,1920x1080,1912x962,Temporal Distance Task,cb_04,32.0,temp_dist_trial,num_items,zn7si1,1.0,response,1_ITEM,1110.499999999447,1101.1000000000058,1110.499999999447,1110.499999999447,1101.1000000000058,1110.499999999447,1.0,0.0,0.0,,Click Response,1_count,3.0,object-46,temp_dist_trial,32.0,t_i_10_1,travel_Iceland,trekking poles,4.0,unique,single,t_i_10_1.jpg,Travel,$${counterbalance_group},,sub-95
Desktop or Laptop,Windows 10,Edge 138.0.0.0,1920x1080,1912x962,Temporal Distance Task,cb_04,33.0,temp_dist_trial,num_items,zn7si1,1.0,response,2_ITEM,1579.7999999994354,1568.3999999999942,1579.7999999994354,1579.7999999994354,1568.3999999999942,1579.7999999994354,1.0,0.0,0.0,,Click Response,2_count,5.0,object-49,temp_dist_trial,33.0,t_i_17_1,travel_Iceland,binoculars,4.0,unique,paired,t_i_17_1.jpg,Travel,$${counterbalance_group},,sub-95
Desktop or Laptop,Windows 10,Edge 138.0.0.0,1920x1080,1912x962,Temporal Distance Task,cb_04,33.0,temp_dist_trial,dist_items,qkpkxw,2.0,info,,3.099999999802093,0.0,3.099999999802093,3.099999999802093,0.0,3.099999999802093,1.0,0.0,0.0,,Slider,Slider,4.0,object-56,temp_dist_trial,33.0,t_i_17_1,travel_Iceland,binoculars,4.0,unique,paired,t_i_17_1.jpg,Travel,$${counterbalance_group},,sub-95
Desktop or Laptop,Windows 10,Edge 138.0.0.0,1920x1080,1912x962,Temporal Distance Task,cb_04,33.0,temp_dist_trial,dist_items,qkpkxw,2.0,continue,,2002.0,1985.2999999999884,2002.0,2002.0,1985.2999999999884,2002.0,1.0,0.0,0.0,,Click To Continue,Next button,7.0,object-60,temp_dist_trial,33.0,t_i_17_1,travel_Iceland,binoculars,4.0,unique,paired,t_i_17_1.jpg,Travel,$${counterbalance_group},,sub-95
Desktop or Laptop,Windows 10,Edge 138.0.0.0,1920x1080,1912x962,Temporal Distance Task,cb_04,33.0,temp_dist_trial,dist_items,qkpkxw,2.0,response,62,917.5999999999768,1985.2999999999884,2002.0,917.5999999999768,1985.2999999999884,2002.0,1.0,1084.4000000000233,0.0,,Slider,Slider,4.0,object-56,temp_dist_trial,33.0,t_i_17_1,travel_Iceland,binoculars,4.0,unique,paired,t_i_17_1.jpg,Travel,$${counterbalance_group},,sub-95
Desktop or Laptop,Windows 10,Edge 138.0.0.0,1920x1080,1912x962,Temporal Distance Task,cb_04,34.0,temp_dist_trial,num_items,zn7si1,1.0,response,1_ITEM,1071.5,1067.7000000000116,1071.5,1071.5,1067.7000000000116,1071.5,1.0,0.0,0.0,,Click Response,1_count,3.0,object-46,temp_dist_trial,34.0,t_s_18_1,travel_shared,first aid kit,4.0,competing,paired,t_s_18_1.jpg,Travel,$${counterbalance_group},,sub-95
Desktop or Laptop,Windows 10,Edge 138.0.0.0,1920x1080,1912x962,Temporal Distance Task,cb_04,35.0,temp_dist_trial,num_items,zn7si1,1.0,response,2_ITEM,1033.8000000001919,1017.8000000000177,1033.8000000001919,1033.8000000001919,1017.8000000000177,1033.8000000001919,1.0,0.0,0.0,,Click Response,2_count,5.0,object-49,temp_dist_trial,35.0,t_s_06_1,travel_shared,luggage,4.0,competing,paired,t_s_06_1.jpg,Travel,$${counterbalance_group},,sub-95
Desktop or Laptop,Windows 10,Edge 138.0.0.0,1920x1080,1912x962,Temporal Distance Task,cb_04,35.0,temp_dist_trial,dist_items,qkpkxw,2.0,info,,3.9000000001979065,0.0,3.9000000001979065,3.9000000001979065,0.0,3.9000000001979065,1.0,0.0,0.0,,Slider,Slider,4.0,object-56,temp_dist_trial,35.0,t_s_06_1,travel_shared,luggage,4.0,competing,paired,t_s_06_1.jpg,Travel,$${counterbalance_group},,sub-95
Desktop or Laptop,Windows 10,Edge 138.0.0.0,1920x1080,1912x962,Temporal Distance Task,cb_04,35.0,temp_dist_trial,dist_items,qkpkxw,2.0,continue,,1884.2999999996387,1868.7000000000119,1884.2999999996387,1884.2999999996387,1868.7000000000119,1884.2999999996387,1.0,0.0,0.0,,Click To Continue,Next button,7.0,object-60,temp_dist_trial,35.0,t_s_06_1,travel_shared,luggage,4.0,competing,paired,t_s_06_1.jpg,Travel,$${counterbalance_group},,sub-95
Desktop or Laptop,Windows 10,Edge 138.0.0.0,1920x1080,1912x962,Temporal Distance Task,cb_04,35.0,temp_dist_trial,dist_items,qkpkxw,2.0,response,63,917.7000000000116,1868.7000000000119,1885.4000000000235,917.7000000000116,1868.7000000000119,1885.4000000000235,1.0,967.7000000000116,0.0,,Slider,Slider,4.0,object-56,temp_dist_trial,35.0,t_s_06_1,travel_shared,luggage,4.0,competing,paired,t_s_06_1.jpg,Travel,$${counterbalance_group},,sub-95
Desktop or Laptop,Windows 10,Edge 138.0.0.0,1920x1080,1912x962,Temporal Distance Task,cb_04,36.0,temp_dist_trial,num_items,zn7si1,1.0,response,1_ITEM,2092.7999999998137,2085.3999999999937,2092.7999999998137,2092.7999999998137,2085.3999999999937,2092.7999999998137,1.0,0.0,0.0,,Click Response,1_count,3.0,object-46,temp_dist_trial,36.0,t_m_02_1,travel_Miami,t-shirt,4.0,unique,paired,t_m_02_1.jpg,Travel,$${counterbalance_group},,sub-95
Desktop or Laptop,Windows 10,Edge 138.0.0.0,1920x1080,1912x962,Temporal Distance Task,cb_04,37.0,temp_dist_trial,num_items,zn7si1,1.0,response,2_ITEM,1633.2000000001865,1618.2999999999884,1633.2000000001865,1633.2000000001865,1618.2999999999884,1633.2000000001865,1.0,0.0,0.0,,Click Response,2_count,5.0,object-49,temp_dist_trial,37.0,t_m_04_1,travel_Miami,UV jacket,4.0,unique,paired,t_m_04_1.jpg,Travel,$${counterbalance_group},,sub-95
Desktop or Laptop,Windows 10,Edge 138.0.0.0,1920x1080,1912x962,Temporal Distance Task,cb_04,37.0,temp_dist_trial,dist_items,qkpkxw,2.0,info,,2.599999999802094,0.0,2.599999999802094,2.599999999802094,0.0,2.599999999802094,1.0,0.0,0.0,,Slider,Slider,4.0,object-56,temp_dist_trial,37.0,t_m_04_1,travel_Miami,UV jacket,4.0,unique,paired,t_m_04_1.jpg,Travel,$${counterbalance_group},,sub-95
Desktop or Laptop,Windows 10,Edge 138.0.0.0,1920x1080,1912x962,Temporal Distance Task,cb_04,37.0,temp_dist_trial,dist_items,qkpkxw,2.0,continue,,1790.0999999998019,1785.0999999999767,1790.0999999998019,1790.0999999998019,1785.0999999999767,1790.0999999998019,1.0,0.0,0.0,,Click To Continue,Next button,7.0,object-60,temp_dist_trial,37.0,t_m_04_1,travel_Miami,UV jacket,4.0,unique,paired,t_m_04_1.jpg,Travel,$${counterbalance_group},,sub-95
Desktop or Laptop,Windows 10,Edge 138.0.0.0,1920x1080,1912x962,Temporal Distance Task,cb_04,37.0,temp_dist_trial,dist_items,qkpkxw,2.0,response,57,817.3999999999942,1785.0999999999767,1791.1999999994296,817.3999999999942,1785.0999999999767,1791.1999999994296,1.0,973.7999999994354,0.0,,Slider,Slider,4.0,object-56,temp_dist_trial,37.0,t_m_04_1,travel_Miami,UV jacket,4.0,unique,paired,t_m_04_1.jpg,Travel,$${counterbalance_group},,sub-95
Desktop or Laptop,Windows 10,Edge 138.0.0.0,1920x1080,1912x962,Temporal Distance Task,cb_04,38.0,temp_dist_trial,num_items,zn7si1,1.0,response,1_ITEM,1134.500000000029,1117.8000000000177,1134.500000000029,1134.500000000029,1117.8000000000177,1134.500000000029,1.0,0.0,0.0,,Click Response,1_count,3.0,object-46,temp_dist_trial,38.0,t_s_19_1,travel_shared,pajamas,4.0,competing,single,t_s_19_1.jpg,Travel,$${counterbalance_group},,sub-95
Desktop or Laptop,Windows 10,Edge 138.0.0.0,1920x1080,1912x962,Temporal Distance Task,cb_04,39.0,temp_dist_trial,num_items,zn7si1,1.0,response,2_ITEM,956.0000000001744,951.0999999999768,956.0000000001744,956.0000000001744,951.0999999999768,956.0000000001744,1.0,0.0,0.0,,Click Response,2_count,5.0,object-49,temp_dist_trial,39.0,t_s_02_1,travel_shared,water bottle,4.0,competing,paired,t_s_02_1.jpg,Travel,$${counterbalance_group},,sub-95
Desktop or Laptop,Windows 10,Edge 138.0.0.0,1920x1080,1912x962,Temporal Distance Task,cb_04,39.0,temp_dist_trial,dist_items,qkpkxw,2.0,info,,2.5999999996274705,0.0,2.5999999996274705,2.5999999996274705,0.0,2.5999999996274705,1.0,0.0,0.0,,Slider,Slider,4.0,object-56,temp_dist_trial,39.0,t_s_02_1,travel_shared,water bottle,4.0,competing,paired,t_s_02_1.jpg,Travel,$${counterbalance_group},,sub-95
Desktop or Laptop,Windows 10,Edge 138.0.0.0,1920x1080,1912x962,Temporal Distance Task,cb_04,39.0,temp_dist_trial,dist_items,qkpkxw,2.0,continue,,1827.2999999998133,1818.5,1827.2999999998133,1827.2999999998133,1818.5,1827.2999999998133,1.0,0.0,0.0,,Click To Continue,Next button,7.0,object-60,temp_dist_trial,39.0,t_s_02_1,travel_shared,water bottle,4.0,competing,paired,t_s_02_1.jpg,Travel,$${counterbalance_group},,sub-95
Desktop or Laptop,Windows 10,Edge 138.0.0.0,1920x1080,1912x962,Temporal Distance Task,cb_04,39.0,temp_dist_trial,dist_items,qkpkxw,2.0,response,62,634.0,1818.5,1835.2000000000119,634.0,1818.5,1835.2000000000119,1.0,1201.2000000000114,0.0,,Slider,Slider,4.0,object-56,temp_dist_trial,39.0,t_s_02_1,travel_shared,water bottle,4.0,competing,paired,t_s_02_1.jpg,Travel,$${counterbalance_group},,sub-95
Desktop or Laptop,Windows 10,Edge 138.0.0.0,1920x1080,1912x962,Temporal Distance Task,cb_04,40.0,temp_dist_trial,num_items,zn7si1,1.0,response,1_ITEM,2014.2999999998133,2002.0,2014.2999999998133,2014.2999999998133,2002.0,2014.2999999998133,1.0,0.0,0.0,,Click Response,1_count,3.0,object-46,temp_dist_trial,40.0,t_m_17_1,travel_Miami,water gun,4.0,unique,paired,t_m_17_1.jpg,Travel,$${counterbalance_group},,sub-95
Desktop or Laptop,Windows 10,Edge 138.0.0.0,1920x1080,1912x962,Temporal Distance Task,cb_04,41.0,temp_dist_trial,num_items,zn7si1,1.0,response,1_ITEM,1309.2999999994354,1301.5,1309.2999999994354,1309.2999999994354,1301.5,1309.2999999994354,1.0,0.0,0.0,,Click Response,1_count,3.0,object-46,temp_dist_trial,41.0,t_s_01_1,travel_shared,fanny pack,4.0,competing,single,t_s_01_1.jpg,Travel,$${counterbalance_group},,sub-95
Desktop or Laptop,Windows 10,Edge 138.0.0.0,1920x1080,1912x962,Temporal Distance Task,cb_04,42.0,temp_dist_trial,num_items,zn7si1,1.0,response,1_ITEM,1313.0999999998019,1301.3999999999942,1313.0999999998019,1313.0999999998019,1301.3999999999942,1313.0999999998019,1.0,0.0,0.0,,Click Response,1_count,3.0,object-46,temp_dist_trial,42.0,t_m_14_1,travel_Miami,swim goggles,4.0,unique,paired,t_m_14_1.jpg,Travel,$${counterbalance_group},,sub-95
Desktop or Laptop,Windows 10,Edge 138.0.0.0,1920x1080,1912x962,Temporal Distance Task,cb_04,43.0,temp_dist_trial,num_items,zn7si1,1.0,response,2_ITEM,974.4999999998256,967.7000000000116,974.4999999998256,974.4999999998256,967.7000000000116,974.4999999998256,1.0,0.0,0.0,,Click Response,2_count,5.0,object-49,temp_dist_trial,43.0,t_s_17_1,travel_shared,toothbrush,4.0,competing,paired,t_s_17_1.jpg,Travel,$${counterbalance_group},,sub-95
Desktop or Laptop,Windows 10,Edge 138.0.0.0,1920x1080,1912x962,Temporal Distance Task,cb_04,43.0,temp_dist_trial,dist_items,qkpkxw,2.0,info,,2.6999999998079147,0.0,2.6999999998079147,2.6999999998079147,0.0,2.6999999998079147,1.0,0.0,0.0,,Slider,Slider,4.0,object-56,temp_dist_trial,43.0,t_s_17_1,travel_shared,toothbrush,4.0,competing,paired,t_s_17_1.jpg,Travel,$${counterbalance_group},,sub-95
Desktop or Laptop,Windows 10,Edge 138.0.0.0,1920x1080,1912x962,Temporal Distance Task,cb_04,43.0,temp_dist_trial,dist_items,qkpkxw,2.0,continue,,2135.6000000000063,2118.8999999999937,2135.6000000000063,2135.6000000000063,2118.8999999999937,2135.6000000000063,1.0,0.0,0.0,,Click To Continue,Next button,7.0,object-60,temp_dist_trial,43.0,t_s_17_1,travel_shared,toothbrush,4.0,competing,paired,t_s_17_1.jpg,Travel,$${counterbalance_group},,sub-95
Desktop or Laptop,Windows 10,Edge 138.0.0.0,1920x1080,1912x962,Temporal Distance Task,cb_04,43.0,temp_dist_trial,dist_items,qkpkxw,2.0,response,65,984.5,2118.8999999999937,2135.6000000000063,984.5,2118.8999999999937,2135.6000000000063,1.0,1151.1000000000058,0.0,,Slider,Slider,4.0,object-56,temp_dist_trial,43.0,t_s_17_1,travel_shared,toothbrush,4.0,competing,paired,t_s_17_1.jpg,Travel,$${counterbalance_group},,sub-95
Desktop or Laptop,Windows 10,Edge 138.0.0.0,1920x1080,1912x962,Temporal Distance Task,cb_04,44.0,temp_dist_trial,num_items,zn7si1,1.0,response,2_ITEM,1468.2000000000116,1451.5,1468.2000000000116,1468.2000000000116,1451.5,1468.2000000000116,1.0,0.0,0.0,,Click Response,2_count,5.0,object-49,temp_dist_trial,44.0,t_m_20_1,travel_Miami,inflatable beachball,4.0,unique,paired,t_m_20_1.jpg,Travel,$${counterbalance_group},,sub-95
Desktop or Laptop,Windows 10,Edge 138.0.0.0,1920x1080,1912x962,Temporal Distance Task,cb_04,44.0,temp_dist_trial,dist_items,qkpkxw,2.0,info,,2.7999999999883585,0.0,2.7999999999883585,2.7999999999883585,0.0,2.7999999999883585,1.0,0.0,0.0,,Slider,Slider,4.0,object-56,temp_dist_trial,44.0,t_m_20_1,travel_Miami,inflatable beachball,4.0,unique,paired,t_m_20_1.jpg,Travel,$${counterbalance_group},,sub-95
Desktop or Laptop,Windows 10,Edge 138.0.0.0,1920x1080,1912x962,Temporal Distance Task,cb_04,44.0,temp_dist_trial,dist_items,qkpkxw,2.0,continue,,1830.5000000001746,1818.5,1830.5000000001746,1830.5000000001746,1818.5,1830.5000000001746,1.0,0.0,0.0,,Click To Continue,Next button,7.0,object-60,temp_dist_trial,44.0,t_m_20_1,travel_Miami,inflatable beachball,4.0,unique,paired,t_m_20_1.jpg,Travel,$${counterbalance_group},,sub-95
Desktop or Laptop,Windows 10,Edge 138.0.0.0,1920x1080,1912x962,Temporal Distance Task,cb_04,44.0,temp_dist_trial,dist_items,qkpkxw,2.0,response,64,800.7999999999884,1818.5,1831.1999999994296,800.7999999999884,1818.5,1831.1999999994296,1.0,1030.3999999994412,0.0,,Slider,Slider,4.0,object-56,temp_dist_trial,44.0,t_m_20_1,travel_Miami,inflatable beachball,4.0,unique,paired,t_m_20_1.jpg,Travel,$${counterbalance_group},,sub-95
Desktop or Laptop,Windows 10,Edge 138.0.0.0,1920x1080,1912x962,Temporal Distance Task,cb_04,45.0,temp_dist_trial,num_items,zn7si1,1.0,response,2_ITEM,990.7999999999884,984.2999999999884,990.7999999999884,990.7999999999884,984.2999999999884,990.7999999999884,1.0,0.0,0.0,,Click Response,2_count,5.0,object-49,temp_dist_trial,45.0,t_s_14_1,travel_shared,hand sanitizer,4.0,competing,paired,t_s_14_1.jpg,Travel,$${counterbalance_group},,sub-95
Desktop or Laptop,Windows 10,Edge 138.0.0.0,1920x1080,1912x962,Temporal Distance Task,cb_04,45.0,temp_dist_trial,dist_items,qkpkxw,2.0,info,,2.4999999996216498,0.0,2.4999999996216498,2.4999999996216498,0.0,2.4999999996216498,1.0,0.0,0.0,,Slider,Slider,4.0,object-56,temp_dist_trial,45.0,t_s_14_1,travel_shared,hand sanitizer,4.0,competing,paired,t_s_14_1.jpg,Travel,$${counterbalance_group},,sub-95
Desktop or Laptop,Windows 10,Edge 138.0.0.0,1920x1080,1912x962,Temporal Distance Task,cb_04,45.0,temp_dist_trial,dist_items,qkpkxw,2.0,continue,,2313.699999999808,2302.5,2313.699999999808,2313.699999999808,2302.5,2313.699999999808,1.0,0.0,0.0,,Click To Continue,Next button,7.0,object-60,temp_dist_trial,45.0,t_s_14_1,travel_shared,hand sanitizer,4.0,competing,paired,t_s_14_1.jpg,Travel,$${counterbalance_group},,sub-95
Desktop or Laptop,Windows 10,Edge 138.0.0.0,1920x1080,1912x962,Temporal Distance Task,cb_04,45.0,temp_dist_trial,dist_items,qkpkxw,2.0,response,67,750.8999999999942,2302.5,2314.1000000001804,750.8999999999942,2302.5,2314.1000000001804,1.0,1563.2000000001865,0.0,,Slider,Slider,4.0,object-56,temp_dist_trial,45.0,t_s_14_1,travel_shared,hand sanitizer,4.0,competing,paired,t_s_14_1.jpg,Travel,$${counterbalance_group},,sub-95
Desktop or Laptop,Windows 10,Edge 138.0.0.0,1920x1080,1912x962,Temporal Distance Task,cb_04,46.0,temp_dist_trial,num_items,zn7si1,1.0,response,1_ITEM,1192.2999999994354,1184.5,1192.2999999994354,1192.2999999994354,1184.5,1192.2999999994354,1.0,0.0,0.0,,Click Response,1_count,3.0,object-46,temp_dist_trial,46.0,t_m_15_1,travel_Miami,shorts,4.0,unique,single,t_m_15_1.jpg,Travel,$${counterbalance_group},,sub-95
Desktop or Laptop,Windows 10,Edge 138.0.0.0,1920x1080,1912x962,Temporal Distance Task,cb_04,47.0,temp_dist_trial,num_items,zn7si1,1.0,response,2_ITEM,1144.0999999994528,1134.5,1144.0999999994528,1144.0999999994528,1134.5,1144.0999999994528,1.0,0.0,0.0,,Click Response,2_count,5.0,object-49,temp_dist_trial,47.0,t_i_09_1,travel_Iceland,ear muffs,4.0,unique,paired,t_i_09_1.jpg,Travel,$${counterbalance_group},,sub-95
Desktop or Laptop,Windows 10,Edge 138.0.0.0,1920x1080,1912x962,Temporal Distance Task,cb_04,47.0,temp_dist_trial,dist_items,qkpkxw,2.0,info,,3.2999999998137355,0.0,3.2999999998137355,3.2999999998137355,0.0,3.2999999998137355,1.0,0.0,0.0,,Slider,Slider,4.0,object-56,temp_dist_trial,47.0,t_i_09_1,travel_Iceland,ear muffs,4.0,unique,paired,t_i_09_1.jpg,Travel,$${counterbalance_group},,sub-95
Desktop or Laptop,Windows 10,Edge 138.0.0.0,1920x1080,1912x962,Temporal Distance Task,cb_04,47.0,temp_dist_trial,dist_items,qkpkxw,2.0,continue,,2783.5999999996275,2769.5,2783.5999999996275,2783.5999999996275,2769.5,2783.5999999996275,1.0,0.0,0.0,,Click To Continue,Next button,7.0,object-60,temp_dist_trial,47.0,t_i_09_1,travel_Iceland,ear muffs,4.0,unique,paired,t_i_09_1.jpg,Travel,$${counterbalance_group},,sub-95
Desktop or Laptop,Windows 10,Edge 138.0.0.0,1920x1080,1912x962,Temporal Distance Task,cb_04,47.0,temp_dist_trial,dist_items,qkpkxw,2.0,response,65,917.6000000000058,2769.5,2786.2999999999884,917.6000000000058,2769.5,2786.2999999999884,1.0,1868.6999999999825,0.0,,Slider,Slider,4.0,object-56,temp_dist_trial,47.0,t_i_09_1,travel_Iceland,ear muffs,4.0,unique,paired,t_i_09_1.jpg,Travel,$${counterbalance_group},,sub-95
Desktop or Laptop,Windows 10,Edge 138.0.0.0,1920x1080,1912x962,Temporal Distance Task,cb_04,48.0,temp_dist_trial,num_items,zn7si1,1.0,response,2_ITEM,1325.5,1318.0,1325.5,1325.5,1318.0,1325.5,1.0,0.0,0.0,,Click Response,2_count,5.0,object-49,temp_dist_trial,48.0,t_i_15_1,travel_Iceland,compass,4.0,unique,paired,t_i_15_1.jpg,Travel,$${counterbalance_group},,sub-95
Desktop or Laptop,Windows 10,Edge 138.0.0.0,1920x1080,1912x962,Temporal Distance Task,cb_04,48.0,temp_dist_trial,dist_items,qkpkxw,2.0,info,,2.6000000001804437,0.0,2.6000000001804437,2.6000000001804437,0.0,2.6000000001804437,1.0,0.0,0.0,,Slider,Slider,4.0,object-56,temp_dist_trial,48.0,t_i_15_1,travel_Iceland,compass,4.0,unique,paired,t_i_15_1.jpg,Travel,$${counterbalance_group},,sub-95
Desktop or Laptop,Windows 10,Edge 138.0.0.0,1920x1080,1912x962,Temporal Distance Task,cb_04,48.0,temp_dist_trial,dist_items,qkpkxw,2.0,continue,,2106.4999999996217,2102.1999999999825,2106.4999999996217,2106.4999999996217,2102.1999999999825,2106.4999999996217,1.0,0.0,0.0,,Click To Continue,Next button,7.0,object-60,temp_dist_trial,48.0,t_i_15_1,travel_Iceland,compass,4.0,unique,paired,t_i_15_1.jpg,Travel,$${counterbalance_group},,sub-95
Desktop or Laptop,Windows 10,Edge 138.0.0.0,1920x1080,1912x962,Temporal Distance Task,cb_04,48.0,temp_dist_trial,dist_items,qkpkxw,2.0,response,61,1034.3999999999942,2102.1999999999825,2107.2999999994354,1034.3999999999942,2102.1999999999825,2107.2999999994354,1.0,1072.8999999994412,0.0,,Slider,Slider,4.0,object-56,temp_dist_trial,48.0,t_i_15_1,travel_Iceland,compass,4.0,unique,paired,t_i_15_1.jpg,Travel,$${counterbalance_group},,sub-95
Desktop or Laptop,Windows 10,Edge 138.0.0.0,1920x1080,1912x962,Temporal Distance Task,cb_04,2.0,temp_eventStart,Screen 1,dgtyxe,1.0,continue,,3526.400000000198,3520.200000000012,3526.400000000198,3526.400000000198,3520.200000000012,3526.400000000198,1.0,0.0,0.0,,Click To Continue,Next Button,3.0,object-43,temp_eventStart,,,Student,,,,,,,$${counterbalance_group},,sub-95
Desktop or Laptop,Windows 10,Edge 138.0.0.0,1920x1080,1912x962,Temporal Distance Task,cb_04,49.0,temp_dist_trial,num_items,zn7si1,1.0,response,2_ITEM,1188.3999999994412,1184.5,1188.3999999994412,1188.3999999994412,1184.5,1188.3999999994412,1.0,0.0,0.0,,Click Response,2_count,5.0,object-49,temp_dist_trial,1.0,s_a_08_1,student_art,sewing machine,4.0,unique,paired,s_a_08_1.jpg,Student,$${counterbalance_group},,sub-95
Desktop or Laptop,Windows 10,Edge 138.0.0.0,1920x1080,1912x962,Temporal Distance Task,cb_04,49.0,temp_dist_trial,dist_items,qkpkxw,2.0,info,,2.9999999996216498,0.0,2.9999999996216498,2.9999999996216498,0.0,2.9999999996216498,1.0,0.0,0.0,,Slider,Slider,4.0,object-56,temp_dist_trial,1.0,s_a_08_1,student_art,sewing machine,4.0,unique,paired,s_a_08_1.jpg,Student,$${counterbalance_group},,sub-95
Desktop or Laptop,Windows 10,Edge 138.0.0.0,1920x1080,1912x962,Temporal Distance Task,cb_04,49.0,temp_dist_trial,dist_items,qkpkxw,2.0,continue,,1989.7999999994354,1985.5,1989.7999999994354,1989.7999999994354,1985.5,1989.7999999994354,1.0,0.0,0.0,,Click To Continue,Next button,7.0,object-60,temp_dist_trial,1.0,s_a_08_1,student_art,sewing machine,4.0,unique,paired,s_a_08_1.jpg,Student,$${counterbalance_group},,sub-95
Desktop or Laptop,Windows 10,Edge 138.0.0.0,1920x1080,1912x962,Temporal Distance Task,cb_04,49.0,temp_dist_trial,dist_items,qkpkxw,2.0,response,61,801.0,1985.5,1992.7999999994354,801.0,1985.5,1992.7999999994354,1.0,1191.7999999994354,0.0,,Slider,Slider,4.0,object-56,temp_dist_trial,1.0,s_a_08_1,student_art,sewing machine,4.0,unique,paired,s_a_08_1.jpg,Student,$${counterbalance_group},,sub-95
Desktop or Laptop,Windows 10,Edge 138.0.0.0,1920x1080,1912x962,Temporal Distance Task,cb_04,50.0,temp_dist_trial,num_items,zn7si1,1.0,response,1_ITEM,1244.2999999994354,1234.5,1244.2999999994354,1244.2999999994354,1234.5,1244.2999999994354,1.0,0.0,0.0,,Click Response,1_count,3.0,object-46,temp_dist_trial,2.0,s_sh_10_1,student_shared,scissors,4.0,competing,paired,s_sh_10_1.jpg,Student,$${counterbalance_group},,sub-95
Desktop or Laptop,Windows 10,Edge 138.0.0.0,1920x1080,1912x962,Temporal Distance Task,cb_04,51.0,temp_dist_trial,num_items,zn7si1,1.0,response,1_ITEM,1230.1999999996333,1217.8999999999942,1230.1999999996333,1230.1999999996333,1217.8999999999942,1230.1999999996333,1.0,0.0,0.0,,Click Response,1_count,3.0,object-46,temp_dist_trial,3.0,s_a_16_1,student_art,piano,4.0,unique,single,s_a_16_1.jpg,Student,$${counterbalance_group},,sub-95
Desktop or Laptop,Windows 10,Edge 138.0.0.0,1920x1080,1912x962,Temporal Distance Task,cb_04,52.0,temp_dist_trial,num_items,zn7si1,1.0,response,1_ITEM,1348.1000000000058,1334.8000000000175,1348.1000000000058,1348.1000000000058,1334.8000000000175,1348.1000000000058,1.0,0.0,0.0,,Click Response,1_count,3.0,object-46,temp_dist_trial,4.0,s_a_02_1,student_art,canvas,4.0,unique,single,s_a_02_1.jpg,Student,$${counterbalance_group},,sub-95
Desktop or Laptop,Windows 10,Edge 138.0.0.0,1920x1080,1912x962,Temporal Distance Task,cb_04,53.0,temp_dist_trial,num_items,zn7si1,1.0,response,1_ITEM,1633.7000000001865,1618.2000000000116,1633.7000000001865,1633.7000000001865,1618.2000000000116,1633.7000000001865,1.0,0.0,0.0,,Click Response,1_count,3.0,object-46,temp_dist_trial,5.0,s_s_01_1,student_stem,microscope,4.0,unique,single,s_s_01_1.jpg,Student,$${counterbalance_group},,sub-95
Desktop or Laptop,Windows 10,Edge 138.0.0.0,1920x1080,1912x962,Temporal Distance Task,cb_04,54.0,temp_dist_trial,num_items,zn7si1,1.0,response,2_ITEM,1178.3999999994412,1167.7999999999886,1178.3999999994412,1178.3999999994412,1167.7999999999886,1178.3999999994412,1.0,0.0,0.0,,Click Response,2_count,5.0,object-49,temp_dist_trial,6.0,s_sh_19_1,student_shared,portable plastic drawer,4.0,competing,paired,s_sh_19_1.jpg,Student,$${counterbalance_group},,sub-95
Desktop or Laptop,Windows 10,Edge 138.0.0.0,1920x1080,1912x962,Temporal Distance Task,cb_04,54.0,temp_dist_trial,dist_items,qkpkxw,2.0,info,,2.6000000001804437,0.0,2.6000000001804437,2.6000000001804437,0.0,2.6000000001804437,1.0,0.0,0.0,,Slider,Slider,4.0,object-56,temp_dist_trial,6.0,s_sh_19_1,student_shared,portable plastic drawer,4.0,competing,paired,s_sh_19_1.jpg,Student,$${counterbalance_group},,sub-95
Desktop or Laptop,Windows 10,Edge 138.0.0.0,1920x1080,1912x962,Temporal Distance Task,cb_04,54.0,temp_dist_trial,dist_items,qkpkxw,2.0,continue,,1858.7999999994354,1851.7999999999884,1858.7999999994354,1858.7999999994354,1851.7999999999884,1858.7999999994354,1.0,0.0,0.0,,Click To Continue,Next button,7.0,object-60,temp_dist_trial,6.0,s_sh_19_1,student_shared,portable plastic drawer,4.0,competing,paired,s_sh_19_1.jpg,Student,$${counterbalance_group},,sub-95
Desktop or Laptop,Windows 10,Edge 138.0.0.0,1920x1080,1912x962,Temporal Distance Task,cb_04,54.0,temp_dist_trial,dist_items,qkpkxw,2.0,response,73,850.8999999999942,1851.7999999999884,1860.2999999994354,850.8999999999942,1851.7999999999884,1860.2999999994354,1.0,1009.3999999994412,0.0,,Slider,Slider,4.0,object-56,temp_dist_trial,6.0,s_sh_19_1,student_shared,portable plastic drawer,4.0,competing,paired,s_sh_19_1.jpg,Student,$${counterbalance_group},,sub-95
Desktop or Laptop,Windows 10,Edge 138.0.0.0,1920x1080,1912x962,Temporal Distance Task,cb_04,55.0,temp_dist_trial,num_items,zn7si1,1.0,response,1_ITEM,1147.6000000000058,1134.5,1147.6000000000058,1147.6000000000058,1134.5,1147.6000000000058,1.0,0.0,0.0,,Click Response,1_count,3.0,object-46,temp_dist_trial,7.0,s_sh_15_1,student_shared,usb drive,4.0,competing,paired,s_sh_15_1.jpg,Student,$${counterbalance_group},,sub-95
Desktop or Laptop,Windows 10,Edge 138.0.0.0,1920x1080,1912x962,Temporal Distance Task,cb_04,56.0,temp_dist_trial,num_items,zn7si1,1.0,response,2_ITEM,1012.2999999994354,1001.0,1012.2999999994354,1012.2999999994354,1001.0,1012.2999999994354,1.0,0.0,0.0,,Click Response,2_count,5.0,object-49,temp_dist_trial,8.0,s_sh_06_1,student_shared,clipboard,4.0,competing,paired,s_sh_06_1.jpg,Student,$${counterbalance_group},,sub-95
Desktop or Laptop,Windows 10,Edge 138.0.0.0,1920x1080,1912x962,Temporal Distance Task,cb_04,56.0,temp_dist_trial,dist_items,qkpkxw,2.0,info,,2.7999999996391125,0.0,2.7999999996391125,2.7999999996391125,0.0,2.7999999996391125,1.0,0.0,0.0,,Slider,Slider,4.0,object-56,temp_dist_trial,8.0,s_sh_06_1,student_shared,clipboard,4.0,competing,paired,s_sh_06_1.jpg,Student,$${counterbalance_group},,sub-95
Desktop or Laptop,Windows 10,Edge 138.0.0.0,1920x1080,1912x962,Temporal Distance Task,cb_04,56.0,temp_dist_trial,dist_items,qkpkxw,2.0,continue,,2073.400000000198,2068.8000000000175,2073.400000000198,2073.400000000198,2068.8000000000175,2073.400000000198,1.0,0.0,0.0,,Click To Continue,Next button,7.0,object-60,temp_dist_trial,8.0,s_sh_06_1,student_shared,clipboard,4.0,competing,paired,s_sh_06_1.jpg,Student,$${counterbalance_group},,sub-95
Desktop or Laptop,Windows 10,Edge 138.0.0.0,1920x1080,1912x962,Temporal Distance Task,cb_04,56.0,temp_dist_trial,dist_items,qkpkxw,2.0,response,66,1051.1000000000058,2068.8000000000175,2074.0999999994533,1051.1000000000058,2068.8000000000175,2074.0999999994533,1.0,1022.999999999447,0.0,,Slider,Slider,4.0,object-56,temp_dist_trial,8.0,s_sh_06_1,student_shared,clipboard,4.0,competing,paired,s_sh_06_1.jpg,Student,$${counterbalance_group},,sub-95
Desktop or Laptop,Windows 10,Edge 138.0.0.0,1920x1080,1912x962,Temporal Distance Task,cb_04,57.0,temp_dist_trial,num_items,zn7si1,1.0,response,2_ITEM,1082.4999999996217,1067.6999999999823,1082.4999999996217,1082.4999999996217,1067.6999999999823,1082.4999999996217,1.0,0.0,0.0,,Click Response,2_count,5.0,object-49,temp_dist_trial,9.0,s_sh_03_1,student_shared,highlighter,4.0,competing,paired,s_sh_03_1.jpg,Student,$${counterbalance_group},,sub-95
Desktop or Laptop,Windows 10,Edge 138.0.0.0,1920x1080,1912x962,Temporal Distance Task,cb_04,57.0,temp_dist_trial,dist_items,qkpkxw,2.0,info,,3.2000000001862645,0.0,3.2000000001862645,3.2000000001862645,0.0,3.2000000001862645,1.0,0.0,0.0,,Slider,Slider,4.0,object-56,temp_dist_trial,9.0,s_sh_03_1,student_shared,highlighter,4.0,competing,paired,s_sh_03_1.jpg,Student,$${counterbalance_group},,sub-95
Desktop or Laptop,Windows 10,Edge 138.0.0.0,1920x1080,1912x962,Temporal Distance Task,cb_04,57.0,temp_dist_trial,dist_items,qkpkxw,2.0,continue,,2214.5,2202.2999999999884,2214.5,2214.5,2202.2999999999884,2214.5,1.0,0.0,0.0,,Click To Continue,Next button,7.0,object-60,temp_dist_trial,9.0,s_sh_03_1,student_shared,highlighter,4.0,competing,paired,s_sh_03_1.jpg,Student,$${counterbalance_group},,sub-95
Desktop or Laptop,Windows 10,Edge 138.0.0.0,1920x1080,1912x962,Temporal Distance Task,cb_04,57.0,temp_dist_trial,dist_items,qkpkxw,2.0,response,67,901.0,2202.2999999999884,2215.5999999996275,901.0,2202.2999999999884,2215.5999999996275,1.0,1314.5999999996275,0.0,,Slider,Slider,4.0,object-56,temp_dist_trial,9.0,s_sh_03_1,student_shared,highlighter,4.0,competing,paired,s_sh_03_1.jpg,Student,$${counterbalance_group},,sub-95
Desktop or Laptop,Windows 10,Edge 138.0.0.0,1920x1080,1912x962,Temporal Distance Task,cb_04,58.0,temp_dist_trial,num_items,zn7si1,1.0,response,2_ITEM,1270.9999999998254,1268.0,1270.9999999998254,1270.9999999998254,1268.0,1270.9999999998254,1.0,0.0,0.0,,Click Response,2_count,5.0,object-49,temp_dist_trial,10.0,s_sh_02_1,student_shared,eraser,4.0,competing,paired,s_sh_02_1.jpg,Student,$${counterbalance_group},,sub-95
Desktop or Laptop,Windows 10,Edge 138.0.0.0,1920x1080,1912x962,Temporal Distance Task,cb_04,58.0,temp_dist_trial,dist_items,qkpkxw,2.0,info,,2.8999999994412065,0.0,2.8999999994412065,2.8999999994412065,0.0,2.8999999994412065,1.0,0.0,0.0,,Slider,Slider,4.0,object-56,temp_dist_trial,10.0,s_sh_02_1,student_shared,eraser,4.0,competing,paired,s_sh_02_1.jpg,Student,$${counterbalance_group},,sub-95
Desktop or Laptop,Windows 10,Edge 138.0.0.0,1920x1080,1912x962,Temporal Distance Task,cb_04,58.0,temp_dist_trial,dist_items,qkpkxw,2.0,continue,,1898.0,1885.2000000000119,1898.0,1898.0,1885.2000000000119,1898.0,1.0,0.0,0.0,,Click To Continue,Next button,7.0,object-60,temp_dist_trial,10.0,s_sh_02_1,student_shared,eraser,4.0,competing,paired,s_sh_02_1.jpg,Student,$${counterbalance_group},,sub-95
Desktop or Laptop,Windows 10,Edge 138.0.0.0,1920x1080,1912x962,Temporal Distance Task,cb_04,58.0,temp_dist_trial,dist_items,qkpkxw,2.0,response,66,767.3999999999942,1885.2000000000119,1901.2000000001865,767.3999999999942,1885.2000000000119,1901.2000000001865,1.0,1133.8000000001919,0.0,,Slider,Slider,4.0,object-56,temp_dist_trial,10.0,s_sh_02_1,student_shared,eraser,4.0,competing,paired,s_sh_02_1.jpg,Student,$${counterbalance_group},,sub-95
Desktop or Laptop,Windows 10,Edge 138.0.0.0,1920x1080,1912x962,Temporal Distance Task,cb_04,59.0,temp_dist_trial,num_items,zn7si1,1.0,response,2_ITEM,1130.6999999994296,1117.6999999999823,1130.6999999994296,1130.6999999994296,1117.6999999999823,1130.6999999994296,1.0,0.0,0.0,,Click Response,2_count,5.0,object-49,temp_dist_trial,11.0,s_sh_07_1,student_shared,ruler,4.0,competing,paired,s_sh_07_1.jpg,Student,$${counterbalance_group},,sub-95
Desktop or Laptop,Windows 10,Edge 138.0.0.0,1920x1080,1912x962,Temporal Distance Task,cb_04,59.0,temp_dist_trial,dist_items,qkpkxw,2.0,info,,6.500000000174622,0.0,6.500000000174622,6.500000000174622,0.0,6.500000000174622,1.0,0.0,0.0,,Slider,Slider,4.0,object-56,temp_dist_trial,11.0,s_sh_07_1,student_shared,ruler,4.0,competing,paired,s_sh_07_1.jpg,Student,$${counterbalance_group},,sub-95
Desktop or Laptop,Windows 10,Edge 138.0.0.0,1920x1080,1912x962,Temporal Distance Task,cb_04,59.0,temp_dist_trial,dist_items,qkpkxw,2.0,continue,,1699.5999999998019,1685.0999999999767,1699.5999999998019,1699.5999999998019,1685.0999999999767,1699.5999999998019,1.0,0.0,0.0,,Click To Continue,Next button,7.0,object-60,temp_dist_trial,11.0,s_sh_07_1,student_shared,ruler,4.0,competing,paired,s_sh_07_1.jpg,Student,$${counterbalance_group},,sub-95
Desktop or Laptop,Windows 10,Edge 138.0.0.0,1920x1080,1912x962,Temporal Distance Task,cb_04,59.0,temp_dist_trial,dist_items,qkpkxw,2.0,response,69,700.7999999999884,1685.0999999999767,1699.7999999999884,700.7999999999884,1685.0999999999767,1699.7999999999884,1.0,999.0,0.0,,Slider,Slider,4.0,object-56,temp_dist_trial,11.0,s_sh_07_1,student_shared,ruler,4.0,competing,paired,s_sh_07_1.jpg,Student,$${counterbalance_group},,sub-95
Desktop or Laptop,Windows 10,Edge 138.0.0.0,1920x1080,1912x962,Temporal Distance Task,cb_04,60.0,temp_dist_trial,num_items,zn7si1,1.0,response,1_ITEM,1525.7999999996387,1518.2000000000116,1525.7999999996387,1525.7999999996387,1518.2000000000116,1525.7999999996387,1.0,0.0,0.0,,Click Response,1_count,3.0,object-46,temp_dist_trial,12.0,s_sh_22_1,student_shared,hole puncher,4.0,competing,single,s_sh_22_1.jpg,Student,$${counterbalance_group},,sub-95
Desktop or Laptop,Windows 10,Edge 138.0.0.0,1920x1080,1912x962,Temporal Distance Task,cb_04,61.0,temp_dist_trial,num_items,zn7si1,1.0,response,1_ITEM,1816.5000000001746,1801.7999999999884,1816.5000000001746,1816.5000000001746,1801.7999999999884,1816.5000000001746,1.0,0.0,0.0,,Click Response,1_count,3.0,object-46,temp_dist_trial,13.0,s_s_03_1,student_stem,petri dish,4.0,unique,paired,s_s_03_1.jpg,Student,$${counterbalance_group},,sub-95
Desktop or Laptop,Windows 10,Edge 138.0.0.0,1920x1080,1912x962,Temporal Distance Task,cb_04,62.0,temp_dist_trial,num_items,zn7si1,1.0,response,2_ITEM,1363.4999999998254,1351.2000000000114,1363.4999999998254,1363.4999999998254,1351.2000000000114,1363.4999999998254,1.0,0.0,0.0,,Click Response,2_count,5.0,object-49,temp_dist_trial,14.0,s_s_12_1,student_stem,robotic arm,4.0,unique,paired,s_s_12_1.jpg,Student,$${counterbalance_group},,sub-95
Desktop or Laptop,Windows 10,Edge 138.0.0.0,1920x1080,1912x962,Temporal Distance Task,cb_04,62.0,temp_dist_trial,dist_items,qkpkxw,2.0,info,,2.7999999999883585,0.0,2.7999999999883585,2.7999999999883585,0.0,2.7999999999883585,1.0,0.0,0.0,,Slider,Slider,4.0,object-56,temp_dist_trial,14.0,s_s_12_1,student_stem,robotic arm,4.0,unique,paired,s_s_12_1.jpg,Student,$${counterbalance_group},,sub-95
Desktop or Laptop,Windows 10,Edge 138.0.0.0,1920x1080,1912x962,Temporal Distance Task,cb_04,62.0,temp_dist_trial,dist_items,qkpkxw,2.0,continue,,1868.0999999998016,1852.0,1868.0999999998016,1868.0999999998016,1852.0,1868.0999999998016,1.0,0.0,0.0,,Click To Continue,Next button,7.0,object-60,temp_dist_trial,14.0,s_s_12_1,student_stem,robotic arm,4.0,unique,paired,s_s_12_1.jpg,Student,$${counterbalance_group},,sub-95
Desktop or Laptop,Windows 10,Edge 138.0.0.0,1920x1080,1912x962,Temporal Distance Task,cb_04,62.0,temp_dist_trial,dist_items,qkpkxw,2.0,response,67,750.8999999999942,1852.0,1868.7000000000119,750.8999999999942,1852.0,1868.7000000000119,1.0,1117.8000000000177,0.0,,Slider,Slider,4.0,object-56,temp_dist_trial,14.0,s_s_12_1,student_stem,robotic arm,4.0,unique,paired,s_s_12_1.jpg,Student,$${counterbalance_group},,sub-95
Desktop or Laptop,Windows 10,Edge 138.0.0.0,1920x1080,1912x962,Temporal Distance Task,cb_04,63.0,temp_dist_trial,num_items,zn7si1,1.0,response,1_ITEM,937.2999999999884,934.1999999999823,937.2999999999884,937.2999999999884,934.1999999999823,937.2999999999884,1.0,0.0,0.0,,Click Response,1_count,3.0,object-46,temp_dist_trial,15.0,s_s_09_1,student_stem,multimeter,4.0,unique,single,s_s_09_1.jpg,Student,$${counterbalance_group},,sub-95
Desktop or Laptop,Windows 10,Edge 138.0.0.0,1920x1080,1912x962,Temporal Distance Task,cb_04,64.0,temp_dist_trial,num_items,zn7si1,1.0,response,1_ITEM,1672.0999999998019,1668.3999999999942,1672.0999999998019,1672.0999999998019,1668.3999999999942,1672.0999999998019,1.0,0.0,0.0,,Click Response,1_count,3.0,object-46,temp_dist_trial,16.0,s_a_10_1,student_art,tripod,4.0,unique,paired,s_a_10_1.jpg,Student,$${counterbalance_group},,sub-95
Desktop or Laptop,Windows 10,Edge 138.0.0.0,1920x1080,1912x962,Temporal Distance Task,cb_04,65.0,temp_dist_trial,num_items,zn7si1,1.0,response,2_ITEM,1009.900000000198,1000.9000000000232,1009.900000000198,1009.900000000198,1000.9000000000232,1009.900000000198,1.0,0.0,0.0,,Click Response,2_count,5.0,object-49,temp_dist_trial,17.0,s_s_14_1,student_stem,funnel,4.0,unique,paired,s_s_14_1.jpg,Student,$${counterbalance_group},,sub-95
Desktop or Laptop,Windows 10,Edge 138.0.0.0,1920x1080,1912x962,Temporal Distance Task,cb_04,65.0,temp_dist_trial,dist_items,qkpkxw,2.0,info,,3.199999999633292,0.0,3.199999999633292,3.199999999633292,0.0,3.199999999633292,1.0,0.0,0.0,,Slider,Slider,4.0,object-56,temp_dist_trial,17.0,s_s_14_1,student_stem,funnel,4.0,unique,paired,s_s_14_1.jpg,Student,$${counterbalance_group},,sub-95
Desktop or Laptop,Windows 10,Edge 138.0.0.0,1920x1080,1912x962,Temporal Distance Task,cb_04,65.0,temp_dist_trial,dist_items,qkpkxw,2.0,continue,,1903.6999999996333,1902.0,1903.6999999996333,1903.6999999996333,1902.0,1903.6999999996333,1.0,0.0,0.0,,Click To Continue,Next button,7.0,object-60,temp_dist_trial,17.0,s_s_14_1,student_stem,funnel,4.0,unique,paired,s_s_14_1.jpg,Student,$${counterbalance_group},,sub-95
Desktop or Laptop,Windows 10,Edge 138.0.0.0,1920x1080,1912x962,Temporal Distance Task,cb_04,65.0,temp_dist_trial,dist_items,qkpkxw,2.0,response,65,834.3000000000177,1902.0,1904.6000000000056,834.3000000000177,1902.0,1904.6000000000056,1.0,1070.2999999999884,0.0,,Slider,Slider,4.0,object-56,temp_dist_trial,17.0,s_s_14_1,student_stem,funnel,4.0,unique,paired,s_s_14_1.jpg,Student,$${counterbalance_group},,sub-95
Desktop or Laptop,Windows 10,Edge 138.0.0.0,1920x1080,1912x962,Temporal Distance Task,cb_04,66.0,temp_dist_trial,num_items,zn7si1,1.0,response,1_ITEM,1055.499999999447,1051.0,1055.499999999447,1055.499999999447,1051.0,1055.499999999447,1.0,0.0,0.0,,Click Response,1_count,3.0,object-46,temp_dist_trial,18.0,s_s_07_1,student_stem,periodic table,4.0,unique,single,s_s_07_1.jpg,Student,$${counterbalance_group},,sub-95
Desktop or Laptop,Windows 10,Edge 138.0.0.0,1920x1080,1912x962,Temporal Distance Task,cb_04,67.0,temp_dist_trial,num_items,zn7si1,1.0,response,2_ITEM,796.0000000001745,784.0999999999768,796.0000000001745,796.0000000001745,784.0999999999768,796.0000000001745,1.0,0.0,0.0,,Click Response,2_count,5.0,object-49,temp_dist_trial,19.0,s_a_13_1,student_art,violin,4.0,unique,paired,s_a_13_1.jpg,Student,$${counterbalance_group},,sub-95
Desktop or Laptop,Windows 10,Edge 138.0.0.0,1920x1080,1912x962,Temporal Distance Task,cb_04,67.0,temp_dist_trial,dist_items,qkpkxw,2.0,info,,6.49999999962165,0.0,6.49999999962165,6.49999999962165,0.0,6.49999999962165,1.0,0.0,0.0,,Slider,Slider,4.0,object-56,temp_dist_trial,19.0,s_a_13_1,student_art,violin,4.0,unique,paired,s_a_13_1.jpg,Student,$${counterbalance_group},,sub-95
Desktop or Laptop,Windows 10,Edge 138.0.0.0,1920x1080,1912x962,Temporal Distance Task,cb_04,67.0,temp_dist_trial,dist_items,qkpkxw,2.0,continue,,2446.6000000001804,2435.6999999999825,2446.6000000001804,2446.6000000001804,2435.6999999999825,2446.6000000001804,1.0,0.0,0.0,,Click To Continue,Next button,7.0,object-60,temp_dist_trial,19.0,s_a_13_1,student_art,violin,4.0,unique,paired,s_a_13_1.jpg,Student,$${counterbalance_group},,sub-95
Desktop or Laptop,Windows 10,Edge 138.0.0.0,1920x1080,1912x962,Temporal Distance Task,cb_04,67.0,temp_dist_trial,dist_items,qkpkxw,2.0,response,,2452.2999999999593,2435.6999999999825,2452.2999999999593,2452.2999999999593,2435.6999999999825,2452.2999999999593,1.0,0.0,0.0,,Slider,Slider,4.0,object-56,temp_dist_trial,19.0,s_a_13_1,student_art,violin,4.0,unique,paired,s_a_13_1.jpg,Student,$${counterbalance_group},,sub-95
Desktop or Laptop,Windows 10,Edge 138.0.0.0,1920x1080,1912x962,Temporal Distance Task,cb_04,68.0,temp_dist_trial,num_items,zn7si1,1.0,response,2_ITEM,1387.9000000001981,1384.8000000000175,1387.9000000001981,1387.9000000001981,1384.8000000000175,1387.9000000001981,1.0,0.0,0.0,,Click Response,2_count,5.0,object-49,temp_dist_trial,20.0,s_sh_24_1,student_shared,desk organizer,4.0,competing,paired,s_sh_24_1.jpg,Student,$${counterbalance_group},,sub-95
Desktop or Laptop,Windows 10,Edge 138.0.0.0,1920x1080,1912x962,Temporal Distance Task,cb_04,68.0,temp_dist_trial,dist_items,qkpkxw,2.0,info,,3.000000000174623,0.0,3.000000000174623,3.000000000174623,0.0,3.000000000174623,1.0,0.0,0.0,,Slider,Slider,4.0,object-56,temp_dist_trial,20.0,s_sh_24_1,student_shared,desk organizer,4.0,competing,paired,s_sh_24_1.jpg,Student,$${counterbalance_group},,sub-95
Desktop or Laptop,Windows 10,Edge 138.0.0.0,1920x1080,1912x962,Temporal Distance Task,cb_04,68.0,temp_dist_trial,dist_items,qkpkxw,2.0,continue,,2139.599999999802,2135.5,2139.599999999802,2139.599999999802,2135.5,2139.599999999802,1.0,0.0,0.0,,Click To Continue,Next button,7.0,object-60,temp_dist_trial,20.0,s_sh_24_1,student_shared,desk organizer,4.0,competing,paired,s_sh_24_1.jpg,Student,$${counterbalance_group},,sub-95
Desktop or Laptop,Windows 10,Edge 138.0.0.0,1920x1080,1912x962,Temporal Distance Task,cb_04,68.0,temp_dist_trial,dist_items,qkpkxw,2.0,response,60,1167.8999999999942,2135.5,2140.2999999999884,1167.8999999999942,2135.5,2140.2999999999884,1.0,972.3999999999942,0.0,,Slider,Slider,4.0,object-56,temp_dist_trial,20.0,s_sh_24_1,student_shared,desk organizer,4.0,competing,paired,s_sh_24_1.jpg,Student,$${counterbalance_group},,sub-95
Desktop or Laptop,Windows 10,Edge 138.0.0.0,1920x1080,1912x962,Temporal Distance Task,cb_04,69.0,temp_dist_trial,num_items,zn7si1,1.0,response,1_ITEM,1246.8999999996158,1234.5999999999767,1246.8999999996158,1246.8999999996158,1234.5999999999767,1246.8999999996158,1.0,0.0,0.0,,Click Response,1_count,3.0,object-46,temp_dist_trial,21.0,s_sh_08_1,student_shared,post-its,4.0,competing,single,s_sh_08_1.jpg,Student,$${counterbalance_group},,sub-95
Desktop or Laptop,Windows 10,Edge 138.0.0.0,1920x1080,1912x962,Temporal Distance Task,cb_04,70.0,temp_dist_trial,num_items,zn7si1,1.0,response,2_ITEM,1790.2999999994354,1785.1000000000058,1790.2999999994354,1790.2999999994354,1785.1000000000058,1790.2999999994354,1.0,0.0,0.0,,Click Response,2_count,5.0,object-49,temp_dist_trial,22.0,s_a_11_1,student_art,clapperboard,4.0,unique,paired,s_a_11_1.jpg,Student,$${counterbalance_group},,sub-95
Desktop or Laptop,Windows 10,Edge 138.0.0.0,1920x1080,1912x962,Temporal Distance Task,cb_04,70.0,temp_dist_trial,dist_items,qkpkxw,2.0,info,,2.4999999994470268,0.0,2.4999999994470268,2.4999999994470268,0.0,2.4999999994470268,1.0,0.0,0.0,,Slider,Slider,4.0,object-56,temp_dist_trial,22.0,s_a_11_1,student_art,clapperboard,4.0,unique,paired,s_a_11_1.jpg,Student,$${counterbalance_group},,sub-95
Desktop or Laptop,Windows 10,Edge 138.0.0.0,1920x1080,1912x962,Temporal Distance Task,cb_04,70.0,temp_dist_trial,dist_items,qkpkxw,2.0,continue,,1585.000000000029,1568.3000000000175,1585.000000000029,1585.000000000029,1568.3000000000175,1585.000000000029,1.0,0.0,0.0,,Click To Continue,Next button,7.0,object-60,temp_dist_trial,22.0,s_a_11_1,student_art,clapperboard,4.0,unique,paired,s_a_11_1.jpg,Student,$${counterbalance_group},,sub-95
Desktop or Laptop,Windows 10,Edge 138.0.0.0,1920x1080,1912x962,Temporal Distance Task,cb_04,70.0,temp_dist_trial,dist_items,qkpkxw,2.0,response,69,650.7000000000116,1568.3000000000175,1585.000000000029,650.7000000000116,1568.3000000000175,1585.000000000029,1.0,934.3000000000177,0.0,,Slider,Slider,4.0,object-56,temp_dist_trial,22.0,s_a_11_1,student_art,clapperboard,4.0,unique,paired,s_a_11_1.jpg,Student,$${counterbalance_group},,sub-95
Desktop or Laptop,Windows 10,Edge 138.0.0.0,1920x1080,1912x962,Temporal Distance Task,cb_04,71.0,temp_dist_trial,num_items,zn7si1,1.0,response,2_ITEM,961.6999999994297,950.8999999999942,961.6999999994297,961.6999999994297,950.8999999999942,961.6999999994297,1.0,0.0,0.0,,Click Response,2_count,5.0,object-49,temp_dist_trial,23.0,s_a_20_1,student_art,pin cushion,4.0,unique,paired,s_a_20_1.jpg,Student,$${counterbalance_group},,sub-95
Desktop or Laptop,Windows 10,Edge 138.0.0.0,1920x1080,1912x962,Temporal Distance Task,cb_04,71.0,temp_dist_trial,dist_items,qkpkxw,2.0,info,,2.4999999994470268,0.0,2.4999999994470268,2.4999999994470268,0.0,2.4999999994470268,1.0,0.0,0.0,,Slider,Slider,4.0,object-56,temp_dist_trial,23.0,s_a_20_1,student_art,pin cushion,4.0,unique,paired,s_a_20_1.jpg,Student,$${counterbalance_group},,sub-95
Desktop or Laptop,Windows 10,Edge 138.0.0.0,1920x1080,1912x962,Temporal Distance Task,cb_04,71.0,temp_dist_trial,dist_items,qkpkxw,2.0,continue,,3949.6999999996333,3937.300000000018,3949.6999999996333,3949.6999999996333,3937.300000000018,3949.6999999996333,1.0,0.0,0.0,,Click To Continue,Next button,7.0,object-60,temp_dist_trial,23.0,s_a_20_1,student_art,pin cushion,4.0,unique,paired,s_a_20_1.jpg,Student,$${counterbalance_group},,sub-95
Desktop or Laptop,Windows 10,Edge 138.0.0.0,1920x1080,1912x962,Temporal Distance Task,cb_04,71.0,temp_dist_trial,dist_items,qkpkxw,2.0,response,40,850.8000000000177,3937.300000000018,3950.6000000000067,850.8000000000177,3937.300000000018,3950.6000000000067,1.0,3099.7999999999884,0.0,,Slider,Slider,4.0,object-56,temp_dist_trial,23.0,s_a_20_1,student_art,pin cushion,4.0,unique,paired,s_a_20_1.jpg,Student,$${counterbalance_group},,sub-95
Desktop or Laptop,Windows 10,Edge 138.0.0.0,1920x1080,1912x962,Temporal Distance Task,cb_04,72.0,temp_dist_trial,num_items,zn7si1,1.0,response,1_ITEM,2057.099999999802,2051.8999999999937,2057.099999999802,2057.099999999802,2051.8999999999937,2057.099999999802,1.0,0.0,0.0,,Click Response,1_count,3.0,object-46,temp_dist_trial,24.0,s_sh_04_1,student_shared,laptop stand,4.0,competing,single,s_sh_04_1.jpg,Student,$${counterbalance_group},,sub-95
Desktop or Laptop,Windows 10,Edge 138.0.0.0,1920x1080,1912x962,Temporal Distance Task,cb_04,73.0,temp_dist_trial,num_items,zn7si1,1.0,response,2_ITEM,1128.6000000000058,1117.8999999999942,1128.6000000000058,1128.6000000000058,1117.8999999999942,1128.6000000000058,1.0,0.0,0.0,,Click Response,2_count,5.0,object-49,temp_dist_trial,25.0,s_a_03_1,student_art,palette,4.0,unique,paired,s_a_03_1.jpg,Student,$${counterbalance_group},,sub-95
Desktop or Laptop,Windows 10,Edge 138.0.0.0,1920x1080,1912x962,Temporal Distance Task,cb_04,73.0,temp_dist_trial,dist_items,qkpkxw,2.0,info,,2.9000000001979065,0.0,2.9000000001979065,2.9000000001979065,0.0,2.9000000001979065,1.0,0.0,0.0,,Slider,Slider,4.0,object-56,temp_dist_trial,25.0,s_a_03_1,student_art,palette,4.0,unique,paired,s_a_03_1.jpg,Student,$${counterbalance_group},,sub-95
Desktop or Laptop,Windows 10,Edge 138.0.0.0,1920x1080,1912x962,Temporal Distance Task,cb_04,73.0,temp_dist_trial,dist_items,qkpkxw,2.0,continue,,1828.4000000001981,1818.7000000000119,1828.4000000001981,1828.4000000001981,1818.7000000000119,1828.4000000001981,1.0,0.0,0.0,,Click To Continue,Next button,7.0,object-60,temp_dist_trial,25.0,s_a_03_1,student_art,palette,4.0,unique,paired,s_a_03_1.jpg,Student,$${counterbalance_group},,sub-95
Desktop or Laptop,Windows 10,Edge 138.0.0.0,1920x1080,1912x962,Temporal Distance Task,cb_04,73.0,temp_dist_trial,dist_items,qkpkxw,2.0,response,57,901.1000000000058,1818.7000000000119,1829.5999999994528,901.1000000000058,1818.7000000000119,1829.5999999994528,1.0,928.499999999447,0.0,,Slider,Slider,4.0,object-56,temp_dist_trial,25.0,s_a_03_1,student_art,palette,4.0,unique,paired,s_a_03_1.jpg,Student,$${counterbalance_group},,sub-95
Desktop or Laptop,Windows 10,Edge 138.0.0.0,1920x1080,1912x962,Temporal Distance Task,cb_04,74.0,temp_dist_trial,num_items,zn7si1,1.0,response,1_ITEM,1099.0,1084.3999999999942,1099.0,1099.0,1084.3999999999942,1099.0,1.0,0.0,0.0,,Click Response,1_count,3.0,object-46,temp_dist_trial,26.0,s_s_02_1,student_stem,flask,4.0,unique,single,s_s_02_1.jpg,Student,$${counterbalance_group},,sub-95
Desktop or Laptop,Windows 10,Edge 138.0.0.0,1920x1080,1912x962,Temporal Distance Task,cb_04,75.0,temp_dist_trial,num_items,zn7si1,1.0,response,1_ITEM,1314.1999999998081,1301.2999999999886,1314.1999999998081,1314.1999999998081,1301.2999999999886,1314.1999999998081,1.0,0.0,0.0,,Click Response,1_count,3.0,object-46,temp_dist_trial,27.0,s_a_17_1,student_art,microphone,4.0,unique,single,s_a_17_1.jpg,Student,$${counterbalance_group},,sub-95
Desktop or Laptop,Windows 10,Edge 138.0.0.0,1920x1080,1912x962,Temporal Distance Task,cb_04,76.0,temp_dist_trial,num_items,zn7si1,1.0,response,1_ITEM,1455.8999999999942,1451.6000000000058,1455.8999999999942,1455.8999999999942,1451.6000000000058,1455.8999999999942,1.0,0.0,0.0,,Click Response,1_count,3.0,object-46,temp_dist_trial,28.0,s_sh_21_1,student_shared,file holder,4.0,competing,paired,s_sh_21_1.jpg,Student,$${counterbalance_group},,sub-95
Desktop or Laptop,Windows 10,Edge 138.0.0.0,1920x1080,1912x962,Temporal Distance Task,cb_04,77.0,temp_dist_trial,num_items,zn7si1,1.0,response,2_ITEM,1796.7000000000116,1785.2000000000116,1796.7000000000116,1796.7000000000116,1785.2000000000116,1796.7000000000116,1.0,0.0,0.0,,Click Response,2_count,5.0,object-49,temp_dist_trial,29.0,s_sh_05_1,student_shared,laptop,4.0,competing,paired,s_sh_05_1.jpg,Student,$${counterbalance_group},,sub-95
Desktop or Laptop,Windows 10,Edge 138.0.0.0,1920x1080,1912x962,Temporal Distance Task,cb_04,77.0,temp_dist_trial,dist_items,qkpkxw,2.0,info,,2.6000000001804437,0.0,2.6000000001804437,2.6000000001804437,0.0,2.6000000001804437,1.0,0.0,0.0,,Slider,Slider,4.0,object-56,temp_dist_trial,29.0,s_sh_05_1,student_shared,laptop,4.0,competing,paired,s_sh_05_1.jpg,Student,$${counterbalance_group},,sub-95
Desktop or Laptop,Windows 10,Edge 138.0.0.0,1920x1080,1912x962,Temporal Distance Task,cb_04,77.0,temp_dist_trial,dist_items,qkpkxw,2.0,continue,,2622.9999999996217,2619.3999999999937,2622.9999999996217,2622.9999999996217,2619.3999999999937,2622.9999999996217,1.0,0.0,0.0,,Click To Continue,Next button,7.0,object-60,temp_dist_trial,29.0,s_sh_05_1,student_shared,laptop,4.0,competing,paired,s_sh_05_1.jpg,Student,$${counterbalance_group},,sub-95
Desktop or Laptop,Windows 10,Edge 138.0.0.0,1920x1080,1912x962,Temporal Distance Task,cb_04,77.0,temp_dist_trial,dist_items,qkpkxw,2.0,response,62,1034.6000000000058,2619.3999999999937,2624.1000000001804,1034.6000000000058,2619.3999999999937,2624.1000000001804,1.0,1589.5000000001746,0.0,,Slider,Slider,4.0,object-56,temp_dist_trial,29.0,s_sh_05_1,student_shared,laptop,4.0,competing,paired,s_sh_05_1.jpg,Student,$${counterbalance_group},,sub-95
Desktop or Laptop,Windows 10,Edge 138.0.0.0,1920x1080,1912x962,Temporal Distance Task,cb_04,78.0,temp_dist_trial,num_items,zn7si1,1.0,response,1_ITEM,2233.2999999998137,2218.8999999999937,2233.2999999998137,2233.2999999998137,2218.8999999999937,2233.2999999998137,1.0,0.0,0.0,,Click Response,1_count,3.0,object-46,temp_dist_trial,30.0,s_sh_01_1,student_shared,notebook,4.0,competing,single,s_sh_01_1.jpg,Student,$${counterbalance_group},,sub-95
Desktop or Laptop,Windows 10,Edge 138.0.0.0,1920x1080,1912x962,Temporal Distance Task,cb_04,79.0,temp_dist_trial,num_items,zn7si1,1.0,response,1_ITEM,1249.5000000001746,1234.5,1249.5000000001746,1249.5000000001746,1234.5,1249.5000000001746,1.0,0.0,0.0,,Click Response,1_count,3.0,object-46,temp_dist_trial,31.0,s_s_17_1,student_stem,ring stand,4.0,unique,paired,s_s_17_1.jpg,Student,$${counterbalance_group},,sub-95
Desktop or Laptop,Windows 10,Edge 138.0.0.0,1920x1080,1912x962,Temporal Distance Task,cb_04,80.0,temp_dist_trial,num_items,zn7si1,1.0,response,1_ITEM,1181.999999999447,1168.0,1181.999999999447,1181.999999999447,1168.0,1181.999999999447,1.0,0.0,0.0,,Click Response,1_count,3.0,object-46,temp_dist_trial,32.0,s_s_04_1,student_stem,bunsen burner,4.0,unique,paired,s_s_04_1.jpg,Student,$${counterbalance_group},,sub-95
Desktop or Laptop,Windows 10,Edge 138.0.0.0,1920x1080,1912x962,Temporal Distance Task,cb_04,81.0,temp_dist_trial,num_items,zn7si1,1.0,response,2_ITEM,1266.3999999994412,1251.2999999999886,1266.3999999994412,1266.3999999994412,1251.2999999999886,1266.3999999994412,1.0,0.0,0.0,,Click Response,2_count,5.0,object-49,temp_dist_trial,33.0,s_sh_13_1,student_shared,index cards,4.0,competing,paired,s_sh_13_1.jpg,Student,$${counterbalance_group},,sub-95
Desktop or Laptop,Windows 10,Edge 138.0.0.0,1920x1080,1912x962,Temporal Distance Task,cb_04,81.0,temp_dist_trial,dist_items,qkpkxw,2.0,info,,2.5999999996274705,0.0,2.5999999996274705,2.5999999996274705,0.0,2.5999999996274705,1.0,0.0,0.0,,Slider,Slider,4.0,object-56,temp_dist_trial,33.0,s_sh_13_1,student_shared,index cards,4.0,competing,paired,s_sh_13_1.jpg,Student,$${counterbalance_group},,sub-95
Desktop or Laptop,Windows 10,Edge 138.0.0.0,1920x1080,1912x962,Temporal Distance Task,cb_04,81.0,temp_dist_trial,dist_items,qkpkxw,2.0,continue,,2010.2000000001865,2002.0999999999767,2010.2000000001865,2010.2000000001865,2002.0999999999767,2010.2000000001865,1.0,0.0,0.0,,Click To Continue,Next button,7.0,object-60,temp_dist_trial,33.0,s_sh_13_1,student_shared,index cards,4.0,competing,paired,s_sh_13_1.jpg,Student,$${counterbalance_group},,sub-95
Desktop or Laptop,Windows 10,Edge 138.0.0.0,1920x1080,1912x962,Temporal Distance Task,cb_04,81.0,temp_dist_trial,dist_items,qkpkxw,2.0,response,62,867.5999999999768,2002.0999999999767,2010.3999999994405,867.5999999999768,2002.0999999999767,2010.3999999994405,1.0,1142.7999999994645,0.0,,Slider,Slider,4.0,object-56,temp_dist_trial,33.0,s_sh_13_1,student_shared,index cards,4.0,competing,paired,s_sh_13_1.jpg,Student,$${counterbalance_group},,sub-95
Desktop or Laptop,Windows 10,Edge 138.0.0.0,1920x1080,1912x962,Temporal Distance Task,cb_04,82.0,temp_dist_trial,num_items,zn7si1,1.0,response,2_ITEM,1520.4000000000233,1518.2000000000116,1520.4000000000233,1520.4000000000233,1518.2000000000116,1520.4000000000233,1.0,0.0,0.0,,Click Response,2_count,5.0,object-49,temp_dist_trial,34.0,s_a_04_1,student_art,easel,4.0,unique,paired,s_a_04_1.jpg,Student,$${counterbalance_group},,sub-95
Desktop or Laptop,Windows 10,Edge 138.0.0.0,1920x1080,1912x962,Temporal Distance Task,cb_04,82.0,temp_dist_trial,dist_items,qkpkxw,2.0,info,,2.599999999976717,0.0,2.599999999976717,2.599999999976717,0.0,2.599999999976717,1.0,0.0,0.0,,Slider,Slider,4.0,object-56,temp_dist_trial,34.0,s_a_04_1,student_art,easel,4.0,unique,paired,s_a_04_1.jpg,Student,$${counterbalance_group},,sub-95
Desktop or Laptop,Windows 10,Edge 138.0.0.0,1920x1080,1912x962,Temporal Distance Task,cb_04,82.0,temp_dist_trial,dist_items,qkpkxw,2.0,continue,,2158.800000000163,2152.1999999999534,2158.800000000163,2158.800000000163,2152.1999999999534,2158.800000000163,1.0,0.0,0.0,,Click To Continue,Next button,7.0,object-60,temp_dist_trial,34.0,s_a_04_1,student_art,easel,4.0,unique,paired,s_a_04_1.jpg,Student,$${counterbalance_group},,sub-95
Desktop or Laptop,Windows 10,Edge 138.0.0.0,1920x1080,1912x962,Temporal Distance Task,cb_04,82.0,temp_dist_trial,dist_items,qkpkxw,2.0,response,68,650.7999999999884,2152.1999999999534,2168.79999999993,650.7999999999884,2152.1999999999534,2168.79999999993,1.0,1517.9999999999418,0.0,,Slider,Slider,4.0,object-56,temp_dist_trial,34.0,s_a_04_1,student_art,easel,4.0,unique,paired,s_a_04_1.jpg,Student,$${counterbalance_group},,sub-95
Desktop or Laptop,Windows 10,Edge 138.0.0.0,1920x1080,1912x962,Temporal Distance Task,cb_04,83.0,temp_dist_trial,num_items,zn7si1,1.0,response,2_ITEM,1630.199999999837,1618.3000000000463,1630.199999999837,1630.199999999837,1618.3000000000463,1630.199999999837,1.0,0.0,0.0,,Click Response,2_count,5.0,object-49,temp_dist_trial,35.0,s_s_18_1,student_stem,brain model,4.0,unique,paired,s_s_18_1.jpg,Student,$${counterbalance_group},,sub-95
Desktop or Laptop,Windows 10,Edge 138.0.0.0,1920x1080,1912x962,Temporal Distance Task,cb_04,83.0,temp_dist_trial,dist_items,qkpkxw,2.0,info,,2.499999999650754,0.0,2.499999999650754,2.499999999650754,0.0,2.499999999650754,1.0,0.0,0.0,,Slider,Slider,4.0,object-56,temp_dist_trial,35.0,s_s_18_1,student_stem,brain model,4.0,unique,paired,s_s_18_1.jpg,Student,$${counterbalance_group},,sub-95
Desktop or Laptop,Windows 10,Edge 138.0.0.0,1920x1080,1912x962,Temporal Distance Task,cb_04,83.0,temp_dist_trial,dist_items,qkpkxw,2.0,continue,,2752.6000000002086,2736.100000000035,2752.6000000002086,2752.6000000002086,2736.100000000035,2752.6000000002086,1.0,0.0,0.0,,Click To Continue,Next button,7.0,object-60,temp_dist_trial,35.0,s_s_18_1,student_stem,brain model,4.0,unique,paired,s_s_18_1.jpg,Student,$${counterbalance_group},,sub-95
Desktop or Laptop,Windows 10,Edge 138.0.0.0,1920x1080,1912x962,Temporal Distance Task,cb_04,83.0,temp_dist_trial,dist_items,qkpkxw,2.0,response,33,634.0,2736.100000000035,2752.7000000000708,634.0,2736.100000000035,2752.7000000000708,1.0,2118.70000000007,0.0,,Slider,Slider,4.0,object-56,temp_dist_trial,35.0,s_s_18_1,student_stem,brain model,4.0,unique,paired,s_s_18_1.jpg,Student,$${counterbalance_group},,sub-95
Desktop or Laptop,Windows 10,Edge 138.0.0.0,1920x1080,1912x962,Temporal Distance Task,cb_04,84.0,temp_dist_trial,num_items,zn7si1,1.0,response,1_ITEM,1334.600000000035,1318.0,1334.600000000035,1334.600000000035,1318.0,1334.600000000035,1.0,0.0,0.0,,Click Response,1_count,3.0,object-46,temp_dist_trial,36.0,s_sh_09_1,student_shared,paper clips,4.0,competing,single,s_sh_09_1.jpg,Student,$${counterbalance_group},,sub-95
Desktop or Laptop,Windows 10,Edge 138.0.0.0,1920x1080,1912x962,Temporal Distance Task,cb_04,85.0,temp_dist_trial,num_items,zn7si1,1.0,response,1_ITEM,1350.499999999418,1334.7999999999886,1350.499999999418,1350.499999999418,1334.7999999999886,1350.499999999418,1.0,0.0,0.0,,Click Response,1_count,3.0,object-46,temp_dist_trial,37.0,s_s_05_1,student_stem,lab goggles,4.0,unique,paired,s_s_05_1.jpg,Student,$${counterbalance_group},,sub-95
Desktop or Laptop,Windows 10,Edge 138.0.0.0,1920x1080,1912x962,Temporal Distance Task,cb_04,86.0,temp_dist_trial,num_items,zn7si1,1.0,response,2_ITEM,1056.300000000163,1051.0,1056.300000000163,1056.300000000163,1051.0,1056.300000000163,1.0,0.0,0.0,,Click Response,2_count,5.0,object-49,temp_dist_trial,38.0,s_a_09_1,student_art,picture frame,4.0,unique,paired,s_a_09_1.jpg,Student,$${counterbalance_group},,sub-95
Desktop or Laptop,Windows 10,Edge 138.0.0.0,1920x1080,1912x962,Temporal Distance Task,cb_04,86.0,temp_dist_trial,dist_items,qkpkxw,2.0,info,,3.099999999802093,0.0,3.099999999802093,3.099999999802093,0.0,3.099999999802093,1.0,0.0,0.0,,Slider,Slider,4.0,object-56,temp_dist_trial,38.0,s_a_09_1,student_art,picture frame,4.0,unique,paired,s_a_09_1.jpg,Student,$${counterbalance_group},,sub-95
Desktop or Laptop,Windows 10,Edge 138.0.0.0,1920x1080,1912x962,Temporal Distance Task,cb_04,86.0,temp_dist_trial,dist_items,qkpkxw,2.0,continue,,1767.3999999996158,1751.7999999999884,1767.3999999996158,1767.3999999996158,1751.7999999999884,1767.3999999996158,1.0,0.0,0.0,,Click To Continue,Next button,7.0,object-60,temp_dist_trial,38.0,s_a_09_1,student_art,picture frame,4.0,unique,paired,s_a_09_1.jpg,Student,$${counterbalance_group},,sub-95
Desktop or Laptop,Windows 10,Edge 138.0.0.0,1920x1080,1912x962,Temporal Distance Task,cb_04,86.0,temp_dist_trial,dist_items,qkpkxw,2.0,response,58,734.0999999999768,1751.7999999999884,1768.5,734.0999999999768,1751.7999999999884,1768.5,1.0,1034.4000000000233,0.0,,Slider,Slider,4.0,object-56,temp_dist_trial,38.0,s_a_09_1,student_art,picture frame,4.0,unique,paired,s_a_09_1.jpg,Student,$${counterbalance_group},,sub-95
Desktop or Laptop,Windows 10,Edge 138.0.0.0,1920x1080,1912x962,Temporal Distance Task,cb_04,87.0,temp_dist_trial,num_items,zn7si1,1.0,response,2_ITEM,1590.8999999994412,1584.7999999999884,1590.8999999994412,1590.8999999994412,1584.7999999999884,1590.8999999994412,1.0,0.0,0.0,,Click Response,2_count,5.0,object-49,temp_dist_trial,39.0,s_sh_23_1,student_shared,ballpoint pen,4.0,competing,paired,s_sh_23_1.jpg,Student,$${counterbalance_group},,sub-95
Desktop or Laptop,Windows 10,Edge 138.0.0.0,1920x1080,1912x962,Temporal Distance Task,cb_04,87.0,temp_dist_trial,dist_items,qkpkxw,2.0,info,,2.499999999650754,0.0,2.499999999650754,2.499999999650754,0.0,2.499999999650754,1.0,0.0,0.0,,Slider,Slider,4.0,object-56,temp_dist_trial,39.0,s_sh_23_1,student_shared,ballpoint pen,4.0,competing,paired,s_sh_23_1.jpg,Student,$${counterbalance_group},,sub-95
Desktop or Laptop,Windows 10,Edge 138.0.0.0,1920x1080,1912x962,Temporal Distance Task,cb_04,87.0,temp_dist_trial,dist_items,qkpkxw,2.0,continue,,2133.1000000002095,2118.8000000000466,2133.1000000002095,2133.1000000002095,2118.8000000000466,2133.1000000002095,1.0,0.0,0.0,,Click To Continue,Next button,7.0,object-60,temp_dist_trial,39.0,s_sh_23_1,student_shared,ballpoint pen,4.0,competing,paired,s_sh_23_1.jpg,Student,$${counterbalance_group},,sub-95
Desktop or Laptop,Windows 10,Edge 138.0.0.0,1920x1080,1912x962,Temporal Distance Task,cb_04,87.0,temp_dist_trial,dist_items,qkpkxw,2.0,response,85,650.7000000000116,2118.8000000000466,2133.4000000000233,650.7000000000116,2118.8000000000466,2133.4000000000233,1.0,1482.7000000000116,0.0,,Slider,Slider,4.0,object-56,temp_dist_trial,39.0,s_sh_23_1,student_shared,ballpoint pen,4.0,competing,paired,s_sh_23_1.jpg,Student,$${counterbalance_group},,sub-95
Desktop or Laptop,Windows 10,Edge 138.0.0.0,1920x1080,1912x962,Temporal Distance Task,cb_04,88.0,temp_dist_trial,num_items,zn7si1,1.0,response,1_ITEM,1090.0999999999767,1084.5,1090.0999999999767,1090.0999999999767,1084.5,1090.0999999999767,1.0,0.0,0.0,,Click Response,1_count,3.0,object-46,temp_dist_trial,40.0,s_sh_17_1,student_shared,wireless mouse,4.0,competing,single,s_sh_17_1.jpg,Student,$${counterbalance_group},,sub-95
Desktop or Laptop,Windows 10,Edge 138.0.0.0,1920x1080,1912x962,Temporal Distance Task,cb_04,89.0,temp_dist_trial,num_items,zn7si1,1.0,response,2_ITEM,1040.6000000002095,1034.3000000000468,1040.6000000002095,1040.6000000002095,1034.3000000000468,1040.6000000002095,1.0,0.0,0.0,,Click Response,2_count,5.0,object-49,temp_dist_trial,41.0,s_sh_11_1,student_shared,pencil case,4.0,competing,paired,s_sh_11_1.jpg,Student,$${counterbalance_group},,sub-95
Desktop or Laptop,Windows 10,Edge 138.0.0.0,1920x1080,1912x962,Temporal Distance Task,cb_04,89.0,temp_dist_trial,dist_items,qkpkxw,2.0,info,,2.7000000001862645,0.0,2.7000000001862645,2.7000000001862645,0.0,2.7000000001862645,1.0,0.0,0.0,,Slider,Slider,4.0,object-56,temp_dist_trial,41.0,s_sh_11_1,student_shared,pencil case,4.0,competing,paired,s_sh_11_1.jpg,Student,$${counterbalance_group},,sub-95
Desktop or Laptop,Windows 10,Edge 138.0.0.0,1920x1080,1912x962,Temporal Distance Task,cb_04,89.0,temp_dist_trial,dist_items,qkpkxw,2.0,continue,,1976.0999999996275,1968.7999999999884,1976.0999999996275,1976.0999999996275,1968.7999999999884,1976.0999999996275,1.0,0.0,0.0,,Click To Continue,Next button,7.0,object-60,temp_dist_trial,41.0,s_sh_11_1,student_shared,pencil case,4.0,competing,paired,s_sh_11_1.jpg,Student,$${counterbalance_group},,sub-95
Desktop or Laptop,Windows 10,Edge 138.0.0.0,1920x1080,1912x962,Temporal Distance Task,cb_04,89.0,temp_dist_trial,dist_items,qkpkxw,2.0,response,37,684.2000000000116,1968.7999999999884,1977.3999999994405,684.2000000000116,1968.7999999999884,1977.3999999994405,1.0,1293.1999999994296,0.0,,Slider,Slider,4.0,object-56,temp_dist_trial,41.0,s_sh_11_1,student_shared,pencil case,4.0,competing,paired,s_sh_11_1.jpg,Student,$${counterbalance_group},,sub-95
Desktop or Laptop,Windows 10,Edge 138.0.0.0,1920x1080,1912x962,Temporal Distance Task,cb_04,90.0,temp_dist_trial,num_items,zn7si1,1.0,response,2_ITEM,1371.7000000000114,1368.100000000035,1371.7000000000114,1371.7000000000114,1368.100000000035,1371.7000000000114,1.0,0.0,0.0,,Click Response,2_count,5.0,object-49,temp_dist_trial,42.0,s_sh_14_1,student_shared,printer,4.0,competing,paired,s_sh_14_1.jpg,Student,$${counterbalance_group},,sub-95
Desktop or Laptop,Windows 10,Edge 138.0.0.0,1920x1080,1912x962,Temporal Distance Task,cb_04,90.0,temp_dist_trial,dist_items,qkpkxw,2.0,info,,2.5999999996274705,0.0,2.5999999996274705,2.5999999996274705,0.0,2.5999999996274705,1.0,0.0,0.0,,Slider,Slider,4.0,object-56,temp_dist_trial,42.0,s_sh_14_1,student_shared,printer,4.0,competing,paired,s_sh_14_1.jpg,Student,$${counterbalance_group},,sub-95
Desktop or Laptop,Windows 10,Edge 138.0.0.0,1920x1080,1912x962,Temporal Distance Task,cb_04,90.0,temp_dist_trial,dist_items,qkpkxw,2.0,continue,,1782.8999999994412,1768.5999999999767,1782.8999999994412,1782.8999999994412,1768.5999999999767,1782.8999999994412,1.0,0.0,0.0,,Click To Continue,Next button,7.0,object-60,temp_dist_trial,42.0,s_sh_14_1,student_shared,printer,4.0,competing,paired,s_sh_14_1.jpg,Student,$${counterbalance_group},,sub-95
Desktop or Laptop,Windows 10,Edge 138.0.0.0,1920x1080,1912x962,Temporal Distance Task,cb_04,90.0,temp_dist_trial,dist_items,qkpkxw,2.0,response,66,867.7000000000116,1768.5999999999767,1783.3999999994412,867.7000000000116,1768.5999999999767,1783.3999999994412,1.0,915.6999999994297,0.0,,Slider,Slider,4.0,object-56,temp_dist_trial,42.0,s_sh_14_1,student_shared,printer,4.0,competing,paired,s_sh_14_1.jpg,Student,$${counterbalance_group},,sub-95
Desktop or Laptop,Windows 10,Edge 138.0.0.0,1920x1080,1912x962,Temporal Distance Task,cb_04,91.0,temp_dist_trial,num_items,zn7si1,1.0,response,2_ITEM,1488.2999999994645,1484.7000000000116,1488.2999999994645,1488.2999999994645,1484.7000000000116,1488.2999999994645,1.0,0.0,0.0,,Click Response,2_count,5.0,object-49,temp_dist_trial,43.0,s_sh_12_1,student_shared,binder,4.0,competing,paired,s_sh_12_1.jpg,Student,$${counterbalance_group},,sub-95
Desktop or Laptop,Windows 10,Edge 138.0.0.0,1920x1080,1912x962,Temporal Distance Task,cb_04,91.0,temp_dist_trial,dist_items,qkpkxw,2.0,info,,2.499999999650754,0.0,2.499999999650754,2.499999999650754,0.0,2.499999999650754,1.0,0.0,0.0,,Slider,Slider,4.0,object-56,temp_dist_trial,43.0,s_sh_12_1,student_shared,binder,4.0,competing,paired,s_sh_12_1.jpg,Student,$${counterbalance_group},,sub-95
