Participant Device,Participant OS,Participant Browser,Participant Monitor Size,Participant Viewport Size,Task Name,Current Spreadsheet,Trial Number,Display,Screen,Screen ID,Screen Counter,Response Type,Response,Onset Time,Clock Time,Reaction Time,Absolute Onset Time,Absolute Clock Time,Absolute Reaction Time,Correct,Response Duration,Proportion,Tag,Component Name,Object Name,Object Number,Object ID,Spreadsheet: display,Spreadsheet: trial,Spreadsheet: stimulus_id,Spreadsheet: expected_goal,Spreadsheet: stimulus_name,Spreadsheet: c_group,Spreadsheet: condition,Spreadsheet: paired_status,Spreadsheet: stimulus_path,Spreadsheet: block_type,Manipulation: Spreadsheet,Store: enc_test_acc,sub_label
Desktop or Laptop,Windows 10,Chrome 138.0.0.0,1920x1080,1920x1080,Temporal Distance Task,,,,,,,info,BEGIN,,,,,,,,,,,,,,,,,,,,,,,,,$${counterbalance_group},,sub-98
Desktop or Laptop,Windows 10,Chrome 138.0.0.0,1920x1080,1920x1080,Temporal Distance Task,cb_08,1.0,temp_instructions,intro_screen,3tnme7,1.0,continue,,6128.000000381468,6118.6,6128.000000381468,6128.000000381468,6118.6,6128.000000381468,1.0,0.0,0.0,,Click To Continue,Continue Button,4.0,object-29,temp_instructions,,,Travel,,,,,,,$${counterbalance_group},,sub-98
Desktop or Laptop,Windows 10,Chrome 138.0.0.0,1920x1080,1920x1080,Temporal Distance Task,cb_08,1.0,temp_instructions,intro_screen_2,52v7ur,2.0,continue,,5840.40000038147,5827.7,5840.40000038147,5840.40000038147,5827.7,5840.40000038147,1.0,0.0,0.0,,Click To Continue,Continue Button,4.0,object-39,temp_instructions,,,Travel,,,,,,,$${counterbalance_group},,sub-98
Desktop or Laptop,Windows 10,Chrome 138.0.0.0,1920x1080,1920x1080,Temporal Distance Task,cb_08,1.0,temp_instructions,intro_screen_3,i7lvwx,3.0,continue,,4513.70000038147,4506.6,4513.70000038147,4513.70000038147,4506.6,4513.70000038147,1.0,0.0,0.0,,Click To Continue,Continue Button,4.0,object-67,temp_instructions,,,Travel,,,,,,,$${counterbalance_group},,sub-98
Desktop or Laptop,Windows 10,Chrome 138.0.0.0,1920x1080,1920x1080,Temporal Distance Task,cb_08,1.0,temp_instructions,test_q1,5ieqx1,4.0,response,choice_3,3799.5,3786.599999999999,3799.5,3799.5,3786.599999999999,3799.5,1.0,0.0,0.0,,Click Response,choice_3,5.0,object-345,temp_instructions,,,Travel,,,,,,,$${counterbalance_group},,sub-98
Desktop or Laptop,Windows 10,Chrome 138.0.0.0,1920x1080,1920x1080,Temporal Distance Task,cb_08,1.0,temp_instructions,score_corr,7ilvjr,5.0,continue,,735.3000000953688,733.3000000000029,735.3000000953688,735.3000000953688,733.3000000000029,735.3000000953688,1.0,0.0,0.0,,Click To Continue,Continue Button,3.0,object-23,temp_instructions,,,Travel,,,,,,,$${counterbalance_group},,sub-98
Desktop or Laptop,Windows 10,Chrome 138.0.0.0,1920x1080,1920x1080,Temporal Distance Task,cb_08,1.0,temp_eventStart,Screen 1,dgtyxe,1.0,continue,,1007.2000003814684,1000.0,1007.2000003814684,1007.2000003814684,1000.0,1007.2000003814684,1.0,0.0,0.0,,Click To Continue,Next Button,3.0,object-43,temp_eventStart,,,Travel,,,,,,,$${counterbalance_group},,sub-98
Desktop or Laptop,Windows 10,Chrome 138.0.0.0,1920x1080,1920x1080,Temporal Distance Task,cb_08,1.0,temp_dist_trial,num_items,zn7si1,1.0,response,2_ITEM,1386.5999999999985,1373.2999999999993,1386.5999999999985,1386.5999999999985,1373.2999999999993,1386.5999999999985,1.0,0.0,0.0,,Click Response,2_count,5.0,object-49,temp_dist_trial,1.0,t_s_23_1,travel_shared,ball cap,8.0,competing,paired,t_s_23_1.jpg,Travel,$${counterbalance_group},,sub-98
Desktop or Laptop,Windows 10,Chrome 138.0.0.0,1920x1080,1920x1080,Temporal Distance Task,cb_08,1.0,temp_dist_trial,dist_items,qkpkxw,2.0,info,,3.700000286102295,0.0,3.700000286102295,3.700000286102295,0.0,3.700000286102295,1.0,0.0,0.0,,Slider,Slider,4.0,object-56,temp_dist_trial,1.0,t_s_23_1,travel_shared,ball cap,8.0,competing,paired,t_s_23_1.jpg,Travel,$${counterbalance_group},,sub-98
Desktop or Laptop,Windows 10,Chrome 138.0.0.0,1920x1080,1920x1080,Temporal Distance Task,cb_08,1.0,temp_dist_trial,dist_items,qkpkxw,2.0,continue,,2365.4000000953674,2359.900000000001,2365.4000000953674,2365.4000000953674,2359.900000000001,2365.4000000953674,1.0,0.0,0.0,,Click To Continue,Next button,7.0,object-60,temp_dist_trial,1.0,t_s_23_1,travel_shared,ball cap,8.0,competing,paired,t_s_23_1.jpg,Travel,$${counterbalance_group},,sub-98
Desktop or Laptop,Windows 10,Chrome 138.0.0.0,1920x1080,1920x1080,Temporal Distance Task,cb_08,1.0,temp_dist_trial,dist_items,qkpkxw,2.0,response,64,999.9000000000017,2359.900000000001,2365.800000190735,999.9000000000017,2359.900000000001,2365.800000190735,1.0,1365.9000001907334,0.0,,Slider,Slider,4.0,object-56,temp_dist_trial,1.0,t_s_23_1,travel_shared,ball cap,8.0,competing,paired,t_s_23_1.jpg,Travel,$${counterbalance_group},,sub-98
Desktop or Laptop,Windows 10,Chrome 138.0.0.0,1920x1080,1920x1080,Temporal Distance Task,cb_08,2.0,temp_dist_trial,num_items,zn7si1,1.0,response,1_ITEM,1745.5999999999985,1733.3999999999978,1745.5999999999985,1745.5999999999985,1733.3999999999978,1745.5999999999985,1.0,0.0,0.0,,Click Response,1_count,3.0,object-46,temp_dist_trial,2.0,t_s_20_1,travel_shared,travel pill case,8.0,competing,paired,t_s_20_1.jpg,Travel,$${counterbalance_group},,sub-98
Desktop or Laptop,Windows 10,Chrome 138.0.0.0,1920x1080,1920x1080,Temporal Distance Task,cb_08,3.0,temp_dist_trial,num_items,zn7si1,1.0,response,2_ITEM,1449.800000095369,1439.9000000000015,1449.800000095369,1449.800000095369,1439.9000000000015,1449.800000095369,1.0,0.0,0.0,,Click Response,2_count,5.0,object-49,temp_dist_trial,3.0,t_s_17_1,travel_shared,toothbrush,8.0,competing,paired,t_s_17_1.jpg,Travel,$${counterbalance_group},,sub-98
Desktop or Laptop,Windows 10,Chrome 138.0.0.0,1920x1080,1920x1080,Temporal Distance Task,cb_08,3.0,temp_dist_trial,dist_items,qkpkxw,2.0,info,,3.80000028610084,0.0,3.80000028610084,3.80000028610084,0.0,3.80000028610084,1.0,0.0,0.0,,Slider,Slider,4.0,object-56,temp_dist_trial,3.0,t_s_17_1,travel_shared,toothbrush,8.0,competing,paired,t_s_17_1.jpg,Travel,$${counterbalance_group},,sub-98
Desktop or Laptop,Windows 10,Chrome 138.0.0.0,1920x1080,1920x1080,Temporal Distance Task,cb_08,3.0,temp_dist_trial,dist_items,qkpkxw,2.0,continue,,1993.500000095366,1986.5,1993.500000095366,1993.500000095366,1986.5,1993.500000095366,1.0,0.0,0.0,,Click To Continue,Next button,7.0,object-60,temp_dist_trial,3.0,t_s_17_1,travel_shared,toothbrush,8.0,competing,paired,t_s_17_1.jpg,Travel,$${counterbalance_group},,sub-98
Desktop or Laptop,Windows 10,Chrome 138.0.0.0,1920x1080,1920x1080,Temporal Distance Task,cb_08,3.0,temp_dist_trial,dist_items,qkpkxw,2.0,response,27,1199.8999999999978,1986.5,1994.000000095366,1199.8999999999978,1986.5,1994.000000095366,1.0,794.1000000953682,0.0,,Slider,Slider,4.0,object-56,temp_dist_trial,3.0,t_s_17_1,travel_shared,toothbrush,8.0,competing,paired,t_s_17_1.jpg,Travel,$${counterbalance_group},,sub-98
Desktop or Laptop,Windows 10,Chrome 138.0.0.0,1920x1080,1920x1080,Temporal Distance Task,cb_08,4.0,temp_dist_trial,num_items,zn7si1,1.0,response,2_ITEM,950.0999999999983,946.6999999999972,950.0999999999983,950.0999999999983,946.6999999999972,950.0999999999983,1.0,0.0,0.0,,Click Response,2_count,5.0,object-49,temp_dist_trial,4.0,t_m_08_1,travel_Miami,flipflops,8.0,unique,paired,t_m_08_1.jpg,Travel,$${counterbalance_group},,sub-98
Desktop or Laptop,Windows 10,Chrome 138.0.0.0,1920x1080,1920x1080,Temporal Distance Task,cb_08,4.0,temp_dist_trial,dist_items,qkpkxw,2.0,info,,3.80000028610084,0.0,3.80000028610084,3.80000028610084,0.0,3.80000028610084,1.0,0.0,0.0,,Slider,Slider,4.0,object-56,temp_dist_trial,4.0,t_m_08_1,travel_Miami,flipflops,8.0,unique,paired,t_m_08_1.jpg,Travel,$${counterbalance_group},,sub-98
Desktop or Laptop,Windows 10,Chrome 138.0.0.0,1920x1080,1920x1080,Temporal Distance Task,cb_08,4.0,temp_dist_trial,dist_items,qkpkxw,2.0,continue,,1524.0999999999985,1519.9000000000015,1524.0999999999985,1524.0999999999985,1519.9000000000015,1524.0999999999985,1.0,0.0,0.0,,Click To Continue,Next button,7.0,object-60,temp_dist_trial,4.0,t_m_08_1,travel_Miami,flipflops,8.0,unique,paired,t_m_08_1.jpg,Travel,$${counterbalance_group},,sub-98
Desktop or Laptop,Windows 10,Chrome 138.0.0.0,1920x1080,1920x1080,Temporal Distance Task,cb_08,4.0,temp_dist_trial,dist_items,qkpkxw,2.0,response,13,720.0,1519.9000000000015,1524.3000002861008,720.0,1519.9000000000015,1524.3000002861008,1.0,804.3000002861007,0.0,,Slider,Slider,4.0,object-56,temp_dist_trial,4.0,t_m_08_1,travel_Miami,flipflops,8.0,unique,paired,t_m_08_1.jpg,Travel,$${counterbalance_group},,sub-98
Desktop or Laptop,Windows 10,Chrome 138.0.0.0,1920x1080,1920x1080,Temporal Distance Task,cb_08,5.0,temp_dist_trial,num_items,zn7si1,1.0,response,2_ITEM,1154.000000190732,1146.7999999999956,1154.000000190732,1154.000000190732,1146.7999999999956,1154.000000190732,1.0,0.0,0.0,,Click Response,2_count,5.0,object-49,temp_dist_trial,5.0,t_s_03_1,travel_shared,portable charger,8.0,competing,single,t_s_03_1.jpg,Travel,$${counterbalance_group},,sub-98
Desktop or Laptop,Windows 10,Chrome 138.0.0.0,1920x1080,1920x1080,Temporal Distance Task,cb_08,5.0,temp_dist_trial,dist_items,qkpkxw,2.0,info,,3.6999999999970896,0.0,3.6999999999970896,3.6999999999970896,0.0,3.6999999999970896,1.0,0.0,0.0,,Slider,Slider,4.0,object-56,temp_dist_trial,5.0,t_s_03_1,travel_shared,portable charger,8.0,competing,single,t_s_03_1.jpg,Travel,$${counterbalance_group},,sub-98
Desktop or Laptop,Windows 10,Chrome 138.0.0.0,1920x1080,1920x1080,Temporal Distance Task,cb_08,5.0,temp_dist_trial,dist_items,qkpkxw,2.0,continue,,2098.300000381467,2093.3999999999937,2098.300000381467,2098.300000381467,2093.3999999999937,2098.300000381467,1.0,0.0,0.0,,Click To Continue,Next button,7.0,object-60,temp_dist_trial,5.0,t_s_03_1,travel_shared,portable charger,8.0,competing,single,t_s_03_1.jpg,Travel,$${counterbalance_group},,sub-98
Desktop or Laptop,Windows 10,Chrome 138.0.0.0,1920x1080,1920x1080,Temporal Distance Task,cb_08,5.0,temp_dist_trial,dist_items,qkpkxw,2.0,response,86,1320.0,2093.3999999999937,2098.6000000953645,1320.0,2093.3999999999937,2098.6000000953645,1.0,778.6000000953645,0.0,,Slider,Slider,4.0,object-56,temp_dist_trial,5.0,t_s_03_1,travel_shared,portable charger,8.0,competing,single,t_s_03_1.jpg,Travel,$${counterbalance_group},,sub-98
Desktop or Laptop,Windows 10,Chrome 138.0.0.0,1920x1080,1920x1080,Temporal Distance Task,cb_08,6.0,temp_dist_trial,num_items,zn7si1,1.0,response,2_ITEM,1134.9000003814724,1133.3000000000031,1134.9000003814724,1134.9000003814724,1133.3000000000031,1134.9000003814724,1.0,0.0,0.0,,Click Response,2_count,5.0,object-49,temp_dist_trial,6.0,t_s_24_1,travel_shared,ear plugs,8.0,competing,paired,t_s_24_1.jpg,Travel,$${counterbalance_group},,sub-98
Desktop or Laptop,Windows 10,Chrome 138.0.0.0,1920x1080,1920x1080,Temporal Distance Task,cb_08,6.0,temp_dist_trial,dist_items,qkpkxw,2.0,info,,2.6999999999970896,0.0,2.6999999999970896,2.6999999999970896,0.0,2.6999999999970896,1.0,0.0,0.0,,Slider,Slider,4.0,object-56,temp_dist_trial,6.0,t_s_24_1,travel_shared,ear plugs,8.0,competing,paired,t_s_24_1.jpg,Travel,$${counterbalance_group},,sub-98
Desktop or Laptop,Windows 10,Chrome 138.0.0.0,1920x1080,1920x1080,Temporal Distance Task,cb_08,6.0,temp_dist_trial,dist_items,qkpkxw,2.0,continue,,1493.4000000000015,1480.0,1493.4000000000015,1493.4000000000015,1480.0,1493.4000000000015,1.0,0.0,0.0,,Click To Continue,Next button,7.0,object-60,temp_dist_trial,6.0,t_s_24_1,travel_shared,ear plugs,8.0,competing,paired,t_s_24_1.jpg,Travel,$${counterbalance_group},,sub-98
Desktop or Laptop,Windows 10,Chrome 138.0.0.0,1920x1080,1920x1080,Temporal Distance Task,cb_08,6.0,temp_dist_trial,dist_items,qkpkxw,2.0,response,70,866.5999999999983,1480.0,1493.4000000000015,866.5999999999983,1480.0,1493.4000000000015,1.0,626.8000000000029,0.0,,Slider,Slider,4.0,object-56,temp_dist_trial,6.0,t_s_24_1,travel_shared,ear plugs,8.0,competing,paired,t_s_24_1.jpg,Travel,$${counterbalance_group},,sub-98
Desktop or Laptop,Windows 10,Chrome 138.0.0.0,1920x1080,1920x1080,Temporal Distance Task,cb_08,7.0,temp_dist_trial,num_items,zn7si1,1.0,response,2_ITEM,1438.1999999999966,1426.5999999999985,1438.1999999999966,1438.1999999999966,1426.5999999999985,1438.1999999999966,1.0,0.0,0.0,,Click Response,2_count,5.0,object-49,temp_dist_trial,7.0,t_i_12_1,travel_Iceland,tent,8.0,unique,paired,t_i_12_1.jpg,Travel,$${counterbalance_group},,sub-98
Desktop or Laptop,Windows 10,Chrome 138.0.0.0,1920x1080,1920x1080,Temporal Distance Task,cb_08,7.0,temp_dist_trial,dist_items,qkpkxw,2.0,info,,4.100000190737774,0.0,4.100000190737774,4.100000190737774,0.0,4.100000190737774,1.0,0.0,0.0,,Slider,Slider,4.0,object-56,temp_dist_trial,7.0,t_i_12_1,travel_Iceland,tent,8.0,unique,paired,t_i_12_1.jpg,Travel,$${counterbalance_group},,sub-98
Desktop or Laptop,Windows 10,Chrome 138.0.0.0,1920x1080,1920x1080,Temporal Distance Task,cb_08,7.0,temp_dist_trial,dist_items,qkpkxw,2.0,continue,,1444.4000003814724,1439.9000000000015,1444.4000003814724,1444.4000003814724,1439.9000000000015,1444.4000003814724,1.0,0.0,0.0,,Click To Continue,Next button,7.0,object-60,temp_dist_trial,7.0,t_i_12_1,travel_Iceland,tent,8.0,unique,paired,t_i_12_1.jpg,Travel,$${counterbalance_group},,sub-98
Desktop or Laptop,Windows 10,Chrome 138.0.0.0,1920x1080,1920x1080,Temporal Distance Task,cb_08,7.0,temp_dist_trial,dist_items,qkpkxw,2.0,response,85,546.6000000000058,1439.9000000000015,1447.2000000953706,546.6000000000058,1439.9000000000015,1447.2000000953706,1.0,900.6000000953645,0.0,,Slider,Slider,4.0,object-56,temp_dist_trial,7.0,t_i_12_1,travel_Iceland,tent,8.0,unique,paired,t_i_12_1.jpg,Travel,$${counterbalance_group},,sub-98
Desktop or Laptop,Windows 10,Chrome 138.0.0.0,1920x1080,1920x1080,Temporal Distance Task,cb_08,8.0,temp_dist_trial,num_items,zn7si1,1.0,response,2_ITEM,1760.1000000000058,1746.7000000000046,1760.1000000000058,1760.1000000000058,1746.7000000000046,1760.1000000000058,1.0,0.0,0.0,,Click Response,2_count,5.0,object-49,temp_dist_trial,8.0,t_s_10_1,travel_shared,luggage lock,8.0,competing,paired,t_s_10_1.jpg,Travel,$${counterbalance_group},,sub-98
Desktop or Laptop,Windows 10,Chrome 138.0.0.0,1920x1080,1920x1080,Temporal Distance Task,cb_08,8.0,temp_dist_trial,dist_items,qkpkxw,2.0,info,,5.000000190731954,0.0,5.000000190731954,5.000000190731954,0.0,5.000000190731954,1.0,0.0,0.0,,Slider,Slider,4.0,object-56,temp_dist_trial,8.0,t_s_10_1,travel_shared,luggage lock,8.0,competing,paired,t_s_10_1.jpg,Travel,$${counterbalance_group},,sub-98
Desktop or Laptop,Windows 10,Chrome 138.0.0.0,1920x1080,1920x1080,Temporal Distance Task,cb_08,8.0,temp_dist_trial,dist_items,qkpkxw,2.0,continue,,1393.1000000953643,1387.3999999999942,1393.1000000953643,1393.1000000953643,1387.3999999999942,1393.1000000953643,1.0,0.0,0.0,,Click To Continue,Next button,7.0,object-60,temp_dist_trial,8.0,t_s_10_1,travel_shared,luggage lock,8.0,competing,paired,t_s_10_1.jpg,Travel,$${counterbalance_group},,sub-98
Desktop or Laptop,Windows 10,Chrome 138.0.0.0,1920x1080,1920x1080,Temporal Distance Task,cb_08,8.0,temp_dist_trial,dist_items,qkpkxw,2.0,response,13,614.0999999999984,1387.3999999999942,1393.3000003814664,614.0999999999984,1387.3999999999942,1393.3000003814664,1.0,779.2000003814682,0.0,,Slider,Slider,4.0,object-56,temp_dist_trial,8.0,t_s_10_1,travel_shared,luggage lock,8.0,competing,paired,t_s_10_1.jpg,Travel,$${counterbalance_group},,sub-98
Desktop or Laptop,Windows 10,Chrome 138.0.0.0,1920x1080,1920x1080,Temporal Distance Task,cb_08,9.0,temp_dist_trial,num_items,zn7si1,1.0,response,1_ITEM,1141.6000001907378,1133.3000000000031,1141.6000001907378,1141.6000001907378,1133.3000000000031,1141.6000001907378,1.0,0.0,0.0,,Click Response,1_count,3.0,object-46,temp_dist_trial,9.0,t_m_20_1,travel_Miami,inflatable beachball,8.0,unique,single,t_m_20_1.jpg,Travel,$${counterbalance_group},,sub-98
Desktop or Laptop,Windows 10,Chrome 138.0.0.0,1920x1080,1920x1080,Temporal Distance Task,cb_08,10.0,temp_dist_trial,num_items,zn7si1,1.0,response,2_ITEM,1144.000000095366,1133.1999999999969,1144.000000095366,1144.000000095366,1133.1999999999969,1144.000000095366,1.0,0.0,0.0,,Click Response,2_count,5.0,object-49,temp_dist_trial,10.0,t_i_03_1,travel_Iceland,winter jacket,8.0,unique,single,t_i_03_1.jpg,Travel,$${counterbalance_group},,sub-98
Desktop or Laptop,Windows 10,Chrome 138.0.0.0,1920x1080,1920x1080,Temporal Distance Task,cb_08,10.0,temp_dist_trial,dist_items,qkpkxw,2.0,info,,2.800000190734864,0.0,2.800000190734864,2.800000190734864,0.0,2.800000190734864,1.0,0.0,0.0,,Slider,Slider,4.0,object-56,temp_dist_trial,10.0,t_i_03_1,travel_Iceland,winter jacket,8.0,unique,single,t_i_03_1.jpg,Travel,$${counterbalance_group},,sub-98
Desktop or Laptop,Windows 10,Chrome 138.0.0.0,1920x1080,1920x1080,Temporal Distance Task,cb_08,10.0,temp_dist_trial,dist_items,qkpkxw,2.0,continue,,1194.5,1186.5999999999985,1194.5,1194.5,1186.5999999999985,1194.5,1.0,0.0,0.0,,Click To Continue,Next button,7.0,object-60,temp_dist_trial,10.0,t_i_03_1,travel_Iceland,winter jacket,8.0,unique,single,t_i_03_1.jpg,Travel,$${counterbalance_group},,sub-98
Desktop or Laptop,Windows 10,Chrome 138.0.0.0,1920x1080,1920x1080,Temporal Distance Task,cb_08,10.0,temp_dist_trial,dist_items,qkpkxw,2.0,response,66,626.5999999999984,1186.5999999999985,1195.0,626.5999999999984,1186.5999999999985,1195.0,1.0,568.4000000000016,0.0,,Slider,Slider,4.0,object-56,temp_dist_trial,10.0,t_i_03_1,travel_Iceland,winter jacket,8.0,unique,single,t_i_03_1.jpg,Travel,$${counterbalance_group},,sub-98
Desktop or Laptop,Windows 10,Chrome 138.0.0.0,1920x1080,1920x1080,Temporal Distance Task,cb_08,11.0,temp_dist_trial,num_items,zn7si1,1.0,response,2_ITEM,872.7000001907362,866.7000000000045,872.7000001907362,872.7000001907362,866.7000000000045,872.7000001907362,1.0,0.0,0.0,,Click Response,2_count,5.0,object-49,temp_dist_trial,11.0,t_s_22_1,travel_shared,belt,8.0,competing,paired,t_s_22_1.jpg,Travel,$${counterbalance_group},,sub-98
Desktop or Laptop,Windows 10,Chrome 138.0.0.0,1920x1080,1920x1080,Temporal Distance Task,cb_08,11.0,temp_dist_trial,dist_items,qkpkxw,2.0,info,,4.5,0.0,4.5,4.5,0.0,4.5,1.0,0.0,0.0,,Slider,Slider,4.0,object-56,temp_dist_trial,11.0,t_s_22_1,travel_shared,belt,8.0,competing,paired,t_s_22_1.jpg,Travel,$${counterbalance_group},,sub-98
Desktop or Laptop,Windows 10,Chrome 138.0.0.0,1920x1080,1920x1080,Temporal Distance Task,cb_08,11.0,temp_dist_trial,dist_items,qkpkxw,2.0,continue,,1223.0,1213.4000000000015,1223.0,1223.0,1213.4000000000015,1223.0,1.0,0.0,0.0,,Click To Continue,Next button,7.0,object-60,temp_dist_trial,11.0,t_s_22_1,travel_shared,belt,8.0,competing,paired,t_s_22_1.jpg,Travel,$${counterbalance_group},,sub-98
Desktop or Laptop,Windows 10,Chrome 138.0.0.0,1920x1080,1920x1080,Temporal Distance Task,cb_08,11.0,temp_dist_trial,dist_items,qkpkxw,2.0,response,16,518.5999999999984,1213.4000000000015,1223.4000000953674,518.5999999999984,1213.4000000000015,1223.4000000953674,1.0,704.8000000953688,0.0,,Slider,Slider,4.0,object-56,temp_dist_trial,11.0,t_s_22_1,travel_shared,belt,8.0,competing,paired,t_s_22_1.jpg,Travel,$${counterbalance_group},,sub-98
Desktop or Laptop,Windows 10,Chrome 138.0.0.0,1920x1080,1920x1080,Temporal Distance Task,cb_08,12.0,temp_dist_trial,num_items,zn7si1,1.0,response,2_ITEM,807.4000001907332,800.0,807.4000001907332,807.4000001907332,800.0,807.4000001907332,1.0,0.0,0.0,,Click Response,2_count,5.0,object-49,temp_dist_trial,12.0,t_s_05_1,travel_shared,neck pillow,8.0,competing,paired,t_s_05_1.jpg,Travel,$${counterbalance_group},,sub-98
Desktop or Laptop,Windows 10,Chrome 138.0.0.0,1920x1080,1920x1080,Temporal Distance Task,cb_08,12.0,temp_dist_trial,dist_items,qkpkxw,2.0,info,,4.000000190731954,0.0,4.000000190731954,4.000000190731954,0.0,4.000000190731954,1.0,0.0,0.0,,Slider,Slider,4.0,object-56,temp_dist_trial,12.0,t_s_05_1,travel_shared,neck pillow,8.0,competing,paired,t_s_05_1.jpg,Travel,$${counterbalance_group},,sub-98
Desktop or Laptop,Windows 10,Chrome 138.0.0.0,1920x1080,1920x1080,Temporal Distance Task,cb_08,12.0,temp_dist_trial,dist_items,qkpkxw,2.0,continue,,1509.1000000953643,1506.5999999999985,1509.1000000953643,1509.1000000953643,1506.5999999999985,1509.1000000953643,1.0,0.0,0.0,,Click To Continue,Next button,7.0,object-60,temp_dist_trial,12.0,t_s_05_1,travel_shared,neck pillow,8.0,competing,paired,t_s_05_1.jpg,Travel,$${counterbalance_group},,sub-98
Desktop or Laptop,Windows 10,Chrome 138.0.0.0,1920x1080,1920x1080,Temporal Distance Task,cb_08,12.0,temp_dist_trial,dist_items,qkpkxw,2.0,response,12,573.2999999999956,1506.5999999999985,1509.3000003814664,573.2999999999956,1506.5999999999985,1509.3000003814664,1.0,936.0000003814713,0.0,,Slider,Slider,4.0,object-56,temp_dist_trial,12.0,t_s_05_1,travel_shared,neck pillow,8.0,competing,paired,t_s_05_1.jpg,Travel,$${counterbalance_group},,sub-98
Desktop or Laptop,Windows 10,Chrome 138.0.0.0,1920x1080,1920x1080,Temporal Distance Task,cb_08,13.0,temp_dist_trial,num_items,zn7si1,1.0,response,1_ITEM,1030.8000002861008,1026.5999999999983,1030.8000002861008,1030.8000002861008,1026.5999999999983,1030.8000002861008,1.0,0.0,0.0,,Click Response,1_count,3.0,object-46,temp_dist_trial,13.0,t_s_19_1,travel_shared,pajamas,8.0,competing,paired,t_s_19_1.jpg,Travel,$${counterbalance_group},,sub-98
Desktop or Laptop,Windows 10,Chrome 138.0.0.0,1920x1080,1920x1080,Temporal Distance Task,cb_08,14.0,temp_dist_trial,num_items,zn7si1,1.0,response,1_ITEM,1113.8000003814666,1106.5999999999983,1113.8000003814666,1113.8000003814666,1106.5999999999983,1113.8000003814666,1.0,0.0,0.0,,Click Response,1_count,3.0,object-46,temp_dist_trial,14.0,t_m_09_1,travel_Miami,beach towel,8.0,unique,paired,t_m_09_1.jpg,Travel,$${counterbalance_group},,sub-98
Desktop or Laptop,Windows 10,Chrome 138.0.0.0,1920x1080,1920x1080,Temporal Distance Task,cb_08,15.0,temp_dist_trial,num_items,zn7si1,1.0,response,2_ITEM,808.000000190732,800.0,808.000000190732,808.000000190732,800.0,808.000000190732,1.0,0.0,0.0,,Click Response,2_count,5.0,object-49,temp_dist_trial,15.0,t_s_21_1,travel_shared,umbrella,8.0,competing,single,t_s_21_1.jpg,Travel,$${counterbalance_group},,sub-98
Desktop or Laptop,Windows 10,Chrome 138.0.0.0,1920x1080,1920x1080,Temporal Distance Task,cb_08,15.0,temp_dist_trial,dist_items,qkpkxw,2.0,info,,2.6000002861037497,0.0,2.6000002861037497,2.6000002861037497,0.0,2.6000002861037497,1.0,0.0,0.0,,Slider,Slider,4.0,object-56,temp_dist_trial,15.0,t_s_21_1,travel_shared,umbrella,8.0,competing,single,t_s_21_1.jpg,Travel,$${counterbalance_group},,sub-98
Desktop or Laptop,Windows 10,Chrome 138.0.0.0,1920x1080,1920x1080,Temporal Distance Task,cb_08,15.0,temp_dist_trial,dist_items,qkpkxw,2.0,continue,,1205.300000095369,1200.0,1205.300000095369,1205.300000095369,1200.0,1205.300000095369,1.0,0.0,0.0,,Click To Continue,Next button,7.0,object-60,temp_dist_trial,15.0,t_s_21_1,travel_shared,umbrella,8.0,competing,single,t_s_21_1.jpg,Travel,$${counterbalance_group},,sub-98
Desktop or Laptop,Windows 10,Chrome 138.0.0.0,1920x1080,1920x1080,Temporal Distance Task,cb_08,15.0,temp_dist_trial,dist_items,qkpkxw,2.0,response,43,640.0,1200.0,1205.6000002861038,640.0,1200.0,1205.6000002861038,1.0,565.6000002861038,0.0,,Slider,Slider,4.0,object-56,temp_dist_trial,15.0,t_s_21_1,travel_shared,umbrella,8.0,competing,single,t_s_21_1.jpg,Travel,$${counterbalance_group},,sub-98
Desktop or Laptop,Windows 10,Chrome 138.0.0.0,1920x1080,1920x1080,Temporal Distance Task,cb_08,16.0,temp_dist_trial,num_items,zn7si1,1.0,response,2_ITEM,1052.3999999999942,1039.0999999999983,1052.3999999999942,1052.3999999999942,1039.0999999999983,1052.3999999999942,1.0,0.0,0.0,,Click Response,2_count,5.0,object-49,temp_dist_trial,16.0,t_m_14_1,travel_Miami,swim goggles,8.0,unique,single,t_m_14_1.jpg,Travel,$${counterbalance_group},,sub-98
Desktop or Laptop,Windows 10,Chrome 138.0.0.0,1920x1080,1920x1080,Temporal Distance Task,cb_08,16.0,temp_dist_trial,dist_items,qkpkxw,2.0,info,,3.1000002861037497,0.0,3.1000002861037497,3.1000002861037497,0.0,3.1000002861037497,1.0,0.0,0.0,,Slider,Slider,4.0,object-56,temp_dist_trial,16.0,t_m_14_1,travel_Miami,swim goggles,8.0,unique,single,t_m_14_1.jpg,Travel,$${counterbalance_group},,sub-98
Desktop or Laptop,Windows 10,Chrome 138.0.0.0,1920x1080,1920x1080,Temporal Distance Task,cb_08,16.0,temp_dist_trial,dist_items,qkpkxw,2.0,continue,,443.60000028610375,440.8000000000029,443.60000028610375,443.60000028610375,440.8000000000029,443.60000028610375,1.0,0.0,0.0,,Click To Continue,Next button,7.0,object-60,temp_dist_trial,16.0,t_m_14_1,travel_Miami,swim goggles,8.0,unique,single,t_m_14_1.jpg,Travel,$${counterbalance_group},,sub-98
Desktop or Laptop,Windows 10,Chrome 138.0.0.0,1920x1080,1920x1080,Temporal Distance Task,cb_08,16.0,temp_dist_trial,dist_items,qkpkxw,2.0,response,,444.10000028610375,440.8000000000029,444.10000028610375,444.10000028610375,440.8000000000029,444.10000028610375,1.0,0.0,0.0,,Slider,Slider,4.0,object-56,temp_dist_trial,16.0,t_m_14_1,travel_Miami,swim goggles,8.0,unique,single,t_m_14_1.jpg,Travel,$${counterbalance_group},,sub-98
Desktop or Laptop,Windows 10,Chrome 138.0.0.0,1920x1080,1920x1080,Temporal Distance Task,cb_08,17.0,temp_dist_trial,num_items,zn7si1,1.0,response,2_ITEM,1207.5999999999985,1199.9999999999927,1207.5999999999985,1207.5999999999985,1199.9999999999927,1207.5999999999985,1.0,0.0,0.0,,Click Response,2_count,5.0,object-49,temp_dist_trial,17.0,t_m_05_1,travel_Miami,sunscreen,8.0,unique,paired,t_m_05_1.jpg,Travel,$${counterbalance_group},,sub-98
Desktop or Laptop,Windows 10,Chrome 138.0.0.0,1920x1080,1920x1080,Temporal Distance Task,cb_08,17.0,temp_dist_trial,dist_items,qkpkxw,2.0,info,,3.6000001907377737,0.0,3.6000001907377737,3.6000001907377737,0.0,3.6000001907377737,1.0,0.0,0.0,,Slider,Slider,4.0,object-56,temp_dist_trial,17.0,t_m_05_1,travel_Miami,sunscreen,8.0,unique,paired,t_m_05_1.jpg,Travel,$${counterbalance_group},,sub-98
Desktop or Laptop,Windows 10,Chrome 138.0.0.0,1920x1080,1920x1080,Temporal Distance Task,cb_08,17.0,temp_dist_trial,dist_items,qkpkxw,2.0,continue,,1406.8000000000034,1400.0,1406.8000000000034,1406.8000000000034,1400.0,1406.8000000000034,1.0,0.0,0.0,,Click To Continue,Next button,7.0,object-60,temp_dist_trial,17.0,t_m_05_1,travel_Miami,sunscreen,8.0,unique,paired,t_m_05_1.jpg,Travel,$${counterbalance_group},,sub-98
Desktop or Laptop,Windows 10,Chrome 138.0.0.0,1920x1080,1920x1080,Temporal Distance Task,cb_08,17.0,temp_dist_trial,dist_items,qkpkxw,2.0,response,73,546.6000000000058,1400.0,1410.3000000000034,546.6000000000058,1400.0,1410.3000000000034,1.0,863.6999999999971,0.0,,Slider,Slider,4.0,object-56,temp_dist_trial,17.0,t_m_05_1,travel_Miami,sunscreen,8.0,unique,paired,t_m_05_1.jpg,Travel,$${counterbalance_group},,sub-98
Desktop or Laptop,Windows 10,Chrome 138.0.0.0,1920x1080,1920x1080,Temporal Distance Task,cb_08,18.0,temp_dist_trial,num_items,zn7si1,1.0,response,1_ITEM,2137.7000000953703,2133.300000000003,2137.7000000953703,2137.7000000953703,2133.300000000003,2137.7000000953703,1.0,0.0,0.0,,Click Response,1_count,3.0,object-46,temp_dist_trial,18.0,t_i_07_1,travel_Iceland,hiking backpack,8.0,unique,single,t_i_07_1.jpg,Travel,$${counterbalance_group},,sub-98
Desktop or Laptop,Windows 10,Chrome 138.0.0.0,1920x1080,1920x1080,Temporal Distance Task,cb_08,19.0,temp_dist_trial,num_items,zn7si1,1.0,response,2_ITEM,1371.2000000953706,1360.0,1371.2000000953706,1371.2000000953706,1360.0,1371.2000000953706,1.0,0.0,0.0,,Click Response,2_count,5.0,object-49,temp_dist_trial,19.0,t_m_13_1,travel_Miami,floatie,8.0,unique,paired,t_m_13_1.jpg,Travel,$${counterbalance_group},,sub-98
Desktop or Laptop,Windows 10,Chrome 138.0.0.0,1920x1080,1920x1080,Temporal Distance Task,cb_08,19.0,temp_dist_trial,dist_items,qkpkxw,2.0,info,,4.200000286102295,0.0,4.200000286102295,4.200000286102295,0.0,4.200000286102295,1.0,0.0,0.0,,Slider,Slider,4.0,object-56,temp_dist_trial,19.0,t_m_13_1,travel_Miami,floatie,8.0,unique,paired,t_m_13_1.jpg,Travel,$${counterbalance_group},,sub-98
Desktop or Laptop,Windows 10,Chrome 138.0.0.0,1920x1080,1920x1080,Temporal Distance Task,cb_08,19.0,temp_dist_trial,dist_items,qkpkxw,2.0,continue,,1151.8000001907346,1146.6000000000058,1151.8000001907346,1151.8000001907346,1146.6000000000058,1151.8000001907346,1.0,0.0,0.0,,Click To Continue,Next button,7.0,object-60,temp_dist_trial,19.0,t_m_13_1,travel_Miami,floatie,8.0,unique,paired,t_m_13_1.jpg,Travel,$${counterbalance_group},,sub-98
Desktop or Laptop,Windows 10,Chrome 138.0.0.0,1920x1080,1920x1080,Temporal Distance Task,cb_08,19.0,temp_dist_trial,dist_items,qkpkxw,2.0,response,35,480.0,1146.6000000000058,1152.2000002861025,480.0,1146.6000000000058,1152.2000002861025,1.0,672.2000002861022,0.0,,Slider,Slider,4.0,object-56,temp_dist_trial,19.0,t_m_13_1,travel_Miami,floatie,8.0,unique,paired,t_m_13_1.jpg,Travel,$${counterbalance_group},,sub-98
Desktop or Laptop,Windows 10,Chrome 138.0.0.0,1920x1080,1920x1080,Temporal Distance Task,cb_08,20.0,temp_dist_trial,num_items,zn7si1,1.0,response,2_ITEM,835.3999999999942,825.5999999999913,835.3999999999942,835.3999999999942,825.5999999999913,835.3999999999942,1.0,0.0,0.0,,Click Response,2_count,5.0,object-49,temp_dist_trial,20.0,t_s_14_1,travel_shared,hand sanitizer,8.0,competing,single,t_s_14_1.jpg,Travel,$${counterbalance_group},,sub-98
Desktop or Laptop,Windows 10,Chrome 138.0.0.0,1920x1080,1920x1080,Temporal Distance Task,cb_08,20.0,temp_dist_trial,dist_items,qkpkxw,2.0,info,,3.3999999999941792,0.0,3.3999999999941792,3.3999999999941792,0.0,3.3999999999941792,1.0,0.0,0.0,,Slider,Slider,4.0,object-56,temp_dist_trial,20.0,t_s_14_1,travel_shared,hand sanitizer,8.0,competing,single,t_s_14_1.jpg,Travel,$${counterbalance_group},,sub-98
Desktop or Laptop,Windows 10,Chrome 138.0.0.0,1920x1080,1920x1080,Temporal Distance Task,cb_08,20.0,temp_dist_trial,dist_items,qkpkxw,2.0,continue,,1249.3999999999942,1239.8999999999942,1249.3999999999942,1249.3999999999942,1239.8999999999942,1249.3999999999942,1.0,0.0,0.0,,Click To Continue,Next button,7.0,object-60,temp_dist_trial,20.0,t_s_14_1,travel_shared,hand sanitizer,8.0,competing,single,t_s_14_1.jpg,Travel,$${counterbalance_group},,sub-98
Desktop or Laptop,Windows 10,Chrome 138.0.0.0,1920x1080,1920x1080,Temporal Distance Task,cb_08,20.0,temp_dist_trial,dist_items,qkpkxw,2.0,response,34,439.0,1239.8999999999942,1249.8000000953614,439.0,1239.8999999999942,1249.8000000953614,1.0,810.8000000953616,0.0,,Slider,Slider,4.0,object-56,temp_dist_trial,20.0,t_s_14_1,travel_shared,hand sanitizer,8.0,competing,single,t_s_14_1.jpg,Travel,$${counterbalance_group},,sub-98
Desktop or Laptop,Windows 10,Chrome 138.0.0.0,1920x1080,1920x1080,Temporal Distance Task,cb_08,21.0,temp_dist_trial,num_items,zn7si1,1.0,response,1_ITEM,1082.5,1079.8999999999942,1082.5,1082.5,1079.8999999999942,1082.5,1.0,0.0,0.0,,Click Response,1_count,3.0,object-46,temp_dist_trial,21.0,t_s_12_1,travel_shared,clear toiletry bag,8.0,competing,single,t_s_12_1.jpg,Travel,$${counterbalance_group},,sub-98
Desktop or Laptop,Windows 10,Chrome 138.0.0.0,1920x1080,1920x1080,Temporal Distance Task,cb_08,22.0,temp_dist_trial,num_items,zn7si1,1.0,response,2_ITEM,852.0999999999913,838.6999999999971,852.0999999999913,852.0999999999913,838.6999999999971,852.0999999999913,1.0,0.0,0.0,,Click Response,2_count,5.0,object-49,temp_dist_trial,22.0,t_s_01_1,travel_shared,fanny pack,8.0,competing,paired,t_s_01_1.jpg,Travel,$${counterbalance_group},,sub-98
Desktop or Laptop,Windows 10,Chrome 138.0.0.0,1920x1080,1920x1080,Temporal Distance Task,cb_08,22.0,temp_dist_trial,dist_items,qkpkxw,2.0,info,,3.0000002861052053,0.0,3.0000002861052053,3.0000002861052053,0.0,3.0000002861052053,1.0,0.0,0.0,,Slider,Slider,4.0,object-56,temp_dist_trial,22.0,t_s_01_1,travel_shared,fanny pack,8.0,competing,paired,t_s_01_1.jpg,Travel,$${counterbalance_group},,sub-98
Desktop or Laptop,Windows 10,Chrome 138.0.0.0,1920x1080,1920x1080,Temporal Distance Task,cb_08,22.0,temp_dist_trial,dist_items,qkpkxw,2.0,continue,,1238.8000000000031,1226.6000000000058,1238.8000000000031,1238.8000000000031,1226.6000000000058,1238.8000000000031,1.0,0.0,0.0,,Click To Continue,Next button,7.0,object-60,temp_dist_trial,22.0,t_s_01_1,travel_shared,fanny pack,8.0,competing,paired,t_s_01_1.jpg,Travel,$${counterbalance_group},,sub-98
Desktop or Laptop,Windows 10,Chrome 138.0.0.0,1920x1080,1920x1080,Temporal Distance Task,cb_08,22.0,temp_dist_trial,dist_items,qkpkxw,2.0,response,82,626.6000000000057,1226.6000000000058,1240.0000000000146,626.6000000000057,1226.6000000000058,1240.0000000000146,1.0,613.4000000000087,0.0,,Slider,Slider,4.0,object-56,temp_dist_trial,22.0,t_s_01_1,travel_shared,fanny pack,8.0,competing,paired,t_s_01_1.jpg,Travel,$${counterbalance_group},,sub-98
Desktop or Laptop,Windows 10,Chrome 138.0.0.0,1920x1080,1920x1080,Temporal Distance Task,cb_08,23.0,temp_dist_trial,num_items,zn7si1,1.0,response,1_ITEM,1567.3000003814664,1559.8999999999942,1567.3000003814664,1567.3000003814664,1559.8999999999942,1567.3000003814664,1.0,0.0,0.0,,Click Response,1_count,3.0,object-46,temp_dist_trial,23.0,t_s_02_1,travel_shared,water bottle,8.0,competing,single,t_s_02_1.jpg,Travel,$${counterbalance_group},,sub-98
Desktop or Laptop,Windows 10,Chrome 138.0.0.0,1920x1080,1920x1080,Temporal Distance Task,cb_08,24.0,temp_dist_trial,num_items,zn7si1,1.0,response,1_ITEM,884.1000002860965,879.8999999999942,884.1000002860965,884.1000002860965,879.8999999999942,884.1000002860965,1.0,0.0,0.0,,Click Response,1_count,3.0,object-46,temp_dist_trial,24.0,t_m_06_1,travel_Miami,handheld fan,8.0,unique,paired,t_m_06_1.jpg,Travel,$${counterbalance_group},,sub-98
Desktop or Laptop,Windows 10,Chrome 138.0.0.0,1920x1080,1920x1080,Temporal Distance Task,cb_08,25.0,temp_dist_trial,num_items,zn7si1,1.0,response,2_ITEM,751.4000001907408,746.6000000000058,751.4000001907408,751.4000001907408,746.6000000000058,751.4000001907408,1.0,0.0,0.0,,Click Response,2_count,5.0,object-49,temp_dist_trial,25.0,t_i_16_1,travel_Iceland,skis,8.0,unique,paired,t_i_16_1.jpg,Travel,$${counterbalance_group},,sub-98
Desktop or Laptop,Windows 10,Chrome 138.0.0.0,1920x1080,1920x1080,Temporal Distance Task,cb_08,25.0,temp_dist_trial,dist_items,qkpkxw,2.0,info,,3.0000000953732524,0.0,3.0000000953732524,3.0000000953732524,0.0,3.0000000953732524,1.0,0.0,0.0,,Slider,Slider,4.0,object-56,temp_dist_trial,25.0,t_i_16_1,travel_Iceland,skis,8.0,unique,paired,t_i_16_1.jpg,Travel,$${counterbalance_group},,sub-98
Desktop or Laptop,Windows 10,Chrome 138.0.0.0,1920x1080,1920x1080,Temporal Distance Task,cb_08,25.0,temp_dist_trial,dist_items,qkpkxw,2.0,continue,,1171.5000000953733,1159.9000000000087,1171.5000000953733,1171.5000000953733,1159.9000000000087,1171.5000000953733,1.0,0.0,0.0,,Click To Continue,Next button,7.0,object-60,temp_dist_trial,25.0,t_i_16_1,travel_Iceland,skis,8.0,unique,paired,t_i_16_1.jpg,Travel,$${counterbalance_group},,sub-98
Desktop or Laptop,Windows 10,Chrome 138.0.0.0,1920x1080,1920x1080,Temporal Distance Task,cb_08,25.0,temp_dist_trial,dist_items,qkpkxw,2.0,response,20,453.2000000000117,1159.9000000000087,1171.900000190741,453.2000000000117,1159.9000000000087,1171.900000190741,1.0,718.700000190729,0.0,,Slider,Slider,4.0,object-56,temp_dist_trial,25.0,t_i_16_1,travel_Iceland,skis,8.0,unique,paired,t_i_16_1.jpg,Travel,$${counterbalance_group},,sub-98
Desktop or Laptop,Windows 10,Chrome 138.0.0.0,1920x1080,1920x1080,Temporal Distance Task,cb_08,26.0,temp_dist_trial,num_items,zn7si1,1.0,response,2_ITEM,780.4000002860994,773.3999999999942,780.4000002860994,780.4000002860994,773.3999999999942,780.4000002860994,1.0,0.0,0.0,,Click Response,2_count,5.0,object-49,temp_dist_trial,26.0,t_i_01_1,travel_Iceland,gloves,8.0,unique,paired,t_i_01_1.jpg,Travel,$${counterbalance_group},,sub-98
Desktop or Laptop,Windows 10,Chrome 138.0.0.0,1920x1080,1920x1080,Temporal Distance Task,cb_08,26.0,temp_dist_trial,dist_items,qkpkxw,2.0,info,,4.400000095367432,0.0,4.400000095367432,4.400000095367432,0.0,4.400000095367432,1.0,0.0,0.0,,Slider,Slider,4.0,object-56,temp_dist_trial,26.0,t_i_01_1,travel_Iceland,gloves,8.0,unique,paired,t_i_01_1.jpg,Travel,$${counterbalance_group},,sub-98
Desktop or Laptop,Windows 10,Chrome 138.0.0.0,1920x1080,1920x1080,Temporal Distance Task,cb_08,26.0,temp_dist_trial,dist_items,qkpkxw,2.0,continue,,640.3000001907349,638.8000000000029,640.3000001907349,640.3000001907349,638.8000000000029,640.3000001907349,1.0,0.0,0.0,,Click To Continue,Next button,7.0,object-60,temp_dist_trial,26.0,t_i_01_1,travel_Iceland,gloves,8.0,unique,paired,t_i_01_1.jpg,Travel,$${counterbalance_group},,sub-98
Desktop or Laptop,Windows 10,Chrome 138.0.0.0,1920x1080,1920x1080,Temporal Distance Task,cb_08,26.0,temp_dist_trial,dist_items,qkpkxw,2.0,response,,640.6000003814697,638.8000000000029,640.6000003814697,640.6000003814697,638.8000000000029,640.6000003814697,1.0,0.0,0.0,,Slider,Slider,4.0,object-56,temp_dist_trial,26.0,t_i_01_1,travel_Iceland,gloves,8.0,unique,paired,t_i_01_1.jpg,Travel,$${counterbalance_group},,sub-98
Desktop or Laptop,Windows 10,Chrome 138.0.0.0,1920x1080,1920x1080,Temporal Distance Task,cb_08,27.0,temp_dist_trial,num_items,zn7si1,1.0,response,1_ITEM,1031.000000190732,1027.8000000000031,1031.000000190732,1031.000000190732,1027.8000000000031,1031.000000190732,1.0,0.0,0.0,,Click Response,1_count,3.0,object-46,temp_dist_trial,27.0,t_m_10_1,travel_Miami,tanktop,8.0,unique,single,t_m_10_1.jpg,Travel,$${counterbalance_group},,sub-98
Desktop or Laptop,Windows 10,Chrome 138.0.0.0,1920x1080,1920x1080,Temporal Distance Task,cb_08,28.0,temp_dist_trial,num_items,zn7si1,1.0,response,2_ITEM,1262.9000000953674,1253.3000000000031,1262.9000000953674,1262.9000000953674,1253.3000000000031,1262.9000000953674,1.0,0.0,0.0,,Click Response,2_count,5.0,object-49,temp_dist_trial,28.0,t_s_15_1,travel_shared,luggage tag,8.0,competing,paired,t_s_15_1.jpg,Travel,$${counterbalance_group},,sub-98
Desktop or Laptop,Windows 10,Chrome 138.0.0.0,1920x1080,1920x1080,Temporal Distance Task,cb_08,28.0,temp_dist_trial,dist_items,qkpkxw,2.0,info,,3.5000003814639062,0.0,3.5000003814639062,3.5000003814639062,0.0,3.5000003814639062,1.0,0.0,0.0,,Slider,Slider,4.0,object-56,temp_dist_trial,28.0,t_s_15_1,travel_shared,luggage tag,8.0,competing,paired,t_s_15_1.jpg,Travel,$${counterbalance_group},,sub-98
Desktop or Laptop,Windows 10,Chrome 138.0.0.0,1920x1080,1920x1080,Temporal Distance Task,cb_08,28.0,temp_dist_trial,dist_items,qkpkxw,2.0,continue,,861.6000002860965,853.2999999999884,861.6000002860965,861.6000002860965,853.2999999999884,861.6000002860965,1.0,0.0,0.0,,Click To Continue,Next button,7.0,object-60,temp_dist_trial,28.0,t_s_15_1,travel_shared,luggage tag,8.0,competing,paired,t_s_15_1.jpg,Travel,$${counterbalance_group},,sub-98
Desktop or Laptop,Windows 10,Chrome 138.0.0.0,1920x1080,1920x1080,Temporal Distance Task,cb_08,28.0,temp_dist_trial,dist_items,qkpkxw,2.0,response,62,373.2999999999884,853.2999999999884,864.8000000953616,373.2999999999884,853.2999999999884,864.8000000953616,1.0,491.50000009537325,0.0,,Slider,Slider,4.0,object-56,temp_dist_trial,28.0,t_s_15_1,travel_shared,luggage tag,8.0,competing,paired,t_s_15_1.jpg,Travel,$${counterbalance_group},,sub-98
Desktop or Laptop,Windows 10,Chrome 138.0.0.0,1920x1080,1920x1080,Temporal Distance Task,cb_08,29.0,temp_dist_trial,num_items,zn7si1,1.0,response,2_ITEM,1447.1000000000058,1440.0,1447.1000000000058,1447.1000000000058,1440.0,1447.1000000000058,1.0,0.0,0.0,,Click Response,2_count,5.0,object-49,temp_dist_trial,29.0,t_s_13_1,travel_shared,contact lens case,8.0,competing,paired,t_s_13_1.jpg,Travel,$${counterbalance_group},,sub-98
Desktop or Laptop,Windows 10,Chrome 138.0.0.0,1920x1080,1920x1080,Temporal Distance Task,cb_08,29.0,temp_dist_trial,dist_items,qkpkxw,2.0,info,,4.0000002861052035,0.0,4.0000002861052035,4.0000002861052035,0.0,4.0000002861052035,1.0,0.0,0.0,,Slider,Slider,4.0,object-56,temp_dist_trial,29.0,t_s_13_1,travel_shared,contact lens case,8.0,competing,paired,t_s_13_1.jpg,Travel,$${counterbalance_group},,sub-98
Desktop or Laptop,Windows 10,Chrome 138.0.0.0,1920x1080,1920x1080,Temporal Distance Task,cb_08,29.0,temp_dist_trial,dist_items,qkpkxw,2.0,continue,,1254.6000001907378,1253.3000000000031,1254.6000001907378,1254.6000001907378,1253.3000000000031,1254.6000001907378,1.0,0.0,0.0,,Click To Continue,Next button,7.0,object-60,temp_dist_trial,29.0,t_s_13_1,travel_shared,contact lens case,8.0,competing,paired,t_s_13_1.jpg,Travel,$${counterbalance_group},,sub-98
Desktop or Laptop,Windows 10,Chrome 138.0.0.0,1920x1080,1920x1080,Temporal Distance Task,cb_08,29.0,temp_dist_trial,dist_items,qkpkxw,2.0,response,40,733.4000000000087,1253.3000000000031,1254.9000003814724,733.4000000000087,1253.3000000000031,1254.9000003814724,1.0,521.5000003814639,0.0,,Slider,Slider,4.0,object-56,temp_dist_trial,29.0,t_s_13_1,travel_shared,contact lens case,8.0,competing,paired,t_s_13_1.jpg,Travel,$${counterbalance_group},,sub-98
Desktop or Laptop,Windows 10,Chrome 138.0.0.0,1920x1080,1920x1080,Temporal Distance Task,cb_08,30.0,temp_dist_trial,num_items,zn7si1,1.0,response,2_ITEM,859.3000001907349,853.3000000000029,859.3000001907349,859.3000001907349,853.3000000000029,859.3000001907349,1.0,0.0,0.0,,Click Response,2_count,5.0,object-49,temp_dist_trial,30.0,t_m_03_1,travel_Miami,wetsuit,8.0,unique,paired,t_m_03_1.jpg,Travel,$${counterbalance_group},,sub-98
Desktop or Laptop,Windows 10,Chrome 138.0.0.0,1920x1080,1920x1080,Temporal Distance Task,cb_08,30.0,temp_dist_trial,dist_items,qkpkxw,2.0,info,,3.3999999999941792,0.0,3.3999999999941792,3.3999999999941792,0.0,3.3999999999941792,1.0,0.0,0.0,,Slider,Slider,4.0,object-56,temp_dist_trial,30.0,t_m_03_1,travel_Miami,wetsuit,8.0,unique,paired,t_m_03_1.jpg,Travel,$${counterbalance_group},,sub-98
Desktop or Laptop,Windows 10,Chrome 138.0.0.0,1920x1080,1920x1080,Temporal Distance Task,cb_08,30.0,temp_dist_trial,dist_items,qkpkxw,2.0,continue,,1143.8000000953614,1133.3999999999942,1143.8000000953614,1143.8000000953614,1133.3999999999942,1143.8000000953614,1.0,0.0,0.0,,Click To Continue,Next button,7.0,object-60,temp_dist_trial,30.0,t_m_03_1,travel_Miami,wetsuit,8.0,unique,paired,t_m_03_1.jpg,Travel,$${counterbalance_group},,sub-98
Desktop or Laptop,Windows 10,Chrome 138.0.0.0,1920x1080,1920x1080,Temporal Distance Task,cb_08,30.0,temp_dist_trial,dist_items,qkpkxw,2.0,response,26,493.3999999999942,1133.3999999999942,1144.200000190729,493.3999999999942,1133.3999999999942,1144.200000190729,1.0,650.8000001907349,0.0,,Slider,Slider,4.0,object-56,temp_dist_trial,30.0,t_m_03_1,travel_Miami,wetsuit,8.0,unique,paired,t_m_03_1.jpg,Travel,$${counterbalance_group},,sub-98
Desktop or Laptop,Windows 10,Chrome 138.0.0.0,1920x1080,1920x1080,Temporal Distance Task,cb_08,31.0,temp_dist_trial,num_items,zn7si1,1.0,response,1_ITEM,1144.3000001907346,1133.1999999999969,1144.3000001907346,1144.3000001907346,1133.1999999999969,1144.3000001907346,1.0,0.0,0.0,,Click Response,1_count,3.0,object-46,temp_dist_trial,31.0,t_i_02_1,travel_Iceland,scarf,8.0,unique,single,t_i_02_1.jpg,Travel,$${counterbalance_group},,sub-98
Desktop or Laptop,Windows 10,Chrome 138.0.0.0,1920x1080,1920x1080,Temporal Distance Task,cb_08,32.0,temp_dist_trial,num_items,zn7si1,1.0,response,2_ITEM,847.1000002860965,839.8999999999942,847.1000002860965,847.1000002860965,839.8999999999942,847.1000002860965,1.0,0.0,0.0,,Click Response,2_count,5.0,object-49,temp_dist_trial,32.0,t_s_16_1,travel_shared,chapstick,8.0,competing,single,t_s_16_1.jpg,Travel,$${counterbalance_group},,sub-98
Desktop or Laptop,Windows 10,Chrome 138.0.0.0,1920x1080,1920x1080,Temporal Distance Task,cb_08,32.0,temp_dist_trial,dist_items,qkpkxw,2.0,info,,3.5000000953732524,0.0,3.5000000953732524,3.5000000953732524,0.0,3.5000000953732524,1.0,0.0,0.0,,Slider,Slider,4.0,object-56,temp_dist_trial,32.0,t_s_16_1,travel_shared,chapstick,8.0,competing,single,t_s_16_1.jpg,Travel,$${counterbalance_group},,sub-98
Desktop or Laptop,Windows 10,Chrome 138.0.0.0,1920x1080,1920x1080,Temporal Distance Task,cb_08,32.0,temp_dist_trial,dist_items,qkpkxw,2.0,continue,,788.7000003814755,786.6000000000058,788.7000003814755,788.7000003814755,786.6000000000058,788.7000003814755,1.0,0.0,0.0,,Click To Continue,Next button,7.0,object-60,temp_dist_trial,32.0,t_s_16_1,travel_shared,chapstick,8.0,competing,single,t_s_16_1.jpg,Travel,$${counterbalance_group},,sub-98
Desktop or Laptop,Windows 10,Chrome 138.0.0.0,1920x1080,1920x1080,Temporal Distance Task,cb_08,32.0,temp_dist_trial,dist_items,qkpkxw,2.0,response,64,333.40000000000873,786.6000000000058,789.1000000000058,333.40000000000873,786.6000000000058,789.1000000000058,1.0,455.6999999999971,0.0,,Slider,Slider,4.0,object-56,temp_dist_trial,32.0,t_s_16_1,travel_shared,chapstick,8.0,competing,single,t_s_16_1.jpg,Travel,$${counterbalance_group},,sub-98
Desktop or Laptop,Windows 10,Chrome 138.0.0.0,1920x1080,1920x1080,Temporal Distance Task,cb_08,33.0,temp_dist_trial,num_items,zn7si1,1.0,response,1_ITEM,892.8000001907349,880.0,892.8000001907349,892.8000001907349,880.0,892.8000001907349,1.0,0.0,0.0,,Click Response,1_count,3.0,object-46,temp_dist_trial,33.0,t_i_17_1,travel_Iceland,binoculars,8.0,unique,single,t_i_17_1.jpg,Travel,$${counterbalance_group},,sub-98
Desktop or Laptop,Windows 10,Chrome 138.0.0.0,1920x1080,1920x1080,Temporal Distance Task,cb_08,34.0,temp_dist_trial,num_items,zn7si1,1.0,response,1_ITEM,1484.9000002860996,1480.0,1484.9000002860996,1484.9000002860996,1480.0,1484.9000002860996,1.0,0.0,0.0,,Click Response,1_count,3.0,object-46,temp_dist_trial,34.0,t_s_04_1,travel_shared,instant camera,8.0,competing,paired,t_s_04_1.jpg,Travel,$${counterbalance_group},,sub-98
Desktop or Laptop,Windows 10,Chrome 138.0.0.0,1920x1080,1920x1080,Temporal Distance Task,cb_08,35.0,temp_dist_trial,num_items,zn7si1,1.0,response,2_ITEM,912.2000000953703,906.6000000000058,912.2000000953703,912.2000000953703,906.6000000000058,912.2000000953703,1.0,0.0,0.0,,Click Response,2_count,5.0,object-49,temp_dist_trial,35.0,t_s_08_1,travel_shared,hand lotion,8.0,competing,paired,t_s_08_1.jpg,Travel,$${counterbalance_group},,sub-98
Desktop or Laptop,Windows 10,Chrome 138.0.0.0,1920x1080,1920x1080,Temporal Distance Task,cb_08,35.0,temp_dist_trial,dist_items,qkpkxw,2.0,info,,3.6000002860964733,0.0,3.6000002860964733,3.6000002860964733,0.0,3.6000002860964733,1.0,0.0,0.0,,Slider,Slider,4.0,object-56,temp_dist_trial,35.0,t_s_08_1,travel_shared,hand lotion,8.0,competing,paired,t_s_08_1.jpg,Travel,$${counterbalance_group},,sub-98
Desktop or Laptop,Windows 10,Chrome 138.0.0.0,1920x1080,1920x1080,Temporal Distance Task,cb_08,35.0,temp_dist_trial,dist_items,qkpkxw,2.0,continue,,1118.3999999999942,1106.5999999999913,1118.3999999999942,1118.3999999999942,1106.5999999999913,1118.3999999999942,1.0,0.0,0.0,,Click To Continue,Next button,7.0,object-60,temp_dist_trial,35.0,t_s_08_1,travel_shared,hand lotion,8.0,competing,paired,t_s_08_1.jpg,Travel,$${counterbalance_group},,sub-98
Desktop or Laptop,Windows 10,Chrome 138.0.0.0,1920x1080,1920x1080,Temporal Distance Task,cb_08,35.0,temp_dist_trial,dist_items,qkpkxw,2.0,response,74,560.0,1106.5999999999913,1118.700000190729,560.0,1106.5999999999913,1118.700000190729,1.0,558.700000190729,0.0,,Slider,Slider,4.0,object-56,temp_dist_trial,35.0,t_s_08_1,travel_shared,hand lotion,8.0,competing,paired,t_s_08_1.jpg,Travel,$${counterbalance_group},,sub-98
Desktop or Laptop,Windows 10,Chrome 138.0.0.0,1920x1080,1920x1080,Temporal Distance Task,cb_08,36.0,temp_dist_trial,num_items,zn7si1,1.0,response,2_ITEM,1458.9000003814724,1453.400000000009,1458.9000003814724,1458.9000003814724,1453.400000000009,1458.9000003814724,1.0,0.0,0.0,,Click Response,2_count,5.0,object-49,temp_dist_trial,36.0,t_i_04_1,travel_Iceland,portable camping stove,8.0,unique,paired,t_i_04_1.jpg,Travel,$${counterbalance_group},,sub-98
Desktop or Laptop,Windows 10,Chrome 138.0.0.0,1920x1080,1920x1080,Temporal Distance Task,cb_08,36.0,temp_dist_trial,dist_items,qkpkxw,2.0,info,,4.200000381475547,0.0,4.200000381475547,4.200000381475547,0.0,4.200000381475547,1.0,0.0,0.0,,Slider,Slider,4.0,object-56,temp_dist_trial,36.0,t_i_04_1,travel_Iceland,portable camping stove,8.0,unique,paired,t_i_04_1.jpg,Travel,$${counterbalance_group},,sub-98
Desktop or Laptop,Windows 10,Chrome 138.0.0.0,1920x1080,1920x1080,Temporal Distance Task,cb_08,36.0,temp_dist_trial,dist_items,qkpkxw,2.0,continue,,1495.6000000000058,1493.3000000000034,1495.6000000000058,1495.6000000000058,1493.3000000000034,1495.6000000000058,1.0,0.0,0.0,,Click To Continue,Next button,7.0,object-60,temp_dist_trial,36.0,t_i_04_1,travel_Iceland,portable camping stove,8.0,unique,paired,t_i_04_1.jpg,Travel,$${counterbalance_group},,sub-98
Desktop or Laptop,Windows 10,Chrome 138.0.0.0,1920x1080,1920x1080,Temporal Distance Task,cb_08,36.0,temp_dist_trial,dist_items,qkpkxw,2.0,response,86,733.3000000000029,1493.3000000000034,1495.9000001907407,733.3000000000029,1493.3000000000034,1495.9000001907407,1.0,762.6000001907378,0.0,,Slider,Slider,4.0,object-56,temp_dist_trial,36.0,t_i_04_1,travel_Iceland,portable camping stove,8.0,unique,paired,t_i_04_1.jpg,Travel,$${counterbalance_group},,sub-98
Desktop or Laptop,Windows 10,Chrome 138.0.0.0,1920x1080,1920x1080,Temporal Distance Task,cb_08,37.0,temp_dist_trial,num_items,zn7si1,1.0,response,1_ITEM,1115.7000000953703,1106.6000000000058,1115.7000000953703,1115.7000000953703,1106.6000000000058,1115.7000000953703,1.0,0.0,0.0,,Click Response,1_count,3.0,object-46,temp_dist_trial,37.0,t_m_04_1,travel_Miami,UV jacket,8.0,unique,single,t_m_04_1.jpg,Travel,$${counterbalance_group},,sub-98
Desktop or Laptop,Windows 10,Chrome 138.0.0.0,1920x1080,1920x1080,Temporal Distance Task,cb_08,38.0,temp_dist_trial,num_items,zn7si1,1.0,response,2_ITEM,1153.8000000000031,1146.5,1153.8000000000031,1153.8000000000031,1146.5,1153.8000000000031,1.0,0.0,0.0,,Click Response,2_count,5.0,object-49,temp_dist_trial,38.0,t_i_14_1,travel_Iceland,snow pants,8.0,unique,paired,t_i_14_1.jpg,Travel,$${counterbalance_group},,sub-98
Desktop or Laptop,Windows 10,Chrome 138.0.0.0,1920x1080,1920x1080,Temporal Distance Task,cb_08,38.0,temp_dist_trial,dist_items,qkpkxw,2.0,info,,2.7000001907290425,0.0,2.7000001907290425,2.7000001907290425,0.0,2.7000001907290425,1.0,0.0,0.0,,Slider,Slider,4.0,object-56,temp_dist_trial,38.0,t_i_14_1,travel_Iceland,snow pants,8.0,unique,paired,t_i_14_1.jpg,Travel,$${counterbalance_group},,sub-98
Desktop or Laptop,Windows 10,Chrome 138.0.0.0,1920x1080,1920x1080,Temporal Distance Task,cb_08,38.0,temp_dist_trial,dist_items,qkpkxw,2.0,continue,,1368.8000000953614,1360.0,1368.8000000953614,1368.8000000953614,1360.0,1368.8000000953614,1.0,0.0,0.0,,Click To Continue,Next button,7.0,object-60,temp_dist_trial,38.0,t_i_14_1,travel_Iceland,snow pants,8.0,unique,paired,t_i_14_1.jpg,Travel,$${counterbalance_group},,sub-98
Desktop or Laptop,Windows 10,Chrome 138.0.0.0,1920x1080,1920x1080,Temporal Distance Task,cb_08,38.0,temp_dist_trial,dist_items,qkpkxw,2.0,response,31,533.2999999999884,1360.0,1369.200000190729,533.2999999999884,1360.0,1369.200000190729,1.0,835.9000001907408,0.0,,Slider,Slider,4.0,object-56,temp_dist_trial,38.0,t_i_14_1,travel_Iceland,snow pants,8.0,unique,paired,t_i_14_1.jpg,Travel,$${counterbalance_group},,sub-98
Desktop or Laptop,Windows 10,Chrome 138.0.0.0,1920x1080,1920x1080,Temporal Distance Task,cb_08,39.0,temp_dist_trial,num_items,zn7si1,1.0,response,2_ITEM,1798.6000002860965,1786.599999999991,1798.6000002860965,1798.6000002860965,1786.599999999991,1798.6000002860965,1.0,0.0,0.0,,Click Response,2_count,5.0,object-49,temp_dist_trial,39.0,t_i_06_1,travel_Iceland,knit hat,8.0,unique,paired,t_i_06_1.jpg,Travel,$${counterbalance_group},,sub-98
Desktop or Laptop,Windows 10,Chrome 138.0.0.0,1920x1080,1920x1080,Temporal Distance Task,cb_08,39.0,temp_dist_trial,dist_items,qkpkxw,2.0,info,,3.0,0.0,3.0,3.0,0.0,3.0,1.0,0.0,0.0,,Slider,Slider,4.0,object-56,temp_dist_trial,39.0,t_i_06_1,travel_Iceland,knit hat,8.0,unique,paired,t_i_06_1.jpg,Travel,$${counterbalance_group},,sub-98
Desktop or Laptop,Windows 10,Chrome 138.0.0.0,1920x1080,1920x1080,Temporal Distance Task,cb_08,39.0,temp_dist_trial,dist_items,qkpkxw,2.0,continue,,1037.1000003814695,1026.6000000000058,1037.1000003814695,1037.1000003814695,1026.6000000000058,1037.1000003814695,1.0,0.0,0.0,,Click To Continue,Next button,7.0,object-60,temp_dist_trial,39.0,t_i_06_1,travel_Iceland,knit hat,8.0,unique,paired,t_i_06_1.jpg,Travel,$${counterbalance_group},,sub-98
Desktop or Laptop,Windows 10,Chrome 138.0.0.0,1920x1080,1920x1080,Temporal Distance Task,cb_08,39.0,temp_dist_trial,dist_items,qkpkxw,2.0,response,,1037.3000001907346,1026.6000000000058,1037.3000001907346,1037.3000001907346,1026.6000000000058,1037.3000001907346,1.0,0.0,0.0,,Slider,Slider,4.0,object-56,temp_dist_trial,39.0,t_i_06_1,travel_Iceland,knit hat,8.0,unique,paired,t_i_06_1.jpg,Travel,$${counterbalance_group},,sub-98
Desktop or Laptop,Windows 10,Chrome 138.0.0.0,1920x1080,1920x1080,Temporal Distance Task,cb_08,40.0,temp_dist_trial,num_items,zn7si1,1.0,response,2_ITEM,843.3999999999942,840.0,843.3999999999942,843.3999999999942,840.0,843.3999999999942,1.0,0.0,0.0,,Click Response,2_count,5.0,object-49,temp_dist_trial,40.0,t_s_07_1,travel_shared,phone charger cable,8.0,competing,paired,t_s_07_1.jpg,Travel,$${counterbalance_group},,sub-98
Desktop or Laptop,Windows 10,Chrome 138.0.0.0,1920x1080,1920x1080,Temporal Distance Task,cb_08,40.0,temp_dist_trial,dist_items,qkpkxw,2.0,info,,4.5,0.0,4.5,4.5,0.0,4.5,1.0,0.0,0.0,,Slider,Slider,4.0,object-56,temp_dist_trial,40.0,t_s_07_1,travel_shared,phone charger cable,8.0,competing,paired,t_s_07_1.jpg,Travel,$${counterbalance_group},,sub-98
Desktop or Laptop,Windows 10,Chrome 138.0.0.0,1920x1080,1920x1080,Temporal Distance Task,cb_08,40.0,temp_dist_trial,dist_items,qkpkxw,2.0,continue,,1195.9000000953674,1186.6000000000058,1195.9000000953674,1195.9000000953674,1186.6000000000058,1195.9000000953674,1.0,0.0,0.0,,Click To Continue,Next button,7.0,object-60,temp_dist_trial,40.0,t_s_07_1,travel_shared,phone charger cable,8.0,competing,paired,t_s_07_1.jpg,Travel,$${counterbalance_group},,sub-98
Desktop or Laptop,Windows 10,Chrome 138.0.0.0,1920x1080,1920x1080,Temporal Distance Task,cb_08,40.0,temp_dist_trial,dist_items,qkpkxw,2.0,response,14,493.3000000000029,1186.6000000000058,1196.2000002861025,493.3000000000029,1186.6000000000058,1196.2000002861025,1.0,702.9000002860994,0.0,,Slider,Slider,4.0,object-56,temp_dist_trial,40.0,t_s_07_1,travel_shared,phone charger cable,8.0,competing,paired,t_s_07_1.jpg,Travel,$${counterbalance_group},,sub-98
Desktop or Laptop,Windows 10,Chrome 138.0.0.0,1920x1080,1920x1080,Temporal Distance Task,cb_08,41.0,temp_dist_trial,num_items,zn7si1,1.0,response,2_ITEM,1172.1000002860965,1160.0,1172.1000002860965,1172.1000002860965,1160.0,1172.1000002860965,1.0,0.0,0.0,,Click Response,2_count,5.0,object-49,temp_dist_trial,41.0,t_m_07_1,travel_Miami,sunglasses,8.0,unique,paired,t_m_07_1.jpg,Travel,$${counterbalance_group},,sub-98
Desktop or Laptop,Windows 10,Chrome 138.0.0.0,1920x1080,1920x1080,Temporal Distance Task,cb_08,41.0,temp_dist_trial,dist_items,qkpkxw,2.0,info,,3.0000000953732524,0.0,3.0000000953732524,3.0000000953732524,0.0,3.0000000953732524,1.0,0.0,0.0,,Slider,Slider,4.0,object-56,temp_dist_trial,41.0,t_m_07_1,travel_Miami,sunglasses,8.0,unique,paired,t_m_07_1.jpg,Travel,$${counterbalance_group},,sub-98
Desktop or Laptop,Windows 10,Chrome 138.0.0.0,1920x1080,1920x1080,Temporal Distance Task,cb_08,41.0,temp_dist_trial,dist_items,qkpkxw,2.0,continue,,1878.1000000000056,1866.6000000000056,1878.1000000000056,1878.1000000000056,1866.6000000000056,1878.1000000000056,1.0,0.0,0.0,,Click To Continue,Next button,7.0,object-60,temp_dist_trial,41.0,t_m_07_1,travel_Miami,sunglasses,8.0,unique,paired,t_m_07_1.jpg,Travel,$${counterbalance_group},,sub-98
Desktop or Laptop,Windows 10,Chrome 138.0.0.0,1920x1080,1920x1080,Temporal Distance Task,cb_08,41.0,temp_dist_trial,dist_items,qkpkxw,2.0,response,41,960.0,1866.6000000000056,1878.5000000953733,960.0,1866.6000000000056,1878.5000000953733,1.0,918.5000000953733,0.0,,Slider,Slider,4.0,object-56,temp_dist_trial,41.0,t_m_07_1,travel_Miami,sunglasses,8.0,unique,paired,t_m_07_1.jpg,Travel,$${counterbalance_group},,sub-98
Desktop or Laptop,Windows 10,Chrome 138.0.0.0,1920x1080,1920x1080,Temporal Distance Task,cb_08,42.0,temp_dist_trial,num_items,zn7si1,1.0,response,2_ITEM,1495.5,1493.3000000000034,1495.5,1495.5,1493.3000000000034,1495.5,1.0,0.0,0.0,,Click Response,2_count,5.0,object-49,temp_dist_trial,42.0,t_i_11_1,travel_Iceland,headlamp,8.0,unique,paired,t_i_11_1.jpg,Travel,$${counterbalance_group},,sub-98
Desktop or Laptop,Windows 10,Chrome 138.0.0.0,1920x1080,1920x1080,Temporal Distance Task,cb_08,42.0,temp_dist_trial,dist_items,qkpkxw,2.0,info,,2.9000003814726365,0.0,2.9000003814726365,2.9000003814726365,0.0,2.9000003814726365,1.0,0.0,0.0,,Slider,Slider,4.0,object-56,temp_dist_trial,42.0,t_i_11_1,travel_Iceland,headlamp,8.0,unique,paired,t_i_11_1.jpg,Travel,$${counterbalance_group},,sub-98
Desktop or Laptop,Windows 10,Chrome 138.0.0.0,1920x1080,1920x1080,Temporal Distance Task,cb_08,42.0,temp_dist_trial,dist_items,qkpkxw,2.0,continue,,993.0000002861052,986.6000000000058,993.0000002861052,993.0000002861052,986.6000000000058,993.0000002861052,1.0,0.0,0.0,,Click To Continue,Next button,7.0,object-60,temp_dist_trial,42.0,t_i_11_1,travel_Iceland,headlamp,8.0,unique,paired,t_i_11_1.jpg,Travel,$${counterbalance_group},,sub-98
Desktop or Laptop,Windows 10,Chrome 138.0.0.0,1920x1080,1920x1080,Temporal Distance Task,cb_08,42.0,temp_dist_trial,dist_items,qkpkxw,2.0,response,71,333.1999999999972,986.6000000000058,993.5000002861052,333.1999999999972,986.6000000000058,993.5000002861052,1.0,660.3000002861081,0.0,,Slider,Slider,4.0,object-56,temp_dist_trial,42.0,t_i_11_1,travel_Iceland,headlamp,8.0,unique,paired,t_i_11_1.jpg,Travel,$${counterbalance_group},,sub-98
Desktop or Laptop,Windows 10,Chrome 138.0.0.0,1920x1080,1920x1080,Temporal Distance Task,cb_08,43.0,temp_dist_trial,num_items,zn7si1,1.0,response,1_ITEM,1759.1000000953643,1746.599999999991,1759.1000000953643,1759.1000000953643,1746.599999999991,1759.1000000953643,1.0,0.0,0.0,,Click Response,1_count,3.0,object-46,temp_dist_trial,43.0,t_i_18_1,travel_Iceland,ski mask,8.0,unique,paired,t_i_18_1.jpg,Travel,$${counterbalance_group},,sub-98
Desktop or Laptop,Windows 10,Chrome 138.0.0.0,1920x1080,1920x1080,Temporal Distance Task,cb_08,44.0,temp_dist_trial,num_items,zn7si1,1.0,response,2_ITEM,813.1000000953645,799.8999999999942,813.1000000953645,813.1000000953645,799.8999999999942,813.1000000953645,1.0,0.0,0.0,,Click Response,2_count,5.0,object-49,temp_dist_trial,44.0,t_s_18_1,travel_shared,first aid kit,8.0,competing,paired,t_s_18_1.jpg,Travel,$${counterbalance_group},,sub-98
Desktop or Laptop,Windows 10,Chrome 138.0.0.0,1920x1080,1920x1080,Temporal Distance Task,cb_08,44.0,temp_dist_trial,dist_items,qkpkxw,2.0,info,,3.0,0.0,3.0,3.0,0.0,3.0,1.0,0.0,0.0,,Slider,Slider,4.0,object-56,temp_dist_trial,44.0,t_s_18_1,travel_shared,first aid kit,8.0,competing,paired,t_s_18_1.jpg,Travel,$${counterbalance_group},,sub-98
Desktop or Laptop,Windows 10,Chrome 138.0.0.0,1920x1080,1920x1080,Temporal Distance Task,cb_08,44.0,temp_dist_trial,dist_items,qkpkxw,2.0,continue,,1217.0,1213.3000000000031,1217.0,1217.0,1213.3000000000031,1217.0,1.0,0.0,0.0,,Click To Continue,Next button,7.0,object-60,temp_dist_trial,44.0,t_s_18_1,travel_shared,first aid kit,8.0,competing,paired,t_s_18_1.jpg,Travel,$${counterbalance_group},,sub-98
Desktop or Laptop,Windows 10,Chrome 138.0.0.0,1920x1080,1920x1080,Temporal Distance Task,cb_08,44.0,temp_dist_trial,dist_items,qkpkxw,2.0,response,35,600.1000000000057,1213.3000000000031,1217.2000002861025,600.1000000000057,1213.3000000000031,1217.2000002861025,1.0,617.1000002860965,0.0,,Slider,Slider,4.0,object-56,temp_dist_trial,44.0,t_s_18_1,travel_shared,first aid kit,8.0,competing,paired,t_s_18_1.jpg,Travel,$${counterbalance_group},,sub-98
Desktop or Laptop,Windows 10,Chrome 138.0.0.0,1920x1080,1920x1080,Temporal Distance Task,cb_08,45.0,temp_dist_trial,num_items,zn7si1,1.0,response,2_ITEM,1654.6000000953643,1653.3000000000034,1654.6000000953643,1654.6000000953643,1653.3000000000034,1654.6000000953643,1.0,0.0,0.0,,Click Response,2_count,5.0,object-49,temp_dist_trial,45.0,t_s_11_1,travel_shared,eye mask,8.0,competing,paired,t_s_11_1.jpg,Travel,$${counterbalance_group},,sub-98
Desktop or Laptop,Windows 10,Chrome 138.0.0.0,1920x1080,1920x1080,Temporal Distance Task,cb_08,45.0,temp_dist_trial,dist_items,qkpkxw,2.0,info,,2.700000286102295,0.0,2.700000286102295,2.700000286102295,0.0,2.700000286102295,1.0,0.0,0.0,,Slider,Slider,4.0,object-56,temp_dist_trial,45.0,t_s_11_1,travel_shared,eye mask,8.0,competing,paired,t_s_11_1.jpg,Travel,$${counterbalance_group},,sub-98
Desktop or Laptop,Windows 10,Chrome 138.0.0.0,1920x1080,1920x1080,Temporal Distance Task,cb_08,45.0,temp_dist_trial,dist_items,qkpkxw,2.0,continue,,1160.0000000000146,1146.6000000000058,1160.0000000000146,1160.0000000000146,1146.6000000000058,1160.0000000000146,1.0,0.0,0.0,,Click To Continue,Next button,7.0,object-60,temp_dist_trial,45.0,t_s_11_1,travel_shared,eye mask,8.0,competing,paired,t_s_11_1.jpg,Travel,$${counterbalance_group},,sub-98
Desktop or Laptop,Windows 10,Chrome 138.0.0.0,1920x1080,1920x1080,Temporal Distance Task,cb_08,45.0,temp_dist_trial,dist_items,qkpkxw,2.0,response,14,440.0,1146.6000000000058,1160.0000000000146,440.0,1146.6000000000058,1160.0000000000146,1.0,720.0000000000148,0.0,,Slider,Slider,4.0,object-56,temp_dist_trial,45.0,t_s_11_1,travel_shared,eye mask,8.0,competing,paired,t_s_11_1.jpg,Travel,$${counterbalance_group},,sub-98
Desktop or Laptop,Windows 10,Chrome 138.0.0.0,1920x1080,1920x1080,Temporal Distance Task,cb_08,46.0,temp_dist_trial,num_items,zn7si1,1.0,response,1_ITEM,2798.3000000953607,2786.6000000000067,2798.3000000953607,2798.3000000953607,2786.6000000000067,2798.3000000953607,1.0,0.0,0.0,,Click Response,1_count,3.0,object-46,temp_dist_trial,46.0,t_m_11_1,travel_Miami,collapsible beach chair,8.0,unique,paired,t_m_11_1.jpg,Travel,$${counterbalance_group},,sub-98
Desktop or Laptop,Windows 10,Chrome 138.0.0.0,1920x1080,1920x1080,Temporal Distance Task,cb_08,47.0,temp_dist_trial,num_items,zn7si1,1.0,response,1_ITEM,1783.7000002861025,1772.6000000000058,1783.7000002861025,1783.7000002861025,1772.6000000000058,1783.7000002861025,1.0,0.0,0.0,,Click Response,1_count,3.0,object-46,temp_dist_trial,47.0,t_s_09_1,travel_shared,wallet,8.0,competing,single,t_s_09_1.jpg,Travel,$${counterbalance_group},,sub-98
Desktop or Laptop,Windows 10,Chrome 138.0.0.0,1920x1080,1920x1080,Temporal Distance Task,cb_08,48.0,temp_dist_trial,num_items,zn7si1,1.0,response,2_ITEM,1586.499999999971,1573.1999999999825,1586.499999999971,1586.499999999971,1573.1999999999825,1586.499999999971,1.0,0.0,0.0,,Click Response,2_count,5.0,object-49,temp_dist_trial,48.0,t_s_06_1,travel_shared,luggage,8.0,competing,single,t_s_06_1.jpg,Travel,$${counterbalance_group},,sub-98
Desktop or Laptop,Windows 10,Chrome 138.0.0.0,1920x1080,1920x1080,Temporal Distance Task,cb_08,48.0,temp_dist_trial,dist_items,qkpkxw,2.0,info,,3.7000000000116415,0.0,3.7000000000116415,3.7000000000116415,0.0,3.7000000000116415,1.0,0.0,0.0,,Slider,Slider,4.0,object-56,temp_dist_trial,48.0,t_s_06_1,travel_shared,luggage,8.0,competing,single,t_s_06_1.jpg,Travel,$${counterbalance_group},,sub-98
Desktop or Laptop,Windows 10,Chrome 138.0.0.0,1920x1080,1920x1080,Temporal Distance Task,cb_08,48.0,temp_dist_trial,dist_items,qkpkxw,2.0,continue,,1186.400000286114,1173.3000000000175,1186.400000286114,1186.400000286114,1173.3000000000175,1186.400000286114,1.0,0.0,0.0,,Click To Continue,Next button,7.0,object-60,temp_dist_trial,48.0,t_s_06_1,travel_shared,luggage,8.0,competing,single,t_s_06_1.jpg,Travel,$${counterbalance_group},,sub-98
Desktop or Laptop,Windows 10,Chrome 138.0.0.0,1920x1080,1920x1080,Temporal Distance Task,cb_08,48.0,temp_dist_trial,dist_items,qkpkxw,2.0,response,86,560.0,1173.3000000000175,1186.600000095379,560.0,1173.3000000000175,1186.600000095379,1.0,626.6000000953791,0.0,,Slider,Slider,4.0,object-56,temp_dist_trial,48.0,t_s_06_1,travel_shared,luggage,8.0,competing,single,t_s_06_1.jpg,Travel,$${counterbalance_group},,sub-98
Desktop or Laptop,Windows 10,Chrome 138.0.0.0,1920x1080,1920x1080,Temporal Distance Task,cb_08,2.0,temp_eventStart,Screen 1,dgtyxe,1.0,continue,,1741.8999999999942,1733.2999999999884,1741.8999999999942,1741.8999999999942,1733.2999999999884,1741.8999999999942,1.0,0.0,0.0,,Click To Continue,Next Button,3.0,object-43,temp_eventStart,,,Student,,,,,,,$${counterbalance_group},,sub-98
Desktop or Laptop,Windows 10,Chrome 138.0.0.0,1920x1080,1920x1080,Temporal Distance Task,cb_08,49.0,temp_dist_trial,num_items,zn7si1,1.0,response,2_ITEM,1490.4000001907407,1479.8999999999942,1490.4000001907407,1490.4000001907407,1479.8999999999942,1490.4000001907407,1.0,0.0,0.0,,Click Response,2_count,5.0,object-49,temp_dist_trial,1.0,s_sh_11_1,student_shared,pencil case,8.0,competing,single,s_sh_11_1.jpg,Student,$${counterbalance_group},,sub-98
Desktop or Laptop,Windows 10,Chrome 138.0.0.0,1920x1080,1920x1080,Temporal Distance Task,cb_08,49.0,temp_dist_trial,dist_items,qkpkxw,2.0,info,,3.20000009535579,0.0,3.20000009535579,3.20000009535579,0.0,3.20000009535579,1.0,0.0,0.0,,Slider,Slider,4.0,object-56,temp_dist_trial,1.0,s_sh_11_1,student_shared,pencil case,8.0,competing,single,s_sh_11_1.jpg,Student,$${counterbalance_group},,sub-98
Desktop or Laptop,Windows 10,Chrome 138.0.0.0,1920x1080,1920x1080,Temporal Distance Task,cb_08,49.0,temp_dist_trial,dist_items,qkpkxw,2.0,continue,,1554.2999999999884,1546.5999999999767,1554.2999999999884,1554.2999999999884,1546.5999999999767,1554.2999999999884,1.0,0.0,0.0,,Click To Continue,Next button,7.0,object-60,temp_dist_trial,1.0,s_sh_11_1,student_shared,pencil case,8.0,competing,single,s_sh_11_1.jpg,Student,$${counterbalance_group},,sub-98
Desktop or Laptop,Windows 10,Chrome 138.0.0.0,1920x1080,1920x1080,Temporal Distance Task,cb_08,49.0,temp_dist_trial,dist_items,qkpkxw,2.0,response,33,600.0,1546.5999999999767,1554.6000001907232,600.0,1546.5999999999767,1554.6000001907232,1.0,954.6000001907232,0.0,,Slider,Slider,4.0,object-56,temp_dist_trial,1.0,s_sh_11_1,student_shared,pencil case,8.0,competing,single,s_sh_11_1.jpg,Student,$${counterbalance_group},,sub-98
Desktop or Laptop,Windows 10,Chrome 138.0.0.0,1920x1080,1920x1080,Temporal Distance Task,cb_08,50.0,temp_dist_trial,num_items,zn7si1,1.0,response,1_ITEM,1286.8000003814814,1280.0,1286.8000003814814,1286.8000003814814,1280.0,1286.8000003814814,1.0,0.0,0.0,,Click Response,1_count,3.0,object-46,temp_dist_trial,2.0,s_a_14_1,student_art,guitar pick,8.0,unique,paired,s_a_14_1.jpg,Student,$${counterbalance_group},,sub-98
Desktop or Laptop,Windows 10,Chrome 138.0.0.0,1920x1080,1920x1080,Temporal Distance Task,cb_08,51.0,temp_dist_trial,num_items,zn7si1,1.0,response,1_ITEM,1398.3000000953616,1385.1999999999825,1398.3000000953616,1398.3000000953616,1385.1999999999825,1398.3000000953616,1.0,0.0,0.0,,Click Response,1_count,3.0,object-46,temp_dist_trial,3.0,s_sh_06_1,student_shared,clipboard,8.0,competing,single,s_sh_06_1.jpg,Student,$${counterbalance_group},,sub-98
Desktop or Laptop,Windows 10,Chrome 138.0.0.0,1920x1080,1920x1080,Temporal Distance Task,cb_08,52.0,temp_dist_trial,num_items,zn7si1,1.0,response,2_ITEM,817.8000002861081,813.3999999999942,817.8000002861081,817.8000002861081,813.3999999999942,817.8000002861081,1.0,0.0,0.0,,Click Response,2_count,5.0,object-49,temp_dist_trial,4.0,s_sh_16_1,student_shared,stapler,8.0,competing,paired,s_sh_16_1.jpg,Student,$${counterbalance_group},,sub-98
Desktop or Laptop,Windows 10,Chrome 138.0.0.0,1920x1080,1920x1080,Temporal Distance Task,cb_08,52.0,temp_dist_trial,dist_items,qkpkxw,2.0,info,,3.9000000953674316,0.0,3.9000000953674316,3.9000000953674316,0.0,3.9000000953674316,1.0,0.0,0.0,,Slider,Slider,4.0,object-56,temp_dist_trial,4.0,s_sh_16_1,student_shared,stapler,8.0,competing,paired,s_sh_16_1.jpg,Student,$${counterbalance_group},,sub-98
Desktop or Laptop,Windows 10,Chrome 138.0.0.0,1920x1080,1920x1080,Temporal Distance Task,cb_08,52.0,temp_dist_trial,dist_items,qkpkxw,2.0,continue,,1048.1000003814695,1040.2000000000116,1048.1000003814695,1048.1000003814695,1040.2000000000116,1048.1000003814695,1.0,0.0,0.0,,Click To Continue,Next button,7.0,object-60,temp_dist_trial,4.0,s_sh_16_1,student_shared,stapler,8.0,competing,paired,s_sh_16_1.jpg,Student,$${counterbalance_group},,sub-98
Desktop or Laptop,Windows 10,Chrome 138.0.0.0,1920x1080,1920x1080,Temporal Distance Task,cb_08,52.0,temp_dist_trial,dist_items,qkpkxw,2.0,response,31,413.2999999999884,1040.2000000000116,1048.3000001907346,413.2999999999884,1040.2000000000116,1048.3000001907346,1.0,635.0000001907465,0.0,,Slider,Slider,4.0,object-56,temp_dist_trial,4.0,s_sh_16_1,student_shared,stapler,8.0,competing,paired,s_sh_16_1.jpg,Student,$${counterbalance_group},,sub-98
Desktop or Laptop,Windows 10,Chrome 138.0.0.0,1920x1080,1920x1080,Temporal Distance Task,cb_08,53.0,temp_dist_trial,num_items,zn7si1,1.0,response,1_ITEM,831.6000001907232,826.6999999999823,831.6000001907232,831.6000001907232,826.6999999999823,831.6000001907232,1.0,0.0,0.0,,Click Response,1_count,3.0,object-46,temp_dist_trial,5.0,s_a_12_1,student_art,saxophone,8.0,unique,paired,s_a_12_1.jpg,Student,$${counterbalance_group},,sub-98
Desktop or Laptop,Windows 10,Chrome 138.0.0.0,1920x1080,1920x1080,Temporal Distance Task,cb_08,54.0,temp_dist_trial,num_items,zn7si1,1.0,response,1_ITEM,1346.7999999999886,1333.3999999999942,1346.7999999999886,1346.7999999999886,1333.3999999999942,1346.7999999999886,1.0,0.0,0.0,,Click Response,1_count,3.0,object-46,temp_dist_trial,6.0,s_a_03_1,student_art,palette,8.0,unique,single,s_a_03_1.jpg,Student,$${counterbalance_group},,sub-98
Desktop or Laptop,Windows 10,Chrome 138.0.0.0,1920x1080,1920x1080,Temporal Distance Task,cb_08,55.0,temp_dist_trial,num_items,zn7si1,1.0,response,2_ITEM,835.0000001907465,826.7000000000116,835.0000001907465,835.0000001907465,826.7000000000116,835.0000001907465,1.0,0.0,0.0,,Click Response,2_count,5.0,object-49,temp_dist_trial,7.0,s_s_08_1,student_stem,soldering iron,8.0,unique,paired,s_s_08_1.jpg,Student,$${counterbalance_group},,sub-98
Desktop or Laptop,Windows 10,Chrome 138.0.0.0,1920x1080,1920x1080,Temporal Distance Task,cb_08,55.0,temp_dist_trial,dist_items,qkpkxw,2.0,info,,3.300000381481368,0.0,3.300000381481368,3.300000381481368,0.0,3.300000381481368,1.0,0.0,0.0,,Slider,Slider,4.0,object-56,temp_dist_trial,7.0,s_s_08_1,student_stem,soldering iron,8.0,unique,paired,s_s_08_1.jpg,Student,$${counterbalance_group},,sub-98
Desktop or Laptop,Windows 10,Chrome 138.0.0.0,1920x1080,1920x1080,Temporal Distance Task,cb_08,55.0,temp_dist_trial,dist_items,qkpkxw,2.0,continue,,1311.2000000000114,1306.4000000000233,1311.2000000000114,1311.2000000000114,1306.4000000000233,1311.2000000000114,1.0,0.0,0.0,,Click To Continue,Next button,7.0,object-60,temp_dist_trial,7.0,s_s_08_1,student_stem,soldering iron,8.0,unique,paired,s_s_08_1.jpg,Student,$${counterbalance_group},,sub-98
Desktop or Laptop,Windows 10,Chrome 138.0.0.0,1920x1080,1920x1080,Temporal Distance Task,cb_08,55.0,temp_dist_trial,dist_items,qkpkxw,2.0,response,75,453.30000000001746,1306.4000000000233,1311.5000001907465,453.30000000001746,1306.4000000000233,1311.5000001907465,1.0,858.200000190729,0.0,,Slider,Slider,4.0,object-56,temp_dist_trial,7.0,s_s_08_1,student_stem,soldering iron,8.0,unique,paired,s_s_08_1.jpg,Student,$${counterbalance_group},,sub-98
Desktop or Laptop,Windows 10,Chrome 138.0.0.0,1920x1080,1920x1080,Temporal Distance Task,cb_08,56.0,temp_dist_trial,num_items,zn7si1,1.0,response,1_ITEM,1785.5000002860907,1773.2999999999884,1785.5000002860907,1785.5000002860907,1773.2999999999884,1785.5000002860907,1.0,0.0,0.0,,Click Response,1_count,3.0,object-46,temp_dist_trial,8.0,s_s_03_1,student_stem,petri dish,8.0,unique,single,s_s_03_1.jpg,Student,$${counterbalance_group},,sub-98
Desktop or Laptop,Windows 10,Chrome 138.0.0.0,1920x1080,1920x1080,Temporal Distance Task,cb_08,57.0,temp_dist_trial,num_items,zn7si1,1.0,response,1_ITEM,1195.2000000000114,1186.7000000000114,1195.2000000000114,1195.2000000000114,1186.7000000000114,1195.2000000000114,1.0,0.0,0.0,,Click Response,1_count,3.0,object-46,temp_dist_trial,9.0,s_sh_14_1,student_shared,printer,8.0,competing,single,s_sh_14_1.jpg,Student,$${counterbalance_group},,sub-98
Desktop or Laptop,Windows 10,Chrome 138.0.0.0,1920x1080,1920x1080,Temporal Distance Task,cb_08,58.0,temp_dist_trial,num_items,zn7si1,1.0,response,2_ITEM,1066.600000000035,1053.3000000000177,1066.600000000035,1066.600000000035,1053.3000000000177,1066.600000000035,1.0,0.0,0.0,,Click Response,2_count,5.0,object-49,temp_dist_trial,10.0,s_sh_02_1,student_shared,eraser,8.0,competing,paired,s_sh_02_1.jpg,Student,$${counterbalance_group},,sub-98
Desktop or Laptop,Windows 10,Chrome 138.0.0.0,1920x1080,1920x1080,Temporal Distance Task,cb_08,58.0,temp_dist_trial,dist_items,qkpkxw,2.0,info,,3.300000190734864,0.0,3.300000190734864,3.300000190734864,0.0,3.300000190734864,1.0,0.0,0.0,,Slider,Slider,4.0,object-56,temp_dist_trial,10.0,s_sh_02_1,student_shared,eraser,8.0,competing,paired,s_sh_02_1.jpg,Student,$${counterbalance_group},,sub-98
Desktop or Laptop,Windows 10,Chrome 138.0.0.0,1920x1080,1920x1080,Temporal Distance Task,cb_08,58.0,temp_dist_trial,dist_items,qkpkxw,2.0,continue,,1089.9000000953674,1080.0,1089.9000000953674,1089.9000000953674,1080.0,1089.9000000953674,1.0,0.0,0.0,,Click To Continue,Next button,7.0,object-60,temp_dist_trial,10.0,s_sh_02_1,student_shared,eraser,8.0,competing,paired,s_sh_02_1.jpg,Student,$${counterbalance_group},,sub-98
Desktop or Laptop,Windows 10,Chrome 138.0.0.0,1920x1080,1920x1080,Temporal Distance Task,cb_08,58.0,temp_dist_trial,dist_items,qkpkxw,2.0,response,19,412.5,1080.0,1090.1000003814695,412.5,1080.0,1090.1000003814695,1.0,677.6000003814697,0.0,,Slider,Slider,4.0,object-56,temp_dist_trial,10.0,s_sh_02_1,student_shared,eraser,8.0,competing,paired,s_sh_02_1.jpg,Student,$${counterbalance_group},,sub-98
Desktop or Laptop,Windows 10,Chrome 138.0.0.0,1920x1080,1920x1080,Temporal Distance Task,cb_08,59.0,temp_dist_trial,num_items,zn7si1,1.0,response,2_ITEM,985.3000001907347,973.2999999999884,985.3000001907347,985.3000001907347,973.2999999999884,985.3000001907347,1.0,0.0,0.0,,Click Response,2_count,5.0,object-49,temp_dist_trial,11.0,s_s_19_1,student_stem,circuit board,8.0,unique,paired,s_s_19_1.jpg,Student,$${counterbalance_group},,sub-98
Desktop or Laptop,Windows 10,Chrome 138.0.0.0,1920x1080,1920x1080,Temporal Distance Task,cb_08,59.0,temp_dist_trial,dist_items,qkpkxw,2.0,info,,3.5000002860906534,0.0,3.5000002860906534,3.5000002860906534,0.0,3.5000002860906534,1.0,0.0,0.0,,Slider,Slider,4.0,object-56,temp_dist_trial,11.0,s_s_19_1,student_stem,circuit board,8.0,unique,paired,s_s_19_1.jpg,Student,$${counterbalance_group},,sub-98
Desktop or Laptop,Windows 10,Chrome 138.0.0.0,1920x1080,1920x1080,Temporal Distance Task,cb_08,59.0,temp_dist_trial,dist_items,qkpkxw,2.0,continue,,1012.6000001907232,1000.0,1012.6000001907232,1012.6000001907232,1000.0,1012.6000001907232,1.0,0.0,0.0,,Click To Continue,Next button,7.0,object-60,temp_dist_trial,11.0,s_s_19_1,student_stem,circuit board,8.0,unique,paired,s_s_19_1.jpg,Student,$${counterbalance_group},,sub-98
Desktop or Laptop,Windows 10,Chrome 138.0.0.0,1920x1080,1920x1080,Temporal Distance Task,cb_08,59.0,temp_dist_trial,dist_items,qkpkxw,2.0,response,69,466.5999999999767,1000.0,1012.900000381458,466.5999999999767,1000.0,1012.900000381458,1.0,546.3000003814814,0.0,,Slider,Slider,4.0,object-56,temp_dist_trial,11.0,s_s_19_1,student_stem,circuit board,8.0,unique,paired,s_s_19_1.jpg,Student,$${counterbalance_group},,sub-98
Desktop or Laptop,Windows 10,Chrome 138.0.0.0,1920x1080,1920x1080,Temporal Distance Task,cb_08,60.0,temp_dist_trial,num_items,zn7si1,1.0,response,2_ITEM,1146.499999999971,1133.1999999999825,1146.499999999971,1146.499999999971,1133.1999999999825,1146.499999999971,1.0,0.0,0.0,,Click Response,2_count,5.0,object-49,temp_dist_trial,12.0,s_s_11_1,student_stem,scientific scale,8.0,unique,paired,s_s_11_1.jpg,Student,$${counterbalance_group},,sub-98
Desktop or Laptop,Windows 10,Chrome 138.0.0.0,1920x1080,1920x1080,Temporal Distance Task,cb_08,60.0,temp_dist_trial,dist_items,qkpkxw,2.0,info,,2.9000002861139365,0.0,2.9000002861139365,2.9000002861139365,0.0,2.9000002861139365,1.0,0.0,0.0,,Slider,Slider,4.0,object-56,temp_dist_trial,12.0,s_s_11_1,student_stem,scientific scale,8.0,unique,paired,s_s_11_1.jpg,Student,$${counterbalance_group},,sub-98
Desktop or Laptop,Windows 10,Chrome 138.0.0.0,1920x1080,1920x1080,Temporal Distance Task,cb_08,60.0,temp_dist_trial,dist_items,qkpkxw,2.0,continue,,1097.100000095379,1093.3000000000177,1097.100000095379,1097.100000095379,1093.3000000000177,1097.100000095379,1.0,0.0,0.0,,Click To Continue,Next button,7.0,object-60,temp_dist_trial,12.0,s_s_11_1,student_stem,scientific scale,8.0,unique,paired,s_s_11_1.jpg,Student,$${counterbalance_group},,sub-98
Desktop or Laptop,Windows 10,Chrome 138.0.0.0,1920x1080,1920x1080,Temporal Distance Task,cb_08,60.0,temp_dist_trial,dist_items,qkpkxw,2.0,response,84,479.90000000002334,1093.3000000000177,1097.400000286114,479.90000000002334,1093.3000000000177,1097.400000286114,1.0,617.5000002860908,0.0,,Slider,Slider,4.0,object-56,temp_dist_trial,12.0,s_s_11_1,student_stem,scientific scale,8.0,unique,paired,s_s_11_1.jpg,Student,$${counterbalance_group},,sub-98
Desktop or Laptop,Windows 10,Chrome 138.0.0.0,1920x1080,1920x1080,Temporal Distance Task,cb_08,61.0,temp_dist_trial,num_items,zn7si1,1.0,response,1_ITEM,1199.700000190729,1186.6000000000058,1199.700000190729,1199.700000190729,1186.6000000000058,1199.700000190729,1.0,0.0,0.0,,Click Response,1_count,3.0,object-46,temp_dist_trial,13.0,s_s_14_1,student_stem,funnel,8.0,unique,single,s_s_14_1.jpg,Student,$${counterbalance_group},,sub-98
Desktop or Laptop,Windows 10,Chrome 138.0.0.0,1920x1080,1920x1080,Temporal Distance Task,cb_08,62.0,temp_dist_trial,num_items,zn7si1,1.0,response,2_ITEM,924.8000001907347,920.0,924.8000001907347,924.8000001907347,920.0,924.8000001907347,1.0,0.0,0.0,,Click Response,2_count,5.0,object-49,temp_dist_trial,14.0,s_sh_04_1,student_shared,laptop stand,8.0,competing,paired,s_sh_04_1.jpg,Student,$${counterbalance_group},,sub-98
Desktop or Laptop,Windows 10,Chrome 138.0.0.0,1920x1080,1920x1080,Temporal Distance Task,cb_08,62.0,temp_dist_trial,dist_items,qkpkxw,2.0,info,,3.100000095379073,0.0,3.100000095379073,3.100000095379073,0.0,3.100000095379073,1.0,0.0,0.0,,Slider,Slider,4.0,object-56,temp_dist_trial,14.0,s_sh_04_1,student_shared,laptop stand,8.0,competing,paired,s_sh_04_1.jpg,Student,$${counterbalance_group},,sub-98
Desktop or Laptop,Windows 10,Chrome 138.0.0.0,1920x1080,1920x1080,Temporal Distance Task,cb_08,62.0,temp_dist_trial,dist_items,qkpkxw,2.0,continue,,1112.100000095379,1106.7000000000116,1112.100000095379,1112.100000095379,1106.7000000000116,1112.100000095379,1.0,0.0,0.0,,Click To Continue,Next button,7.0,object-60,temp_dist_trial,14.0,s_sh_04_1,student_shared,laptop stand,8.0,competing,paired,s_sh_04_1.jpg,Student,$${counterbalance_group},,sub-98
Desktop or Laptop,Windows 10,Chrome 138.0.0.0,1920x1080,1920x1080,Temporal Distance Task,cb_08,62.0,temp_dist_trial,dist_items,qkpkxw,2.0,response,22,440.1000000000058,1106.7000000000116,1115.7000000000116,440.1000000000058,1106.7000000000116,1115.7000000000116,1.0,675.6000000000057,0.0,,Slider,Slider,4.0,object-56,temp_dist_trial,14.0,s_sh_04_1,student_shared,laptop stand,8.0,competing,paired,s_sh_04_1.jpg,Student,$${counterbalance_group},,sub-98
Desktop or Laptop,Windows 10,Chrome 138.0.0.0,1920x1080,1920x1080,Temporal Distance Task,cb_08,63.0,temp_dist_trial,num_items,zn7si1,1.0,response,2_ITEM,875.9000000953674,866.7000000000116,875.9000000953674,875.9000000953674,866.7000000000116,875.9000000953674,1.0,0.0,0.0,,Click Response,2_count,5.0,object-49,temp_dist_trial,15.0,s_a_05_1,student_art,clay,8.0,unique,paired,s_a_05_1.jpg,Student,$${counterbalance_group},,sub-98
Desktop or Laptop,Windows 10,Chrome 138.0.0.0,1920x1080,1920x1080,Temporal Distance Task,cb_08,63.0,temp_dist_trial,dist_items,qkpkxw,2.0,info,,3.6000003814697266,0.0,3.6000003814697266,3.6000003814697266,0.0,3.6000003814697266,1.0,0.0,0.0,,Slider,Slider,4.0,object-56,temp_dist_trial,15.0,s_a_05_1,student_art,clay,8.0,unique,paired,s_a_05_1.jpg,Student,$${counterbalance_group},,sub-98
Desktop or Laptop,Windows 10,Chrome 138.0.0.0,1920x1080,1920x1080,Temporal Distance Task,cb_08,63.0,temp_dist_trial,dist_items,qkpkxw,2.0,continue,,1209.9000000953674,1199.8999999999942,1209.9000000953674,1209.9000000953674,1199.8999999999942,1209.9000000953674,1.0,0.0,0.0,,Click To Continue,Next button,7.0,object-60,temp_dist_trial,15.0,s_a_05_1,student_art,clay,8.0,unique,paired,s_a_05_1.jpg,Student,$${counterbalance_group},,sub-98
Desktop or Laptop,Windows 10,Chrome 138.0.0.0,1920x1080,1920x1080,Temporal Distance Task,cb_08,63.0,temp_dist_trial,dist_items,qkpkxw,2.0,response,31,679.8999999999943,1199.8999999999942,1210.1000003814695,679.8999999999943,1199.8999999999942,1210.1000003814695,1.0,530.2000003814755,0.0,,Slider,Slider,4.0,object-56,temp_dist_trial,15.0,s_a_05_1,student_art,clay,8.0,unique,paired,s_a_05_1.jpg,Student,$${counterbalance_group},,sub-98
Desktop or Laptop,Windows 10,Chrome 138.0.0.0,1920x1080,1920x1080,Temporal Distance Task,cb_08,64.0,temp_dist_trial,num_items,zn7si1,1.0,response,2_ITEM,1119.300000286108,1106.7000000000116,1119.300000286108,1119.300000286108,1106.7000000000116,1119.300000286108,1.0,0.0,0.0,,Click Response,2_count,5.0,object-49,temp_dist_trial,16.0,s_sh_05_1,student_shared,laptop,8.0,competing,paired,s_sh_05_1.jpg,Student,$${counterbalance_group},,sub-98
Desktop or Laptop,Windows 10,Chrome 138.0.0.0,1920x1080,1920x1080,Temporal Distance Task,cb_08,64.0,temp_dist_trial,dist_items,qkpkxw,2.0,info,,3.200000381475548,0.0,3.200000381475548,3.200000381475548,0.0,3.200000381475548,1.0,0.0,0.0,,Slider,Slider,4.0,object-56,temp_dist_trial,16.0,s_sh_05_1,student_shared,laptop,8.0,competing,paired,s_sh_05_1.jpg,Student,$${counterbalance_group},,sub-98
Desktop or Laptop,Windows 10,Chrome 138.0.0.0,1920x1080,1920x1080,Temporal Distance Task,cb_08,64.0,temp_dist_trial,dist_items,qkpkxw,2.0,continue,,2208.9000001907407,2200.0,2208.9000001907407,2208.9000001907407,2200.0,2208.9000001907407,1.0,0.0,0.0,,Click To Continue,Next button,7.0,object-60,temp_dist_trial,16.0,s_sh_05_1,student_shared,laptop,8.0,competing,paired,s_sh_05_1.jpg,Student,$${counterbalance_group},,sub-98
Desktop or Laptop,Windows 10,Chrome 138.0.0.0,1920x1080,1920x1080,Temporal Distance Task,cb_08,64.0,temp_dist_trial,dist_items,qkpkxw,2.0,response,76,440.0,2200.0,2209.300000286108,440.0,2200.0,2209.300000286108,1.0,1769.3000002861081,0.0,,Slider,Slider,4.0,object-56,temp_dist_trial,16.0,s_sh_05_1,student_shared,laptop,8.0,competing,paired,s_sh_05_1.jpg,Student,$${counterbalance_group},,sub-98
Desktop or Laptop,Windows 10,Chrome 138.0.0.0,1920x1080,1920x1080,Temporal Distance Task,cb_08,65.0,temp_dist_trial,num_items,zn7si1,1.0,response,2_ITEM,1566.5000000953733,1559.8999999999942,1566.5000000953733,1566.5000000953733,1559.8999999999942,1566.5000000953733,1.0,0.0,0.0,,Click Response,2_count,5.0,object-49,temp_dist_trial,17.0,s_a_06_1,student_art,pastels,8.0,unique,paired,s_a_06_1.jpg,Student,$${counterbalance_group},,sub-98
Desktop or Laptop,Windows 10,Chrome 138.0.0.0,1920x1080,1920x1080,Temporal Distance Task,cb_08,65.0,temp_dist_trial,dist_items,qkpkxw,2.0,info,,4.2000001907290425,0.0,4.2000001907290425,4.2000001907290425,0.0,4.2000001907290425,1.0,0.0,0.0,,Slider,Slider,4.0,object-56,temp_dist_trial,17.0,s_a_06_1,student_art,pastels,8.0,unique,paired,s_a_06_1.jpg,Student,$${counterbalance_group},,sub-98
Desktop or Laptop,Windows 10,Chrome 138.0.0.0,1920x1080,1920x1080,Temporal Distance Task,cb_08,65.0,temp_dist_trial,dist_items,qkpkxw,2.0,continue,,1431.000000381464,1426.6999999999825,1431.000000381464,1431.000000381464,1426.6999999999825,1431.000000381464,1.0,0.0,0.0,,Click To Continue,Next button,7.0,object-60,temp_dist_trial,17.0,s_a_06_1,student_art,pastels,8.0,unique,paired,s_a_06_1.jpg,Student,$${counterbalance_group},,sub-98
Desktop or Laptop,Windows 10,Chrome 138.0.0.0,1920x1080,1920x1080,Temporal Distance Task,cb_08,65.0,temp_dist_trial,dist_items,qkpkxw,2.0,response,84,653.3999999999943,1426.6999999999825,1431.3000000953616,653.3999999999943,1426.6999999999825,1431.3000000953616,1.0,777.9000000953674,0.0,,Slider,Slider,4.0,object-56,temp_dist_trial,17.0,s_a_06_1,student_art,pastels,8.0,unique,paired,s_a_06_1.jpg,Student,$${counterbalance_group},,sub-98
Desktop or Laptop,Windows 10,Chrome 138.0.0.0,1920x1080,1920x1080,Temporal Distance Task,cb_08,66.0,temp_dist_trial,num_items,zn7si1,1.0,response,2_ITEM,2327.200000000012,2319.9000000000233,2327.200000000012,2327.200000000012,2319.9000000000233,2327.200000000012,1.0,0.0,0.0,,Click Response,2_count,5.0,object-49,temp_dist_trial,18.0,s_sh_07_1,student_shared,ruler,8.0,competing,paired,s_sh_07_1.jpg,Student,$${counterbalance_group},,sub-98
Desktop or Laptop,Windows 10,Chrome 138.0.0.0,1920x1080,1920x1080,Temporal Distance Task,cb_08,66.0,temp_dist_trial,dist_items,qkpkxw,2.0,info,,3.0,0.0,3.0,3.0,0.0,3.0,1.0,0.0,0.0,,Slider,Slider,4.0,object-56,temp_dist_trial,18.0,s_sh_07_1,student_shared,ruler,8.0,competing,paired,s_sh_07_1.jpg,Student,$${counterbalance_group},,sub-98
Desktop or Laptop,Windows 10,Chrome 138.0.0.0,1920x1080,1920x1080,Temporal Distance Task,cb_08,66.0,temp_dist_trial,dist_items,qkpkxw,2.0,continue,,1162.0,1160.0,1162.0,1162.0,1160.0,1162.0,1.0,0.0,0.0,,Click To Continue,Next button,7.0,object-60,temp_dist_trial,18.0,s_sh_07_1,student_shared,ruler,8.0,competing,paired,s_sh_07_1.jpg,Student,$${counterbalance_group},,sub-98
Desktop or Laptop,Windows 10,Chrome 138.0.0.0,1920x1080,1920x1080,Temporal Distance Task,cb_08,66.0,temp_dist_trial,dist_items,qkpkxw,2.0,response,38,586.7000000000116,1160.0,1162.2000002861025,586.7000000000116,1160.0,1162.2000002861025,1.0,575.5000002860908,0.0,,Slider,Slider,4.0,object-56,temp_dist_trial,18.0,s_sh_07_1,student_shared,ruler,8.0,competing,paired,s_sh_07_1.jpg,Student,$${counterbalance_group},,sub-98
Desktop or Laptop,Windows 10,Chrome 138.0.0.0,1920x1080,1920x1080,Temporal Distance Task,cb_08,67.0,temp_dist_trial,num_items,zn7si1,1.0,response,1_ITEM,1186.1000003814695,1173.2999999999886,1186.1000003814695,1186.1000003814695,1173.2999999999886,1186.1000003814695,1.0,0.0,0.0,,Click Response,1_count,3.0,object-46,temp_dist_trial,19.0,s_sh_21_1,student_shared,file holder,8.0,competing,paired,s_sh_21_1.jpg,Student,$${counterbalance_group},,sub-98
Desktop or Laptop,Windows 10,Chrome 138.0.0.0,1920x1080,1920x1080,Temporal Distance Task,cb_08,68.0,temp_dist_trial,num_items,zn7si1,1.0,response,1_ITEM,1021.2999999999884,1013.1999999999823,1021.2999999999884,1021.2999999999884,1013.1999999999823,1021.2999999999884,1.0,0.0,0.0,,Click Response,1_count,3.0,object-46,temp_dist_trial,20.0,s_sh_01_1,student_shared,notebook,8.0,competing,paired,s_sh_01_1.jpg,Student,$${counterbalance_group},,sub-98
Desktop or Laptop,Windows 10,Chrome 138.0.0.0,1920x1080,1920x1080,Temporal Distance Task,cb_08,69.0,temp_dist_trial,num_items,zn7si1,1.0,response,2_ITEM,1105.5000001907463,1093.3000000000177,1105.5000001907463,1105.5000001907463,1093.3000000000177,1105.5000001907463,1.0,0.0,0.0,,Click Response,2_count,5.0,object-49,temp_dist_trial,21.0,s_s_13_1,student_stem,telescope,8.0,unique,single,s_s_13_1.jpg,Student,$${counterbalance_group},,sub-98
Desktop or Laptop,Windows 10,Chrome 138.0.0.0,1920x1080,1920x1080,Temporal Distance Task,cb_08,69.0,temp_dist_trial,dist_items,qkpkxw,2.0,info,,3.7000003814755473,0.0,3.7000003814755473,3.7000003814755473,0.0,3.7000003814755473,1.0,0.0,0.0,,Slider,Slider,4.0,object-56,temp_dist_trial,21.0,s_s_13_1,student_stem,telescope,8.0,unique,single,s_s_13_1.jpg,Student,$${counterbalance_group},,sub-98
Desktop or Laptop,Windows 10,Chrome 138.0.0.0,1920x1080,1920x1080,Temporal Distance Task,cb_08,69.0,temp_dist_trial,dist_items,qkpkxw,2.0,continue,,1080.0000000953733,1066.7000000000116,1080.0000000953733,1080.0000000953733,1066.7000000000116,1080.0000000953733,1.0,0.0,0.0,,Click To Continue,Next button,7.0,object-60,temp_dist_trial,21.0,s_s_13_1,student_stem,telescope,8.0,unique,single,s_s_13_1.jpg,Student,$${counterbalance_group},,sub-98
Desktop or Laptop,Windows 10,Chrome 138.0.0.0,1920x1080,1920x1080,Temporal Distance Task,cb_08,69.0,temp_dist_trial,dist_items,qkpkxw,2.0,response,80,440.0,1066.7000000000116,1080.1000000000058,440.0,1066.7000000000116,1080.1000000000058,1.0,640.1000000000057,0.0,,Slider,Slider,4.0,object-56,temp_dist_trial,21.0,s_s_13_1,student_stem,telescope,8.0,unique,single,s_s_13_1.jpg,Student,$${counterbalance_group},,sub-98
Desktop or Laptop,Windows 10,Chrome 138.0.0.0,1920x1080,1920x1080,Temporal Distance Task,cb_08,70.0,temp_dist_trial,num_items,zn7si1,1.0,response,1_ITEM,1183.3000000953614,1173.1999999999825,1183.3000000953614,1183.3000000953614,1173.1999999999825,1183.3000000953614,1.0,0.0,0.0,,Click Response,1_count,3.0,object-46,temp_dist_trial,22.0,s_sh_19_1,student_shared,portable plastic drawer,8.0,competing,paired,s_sh_19_1.jpg,Student,$${counterbalance_group},,sub-98
Desktop or Laptop,Windows 10,Chrome 138.0.0.0,1920x1080,1920x1080,Temporal Distance Task,cb_08,71.0,temp_dist_trial,num_items,zn7si1,1.0,response,2_ITEM,771.0000002860907,760.0,771.0000002860907,771.0000002860907,760.0,771.0000002860907,1.0,0.0,0.0,,Click Response,2_count,5.0,object-49,temp_dist_trial,23.0,s_sh_10_1,student_shared,scissors,8.0,competing,single,s_sh_10_1.jpg,Student,$${counterbalance_group},,sub-98
Desktop or Laptop,Windows 10,Chrome 138.0.0.0,1920x1080,1920x1080,Temporal Distance Task,cb_08,71.0,temp_dist_trial,dist_items,qkpkxw,2.0,info,,2.5,0.0,2.5,2.5,0.0,2.5,1.0,0.0,0.0,,Slider,Slider,4.0,object-56,temp_dist_trial,23.0,s_sh_10_1,student_shared,scissors,8.0,competing,single,s_sh_10_1.jpg,Student,$${counterbalance_group},,sub-98
Desktop or Laptop,Windows 10,Chrome 138.0.0.0,1920x1080,1920x1080,Temporal Distance Task,cb_08,71.0,temp_dist_trial,dist_items,qkpkxw,2.0,continue,,993.4000000953674,986.7000000000116,993.4000000953674,993.4000000953674,986.7000000000116,993.4000000953674,1.0,0.0,0.0,,Click To Continue,Next button,7.0,object-60,temp_dist_trial,23.0,s_sh_10_1,student_shared,scissors,8.0,competing,single,s_sh_10_1.jpg,Student,$${counterbalance_group},,sub-98
Desktop or Laptop,Windows 10,Chrome 138.0.0.0,1920x1080,1920x1080,Temporal Distance Task,cb_08,71.0,temp_dist_trial,dist_items,qkpkxw,2.0,response,31,386.7000000000117,986.7000000000116,993.9000000953674,386.7000000000117,986.7000000000116,993.9000000953674,1.0,607.2000000953558,0.0,,Slider,Slider,4.0,object-56,temp_dist_trial,23.0,s_sh_10_1,student_shared,scissors,8.0,competing,single,s_sh_10_1.jpg,Student,$${counterbalance_group},,sub-98
Desktop or Laptop,Windows 10,Chrome 138.0.0.0,1920x1080,1920x1080,Temporal Distance Task,cb_08,72.0,temp_dist_trial,num_items,zn7si1,1.0,response,1_ITEM,1129.7000000953558,1119.8999999999942,1129.7000000953558,1129.7000000953558,1119.8999999999942,1129.7000000953558,1.0,0.0,0.0,,Click Response,1_count,3.0,object-46,temp_dist_trial,24.0,s_a_09_1,student_art,picture frame,8.0,unique,single,s_a_09_1.jpg,Student,$${counterbalance_group},,sub-98
Desktop or Laptop,Windows 10,Chrome 138.0.0.0,1920x1080,1920x1080,Temporal Distance Task,cb_08,73.0,temp_dist_trial,num_items,zn7si1,1.0,response,1_ITEM,1558.4000000953674,1546.6000000000058,1558.4000000953674,1558.4000000953674,1546.6000000000058,1558.4000000953674,1.0,0.0,0.0,,Click Response,1_count,3.0,object-46,temp_dist_trial,25.0,s_a_13_1,student_art,violin,8.0,unique,single,s_a_13_1.jpg,Student,$${counterbalance_group},,sub-98
Desktop or Laptop,Windows 10,Chrome 138.0.0.0,1920x1080,1920x1080,Temporal Distance Task,cb_08,74.0,temp_dist_trial,num_items,zn7si1,1.0,response,1_ITEM,959.8000003814814,946.8000000000177,959.8000003814814,959.8000003814814,946.8000000000177,959.8000003814814,1.0,0.0,0.0,,Click Response,1_count,3.0,object-46,temp_dist_trial,26.0,s_sh_13_1,student_shared,index cards,8.0,competing,single,s_sh_13_1.jpg,Student,$${counterbalance_group},,sub-98
Desktop or Laptop,Windows 10,Chrome 138.0.0.0,1920x1080,1920x1080,Temporal Distance Task,cb_08,75.0,temp_dist_trial,num_items,zn7si1,1.0,response,2_ITEM,1143.400000190741,1131.8999999999942,1143.400000190741,1143.400000190741,1131.8999999999942,1143.400000190741,1.0,0.0,0.0,,Click Response,2_count,5.0,object-49,temp_dist_trial,27.0,s_sh_15_1,student_shared,usb drive,8.0,competing,single,s_sh_15_1.jpg,Student,$${counterbalance_group},,sub-98
Desktop or Laptop,Windows 10,Chrome 138.0.0.0,1920x1080,1920x1080,Temporal Distance Task,cb_08,75.0,temp_dist_trial,dist_items,qkpkxw,2.0,info,,3.5000000953732524,0.0,3.5000000953732524,3.5000000953732524,0.0,3.5000000953732524,1.0,0.0,0.0,,Slider,Slider,4.0,object-56,temp_dist_trial,27.0,s_sh_15_1,student_shared,usb drive,8.0,competing,single,s_sh_15_1.jpg,Student,$${counterbalance_group},,sub-98
Desktop or Laptop,Windows 10,Chrome 138.0.0.0,1920x1080,1920x1080,Temporal Distance Task,cb_08,75.0,temp_dist_trial,dist_items,qkpkxw,2.0,continue,,1345.1000000000058,1333.3000000000175,1345.1000000000058,1345.1000000000058,1333.3000000000175,1345.1000000000058,1.0,0.0,0.0,,Click To Continue,Next button,7.0,object-60,temp_dist_trial,27.0,s_sh_15_1,student_shared,usb drive,8.0,competing,single,s_sh_15_1.jpg,Student,$${counterbalance_group},,sub-98
Desktop or Laptop,Windows 10,Chrome 138.0.0.0,1920x1080,1920x1080,Temporal Distance Task,cb_08,75.0,temp_dist_trial,dist_items,qkpkxw,2.0,response,59,573.3000000000175,1333.3000000000175,1345.400000190741,573.3000000000175,1333.3000000000175,1345.400000190741,1.0,772.1000001907232,0.0,,Slider,Slider,4.0,object-56,temp_dist_trial,27.0,s_sh_15_1,student_shared,usb drive,8.0,competing,single,s_sh_15_1.jpg,Student,$${counterbalance_group},,sub-98
Desktop or Laptop,Windows 10,Chrome 138.0.0.0,1920x1080,1920x1080,Temporal Distance Task,cb_08,76.0,temp_dist_trial,num_items,zn7si1,1.0,response,1_ITEM,1046.6000001907232,1040.0,1046.6000001907232,1046.6000001907232,1040.0,1046.6000001907232,1.0,0.0,0.0,,Click Response,1_count,3.0,object-46,temp_dist_trial,28.0,s_sh_12_1,student_shared,binder,8.0,competing,single,s_sh_12_1.jpg,Student,$${counterbalance_group},,sub-98
Desktop or Laptop,Windows 10,Chrome 138.0.0.0,1920x1080,1920x1080,Temporal Distance Task,cb_08,77.0,temp_dist_trial,num_items,zn7si1,1.0,response,2_ITEM,766.2000002861023,760.0,766.2000002861023,766.2000002861023,760.0,766.2000002861023,1.0,0.0,0.0,,Click Response,2_count,5.0,object-49,temp_dist_trial,29.0,s_a_15_1,student_art,drum kit,8.0,unique,paired,s_a_15_1.jpg,Student,$${counterbalance_group},,sub-98
Desktop or Laptop,Windows 10,Chrome 138.0.0.0,1920x1080,1920x1080,Temporal Distance Task,cb_08,77.0,temp_dist_trial,dist_items,qkpkxw,2.0,info,,4.500000190746505,0.0,4.500000190746505,4.500000190746505,0.0,4.500000190746505,1.0,0.0,0.0,,Slider,Slider,4.0,object-56,temp_dist_trial,29.0,s_a_15_1,student_art,drum kit,8.0,unique,paired,s_a_15_1.jpg,Student,$${counterbalance_group},,sub-98
Desktop or Laptop,Windows 10,Chrome 138.0.0.0,1920x1080,1920x1080,Temporal Distance Task,cb_08,77.0,temp_dist_trial,dist_items,qkpkxw,2.0,continue,,1031.2000000000116,1026.7000000000116,1031.2000000000116,1031.2000000000116,1026.7000000000116,1031.2000000000116,1.0,0.0,0.0,,Click To Continue,Next button,7.0,object-60,temp_dist_trial,29.0,s_a_15_1,student_art,drum kit,8.0,unique,paired,s_a_15_1.jpg,Student,$${counterbalance_group},,sub-98
Desktop or Laptop,Windows 10,Chrome 138.0.0.0,1920x1080,1920x1080,Temporal Distance Task,cb_08,77.0,temp_dist_trial,dist_items,qkpkxw,2.0,response,80,440.1000000000058,1026.7000000000116,1031.600000095379,440.1000000000058,1026.7000000000116,1031.600000095379,1.0,591.5000000953733,0.0,,Slider,Slider,4.0,object-56,temp_dist_trial,29.0,s_a_15_1,student_art,drum kit,8.0,unique,paired,s_a_15_1.jpg,Student,$${counterbalance_group},,sub-98
Desktop or Laptop,Windows 10,Chrome 138.0.0.0,1920x1080,1920x1080,Temporal Distance Task,cb_08,78.0,temp_dist_trial,num_items,zn7si1,1.0,response,2_ITEM,1334.9000000953674,1331.8999999999942,1334.9000000953674,1334.9000000953674,1331.8999999999942,1334.9000000953674,1.0,0.0,0.0,,Click Response,2_count,5.0,object-49,temp_dist_trial,30.0,s_s_15_1,student_stem,jumper cables,8.0,unique,paired,s_s_15_1.jpg,Student,$${counterbalance_group},,sub-98
Desktop or Laptop,Windows 10,Chrome 138.0.0.0,1920x1080,1920x1080,Temporal Distance Task,cb_08,78.0,temp_dist_trial,dist_items,qkpkxw,2.0,info,,3.79999999998836,0.0,3.79999999998836,3.79999999998836,0.0,3.79999999998836,1.0,0.0,0.0,,Slider,Slider,4.0,object-56,temp_dist_trial,30.0,s_s_15_1,student_stem,jumper cables,8.0,unique,paired,s_s_15_1.jpg,Student,$${counterbalance_group},,sub-98
Desktop or Laptop,Windows 10,Chrome 138.0.0.0,1920x1080,1920x1080,Temporal Distance Task,cb_08,78.0,temp_dist_trial,dist_items,qkpkxw,2.0,continue,,998.7000000953557,986.6999999999823,998.7000000953557,998.7000000953557,986.6999999999823,998.7000000953557,1.0,0.0,0.0,,Click To Continue,Next button,7.0,object-60,temp_dist_trial,30.0,s_s_15_1,student_stem,jumper cables,8.0,unique,paired,s_s_15_1.jpg,Student,$${counterbalance_group},,sub-98
Desktop or Laptop,Windows 10,Chrome 138.0.0.0,1920x1080,1920x1080,Temporal Distance Task,cb_08,78.0,temp_dist_trial,dist_items,qkpkxw,2.0,response,38,400.0,986.6999999999823,998.900000381458,400.0,986.6999999999823,998.900000381458,1.0,598.9000003814581,0.0,,Slider,Slider,4.0,object-56,temp_dist_trial,30.0,s_s_15_1,student_stem,jumper cables,8.0,unique,paired,s_s_15_1.jpg,Student,$${counterbalance_group},,sub-98
Desktop or Laptop,Windows 10,Chrome 138.0.0.0,1920x1080,1920x1080,Temporal Distance Task,cb_08,79.0,temp_dist_trial,num_items,zn7si1,1.0,response,2_ITEM,1292.2000003814755,1279.8999999999942,1292.2000003814755,1292.2000003814755,1279.8999999999942,1292.2000003814755,1.0,0.0,0.0,,Click Response,2_count,5.0,object-49,temp_dist_trial,31.0,s_sh_17_1,student_shared,wireless mouse,8.0,competing,paired,s_sh_17_1.jpg,Student,$${counterbalance_group},,sub-98
Desktop or Laptop,Windows 10,Chrome 138.0.0.0,1920x1080,1920x1080,Temporal Distance Task,cb_08,79.0,temp_dist_trial,dist_items,qkpkxw,2.0,info,,3.8999999999941792,0.0,3.8999999999941792,3.8999999999941792,0.0,3.8999999999941792,1.0,0.0,0.0,,Slider,Slider,4.0,object-56,temp_dist_trial,31.0,s_sh_17_1,student_shared,wireless mouse,8.0,competing,paired,s_sh_17_1.jpg,Student,$${counterbalance_group},,sub-98
Desktop or Laptop,Windows 10,Chrome 138.0.0.0,1920x1080,1920x1080,Temporal Distance Task,cb_08,79.0,temp_dist_trial,dist_items,qkpkxw,2.0,continue,,1202.700000190729,1200.0,1202.700000190729,1202.700000190729,1200.0,1202.700000190729,1.0,0.0,0.0,,Click To Continue,Next button,7.0,object-60,temp_dist_trial,31.0,s_sh_17_1,student_shared,wireless mouse,8.0,competing,paired,s_sh_17_1.jpg,Student,$${counterbalance_group},,sub-98
Desktop or Laptop,Windows 10,Chrome 138.0.0.0,1920x1080,1920x1080,Temporal Distance Task,cb_08,79.0,temp_dist_trial,dist_items,qkpkxw,2.0,response,66,333.29999999998836,1200.0,1203.000000381464,333.29999999998836,1200.0,1203.000000381464,1.0,869.7000003814755,0.0,,Slider,Slider,4.0,object-56,temp_dist_trial,31.0,s_sh_17_1,student_shared,wireless mouse,8.0,competing,paired,s_sh_17_1.jpg,Student,$${counterbalance_group},,sub-98
Desktop or Laptop,Windows 10,Chrome 138.0.0.0,1920x1080,1920x1080,Temporal Distance Task,cb_08,80.0,temp_dist_trial,num_items,zn7si1,1.0,response,2_ITEM,1128.700000190729,1119.8999999999942,1128.700000190729,1128.700000190729,1119.8999999999942,1128.700000190729,1.0,0.0,0.0,,Click Response,2_count,5.0,object-49,temp_dist_trial,32.0,s_s_10_1,student_stem,3d molecule,8.0,unique,paired,s_s_10_1.jpg,Student,$${counterbalance_group},,sub-98
