Participant Device,Participant OS,Participant Browser,Participant Monitor Size,Participant Viewport Size,Task Name,Current Spreadsheet,Trial Number,Display,Screen,Screen ID,Screen Counter,Response Type,Response,Onset Time,Clock Time,Reaction Time,Absolute Onset Time,Absolute Clock Time,Absolute Reaction Time,Correct,Response Duration,Proportion,Tag,Component Name,Object Name,Object Number,Object ID,Spreadsheet: display,Spreadsheet: trial,Spreadsheet: stimulus_id,Spreadsheet: expected_goal,Spreadsheet: stimulus_name,Spreadsheet: c_group,Spreadsheet: condition,Spreadsheet: paired_status,Spreadsheet: stimulus_path,Spreadsheet: block_type,Manipulation: Spreadsheet,Store: enc_test_acc,sub_label
Desktop or Laptop,Mac OS 10.15.7,Chrome 138.0.0.0,2240x1260,2240x1172,Temporal Distance Task,$${counterbalance_group},,,,,,info,BEGIN,,,,,,,0.0,,,,,,,,,,,,,,,,,,,,sub-62
Desktop or Laptop,Mac OS 10.15.7,Chrome 138.0.0.0,2240x1260,2240x1172,Temporal Distance Task,cb_02,1.0,temp_instructions,intro_screen,3tnme7,1.0,continue,,11270.8,11266.7,11270.8,11270.8,11266.7,11270.8,1.0,0.0,0.0,,Click To Continue,Continue Button,4.0,object-29,temp_instructions,,,Travel,,,,,,,,,sub-62
Desktop or Laptop,Mac OS 10.15.7,Chrome 138.0.0.0,2240x1260,2240x1172,Temporal Distance Task,cb_02,1.0,temp_instructions,intro_screen_2,52v7ur,2.0,continue,,5476.1,5466.6,5476.1,5476.1,5466.6,5476.1,1.0,0.0,0.0,,Click To Continue,Continue Button,4.0,object-39,temp_instructions,,,Travel,,,,,,,,,sub-62
Desktop or Laptop,Mac OS 10.15.7,Chrome 138.0.0.0,2240x1260,2240x1172,Temporal Distance Task,cb_02,1.0,temp_instructions,intro_screen_3,i7lvwx,3.0,continue,,3039.300000011921,3033.400000000001,3039.300000011921,3039.300000011921,3033.400000000001,3039.300000011921,1.0,0.0,0.0,,Click To Continue,Continue Button,4.0,object-67,temp_instructions,,,Travel,,,,,,,,,sub-62
Desktop or Laptop,Mac OS 10.15.7,Chrome 138.0.0.0,2240x1260,2240x1172,Temporal Distance Task,cb_02,1.0,temp_instructions,test_q1,5ieqx1,4.0,response,choice_3,7569.30000001788,7566.599999999998,7569.30000001788,7569.30000001788,7566.599999999998,7569.30000001788,1.0,0.0,0.0,,Click Response,choice_3,5.0,object-345,temp_instructions,,,Travel,,,,,,,,,sub-62
Desktop or Laptop,Mac OS 10.15.7,Chrome 138.0.0.0,2240x1260,2240x1172,Temporal Distance Task,cb_02,1.0,temp_instructions,score_corr,7ilvjr,5.0,continue,,1133.1999999999969,1116.5999999999983,1133.1999999999969,1133.1999999999969,1116.5999999999983,1133.1999999999969,1.0,0.0,0.0,,Click To Continue,Continue Button,3.0,object-23,temp_instructions,,,Travel,,,,,,,,,sub-62
Desktop or Laptop,Mac OS 10.15.7,Chrome 138.0.0.0,2240x1260,2240x1172,Temporal Distance Task,cb_02,1.0,temp_eventStart,Screen 1,dgtyxe,1.0,continue,,1498.7000000000046,1482.7000000000046,1498.7000000000046,1498.7000000000046,1482.7000000000046,1498.7000000000046,1.0,0.0,0.0,,Click To Continue,Next Button,3.0,object-43,temp_eventStart,,,Travel,,,,,,,,,sub-62
Desktop or Laptop,Mac OS 10.15.7,Chrome 138.0.0.0,2240x1260,2240x1172,Temporal Distance Task,cb_02,1.0,temp_dist_trial,num_items,zn7si1,1.0,response,1_ITEM,2283.8999999999937,2267.299999999996,2283.8999999999937,2283.8999999999937,2267.299999999996,2283.8999999999937,1.0,0.0,0.0,,Click Response,1_count,3.0,object-46,temp_dist_trial,1.0,t_s_02_1,travel_shared,water bottle,2.0,competing,single,t_s_02_1.jpg,Travel,,,sub-62
Desktop or Laptop,Mac OS 10.15.7,Chrome 138.0.0.0,2240x1260,2240x1172,Temporal Distance Task,cb_02,2.0,temp_dist_trial,num_items,zn7si1,1.0,response,2_ITEM,1281.4000000000087,1265.7000000000044,1281.4000000000087,1281.4000000000087,1265.7000000000044,1281.4000000000087,1.0,0.0,0.0,,Click Response,2_count,5.0,object-49,temp_dist_trial,2.0,t_s_11_1,travel_shared,eye mask,2.0,competing,paired,t_s_11_1.jpg,Travel,,,sub-62
Desktop or Laptop,Mac OS 10.15.7,Chrome 138.0.0.0,2240x1260,2240x1172,Temporal Distance Task,cb_02,2.0,temp_dist_trial,dist_items,qkpkxw,2.0,info,,16.69999999999709,0.0,16.69999999999709,16.69999999999709,0.0,16.69999999999709,1.0,0.0,0.0,,Slider,Slider,4.0,object-56,temp_dist_trial,2.0,t_s_11_1,travel_shared,eye mask,2.0,competing,paired,t_s_11_1.jpg,Travel,,,sub-62
Desktop or Laptop,Mac OS 10.15.7,Chrome 138.0.0.0,2240x1260,2240x1172,Temporal Distance Task,cb_02,2.0,temp_dist_trial,dist_items,qkpkxw,2.0,continue,,5713.800000000002,5700.100000000006,5713.800000000002,5713.800000000002,5700.100000000006,5713.800000000002,1.0,0.0,0.0,,Click To Continue,Next button,7.0,object-60,temp_dist_trial,2.0,t_s_11_1,travel_shared,eye mask,2.0,competing,paired,t_s_11_1.jpg,Travel,,,sub-62
Desktop or Laptop,Mac OS 10.15.7,Chrome 138.0.0.0,2240x1260,2240x1172,Temporal Distance Task,cb_02,2.0,temp_dist_trial,dist_items,qkpkxw,2.0,response,54,4333.4000000000015,5700.100000000006,5716.80000000001,4333.4000000000015,5700.100000000006,5716.80000000001,1.0,1383.400000000009,0.0,,Slider,Slider,4.0,object-56,temp_dist_trial,2.0,t_s_11_1,travel_shared,eye mask,2.0,competing,paired,t_s_11_1.jpg,Travel,,,sub-62
Desktop or Laptop,Mac OS 10.15.7,Chrome 138.0.0.0,2240x1260,2240x1172,Temporal Distance Task,cb_02,3.0,temp_dist_trial,num_items,zn7si1,1.0,response,1_ITEM,2099.199999999997,2083.299999999996,2099.199999999997,2099.199999999997,2083.299999999996,2099.199999999997,1.0,0.0,0.0,,Click Response,1_count,3.0,object-46,temp_dist_trial,3.0,t_s_21_1,travel_shared,umbrella,2.0,competing,single,t_s_21_1.jpg,Travel,,,sub-62
Desktop or Laptop,Mac OS 10.15.7,Chrome 138.0.0.0,2240x1260,2240x1172,Temporal Distance Task,cb_02,4.0,temp_dist_trial,num_items,zn7si1,1.0,response,2_ITEM,1760.7000000178814,1750.0999999999985,1760.7000000178814,1760.7000000178814,1750.0999999999985,1760.7000000178814,1.0,0.0,0.0,,Click Response,2_count,5.0,object-49,temp_dist_trial,4.0,t_m_18_1,travel_Miami,waterproof tote,2.0,unique,paired,t_m_18_1.jpg,Travel,,,sub-62
Desktop or Laptop,Mac OS 10.15.7,Chrome 138.0.0.0,2240x1260,2240x1172,Temporal Distance Task,cb_02,4.0,temp_dist_trial,dist_items,qkpkxw,2.0,info,,9.200000011922384,0.0,9.200000011922384,9.200000011922384,0.0,9.200000011922384,1.0,0.0,0.0,,Slider,Slider,4.0,object-56,temp_dist_trial,4.0,t_m_18_1,travel_Miami,waterproof tote,2.0,unique,paired,t_m_18_1.jpg,Travel,,,sub-62
Desktop or Laptop,Mac OS 10.15.7,Chrome 138.0.0.0,2240x1260,2240x1172,Temporal Distance Task,cb_02,4.0,temp_dist_trial,dist_items,qkpkxw,2.0,continue,,3480.800000005962,3467.099999999999,3480.800000005962,3480.800000005962,3467.099999999999,3480.800000005962,1.0,0.0,0.0,,Click To Continue,Next button,7.0,object-60,temp_dist_trial,4.0,t_m_18_1,travel_Miami,waterproof tote,2.0,unique,paired,t_m_18_1.jpg,Travel,,,sub-62
Desktop or Laptop,Mac OS 10.15.7,Chrome 138.0.0.0,2240x1260,2240x1172,Temporal Distance Task,cb_02,4.0,temp_dist_trial,dist_items,qkpkxw,2.0,response,62,2033.9000000000005,3467.099999999999,3481.6000000178833,2033.9000000000005,3467.099999999999,3481.6000000178833,1.0,1447.7000000178814,0.0,,Slider,Slider,4.0,object-56,temp_dist_trial,4.0,t_m_18_1,travel_Miami,waterproof tote,2.0,unique,paired,t_m_18_1.jpg,Travel,,,sub-62
Desktop or Laptop,Mac OS 10.15.7,Chrome 138.0.0.0,2240x1260,2240x1172,Temporal Distance Task,cb_02,5.0,temp_dist_trial,num_items,zn7si1,1.0,response,2_ITEM,2144.1000000119243,2133.400000000001,2144.1000000119243,2144.1000000119243,2133.400000000001,2144.1000000119243,1.0,0.0,0.0,,Click Response,2_count,5.0,object-49,temp_dist_trial,5.0,t_i_15_1,travel_Iceland,compass,2.0,unique,paired,t_i_15_1.jpg,Travel,,,sub-62
Desktop or Laptop,Mac OS 10.15.7,Chrome 138.0.0.0,2240x1260,2240x1172,Temporal Distance Task,cb_02,5.0,temp_dist_trial,dist_items,qkpkxw,2.0,info,,7.5,0.0,7.5,7.5,0.0,7.5,1.0,0.0,0.0,,Slider,Slider,4.0,object-56,temp_dist_trial,5.0,t_i_15_1,travel_Iceland,compass,2.0,unique,paired,t_i_15_1.jpg,Travel,,,sub-62
Desktop or Laptop,Mac OS 10.15.7,Chrome 138.0.0.0,2240x1260,2240x1172,Temporal Distance Task,cb_02,5.0,temp_dist_trial,dist_items,qkpkxw,2.0,continue,,3736.0,3733.400000000001,3736.0,3736.0,3733.400000000001,3736.0,1.0,0.0,0.0,,Click To Continue,Next button,7.0,object-60,temp_dist_trial,5.0,t_i_15_1,travel_Iceland,compass,2.0,unique,paired,t_i_15_1.jpg,Travel,,,sub-62
Desktop or Laptop,Mac OS 10.15.7,Chrome 138.0.0.0,2240x1260,2240x1172,Temporal Distance Task,cb_02,5.0,temp_dist_trial,dist_items,qkpkxw,2.0,response,63,2150.0999999999985,3733.400000000001,3736.59999999404,2150.0999999999985,3733.400000000001,3736.59999999404,1.0,1586.4999999940412,0.0,,Slider,Slider,4.0,object-56,temp_dist_trial,5.0,t_i_15_1,travel_Iceland,compass,2.0,unique,paired,t_i_15_1.jpg,Travel,,,sub-62
Desktop or Laptop,Mac OS 10.15.7,Chrome 138.0.0.0,2240x1260,2240x1172,Temporal Distance Task,cb_02,6.0,temp_dist_trial,num_items,zn7si1,1.0,response,2_ITEM,1516.7000000000046,1500.0,1516.7000000000046,1516.7000000000046,1500.0,1516.7000000000046,1.0,0.0,0.0,,Click Response,2_count,5.0,object-49,temp_dist_trial,6.0,t_s_09_1,travel_shared,wallet,2.0,competing,single,t_s_09_1.jpg,Travel,,,sub-62
Desktop or Laptop,Mac OS 10.15.7,Chrome 138.0.0.0,2240x1260,2240x1172,Temporal Distance Task,cb_02,6.0,temp_dist_trial,dist_items,qkpkxw,2.0,info,,6.400000011919474,0.0,6.400000011919474,6.400000011919474,0.0,6.400000011919474,1.0,0.0,0.0,,Slider,Slider,4.0,object-56,temp_dist_trial,6.0,t_s_09_1,travel_shared,wallet,2.0,competing,single,t_s_09_1.jpg,Travel,,,sub-62
Desktop or Laptop,Mac OS 10.15.7,Chrome 138.0.0.0,2240x1260,2240x1172,Temporal Distance Task,cb_02,6.0,temp_dist_trial,dist_items,qkpkxw,2.0,continue,,3622.599999999999,3616.599999999999,3622.599999999999,3622.599999999999,3616.599999999999,3622.599999999999,1.0,0.0,0.0,,Click To Continue,Next button,7.0,object-60,temp_dist_trial,6.0,t_s_09_1,travel_shared,wallet,2.0,competing,single,t_s_09_1.jpg,Travel,,,sub-62
Desktop or Laptop,Mac OS 10.15.7,Chrome 138.0.0.0,2240x1260,2240x1172,Temporal Distance Task,cb_02,6.0,temp_dist_trial,dist_items,qkpkxw,2.0,response,68,1133.2999999999956,3616.599999999999,3623.199999994038,1133.2999999999956,3616.599999999999,3623.199999994038,1.0,2489.8999999940424,0.0,,Slider,Slider,4.0,object-56,temp_dist_trial,6.0,t_s_09_1,travel_shared,wallet,2.0,competing,single,t_s_09_1.jpg,Travel,,,sub-62
Desktop or Laptop,Mac OS 10.15.7,Chrome 138.0.0.0,2240x1260,2240x1172,Temporal Distance Task,cb_02,7.0,temp_dist_trial,num_items,zn7si1,1.0,response,2_ITEM,1310.5,1300.0,1310.5,1310.5,1300.0,1310.5,1.0,0.0,0.0,,Click Response,2_count,5.0,object-49,temp_dist_trial,7.0,t_s_18_1,travel_shared,first aid kit,2.0,competing,paired,t_s_18_1.jpg,Travel,,,sub-62
Desktop or Laptop,Mac OS 10.15.7,Chrome 138.0.0.0,2240x1260,2240x1172,Temporal Distance Task,cb_02,7.0,temp_dist_trial,dist_items,qkpkxw,2.0,info,,5.800000011920929,0.0,5.800000011920929,5.800000011920929,0.0,5.800000011920929,1.0,0.0,0.0,,Slider,Slider,4.0,object-56,temp_dist_trial,7.0,t_s_18_1,travel_shared,first aid kit,2.0,competing,paired,t_s_18_1.jpg,Travel,,,sub-62
Desktop or Laptop,Mac OS 10.15.7,Chrome 138.0.0.0,2240x1260,2240x1172,Temporal Distance Task,cb_02,7.0,temp_dist_trial,dist_items,qkpkxw,2.0,continue,,5098.400000005961,5082.699999999997,5098.400000005961,5098.400000005961,5082.699999999997,5098.400000005961,1.0,0.0,0.0,,Click To Continue,Next button,7.0,object-60,temp_dist_trial,7.0,t_s_18_1,travel_shared,first aid kit,2.0,competing,paired,t_s_18_1.jpg,Travel,,,sub-62
Desktop or Laptop,Mac OS 10.15.7,Chrome 138.0.0.0,2240x1260,2240x1172,Temporal Distance Task,cb_02,7.0,temp_dist_trial,dist_items,qkpkxw,2.0,response,57,1033.4000000000017,5082.699999999997,5098.799999999987,1033.4000000000017,5082.699999999997,5098.799999999987,1.0,4065.3999999999874,0.0,,Slider,Slider,4.0,object-56,temp_dist_trial,7.0,t_s_18_1,travel_shared,first aid kit,2.0,competing,paired,t_s_18_1.jpg,Travel,,,sub-62
Desktop or Laptop,Mac OS 10.15.7,Chrome 138.0.0.0,2240x1260,2240x1172,Temporal Distance Task,cb_02,8.0,temp_dist_trial,num_items,zn7si1,1.0,response,2_ITEM,1471.3000000000034,1467.3000000000034,1471.3000000000034,1471.3000000000034,1467.3000000000034,1471.3000000000034,1.0,0.0,0.0,,Click Response,2_count,5.0,object-49,temp_dist_trial,8.0,t_s_16_1,travel_shared,chapstick,2.0,competing,single,t_s_16_1.jpg,Travel,,,sub-62
Desktop or Laptop,Mac OS 10.15.7,Chrome 138.0.0.0,2240x1260,2240x1172,Temporal Distance Task,cb_02,8.0,temp_dist_trial,dist_items,qkpkxw,2.0,info,,5.599999994039536,0.0,5.599999994039536,5.599999994039536,0.0,5.599999994039536,1.0,0.0,0.0,,Slider,Slider,4.0,object-56,temp_dist_trial,8.0,t_s_16_1,travel_shared,chapstick,2.0,competing,single,t_s_16_1.jpg,Travel,,,sub-62
Desktop or Laptop,Mac OS 10.15.7,Chrome 138.0.0.0,2240x1260,2240x1172,Temporal Distance Task,cb_02,8.0,temp_dist_trial,dist_items,qkpkxw,2.0,continue,,5321.0,5316.600000000006,5321.0,5321.0,5316.600000000006,5321.0,1.0,0.0,0.0,,Click To Continue,Next button,7.0,object-60,temp_dist_trial,8.0,t_s_16_1,travel_shared,chapstick,2.0,competing,single,t_s_16_1.jpg,Travel,,,sub-62
Desktop or Laptop,Mac OS 10.15.7,Chrome 138.0.0.0,2240x1260,2240x1172,Temporal Distance Task,cb_02,8.0,temp_dist_trial,dist_items,qkpkxw,2.0,response,45,3916.699999999997,5316.600000000006,5323.800000011921,3916.699999999997,5316.600000000006,5323.800000011921,1.0,1407.1000000119238,0.0,,Slider,Slider,4.0,object-56,temp_dist_trial,8.0,t_s_16_1,travel_shared,chapstick,2.0,competing,single,t_s_16_1.jpg,Travel,,,sub-62
Desktop or Laptop,Mac OS 10.15.7,Chrome 138.0.0.0,2240x1260,2240x1172,Temporal Distance Task,cb_02,9.0,temp_dist_trial,num_items,zn7si1,1.0,response,2_ITEM,1429.4999999940335,1416.6999999999966,1429.4999999940335,1429.4999999940335,1416.6999999999966,1429.4999999940335,1.0,0.0,0.0,,Click Response,2_count,5.0,object-49,temp_dist_trial,9.0,t_m_01_1,travel_Miami,sandals,2.0,unique,paired,t_m_01_1.jpg,Travel,,,sub-62
Desktop or Laptop,Mac OS 10.15.7,Chrome 138.0.0.0,2240x1260,2240x1172,Temporal Distance Task,cb_02,9.0,temp_dist_trial,dist_items,qkpkxw,2.0,info,,8.600000000005819,0.0,8.600000000005819,8.600000000005819,0.0,8.600000000005819,1.0,0.0,0.0,,Slider,Slider,4.0,object-56,temp_dist_trial,9.0,t_m_01_1,travel_Miami,sandals,2.0,unique,paired,t_m_01_1.jpg,Travel,,,sub-62
Desktop or Laptop,Mac OS 10.15.7,Chrome 138.0.0.0,2240x1260,2240x1172,Temporal Distance Task,cb_02,9.0,temp_dist_trial,dist_items,qkpkxw,2.0,continue,,3858.5000000059667,3850.800000000003,3858.5000000059667,3858.5000000059667,3850.800000000003,3858.5000000059667,1.0,0.0,0.0,,Click To Continue,Next button,7.0,object-60,temp_dist_trial,9.0,t_m_01_1,travel_Miami,sandals,2.0,unique,paired,t_m_01_1.jpg,Travel,,,sub-62
Desktop or Laptop,Mac OS 10.15.7,Chrome 138.0.0.0,2240x1260,2240x1172,Temporal Distance Task,cb_02,9.0,temp_dist_trial,dist_items,qkpkxw,2.0,response,63,2884.200000000012,3850.800000000003,3859.1000000000067,2884.200000000012,3850.800000000003,3859.1000000000067,1.0,974.8999999999942,0.0,,Slider,Slider,4.0,object-56,temp_dist_trial,9.0,t_m_01_1,travel_Miami,sandals,2.0,unique,paired,t_m_01_1.jpg,Travel,,,sub-62
Desktop or Laptop,Mac OS 10.15.7,Chrome 138.0.0.0,2240x1260,2240x1172,Temporal Distance Task,cb_02,10.0,temp_dist_trial,num_items,zn7si1,1.0,response,num_miss,3000.1000000000067,3000.1000000000067,3000.1000000000067,3000.1000000000067,3000.1000000000067,3000.1000000000067,1.0,0.0,0.0,num_miss_tag,Time Limit,screen,0.0,screen,temp_dist_trial,10.0,t_i_20_1,travel_Iceland,lantern,2.0,unique,paired,t_i_20_1.jpg,Travel,,,sub-62
Desktop or Laptop,Mac OS 10.15.7,Chrome 138.0.0.0,2240x1260,2240x1172,Temporal Distance Task,cb_02,11.0,temp_dist_trial,num_items,zn7si1,1.0,response,2_ITEM,1424.7000000119147,1416.599999999991,1424.7000000119147,1424.7000000119147,1416.599999999991,1424.7000000119147,1.0,0.0,0.0,,Click Response,2_count,5.0,object-49,temp_dist_trial,11.0,t_s_07_1,travel_shared,phone charger cable,2.0,competing,paired,t_s_07_1.jpg,Travel,,,sub-62
Desktop or Laptop,Mac OS 10.15.7,Chrome 138.0.0.0,2240x1260,2240x1172,Temporal Distance Task,cb_02,11.0,temp_dist_trial,dist_items,qkpkxw,2.0,info,,7.799999994036624,0.0,7.799999994036624,7.799999994036624,0.0,7.799999994036624,1.0,0.0,0.0,,Slider,Slider,4.0,object-56,temp_dist_trial,11.0,t_s_07_1,travel_shared,phone charger cable,2.0,competing,paired,t_s_07_1.jpg,Travel,,,sub-62
Desktop or Laptop,Mac OS 10.15.7,Chrome 138.0.0.0,2240x1260,2240x1172,Temporal Distance Task,cb_02,11.0,temp_dist_trial,dist_items,qkpkxw,2.0,continue,,3175.9000000178785,3166.5,3175.9000000178785,3175.9000000178785,3166.5,3175.9000000178785,1.0,0.0,0.0,,Click To Continue,Next button,7.0,object-60,temp_dist_trial,11.0,t_s_07_1,travel_shared,phone charger cable,2.0,competing,paired,t_s_07_1.jpg,Travel,,,sub-62
Desktop or Laptop,Mac OS 10.15.7,Chrome 138.0.0.0,2240x1260,2240x1172,Temporal Distance Task,cb_02,11.0,temp_dist_trial,dist_items,qkpkxw,2.0,response,63,1416.599999999991,3166.5,3176.5000000119176,1416.599999999991,3166.5,3176.5000000119176,1.0,1759.900000011927,0.0,,Slider,Slider,4.0,object-56,temp_dist_trial,11.0,t_s_07_1,travel_shared,phone charger cable,2.0,competing,paired,t_s_07_1.jpg,Travel,,,sub-62
Desktop or Laptop,Mac OS 10.15.7,Chrome 138.0.0.0,2240x1260,2240x1172,Temporal Distance Task,cb_02,12.0,temp_dist_trial,num_items,zn7si1,1.0,response,2_ITEM,1181.000000011918,1166.8000000000031,1181.000000011918,1181.000000011918,1166.8000000000031,1181.000000011918,1.0,0.0,0.0,,Click Response,2_count,5.0,object-49,temp_dist_trial,12.0,t_s_01_1,travel_shared,fanny pack,2.0,competing,paired,t_s_01_1.jpg,Travel,,,sub-62
Desktop or Laptop,Mac OS 10.15.7,Chrome 138.0.0.0,2240x1260,2240x1172,Temporal Distance Task,cb_02,12.0,temp_dist_trial,dist_items,qkpkxw,2.0,info,,6.4000000059604645,0.0,6.4000000059604645,6.4000000059604645,0.0,6.4000000059604645,1.0,0.0,0.0,,Slider,Slider,4.0,object-56,temp_dist_trial,12.0,t_s_01_1,travel_shared,fanny pack,2.0,competing,paired,t_s_01_1.jpg,Travel,,,sub-62
Desktop or Laptop,Mac OS 10.15.7,Chrome 138.0.0.0,2240x1260,2240x1172,Temporal Distance Task,cb_02,12.0,temp_dist_trial,dist_items,qkpkxw,2.0,continue,,3214.700000017881,3200.0,3214.700000017881,3214.700000017881,3200.0,3214.700000017881,1.0,0.0,0.0,,Click To Continue,Next button,7.0,object-60,temp_dist_trial,12.0,t_s_01_1,travel_shared,fanny pack,2.0,competing,paired,t_s_01_1.jpg,Travel,,,sub-62
Desktop or Laptop,Mac OS 10.15.7,Chrome 138.0.0.0,2240x1260,2240x1172,Temporal Distance Task,cb_02,12.0,temp_dist_trial,dist_items,qkpkxw,2.0,response,34,1666.6999999999966,3200.0,3215.300000011921,1666.6999999999966,3200.0,3215.300000011921,1.0,1548.6000000119238,0.0,,Slider,Slider,4.0,object-56,temp_dist_trial,12.0,t_s_01_1,travel_shared,fanny pack,2.0,competing,paired,t_s_01_1.jpg,Travel,,,sub-62
Desktop or Laptop,Mac OS 10.15.7,Chrome 138.0.0.0,2240x1260,2240x1172,Temporal Distance Task,cb_02,13.0,temp_dist_trial,num_items,zn7si1,1.0,response,2_ITEM,1379.5999999940395,1366.6999999999969,1379.5999999940395,1379.5999999940395,1366.6999999999969,1379.5999999940395,1.0,0.0,0.0,,Click Response,2_count,5.0,object-49,temp_dist_trial,13.0,t_m_12_1,travel_Miami,foldable pail and shovel,2.0,unique,paired,t_m_12_1.jpg,Travel,,,sub-62
Desktop or Laptop,Mac OS 10.15.7,Chrome 138.0.0.0,2240x1260,2240x1172,Temporal Distance Task,cb_02,13.0,temp_dist_trial,dist_items,qkpkxw,2.0,info,,6.6999999999970905,0.0,6.6999999999970905,6.6999999999970905,0.0,6.6999999999970905,1.0,0.0,0.0,,Slider,Slider,4.0,object-56,temp_dist_trial,13.0,t_m_12_1,travel_Miami,foldable pail and shovel,2.0,unique,paired,t_m_12_1.jpg,Travel,,,sub-62
Desktop or Laptop,Mac OS 10.15.7,Chrome 138.0.0.0,2240x1260,2240x1172,Temporal Distance Task,cb_02,13.0,temp_dist_trial,dist_items,qkpkxw,2.0,continue,,2340.6000000059576,2333.300000000003,2340.6000000059576,2340.6000000059576,2333.300000000003,2340.6000000059576,1.0,0.0,0.0,,Click To Continue,Next button,7.0,object-60,temp_dist_trial,13.0,t_m_12_1,travel_Miami,foldable pail and shovel,2.0,unique,paired,t_m_12_1.jpg,Travel,,,sub-62
Desktop or Laptop,Mac OS 10.15.7,Chrome 138.0.0.0,2240x1260,2240x1172,Temporal Distance Task,cb_02,13.0,temp_dist_trial,dist_items,qkpkxw,2.0,response,58,1200.0,2333.300000000003,2344.1000000059576,1200.0,2333.300000000003,2344.1000000059576,1.0,1144.1000000059576,0.0,,Slider,Slider,4.0,object-56,temp_dist_trial,13.0,t_m_12_1,travel_Miami,foldable pail and shovel,2.0,unique,paired,t_m_12_1.jpg,Travel,,,sub-62
Desktop or Laptop,Mac OS 10.15.7,Chrome 138.0.0.0,2240x1260,2240x1172,Temporal Distance Task,cb_02,14.0,temp_dist_trial,num_items,zn7si1,1.0,response,1_ITEM,1780.3000000059546,1766.599999999991,1780.3000000059546,1780.3000000059546,1766.599999999991,1780.3000000059546,1.0,0.0,0.0,,Click Response,1_count,3.0,object-46,temp_dist_trial,14.0,t_i_14_1,travel_Iceland,snow pants,2.0,unique,single,t_i_14_1.jpg,Travel,,,sub-62
Desktop or Laptop,Mac OS 10.15.7,Chrome 138.0.0.0,2240x1260,2240x1172,Temporal Distance Task,cb_02,15.0,temp_dist_trial,num_items,zn7si1,1.0,response,2_ITEM,2012.9000000178785,1999.8999999999944,2012.9000000178785,2012.9000000178785,1999.8999999999944,2012.9000000178785,1.0,0.0,0.0,,Click Response,2_count,5.0,object-49,temp_dist_trial,15.0,t_s_04_1,travel_shared,instant camera,2.0,competing,paired,t_s_04_1.jpg,Travel,,,sub-62
Desktop or Laptop,Mac OS 10.15.7,Chrome 138.0.0.0,2240x1260,2240x1172,Temporal Distance Task,cb_02,15.0,temp_dist_trial,dist_items,qkpkxw,2.0,info,,6.3000000000029095,0.0,6.3000000000029095,6.3000000000029095,0.0,6.3000000000029095,1.0,0.0,0.0,,Slider,Slider,4.0,object-56,temp_dist_trial,15.0,t_s_04_1,travel_shared,instant camera,2.0,competing,paired,t_s_04_1.jpg,Travel,,,sub-62
Desktop or Laptop,Mac OS 10.15.7,Chrome 138.0.0.0,2240x1260,2240x1172,Temporal Distance Task,cb_02,15.0,temp_dist_trial,dist_items,qkpkxw,2.0,continue,,2177.2000000059634,2166.6000000000063,2177.2000000059634,2177.2000000059634,2166.6000000000063,2177.2000000059634,1.0,0.0,0.0,,Click To Continue,Next button,7.0,object-60,temp_dist_trial,15.0,t_s_04_1,travel_shared,instant camera,2.0,competing,paired,t_s_04_1.jpg,Travel,,,sub-62
Desktop or Laptop,Mac OS 10.15.7,Chrome 138.0.0.0,2240x1260,2240x1172,Temporal Distance Task,cb_02,15.0,temp_dist_trial,dist_items,qkpkxw,2.0,response,67,1183.3000000000031,2166.6000000000063,2177.8999999940424,1183.3000000000031,2166.6000000000063,2177.8999999940424,1.0,994.5999999940396,0.0,,Slider,Slider,4.0,object-56,temp_dist_trial,15.0,t_s_04_1,travel_shared,instant camera,2.0,competing,paired,t_s_04_1.jpg,Travel,,,sub-62
Desktop or Laptop,Mac OS 10.15.7,Chrome 138.0.0.0,2240x1260,2240x1172,Temporal Distance Task,cb_02,16.0,temp_dist_trial,num_items,zn7si1,1.0,response,1_ITEM,2260.500000011918,2250.0,2260.500000011918,2260.500000011918,2250.0,2260.500000011918,1.0,0.0,0.0,,Click Response,1_count,3.0,object-46,temp_dist_trial,16.0,t_i_16_1,travel_Iceland,skis,2.0,unique,single,t_i_16_1.jpg,Travel,,,sub-62
Desktop or Laptop,Mac OS 10.15.7,Chrome 138.0.0.0,2240x1260,2240x1172,Temporal Distance Task,cb_02,17.0,temp_dist_trial,num_items,zn7si1,1.0,response,2_ITEM,1801.6999999999966,1800.099999999991,1801.6999999999966,1801.6999999999966,1800.099999999991,1801.6999999999966,1.0,0.0,0.0,,Click Response,2_count,5.0,object-49,temp_dist_trial,17.0,t_m_08_1,travel_Miami,flipflops,2.0,unique,single,t_m_08_1.jpg,Travel,,,sub-62
Desktop or Laptop,Mac OS 10.15.7,Chrome 138.0.0.0,2240x1260,2240x1172,Temporal Distance Task,cb_02,17.0,temp_dist_trial,dist_items,qkpkxw,2.0,info,,6.50000001191802,0.0,6.50000001191802,6.50000001191802,0.0,6.50000001191802,1.0,0.0,0.0,,Slider,Slider,4.0,object-56,temp_dist_trial,17.0,t_m_08_1,travel_Miami,flipflops,2.0,unique,single,t_m_08_1.jpg,Travel,,,sub-62
Desktop or Laptop,Mac OS 10.15.7,Chrome 138.0.0.0,2240x1260,2240x1172,Temporal Distance Task,cb_02,17.0,temp_dist_trial,dist_items,qkpkxw,2.0,continue,,4099.400000017879,4083.3999999999933,4099.400000017879,4099.400000017879,4083.3999999999933,4099.400000017879,1.0,0.0,0.0,,Click To Continue,Next button,7.0,object-60,temp_dist_trial,17.0,t_m_08_1,travel_Miami,flipflops,2.0,unique,single,t_m_08_1.jpg,Travel,,,sub-62
Desktop or Laptop,Mac OS 10.15.7,Chrome 138.0.0.0,2240x1260,2240x1172,Temporal Distance Task,cb_02,17.0,temp_dist_trial,dist_items,qkpkxw,2.0,response,54,2115.8999999999937,4083.3999999999933,4100.000000011918,2115.8999999999937,4083.3999999999933,4100.000000011918,1.0,1984.100000011924,0.0,,Slider,Slider,4.0,object-56,temp_dist_trial,17.0,t_m_08_1,travel_Miami,flipflops,2.0,unique,single,t_m_08_1.jpg,Travel,,,sub-62
Desktop or Laptop,Mac OS 10.15.7,Chrome 138.0.0.0,2240x1260,2240x1172,Temporal Distance Task,cb_02,18.0,temp_dist_trial,num_items,zn7si1,1.0,response,2_ITEM,1832.8999999940424,1816.5,1832.8999999940424,1832.8999999940424,1816.5,1832.8999999940424,1.0,0.0,0.0,,Click Response,2_count,5.0,object-49,temp_dist_trial,18.0,t_i_19_1,travel_Iceland,rope,2.0,unique,paired,t_i_19_1.jpg,Travel,,,sub-62
Desktop or Laptop,Mac OS 10.15.7,Chrome 138.0.0.0,2240x1260,2240x1172,Temporal Distance Task,cb_02,18.0,temp_dist_trial,dist_items,qkpkxw,2.0,info,,6.1999999999970905,0.0,6.1999999999970905,6.1999999999970905,0.0,6.1999999999970905,1.0,0.0,0.0,,Slider,Slider,4.0,object-56,temp_dist_trial,18.0,t_i_19_1,travel_Iceland,rope,2.0,unique,paired,t_i_19_1.jpg,Travel,,,sub-62
Desktop or Laptop,Mac OS 10.15.7,Chrome 138.0.0.0,2240x1260,2240x1172,Temporal Distance Task,cb_02,18.0,temp_dist_trial,dist_items,qkpkxw,2.0,continue,,3111.6000000059576,3100.0,3111.6000000059576,3111.6000000059576,3100.0,3111.6000000059576,1.0,0.0,0.0,,Click To Continue,Next button,7.0,object-60,temp_dist_trial,18.0,t_i_19_1,travel_Iceland,rope,2.0,unique,paired,t_i_19_1.jpg,Travel,,,sub-62
Desktop or Laptop,Mac OS 10.15.7,Chrome 138.0.0.0,2240x1260,2240x1172,Temporal Distance Task,cb_02,18.0,temp_dist_trial,dist_items,qkpkxw,2.0,response,41,2050.0,3100.0,3112.1000000059576,2050.0,3100.0,3112.1000000059576,1.0,1062.1000000059576,0.0,,Slider,Slider,4.0,object-56,temp_dist_trial,18.0,t_i_19_1,travel_Iceland,rope,2.0,unique,paired,t_i_19_1.jpg,Travel,,,sub-62
Desktop or Laptop,Mac OS 10.15.7,Chrome 138.0.0.0,2240x1260,2240x1172,Temporal Distance Task,cb_02,19.0,temp_dist_trial,num_items,zn7si1,1.0,response,1_ITEM,2004.4000000178785,2000.0,2004.4000000178785,2004.4000000178785,2000.0,2004.4000000178785,1.0,0.0,0.0,,Click Response,1_count,3.0,object-46,temp_dist_trial,19.0,t_i_04_1,travel_Iceland,portable camping stove,2.0,unique,single,t_i_04_1.jpg,Travel,,,sub-62
Desktop or Laptop,Mac OS 10.15.7,Chrome 138.0.0.0,2240x1260,2240x1172,Temporal Distance Task,cb_02,20.0,temp_dist_trial,num_items,zn7si1,1.0,response,2_ITEM,1211.5000000178845,1200.1000000000058,1211.5000000178845,1211.5000000178845,1200.1000000000058,1211.5000000178845,1.0,0.0,0.0,,Click Response,2_count,5.0,object-49,temp_dist_trial,20.0,t_s_06_1,travel_shared,luggage,2.0,competing,single,t_s_06_1.jpg,Travel,,,sub-62
Desktop or Laptop,Mac OS 10.15.7,Chrome 138.0.0.0,2240x1260,2240x1172,Temporal Distance Task,cb_02,20.0,temp_dist_trial,dist_items,qkpkxw,2.0,info,,5.899999994042448,0.0,5.899999994042448,5.899999994042448,0.0,5.899999994042448,1.0,0.0,0.0,,Slider,Slider,4.0,object-56,temp_dist_trial,20.0,t_s_06_1,travel_shared,luggage,2.0,competing,single,t_s_06_1.jpg,Travel,,,sub-62
Desktop or Laptop,Mac OS 10.15.7,Chrome 138.0.0.0,2240x1260,2240x1172,Temporal Distance Task,cb_02,20.0,temp_dist_trial,dist_items,qkpkxw,2.0,continue,,2821.800000000003,2816.800000000003,2821.800000000003,2821.800000000003,2816.800000000003,2821.800000000003,1.0,0.0,0.0,,Click To Continue,Next button,7.0,object-60,temp_dist_trial,20.0,t_s_06_1,travel_shared,luggage,2.0,competing,single,t_s_06_1.jpg,Travel,,,sub-62
Desktop or Laptop,Mac OS 10.15.7,Chrome 138.0.0.0,2240x1260,2240x1172,Temporal Distance Task,cb_02,20.0,temp_dist_trial,dist_items,qkpkxw,2.0,response,53,1316.6999999999969,2816.800000000003,2822.300000000003,1316.6999999999969,2816.800000000003,2822.300000000003,1.0,1505.6000000000058,0.0,,Slider,Slider,4.0,object-56,temp_dist_trial,20.0,t_s_06_1,travel_shared,luggage,2.0,competing,single,t_s_06_1.jpg,Travel,,,sub-62
Desktop or Laptop,Mac OS 10.15.7,Chrome 138.0.0.0,2240x1260,2240x1172,Temporal Distance Task,cb_02,21.0,temp_dist_trial,num_items,zn7si1,1.0,response,2_ITEM,1369.5,1366.6000000000058,1369.5,1369.5,1366.6000000000058,1369.5,1.0,0.0,0.0,,Click Response,2_count,5.0,object-49,temp_dist_trial,21.0,t_s_17_1,travel_shared,toothbrush,2.0,competing,paired,t_s_17_1.jpg,Travel,,,sub-62
Desktop or Laptop,Mac OS 10.15.7,Chrome 138.0.0.0,2240x1260,2240x1172,Temporal Distance Task,cb_02,21.0,temp_dist_trial,dist_items,qkpkxw,2.0,info,,6.200000011915108,0.0,6.200000011915108,6.200000011915108,0.0,6.200000011915108,1.0,0.0,0.0,,Slider,Slider,4.0,object-56,temp_dist_trial,21.0,t_s_17_1,travel_shared,toothbrush,2.0,competing,paired,t_s_17_1.jpg,Travel,,,sub-62
Desktop or Laptop,Mac OS 10.15.7,Chrome 138.0.0.0,2240x1260,2240x1172,Temporal Distance Task,cb_02,21.0,temp_dist_trial,dist_items,qkpkxw,2.0,continue,,2451.8999999999937,2450.0,2451.8999999999937,2451.8999999999937,2450.0,2451.8999999999937,1.0,0.0,0.0,,Click To Continue,Next button,7.0,object-60,temp_dist_trial,21.0,t_s_17_1,travel_shared,toothbrush,2.0,competing,paired,t_s_17_1.jpg,Travel,,,sub-62
Desktop or Laptop,Mac OS 10.15.7,Chrome 138.0.0.0,2240x1260,2240x1172,Temporal Distance Task,cb_02,21.0,temp_dist_trial,dist_items,qkpkxw,2.0,response,60,1200.0,2450.0,2452.700000011915,1200.0,2450.0,2452.700000011915,1.0,1252.7000000119149,0.0,,Slider,Slider,4.0,object-56,temp_dist_trial,21.0,t_s_17_1,travel_shared,toothbrush,2.0,competing,paired,t_s_17_1.jpg,Travel,,,sub-62
Desktop or Laptop,Mac OS 10.15.7,Chrome 138.0.0.0,2240x1260,2240x1172,Temporal Distance Task,cb_02,22.0,temp_dist_trial,num_items,zn7si1,1.0,response,2_ITEM,1322.8999999999942,1316.6999999999969,1322.8999999999942,1322.8999999999942,1316.6999999999969,1322.8999999999942,1.0,0.0,0.0,,Click Response,2_count,5.0,object-49,temp_dist_trial,22.0,t_i_09_1,travel_Iceland,ear muffs,2.0,unique,paired,t_i_09_1.jpg,Travel,,,sub-62
Desktop or Laptop,Mac OS 10.15.7,Chrome 138.0.0.0,2240x1260,2240x1172,Temporal Distance Task,cb_02,22.0,temp_dist_trial,dist_items,qkpkxw,2.0,info,,7.5,0.0,7.5,7.5,0.0,7.5,1.0,0.0,0.0,,Slider,Slider,4.0,object-56,temp_dist_trial,22.0,t_i_09_1,travel_Iceland,ear muffs,2.0,unique,paired,t_i_09_1.jpg,Travel,,,sub-62
Desktop or Laptop,Mac OS 10.15.7,Chrome 138.0.0.0,2240x1260,2240x1172,Temporal Distance Task,cb_02,22.0,temp_dist_trial,dist_items,qkpkxw,2.0,continue,,2529.5,2517.0,2529.5,2529.5,2517.0,2529.5,1.0,0.0,0.0,,Click To Continue,Next button,7.0,object-60,temp_dist_trial,22.0,t_i_09_1,travel_Iceland,ear muffs,2.0,unique,paired,t_i_09_1.jpg,Travel,,,sub-62
Desktop or Laptop,Mac OS 10.15.7,Chrome 138.0.0.0,2240x1260,2240x1172,Temporal Distance Task,cb_02,22.0,temp_dist_trial,dist_items,qkpkxw,2.0,response,64,1450.2000000000116,2517.0,2529.9000000059605,1450.2000000000116,2517.0,2529.9000000059605,1.0,1079.7000000059488,0.0,,Slider,Slider,4.0,object-56,temp_dist_trial,22.0,t_i_09_1,travel_Iceland,ear muffs,2.0,unique,paired,t_i_09_1.jpg,Travel,,,sub-62
Desktop or Laptop,Mac OS 10.15.7,Chrome 138.0.0.0,2240x1260,2240x1172,Temporal Distance Task,cb_02,23.0,temp_dist_trial,num_items,zn7si1,1.0,response,2_ITEM,1316.5999999999767,1299.8999999999942,1316.5999999999767,1316.5999999999767,1299.8999999999942,1316.5999999999767,1.0,0.0,0.0,,Click Response,2_count,5.0,object-49,temp_dist_trial,23.0,t_m_17_1,travel_Miami,water gun,2.0,unique,paired,t_m_17_1.jpg,Travel,,,sub-62
Desktop or Laptop,Mac OS 10.15.7,Chrome 138.0.0.0,2240x1260,2240x1172,Temporal Distance Task,cb_02,23.0,temp_dist_trial,dist_items,qkpkxw,2.0,info,,5.699999994045356,0.0,5.699999994045356,5.699999994045356,0.0,5.699999994045356,1.0,0.0,0.0,,Slider,Slider,4.0,object-56,temp_dist_trial,23.0,t_m_17_1,travel_Miami,water gun,2.0,unique,paired,t_m_17_1.jpg,Travel,,,sub-62
Desktop or Laptop,Mac OS 10.15.7,Chrome 138.0.0.0,2240x1260,2240x1172,Temporal Distance Task,cb_02,23.0,temp_dist_trial,dist_items,qkpkxw,2.0,continue,,3010.4000000119267,3000.0,3010.4000000119267,3010.4000000119267,3000.0,3010.4000000119267,1.0,0.0,0.0,,Click To Continue,Next button,7.0,object-60,temp_dist_trial,23.0,t_m_17_1,travel_Miami,water gun,2.0,unique,paired,t_m_17_1.jpg,Travel,,,sub-62
Desktop or Laptop,Mac OS 10.15.7,Chrome 138.0.0.0,2240x1260,2240x1172,Temporal Distance Task,cb_02,23.0,temp_dist_trial,dist_items,qkpkxw,2.0,response,64,1116.7000000000116,3000.0,3010.9000000119267,1116.7000000000116,3000.0,3010.9000000119267,1.0,1894.2000000119147,0.0,,Slider,Slider,4.0,object-56,temp_dist_trial,23.0,t_m_17_1,travel_Miami,water gun,2.0,unique,paired,t_m_17_1.jpg,Travel,,,sub-62
Desktop or Laptop,Mac OS 10.15.7,Chrome 138.0.0.0,2240x1260,2240x1172,Temporal Distance Task,cb_02,24.0,temp_dist_trial,num_items,zn7si1,1.0,response,2_ITEM,1270.1000000000058,1266.6000000000058,1270.1000000000058,1270.1000000000058,1266.6000000000058,1270.1000000000058,1.0,0.0,0.0,,Click Response,2_count,5.0,object-49,temp_dist_trial,24.0,t_s_23_1,travel_shared,ball cap,2.0,competing,paired,t_s_23_1.jpg,Travel,,,sub-62
Desktop or Laptop,Mac OS 10.15.7,Chrome 138.0.0.0,2240x1260,2240x1172,Temporal Distance Task,cb_02,24.0,temp_dist_trial,dist_items,qkpkxw,2.0,info,,6.7000000178813925,0.0,6.7000000178813925,6.7000000178813925,0.0,6.7000000178813925,1.0,0.0,0.0,,Slider,Slider,4.0,object-56,temp_dist_trial,24.0,t_s_23_1,travel_shared,ball cap,2.0,competing,paired,t_s_23_1.jpg,Travel,,,sub-62
Desktop or Laptop,Mac OS 10.15.7,Chrome 138.0.0.0,2240x1260,2240x1172,Temporal Distance Task,cb_02,24.0,temp_dist_trial,dist_items,qkpkxw,2.0,continue,,2211.5999999940395,2199.7999999999884,2211.5999999940395,2211.5999999940395,2199.7999999999884,2211.5999999940395,1.0,0.0,0.0,,Click To Continue,Next button,7.0,object-60,temp_dist_trial,24.0,t_s_23_1,travel_shared,ball cap,2.0,competing,paired,t_s_23_1.jpg,Travel,,,sub-62
Desktop or Laptop,Mac OS 10.15.7,Chrome 138.0.0.0,2240x1260,2240x1172,Temporal Distance Task,cb_02,24.0,temp_dist_trial,dist_items,qkpkxw,2.0,response,60,1050.1000000000058,2199.7999999999884,2215.0,1050.1000000000058,2199.7999999999884,2215.0,1.0,1164.8999999999942,0.0,,Slider,Slider,4.0,object-56,temp_dist_trial,24.0,t_s_23_1,travel_shared,ball cap,2.0,competing,paired,t_s_23_1.jpg,Travel,,,sub-62
Desktop or Laptop,Mac OS 10.15.7,Chrome 138.0.0.0,2240x1260,2240x1172,Temporal Distance Task,cb_02,25.0,temp_dist_trial,num_items,zn7si1,1.0,response,2_ITEM,1211.5000000119326,1200.2000000000114,1211.5000000119326,1211.5000000119326,1200.2000000000114,1211.5000000119326,1.0,0.0,0.0,,Click Response,2_count,5.0,object-49,temp_dist_trial,25.0,t_m_02_1,travel_Miami,t-shirt,2.0,unique,paired,t_m_02_1.jpg,Travel,,,sub-62
Desktop or Laptop,Mac OS 10.15.7,Chrome 138.0.0.0,2240x1260,2240x1172,Temporal Distance Task,cb_02,25.0,temp_dist_trial,dist_items,qkpkxw,2.0,info,,6.300000005954644,0.0,6.300000005954644,6.300000005954644,0.0,6.300000005954644,1.0,0.0,0.0,,Slider,Slider,4.0,object-56,temp_dist_trial,25.0,t_m_02_1,travel_Miami,t-shirt,2.0,unique,paired,t_m_02_1.jpg,Travel,,,sub-62
Desktop or Laptop,Mac OS 10.15.7,Chrome 138.0.0.0,2240x1260,2240x1172,Temporal Distance Task,cb_02,25.0,temp_dist_trial,dist_items,qkpkxw,2.0,continue,,2177.200000011915,2166.6000000000063,2177.200000011915,2177.200000011915,2166.6000000000063,2177.200000011915,1.0,0.0,0.0,,Click To Continue,Next button,7.0,object-60,temp_dist_trial,25.0,t_m_02_1,travel_Miami,t-shirt,2.0,unique,paired,t_m_02_1.jpg,Travel,,,sub-62
Desktop or Laptop,Mac OS 10.15.7,Chrome 138.0.0.0,2240x1260,2240x1172,Temporal Distance Task,cb_02,25.0,temp_dist_trial,dist_items,qkpkxw,2.0,response,67,1133.2999999999886,2166.6000000000063,2177.700000011915,1133.2999999999886,2166.6000000000063,2177.700000011915,1.0,1044.4000000119267,0.0,,Slider,Slider,4.0,object-56,temp_dist_trial,25.0,t_m_02_1,travel_Miami,t-shirt,2.0,unique,paired,t_m_02_1.jpg,Travel,,,sub-62
Desktop or Laptop,Mac OS 10.15.7,Chrome 138.0.0.0,2240x1260,2240x1172,Temporal Distance Task,cb_02,26.0,temp_dist_trial,num_items,zn7si1,1.0,response,1_ITEM,2021.1000000119093,2016.6999999999825,2021.1000000119093,2021.1000000119093,2016.6999999999825,2021.1000000119093,1.0,0.0,0.0,,Click Response,1_count,3.0,object-46,temp_dist_trial,26.0,t_m_06_1,travel_Miami,handheld fan,2.0,unique,single,t_m_06_1.jpg,Travel,,,sub-62
Desktop or Laptop,Mac OS 10.15.7,Chrome 138.0.0.0,2240x1260,2240x1172,Temporal Distance Task,cb_02,27.0,temp_dist_trial,num_items,zn7si1,1.0,response,2_ITEM,1209.900000017893,1200.0,1209.900000017893,1209.900000017893,1200.0,1209.900000017893,1.0,0.0,0.0,,Click Response,2_count,5.0,object-49,temp_dist_trial,27.0,t_s_13_1,travel_shared,contact lens case,2.0,competing,paired,t_s_13_1.jpg,Travel,,,sub-62
Desktop or Laptop,Mac OS 10.15.7,Chrome 138.0.0.0,2240x1260,2240x1172,Temporal Distance Task,cb_02,27.0,temp_dist_trial,dist_items,qkpkxw,2.0,info,,6.100000000005821,0.0,6.100000000005821,6.100000000005821,0.0,6.100000000005821,1.0,0.0,0.0,,Slider,Slider,4.0,object-56,temp_dist_trial,27.0,t_s_13_1,travel_shared,contact lens case,2.0,competing,paired,t_s_13_1.jpg,Travel,,,sub-62
Desktop or Laptop,Mac OS 10.15.7,Chrome 138.0.0.0,2240x1260,2240x1172,Temporal Distance Task,cb_02,27.0,temp_dist_trial,dist_items,qkpkxw,2.0,continue,,2010.6000000000056,2000.0,2010.6000000000056,2010.6000000000056,2000.0,2010.6000000000056,1.0,0.0,0.0,,Click To Continue,Next button,7.0,object-60,temp_dist_trial,27.0,t_s_13_1,travel_shared,contact lens case,2.0,competing,paired,t_s_13_1.jpg,Travel,,,sub-62
Desktop or Laptop,Mac OS 10.15.7,Chrome 138.0.0.0,2240x1260,2240x1172,Temporal Distance Task,cb_02,27.0,temp_dist_trial,dist_items,qkpkxw,2.0,response,67,783.3000000000177,2000.0,2011.3000000178872,783.3000000000177,2000.0,2011.3000000178872,1.0,1228.0000000178698,0.0,,Slider,Slider,4.0,object-56,temp_dist_trial,27.0,t_s_13_1,travel_shared,contact lens case,2.0,competing,paired,t_s_13_1.jpg,Travel,,,sub-62
Desktop or Laptop,Mac OS 10.15.7,Chrome 138.0.0.0,2240x1260,2240x1172,Temporal Distance Task,cb_02,28.0,temp_dist_trial,num_items,zn7si1,1.0,response,2_ITEM,1448.000000000029,1432.3000000000175,1448.000000000029,1448.000000000029,1432.3000000000175,1448.000000000029,1.0,0.0,0.0,,Click Response,2_count,5.0,object-49,temp_dist_trial,28.0,t_s_03_1,travel_shared,portable charger,2.0,competing,single,t_s_03_1.jpg,Travel,,,sub-62
Desktop or Laptop,Mac OS 10.15.7,Chrome 138.0.0.0,2240x1260,2240x1172,Temporal Distance Task,cb_02,28.0,temp_dist_trial,dist_items,qkpkxw,2.0,info,,6.299999999988358,0.0,6.299999999988358,6.299999999988358,0.0,6.299999999988358,1.0,0.0,0.0,,Slider,Slider,4.0,object-56,temp_dist_trial,28.0,t_s_03_1,travel_shared,portable charger,2.0,competing,single,t_s_03_1.jpg,Travel,,,sub-62
Desktop or Laptop,Mac OS 10.15.7,Chrome 138.0.0.0,2240x1260,2240x1172,Temporal Distance Task,cb_02,28.0,temp_dist_trial,dist_items,qkpkxw,2.0,continue,,3501.7000000059493,3500.0,3501.7000000059493,3501.7000000059493,3500.0,3501.7000000059493,1.0,0.0,0.0,,Click To Continue,Next button,7.0,object-60,temp_dist_trial,28.0,t_s_03_1,travel_shared,portable charger,2.0,competing,single,t_s_03_1.jpg,Travel,,,sub-62
Desktop or Laptop,Mac OS 10.15.7,Chrome 138.0.0.0,2240x1260,2240x1172,Temporal Distance Task,cb_02,28.0,temp_dist_trial,dist_items,qkpkxw,2.0,response,72,1500.0,3500.0,3502.2000000059493,1500.0,3500.0,3502.2000000059493,1.0,2002.2000000059488,0.0,,Slider,Slider,4.0,object-56,temp_dist_trial,28.0,t_s_03_1,travel_shared,portable charger,2.0,competing,single,t_s_03_1.jpg,Travel,,,sub-62
Desktop or Laptop,Mac OS 10.15.7,Chrome 138.0.0.0,2240x1260,2240x1172,Temporal Distance Task,cb_02,29.0,temp_dist_trial,num_items,zn7si1,1.0,response,2_ITEM,1919.5000000178693,1916.2999999999884,1919.5000000178693,1919.5000000178693,1916.2999999999884,1919.5000000178693,1.0,0.0,0.0,,Click Response,2_count,5.0,object-49,temp_dist_trial,29.0,t_s_24_1,travel_shared,ear plugs,2.0,competing,paired,t_s_24_1.jpg,Travel,,,sub-62
Desktop or Laptop,Mac OS 10.15.7,Chrome 138.0.0.0,2240x1260,2240x1172,Temporal Distance Task,cb_02,29.0,temp_dist_trial,dist_items,qkpkxw,2.0,info,,16.599999999976713,0.0,16.599999999976713,16.599999999976713,0.0,16.599999999976713,1.0,0.0,0.0,,Slider,Slider,4.0,object-56,temp_dist_trial,29.0,t_s_24_1,travel_shared,ear plugs,2.0,competing,paired,t_s_24_1.jpg,Travel,,,sub-62
Desktop or Laptop,Mac OS 10.15.7,Chrome 138.0.0.0,2240x1260,2240x1172,Temporal Distance Task,cb_02,29.0,temp_dist_trial,dist_items,qkpkxw,2.0,continue,,3715.100000005972,3700.0,3715.100000005972,3715.100000005972,3700.0,3715.100000005972,1.0,0.0,0.0,,Click To Continue,Next button,7.0,object-60,temp_dist_trial,29.0,t_s_24_1,travel_shared,ear plugs,2.0,competing,paired,t_s_24_1.jpg,Travel,,,sub-62
Desktop or Laptop,Mac OS 10.15.7,Chrome 138.0.0.0,2240x1260,2240x1172,Temporal Distance Task,cb_02,29.0,temp_dist_trial,dist_items,qkpkxw,2.0,response,62,2333.300000000017,3700.0,3715.700000000012,2333.300000000017,3700.0,3715.700000000012,1.0,1382.3999999999942,0.0,,Slider,Slider,4.0,object-56,temp_dist_trial,29.0,t_s_24_1,travel_shared,ear plugs,2.0,competing,paired,t_s_24_1.jpg,Travel,,,sub-62
Desktop or Laptop,Mac OS 10.15.7,Chrome 138.0.0.0,2240x1260,2240x1172,Temporal Distance Task,cb_02,30.0,temp_dist_trial,num_items,zn7si1,1.0,response,1_ITEM,2774.7999999940507,2766.700000000012,2774.7999999940507,2774.7999999940507,2766.700000000012,2774.7999999940507,1.0,0.0,0.0,,Click Response,1_count,3.0,object-46,temp_dist_trial,30.0,t_m_19_1,travel_Miami,surfboard,2.0,unique,paired,t_m_19_1.jpg,Travel,,,sub-62
Desktop or Laptop,Mac OS 10.15.7,Chrome 138.0.0.0,2240x1260,2240x1172,Temporal Distance Task,cb_02,31.0,temp_dist_trial,num_items,zn7si1,1.0,response,2_ITEM,1077.6000000000058,1066.7000000000116,1077.6000000000058,1077.6000000000058,1066.7000000000116,1077.6000000000058,1.0,0.0,0.0,,Click Response,2_count,5.0,object-49,temp_dist_trial,31.0,t_s_15_1,travel_shared,luggage tag,2.0,competing,paired,t_s_15_1.jpg,Travel,,,sub-62
Desktop or Laptop,Mac OS 10.15.7,Chrome 138.0.0.0,2240x1260,2240x1172,Temporal Distance Task,cb_02,31.0,temp_dist_trial,dist_items,qkpkxw,2.0,info,,7.100000011909287,0.0,7.100000011909287,7.100000011909287,0.0,7.100000011909287,1.0,0.0,0.0,,Slider,Slider,4.0,object-56,temp_dist_trial,31.0,t_s_15_1,travel_shared,luggage tag,2.0,competing,paired,t_s_15_1.jpg,Travel,,,sub-62
Desktop or Laptop,Mac OS 10.15.7,Chrome 138.0.0.0,2240x1260,2240x1172,Temporal Distance Task,cb_02,31.0,temp_dist_trial,dist_items,qkpkxw,2.0,continue,,2731.899999994028,2716.599999999977,2731.899999994028,2731.899999994028,2716.599999999977,2731.899999994028,1.0,0.0,0.0,,Click To Continue,Next button,7.0,object-60,temp_dist_trial,31.0,t_s_15_1,travel_shared,luggage tag,2.0,competing,paired,t_s_15_1.jpg,Travel,,,sub-62
Desktop or Laptop,Mac OS 10.15.7,Chrome 138.0.0.0,2240x1260,2240x1172,Temporal Distance Task,cb_02,31.0,temp_dist_trial,dist_items,qkpkxw,2.0,response,64,1566.5999999999767,2716.599999999977,2732.399999994028,1566.5999999999767,2716.599999999977,2732.399999994028,1.0,1165.7999999940512,0.0,,Slider,Slider,4.0,object-56,temp_dist_trial,31.0,t_s_15_1,travel_shared,luggage tag,2.0,competing,paired,t_s_15_1.jpg,Travel,,,sub-62
Desktop or Laptop,Mac OS 10.15.7,Chrome 138.0.0.0,2240x1260,2240x1172,Temporal Distance Task,cb_02,32.0,temp_dist_trial,num_items,zn7si1,1.0,response,1_ITEM,1049.9000000000233,1033.3000000000177,1049.9000000000233,1049.9000000000233,1033.3000000000177,1049.9000000000233,1.0,0.0,0.0,,Click Response,1_count,3.0,object-46,temp_dist_trial,32.0,t_i_18_1,travel_Iceland,ski mask,2.0,unique,single,t_i_18_1.jpg,Travel,,,sub-62
Desktop or Laptop,Mac OS 10.15.7,Chrome 138.0.0.0,2240x1260,2240x1172,Temporal Distance Task,cb_02,33.0,temp_dist_trial,num_items,zn7si1,1.0,response,2_ITEM,1086.8999999999942,1083.2999999999884,1086.8999999999942,1086.8999999999942,1083.2999999999884,1086.8999999999942,1.0,0.0,0.0,,Click Response,2_count,5.0,object-49,temp_dist_trial,33.0,t_s_05_1,travel_shared,neck pillow,2.0,competing,paired,t_s_05_1.jpg,Travel,,,sub-62
Desktop or Laptop,Mac OS 10.15.7,Chrome 138.0.0.0,2240x1260,2240x1172,Temporal Distance Task,cb_02,33.0,temp_dist_trial,dist_items,qkpkxw,2.0,info,,5.800000011920929,0.0,5.800000011920929,5.800000011920929,0.0,5.800000011920929,1.0,0.0,0.0,,Slider,Slider,4.0,object-56,temp_dist_trial,33.0,t_s_05_1,travel_shared,neck pillow,2.0,competing,paired,t_s_05_1.jpg,Travel,,,sub-62
Desktop or Laptop,Mac OS 10.15.7,Chrome 138.0.0.0,2240x1260,2240x1172,Temporal Distance Task,cb_02,33.0,temp_dist_trial,dist_items,qkpkxw,2.0,continue,,1883.3000000000175,1866.6000000000056,1883.3000000000175,1883.3000000000175,1866.6000000000056,1883.3000000000175,1.0,0.0,0.0,,Click To Continue,Next button,7.0,object-60,temp_dist_trial,33.0,t_s_05_1,travel_shared,neck pillow,2.0,competing,paired,t_s_05_1.jpg,Travel,,,sub-62
Desktop or Laptop,Mac OS 10.15.7,Chrome 138.0.0.0,2240x1260,2240x1172,Temporal Distance Task,cb_02,33.0,temp_dist_trial,dist_items,qkpkxw,2.0,response,64,800.0,1866.6000000000056,1883.3000000000175,800.0,1866.6000000000056,1883.3000000000175,1.0,1083.3000000000177,0.0,,Slider,Slider,4.0,object-56,temp_dist_trial,33.0,t_s_05_1,travel_shared,neck pillow,2.0,competing,paired,t_s_05_1.jpg,Travel,,,sub-62
Desktop or Laptop,Mac OS 10.15.7,Chrome 138.0.0.0,2240x1260,2240x1172,Temporal Distance Task,cb_02,34.0,temp_dist_trial,num_items,zn7si1,1.0,response,2_ITEM,1469.8999999999942,1466.6000000000058,1469.8999999999942,1469.8999999999942,1466.6000000000058,1469.8999999999942,1.0,0.0,0.0,,Click Response,2_count,5.0,object-49,temp_dist_trial,34.0,t_s_20_1,travel_shared,travel pill case,2.0,competing,paired,t_s_20_1.jpg,Travel,,,sub-62
Desktop or Laptop,Mac OS 10.15.7,Chrome 138.0.0.0,2240x1260,2240x1172,Temporal Distance Task,cb_02,34.0,temp_dist_trial,dist_items,qkpkxw,2.0,info,,6.299999999988358,0.0,6.299999999988358,6.299999999988358,0.0,6.299999999988358,1.0,0.0,0.0,,Slider,Slider,4.0,object-56,temp_dist_trial,34.0,t_s_20_1,travel_shared,travel pill case,2.0,competing,paired,t_s_20_1.jpg,Travel,,,sub-62
Desktop or Laptop,Mac OS 10.15.7,Chrome 138.0.0.0,2240x1260,2240x1172,Temporal Distance Task,cb_02,34.0,temp_dist_trial,dist_items,qkpkxw,2.0,continue,,1868.3999999940281,1866.6999999999825,1868.3999999940281,1868.3999999940281,1866.6999999999825,1868.3999999940281,1.0,0.0,0.0,,Click To Continue,Next button,7.0,object-60,temp_dist_trial,34.0,t_s_20_1,travel_shared,travel pill case,2.0,competing,paired,t_s_20_1.jpg,Travel,,,sub-62
Desktop or Laptop,Mac OS 10.15.7,Chrome 138.0.0.0,2240x1260,2240x1172,Temporal Distance Task,cb_02,34.0,temp_dist_trial,dist_items,qkpkxw,2.0,response,60,683.3999999999943,1866.6999999999825,1868.8999999940281,683.3999999999943,1866.6999999999825,1868.8999999940281,1.0,1185.4999999940335,0.0,,Slider,Slider,4.0,object-56,temp_dist_trial,34.0,t_s_20_1,travel_shared,travel pill case,2.0,competing,paired,t_s_20_1.jpg,Travel,,,sub-62
Desktop or Laptop,Mac OS 10.15.7,Chrome 138.0.0.0,2240x1260,2240x1172,Temporal Distance Task,cb_02,35.0,temp_dist_trial,num_items,zn7si1,1.0,response,num_miss,3000.1000000000067,3000.1000000000067,3000.1000000000067,3000.1000000000067,3000.1000000000067,3000.1000000000067,1.0,0.0,0.0,num_miss_tag,Time Limit,screen,0.0,screen,temp_dist_trial,35.0,t_i_10_1,travel_Iceland,trekking poles,2.0,unique,paired,t_i_10_1.jpg,Travel,,,sub-62
Desktop or Laptop,Mac OS 10.15.7,Chrome 138.0.0.0,2240x1260,2240x1172,Temporal Distance Task,cb_02,36.0,temp_dist_trial,num_items,zn7si1,1.0,response,2_ITEM,1659.2000000059488,1650.0,1659.2000000059488,1659.2000000059488,1650.0,1659.2000000059488,1.0,0.0,0.0,,Click Response,2_count,5.0,object-49,temp_dist_trial,36.0,t_s_08_1,travel_shared,hand lotion,2.0,competing,paired,t_s_08_1.jpg,Travel,,,sub-62
Desktop or Laptop,Mac OS 10.15.7,Chrome 138.0.0.0,2240x1260,2240x1172,Temporal Distance Task,cb_02,36.0,temp_dist_trial,dist_items,qkpkxw,2.0,info,,6.2000000000116415,0.0,6.2000000000116415,6.2000000000116415,0.0,6.2000000000116415,1.0,0.0,0.0,,Slider,Slider,4.0,object-56,temp_dist_trial,36.0,t_s_08_1,travel_shared,hand lotion,2.0,competing,paired,t_s_08_1.jpg,Travel,,,sub-62
Desktop or Laptop,Mac OS 10.15.7,Chrome 138.0.0.0,2240x1260,2240x1172,Temporal Distance Task,cb_02,36.0,temp_dist_trial,dist_items,qkpkxw,2.0,continue,,1769.6000000059719,1766.6000000000058,1769.6000000059719,1769.6000000059719,1766.6000000000058,1769.6000000059719,1.0,0.0,0.0,,Click To Continue,Next button,7.0,object-60,temp_dist_trial,36.0,t_s_08_1,travel_shared,hand lotion,2.0,competing,paired,t_s_08_1.jpg,Travel,,,sub-62
Desktop or Laptop,Mac OS 10.15.7,Chrome 138.0.0.0,2240x1260,2240x1172,Temporal Distance Task,cb_02,36.0,temp_dist_trial,dist_items,qkpkxw,2.0,response,65,733.3000000000177,1766.6000000000058,1770.2999999940512,733.3000000000177,1766.6000000000058,1770.2999999940512,1.0,1036.9999999940337,0.0,,Slider,Slider,4.0,object-56,temp_dist_trial,36.0,t_s_08_1,travel_shared,hand lotion,2.0,competing,paired,t_s_08_1.jpg,Travel,,,sub-62
Desktop or Laptop,Mac OS 10.15.7,Chrome 138.0.0.0,2240x1260,2240x1172,Temporal Distance Task,cb_02,37.0,temp_dist_trial,num_items,zn7si1,1.0,response,2_ITEM,2253.3000000178868,2250.0,2253.3000000178868,2253.3000000178868,2250.0,2253.3000000178868,1.0,0.0,0.0,,Click Response,2_count,5.0,object-49,temp_dist_trial,37.0,t_m_03_1,travel_Miami,wetsuit,2.0,unique,single,t_m_03_1.jpg,Travel,,,sub-62
Desktop or Laptop,Mac OS 10.15.7,Chrome 138.0.0.0,2240x1260,2240x1172,Temporal Distance Task,cb_02,37.0,temp_dist_trial,dist_items,qkpkxw,2.0,info,,4.299999994051177,0.0,4.299999994051177,4.299999994051177,0.0,4.299999994051177,1.0,0.0,0.0,,Slider,Slider,4.0,object-56,temp_dist_trial,37.0,t_m_03_1,travel_Miami,wetsuit,2.0,unique,single,t_m_03_1.jpg,Travel,,,sub-62
Desktop or Laptop,Mac OS 10.15.7,Chrome 138.0.0.0,2240x1260,2240x1172,Temporal Distance Task,cb_02,37.0,temp_dist_trial,dist_items,qkpkxw,2.0,continue,,3472.2999999940507,3466.700000000012,3472.2999999940507,3472.2999999940507,3466.700000000012,3472.2999999940507,1.0,0.0,0.0,,Click To Continue,Next button,7.0,object-60,temp_dist_trial,37.0,t_m_03_1,travel_Miami,wetsuit,2.0,unique,single,t_m_03_1.jpg,Travel,,,sub-62
Desktop or Laptop,Mac OS 10.15.7,Chrome 138.0.0.0,2240x1260,2240x1172,Temporal Distance Task,cb_02,37.0,temp_dist_trial,dist_items,qkpkxw,2.0,response,65,2382.6000000000063,3466.700000000012,3472.7999999940507,2382.6000000000063,3466.700000000012,3472.7999999940507,1.0,1090.1999999940454,0.0,,Slider,Slider,4.0,object-56,temp_dist_trial,37.0,t_m_03_1,travel_Miami,wetsuit,2.0,unique,single,t_m_03_1.jpg,Travel,,,sub-62
Desktop or Laptop,Mac OS 10.15.7,Chrome 138.0.0.0,2240x1260,2240x1172,Temporal Distance Task,cb_02,38.0,temp_dist_trial,num_items,zn7si1,1.0,response,2_ITEM,1235.5,1233.3999999999942,1235.5,1235.5,1233.3999999999942,1235.5,1.0,0.0,0.0,,Click Response,2_count,5.0,object-49,temp_dist_trial,38.0,t_s_22_1,travel_shared,belt,2.0,competing,paired,t_s_22_1.jpg,Travel,,,sub-62
Desktop or Laptop,Mac OS 10.15.7,Chrome 138.0.0.0,2240x1260,2240x1172,Temporal Distance Task,cb_02,38.0,temp_dist_trial,dist_items,qkpkxw,2.0,info,,6.600000005972108,0.0,6.600000005972108,6.600000005972108,0.0,6.600000005972108,1.0,0.0,0.0,,Slider,Slider,4.0,object-56,temp_dist_trial,38.0,t_s_22_1,travel_shared,belt,2.0,competing,paired,t_s_22_1.jpg,Travel,,,sub-62
Desktop or Laptop,Mac OS 10.15.7,Chrome 138.0.0.0,2240x1260,2240x1172,Temporal Distance Task,cb_02,38.0,temp_dist_trial,dist_items,qkpkxw,2.0,continue,,2409.000000011933,2400.0,2409.000000011933,2409.000000011933,2400.0,2409.000000011933,1.0,0.0,0.0,,Click To Continue,Next button,7.0,object-60,temp_dist_trial,38.0,t_s_22_1,travel_shared,belt,2.0,competing,paired,t_s_22_1.jpg,Travel,,,sub-62
Desktop or Laptop,Mac OS 10.15.7,Chrome 138.0.0.0,2240x1260,2240x1172,Temporal Distance Task,cb_02,38.0,temp_dist_trial,dist_items,qkpkxw,2.0,response,64,866.7000000000116,2400.0,2409.700000000012,866.7000000000116,2400.0,2409.700000000012,1.0,1543.0,0.0,,Slider,Slider,4.0,object-56,temp_dist_trial,38.0,t_s_22_1,travel_shared,belt,2.0,competing,paired,t_s_22_1.jpg,Travel,,,sub-62
Desktop or Laptop,Mac OS 10.15.7,Chrome 138.0.0.0,2240x1260,2240x1172,Temporal Distance Task,cb_02,39.0,temp_dist_trial,num_items,zn7si1,1.0,response,2_ITEM,1028.5000000119326,1016.7000000000116,1028.5000000119326,1028.5000000119326,1016.7000000000116,1028.5000000119326,1.0,0.0,0.0,,Click Response,2_count,5.0,object-49,temp_dist_trial,39.0,t_m_07_1,travel_Miami,sunglasses,2.0,unique,single,t_m_07_1.jpg,Travel,,,sub-62
Desktop or Laptop,Mac OS 10.15.7,Chrome 138.0.0.0,2240x1260,2240x1172,Temporal Distance Task,cb_02,39.0,temp_dist_trial,dist_items,qkpkxw,2.0,info,,5.0,0.0,5.0,5.0,0.0,5.0,1.0,0.0,0.0,,Slider,Slider,4.0,object-56,temp_dist_trial,39.0,t_m_07_1,travel_Miami,sunglasses,2.0,unique,single,t_m_07_1.jpg,Travel,,,sub-62
Desktop or Laptop,Mac OS 10.15.7,Chrome 138.0.0.0,2240x1260,2240x1172,Temporal Distance Task,cb_02,39.0,temp_dist_trial,dist_items,qkpkxw,2.0,continue,,2282.0,2266.700000000012,2282.0,2282.0,2266.700000000012,2282.0,1.0,0.0,0.0,,Click To Continue,Next button,7.0,object-60,temp_dist_trial,39.0,t_m_07_1,travel_Miami,sunglasses,2.0,unique,single,t_m_07_1.jpg,Travel,,,sub-62
Desktop or Laptop,Mac OS 10.15.7,Chrome 138.0.0.0,2240x1260,2240x1172,Temporal Distance Task,cb_02,39.0,temp_dist_trial,dist_items,qkpkxw,2.0,response,71,800.0,2266.700000000012,2283.4000000000233,800.0,2266.700000000012,2283.4000000000233,1.0,1483.4000000000233,0.0,,Slider,Slider,4.0,object-56,temp_dist_trial,39.0,t_m_07_1,travel_Miami,sunglasses,2.0,unique,single,t_m_07_1.jpg,Travel,,,sub-62
Desktop or Laptop,Mac OS 10.15.7,Chrome 138.0.0.0,2240x1260,2240x1172,Temporal Distance Task,cb_02,40.0,temp_dist_trial,num_items,zn7si1,1.0,response,2_ITEM,825.0000000178698,816.0,825.0000000178698,825.0000000178698,816.0,825.0000000178698,1.0,0.0,0.0,,Click Response,2_count,5.0,object-49,temp_dist_trial,40.0,t_s_19_1,travel_shared,pajamas,2.0,competing,paired,t_s_19_1.jpg,Travel,,,sub-62
Desktop or Laptop,Mac OS 10.15.7,Chrome 138.0.0.0,2240x1260,2240x1172,Temporal Distance Task,cb_02,40.0,temp_dist_trial,dist_items,qkpkxw,2.0,info,,6.100000000005821,0.0,6.100000000005821,6.100000000005821,0.0,6.100000000005821,1.0,0.0,0.0,,Slider,Slider,4.0,object-56,temp_dist_trial,40.0,t_s_19_1,travel_shared,pajamas,2.0,competing,paired,t_s_19_1.jpg,Travel,,,sub-62
Desktop or Laptop,Mac OS 10.15.7,Chrome 138.0.0.0,2240x1260,2240x1172,Temporal Distance Task,cb_02,40.0,temp_dist_trial,dist_items,qkpkxw,2.0,continue,,2668.5000000059663,2666.6000000000063,2668.5000000059663,2668.5000000059663,2666.6000000000063,2668.5000000059663,1.0,0.0,0.0,,Click To Continue,Next button,7.0,object-60,temp_dist_trial,40.0,t_s_19_1,travel_shared,pajamas,2.0,competing,paired,t_s_19_1.jpg,Travel,,,sub-62
Desktop or Laptop,Mac OS 10.15.7,Chrome 138.0.0.0,2240x1260,2240x1172,Temporal Distance Task,cb_02,40.0,temp_dist_trial,dist_items,qkpkxw,2.0,response,41,699.8999999999942,2666.6000000000063,2669.0000000059663,699.8999999999942,2666.6000000000063,2669.0000000059663,1.0,1969.1000000059719,0.0,,Slider,Slider,4.0,object-56,temp_dist_trial,40.0,t_s_19_1,travel_shared,pajamas,2.0,competing,paired,t_s_19_1.jpg,Travel,,,sub-62
Desktop or Laptop,Mac OS 10.15.7,Chrome 138.0.0.0,2240x1260,2240x1172,Temporal Distance Task,cb_02,41.0,temp_dist_trial,num_items,zn7si1,1.0,response,2_ITEM,1455.3000000119214,1450.0,1455.3000000119214,1455.3000000119214,1450.0,1455.3000000119214,1.0,0.0,0.0,,Click Response,2_count,5.0,object-49,temp_dist_trial,41.0,t_i_05_1,travel_Iceland,hiking boots,2.0,unique,paired,t_i_05_1.jpg,Travel,,,sub-62
Desktop or Laptop,Mac OS 10.15.7,Chrome 138.0.0.0,2240x1260,2240x1172,Temporal Distance Task,cb_02,41.0,temp_dist_trial,dist_items,qkpkxw,2.0,info,,5.7000000178813925,0.0,5.7000000178813925,5.7000000178813925,0.0,5.7000000178813925,1.0,0.0,0.0,,Slider,Slider,4.0,object-56,temp_dist_trial,41.0,t_i_05_1,travel_Iceland,hiking boots,2.0,unique,paired,t_i_05_1.jpg,Travel,,,sub-62
Desktop or Laptop,Mac OS 10.15.7,Chrome 138.0.0.0,2240x1260,2240x1172,Temporal Distance Task,cb_02,41.0,temp_dist_trial,dist_items,qkpkxw,2.0,continue,,3294.0,3283.2999999999884,3294.0,3294.0,3283.2999999999884,3294.0,1.0,0.0,0.0,,Click To Continue,Next button,7.0,object-60,temp_dist_trial,41.0,t_i_05_1,travel_Iceland,hiking boots,2.0,unique,paired,t_i_05_1.jpg,Travel,,,sub-62
Desktop or Laptop,Mac OS 10.15.7,Chrome 138.0.0.0,2240x1260,2240x1172,Temporal Distance Task,cb_02,41.0,temp_dist_trial,dist_items,qkpkxw,2.0,response,43,1366.7000000000114,3283.2999999999884,3294.700000017881,1366.7000000000114,3283.2999999999884,3294.700000017881,1.0,1928.0000000178693,0.0,,Slider,Slider,4.0,object-56,temp_dist_trial,41.0,t_i_05_1,travel_Iceland,hiking boots,2.0,unique,paired,t_i_05_1.jpg,Travel,,,sub-62
Desktop or Laptop,Mac OS 10.15.7,Chrome 138.0.0.0,2240x1260,2240x1172,Temporal Distance Task,cb_02,42.0,temp_dist_trial,num_items,zn7si1,1.0,response,2_ITEM,1244.0000000119326,1233.3000000000175,1244.0000000119326,1244.0000000119326,1233.3000000000175,1244.0000000119326,1.0,0.0,0.0,,Click Response,2_count,5.0,object-49,temp_dist_trial,42.0,t_i_08_1,travel_Iceland,thick socks,2.0,unique,paired,t_i_08_1.jpg,Travel,,,sub-62
Desktop or Laptop,Mac OS 10.15.7,Chrome 138.0.0.0,2240x1260,2240x1172,Temporal Distance Task,cb_02,42.0,temp_dist_trial,dist_items,qkpkxw,2.0,info,,5.000000017869752,0.0,5.000000017869752,5.000000017869752,0.0,5.000000017869752,1.0,0.0,0.0,,Slider,Slider,4.0,object-56,temp_dist_trial,42.0,t_i_08_1,travel_Iceland,thick socks,2.0,unique,paired,t_i_08_1.jpg,Travel,,,sub-62
Desktop or Laptop,Mac OS 10.15.7,Chrome 138.0.0.0,2240x1260,2240x1172,Temporal Distance Task,cb_02,42.0,temp_dist_trial,dist_items,qkpkxw,2.0,continue,,2070.0000000178698,2066.5999999999767,2070.0000000178698,2070.0000000178698,2066.5999999999767,2070.0000000178698,1.0,0.0,0.0,,Click To Continue,Next button,7.0,object-60,temp_dist_trial,42.0,t_i_08_1,travel_Iceland,thick socks,2.0,unique,paired,t_i_08_1.jpg,Travel,,,sub-62
Desktop or Laptop,Mac OS 10.15.7,Chrome 138.0.0.0,2240x1260,2240x1172,Temporal Distance Task,cb_02,42.0,temp_dist_trial,dist_items,qkpkxw,2.0,response,65,900.0,2066.5999999999767,2070.399999994028,900.0,2066.5999999999767,2070.399999994028,1.0,1170.3999999940281,0.0,,Slider,Slider,4.0,object-56,temp_dist_trial,42.0,t_i_08_1,travel_Iceland,thick socks,2.0,unique,paired,t_i_08_1.jpg,Travel,,,sub-62
Desktop or Laptop,Mac OS 10.15.7,Chrome 138.0.0.0,2240x1260,2240x1172,Temporal Distance Task,cb_02,43.0,temp_dist_trial,num_items,zn7si1,1.0,response,2_ITEM,1060.5000000119326,1050.0,1060.5000000119326,1060.5000000119326,1050.0,1060.5000000119326,1.0,0.0,0.0,,Click Response,2_count,5.0,object-49,temp_dist_trial,43.0,t_m_15_1,travel_Miami,shorts,2.0,unique,paired,t_m_15_1.jpg,Travel,,,sub-62
Desktop or Laptop,Mac OS 10.15.7,Chrome 138.0.0.0,2240x1260,2240x1172,Temporal Distance Task,cb_02,43.0,temp_dist_trial,dist_items,qkpkxw,2.0,info,,6.400000017893037,0.0,6.400000017893037,6.400000017893037,0.0,6.400000017893037,1.0,0.0,0.0,,Slider,Slider,4.0,object-56,temp_dist_trial,43.0,t_m_15_1,travel_Miami,shorts,2.0,unique,paired,t_m_15_1.jpg,Travel,,,sub-62
Desktop or Laptop,Mac OS 10.15.7,Chrome 138.0.0.0,2240x1260,2240x1172,Temporal Distance Task,cb_02,43.0,temp_dist_trial,dist_items,qkpkxw,2.0,continue,,2018.1000000059719,2016.7000000000119,2018.1000000059719,2018.1000000059719,2016.7000000000119,2018.1000000059719,1.0,0.0,0.0,,Click To Continue,Next button,7.0,object-60,temp_dist_trial,43.0,t_m_15_1,travel_Miami,shorts,2.0,unique,paired,t_m_15_1.jpg,Travel,,,sub-62
Desktop or Laptop,Mac OS 10.15.7,Chrome 138.0.0.0,2240x1260,2240x1172,Temporal Distance Task,cb_02,43.0,temp_dist_trial,dist_items,qkpkxw,2.0,response,63,666.7000000000116,2016.7000000000119,2018.5000000119326,666.7000000000116,2016.7000000000119,2018.5000000119326,1.0,1351.800000011921,0.0,,Slider,Slider,4.0,object-56,temp_dist_trial,43.0,t_m_15_1,travel_Miami,shorts,2.0,unique,paired,t_m_15_1.jpg,Travel,,,sub-62
Desktop or Laptop,Mac OS 10.15.7,Chrome 138.0.0.0,2240x1260,2240x1172,Temporal Distance Task,cb_02,44.0,temp_dist_trial,num_items,zn7si1,1.0,response,1_ITEM,1649.7000000178814,1633.2999999999884,1649.7000000178814,1649.7000000178814,1633.2999999999884,1649.7000000178814,1.0,0.0,0.0,,Click Response,1_count,3.0,object-46,temp_dist_trial,44.0,t_s_14_1,travel_shared,hand sanitizer,2.0,competing,single,t_s_14_1.jpg,Travel,,,sub-62
Desktop or Laptop,Mac OS 10.15.7,Chrome 138.0.0.0,2240x1260,2240x1172,Temporal Distance Task,cb_02,45.0,temp_dist_trial,num_items,zn7si1,1.0,response,2_ITEM,1493.7000000059488,1483.3999999999942,1493.7000000059488,1493.7000000059488,1483.3999999999942,1493.7000000059488,1.0,0.0,0.0,,Click Response,2_count,5.0,object-49,temp_dist_trial,45.0,t_s_10_1,travel_shared,luggage lock,2.0,competing,paired,t_s_10_1.jpg,Travel,,,sub-62
Desktop or Laptop,Mac OS 10.15.7,Chrome 138.0.0.0,2240x1260,2240x1172,Temporal Distance Task,cb_02,45.0,temp_dist_trial,dist_items,qkpkxw,2.0,info,,5.6000000178755736,0.0,5.6000000178755736,5.6000000178755736,0.0,5.6000000178755736,1.0,0.0,0.0,,Slider,Slider,4.0,object-56,temp_dist_trial,45.0,t_s_10_1,travel_shared,luggage lock,2.0,competing,paired,t_s_10_1.jpg,Travel,,,sub-62
Desktop or Laptop,Mac OS 10.15.7,Chrome 138.0.0.0,2240x1260,2240x1172,Temporal Distance Task,cb_02,45.0,temp_dist_trial,dist_items,qkpkxw,2.0,continue,,2126.3999999999937,2116.6000000000063,2126.3999999999937,2126.3999999999937,2116.6000000000063,2126.3999999999937,1.0,0.0,0.0,,Click To Continue,Next button,7.0,object-60,temp_dist_trial,45.0,t_s_10_1,travel_shared,luggage lock,2.0,competing,paired,t_s_10_1.jpg,Travel,,,sub-62
Desktop or Laptop,Mac OS 10.15.7,Chrome 138.0.0.0,2240x1260,2240x1172,Temporal Distance Task,cb_02,45.0,temp_dist_trial,dist_items,qkpkxw,2.0,response,62,866.6999999999823,2116.6000000000063,2129.9999999940337,866.6999999999823,2116.6000000000063,2129.9999999940337,1.0,1263.2999999940512,0.0,,Slider,Slider,4.0,object-56,temp_dist_trial,45.0,t_s_10_1,travel_shared,luggage lock,2.0,competing,paired,t_s_10_1.jpg,Travel,,,sub-62
Desktop or Laptop,Mac OS 10.15.7,Chrome 138.0.0.0,2240x1260,2240x1172,Temporal Distance Task,cb_02,46.0,temp_dist_trial,num_items,zn7si1,1.0,response,1_ITEM,1603.6000000119093,1600.0,1603.6000000119093,1603.6000000119093,1600.0,1603.6000000119093,1.0,0.0,0.0,,Click Response,1_count,3.0,object-46,temp_dist_trial,46.0,t_s_12_1,travel_shared,clear toiletry bag,2.0,competing,single,t_s_12_1.jpg,Travel,,,sub-62
Desktop or Laptop,Mac OS 10.15.7,Chrome 138.0.0.0,2240x1260,2240x1172,Temporal Distance Task,cb_02,47.0,temp_dist_trial,num_items,zn7si1,1.0,response,1_ITEM,1987.0000000119326,1983.3000000000175,1987.0000000119326,1987.0000000119326,1983.3000000000175,1987.0000000119326,1.0,0.0,0.0,,Click Response,1_count,3.0,object-46,temp_dist_trial,47.0,t_i_13_1,travel_Iceland,sleeping bag,2.0,unique,paired,t_i_13_1.jpg,Travel,,,sub-62
Desktop or Laptop,Mac OS 10.15.7,Chrome 138.0.0.0,2240x1260,2240x1172,Temporal Distance Task,cb_02,48.0,temp_dist_trial,num_items,zn7si1,1.0,response,2_ITEM,1555.6000000178753,1550.0,1555.6000000178753,1555.6000000178753,1550.0,1555.6000000178753,1.0,0.0,0.0,,Click Response,2_count,5.0,object-49,temp_dist_trial,48.0,t_m_16_1,travel_Miami,flippers,2.0,unique,paired,t_m_16_1.jpg,Travel,,,sub-62
Desktop or Laptop,Mac OS 10.15.7,Chrome 138.0.0.0,2240x1260,2240x1172,Temporal Distance Task,cb_02,48.0,temp_dist_trial,dist_items,qkpkxw,2.0,info,,6.100000017875573,0.0,6.100000017875573,6.100000017875573,0.0,6.100000017875573,1.0,0.0,0.0,,Slider,Slider,4.0,object-56,temp_dist_trial,48.0,t_m_16_1,travel_Miami,flippers,2.0,unique,paired,t_m_16_1.jpg,Travel,,,sub-62
Desktop or Laptop,Mac OS 10.15.7,Chrome 138.0.0.0,2240x1260,2240x1172,Temporal Distance Task,cb_02,48.0,temp_dist_trial,dist_items,qkpkxw,2.0,continue,,1763.4999999940335,1750.0,1763.4999999940335,1763.4999999940335,1750.0,1763.4999999940335,1.0,0.0,0.0,,Click To Continue,Next button,7.0,object-60,temp_dist_trial,48.0,t_m_16_1,travel_Miami,flippers,2.0,unique,paired,t_m_16_1.jpg,Travel,,,sub-62
Desktop or Laptop,Mac OS 10.15.7,Chrome 138.0.0.0,2240x1260,2240x1172,Temporal Distance Task,cb_02,48.0,temp_dist_trial,dist_items,qkpkxw,2.0,response,66,566.6999999999825,1750.0,1764.1000000178753,566.6999999999825,1750.0,1764.1000000178753,1.0,1197.400000017893,0.0,,Slider,Slider,4.0,object-56,temp_dist_trial,48.0,t_m_16_1,travel_Miami,flippers,2.0,unique,paired,t_m_16_1.jpg,Travel,,,sub-62
Desktop or Laptop,Mac OS 10.15.7,Chrome 138.0.0.0,2240x1260,2240x1172,Temporal Distance Task,cb_02,2.0,temp_eventStart,Screen 1,dgtyxe,1.0,continue,,1771.3000000059546,1766.6000000000058,1771.3000000059546,1771.3000000059546,1766.6000000000058,1771.3000000059546,1.0,0.0,0.0,,Click To Continue,Next Button,3.0,object-43,temp_eventStart,,,Student,,,,,,,,,sub-62
Desktop or Laptop,Mac OS 10.15.7,Chrome 138.0.0.0,2240x1260,2240x1172,Temporal Distance Task,cb_02,49.0,temp_dist_trial,num_items,zn7si1,1.0,response,num_miss,3000.0999999999767,3000.0999999999767,3000.0999999999767,3000.0999999999767,3000.0999999999767,3000.0999999999767,1.0,0.0,0.0,num_miss_tag,Time Limit,screen,0.0,screen,temp_dist_trial,1.0,s_sh_24_1,student_shared,desk organizer,2.0,competing,single,s_sh_24_1.jpg,Student,,,sub-62
Desktop or Laptop,Mac OS 10.15.7,Chrome 138.0.0.0,2240x1260,2240x1172,Temporal Distance Task,cb_02,50.0,temp_dist_trial,num_items,zn7si1,1.0,response,2_ITEM,1626.2000000178814,1616.7000000000116,1626.2000000178814,1626.2000000178814,1616.7000000000116,1626.2000000178814,1.0,0.0,0.0,,Click Response,2_count,5.0,object-49,temp_dist_trial,2.0,s_sh_12_1,student_shared,binder,2.0,competing,single,s_sh_12_1.jpg,Student,,,sub-62
Desktop or Laptop,Mac OS 10.15.7,Chrome 138.0.0.0,2240x1260,2240x1172,Temporal Distance Task,cb_02,50.0,temp_dist_trial,dist_items,qkpkxw,2.0,info,,7.6000000119092865,0.0,7.6000000119092865,7.6000000119092865,0.0,7.6000000119092865,1.0,0.0,0.0,,Slider,Slider,4.0,object-56,temp_dist_trial,2.0,s_sh_12_1,student_shared,binder,2.0,competing,single,s_sh_12_1.jpg,Student,,,sub-62
Desktop or Laptop,Mac OS 10.15.7,Chrome 138.0.0.0,2240x1260,2240x1172,Temporal Distance Task,cb_02,50.0,temp_dist_trial,dist_items,qkpkxw,2.0,continue,,2539.899999994028,2534.3999999999937,2539.899999994028,2539.899999994028,2534.3999999999937,2539.899999994028,1.0,0.0,0.0,,Click To Continue,Next button,7.0,object-60,temp_dist_trial,2.0,s_sh_12_1,student_shared,binder,2.0,competing,single,s_sh_12_1.jpg,Student,,,sub-62
Desktop or Laptop,Mac OS 10.15.7,Chrome 138.0.0.0,2240x1260,2240x1172,Temporal Distance Task,cb_02,50.0,temp_dist_trial,dist_items,qkpkxw,2.0,response,64,1066.7999999999884,2534.3999999999937,2540.2999999999884,1066.7999999999884,2534.3999999999937,2540.2999999999884,1.0,1473.5,0.0,,Slider,Slider,4.0,object-56,temp_dist_trial,2.0,s_sh_12_1,student_shared,binder,2.0,competing,single,s_sh_12_1.jpg,Student,,,sub-62
Desktop or Laptop,Mac OS 10.15.7,Chrome 138.0.0.0,2240x1260,2240x1172,Temporal Distance Task,cb_02,51.0,temp_dist_trial,num_items,zn7si1,1.0,response,1_ITEM,1055.6000000178756,1049.8999999999942,1055.6000000178756,1055.6000000178756,1049.8999999999942,1055.6000000178756,1.0,0.0,0.0,,Click Response,1_count,3.0,object-46,temp_dist_trial,3.0,s_sh_13_1,student_shared,index cards,2.0,competing,single,s_sh_13_1.jpg,Student,,,sub-62
Desktop or Laptop,Mac OS 10.15.7,Chrome 138.0.0.0,2240x1260,2240x1172,Temporal Distance Task,cb_02,52.0,temp_dist_trial,num_items,zn7si1,1.0,response,1_ITEM,2301.3000000059546,2299.8999999999937,2301.3000000059546,2301.3000000059546,2299.8999999999937,2301.3000000059546,1.0,0.0,0.0,,Click Response,1_count,3.0,object-46,temp_dist_trial,4.0,s_s_05_1,student_stem,lab goggles,2.0,unique,paired,s_s_05_1.jpg,Student,,,sub-62
Desktop or Laptop,Mac OS 10.15.7,Chrome 138.0.0.0,2240x1260,2240x1172,Temporal Distance Task,cb_02,53.0,temp_dist_trial,num_items,zn7si1,1.0,response,1_ITEM,1765.5,1750.0,1765.5,1765.5,1750.0,1765.5,1.0,0.0,0.0,,Click Response,1_count,3.0,object-46,temp_dist_trial,5.0,s_a_05_1,student_art,clay,2.0,unique,single,s_a_05_1.jpg,Student,,,sub-62
Desktop or Laptop,Mac OS 10.15.7,Chrome 138.0.0.0,2240x1260,2240x1172,Temporal Distance Task,cb_02,54.0,temp_dist_trial,num_items,zn7si1,1.0,response,2_ITEM,1114.2000000178814,1100.0,1114.2000000178814,1114.2000000178814,1100.0,1114.2000000178814,1.0,0.0,0.0,,Click Response,2_count,5.0,object-49,temp_dist_trial,6.0,s_sh_18_1,student_shared,wall calendar,2.0,competing,paired,s_sh_18_1.jpg,Student,,,sub-62
Desktop or Laptop,Mac OS 10.15.7,Chrome 138.0.0.0,2240x1260,2240x1172,Temporal Distance Task,cb_02,54.0,temp_dist_trial,dist_items,qkpkxw,2.0,info,,5.0,0.0,5.0,5.0,0.0,5.0,1.0,0.0,0.0,,Slider,Slider,4.0,object-56,temp_dist_trial,6.0,s_sh_18_1,student_shared,wall calendar,2.0,competing,paired,s_sh_18_1.jpg,Student,,,sub-62
Desktop or Laptop,Mac OS 10.15.7,Chrome 138.0.0.0,2240x1260,2240x1172,Temporal Distance Task,cb_02,54.0,temp_dist_trial,dist_items,qkpkxw,2.0,continue,,1925.4000000059605,1916.6000000000056,1925.4000000059605,1925.4000000059605,1916.6000000000056,1925.4000000059605,1.0,0.0,0.0,,Click To Continue,Next button,7.0,object-60,temp_dist_trial,6.0,s_sh_18_1,student_shared,wall calendar,2.0,competing,paired,s_sh_18_1.jpg,Student,,,sub-62
Desktop or Laptop,Mac OS 10.15.7,Chrome 138.0.0.0,2240x1260,2240x1172,Temporal Distance Task,cb_02,54.0,temp_dist_trial,dist_items,qkpkxw,2.0,response,62,716.7000000000116,1916.6000000000056,1925.8000000119207,716.7000000000116,1916.6000000000056,1925.8000000119207,1.0,1209.1000000119093,0.0,,Slider,Slider,4.0,object-56,temp_dist_trial,6.0,s_sh_18_1,student_shared,wall calendar,2.0,competing,paired,s_sh_18_1.jpg,Student,,,sub-62
Desktop or Laptop,Mac OS 10.15.7,Chrome 138.0.0.0,2240x1260,2240x1172,Temporal Distance Task,cb_02,55.0,temp_dist_trial,num_items,zn7si1,1.0,response,num_miss,3000.1000000000067,3000.1000000000067,3000.1000000000067,3000.1000000000067,3000.1000000000067,3000.1000000000067,1.0,0.0,0.0,num_miss_tag,Time Limit,screen,0.0,screen,temp_dist_trial,7.0,s_a_17_1,student_art,microphone,2.0,unique,paired,s_a_17_1.jpg,Student,,,sub-62
Desktop or Laptop,Mac OS 10.15.7,Chrome 138.0.0.0,2240x1260,2240x1172,Temporal Distance Task,cb_02,56.0,temp_dist_trial,num_items,zn7si1,1.0,response,num_miss,3000.0,3000.0,3000.0,3000.0,3000.0,3000.0,1.0,0.0,0.0,num_miss_tag,Time Limit,screen,0.0,screen,temp_dist_trial,8.0,s_sh_02_1,student_shared,eraser,2.0,competing,paired,s_sh_02_1.jpg,Student,,,sub-62
Desktop or Laptop,Mac OS 10.15.7,Chrome 138.0.0.0,2240x1260,2240x1172,Temporal Distance Task,cb_02,57.0,temp_dist_trial,num_items,zn7si1,1.0,response,1_ITEM,344.7999999940513,334.30000000001735,344.7999999940513,344.7999999940513,334.30000000001735,344.7999999940513,1.0,0.0,0.0,,Click Response,1_count,3.0,object-46,temp_dist_trial,9.0,s_a_10_1,student_art,tripod,2.0,unique,paired,s_a_10_1.jpg,Student,,,sub-62
Desktop or Laptop,Mac OS 10.15.7,Chrome 138.0.0.0,2240x1260,2240x1172,Temporal Distance Task,cb_02,58.0,temp_dist_trial,num_items,zn7si1,1.0,response,2_ITEM,1207.7000000119149,1200.0,1207.7000000119149,1207.7000000119149,1200.0,1207.7000000119149,1.0,0.0,0.0,,Click Response,2_count,5.0,object-49,temp_dist_trial,10.0,s_sh_09_1,student_shared,paper clips,2.0,competing,paired,s_sh_09_1.jpg,Student,,,sub-62
Desktop or Laptop,Mac OS 10.15.7,Chrome 138.0.0.0,2240x1260,2240x1172,Temporal Distance Task,cb_02,58.0,temp_dist_trial,dist_items,qkpkxw,2.0,info,,5.899999994027892,0.0,5.899999994027892,5.899999994027892,0.0,5.899999994027892,1.0,0.0,0.0,,Slider,Slider,4.0,object-56,temp_dist_trial,10.0,s_sh_09_1,student_shared,paper clips,2.0,competing,paired,s_sh_09_1.jpg,Student,,,sub-62
Desktop or Laptop,Mac OS 10.15.7,Chrome 138.0.0.0,2240x1260,2240x1172,Temporal Distance Task,cb_02,58.0,temp_dist_trial,dist_items,qkpkxw,2.0,continue,,1888.0000000178693,1883.2999999999884,1888.0000000178693,1888.0000000178693,1883.2999999999884,1888.0000000178693,1.0,0.0,0.0,,Click To Continue,Next button,7.0,object-60,temp_dist_trial,10.0,s_sh_09_1,student_shared,paper clips,2.0,competing,paired,s_sh_09_1.jpg,Student,,,sub-62
Desktop or Laptop,Mac OS 10.15.7,Chrome 138.0.0.0,2240x1260,2240x1172,Temporal Distance Task,cb_02,58.0,temp_dist_trial,dist_items,qkpkxw,2.0,response,67,766.5999999999768,1883.2999999999884,1888.2999999999884,766.5999999999768,1883.2999999999884,1888.2999999999884,1.0,1121.7000000000116,0.0,,Slider,Slider,4.0,object-56,temp_dist_trial,10.0,s_sh_09_1,student_shared,paper clips,2.0,competing,paired,s_sh_09_1.jpg,Student,,,sub-62
Desktop or Laptop,Mac OS 10.15.7,Chrome 138.0.0.0,2240x1260,2240x1172,Temporal Distance Task,cb_02,59.0,temp_dist_trial,num_items,zn7si1,1.0,response,2_ITEM,1849.999999999971,1833.2999999999884,1849.999999999971,1849.999999999971,1833.2999999999884,1849.999999999971,1.0,0.0,0.0,,Click Response,2_count,5.0,object-49,temp_dist_trial,11.0,s_sh_19_1,student_shared,portable plastic drawer,2.0,competing,paired,s_sh_19_1.jpg,Student,,,sub-62
Desktop or Laptop,Mac OS 10.15.7,Chrome 138.0.0.0,2240x1260,2240x1172,Temporal Distance Task,cb_02,59.0,temp_dist_trial,dist_items,qkpkxw,2.0,info,,5.500000017869751,0.0,5.500000017869751,5.500000017869751,0.0,5.500000017869751,1.0,0.0,0.0,,Slider,Slider,4.0,object-56,temp_dist_trial,11.0,s_sh_19_1,student_shared,portable plastic drawer,2.0,competing,paired,s_sh_19_1.jpg,Student,,,sub-62
Desktop or Laptop,Mac OS 10.15.7,Chrome 138.0.0.0,2240x1260,2240x1172,Temporal Distance Task,cb_02,59.0,temp_dist_trial,dist_items,qkpkxw,2.0,continue,,2362.7999999999884,2350.0,2362.7999999999884,2362.7999999999884,2350.0,2362.7999999999884,1.0,0.0,0.0,,Click To Continue,Next button,7.0,object-60,temp_dist_trial,11.0,s_sh_19_1,student_shared,portable plastic drawer,2.0,competing,paired,s_sh_19_1.jpg,Student,,,sub-62
Desktop or Laptop,Mac OS 10.15.7,Chrome 138.0.0.0,2240x1260,2240x1172,Temporal Distance Task,cb_02,59.0,temp_dist_trial,dist_items,qkpkxw,2.0,response,33,983.3999999999942,2350.0,2363.5000000178698,983.3999999999942,2350.0,2363.5000000178698,1.0,1380.1000000178753,0.0,,Slider,Slider,4.0,object-56,temp_dist_trial,11.0,s_sh_19_1,student_shared,portable plastic drawer,2.0,competing,paired,s_sh_19_1.jpg,Student,,,sub-62
Desktop or Laptop,Mac OS 10.15.7,Chrome 138.0.0.0,2240x1260,2240x1172,Temporal Distance Task,cb_02,60.0,temp_dist_trial,num_items,zn7si1,1.0,response,1_ITEM,1257.2000000059488,1250.0999999999767,1257.2000000059488,1257.2000000059488,1250.0999999999767,1257.2000000059488,1.0,0.0,0.0,,Click Response,1_count,3.0,object-46,temp_dist_trial,12.0,s_s_18_1,student_stem,brain model,2.0,unique,paired,s_s_18_1.jpg,Student,,,sub-62
Desktop or Laptop,Mac OS 10.15.7,Chrome 138.0.0.0,2240x1260,2240x1172,Temporal Distance Task,cb_02,61.0,temp_dist_trial,num_items,zn7si1,1.0,response,1_ITEM,1615.1000000119093,1600.0999999999767,1615.1000000119093,1615.1000000119093,1600.0999999999767,1615.1000000119093,1.0,0.0,0.0,,Click Response,1_count,3.0,object-46,temp_dist_trial,13.0,s_a_11_1,student_art,clapperboard,2.0,unique,paired,s_a_11_1.jpg,Student,,,sub-62
Desktop or Laptop,Mac OS 10.15.7,Chrome 138.0.0.0,2240x1260,2240x1172,Temporal Distance Task,cb_02,62.0,temp_dist_trial,num_items,zn7si1,1.0,response,2_ITEM,1162.2999999999886,1150.0,1162.2999999999886,1162.2999999999886,1150.0,1162.2999999999886,1.0,0.0,0.0,,Click Response,2_count,5.0,object-49,temp_dist_trial,14.0,s_sh_22_1,student_shared,hole puncher,2.0,competing,paired,s_sh_22_1.jpg,Student,,,sub-62
Desktop or Laptop,Mac OS 10.15.7,Chrome 138.0.0.0,2240x1260,2240x1172,Temporal Distance Task,cb_02,62.0,temp_dist_trial,dist_items,qkpkxw,2.0,info,,6.100000011909287,0.0,6.100000011909287,6.100000011909287,0.0,6.100000011909287,1.0,0.0,0.0,,Slider,Slider,4.0,object-56,temp_dist_trial,14.0,s_sh_22_1,student_shared,hole puncher,2.0,competing,paired,s_sh_22_1.jpg,Student,,,sub-62
Desktop or Laptop,Mac OS 10.15.7,Chrome 138.0.0.0,2240x1260,2240x1172,Temporal Distance Task,cb_02,62.0,temp_dist_trial,dist_items,qkpkxw,2.0,continue,,1891.2000000059488,1883.3999999999646,1891.2000000059488,1891.2000000059488,1883.3999999999646,1891.2000000059488,1.0,0.0,0.0,,Click To Continue,Next button,7.0,object-60,temp_dist_trial,14.0,s_sh_22_1,student_shared,hole puncher,2.0,competing,paired,s_sh_22_1.jpg,Student,,,sub-62
Desktop or Laptop,Mac OS 10.15.7,Chrome 138.0.0.0,2240x1260,2240x1172,Temporal Distance Task,cb_02,62.0,temp_dist_trial,dist_items,qkpkxw,2.0,response,63,632.5,1883.3999999999646,1891.7000000059488,632.5,1883.3999999999646,1891.7000000059488,1.0,1259.2000000059488,0.0,,Slider,Slider,4.0,object-56,temp_dist_trial,14.0,s_sh_22_1,student_shared,hole puncher,2.0,competing,paired,s_sh_22_1.jpg,Student,,,sub-62
Desktop or Laptop,Mac OS 10.15.7,Chrome 138.0.0.0,2240x1260,2240x1172,Temporal Distance Task,cb_02,63.0,temp_dist_trial,num_items,zn7si1,1.0,response,2_ITEM,1118.9999999940628,1116.7000000000116,1118.9999999940628,1118.9999999940628,1116.7000000000116,1118.9999999940628,1.0,0.0,0.0,,Click Response,2_count,5.0,object-49,temp_dist_trial,15.0,s_sh_21_1,student_shared,file holder,2.0,competing,paired,s_sh_21_1.jpg,Student,,,sub-62
Desktop or Laptop,Mac OS 10.15.7,Chrome 138.0.0.0,2240x1260,2240x1172,Temporal Distance Task,cb_02,63.0,temp_dist_trial,dist_items,qkpkxw,2.0,info,,5.700000005948822,0.0,5.700000005948822,5.700000005948822,0.0,5.700000005948822,1.0,0.0,0.0,,Slider,Slider,4.0,object-56,temp_dist_trial,15.0,s_sh_21_1,student_shared,file holder,2.0,competing,paired,s_sh_21_1.jpg,Student,,,sub-62
Desktop or Laptop,Mac OS 10.15.7,Chrome 138.0.0.0,2240x1260,2240x1172,Temporal Distance Task,cb_02,63.0,temp_dist_trial,dist_items,qkpkxw,2.0,continue,,2660.2000000059493,2650.0,2660.2000000059493,2660.2000000059493,2650.0,2660.2000000059493,1.0,0.0,0.0,,Click To Continue,Next button,7.0,object-60,temp_dist_trial,15.0,s_sh_21_1,student_shared,file holder,2.0,competing,paired,s_sh_21_1.jpg,Student,,,sub-62
Desktop or Laptop,Mac OS 10.15.7,Chrome 138.0.0.0,2240x1260,2240x1172,Temporal Distance Task,cb_02,63.0,temp_dist_trial,dist_items,qkpkxw,2.0,response,65,1633.3999999999646,2650.0,2660.899999994028,1633.3999999999646,2650.0,2660.899999994028,1.0,1027.4999999940628,0.0,,Slider,Slider,4.0,object-56,temp_dist_trial,15.0,s_sh_21_1,student_shared,file holder,2.0,competing,paired,s_sh_21_1.jpg,Student,,,sub-62
Desktop or Laptop,Mac OS 10.15.7,Chrome 138.0.0.0,2240x1260,2240x1172,Temporal Distance Task,cb_02,64.0,temp_dist_trial,num_items,zn7si1,1.0,response,1_ITEM,1677.1000000119093,1666.7000000000116,1677.1000000119093,1677.1000000119093,1666.7000000000116,1677.1000000119093,1.0,0.0,0.0,,Click Response,1_count,3.0,object-46,temp_dist_trial,16.0,s_s_15_1,student_stem,jumper cables,2.0,unique,single,s_s_15_1.jpg,Student,,,sub-62
Desktop or Laptop,Mac OS 10.15.7,Chrome 138.0.0.0,2240x1260,2240x1172,Temporal Distance Task,cb_02,65.0,temp_dist_trial,num_items,zn7si1,1.0,response,1_ITEM,1905.5999999999767,1900.0,1905.5999999999767,1905.5999999999767,1900.0,1905.5999999999767,1.0,0.0,0.0,,Click Response,1_count,3.0,object-46,temp_dist_trial,17.0,s_sh_14_1,student_shared,printer,2.0,competing,single,s_sh_14_1.jpg,Student,,,sub-62
Desktop or Laptop,Mac OS 10.15.7,Chrome 138.0.0.0,2240x1260,2240x1172,Temporal Distance Task,cb_02,66.0,temp_dist_trial,num_items,zn7si1,1.0,response,2_ITEM,1209.0999999999767,1200.0,1209.0999999999767,1209.0999999999767,1200.0,1209.0999999999767,1.0,0.0,0.0,,Click Response,2_count,5.0,object-49,temp_dist_trial,18.0,s_sh_20_1,student_shared,tape,2.0,competing,paired,s_sh_20_1.jpg,Student,,,sub-62
Desktop or Laptop,Mac OS 10.15.7,Chrome 138.0.0.0,2240x1260,2240x1172,Temporal Distance Task,cb_02,66.0,temp_dist_trial,dist_items,qkpkxw,2.0,info,,6.600000005972108,0.0,6.600000005972108,6.600000005972108,0.0,6.600000005972108,1.0,0.0,0.0,,Slider,Slider,4.0,object-56,temp_dist_trial,18.0,s_sh_20_1,student_shared,tape,2.0,competing,paired,s_sh_20_1.jpg,Student,,,sub-62
Desktop or Laptop,Mac OS 10.15.7,Chrome 138.0.0.0,2240x1260,2240x1172,Temporal Distance Task,cb_02,66.0,temp_dist_trial,dist_items,qkpkxw,2.0,continue,,4171.500000011933,4167.200000000013,4171.500000011933,4171.500000011933,4167.200000000013,4171.500000011933,1.0,0.0,0.0,,Click To Continue,Next button,7.0,object-60,temp_dist_trial,18.0,s_sh_20_1,student_shared,tape,2.0,competing,paired,s_sh_20_1.jpg,Student,,,sub-62
Desktop or Laptop,Mac OS 10.15.7,Chrome 138.0.0.0,2240x1260,2240x1172,Temporal Distance Task,cb_02,66.0,temp_dist_trial,dist_items,qkpkxw,2.0,response,41,533.9000000000234,4167.200000000013,4171.900000017893,533.9000000000234,4167.200000000013,4171.900000017893,1.0,3638.0000000178693,0.0,,Slider,Slider,4.0,object-56,temp_dist_trial,18.0,s_sh_20_1,student_shared,tape,2.0,competing,paired,s_sh_20_1.jpg,Student,,,sub-62
Desktop or Laptop,Mac OS 10.15.7,Chrome 138.0.0.0,2240x1260,2240x1172,Temporal Distance Task,cb_02,67.0,temp_dist_trial,num_items,zn7si1,1.0,response,1_ITEM,2778.700000017881,2766.700000000012,2778.700000017881,2778.700000017881,2766.700000000012,2778.700000017881,1.0,0.0,0.0,,Click Response,1_count,3.0,object-46,temp_dist_trial,19.0,s_s_09_1,student_stem,multimeter,2.0,unique,paired,s_s_09_1.jpg,Student,,,sub-62
Desktop or Laptop,Mac OS 10.15.7,Chrome 138.0.0.0,2240x1260,2240x1172,Temporal Distance Task,cb_02,68.0,temp_dist_trial,num_items,zn7si1,1.0,response,2_ITEM,1019.6000000119092,1016.7000000000116,1019.6000000119092,1019.6000000119092,1016.7000000000116,1019.6000000119092,1.0,0.0,0.0,,Click Response,2_count,5.0,object-49,temp_dist_trial,20.0,s_sh_05_1,student_shared,laptop,2.0,competing,paired,s_sh_05_1.jpg,Student,,,sub-62
Desktop or Laptop,Mac OS 10.15.7,Chrome 138.0.0.0,2240x1260,2240x1172,Temporal Distance Task,cb_02,68.0,temp_dist_trial,dist_items,qkpkxw,2.0,info,,5.900000017893037,0.0,5.900000017893037,5.900000017893037,0.0,5.900000017893037,1.0,0.0,0.0,,Slider,Slider,4.0,object-56,temp_dist_trial,20.0,s_sh_05_1,student_shared,laptop,2.0,competing,paired,s_sh_05_1.jpg,Student,,,sub-62
Desktop or Laptop,Mac OS 10.15.7,Chrome 138.0.0.0,2240x1260,2240x1172,Temporal Distance Task,cb_02,68.0,temp_dist_trial,dist_items,qkpkxw,2.0,continue,,2469.100000005972,2466.7999999999884,2469.100000005972,2469.100000005972,2466.7999999999884,2469.100000005972,1.0,0.0,0.0,,Click To Continue,Next button,7.0,object-60,temp_dist_trial,20.0,s_sh_05_1,student_shared,laptop,2.0,competing,paired,s_sh_05_1.jpg,Student,,,sub-62
Desktop or Laptop,Mac OS 10.15.7,Chrome 138.0.0.0,2240x1260,2240x1172,Temporal Distance Task,cb_02,68.0,temp_dist_trial,dist_items,qkpkxw,2.0,response,61,883.4000000000232,2466.7999999999884,2469.500000011933,883.4000000000232,2466.7999999999884,2469.500000011933,1.0,1586.1000000119093,0.0,,Slider,Slider,4.0,object-56,temp_dist_trial,20.0,s_sh_05_1,student_shared,laptop,2.0,competing,paired,s_sh_05_1.jpg,Student,,,sub-62
Desktop or Laptop,Mac OS 10.15.7,Chrome 138.0.0.0,2240x1260,2240x1172,Temporal Distance Task,cb_02,69.0,temp_dist_trial,num_items,zn7si1,1.0,response,1_ITEM,2192.9999999940633,2183.3000000000466,2192.9999999940633,2192.9999999940633,2183.3000000000466,2192.9999999940633,1.0,0.0,0.0,,Click Response,1_count,3.0,object-46,temp_dist_trial,21.0,s_s_19_1,student_stem,circuit board,2.0,unique,single,s_s_19_1.jpg,Student,,,sub-62
Desktop or Laptop,Mac OS 10.15.7,Chrome 138.0.0.0,2240x1260,2240x1172,Temporal Distance Task,cb_02,70.0,temp_dist_trial,num_items,zn7si1,1.0,response,1_ITEM,2145.900000017893,2133.2999999999884,2145.900000017893,2145.900000017893,2133.2999999999884,2145.900000017893,1.0,0.0,0.0,,Click Response,1_count,3.0,object-46,temp_dist_trial,22.0,s_a_14_1,student_art,guitar pick,2.0,unique,single,s_a_14_1.jpg,Student,,,sub-62
Desktop or Laptop,Mac OS 10.15.7,Chrome 138.0.0.0,2240x1260,2240x1172,Temporal Distance Task,cb_02,71.0,temp_dist_trial,num_items,zn7si1,1.0,response,2_ITEM,2088.6000000179047,2083.9000000000233,2088.6000000179047,2088.6000000179047,2083.9000000000233,2088.6000000179047,1.0,0.0,0.0,,Click Response,2_count,5.0,object-49,temp_dist_trial,23.0,s_sh_04_1,student_shared,laptop stand,2.0,competing,paired,s_sh_04_1.jpg,Student,,,sub-62
Desktop or Laptop,Mac OS 10.15.7,Chrome 138.0.0.0,2240x1260,2240x1172,Temporal Distance Task,cb_02,71.0,temp_dist_trial,dist_items,qkpkxw,2.0,info,,5.300000011920929,0.0,5.300000011920929,5.300000011920929,0.0,5.300000011920929,1.0,0.0,0.0,,Slider,Slider,4.0,object-56,temp_dist_trial,23.0,s_sh_04_1,student_shared,laptop stand,2.0,competing,paired,s_sh_04_1.jpg,Student,,,sub-62
Desktop or Laptop,Mac OS 10.15.7,Chrome 138.0.0.0,2240x1260,2240x1172,Temporal Distance Task,cb_02,71.0,temp_dist_trial,dist_items,qkpkxw,2.0,continue,,2647.5,2633.2999999999884,2647.5,2647.5,2633.2999999999884,2647.5,1.0,0.0,0.0,,Click To Continue,Next button,7.0,object-60,temp_dist_trial,23.0,s_sh_04_1,student_shared,laptop stand,2.0,competing,paired,s_sh_04_1.jpg,Student,,,sub-62
Desktop or Laptop,Mac OS 10.15.7,Chrome 138.0.0.0,2240x1260,2240x1172,Temporal Distance Task,cb_02,71.0,temp_dist_trial,dist_items,qkpkxw,2.0,response,74,1050.0,2633.2999999999884,2650.0,1050.0,2633.2999999999884,2650.0,1.0,1600.0,0.0,,Slider,Slider,4.0,object-56,temp_dist_trial,23.0,s_sh_04_1,student_shared,laptop stand,2.0,competing,paired,s_sh_04_1.jpg,Student,,,sub-62
Desktop or Laptop,Mac OS 10.15.7,Chrome 138.0.0.0,2240x1260,2240x1172,Temporal Distance Task,cb_02,72.0,temp_dist_trial,num_items,zn7si1,1.0,response,2_ITEM,1515.900000017893,1500.0,1515.900000017893,1515.900000017893,1500.0,1515.900000017893,1.0,0.0,0.0,,Click Response,2_count,5.0,object-49,temp_dist_trial,24.0,s_sh_15_1,student_shared,usb drive,2.0,competing,single,s_sh_15_1.jpg,Student,,,sub-62
Desktop or Laptop,Mac OS 10.15.7,Chrome 138.0.0.0,2240x1260,2240x1172,Temporal Distance Task,cb_02,72.0,temp_dist_trial,dist_items,qkpkxw,2.0,info,,5.100000005972107,0.0,5.100000005972107,5.100000005972107,0.0,5.100000005972107,1.0,0.0,0.0,,Slider,Slider,4.0,object-56,temp_dist_trial,24.0,s_sh_15_1,student_shared,usb drive,2.0,competing,single,s_sh_15_1.jpg,Student,,,sub-62
Desktop or Laptop,Mac OS 10.15.7,Chrome 138.0.0.0,2240x1260,2240x1172,Temporal Distance Task,cb_02,72.0,temp_dist_trial,dist_items,qkpkxw,2.0,continue,,1926.7000000000119,1916.7000000000119,1926.7000000000119,1926.7000000000119,1916.7000000000119,1926.7000000000119,1.0,0.0,0.0,,Click To Continue,Next button,7.0,object-60,temp_dist_trial,24.0,s_sh_15_1,student_shared,usb drive,2.0,competing,single,s_sh_15_1.jpg,Student,,,sub-62
Desktop or Laptop,Mac OS 10.15.7,Chrome 138.0.0.0,2240x1260,2240x1172,Temporal Distance Task,cb_02,72.0,temp_dist_trial,dist_items,qkpkxw,2.0,response,36,949.9000000000232,1916.7000000000119,1927.400000017893,949.9000000000232,1916.7000000000119,1927.400000017893,1.0,977.5000000178698,0.0,,Slider,Slider,4.0,object-56,temp_dist_trial,24.0,s_sh_15_1,student_shared,usb drive,2.0,competing,single,s_sh_15_1.jpg,Student,,,sub-62
Desktop or Laptop,Mac OS 10.15.7,Chrome 138.0.0.0,2240x1260,2240x1172,Temporal Distance Task,cb_02,73.0,temp_dist_trial,num_items,zn7si1,1.0,response,1_ITEM,1914.200000017881,1899.9000000000235,1914.200000017881,1914.200000017881,1899.9000000000235,1914.200000017881,1.0,0.0,0.0,,Click Response,1_count,3.0,object-46,temp_dist_trial,25.0,s_s_12_1,student_stem,robotic arm,2.0,unique,paired,s_s_12_1.jpg,Student,,,sub-62
Desktop or Laptop,Mac OS 10.15.7,Chrome 138.0.0.0,2240x1260,2240x1172,Temporal Distance Task,cb_02,74.0,temp_dist_trial,num_items,zn7si1,1.0,response,2_ITEM,1233.1999999999534,1216.5999999999767,1233.1999999999534,1233.1999999999534,1216.5999999999767,1233.1999999999534,1.0,0.0,0.0,,Click Response,2_count,5.0,object-49,temp_dist_trial,26.0,s_sh_23_1,student_shared,ballpoint pen,2.0,competing,paired,s_sh_23_1.jpg,Student,,,sub-62
Desktop or Laptop,Mac OS 10.15.7,Chrome 138.0.0.0,2240x1260,2240x1172,Temporal Distance Task,cb_02,74.0,temp_dist_trial,dist_items,qkpkxw,2.0,info,,5.900000000023283,0.0,5.900000000023283,5.900000000023283,0.0,5.900000000023283,1.0,0.0,0.0,,Slider,Slider,4.0,object-56,temp_dist_trial,26.0,s_sh_23_1,student_shared,ballpoint pen,2.0,competing,paired,s_sh_23_1.jpg,Student,,,sub-62
Desktop or Laptop,Mac OS 10.15.7,Chrome 138.0.0.0,2240x1260,2240x1172,Temporal Distance Task,cb_02,74.0,temp_dist_trial,dist_items,qkpkxw,2.0,continue,,2662.4999999940633,2650.0,2662.4999999940633,2662.4999999940633,2650.0,2662.4999999940633,1.0,0.0,0.0,,Click To Continue,Next button,7.0,object-60,temp_dist_trial,26.0,s_sh_23_1,student_shared,ballpoint pen,2.0,competing,paired,s_sh_23_1.jpg,Student,,,sub-62
Desktop or Laptop,Mac OS 10.15.7,Chrome 138.0.0.0,2240x1260,2240x1172,Temporal Distance Task,cb_02,74.0,temp_dist_trial,dist_items,qkpkxw,2.0,response,64,933.4000000000232,2650.0,2663.3000000059837,933.4000000000232,2650.0,2663.3000000059837,1.0,1729.9000000059605,0.0,,Slider,Slider,4.0,object-56,temp_dist_trial,26.0,s_sh_23_1,student_shared,ballpoint pen,2.0,competing,paired,s_sh_23_1.jpg,Student,,,sub-62
Desktop or Laptop,Mac OS 10.15.7,Chrome 138.0.0.0,2240x1260,2240x1172,Temporal Distance Task,cb_02,75.0,temp_dist_trial,num_items,zn7si1,1.0,response,2_ITEM,2037.6000000179047,2033.4000000000235,2037.6000000179047,2037.6000000179047,2033.4000000000235,2037.6000000179047,1.0,0.0,0.0,,Click Response,2_count,5.0,object-49,temp_dist_trial,27.0,s_sh_11_1,student_shared,pencil case,2.0,competing,single,s_sh_11_1.jpg,Student,,,sub-62
Desktop or Laptop,Mac OS 10.15.7,Chrome 138.0.0.0,2240x1260,2240x1172,Temporal Distance Task,cb_02,75.0,temp_dist_trial,dist_items,qkpkxw,2.0,info,,5.4000000059604645,0.0,5.4000000059604645,5.4000000059604645,0.0,5.4000000059604645,1.0,0.0,0.0,,Slider,Slider,4.0,object-56,temp_dist_trial,27.0,s_sh_11_1,student_shared,pencil case,2.0,competing,single,s_sh_11_1.jpg,Student,,,sub-62
Desktop or Laptop,Mac OS 10.15.7,Chrome 138.0.0.0,2240x1260,2240x1172,Temporal Distance Task,cb_02,75.0,temp_dist_trial,dist_items,qkpkxw,2.0,continue,,1976.3000000119207,1966.5999999999767,1976.3000000119207,1976.3000000119207,1966.5999999999767,1976.3000000119207,1.0,0.0,0.0,,Click To Continue,Next button,7.0,object-60,temp_dist_trial,27.0,s_sh_11_1,student_shared,pencil case,2.0,competing,single,s_sh_11_1.jpg,Student,,,sub-62
Desktop or Laptop,Mac OS 10.15.7,Chrome 138.0.0.0,2240x1260,2240x1172,Temporal Distance Task,cb_02,75.0,temp_dist_trial,dist_items,qkpkxw,2.0,response,67,716.5999999999768,1966.5999999999767,1976.8000000119207,716.5999999999768,1966.5999999999767,1976.8000000119207,1.0,1260.2000000119442,0.0,,Slider,Slider,4.0,object-56,temp_dist_trial,27.0,s_sh_11_1,student_shared,pencil case,2.0,competing,single,s_sh_11_1.jpg,Student,,,sub-62
Desktop or Laptop,Mac OS 10.15.7,Chrome 138.0.0.0,2240x1260,2240x1172,Temporal Distance Task,cb_02,76.0,temp_dist_trial,num_items,zn7si1,1.0,response,1_ITEM,1297.4999999940628,1283.3000000000466,1297.4999999940628,1297.4999999940628,1283.3000000000466,1297.4999999940628,1.0,0.0,0.0,,Click Response,1_count,3.0,object-46,temp_dist_trial,28.0,s_a_12_1,student_art,saxophone,2.0,unique,single,s_a_12_1.jpg,Student,,,sub-62
Desktop or Laptop,Mac OS 10.15.7,Chrome 138.0.0.0,2240x1260,2240x1172,Temporal Distance Task,cb_02,77.0,temp_dist_trial,num_items,zn7si1,1.0,response,1_ITEM,1260.8000000178579,1250.0,1260.8000000178579,1260.8000000178579,1250.0,1260.8000000178579,1.0,0.0,0.0,,Click Response,1_count,3.0,object-46,temp_dist_trial,29.0,s_a_18_1,student_art,tutu,2.0,unique,single,s_a_18_1.jpg,Student,,,sub-62
Desktop or Laptop,Mac OS 10.15.7,Chrome 138.0.0.0,2240x1260,2240x1172,Temporal Distance Task,cb_02,78.0,temp_dist_trial,num_items,zn7si1,1.0,response,2_ITEM,1219.1999999940165,1216.5999999999767,1219.1999999940165,1219.1999999940165,1216.5999999999767,1219.1999999940165,1.0,0.0,0.0,,Click Response,2_count,5.0,object-49,temp_dist_trial,30.0,s_s_02_1,student_stem,flask,2.0,unique,paired,s_s_02_1.jpg,Student,,,sub-62
Desktop or Laptop,Mac OS 10.15.7,Chrome 138.0.0.0,2240x1260,2240x1172,Temporal Distance Task,cb_02,78.0,temp_dist_trial,dist_items,qkpkxw,2.0,info,,5.400000000023283,0.0,5.400000000023283,5.400000000023283,0.0,5.400000000023283,1.0,0.0,0.0,,Slider,Slider,4.0,object-56,temp_dist_trial,30.0,s_s_02_1,student_stem,flask,2.0,unique,paired,s_s_02_1.jpg,Student,,,sub-62
Desktop or Laptop,Mac OS 10.15.7,Chrome 138.0.0.0,2240x1260,2240x1172,Temporal Distance Task,cb_02,78.0,temp_dist_trial,dist_items,qkpkxw,2.0,continue,,2077.4000000000233,2066.600000000035,2077.4000000000233,2077.4000000000233,2066.600000000035,2077.4000000000233,1.0,0.0,0.0,,Click To Continue,Next button,7.0,object-60,temp_dist_trial,30.0,s_s_02_1,student_stem,flask,2.0,unique,paired,s_s_02_1.jpg,Student,,,sub-62
Desktop or Laptop,Mac OS 10.15.7,Chrome 138.0.0.0,2240x1260,2240x1172,Temporal Distance Task,cb_02,78.0,temp_dist_trial,dist_items,qkpkxw,2.0,response,38,1083.3000000000468,2066.600000000035,2078.3000000059837,1083.3000000000468,2066.600000000035,2078.3000000059837,1.0,995.0000000059372,0.0,,Slider,Slider,4.0,object-56,temp_dist_trial,30.0,s_s_02_1,student_stem,flask,2.0,unique,paired,s_s_02_1.jpg,Student,,,sub-62
Desktop or Laptop,Mac OS 10.15.7,Chrome 138.0.0.0,2240x1260,2240x1172,Temporal Distance Task,cb_02,79.0,temp_dist_trial,num_items,zn7si1,1.0,response,2_ITEM,1059.6000000119093,1050.0,1059.6000000119093,1059.6000000119093,1050.0,1059.6000000119093,1.0,0.0,0.0,,Click Response,2_count,5.0,object-49,temp_dist_trial,31.0,s_sh_03_1,student_shared,highlighter,2.0,competing,paired,s_sh_03_1.jpg,Student,,,sub-62
Desktop or Laptop,Mac OS 10.15.7,Chrome 138.0.0.0,2240x1260,2240x1172,Temporal Distance Task,cb_02,79.0,temp_dist_trial,dist_items,qkpkxw,2.0,info,,6.299999999988358,0.0,6.299999999988358,6.299999999988358,0.0,6.299999999988358,1.0,0.0,0.0,,Slider,Slider,4.0,object-56,temp_dist_trial,31.0,s_sh_03_1,student_shared,highlighter,2.0,competing,paired,s_sh_03_1.jpg,Student,,,sub-62
Desktop or Laptop,Mac OS 10.15.7,Chrome 138.0.0.0,2240x1260,2240x1172,Temporal Distance Task,cb_02,79.0,temp_dist_trial,dist_items,qkpkxw,2.0,continue,,1876.2999999999884,1866.7000000000119,1876.2999999999884,1876.2999999999884,1866.7000000000119,1876.2999999999884,1.0,0.0,0.0,,Click To Continue,Next button,7.0,object-60,temp_dist_trial,31.0,s_sh_03_1,student_shared,highlighter,2.0,competing,paired,s_sh_03_1.jpg,Student,,,sub-62
Desktop or Laptop,Mac OS 10.15.7,Chrome 138.0.0.0,2240x1260,2240x1172,Temporal Distance Task,cb_02,79.0,temp_dist_trial,dist_items,qkpkxw,2.0,response,65,716.5999999999768,1866.7000000000119,1876.7000000059488,716.5999999999768,1866.7000000000119,1876.7000000059488,1.0,1160.1000000059719,0.0,,Slider,Slider,4.0,object-56,temp_dist_trial,31.0,s_sh_03_1,student_shared,highlighter,2.0,competing,paired,s_sh_03_1.jpg,Student,,,sub-62
Desktop or Laptop,Mac OS 10.15.7,Chrome 138.0.0.0,2240x1260,2240x1172,Temporal Distance Task,cb_02,80.0,temp_dist_trial,num_items,zn7si1,1.0,response,1_ITEM,977.0000000059372,966.5999999999768,977.0000000059372,977.0000000059372,966.5999999999768,977.0000000059372,1.0,0.0,0.0,,Click Response,1_count,3.0,object-46,temp_dist_trial,32.0,s_sh_06_1,student_shared,clipboard,2.0,competing,single,s_sh_06_1.jpg,Student,,,sub-62
Desktop or Laptop,Mac OS 10.15.7,Chrome 138.0.0.0,2240x1260,2240x1172,Temporal Distance Task,cb_02,81.0,temp_dist_trial,num_items,zn7si1,1.0,response,1_ITEM,1865.5,1849.4000000000235,1865.5,1865.5,1849.4000000000235,1865.5,1.0,0.0,0.0,,Click Response,1_count,3.0,object-46,temp_dist_trial,33.0,s_s_01_1,student_stem,microscope,2.0,unique,paired,s_s_01_1.jpg,Student,,,sub-62
Desktop or Laptop,Mac OS 10.15.7,Chrome 138.0.0.0,2240x1260,2240x1172,Temporal Distance Task,cb_02,82.0,temp_dist_trial,num_items,zn7si1,1.0,response,1_ITEM,1791.5999999940395,1783.5,1791.5999999940395,1791.5999999940395,1783.5,1791.5999999940395,1.0,0.0,0.0,,Click Response,1_count,3.0,object-46,temp_dist_trial,34.0,s_a_20_1,student_art,pin cushion,2.0,unique,paired,s_a_20_1.jpg,Student,,,sub-62
Desktop or Laptop,Mac OS 10.15.7,Chrome 138.0.0.0,2240x1260,2240x1172,Temporal Distance Task,cb_02,83.0,temp_dist_trial,num_items,zn7si1,1.0,response,2_ITEM,1377.0999999999767,1366.6999999999534,1377.0999999999767,1377.0999999999767,1366.6999999999534,1377.0999999999767,1.0,0.0,0.0,,Click Response,2_count,5.0,object-49,temp_dist_trial,35.0,s_s_04_1,student_stem,bunsen burner,2.0,unique,paired,s_s_04_1.jpg,Student,,,sub-62
Desktop or Laptop,Mac OS 10.15.7,Chrome 138.0.0.0,2240x1260,2240x1172,Temporal Distance Task,cb_02,83.0,temp_dist_trial,dist_items,qkpkxw,2.0,info,,5.900000000023283,0.0,5.900000000023283,5.900000000023283,0.0,5.900000000023283,1.0,0.0,0.0,,Slider,Slider,4.0,object-56,temp_dist_trial,35.0,s_s_04_1,student_stem,bunsen burner,2.0,unique,paired,s_s_04_1.jpg,Student,,,sub-62
Desktop or Laptop,Mac OS 10.15.7,Chrome 138.0.0.0,2240x1260,2240x1172,Temporal Distance Task,cb_02,83.0,temp_dist_trial,dist_items,qkpkxw,2.0,continue,,3277.8000000059837,3266.600000000035,3277.8000000059837,3277.8000000059837,3266.600000000035,3277.8000000059837,1.0,0.0,0.0,,Click To Continue,Next button,7.0,object-60,temp_dist_trial,35.0,s_s_04_1,student_stem,bunsen burner,2.0,unique,paired,s_s_04_1.jpg,Student,,,sub-62
Desktop or Laptop,Mac OS 10.15.7,Chrome 138.0.0.0,2240x1260,2240x1172,Temporal Distance Task,cb_02,83.0,temp_dist_trial,dist_items,qkpkxw,2.0,response,34,1066.600000000035,3266.600000000035,3280.4999999940637,1066.600000000035,3266.600000000035,3280.4999999940637,1.0,2213.899999994028,0.0,,Slider,Slider,4.0,object-56,temp_dist_trial,35.0,s_s_04_1,student_stem,bunsen burner,2.0,unique,paired,s_s_04_1.jpg,Student,,,sub-62
Desktop or Laptop,Mac OS 10.15.7,Chrome 138.0.0.0,2240x1260,2240x1172,Temporal Distance Task,cb_02,84.0,temp_dist_trial,num_items,zn7si1,1.0,response,1_ITEM,1729.7000000059488,1716.7000000000116,1729.7000000059488,1729.7000000059488,1716.7000000000116,1729.7000000059488,1.0,0.0,0.0,,Click Response,1_count,3.0,object-46,temp_dist_trial,36.0,s_s_08_1,student_stem,soldering iron,2.0,unique,single,s_s_08_1.jpg,Student,,,sub-62
Desktop or Laptop,Mac OS 10.15.7,Chrome 138.0.0.0,2240x1260,2240x1172,Temporal Distance Task,cb_02,85.0,temp_dist_trial,num_items,zn7si1,1.0,response,2_ITEM,905.0999999999768,899.8999999999651,905.0999999999768,905.0999999999768,899.8999999999651,905.0999999999768,1.0,0.0,0.0,,Click Response,2_count,5.0,object-49,temp_dist_trial,37.0,s_sh_16_1,student_shared,stapler,2.0,competing,paired,s_sh_16_1.jpg,Student,,,sub-62
Desktop or Laptop,Mac OS 10.15.7,Chrome 138.0.0.0,2240x1260,2240x1172,Temporal Distance Task,cb_02,85.0,temp_dist_trial,dist_items,qkpkxw,2.0,info,,6.299999994051178,0.0,6.299999994051178,6.299999994051178,0.0,6.299999994051178,1.0,0.0,0.0,,Slider,Slider,4.0,object-56,temp_dist_trial,37.0,s_sh_16_1,student_shared,stapler,2.0,competing,paired,s_sh_16_1.jpg,Student,,,sub-62
Desktop or Laptop,Mac OS 10.15.7,Chrome 138.0.0.0,2240x1260,2240x1172,Temporal Distance Task,cb_02,85.0,temp_dist_trial,dist_items,qkpkxw,2.0,continue,,1822.7000000000119,1815.7000000000119,1822.7000000000119,1822.7000000000119,1815.7000000000119,1822.7000000000119,1.0,0.0,0.0,,Click To Continue,Next button,7.0,object-60,temp_dist_trial,37.0,s_sh_16_1,student_shared,stapler,2.0,competing,paired,s_sh_16_1.jpg,Student,,,sub-62
Desktop or Laptop,Mac OS 10.15.7,Chrome 138.0.0.0,2240x1260,2240x1172,Temporal Distance Task,cb_02,85.0,temp_dist_trial,dist_items,qkpkxw,2.0,response,64,666.4000000000233,1815.7000000000119,1823.1000000059719,666.4000000000233,1815.7000000000119,1823.1000000059719,1.0,1156.7000000059488,0.0,,Slider,Slider,4.0,object-56,temp_dist_trial,37.0,s_sh_16_1,student_shared,stapler,2.0,competing,paired,s_sh_16_1.jpg,Student,,,sub-62
