Participant Device,Participant OS,Participant Browser,Participant Monitor Size,Participant Viewport Size,Task Name,Current Spreadsheet,Trial Number,Display,Screen,Screen ID,Screen Counter,Response Type,Response,Onset Time,Clock Time,Reaction Time,Absolute Onset Time,Absolute Clock Time,Absolute Reaction Time,Correct,Response Duration,Proportion,Tag,Component Name,Object Name,Object Number,Object ID,Spreadsheet: display,Spreadsheet: trial,Spreadsheet: stimulus_id,Spreadsheet: expected_goal,Spreadsheet: stimulus_name,Spreadsheet: c_group,Spreadsheet: condition,Spreadsheet: paired_status,Spreadsheet: stimulus_path,Spreadsheet: block_type,Manipulation: Spreadsheet,Store: enc_test_acc,sub_label
Desktop or Laptop,Windows 10,Firefox 140.0,2560x1440,2560x1315,Temporal Distance Task,$${counterbalance_group},,,,,,info,BEGIN,,,,,,,0.0,,,,,,,,,,,,,,,,,,,,sub-19
Desktop or Laptop,Windows 10,Firefox 140.0,2560x1440,2560x1315,Temporal Distance Task,cb_07,1.0,temp_instructions,intro_screen,3tnme7,1.0,continue,,8098.68,8089.059999999998,8098.68,8098.68,8089.059999999998,8098.68,1.0,0.0,0.0,,Click To Continue,Continue Button,4.0,object-29,temp_instructions,,,Student,,,,,,,,,sub-19
Desktop or Laptop,Windows 10,Firefox 140.0,2560x1440,2560x1315,Temporal Distance Task,cb_07,1.0,temp_instructions,intro_screen_2,52v7ur,2.0,continue,,26410.62000000001,26405.82,26410.62000000001,26410.62000000001,26405.82,26410.62000000001,1.0,0.0,0.0,,Click To Continue,Continue Button,4.0,object-39,temp_instructions,,,Student,,,,,,,,,sub-19
Desktop or Laptop,Windows 10,Firefox 140.0,2560x1440,2560x1315,Temporal Distance Task,cb_07,1.0,temp_instructions,intro_screen_3,i7lvwx,3.0,continue,,7692.800000000002,7690.900000000002,7692.800000000002,7692.800000000002,7690.900000000002,7692.800000000002,1.0,0.0,0.0,,Click To Continue,Continue Button,4.0,object-67,temp_instructions,,,Student,,,,,,,,,sub-19
Desktop or Laptop,Windows 10,Firefox 140.0,2560x1440,2560x1315,Temporal Distance Task,cb_07,1.0,temp_instructions,test_q1,5ieqx1,4.0,response,choice_3,6331.900000000002,6321.940000000002,6331.900000000002,6331.900000000002,6321.940000000002,6331.900000000002,1.0,0.0,0.0,,Click Response,choice_3,5.0,object-345,temp_instructions,,,Student,,,,,,,,,sub-19
Desktop or Laptop,Windows 10,Firefox 140.0,2560x1440,2560x1315,Temporal Distance Task,cb_07,1.0,temp_instructions,score_corr,7ilvjr,5.0,continue,,1047.9599999999991,1033.3199999999997,1047.9599999999991,1047.9599999999991,1033.3199999999997,1047.9599999999991,1.0,0.0,0.0,,Click To Continue,Continue Button,3.0,object-23,temp_instructions,,,Student,,,,,,,,,sub-19
Desktop or Laptop,Windows 10,Firefox 140.0,2560x1440,2560x1315,Temporal Distance Task,cb_07,1.0,temp_eventStart,Screen 1,dgtyxe,1.0,continue,,1482.6399999999994,1468.5400000000006,1482.6399999999994,1482.6399999999994,1468.5400000000006,1482.6399999999994,1.0,0.0,0.0,,Click To Continue,Next Button,3.0,object-43,temp_eventStart,,,Student,,,,,,,,,sub-19
Desktop or Laptop,Windows 10,Firefox 140.0,2560x1440,2560x1315,Temporal Distance Task,cb_07,1.0,temp_dist_trial,num_items,zn7si1,1.0,response,1_ITEM,2623.0999999999985,2618.540000000001,2623.0999999999985,2623.0999999999985,2618.540000000001,2623.0999999999985,1.0,0.0,0.0,,Click Response,1_count,3.0,object-46,temp_dist_trial,1.0,s_sh_13_1,student_shared,index cards,7.0,competing,paired,s_sh_13_1.jpg,Student,,,sub-19
Desktop or Laptop,Windows 10,Firefox 140.0,2560x1440,2560x1315,Temporal Distance Task,cb_07,2.0,temp_dist_trial,num_items,zn7si1,1.0,response,num_miss,3001.7999999999956,3001.7999999999956,3001.7999999999956,3001.7999999999956,3001.7999999999956,3001.7999999999956,1.0,0.0,0.0,num_miss_tag,Time Limit,screen,0.0,screen,temp_dist_trial,2.0,s_a_09_1,student_art,picture frame,7.0,unique,single,s_a_09_1.jpg,Student,,,sub-19
Desktop or Laptop,Windows 10,Firefox 140.0,2560x1440,2560x1315,Temporal Distance Task,cb_07,3.0,temp_dist_trial,num_items,zn7si1,1.0,response,1_ITEM,2707.4199999999983,2703.799999999996,2707.4199999999983,2707.4199999999983,2703.799999999996,2707.4199999999983,1.0,0.0,0.0,,Click Response,1_count,3.0,object-46,temp_dist_trial,3.0,s_sh_02_1,student_shared,eraser,7.0,competing,paired,s_sh_02_1.jpg,Student,,,sub-19
Desktop or Laptop,Windows 10,Firefox 140.0,2560x1440,2560x1315,Temporal Distance Task,cb_07,4.0,temp_dist_trial,num_items,zn7si1,1.0,response,1_ITEM,1395.6200000000024,1383.3400000000033,1395.6200000000024,1395.6200000000024,1383.3400000000033,1395.6200000000024,1.0,0.0,0.0,,Click Response,1_count,3.0,object-46,temp_dist_trial,4.0,s_sh_07_1,student_shared,ruler,7.0,competing,paired,s_sh_07_1.jpg,Student,,,sub-19
Desktop or Laptop,Windows 10,Firefox 140.0,2560x1440,2560x1315,Temporal Distance Task,cb_07,5.0,temp_dist_trial,num_items,zn7si1,1.0,response,num_miss,3003.759999999995,3003.759999999995,3003.759999999995,3003.759999999995,3003.759999999995,3003.759999999995,1.0,0.0,0.0,num_miss_tag,Time Limit,screen,0.0,screen,temp_dist_trial,5.0,s_s_16_1,student_stem,toolbox,7.0,unique,paired,s_s_16_1.jpg,Student,,,sub-19
Desktop or Laptop,Windows 10,Firefox 140.0,2560x1440,2560x1315,Temporal Distance Task,cb_07,6.0,temp_dist_trial,num_items,zn7si1,1.0,response,1_ITEM,1379.179999999993,1368.479999999996,1379.179999999993,1379.179999999993,1368.479999999996,1379.179999999993,1.0,0.0,0.0,,Click Response,1_count,3.0,object-46,temp_dist_trial,6.0,s_a_18_1,student_art,tutu,7.0,unique,paired,s_a_18_1.jpg,Student,,,sub-19
Desktop or Laptop,Windows 10,Firefox 140.0,2560x1440,2560x1315,Temporal Distance Task,cb_07,7.0,temp_dist_trial,num_items,zn7si1,1.0,response,1_ITEM,2401.699999999997,2385.1600000000035,2401.699999999997,2401.699999999997,2385.1600000000035,2401.699999999997,1.0,0.0,0.0,,Click Response,1_count,3.0,object-46,temp_dist_trial,7.0,s_a_05_1,student_art,clay,7.0,unique,paired,s_a_05_1.jpg,Student,,,sub-19
Desktop or Laptop,Windows 10,Firefox 140.0,2560x1440,2560x1315,Temporal Distance Task,cb_07,8.0,temp_dist_trial,num_items,zn7si1,1.0,response,num_miss,3001.7999999999884,3001.7999999999884,3001.7999999999884,3001.7999999999884,3001.7999999999884,3001.7999999999884,1.0,0.0,0.0,num_miss_tag,Time Limit,screen,0.0,screen,temp_dist_trial,8.0,s_sh_04_1,student_shared,laptop stand,7.0,competing,single,s_sh_04_1.jpg,Student,,,sub-19
Desktop or Laptop,Windows 10,Firefox 140.0,2560x1440,2560x1315,Temporal Distance Task,cb_07,9.0,temp_dist_trial,num_items,zn7si1,1.0,response,1_ITEM,108.39999999999418,100.0,108.39999999999418,108.39999999999418,100.0,108.39999999999418,1.0,0.0,0.0,,Click Response,1_count,3.0,object-46,temp_dist_trial,9.0,s_a_14_1,student_art,guitar pick,7.0,unique,paired,s_a_14_1.jpg,Student,,,sub-19
Desktop or Laptop,Windows 10,Firefox 140.0,2560x1440,2560x1315,Temporal Distance Task,cb_07,10.0,temp_dist_trial,num_items,zn7si1,1.0,response,1_ITEM,1378.5,1366.6600000000035,1378.5,1378.5,1366.6600000000035,1378.5,1.0,0.0,0.0,,Click Response,1_count,3.0,object-46,temp_dist_trial,10.0,s_a_01_1,student_art,paintbrush,7.0,unique,paired,s_a_01_1.jpg,Student,,,sub-19
Desktop or Laptop,Windows 10,Firefox 140.0,2560x1440,2560x1315,Temporal Distance Task,cb_07,11.0,temp_dist_trial,num_items,zn7si1,1.0,response,2_ITEM,1540.8399999999967,1535.2399999999911,1540.8399999999967,1540.8399999999967,1535.2399999999911,1540.8399999999967,1.0,0.0,0.0,,Click Response,2_count,5.0,object-49,temp_dist_trial,11.0,s_sh_16_1,student_shared,stapler,7.0,competing,paired,s_sh_16_1.jpg,Student,,,sub-19
Desktop or Laptop,Windows 10,Firefox 140.0,2560x1440,2560x1315,Temporal Distance Task,cb_07,11.0,temp_dist_trial,dist_items,qkpkxw,2.0,info,,16.60000000000582,0.0,16.60000000000582,16.60000000000582,0.0,16.60000000000582,1.0,0.0,0.0,,Slider,Slider,4.0,object-56,temp_dist_trial,11.0,s_sh_16_1,student_shared,stapler,7.0,competing,paired,s_sh_16_1.jpg,Student,,,sub-19
Desktop or Laptop,Windows 10,Firefox 140.0,2560x1440,2560x1315,Temporal Distance Task,cb_07,11.0,temp_dist_trial,dist_items,qkpkxw,2.0,continue,,3602.6000000000067,3587.060000000012,3602.6000000000067,3602.6000000000067,3587.060000000012,3602.6000000000067,1.0,0.0,0.0,,Click To Continue,Next button,7.0,object-60,temp_dist_trial,11.0,s_sh_16_1,student_shared,stapler,7.0,competing,paired,s_sh_16_1.jpg,Student,,,sub-19
Desktop or Laptop,Windows 10,Firefox 140.0,2560x1440,2560x1315,Temporal Distance Task,cb_07,11.0,temp_dist_trial,dist_items,qkpkxw,2.0,response,72,1185.1600000000035,3587.060000000012,3603.6000000000067,1185.1600000000035,3587.060000000012,3603.6000000000067,1.0,2418.4400000000023,0.0,,Slider,Slider,4.0,object-56,temp_dist_trial,11.0,s_sh_16_1,student_shared,stapler,7.0,competing,paired,s_sh_16_1.jpg,Student,,,sub-19
Desktop or Laptop,Windows 10,Firefox 140.0,2560x1440,2560x1315,Temporal Distance Task,cb_07,12.0,temp_dist_trial,num_items,zn7si1,1.0,response,1_ITEM,1538.5399999999936,1533.3199999999924,1538.5399999999936,1538.5399999999936,1533.3199999999924,1538.5399999999936,1.0,0.0,0.0,,Click Response,1_count,3.0,object-46,temp_dist_trial,12.0,s_a_07_1,student_art,yarn,7.0,unique,paired,s_a_07_1.jpg,Student,,,sub-19
Desktop or Laptop,Windows 10,Firefox 140.0,2560x1440,2560x1315,Temporal Distance Task,cb_07,13.0,temp_dist_trial,num_items,zn7si1,1.0,response,2_ITEM,1158.2200000000012,1151.9199999999985,1158.2200000000012,1158.2200000000012,1151.9199999999985,1158.2200000000012,1.0,0.0,0.0,,Click Response,2_count,5.0,object-49,temp_dist_trial,13.0,s_sh_21_1,student_shared,file holder,7.0,competing,paired,s_sh_21_1.jpg,Student,,,sub-19
Desktop or Laptop,Windows 10,Firefox 140.0,2560x1440,2560x1315,Temporal Distance Task,cb_07,13.0,temp_dist_trial,dist_items,qkpkxw,2.0,info,,11.30000000000291,0.0,11.30000000000291,11.30000000000291,0.0,11.30000000000291,1.0,0.0,0.0,,Slider,Slider,4.0,object-56,temp_dist_trial,13.0,s_sh_21_1,student_shared,file holder,7.0,competing,paired,s_sh_21_1.jpg,Student,,,sub-19
Desktop or Laptop,Windows 10,Firefox 140.0,2560x1440,2560x1315,Temporal Distance Task,cb_07,13.0,temp_dist_trial,dist_items,qkpkxw,2.0,continue,,2322.300000000003,2318.5,2322.300000000003,2322.300000000003,2318.5,2322.300000000003,1.0,0.0,0.0,,Click To Continue,Next button,7.0,object-60,temp_dist_trial,13.0,s_sh_21_1,student_shared,file holder,7.0,competing,paired,s_sh_21_1.jpg,Student,,,sub-19
Desktop or Laptop,Windows 10,Firefox 140.0,2560x1440,2560x1315,Temporal Distance Task,cb_07,13.0,temp_dist_trial,dist_items,qkpkxw,2.0,response,44,1118.5,2318.5,2323.300000000003,1118.5,2318.5,2323.300000000003,1.0,1204.8000000000031,0.0,,Slider,Slider,4.0,object-56,temp_dist_trial,13.0,s_sh_21_1,student_shared,file holder,7.0,competing,paired,s_sh_21_1.jpg,Student,,,sub-19
Desktop or Laptop,Windows 10,Firefox 140.0,2560x1440,2560x1315,Temporal Distance Task,cb_07,14.0,temp_dist_trial,num_items,zn7si1,1.0,response,2_ITEM,1005.8000000000028,1000.0,1005.8000000000028,1005.8000000000028,1000.0,1005.8000000000028,1.0,0.0,0.0,,Click Response,2_count,5.0,object-49,temp_dist_trial,14.0,s_sh_11_1,student_shared,pencil case,7.0,competing,paired,s_sh_11_1.jpg,Student,,,sub-19
Desktop or Laptop,Windows 10,Firefox 140.0,2560x1440,2560x1315,Temporal Distance Task,cb_07,14.0,temp_dist_trial,dist_items,qkpkxw,2.0,info,,7.919999999998254,0.0,7.919999999998254,7.919999999998254,0.0,7.919999999998254,1.0,0.0,0.0,,Slider,Slider,4.0,object-56,temp_dist_trial,14.0,s_sh_11_1,student_shared,pencil case,7.0,competing,paired,s_sh_11_1.jpg,Student,,,sub-19
Desktop or Laptop,Windows 10,Firefox 140.0,2560x1440,2560x1315,Temporal Distance Task,cb_07,14.0,temp_dist_trial,dist_items,qkpkxw,2.0,continue,,2611.9199999999983,2601.8800000000047,2611.9199999999983,2611.9199999999983,2601.8800000000047,2611.9199999999983,1.0,0.0,0.0,,Click To Continue,Next button,7.0,object-60,temp_dist_trial,14.0,s_sh_11_1,student_shared,pencil case,7.0,competing,paired,s_sh_11_1.jpg,Student,,,sub-19
Desktop or Laptop,Windows 10,Firefox 140.0,2560x1440,2560x1315,Temporal Distance Task,cb_07,14.0,temp_dist_trial,dist_items,qkpkxw,2.0,response,20,816.6600000000035,2601.8800000000047,2612.9199999999983,816.6600000000035,2601.8800000000047,2612.9199999999983,1.0,1796.2599999999948,0.0,,Slider,Slider,4.0,object-56,temp_dist_trial,14.0,s_sh_11_1,student_shared,pencil case,7.0,competing,paired,s_sh_11_1.jpg,Student,,,sub-19
Desktop or Laptop,Windows 10,Firefox 140.0,2560x1440,2560x1315,Temporal Distance Task,cb_07,15.0,temp_dist_trial,num_items,zn7si1,1.0,response,1_ITEM,2118.5599999999977,2101.8999999999937,2118.5599999999977,2118.5599999999977,2101.8999999999937,2118.5599999999977,1.0,0.0,0.0,,Click Response,1_count,3.0,object-46,temp_dist_trial,15.0,s_sh_05_1,student_shared,laptop,7.0,competing,paired,s_sh_05_1.jpg,Student,,,sub-19
Desktop or Laptop,Windows 10,Firefox 140.0,2560x1440,2560x1315,Temporal Distance Task,cb_07,16.0,temp_dist_trial,num_items,zn7si1,1.0,response,2_ITEM,1380.1399999999994,1366.679999999993,1380.1399999999994,1380.1399999999994,1366.679999999993,1380.1399999999994,1.0,0.0,0.0,,Click Response,2_count,5.0,object-49,temp_dist_trial,16.0,s_sh_06_1,student_shared,clipboard,7.0,competing,paired,s_sh_06_1.jpg,Student,,,sub-19
Desktop or Laptop,Windows 10,Firefox 140.0,2560x1440,2560x1315,Temporal Distance Task,cb_07,16.0,temp_dist_trial,dist_items,qkpkxw,2.0,info,,14.619999999995349,0.0,14.619999999995349,14.619999999995349,0.0,14.619999999995349,1.0,0.0,0.0,,Slider,Slider,4.0,object-56,temp_dist_trial,16.0,s_sh_06_1,student_shared,clipboard,7.0,competing,paired,s_sh_06_1.jpg,Student,,,sub-19
Desktop or Laptop,Windows 10,Firefox 140.0,2560x1440,2560x1315,Temporal Distance Task,cb_07,16.0,temp_dist_trial,dist_items,qkpkxw,2.0,continue,,3313.619999999996,3301.9400000000023,3313.619999999996,3313.619999999996,3301.9400000000023,3313.619999999996,1.0,0.0,0.0,,Click To Continue,Next button,7.0,object-60,temp_dist_trial,16.0,s_sh_06_1,student_shared,clipboard,7.0,competing,paired,s_sh_06_1.jpg,Student,,,sub-19
Desktop or Laptop,Windows 10,Firefox 140.0,2560x1440,2560x1315,Temporal Distance Task,cb_07,16.0,temp_dist_trial,dist_items,qkpkxw,2.0,response,64,966.6599999999887,3301.9400000000023,3313.619999999996,966.6599999999887,3301.9400000000023,3313.619999999996,1.0,2346.9600000000064,0.0,,Slider,Slider,4.0,object-56,temp_dist_trial,16.0,s_sh_06_1,student_shared,clipboard,7.0,competing,paired,s_sh_06_1.jpg,Student,,,sub-19
Desktop or Laptop,Windows 10,Firefox 140.0,2560x1440,2560x1315,Temporal Distance Task,cb_07,17.0,temp_dist_trial,num_items,zn7si1,1.0,response,num_miss,3001.859999999986,3001.859999999986,3001.859999999986,3001.859999999986,3001.859999999986,3001.859999999986,1.0,0.0,0.0,num_miss_tag,Time Limit,screen,0.0,screen,temp_dist_trial,17.0,s_s_10_1,student_stem,3d molecule,7.0,unique,paired,s_s_10_1.jpg,Student,,,sub-19
Desktop or Laptop,Windows 10,Firefox 140.0,2560x1440,2560x1315,Temporal Distance Task,cb_07,18.0,temp_dist_trial,num_items,zn7si1,1.0,response,2_ITEM,196.47999999999595,185.2200000000012,196.47999999999595,196.47999999999595,185.2200000000012,196.47999999999595,1.0,0.0,0.0,,Click Response,2_count,5.0,object-49,temp_dist_trial,18.0,s_a_12_1,student_art,saxophone,7.0,unique,paired,s_a_12_1.jpg,Student,,,sub-19
Desktop or Laptop,Windows 10,Firefox 140.0,2560x1440,2560x1315,Temporal Distance Task,cb_07,18.0,temp_dist_trial,dist_items,qkpkxw,2.0,info,,15.25999999999476,0.0,15.25999999999476,15.25999999999476,0.0,15.25999999999476,1.0,0.0,0.0,,Slider,Slider,4.0,object-56,temp_dist_trial,18.0,s_a_12_1,student_art,saxophone,7.0,unique,paired,s_a_12_1.jpg,Student,,,sub-19
Desktop or Laptop,Windows 10,Firefox 140.0,2560x1440,2560x1315,Temporal Distance Task,cb_07,18.0,temp_dist_trial,dist_items,qkpkxw,2.0,continue,,3299.259999999995,3285.119999999996,3299.259999999995,3299.259999999995,3285.119999999996,3299.259999999995,1.0,0.0,0.0,,Click To Continue,Next button,7.0,object-60,temp_dist_trial,18.0,s_a_12_1,student_art,saxophone,7.0,unique,paired,s_a_12_1.jpg,Student,,,sub-19
Desktop or Laptop,Windows 10,Firefox 140.0,2560x1440,2560x1315,Temporal Distance Task,cb_07,18.0,temp_dist_trial,dist_items,qkpkxw,2.0,response,24,1951.7799999999988,3285.119999999996,3301.800000000003,1951.7799999999988,3285.119999999996,3301.800000000003,1.0,1350.020000000004,0.0,,Slider,Slider,4.0,object-56,temp_dist_trial,18.0,s_a_12_1,student_art,saxophone,7.0,unique,paired,s_a_12_1.jpg,Student,,,sub-19
Desktop or Laptop,Windows 10,Firefox 140.0,2560x1440,2560x1315,Temporal Distance Task,cb_07,19.0,temp_dist_trial,num_items,zn7si1,1.0,response,2_ITEM,1632.1399999999994,1618.5599999999977,1632.1399999999994,1632.1399999999994,1618.5599999999977,1632.1399999999994,1.0,0.0,0.0,,Click Response,2_count,5.0,object-49,temp_dist_trial,19.0,s_s_15_1,student_stem,jumper cables,7.0,unique,paired,s_s_15_1.jpg,Student,,,sub-19
Desktop or Laptop,Windows 10,Firefox 140.0,2560x1440,2560x1315,Temporal Distance Task,cb_07,19.0,temp_dist_trial,dist_items,qkpkxw,2.0,info,,15.580000000001744,0.0,15.580000000001744,15.580000000001744,0.0,15.580000000001744,1.0,0.0,0.0,,Slider,Slider,4.0,object-56,temp_dist_trial,19.0,s_s_15_1,student_stem,jumper cables,7.0,unique,paired,s_s_15_1.jpg,Student,,,sub-19
Desktop or Laptop,Windows 10,Firefox 140.0,2560x1440,2560x1315,Temporal Distance Task,cb_07,19.0,temp_dist_trial,dist_items,qkpkxw,2.0,continue,,2487.5800000000017,2485.199999999997,2487.5800000000017,2487.5800000000017,2485.199999999997,2487.5800000000017,1.0,0.0,0.0,,Click To Continue,Next button,7.0,object-60,temp_dist_trial,19.0,s_s_15_1,student_stem,jumper cables,7.0,unique,paired,s_s_15_1.jpg,Student,,,sub-19
Desktop or Laptop,Windows 10,Firefox 140.0,2560x1440,2560x1315,Temporal Distance Task,cb_07,19.0,temp_dist_trial,dist_items,qkpkxw,2.0,response,13,1251.8800000000047,2485.199999999997,2487.5800000000017,1251.8800000000047,2485.199999999997,2487.5800000000017,1.0,1235.6999999999969,0.0,,Slider,Slider,4.0,object-56,temp_dist_trial,19.0,s_s_15_1,student_stem,jumper cables,7.0,unique,paired,s_s_15_1.jpg,Student,,,sub-19
Desktop or Laptop,Windows 10,Firefox 140.0,2560x1440,2560x1315,Temporal Distance Task,cb_07,20.0,temp_dist_trial,num_items,zn7si1,1.0,response,2_ITEM,2235.200000000012,2218.540000000008,2235.200000000012,2235.200000000012,2218.540000000008,2235.200000000012,1.0,0.0,0.0,,Click Response,2_count,5.0,object-49,temp_dist_trial,20.0,s_s_11_1,student_stem,scientific scale,7.0,unique,paired,s_s_11_1.jpg,Student,,,sub-19
Desktop or Laptop,Windows 10,Firefox 140.0,2560x1440,2560x1315,Temporal Distance Task,cb_07,20.0,temp_dist_trial,dist_items,qkpkxw,2.0,info,,9.839999999996508,0.0,9.839999999996508,9.839999999996508,0.0,9.839999999996508,1.0,0.0,0.0,,Slider,Slider,4.0,object-56,temp_dist_trial,20.0,s_s_11_1,student_stem,scientific scale,7.0,unique,paired,s_s_11_1.jpg,Student,,,sub-19
Desktop or Laptop,Windows 10,Firefox 140.0,2560x1440,2560x1315,Temporal Distance Task,cb_07,20.0,temp_dist_trial,dist_items,qkpkxw,2.0,continue,,2399.8399999999965,2385.239999999991,2399.8399999999965,2399.8399999999965,2385.239999999991,2399.8399999999965,1.0,0.0,0.0,,Click To Continue,Next button,7.0,object-60,temp_dist_trial,20.0,s_s_11_1,student_stem,scientific scale,7.0,unique,paired,s_s_11_1.jpg,Student,,,sub-19
Desktop or Laptop,Windows 10,Firefox 140.0,2560x1440,2560x1315,Temporal Distance Task,cb_07,20.0,temp_dist_trial,dist_items,qkpkxw,2.0,response,25,1118.5599999999977,2385.239999999991,2400.8399999999965,1118.5599999999977,2385.239999999991,2400.8399999999965,1.0,1282.2799999999988,0.0,,Slider,Slider,4.0,object-56,temp_dist_trial,20.0,s_s_11_1,student_stem,scientific scale,7.0,unique,paired,s_s_11_1.jpg,Student,,,sub-19
Desktop or Laptop,Windows 10,Firefox 140.0,2560x1440,2560x1315,Temporal Distance Task,cb_07,21.0,temp_dist_trial,num_items,zn7si1,1.0,response,1_ITEM,1306.6000000000058,1301.8600000000004,1306.6000000000058,1306.6000000000058,1301.8600000000004,1306.6000000000058,1.0,0.0,0.0,,Click Response,1_count,3.0,object-46,temp_dist_trial,21.0,s_s_17_1,student_stem,ring stand,7.0,unique,single,s_s_17_1.jpg,Student,,,sub-19
Desktop or Laptop,Windows 10,Firefox 140.0,2560x1440,2560x1315,Temporal Distance Task,cb_07,22.0,temp_dist_trial,num_items,zn7si1,1.0,response,1_ITEM,2922.740000000005,2918.6200000000104,2922.740000000005,2922.740000000005,2918.6200000000104,2922.740000000005,1.0,0.0,0.0,,Click Response,1_count,3.0,object-46,temp_dist_trial,22.0,s_sh_17_1,student_shared,wireless mouse,7.0,competing,single,s_sh_17_1.jpg,Student,,,sub-19
Desktop or Laptop,Windows 10,Firefox 140.0,2560x1440,2560x1315,Temporal Distance Task,cb_07,23.0,temp_dist_trial,num_items,zn7si1,1.0,response,1_ITEM,1464.1000000000058,1451.9600000000064,1464.1000000000058,1464.1000000000058,1451.9600000000064,1464.1000000000058,1.0,0.0,0.0,,Click Response,1_count,3.0,object-46,temp_dist_trial,23.0,s_sh_20_1,student_shared,tape,7.0,competing,single,s_sh_20_1.jpg,Student,,,sub-19
Desktop or Laptop,Windows 10,Firefox 140.0,2560x1440,2560x1315,Temporal Distance Task,cb_07,24.0,temp_dist_trial,num_items,zn7si1,1.0,response,1_ITEM,1561.1399999999994,1551.9199999999985,1561.1399999999994,1561.1399999999994,1551.9199999999985,1561.1399999999994,1.0,0.0,0.0,,Click Response,1_count,3.0,object-46,temp_dist_trial,24.0,s_sh_12_1,student_shared,binder,7.0,competing,paired,s_sh_12_1.jpg,Student,,,sub-19
Desktop or Laptop,Windows 10,Firefox 140.0,2560x1440,2560x1315,Temporal Distance Task,cb_07,25.0,temp_dist_trial,num_items,zn7si1,1.0,response,1_ITEM,1049.2200000000012,1033.320000000007,1049.2200000000012,1049.2200000000012,1033.320000000007,1049.2200000000012,1.0,0.0,0.0,,Click Response,1_count,3.0,object-46,temp_dist_trial,25.0,s_s_03_1,student_stem,petri dish,7.0,unique,single,s_s_03_1.jpg,Student,,,sub-19
Desktop or Laptop,Windows 10,Firefox 140.0,2560x1440,2560x1315,Temporal Distance Task,cb_07,26.0,temp_dist_trial,num_items,zn7si1,1.0,response,2_ITEM,1031.8999999999942,1018.679999999993,1031.8999999999942,1031.8999999999942,1018.679999999993,1031.8999999999942,1.0,0.0,0.0,,Click Response,2_count,5.0,object-49,temp_dist_trial,26.0,s_sh_01_1,student_shared,notebook,7.0,competing,single,s_sh_01_1.jpg,Student,,,sub-19
Desktop or Laptop,Windows 10,Firefox 140.0,2560x1440,2560x1315,Temporal Distance Task,cb_07,26.0,temp_dist_trial,dist_items,qkpkxw,2.0,info,,15.220000000001164,0.0,15.220000000001164,15.220000000001164,0.0,15.220000000001164,1.0,0.0,0.0,,Slider,Slider,4.0,object-56,temp_dist_trial,26.0,s_sh_01_1,student_shared,notebook,7.0,competing,single,s_sh_01_1.jpg,Student,,,sub-19
Desktop or Laptop,Windows 10,Firefox 140.0,2560x1440,2560x1315,Temporal Distance Task,cb_07,26.0,temp_dist_trial,dist_items,qkpkxw,2.0,continue,,2305.2200000000007,2301.8800000000047,2305.2200000000007,2305.2200000000007,2301.8800000000047,2305.2200000000007,1.0,0.0,0.0,,Click To Continue,Next button,7.0,object-60,temp_dist_trial,26.0,s_sh_01_1,student_shared,notebook,7.0,competing,single,s_sh_01_1.jpg,Student,,,sub-19
Desktop or Laptop,Windows 10,Firefox 140.0,2560x1440,2560x1315,Temporal Distance Task,cb_07,26.0,temp_dist_trial,dist_items,qkpkxw,2.0,response,76,1066.6600000000037,2301.8800000000047,2308.2200000000007,1066.6600000000037,2301.8800000000047,2308.2200000000007,1.0,1241.5599999999977,0.0,,Slider,Slider,4.0,object-56,temp_dist_trial,26.0,s_sh_01_1,student_shared,notebook,7.0,competing,single,s_sh_01_1.jpg,Student,,,sub-19
Desktop or Laptop,Windows 10,Firefox 140.0,2560x1440,2560x1315,Temporal Distance Task,cb_07,27.0,temp_dist_trial,num_items,zn7si1,1.0,response,1_ITEM,1021.3399999999964,1016.6600000000036,1021.3399999999964,1021.3399999999964,1016.6600000000036,1021.3399999999964,1.0,0.0,0.0,,Click Response,1_count,3.0,object-46,temp_dist_trial,27.0,s_sh_18_1,student_shared,wall calendar,7.0,competing,single,s_sh_18_1.jpg,Student,,,sub-19
Desktop or Laptop,Windows 10,Firefox 140.0,2560x1440,2560x1315,Temporal Distance Task,cb_07,28.0,temp_dist_trial,num_items,zn7si1,1.0,response,2_ITEM,1858.679999999993,1851.9400000000023,1858.679999999993,1858.679999999993,1851.9400000000023,1858.679999999993,1.0,0.0,0.0,,Click Response,2_count,5.0,object-49,temp_dist_trial,28.0,s_sh_10_1,student_shared,scissors,7.0,competing,paired,s_sh_10_1.jpg,Student,,,sub-19
Desktop or Laptop,Windows 10,Firefox 140.0,2560x1440,2560x1315,Temporal Distance Task,cb_07,28.0,temp_dist_trial,dist_items,qkpkxw,2.0,info,,14.739999999990687,0.0,14.739999999990687,14.739999999990687,0.0,14.739999999990687,1.0,0.0,0.0,,Slider,Slider,4.0,object-56,temp_dist_trial,28.0,s_sh_10_1,student_shared,scissors,7.0,competing,paired,s_sh_10_1.jpg,Student,,,sub-19
Desktop or Laptop,Windows 10,Firefox 140.0,2560x1440,2560x1315,Temporal Distance Task,cb_07,28.0,temp_dist_trial,dist_items,qkpkxw,2.0,continue,,4735.739999999991,4720.5199999999895,4735.739999999991,4735.739999999991,4720.5199999999895,4735.739999999991,1.0,0.0,0.0,,Click To Continue,Next button,7.0,object-60,temp_dist_trial,28.0,s_sh_10_1,student_shared,scissors,7.0,competing,paired,s_sh_10_1.jpg,Student,,,sub-19
Desktop or Laptop,Windows 10,Firefox 140.0,2560x1440,2560x1315,Temporal Distance Task,cb_07,28.0,temp_dist_trial,dist_items,qkpkxw,2.0,response,67,1768.5999999999767,4720.5199999999895,4737.1999999999825,1768.5999999999767,4720.5199999999895,4737.1999999999825,1.0,2968.6000000000067,0.0,,Slider,Slider,4.0,object-56,temp_dist_trial,28.0,s_sh_10_1,student_shared,scissors,7.0,competing,paired,s_sh_10_1.jpg,Student,,,sub-19
Desktop or Laptop,Windows 10,Firefox 140.0,2560x1440,2560x1315,Temporal Distance Task,cb_07,29.0,temp_dist_trial,num_items,zn7si1,1.0,response,2_ITEM,1238.2200000000012,1235.2799999999988,1238.2200000000012,1238.2200000000012,1235.2799999999988,1238.2200000000012,1.0,0.0,0.0,,Click Response,2_count,5.0,object-49,temp_dist_trial,29.0,s_sh_23_1,student_shared,ballpoint pen,7.0,competing,paired,s_sh_23_1.jpg,Student,,,sub-19
Desktop or Laptop,Windows 10,Firefox 140.0,2560x1440,2560x1315,Temporal Distance Task,cb_07,29.0,temp_dist_trial,dist_items,qkpkxw,2.0,info,,11.940000000002327,0.0,11.940000000002327,11.940000000002327,0.0,11.940000000002327,1.0,0.0,0.0,,Slider,Slider,4.0,object-56,temp_dist_trial,29.0,s_sh_23_1,student_shared,ballpoint pen,7.0,competing,paired,s_sh_23_1.jpg,Student,,,sub-19
Desktop or Laptop,Windows 10,Firefox 140.0,2560x1440,2560x1315,Temporal Distance Task,cb_07,29.0,temp_dist_trial,dist_items,qkpkxw,2.0,continue,,2650.9400000000023,2635.200000000012,2650.9400000000023,2650.9400000000023,2635.200000000012,2650.9400000000023,1.0,0.0,0.0,,Click To Continue,Next button,7.0,object-60,temp_dist_trial,29.0,s_sh_23_1,student_shared,ballpoint pen,7.0,competing,paired,s_sh_23_1.jpg,Student,,,sub-19
Desktop or Laptop,Windows 10,Firefox 140.0,2560x1440,2560x1315,Temporal Distance Task,cb_07,29.0,temp_dist_trial,dist_items,qkpkxw,2.0,response,29,1501.8600000000156,2635.200000000012,2651.8800000000338,1501.8600000000156,2635.200000000012,2651.8800000000338,1.0,1150.0200000000184,0.0,,Slider,Slider,4.0,object-56,temp_dist_trial,29.0,s_sh_23_1,student_shared,ballpoint pen,7.0,competing,paired,s_sh_23_1.jpg,Student,,,sub-19
Desktop or Laptop,Windows 10,Firefox 140.0,2560x1440,2560x1315,Temporal Distance Task,cb_07,30.0,temp_dist_trial,num_items,zn7si1,1.0,response,1_ITEM,954.7399999999907,951.8599999999859,954.7399999999907,954.7399999999907,951.8599999999859,954.7399999999907,1.0,0.0,0.0,,Click Response,1_count,3.0,object-46,temp_dist_trial,30.0,s_a_06_1,student_art,pastels,7.0,unique,paired,s_a_06_1.jpg,Student,,,sub-19
Desktop or Laptop,Windows 10,Firefox 140.0,2560x1440,2560x1315,Temporal Distance Task,cb_07,31.0,temp_dist_trial,num_items,zn7si1,1.0,response,1_ITEM,1236.8800000000047,1233.320000000007,1236.8800000000047,1236.8800000000047,1233.320000000007,1236.8800000000047,1.0,0.0,0.0,,Click Response,1_count,3.0,object-46,temp_dist_trial,31.0,s_sh_14_1,student_shared,printer,7.0,competing,paired,s_sh_14_1.jpg,Student,,,sub-19
Desktop or Laptop,Windows 10,Firefox 140.0,2560x1440,2560x1315,Temporal Distance Task,cb_07,32.0,temp_dist_trial,num_items,zn7si1,1.0,response,1_ITEM,1296.5599999999977,1285.320000000007,1296.5599999999977,1296.5599999999977,1285.320000000007,1296.5599999999977,1.0,0.0,0.0,,Click Response,1_count,3.0,object-46,temp_dist_trial,32.0,s_sh_03_1,student_shared,highlighter,7.0,competing,paired,s_sh_03_1.jpg,Student,,,sub-19
Desktop or Laptop,Windows 10,Firefox 140.0,2560x1440,2560x1315,Temporal Distance Task,cb_07,33.0,temp_dist_trial,num_items,zn7si1,1.0,response,1_ITEM,1147.2399999999907,1135.2799999999988,1147.2399999999907,1147.2399999999907,1135.2799999999988,1147.2399999999907,1.0,0.0,0.0,,Click Response,1_count,3.0,object-46,temp_dist_trial,33.0,s_a_08_1,student_art,sewing machine,7.0,unique,single,s_a_08_1.jpg,Student,,,sub-19
Desktop or Laptop,Windows 10,Firefox 140.0,2560x1440,2560x1315,Temporal Distance Task,cb_07,34.0,temp_dist_trial,num_items,zn7si1,1.0,response,1_ITEM,853.9599999999921,850.0,853.9599999999921,853.9599999999921,850.0,853.9599999999921,1.0,0.0,0.0,,Click Response,1_count,3.0,object-46,temp_dist_trial,34.0,s_sh_24_1,student_shared,desk organizer,7.0,competing,paired,s_sh_24_1.jpg,Student,,,sub-19
Desktop or Laptop,Windows 10,Firefox 140.0,2560x1440,2560x1315,Temporal Distance Task,cb_07,35.0,temp_dist_trial,num_items,zn7si1,1.0,response,2_ITEM,1228.959999999992,1218.6000000000058,1228.959999999992,1228.959999999992,1218.6000000000058,1228.959999999992,1.0,0.0,0.0,,Click Response,2_count,5.0,object-49,temp_dist_trial,35.0,s_s_08_1,student_stem,soldering iron,7.0,unique,paired,s_s_08_1.jpg,Student,,,sub-19
Desktop or Laptop,Windows 10,Firefox 140.0,2560x1440,2560x1315,Temporal Distance Task,cb_07,35.0,temp_dist_trial,dist_items,qkpkxw,2.0,info,,15.359999999986027,0.0,15.359999999986027,15.359999999986027,0.0,15.359999999986027,1.0,0.0,0.0,,Slider,Slider,4.0,object-56,temp_dist_trial,35.0,s_s_08_1,student_stem,soldering iron,7.0,unique,paired,s_s_08_1.jpg,Student,,,sub-19
Desktop or Laptop,Windows 10,Firefox 140.0,2560x1440,2560x1315,Temporal Distance Task,cb_07,35.0,temp_dist_trial,dist_items,qkpkxw,2.0,continue,,2045.359999999986,2035.2999999999884,2045.359999999986,2045.359999999986,2035.2999999999884,2045.359999999986,1.0,0.0,0.0,,Click To Continue,Next button,7.0,object-60,temp_dist_trial,35.0,s_s_08_1,student_stem,soldering iron,7.0,unique,paired,s_s_08_1.jpg,Student,,,sub-19
Desktop or Laptop,Windows 10,Firefox 140.0,2560x1440,2560x1315,Temporal Distance Task,cb_07,35.0,temp_dist_trial,dist_items,qkpkxw,2.0,response,56,1166.6599999999746,2035.2999999999884,2047.359999999986,1166.6599999999746,2035.2999999999884,2047.359999999986,1.0,880.7000000000116,0.0,,Slider,Slider,4.0,object-56,temp_dist_trial,35.0,s_s_08_1,student_stem,soldering iron,7.0,unique,paired,s_s_08_1.jpg,Student,,,sub-19
Desktop or Laptop,Windows 10,Firefox 140.0,2560x1440,2560x1315,Temporal Distance Task,cb_07,36.0,temp_dist_trial,num_items,zn7si1,1.0,response,1_ITEM,1088.0599999999977,1083.3399999999963,1088.0599999999977,1088.0599999999977,1083.3399999999963,1088.0599999999977,1.0,0.0,0.0,,Click Response,1_count,3.0,object-46,temp_dist_trial,36.0,s_a_03_1,student_art,palette,7.0,unique,single,s_a_03_1.jpg,Student,,,sub-19
Desktop or Laptop,Windows 10,Firefox 140.0,2560x1440,2560x1315,Temporal Distance Task,cb_07,37.0,temp_dist_trial,num_items,zn7si1,1.0,response,1_ITEM,2568.7200000000007,2552.0599999999977,2568.7200000000007,2568.7200000000007,2552.0599999999977,2568.7200000000007,1.0,0.0,0.0,,Click Response,1_count,3.0,object-46,temp_dist_trial,37.0,s_s_20_1,student_stem,dna model,7.0,unique,paired,s_s_20_1.jpg,Student,,,sub-19
Desktop or Laptop,Windows 10,Firefox 140.0,2560x1440,2560x1315,Temporal Distance Task,cb_07,38.0,temp_dist_trial,num_items,zn7si1,1.0,response,1_ITEM,1083.6600000000037,1068.679999999993,1083.6600000000037,1083.6600000000037,1068.679999999993,1083.6600000000037,1.0,0.0,0.0,,Click Response,1_count,3.0,object-46,temp_dist_trial,38.0,s_sh_22_1,student_shared,hole puncher,7.0,competing,single,s_sh_22_1.jpg,Student,,,sub-19
Desktop or Laptop,Windows 10,Firefox 140.0,2560x1440,2560x1315,Temporal Distance Task,cb_07,39.0,temp_dist_trial,num_items,zn7si1,1.0,response,num_miss,3002.0,3002.0,3002.0,3002.0,3002.0,3002.0,1.0,0.0,0.0,num_miss_tag,Time Limit,screen,0.0,screen,temp_dist_trial,39.0,s_sh_19_1,student_shared,portable plastic drawer,7.0,competing,paired,s_sh_19_1.jpg,Student,,,sub-19
Desktop or Laptop,Windows 10,Firefox 140.0,2560x1440,2560x1315,Temporal Distance Task,cb_07,40.0,temp_dist_trial,num_items,zn7si1,1.0,response,1_ITEM,88.64000000001396,83.32000000000698,88.64000000001396,88.64000000001396,83.32000000000698,88.64000000001396,1.0,0.0,0.0,,Click Response,1_count,3.0,object-46,temp_dist_trial,40.0,s_sh_08_1,student_shared,post-its,7.0,competing,single,s_sh_08_1.jpg,Student,,,sub-19
Desktop or Laptop,Windows 10,Firefox 140.0,2560x1440,2560x1315,Temporal Distance Task,cb_07,41.0,temp_dist_trial,num_items,zn7si1,1.0,response,1_ITEM,1914.320000000007,1902.0200000000186,1914.320000000007,1914.320000000007,1902.0200000000186,1914.320000000007,1.0,0.0,0.0,,Click Response,1_count,3.0,object-46,temp_dist_trial,41.0,s_a_15_1,student_art,drum kit,7.0,unique,paired,s_a_15_1.jpg,Student,,,sub-19
Desktop or Laptop,Windows 10,Firefox 140.0,2560x1440,2560x1315,Temporal Distance Task,cb_07,42.0,temp_dist_trial,num_items,zn7si1,1.0,response,1_ITEM,1041.2999999999884,1035.3399999999963,1041.2999999999884,1041.2999999999884,1035.3399999999963,1041.2999999999884,1.0,0.0,0.0,,Click Response,1_count,3.0,object-46,temp_dist_trial,42.0,s_s_06_1,student_stem,calculator,7.0,unique,paired,s_s_06_1.jpg,Student,,,sub-19
Desktop or Laptop,Windows 10,Firefox 140.0,2560x1440,2560x1315,Temporal Distance Task,cb_07,43.0,temp_dist_trial,num_items,zn7si1,1.0,response,1_ITEM,850.0,833.3399999999965,850.0,850.0,833.3399999999965,850.0,1.0,0.0,0.0,,Click Response,1_count,3.0,object-46,temp_dist_trial,43.0,s_s_13_1,student_stem,telescope,7.0,unique,single,s_s_13_1.jpg,Student,,,sub-19
Desktop or Laptop,Windows 10,Firefox 140.0,2560x1440,2560x1315,Temporal Distance Task,cb_07,44.0,temp_dist_trial,num_items,zn7si1,1.0,response,1_ITEM,860.6199999999952,851.9799999999814,860.6199999999952,860.6199999999952,851.9799999999814,860.6199999999952,1.0,0.0,0.0,,Click Response,1_count,3.0,object-46,temp_dist_trial,44.0,s_a_13_1,student_art,violin,7.0,unique,single,s_a_13_1.jpg,Student,,,sub-19
Desktop or Laptop,Windows 10,Firefox 140.0,2560x1440,2560x1315,Temporal Distance Task,cb_07,45.0,temp_dist_trial,num_items,zn7si1,1.0,response,2_ITEM,1048.640000000014,1033.3400000000256,1048.640000000014,1048.640000000014,1033.3400000000256,1048.640000000014,1.0,0.0,0.0,,Click Response,2_count,5.0,object-49,temp_dist_trial,45.0,s_sh_15_1,student_shared,usb drive,7.0,competing,paired,s_sh_15_1.jpg,Student,,,sub-19
Desktop or Laptop,Windows 10,Firefox 140.0,2560x1440,2560x1315,Temporal Distance Task,cb_07,45.0,temp_dist_trial,dist_items,qkpkxw,2.0,info,,16.299999999988362,0.0,16.299999999988362,16.299999999988362,0.0,16.299999999988362,1.0,0.0,0.0,,Slider,Slider,4.0,object-56,temp_dist_trial,45.0,s_sh_15_1,student_shared,usb drive,7.0,competing,paired,s_sh_15_1.jpg,Student,,,sub-19
Desktop or Laptop,Windows 10,Firefox 140.0,2560x1440,2560x1315,Temporal Distance Task,cb_07,45.0,temp_dist_trial,dist_items,qkpkxw,2.0,continue,,2518.2999999999884,2501.919999999984,2518.2999999999884,2518.2999999999884,2501.919999999984,2518.2999999999884,1.0,0.0,0.0,,Click To Continue,Next button,7.0,object-60,temp_dist_trial,45.0,s_sh_15_1,student_shared,usb drive,7.0,competing,paired,s_sh_15_1.jpg,Student,,,sub-19
Desktop or Laptop,Windows 10,Firefox 140.0,2560x1440,2560x1315,Temporal Distance Task,cb_07,45.0,temp_dist_trial,dist_items,qkpkxw,2.0,response,83,1218.5799999999872,2501.919999999984,2518.5799999999867,1218.5799999999872,2501.919999999984,2518.5799999999867,1.0,1300.0,0.0,,Slider,Slider,4.0,object-56,temp_dist_trial,45.0,s_sh_15_1,student_shared,usb drive,7.0,competing,paired,s_sh_15_1.jpg,Student,,,sub-19
Desktop or Laptop,Windows 10,Firefox 140.0,2560x1440,2560x1315,Temporal Distance Task,cb_07,46.0,temp_dist_trial,num_items,zn7si1,1.0,response,1_ITEM,910.3800000000048,901.8999999999942,910.3800000000048,910.3800000000048,901.8999999999942,910.3800000000048,1.0,0.0,0.0,,Click Response,1_count,3.0,object-46,temp_dist_trial,46.0,s_s_14_1,student_stem,funnel,7.0,unique,single,s_s_14_1.jpg,Student,,,sub-19
Desktop or Laptop,Windows 10,Firefox 140.0,2560x1440,2560x1315,Temporal Distance Task,cb_07,47.0,temp_dist_trial,num_items,zn7si1,1.0,response,2_ITEM,1344.4800000000105,1333.320000000007,1344.4800000000105,1344.4800000000105,1333.320000000007,1344.4800000000105,1.0,0.0,0.0,,Click Response,2_count,5.0,object-49,temp_dist_trial,47.0,s_s_19_1,student_stem,circuit board,7.0,unique,paired,s_s_19_1.jpg,Student,,,sub-19
Desktop or Laptop,Windows 10,Firefox 140.0,2560x1440,2560x1315,Temporal Distance Task,cb_07,47.0,temp_dist_trial,dist_items,qkpkxw,2.0,info,,13.160000000003492,0.0,13.160000000003492,13.160000000003492,0.0,13.160000000003492,1.0,0.0,0.0,,Slider,Slider,4.0,object-56,temp_dist_trial,47.0,s_s_19_1,student_stem,circuit board,7.0,unique,paired,s_s_19_1.jpg,Student,,,sub-19
Desktop or Laptop,Windows 10,Firefox 140.0,2560x1440,2560x1315,Temporal Distance Task,cb_07,47.0,temp_dist_trial,dist_items,qkpkxw,2.0,continue,,1816.6199999999665,1799.959999999992,1816.6199999999665,1816.6199999999665,1799.959999999992,1816.6199999999665,1.0,0.0,0.0,,Click To Continue,Next button,7.0,object-60,temp_dist_trial,47.0,s_s_19_1,student_stem,circuit board,7.0,unique,paired,s_s_19_1.jpg,Student,,,sub-19
Desktop or Laptop,Windows 10,Firefox 140.0,2560x1440,2560x1315,Temporal Distance Task,cb_07,47.0,temp_dist_trial,dist_items,qkpkxw,2.0,response,35,883.3000000000177,1799.959999999992,1816.6199999999665,883.3000000000177,1799.959999999992,1816.6199999999665,1.0,933.3199999999488,0.0,,Slider,Slider,4.0,object-56,temp_dist_trial,47.0,s_s_19_1,student_stem,circuit board,7.0,unique,paired,s_s_19_1.jpg,Student,,,sub-19
Desktop or Laptop,Windows 10,Firefox 140.0,2560x1440,2560x1315,Temporal Distance Task,cb_07,48.0,temp_dist_trial,num_items,zn7si1,1.0,response,1_ITEM,1049.2000000000116,1035.180000000022,1049.2000000000116,1049.2000000000116,1035.180000000022,1049.2000000000116,1.0,0.0,0.0,,Click Response,1_count,3.0,object-46,temp_dist_trial,48.0,s_sh_09_1,student_shared,paper clips,7.0,competing,single,s_sh_09_1.jpg,Student,,,sub-19
Desktop or Laptop,Windows 10,Firefox 140.0,2560x1440,2560x1315,Temporal Distance Task,cb_07,2.0,temp_eventStart,Screen 1,dgtyxe,1.0,continue,,1513.0199999999895,1501.859999999986,1513.0199999999895,1513.0199999999895,1501.859999999986,1513.0199999999895,1.0,0.0,0.0,,Click To Continue,Next Button,3.0,object-43,temp_eventStart,,,Travel,,,,,,,,,sub-19
Desktop or Laptop,Windows 10,Firefox 140.0,2560x1440,2560x1315,Temporal Distance Task,cb_07,49.0,temp_dist_trial,num_items,zn7si1,1.0,response,2_ITEM,2872.1600000000035,2868.640000000014,2872.1600000000035,2872.1600000000035,2868.640000000014,2872.1600000000035,1.0,0.0,0.0,,Click Response,2_count,5.0,object-49,temp_dist_trial,1.0,t_i_04_1,travel_Iceland,portable camping stove,7.0,unique,paired,t_i_04_1.jpg,Travel,,,sub-19
Desktop or Laptop,Windows 10,Firefox 140.0,2560x1440,2560x1315,Temporal Distance Task,cb_07,49.0,temp_dist_trial,dist_items,qkpkxw,2.0,info,,15.519999999989526,0.0,15.519999999989526,15.519999999989526,0.0,15.519999999989526,1.0,0.0,0.0,,Slider,Slider,4.0,object-56,temp_dist_trial,1.0,t_i_04_1,travel_Iceland,portable camping stove,7.0,unique,paired,t_i_04_1.jpg,Travel,,,sub-19
Desktop or Laptop,Windows 10,Firefox 140.0,2560x1440,2560x1315,Temporal Distance Task,cb_07,49.0,temp_dist_trial,dist_items,qkpkxw,2.0,continue,,2279.519999999989,2268.599999999977,2279.519999999989,2279.519999999989,2268.599999999977,2279.519999999989,1.0,0.0,0.0,,Click To Continue,Next button,7.0,object-60,temp_dist_trial,1.0,t_i_04_1,travel_Iceland,portable camping stove,7.0,unique,paired,t_i_04_1.jpg,Travel,,,sub-19
Desktop or Laptop,Windows 10,Firefox 140.0,2560x1440,2560x1315,Temporal Distance Task,cb_07,49.0,temp_dist_trial,dist_items,qkpkxw,2.0,response,35,916.6600000000036,2268.599999999977,2280.519999999989,916.6600000000036,2268.599999999977,2280.519999999989,1.0,1363.859999999986,0.0,,Slider,Slider,4.0,object-56,temp_dist_trial,1.0,t_i_04_1,travel_Iceland,portable camping stove,7.0,unique,paired,t_i_04_1.jpg,Travel,,,sub-19
Desktop or Laptop,Windows 10,Firefox 140.0,2560x1440,2560x1315,Temporal Distance Task,cb_07,50.0,temp_dist_trial,num_items,zn7si1,1.0,response,1_ITEM,1581.9200000000128,1568.540000000008,1581.9200000000128,1581.9200000000128,1568.540000000008,1581.9200000000128,1.0,0.0,0.0,,Click Response,1_count,3.0,object-46,temp_dist_trial,2.0,t_i_17_1,travel_Iceland,binoculars,7.0,unique,single,t_i_17_1.jpg,Travel,,,sub-19
Desktop or Laptop,Windows 10,Firefox 140.0,2560x1440,2560x1315,Temporal Distance Task,cb_07,51.0,temp_dist_trial,num_items,zn7si1,1.0,response,1_ITEM,999.3800000000048,983.3399999999964,999.3800000000048,999.3800000000048,983.3399999999964,999.3800000000048,1.0,0.0,0.0,,Click Response,1_count,3.0,object-46,temp_dist_trial,3.0,t_m_04_1,travel_Miami,UV jacket,7.0,unique,single,t_m_04_1.jpg,Travel,,,sub-19
Desktop or Laptop,Windows 10,Firefox 140.0,2560x1440,2560x1315,Temporal Distance Task,cb_07,52.0,temp_dist_trial,num_items,zn7si1,1.0,response,1_ITEM,1192.040000000008,1185.3000000000175,1192.040000000008,1192.040000000008,1185.3000000000175,1192.040000000008,1.0,0.0,0.0,,Click Response,1_count,3.0,object-46,temp_dist_trial,4.0,t_m_20_1,travel_Miami,inflatable beachball,7.0,unique,single,t_m_20_1.jpg,Travel,,,sub-19
Desktop or Laptop,Windows 10,Firefox 140.0,2560x1440,2560x1315,Temporal Distance Task,cb_07,53.0,temp_dist_trial,num_items,zn7si1,1.0,response,1_ITEM,1060.7399999999907,1050.0,1060.7399999999907,1060.7399999999907,1050.0,1060.7399999999907,1.0,0.0,0.0,,Click Response,1_count,3.0,object-46,temp_dist_trial,5.0,t_s_24_1,travel_shared,ear plugs,7.0,competing,single,t_s_24_1.jpg,Travel,,,sub-19
Desktop or Laptop,Windows 10,Firefox 140.0,2560x1440,2560x1315,Temporal Distance Task,cb_07,54.0,temp_dist_trial,num_items,zn7si1,1.0,response,2_ITEM,1063.7399999999907,1051.9799999999814,1063.7399999999907,1063.7399999999907,1051.9799999999814,1063.7399999999907,1.0,0.0,0.0,,Click Response,2_count,5.0,object-49,temp_dist_trial,6.0,t_s_16_1,travel_shared,chapstick,7.0,competing,paired,t_s_16_1.jpg,Travel,,,sub-19
Desktop or Laptop,Windows 10,Firefox 140.0,2560x1440,2560x1315,Temporal Distance Task,cb_07,54.0,temp_dist_trial,dist_items,qkpkxw,2.0,info,,7.760000000009312,0.0,7.760000000009312,7.760000000009312,0.0,7.760000000009312,1.0,0.0,0.0,,Slider,Slider,4.0,object-56,temp_dist_trial,6.0,t_s_16_1,travel_shared,chapstick,7.0,competing,paired,t_s_16_1.jpg,Travel,,,sub-19
Desktop or Laptop,Windows 10,Firefox 140.0,2560x1440,2560x1315,Temporal Distance Task,cb_07,54.0,temp_dist_trial,dist_items,qkpkxw,2.0,continue,,3105.7600000000093,3101.8800000000047,3105.7600000000093,3105.7600000000093,3101.8800000000047,3105.7600000000093,1.0,0.0,0.0,,Click To Continue,Next button,7.0,object-60,temp_dist_trial,6.0,t_s_16_1,travel_shared,chapstick,7.0,competing,paired,t_s_16_1.jpg,Travel,,,sub-19
Desktop or Laptop,Windows 10,Firefox 140.0,2560x1440,2560x1315,Temporal Distance Task,cb_07,54.0,temp_dist_trial,dist_items,qkpkxw,2.0,response,76,966.6600000000036,3101.8800000000047,3105.7600000000093,966.6600000000036,3101.8800000000047,3105.7600000000093,1.0,2139.1000000000063,0.0,,Slider,Slider,4.0,object-56,temp_dist_trial,6.0,t_s_16_1,travel_shared,chapstick,7.0,competing,paired,t_s_16_1.jpg,Travel,,,sub-19
Desktop or Laptop,Windows 10,Firefox 140.0,2560x1440,2560x1315,Temporal Distance Task,cb_07,55.0,temp_dist_trial,num_items,zn7si1,1.0,response,1_ITEM,2321.8800000000047,2318.540000000008,2321.8800000000047,2321.8800000000047,2318.540000000008,2321.8800000000047,1.0,0.0,0.0,,Click Response,1_count,3.0,object-46,temp_dist_trial,7.0,t_s_23_1,travel_shared,ball cap,7.0,competing,single,t_s_23_1.jpg,Travel,,,sub-19
Desktop or Laptop,Windows 10,Firefox 140.0,2560x1440,2560x1315,Temporal Distance Task,cb_07,56.0,temp_dist_trial,num_items,zn7si1,1.0,response,2_ITEM,1264.3399999999965,1252.0,1264.3399999999965,1264.3399999999965,1252.0,1264.3399999999965,1.0,0.0,0.0,,Click Response,2_count,5.0,object-49,temp_dist_trial,8.0,t_i_11_1,travel_Iceland,headlamp,7.0,unique,paired,t_i_11_1.jpg,Travel,,,sub-19
Desktop or Laptop,Windows 10,Firefox 140.0,2560x1440,2560x1315,Temporal Distance Task,cb_07,56.0,temp_dist_trial,dist_items,qkpkxw,2.0,info,,14.339999999996508,0.0,14.339999999996508,14.339999999996508,0.0,14.339999999996508,1.0,0.0,0.0,,Slider,Slider,4.0,object-56,temp_dist_trial,8.0,t_i_11_1,travel_Iceland,headlamp,7.0,unique,paired,t_i_11_1.jpg,Travel,,,sub-19
Desktop or Laptop,Windows 10,Firefox 140.0,2560x1440,2560x1315,Temporal Distance Task,cb_07,56.0,temp_dist_trial,dist_items,qkpkxw,2.0,continue,,1915.3399999999967,1901.8800000000049,1915.3399999999967,1915.3399999999967,1901.8800000000049,1915.3399999999967,1.0,0.0,0.0,,Click To Continue,Next button,7.0,object-60,temp_dist_trial,8.0,t_i_11_1,travel_Iceland,headlamp,7.0,unique,paired,t_i_11_1.jpg,Travel,,,sub-19
Desktop or Laptop,Windows 10,Firefox 140.0,2560x1440,2560x1315,Temporal Distance Task,cb_07,56.0,temp_dist_trial,dist_items,qkpkxw,2.0,response,31,683.3399999999965,1901.8800000000049,1918.540000000008,683.3399999999965,1901.8800000000049,1918.540000000008,1.0,1235.2000000000114,0.0,,Slider,Slider,4.0,object-56,temp_dist_trial,8.0,t_i_11_1,travel_Iceland,headlamp,7.0,unique,paired,t_i_11_1.jpg,Travel,,,sub-19
Desktop or Laptop,Windows 10,Firefox 140.0,2560x1440,2560x1315,Temporal Distance Task,cb_07,57.0,temp_dist_trial,num_items,zn7si1,1.0,response,1_ITEM,1199.459999999992,1183.3399999999965,1199.459999999992,1199.459999999992,1183.3399999999965,1199.459999999992,1.0,0.0,0.0,,Click Response,1_count,3.0,object-46,temp_dist_trial,9.0,t_i_03_1,travel_Iceland,winter jacket,7.0,unique,single,t_i_03_1.jpg,Travel,,,sub-19
Desktop or Laptop,Windows 10,Firefox 140.0,2560x1440,2560x1315,Temporal Distance Task,cb_07,58.0,temp_dist_trial,num_items,zn7si1,1.0,response,2_ITEM,1157.3399999999965,1150.0,1157.3399999999965,1157.3399999999965,1150.0,1157.3399999999965,1.0,0.0,0.0,,Click Response,2_count,5.0,object-49,temp_dist_trial,10.0,t_i_12_1,travel_Iceland,tent,7.0,unique,paired,t_i_12_1.jpg,Travel,,,sub-19
Desktop or Laptop,Windows 10,Firefox 140.0,2560x1440,2560x1315,Temporal Distance Task,cb_07,58.0,temp_dist_trial,dist_items,qkpkxw,2.0,info,,10.339999999996508,0.0,10.339999999996508,10.339999999996508,0.0,10.339999999996508,1.0,0.0,0.0,,Slider,Slider,4.0,object-56,temp_dist_trial,10.0,t_i_12_1,travel_Iceland,tent,7.0,unique,paired,t_i_12_1.jpg,Travel,,,sub-19
Desktop or Laptop,Windows 10,Firefox 140.0,2560x1440,2560x1315,Temporal Distance Task,cb_07,58.0,temp_dist_trial,dist_items,qkpkxw,2.0,continue,,2190.3399999999965,2185.3399999999965,2190.3399999999965,2190.3399999999965,2185.3399999999965,2190.3399999999965,1.0,0.0,0.0,,Click To Continue,Next button,7.0,object-60,temp_dist_trial,10.0,t_i_12_1,travel_Iceland,tent,7.0,unique,paired,t_i_12_1.jpg,Travel,,,sub-19
Desktop or Laptop,Windows 10,Firefox 140.0,2560x1440,2560x1315,Temporal Distance Task,cb_07,58.0,temp_dist_trial,dist_items,qkpkxw,2.0,response,66,935.3399999999964,2185.3399999999965,2191.3399999999965,935.3399999999964,2185.3399999999965,2191.3399999999965,1.0,1256.0,0.0,,Slider,Slider,4.0,object-56,temp_dist_trial,10.0,t_i_12_1,travel_Iceland,tent,7.0,unique,paired,t_i_12_1.jpg,Travel,,,sub-19
Desktop or Laptop,Windows 10,Firefox 140.0,2560x1440,2560x1315,Temporal Distance Task,cb_07,59.0,temp_dist_trial,num_items,zn7si1,1.0,response,1_ITEM,1501.8399999999967,1485.179999999993,1501.8399999999967,1501.8399999999967,1485.179999999993,1501.8399999999967,1.0,0.0,0.0,,Click Response,1_count,3.0,object-46,temp_dist_trial,11.0,t_s_15_1,travel_shared,luggage tag,7.0,competing,single,t_s_15_1.jpg,Travel,,,sub-19
Desktop or Laptop,Windows 10,Firefox 140.0,2560x1440,2560x1315,Temporal Distance Task,cb_07,60.0,temp_dist_trial,num_items,zn7si1,1.0,response,1_ITEM,1166.6600000000035,1150.0,1166.6600000000035,1166.6600000000035,1150.0,1166.6600000000035,1.0,0.0,0.0,,Click Response,1_count,3.0,object-46,temp_dist_trial,12.0,t_m_05_1,travel_Miami,sunscreen,7.0,unique,paired,t_m_05_1.jpg,Travel,,,sub-19
Desktop or Laptop,Windows 10,Firefox 140.0,2560x1440,2560x1315,Temporal Distance Task,cb_07,61.0,temp_dist_trial,num_items,zn7si1,1.0,response,1_ITEM,897.7999999999884,883.2200000000012,897.7999999999884,897.7999999999884,883.2200000000012,897.7999999999884,1.0,0.0,0.0,,Click Response,1_count,3.0,object-46,temp_dist_trial,13.0,t_s_01_1,travel_shared,fanny pack,7.0,competing,single,t_s_01_1.jpg,Travel,,,sub-19
Desktop or Laptop,Windows 10,Firefox 140.0,2560x1440,2560x1315,Temporal Distance Task,cb_07,62.0,temp_dist_trial,num_items,zn7si1,1.0,response,1_ITEM,782.5799999999872,766.679999999993,782.5799999999872,782.5799999999872,766.679999999993,782.5799999999872,1.0,0.0,0.0,,Click Response,1_count,3.0,object-46,temp_dist_trial,14.0,t_m_09_1,travel_Miami,beach towel,7.0,unique,paired,t_m_09_1.jpg,Travel,,,sub-19
Desktop or Laptop,Windows 10,Firefox 140.0,2560x1440,2560x1315,Temporal Distance Task,cb_07,63.0,temp_dist_trial,num_items,zn7si1,1.0,response,1_ITEM,920.8999999999942,918.6600000000036,920.8999999999942,920.8999999999942,918.6600000000036,920.8999999999942,1.0,0.0,0.0,,Click Response,1_count,3.0,object-46,temp_dist_trial,15.0,t_m_07_1,travel_Miami,sunglasses,7.0,unique,paired,t_m_07_1.jpg,Travel,,,sub-19
Desktop or Laptop,Windows 10,Firefox 140.0,2560x1440,2560x1315,Temporal Distance Task,cb_07,64.0,temp_dist_trial,num_items,zn7si1,1.0,response,2_ITEM,1402.0199999999895,1385.3399999999967,1402.0199999999895,1402.0199999999895,1385.3399999999967,1402.0199999999895,1.0,0.0,0.0,,Click Response,2_count,5.0,object-49,temp_dist_trial,16.0,t_s_09_1,travel_shared,wallet,7.0,competing,paired,t_s_09_1.jpg,Travel,,,sub-19
Desktop or Laptop,Windows 10,Firefox 140.0,2560x1440,2560x1315,Temporal Distance Task,cb_07,64.0,temp_dist_trial,dist_items,qkpkxw,2.0,info,,15.899999999994181,0.0,15.899999999994181,15.899999999994181,0.0,15.899999999994181,1.0,0.0,0.0,,Slider,Slider,4.0,object-56,temp_dist_trial,16.0,t_s_09_1,travel_shared,wallet,7.0,competing,paired,t_s_09_1.jpg,Travel,,,sub-19
Desktop or Laptop,Windows 10,Firefox 140.0,2560x1440,2560x1315,Temporal Distance Task,cb_07,64.0,temp_dist_trial,dist_items,qkpkxw,2.0,continue,,2930.8999999999933,2918.579999999987,2930.8999999999933,2930.8999999999933,2918.579999999987,2930.8999999999933,1.0,0.0,0.0,,Click To Continue,Next button,7.0,object-60,temp_dist_trial,16.0,t_s_09_1,travel_shared,wallet,7.0,competing,paired,t_s_09_1.jpg,Travel,,,sub-19
Desktop or Laptop,Windows 10,Firefox 140.0,2560x1440,2560x1315,Temporal Distance Task,cb_07,64.0,temp_dist_trial,dist_items,qkpkxw,2.0,response,80,1616.6600000000033,2918.579999999987,2931.8999999999933,1616.6600000000033,2918.579999999987,2931.8999999999933,1.0,1315.2399999999907,0.0,,Slider,Slider,4.0,object-56,temp_dist_trial,16.0,t_s_09_1,travel_shared,wallet,7.0,competing,paired,t_s_09_1.jpg,Travel,,,sub-19
Desktop or Laptop,Windows 10,Firefox 140.0,2560x1440,2560x1315,Temporal Distance Task,cb_07,65.0,temp_dist_trial,num_items,zn7si1,1.0,response,1_ITEM,939.320000000007,933.320000000007,939.320000000007,939.320000000007,933.320000000007,939.320000000007,1.0,0.0,0.0,,Click Response,1_count,3.0,object-46,temp_dist_trial,17.0,t_m_14_1,travel_Miami,swim goggles,7.0,unique,single,t_m_14_1.jpg,Travel,,,sub-19
Desktop or Laptop,Windows 10,Firefox 140.0,2560x1440,2560x1315,Temporal Distance Task,cb_07,66.0,temp_dist_trial,num_items,zn7si1,1.0,response,2_ITEM,1035.3399999999963,1018.6600000000036,1035.3399999999963,1035.3399999999963,1018.6600000000036,1035.3399999999963,1.0,0.0,0.0,,Click Response,2_count,5.0,object-49,temp_dist_trial,18.0,t_s_03_1,travel_shared,portable charger,7.0,competing,paired,t_s_03_1.jpg,Travel,,,sub-19
Desktop or Laptop,Windows 10,Firefox 140.0,2560x1440,2560x1315,Temporal Distance Task,cb_07,66.0,temp_dist_trial,dist_items,qkpkxw,2.0,info,,14.339999999996508,0.0,14.339999999996508,14.339999999996508,0.0,14.339999999996508,1.0,0.0,0.0,,Slider,Slider,4.0,object-56,temp_dist_trial,18.0,t_s_03_1,travel_shared,portable charger,7.0,competing,paired,t_s_03_1.jpg,Travel,,,sub-19
Desktop or Laptop,Windows 10,Firefox 140.0,2560x1440,2560x1315,Temporal Distance Task,cb_07,66.0,temp_dist_trial,dist_items,qkpkxw,2.0,continue,,2401.3399999999965,2385.239999999991,2401.3399999999965,2401.3399999999965,2385.239999999991,2401.3399999999965,1.0,0.0,0.0,,Click To Continue,Next button,7.0,object-60,temp_dist_trial,18.0,t_s_03_1,travel_shared,portable charger,7.0,competing,paired,t_s_03_1.jpg,Travel,,,sub-19
Desktop or Laptop,Windows 10,Firefox 140.0,2560x1440,2560x1315,Temporal Distance Task,cb_07,66.0,temp_dist_trial,dist_items,qkpkxw,2.0,response,46,1033.320000000007,2385.239999999991,2401.8999999999937,1033.320000000007,2385.239999999991,2401.8999999999937,1.0,1368.5799999999872,0.0,,Slider,Slider,4.0,object-56,temp_dist_trial,18.0,t_s_03_1,travel_shared,portable charger,7.0,competing,paired,t_s_03_1.jpg,Travel,,,sub-19
Desktop or Laptop,Windows 10,Firefox 140.0,2560x1440,2560x1315,Temporal Distance Task,cb_07,67.0,temp_dist_trial,num_items,zn7si1,1.0,response,1_ITEM,1343.1000000000058,1335.320000000007,1343.1000000000058,1343.1000000000058,1335.320000000007,1343.1000000000058,1.0,0.0,0.0,,Click Response,1_count,3.0,object-46,temp_dist_trial,19.0,t_s_20_1,travel_shared,travel pill case,7.0,competing,paired,t_s_20_1.jpg,Travel,,,sub-19
Desktop or Laptop,Windows 10,Firefox 140.0,2560x1440,2560x1315,Temporal Distance Task,cb_07,68.0,temp_dist_trial,num_items,zn7si1,1.0,response,1_ITEM,1844.7999999999884,1833.3399999999967,1844.7999999999884,1844.7999999999884,1833.3399999999967,1844.7999999999884,1.0,0.0,0.0,,Click Response,1_count,3.0,object-46,temp_dist_trial,20.0,t_s_21_1,travel_shared,umbrella,7.0,competing,paired,t_s_21_1.jpg,Travel,,,sub-19
Desktop or Laptop,Windows 10,Firefox 140.0,2560x1440,2560x1315,Temporal Distance Task,cb_07,69.0,temp_dist_trial,num_items,zn7si1,1.0,response,1_ITEM,788.4599999999921,785.2599999999803,788.4599999999921,788.4599999999921,785.2599999999803,788.4599999999921,1.0,0.0,0.0,,Click Response,1_count,3.0,object-46,temp_dist_trial,21.0,t_i_16_1,travel_Iceland,skis,7.0,unique,paired,t_i_16_1.jpg,Travel,,,sub-19
Desktop or Laptop,Windows 10,Firefox 140.0,2560x1440,2560x1315,Temporal Distance Task,cb_07,70.0,temp_dist_trial,num_items,zn7si1,1.0,response,2_ITEM,1662.2000000000116,1651.8800000000049,1662.2000000000116,1662.2000000000116,1651.8800000000049,1662.2000000000116,1.0,0.0,0.0,,Click Response,2_count,5.0,object-49,temp_dist_trial,22.0,t_s_06_1,travel_shared,luggage,7.0,competing,paired,t_s_06_1.jpg,Travel,,,sub-19
Desktop or Laptop,Windows 10,Firefox 140.0,2560x1440,2560x1315,Temporal Distance Task,cb_07,70.0,temp_dist_trial,dist_items,qkpkxw,2.0,info,,14.320000000006983,0.0,14.320000000006983,14.320000000006983,0.0,14.320000000006983,1.0,0.0,0.0,,Slider,Slider,4.0,object-56,temp_dist_trial,22.0,t_s_06_1,travel_shared,luggage,7.0,competing,paired,t_s_06_1.jpg,Travel,,,sub-19
Desktop or Laptop,Windows 10,Firefox 140.0,2560x1440,2560x1315,Temporal Distance Task,cb_07,70.0,temp_dist_trial,dist_items,qkpkxw,2.0,continue,,2385.2200000000007,2368.540000000008,2385.2200000000007,2385.2200000000007,2368.540000000008,2385.2200000000007,1.0,0.0,0.0,,Click To Continue,Next button,7.0,object-60,temp_dist_trial,22.0,t_s_06_1,travel_shared,luggage,7.0,competing,paired,t_s_06_1.jpg,Travel,,,sub-19
Desktop or Laptop,Windows 10,Firefox 140.0,2560x1440,2560x1315,Temporal Distance Task,cb_07,70.0,temp_dist_trial,dist_items,qkpkxw,2.0,response,63,1200.0,2368.540000000008,2385.2200000000007,1200.0,2368.540000000008,2385.2200000000007,1.0,1185.2200000000012,0.0,,Slider,Slider,4.0,object-56,temp_dist_trial,22.0,t_s_06_1,travel_shared,luggage,7.0,competing,paired,t_s_06_1.jpg,Travel,,,sub-19
Desktop or Laptop,Windows 10,Firefox 140.0,2560x1440,2560x1315,Temporal Distance Task,cb_07,71.0,temp_dist_trial,num_items,zn7si1,1.0,response,2_ITEM,1105.7799999999988,1100.0,1105.7799999999988,1105.7799999999988,1100.0,1105.7799999999988,1.0,0.0,0.0,,Click Response,2_count,5.0,object-49,temp_dist_trial,23.0,t_s_05_1,travel_shared,neck pillow,7.0,competing,paired,t_s_05_1.jpg,Travel,,,sub-19
Desktop or Laptop,Windows 10,Firefox 140.0,2560x1440,2560x1315,Temporal Distance Task,cb_07,71.0,temp_dist_trial,dist_items,qkpkxw,2.0,info,,16.679999999993015,0.0,16.679999999993015,16.679999999993015,0.0,16.679999999993015,1.0,0.0,0.0,,Slider,Slider,4.0,object-56,temp_dist_trial,23.0,t_s_05_1,travel_shared,neck pillow,7.0,competing,paired,t_s_05_1.jpg,Travel,,,sub-19
Desktop or Laptop,Windows 10,Firefox 140.0,2560x1440,2560x1315,Temporal Distance Task,cb_07,71.0,temp_dist_trial,dist_items,qkpkxw,2.0,continue,,1981.7799999999988,1968.6399999999846,1981.7799999999988,1981.7799999999988,1968.6399999999846,1981.7799999999988,1.0,0.0,0.0,,Click To Continue,Next button,7.0,object-60,temp_dist_trial,23.0,t_s_05_1,travel_shared,neck pillow,7.0,competing,paired,t_s_05_1.jpg,Travel,,,sub-19
Desktop or Laptop,Windows 10,Firefox 140.0,2560x1440,2560x1315,Temporal Distance Task,cb_07,71.0,temp_dist_trial,dist_items,qkpkxw,2.0,response,66,1151.959999999992,1968.6399999999846,1982.7799999999988,1151.959999999992,1968.6399999999846,1982.7799999999988,1.0,830.820000000007,0.0,,Slider,Slider,4.0,object-56,temp_dist_trial,23.0,t_s_05_1,travel_shared,neck pillow,7.0,competing,paired,t_s_05_1.jpg,Travel,,,sub-19
Desktop or Laptop,Windows 10,Firefox 140.0,2560x1440,2560x1315,Temporal Distance Task,cb_07,72.0,temp_dist_trial,num_items,zn7si1,1.0,response,2_ITEM,1693.140000000014,1685.2400000000198,1693.140000000014,1693.140000000014,1685.2400000000198,1693.140000000014,1.0,0.0,0.0,,Click Response,2_count,5.0,object-49,temp_dist_trial,24.0,t_s_12_1,travel_shared,clear toiletry bag,7.0,competing,paired,t_s_12_1.jpg,Travel,,,sub-19
Desktop or Laptop,Windows 10,Firefox 140.0,2560x1440,2560x1315,Temporal Distance Task,cb_07,72.0,temp_dist_trial,dist_items,qkpkxw,2.0,info,,14.899999999994181,0.0,14.899999999994181,14.899999999994181,0.0,14.899999999994181,1.0,0.0,0.0,,Slider,Slider,4.0,object-56,temp_dist_trial,24.0,t_s_12_1,travel_shared,clear toiletry bag,7.0,competing,paired,t_s_12_1.jpg,Travel,,,sub-19
Desktop or Laptop,Windows 10,Firefox 140.0,2560x1440,2560x1315,Temporal Distance Task,cb_07,72.0,temp_dist_trial,dist_items,qkpkxw,2.0,continue,,2559.8999999999937,2551.8999999999937,2559.8999999999937,2559.8999999999937,2551.8999999999937,2559.8999999999937,1.0,0.0,0.0,,Click To Continue,Next button,7.0,object-60,temp_dist_trial,24.0,t_s_12_1,travel_shared,clear toiletry bag,7.0,competing,paired,t_s_12_1.jpg,Travel,,,sub-19
Desktop or Laptop,Windows 10,Firefox 140.0,2560x1440,2560x1315,Temporal Distance Task,cb_07,72.0,temp_dist_trial,dist_items,qkpkxw,2.0,response,86,1335.2399999999907,2551.8999999999937,2561.8999999999937,1335.2399999999907,2551.8999999999937,2561.8999999999937,1.0,1226.6600000000035,0.0,,Slider,Slider,4.0,object-56,temp_dist_trial,24.0,t_s_12_1,travel_shared,clear toiletry bag,7.0,competing,paired,t_s_12_1.jpg,Travel,,,sub-19
Desktop or Laptop,Windows 10,Firefox 140.0,2560x1440,2560x1315,Temporal Distance Task,cb_07,73.0,temp_dist_trial,num_items,zn7si1,1.0,response,1_ITEM,1466.0,1451.859999999986,1466.0,1466.0,1451.859999999986,1466.0,1.0,0.0,0.0,,Click Response,1_count,3.0,object-46,temp_dist_trial,25.0,t_s_10_1,travel_shared,luggage lock,7.0,competing,single,t_s_10_1.jpg,Travel,,,sub-19
Desktop or Laptop,Windows 10,Firefox 140.0,2560x1440,2560x1315,Temporal Distance Task,cb_07,74.0,temp_dist_trial,num_items,zn7si1,1.0,response,1_ITEM,1141.140000000014,1135.3600000000156,1141.140000000014,1141.140000000014,1135.3600000000156,1141.140000000014,1.0,0.0,0.0,,Click Response,1_count,3.0,object-46,temp_dist_trial,26.0,t_s_22_1,travel_shared,belt,7.0,competing,paired,t_s_22_1.jpg,Travel,,,sub-19
Desktop or Laptop,Windows 10,Firefox 140.0,2560x1440,2560x1315,Temporal Distance Task,cb_07,75.0,temp_dist_trial,num_items,zn7si1,1.0,response,2_ITEM,1161.8800000000047,1150.0,1161.8800000000047,1161.8800000000047,1150.0,1161.8800000000047,1.0,0.0,0.0,,Click Response,2_count,5.0,object-49,temp_dist_trial,27.0,t_s_07_1,travel_shared,phone charger cable,7.0,competing,paired,t_s_07_1.jpg,Travel,,,sub-19
Desktop or Laptop,Windows 10,Firefox 140.0,2560x1440,2560x1315,Temporal Distance Task,cb_07,75.0,temp_dist_trial,dist_items,qkpkxw,2.0,info,,6.8800000000046575,0.0,6.8800000000046575,6.8800000000046575,0.0,6.8800000000046575,1.0,0.0,0.0,,Slider,Slider,4.0,object-56,temp_dist_trial,27.0,t_s_07_1,travel_shared,phone charger cable,7.0,competing,paired,t_s_07_1.jpg,Travel,,,sub-19
Desktop or Laptop,Windows 10,Firefox 140.0,2560x1440,2560x1315,Temporal Distance Task,cb_07,75.0,temp_dist_trial,dist_items,qkpkxw,2.0,continue,,2266.8800000000047,2251.860000000015,2266.8800000000047,2266.8800000000047,2251.860000000015,2266.8800000000047,1.0,0.0,0.0,,Click To Continue,Next button,7.0,object-60,temp_dist_trial,27.0,t_s_07_1,travel_shared,phone charger cable,7.0,competing,paired,t_s_07_1.jpg,Travel,,,sub-19
Desktop or Laptop,Windows 10,Firefox 140.0,2560x1440,2560x1315,Temporal Distance Task,cb_07,75.0,temp_dist_trial,dist_items,qkpkxw,2.0,response,74,868.5200000000186,2251.860000000015,2267.8800000000047,868.5200000000186,2251.860000000015,2267.8800000000047,1.0,1399.359999999986,0.0,,Slider,Slider,4.0,object-56,temp_dist_trial,27.0,t_s_07_1,travel_shared,phone charger cable,7.0,competing,paired,t_s_07_1.jpg,Travel,,,sub-19
Desktop or Laptop,Windows 10,Firefox 140.0,2560x1440,2560x1315,Temporal Distance Task,cb_07,76.0,temp_dist_trial,num_items,zn7si1,1.0,response,2_ITEM,1349.0199999999895,1335.2200000000012,1349.0199999999895,1349.0199999999895,1335.2200000000012,1349.0199999999895,1.0,0.0,0.0,,Click Response,2_count,5.0,object-49,temp_dist_trial,28.0,t_m_03_1,travel_Miami,wetsuit,7.0,unique,paired,t_m_03_1.jpg,Travel,,,sub-19
Desktop or Laptop,Windows 10,Firefox 140.0,2560x1440,2560x1315,Temporal Distance Task,cb_07,76.0,temp_dist_trial,dist_items,qkpkxw,2.0,info,,10.799999999988358,0.0,10.799999999988358,10.799999999988358,0.0,10.799999999988358,1.0,0.0,0.0,,Slider,Slider,4.0,object-56,temp_dist_trial,28.0,t_m_03_1,travel_Miami,wetsuit,7.0,unique,paired,t_m_03_1.jpg,Travel,,,sub-19
Desktop or Laptop,Windows 10,Firefox 140.0,2560x1440,2560x1315,Temporal Distance Task,cb_07,76.0,temp_dist_trial,dist_items,qkpkxw,2.0,continue,,2064.7999999999884,2051.919999999984,2064.7999999999884,2064.7999999999884,2051.919999999984,2064.7999999999884,1.0,0.0,0.0,,Click To Continue,Next button,7.0,object-60,temp_dist_trial,28.0,t_m_03_1,travel_Miami,wetsuit,7.0,unique,paired,t_m_03_1.jpg,Travel,,,sub-19
Desktop or Laptop,Windows 10,Firefox 140.0,2560x1440,2560x1315,Temporal Distance Task,cb_07,76.0,temp_dist_trial,dist_items,qkpkxw,2.0,response,37,1016.6599999999744,2051.919999999984,2066.7999999999884,1016.6599999999744,2051.919999999984,2066.7999999999884,1.0,1050.140000000014,0.0,,Slider,Slider,4.0,object-56,temp_dist_trial,28.0,t_m_03_1,travel_Miami,wetsuit,7.0,unique,paired,t_m_03_1.jpg,Travel,,,sub-19
Desktop or Laptop,Windows 10,Firefox 140.0,2560x1440,2560x1315,Temporal Distance Task,cb_07,77.0,temp_dist_trial,num_items,zn7si1,1.0,response,2_ITEM,1629.8800000000049,1618.540000000008,1629.8800000000049,1629.8800000000049,1618.540000000008,1629.8800000000049,1.0,0.0,0.0,,Click Response,2_count,5.0,object-49,temp_dist_trial,29.0,t_s_02_1,travel_shared,water bottle,7.0,competing,paired,t_s_02_1.jpg,Travel,,,sub-19
Desktop or Laptop,Windows 10,Firefox 140.0,2560x1440,2560x1315,Temporal Distance Task,cb_07,77.0,temp_dist_trial,dist_items,qkpkxw,2.0,info,,14.339999999996508,0.0,14.339999999996508,14.339999999996508,0.0,14.339999999996508,1.0,0.0,0.0,,Slider,Slider,4.0,object-56,temp_dist_trial,29.0,t_s_02_1,travel_shared,water bottle,7.0,competing,paired,t_s_02_1.jpg,Travel,,,sub-19
Desktop or Laptop,Windows 10,Firefox 140.0,2560x1440,2560x1315,Temporal Distance Task,cb_07,77.0,temp_dist_trial,dist_items,qkpkxw,2.0,continue,,1950.0199999999893,1933.3399999999967,1950.0199999999893,1950.0199999999893,1933.3399999999967,1950.0199999999893,1.0,0.0,0.0,,Click To Continue,Next button,7.0,object-60,temp_dist_trial,29.0,t_s_02_1,travel_shared,water bottle,7.0,competing,paired,t_s_02_1.jpg,Travel,,,sub-19
Desktop or Laptop,Windows 10,Firefox 140.0,2560x1440,2560x1315,Temporal Distance Task,cb_07,77.0,temp_dist_trial,dist_items,qkpkxw,2.0,response,73,650.0,1933.3399999999967,1950.0199999999893,650.0,1933.3399999999967,1950.0199999999893,1.0,1300.0199999999895,0.0,,Slider,Slider,4.0,object-56,temp_dist_trial,29.0,t_s_02_1,travel_shared,water bottle,7.0,competing,paired,t_s_02_1.jpg,Travel,,,sub-19
Desktop or Laptop,Windows 10,Firefox 140.0,2560x1440,2560x1315,Temporal Distance Task,cb_07,78.0,temp_dist_trial,num_items,zn7si1,1.0,response,1_ITEM,1957.0,1951.959999999992,1957.0,1957.0,1951.959999999992,1957.0,1.0,0.0,0.0,,Click Response,1_count,3.0,object-46,temp_dist_trial,30.0,t_s_14_1,travel_shared,hand sanitizer,7.0,competing,paired,t_s_14_1.jpg,Travel,,,sub-19
Desktop or Laptop,Windows 10,Firefox 140.0,2560x1440,2560x1315,Temporal Distance Task,cb_07,79.0,temp_dist_trial,num_items,zn7si1,1.0,response,1_ITEM,980.0400000000079,968.6600000000036,980.0400000000079,980.0400000000079,968.6600000000036,980.0400000000079,1.0,0.0,0.0,,Click Response,1_count,3.0,object-46,temp_dist_trial,31.0,t_m_10_1,travel_Miami,tanktop,7.0,unique,single,t_m_10_1.jpg,Travel,,,sub-19
Desktop or Laptop,Windows 10,Firefox 140.0,2560x1440,2560x1315,Temporal Distance Task,cb_07,80.0,temp_dist_trial,num_items,zn7si1,1.0,response,1_ITEM,1408.3800000000049,1402.0,1408.3800000000049,1408.3800000000049,1402.0,1408.3800000000049,1.0,0.0,0.0,,Click Response,1_count,3.0,object-46,temp_dist_trial,32.0,t_m_11_1,travel_Miami,collapsible beach chair,7.0,unique,paired,t_m_11_1.jpg,Travel,,,sub-19
Desktop or Laptop,Windows 10,Firefox 140.0,2560x1440,2560x1315,Temporal Distance Task,cb_07,81.0,temp_dist_trial,num_items,zn7si1,1.0,response,1_ITEM,2462.3800000000047,2451.9800000000105,2462.3800000000047,2462.3800000000047,2451.9800000000105,2462.3800000000047,1.0,0.0,0.0,,Click Response,1_count,3.0,object-46,temp_dist_trial,33.0,t_s_08_1,travel_shared,hand lotion,7.0,competing,paired,t_s_08_1.jpg,Travel,,,sub-19
Desktop or Laptop,Windows 10,Firefox 140.0,2560x1440,2560x1315,Temporal Distance Task,cb_07,82.0,temp_dist_trial,num_items,zn7si1,1.0,response,1_ITEM,1733.3999999999942,1718.679999999993,1733.3999999999942,1733.3999999999942,1718.679999999993,1733.3999999999942,1.0,0.0,0.0,,Click Response,1_count,3.0,object-46,temp_dist_trial,34.0,t_i_07_1,travel_Iceland,hiking backpack,7.0,unique,single,t_i_07_1.jpg,Travel,,,sub-19
Desktop or Laptop,Windows 10,Firefox 140.0,2560x1440,2560x1315,Temporal Distance Task,cb_07,83.0,temp_dist_trial,num_items,zn7si1,1.0,response,2_ITEM,1066.679999999993,1050.0,1066.679999999993,1066.679999999993,1050.0,1066.679999999993,1.0,0.0,0.0,,Click Response,2_count,5.0,object-49,temp_dist_trial,35.0,t_s_18_1,travel_shared,first aid kit,7.0,competing,paired,t_s_18_1.jpg,Travel,,,sub-19
Desktop or Laptop,Windows 10,Firefox 140.0,2560x1440,2560x1315,Temporal Distance Task,cb_07,83.0,temp_dist_trial,dist_items,qkpkxw,2.0,info,,5.779999999998838,0.0,5.779999999998838,5.779999999998838,0.0,5.779999999998838,1.0,0.0,0.0,,Slider,Slider,4.0,object-56,temp_dist_trial,35.0,t_s_18_1,travel_shared,first aid kit,7.0,competing,paired,t_s_18_1.jpg,Travel,,,sub-19
Desktop or Laptop,Windows 10,Firefox 140.0,2560x1440,2560x1315,Temporal Distance Task,cb_07,83.0,temp_dist_trial,dist_items,qkpkxw,2.0,continue,,2334.9199999999546,2318.25999999998,2334.9199999999546,2334.9199999999546,2318.25999999998,2334.9199999999546,1.0,0.0,0.0,,Click To Continue,Next button,7.0,object-60,temp_dist_trial,35.0,t_s_18_1,travel_shared,first aid kit,7.0,competing,paired,t_s_18_1.jpg,Travel,,,sub-19
Desktop or Laptop,Windows 10,Firefox 140.0,2560x1440,2560x1315,Temporal Distance Task,cb_07,83.0,temp_dist_trial,dist_items,qkpkxw,2.0,response,47,1384.9200000000128,2318.25999999998,2334.9199999999546,1384.9200000000128,2318.25999999998,2334.9199999999546,1.0,949.9999999999416,0.0,,Slider,Slider,4.0,object-56,temp_dist_trial,35.0,t_s_18_1,travel_shared,first aid kit,7.0,competing,paired,t_s_18_1.jpg,Travel,,,sub-19
Desktop or Laptop,Windows 10,Firefox 140.0,2560x1440,2560x1315,Temporal Distance Task,cb_07,84.0,temp_dist_trial,num_items,zn7si1,1.0,response,1_ITEM,1173.5200000000184,1168.5800000000165,1173.5200000000184,1173.5200000000184,1168.5800000000165,1173.5200000000184,1.0,0.0,0.0,,Click Response,1_count,3.0,object-46,temp_dist_trial,36.0,t_i_14_1,travel_Iceland,snow pants,7.0,unique,paired,t_i_14_1.jpg,Travel,,,sub-19
Desktop or Laptop,Windows 10,Firefox 140.0,2560x1440,2560x1315,Temporal Distance Task,cb_07,85.0,temp_dist_trial,num_items,zn7si1,1.0,response,1_ITEM,745.9400000000023,733.3400000000256,745.9400000000023,745.9400000000023,733.3400000000256,745.9400000000023,1.0,0.0,0.0,,Click Response,1_count,3.0,object-46,temp_dist_trial,37.0,t_i_01_1,travel_Iceland,gloves,7.0,unique,paired,t_i_01_1.jpg,Travel,,,sub-19
Desktop or Laptop,Windows 10,Firefox 140.0,2560x1440,2560x1315,Temporal Distance Task,cb_07,86.0,temp_dist_trial,num_items,zn7si1,1.0,response,1_ITEM,954.5999999999768,952.0,954.5999999999768,954.5999999999768,952.0,954.5999999999768,1.0,0.0,0.0,,Click Response,1_count,3.0,object-46,temp_dist_trial,38.0,t_i_18_1,travel_Iceland,ski mask,7.0,unique,paired,t_i_18_1.jpg,Travel,,,sub-19
Desktop or Laptop,Windows 10,Firefox 140.0,2560x1440,2560x1315,Temporal Distance Task,cb_07,87.0,temp_dist_trial,num_items,zn7si1,1.0,response,2_ITEM,1230.5999999999767,1216.6599999999746,1230.5999999999767,1230.5999999999767,1216.6599999999746,1230.5999999999767,1.0,0.0,0.0,,Click Response,2_count,5.0,object-49,temp_dist_trial,39.0,t_m_06_1,travel_Miami,handheld fan,7.0,unique,paired,t_m_06_1.jpg,Travel,,,sub-19
Desktop or Laptop,Windows 10,Firefox 140.0,2560x1440,2560x1315,Temporal Distance Task,cb_07,87.0,temp_dist_trial,dist_items,qkpkxw,2.0,info,,7.9400000000023265,0.0,7.9400000000023265,7.9400000000023265,0.0,7.9400000000023265,1.0,0.0,0.0,,Slider,Slider,4.0,object-56,temp_dist_trial,39.0,t_m_06_1,travel_Miami,handheld fan,7.0,unique,paired,t_m_06_1.jpg,Travel,,,sub-19
Desktop or Laptop,Windows 10,Firefox 140.0,2560x1440,2560x1315,Temporal Distance Task,cb_07,87.0,temp_dist_trial,dist_items,qkpkxw,2.0,continue,,2156.9400000000023,2151.919999999984,2156.9400000000023,2156.9400000000023,2151.919999999984,2156.9400000000023,1.0,0.0,0.0,,Click To Continue,Next button,7.0,object-60,temp_dist_trial,39.0,t_m_06_1,travel_Miami,handheld fan,7.0,unique,paired,t_m_06_1.jpg,Travel,,,sub-19
Desktop or Laptop,Windows 10,Firefox 140.0,2560x1440,2560x1315,Temporal Distance Task,cb_07,87.0,temp_dist_trial,dist_items,qkpkxw,2.0,response,70,1401.9199999999835,2151.919999999984,2157.9400000000023,1401.9199999999835,2151.919999999984,2157.9400000000023,1.0,756.0200000000186,0.0,,Slider,Slider,4.0,object-56,temp_dist_trial,39.0,t_m_06_1,travel_Miami,handheld fan,7.0,unique,paired,t_m_06_1.jpg,Travel,,,sub-19
Desktop or Laptop,Windows 10,Firefox 140.0,2560x1440,2560x1315,Temporal Distance Task,cb_07,88.0,temp_dist_trial,num_items,zn7si1,1.0,response,2_ITEM,1262.0200000000184,1252.0200000000184,1262.0200000000184,1262.0200000000184,1252.0200000000184,1262.0200000000184,1.0,0.0,0.0,,Click Response,2_count,5.0,object-49,temp_dist_trial,40.0,t_i_06_1,travel_Iceland,knit hat,7.0,unique,paired,t_i_06_1.jpg,Travel,,,sub-19
Desktop or Laptop,Windows 10,Firefox 140.0,2560x1440,2560x1315,Temporal Distance Task,cb_07,88.0,temp_dist_trial,dist_items,qkpkxw,2.0,info,,16.0,0.0,16.0,16.0,0.0,16.0,1.0,0.0,0.0,,Slider,Slider,4.0,object-56,temp_dist_trial,40.0,t_i_06_1,travel_Iceland,knit hat,7.0,unique,paired,t_i_06_1.jpg,Travel,,,sub-19
Desktop or Laptop,Windows 10,Firefox 140.0,2560x1440,2560x1315,Temporal Distance Task,cb_07,88.0,temp_dist_trial,dist_items,qkpkxw,2.0,continue,,1835.179999999993,1818.5,1835.179999999993,1835.179999999993,1818.5,1835.179999999993,1.0,0.0,0.0,,Click To Continue,Next button,7.0,object-60,temp_dist_trial,40.0,t_i_06_1,travel_Iceland,knit hat,7.0,unique,paired,t_i_06_1.jpg,Travel,,,sub-19
Desktop or Laptop,Windows 10,Firefox 140.0,2560x1440,2560x1315,Temporal Distance Task,cb_07,88.0,temp_dist_trial,dist_items,qkpkxw,2.0,response,77,750.0,1818.5,1835.179999999993,750.0,1818.5,1835.179999999993,1.0,1085.179999999993,0.0,,Slider,Slider,4.0,object-56,temp_dist_trial,40.0,t_i_06_1,travel_Iceland,knit hat,7.0,unique,paired,t_i_06_1.jpg,Travel,,,sub-19
Desktop or Laptop,Windows 10,Firefox 140.0,2560x1440,2560x1315,Temporal Distance Task,cb_07,89.0,temp_dist_trial,num_items,zn7si1,1.0,response,2_ITEM,1045.5,1033.320000000007,1045.5,1045.5,1033.320000000007,1045.5,1.0,0.0,0.0,,Click Response,2_count,5.0,object-49,temp_dist_trial,41.0,t_s_17_1,travel_shared,toothbrush,7.0,competing,paired,t_s_17_1.jpg,Travel,,,sub-19
Desktop or Laptop,Windows 10,Firefox 140.0,2560x1440,2560x1315,Temporal Distance Task,cb_07,89.0,temp_dist_trial,dist_items,qkpkxw,2.0,info,,16.179999999993015,0.0,16.179999999993015,16.179999999993015,0.0,16.179999999993015,1.0,0.0,0.0,,Slider,Slider,4.0,object-56,temp_dist_trial,41.0,t_s_17_1,travel_shared,toothbrush,7.0,competing,paired,t_s_17_1.jpg,Travel,,,sub-19
Desktop or Laptop,Windows 10,Firefox 140.0,2560x1440,2560x1315,Temporal Distance Task,cb_07,89.0,temp_dist_trial,dist_items,qkpkxw,2.0,continue,,1989.179999999993,1985.2600000000089,1989.179999999993,1989.179999999993,1985.2600000000089,1989.179999999993,1.0,0.0,0.0,,Click To Continue,Next button,7.0,object-60,temp_dist_trial,41.0,t_s_17_1,travel_shared,toothbrush,7.0,competing,paired,t_s_17_1.jpg,Travel,,,sub-19
Desktop or Laptop,Windows 10,Firefox 140.0,2560x1440,2560x1315,Temporal Distance Task,cb_07,89.0,temp_dist_trial,dist_items,qkpkxw,2.0,response,45,951.9199999999837,1985.2600000000089,1990.179999999993,951.9199999999837,1985.2600000000089,1990.179999999993,1.0,1038.2600000000093,0.0,,Slider,Slider,4.0,object-56,temp_dist_trial,41.0,t_s_17_1,travel_shared,toothbrush,7.0,competing,paired,t_s_17_1.jpg,Travel,,,sub-19
Desktop or Laptop,Windows 10,Firefox 140.0,2560x1440,2560x1315,Temporal Distance Task,cb_07,90.0,temp_dist_trial,num_items,zn7si1,1.0,response,1_ITEM,982.9199999999837,968.5799999999581,982.9199999999837,982.9199999999837,968.5799999999581,982.9199999999837,1.0,0.0,0.0,,Click Response,1_count,3.0,object-46,temp_dist_trial,42.0,t_m_13_1,travel_Miami,floatie,7.0,unique,paired,t_m_13_1.jpg,Travel,,,sub-19
Desktop or Laptop,Windows 10,Firefox 140.0,2560x1440,2560x1315,Temporal Distance Task,cb_07,91.0,temp_dist_trial,num_items,zn7si1,1.0,response,1_ITEM,1272.3400000000254,1266.6600000000326,1272.3400000000254,1272.3400000000254,1266.6600000000326,1272.3400000000254,1.0,0.0,0.0,,Click Response,1_count,3.0,object-46,temp_dist_trial,43.0,t_s_04_1,travel_shared,instant camera,7.0,competing,single,t_s_04_1.jpg,Travel,,,sub-19
Desktop or Laptop,Windows 10,Firefox 140.0,2560x1440,2560x1315,Temporal Distance Task,cb_07,92.0,temp_dist_trial,num_items,zn7si1,1.0,response,1_ITEM,862.6400000000142,849.9200000000418,862.6400000000142,862.6400000000142,849.9200000000418,862.6400000000142,1.0,0.0,0.0,,Click Response,1_count,3.0,object-46,temp_dist_trial,44.0,t_s_13_1,travel_shared,contact lens case,7.0,competing,single,t_s_13_1.jpg,Travel,,,sub-19
Desktop or Laptop,Windows 10,Firefox 140.0,2560x1440,2560x1315,Temporal Distance Task,cb_07,93.0,temp_dist_trial,num_items,zn7si1,1.0,response,1_ITEM,1088.7199999999718,1083.3399999999674,1088.7199999999718,1088.7199999999718,1083.3399999999674,1088.7199999999718,1.0,0.0,0.0,,Click Response,1_count,3.0,object-46,temp_dist_trial,45.0,t_i_02_1,travel_Iceland,scarf,7.0,unique,single,t_i_02_1.jpg,Travel,,,sub-19
Desktop or Laptop,Windows 10,Firefox 140.0,2560x1440,2560x1315,Temporal Distance Task,cb_07,94.0,temp_dist_trial,num_items,zn7si1,1.0,response,1_ITEM,909.3800000000048,901.9400000000024,909.3800000000048,909.3800000000048,901.9400000000024,909.3800000000048,1.0,0.0,0.0,,Click Response,1_count,3.0,object-46,temp_dist_trial,46.0,t_s_11_1,travel_shared,eye mask,7.0,competing,paired,t_s_11_1.jpg,Travel,,,sub-19
Desktop or Laptop,Windows 10,Firefox 140.0,2560x1440,2560x1315,Temporal Distance Task,cb_07,95.0,temp_dist_trial,num_items,zn7si1,1.0,response,1_ITEM,891.4400000000023,883.3400000000256,891.4400000000023,891.4400000000023,883.3400000000256,891.4400000000023,1.0,0.0,0.0,,Click Response,1_count,3.0,object-46,temp_dist_trial,47.0,t_s_19_1,travel_shared,pajamas,7.0,competing,single,t_s_19_1.jpg,Travel,,,sub-19
Desktop or Laptop,Windows 10,Firefox 140.0,2560x1440,2560x1315,Temporal Distance Task,cb_07,96.0,temp_dist_trial,num_items,zn7si1,1.0,response,1_ITEM,762.1199999999952,750.0,762.1199999999952,762.1199999999952,750.0,762.1199999999952,1.0,0.0,0.0,,Click Response,1_count,3.0,object-46,temp_dist_trial,48.0,t_m_08_1,travel_Miami,flipflops,7.0,unique,paired,t_m_08_1.jpg,Travel,,,sub-19
Desktop or Laptop,Windows 10,Firefox 140.0,2560x1440,2560x1315,Temporal Distance Task,$${counterbalance_group},,,,,,info,END,,,282906.0,,,,0.0,,,,,,,,,,,,,,,,,,,,sub-19
