Participant Device,Participant OS,Participant Browser,Participant Monitor Size,Participant Viewport Size,Task Name,Current Spreadsheet,Trial Number,Display,Screen,Screen ID,Screen Counter,Response Type,Response,Onset Time,Clock Time,Reaction Time,Absolute Onset Time,Absolute Clock Time,Absolute Reaction Time,Correct,Response Duration,Proportion,Tag,Component Name,Object Name,Object Number,Object ID,Spreadsheet: display,Spreadsheet: trial,Spreadsheet: stimulus_id,Spreadsheet: expected_goal,Spreadsheet: stimulus_name,Spreadsheet: c_group,Spreadsheet: condition,Spreadsheet: paired_status,Spreadsheet: stimulus_path,Spreadsheet: block_type,Manipulation: Spreadsheet,Store: enc_test_acc,sub_label
Desktop or Laptop,Windows 10,Chrome 138.0.0.0,2560x1440,2327x1309,Temporal Distance Task,,,,,,,info,BEGIN,,,,,,,,,,,,,,,,,,,,,,,,,$${counterbalance_group},,sub-82
Desktop or Laptop,Windows 10,Chrome 138.0.0.0,2560x1440,2327x1309,Temporal Distance Task,cb_01,1.0,temp_instructions,intro_screen,3tnme7,1.0,continue,,10710.699999999812,10707.5,10710.699999999812,10710.699999999812,10707.5,10710.699999999812,1.0,0.0,0.0,,Click To Continue,Continue Button,4.0,object-29,temp_instructions,,,Student,,,,,,,$${counterbalance_group},,sub-82
Desktop or Laptop,Windows 10,Chrome 138.0.0.0,2560x1440,2327x1309,Temporal Distance Task,cb_01,1.0,temp_instructions,intro_screen_2,52v7ur,2.0,continue,,14754.299999999907,14751.7,14754.299999999907,14754.299999999907,14751.7,14754.299999999907,1.0,0.0,0.0,,Click To Continue,Continue Button,4.0,object-39,temp_instructions,,,Student,,,,,,,$${counterbalance_group},,sub-82
Desktop or Laptop,Windows 10,Chrome 138.0.0.0,2560x1440,2327x1309,Temporal Distance Task,cb_01,1.0,temp_instructions,intro_screen_3,i7lvwx,3.0,continue,,21012.7,21008.7,21012.7,21012.7,21008.7,21012.7,1.0,0.0,0.0,,Click To Continue,Continue Button,4.0,object-67,temp_instructions,,,Student,,,,,,,$${counterbalance_group},,sub-82
Desktop or Laptop,Windows 10,Chrome 138.0.0.0,2560x1440,2327x1309,Temporal Distance Task,cb_01,1.0,temp_instructions,test_q1,5ieqx1,4.0,response,choice_3,7284.700000000185,7282.099999999998,7284.700000000185,7284.700000000185,7282.099999999998,7284.700000000185,1.0,0.0,0.0,,Click Response,choice_3,5.0,object-345,temp_instructions,,,Student,,,,,,,$${counterbalance_group},,sub-82
Desktop or Laptop,Windows 10,Chrome 138.0.0.0,2560x1440,2327x1309,Temporal Distance Task,cb_01,1.0,temp_instructions,score_corr,7ilvjr,5.0,continue,,1230.4000000000015,1225.2000000000044,1230.4000000000015,1230.4000000000015,1225.2000000000044,1230.4000000000015,1.0,0.0,0.0,,Click To Continue,Continue Button,3.0,object-23,temp_instructions,,,Student,,,,,,,$${counterbalance_group},,sub-82
Desktop or Laptop,Windows 10,Chrome 138.0.0.0,2560x1440,2327x1309,Temporal Distance Task,cb_01,1.0,temp_eventStart,Screen 1,dgtyxe,1.0,continue,,2928.400000000184,2925.2999999999956,2928.400000000184,2928.400000000184,2925.2999999999956,2928.400000000184,1.0,0.0,0.0,,Click To Continue,Next Button,3.0,object-43,temp_eventStart,,,Student,,,,,,,$${counterbalance_group},,sub-82
Desktop or Laptop,Windows 10,Chrome 138.0.0.0,2560x1440,2327x1309,Temporal Distance Task,cb_01,1.0,temp_dist_trial,num_items,zn7si1,1.0,response,1_ITEM,1624.9000000000015,1618.9000000000015,1624.9000000000015,1624.9000000000015,1618.9000000000015,1624.9000000000015,1.0,0.0,0.0,,Click Response,1_count,3.0,object-46,temp_dist_trial,1.0,s_sh_22_1,student_shared,hole puncher,1.0,competing,single,s_sh_22_1.jpg,Student,$${counterbalance_group},,sub-82
Desktop or Laptop,Windows 10,Chrome 138.0.0.0,2560x1440,2327x1309,Temporal Distance Task,cb_01,2.0,temp_dist_trial,num_items,zn7si1,1.0,response,1_ITEM,1150.1999999998152,1143.9000000000015,1150.1999999998152,1150.1999999998152,1143.9000000000015,1150.1999999998152,1.0,0.0,0.0,,Click Response,1_count,3.0,object-46,temp_dist_trial,2.0,s_sh_08_1,student_shared,post-its,1.0,competing,single,s_sh_08_1.jpg,Student,$${counterbalance_group},,sub-82
Desktop or Laptop,Windows 10,Chrome 138.0.0.0,2560x1440,2327x1309,Temporal Distance Task,cb_01,3.0,temp_dist_trial,num_items,zn7si1,1.0,response,1_ITEM,1186.8999999999069,1181.3000000000031,1186.8999999999069,1186.8999999999069,1181.3000000000031,1186.8999999999069,1.0,0.0,0.0,,Click Response,1_count,3.0,object-46,temp_dist_trial,3.0,s_sh_10_1,student_shared,scissors,1.0,competing,paired,s_sh_10_1.jpg,Student,$${counterbalance_group},,sub-82
Desktop or Laptop,Windows 10,Chrome 138.0.0.0,2560x1440,2327x1309,Temporal Distance Task,cb_01,4.0,temp_dist_trial,num_items,zn7si1,1.0,response,2_ITEM,947.3999999998123,943.7999999999955,947.3999999998123,947.3999999998123,943.7999999999955,947.3999999998123,1.0,0.0,0.0,,Click Response,2_count,5.0,object-49,temp_dist_trial,4.0,s_s_07_1,student_stem,periodic table,1.0,unique,paired,s_s_07_1.jpg,Student,$${counterbalance_group},,sub-82
Desktop or Laptop,Windows 10,Chrome 138.0.0.0,2560x1440,2327x1309,Temporal Distance Task,cb_01,4.0,temp_dist_trial,dist_items,qkpkxw,2.0,info,,3.1999999999970896,0.0,3.1999999999970896,3.1999999999970896,0.0,3.1999999999970896,1.0,0.0,0.0,,Slider,Slider,4.0,object-56,temp_dist_trial,4.0,s_s_07_1,student_stem,periodic table,1.0,unique,paired,s_s_07_1.jpg,Student,$${counterbalance_group},,sub-82
Desktop or Laptop,Windows 10,Chrome 138.0.0.0,2560x1440,2327x1309,Temporal Distance Task,cb_01,4.0,temp_dist_trial,dist_items,qkpkxw,2.0,continue,,5443.699999999997,5438.099999999991,5443.699999999997,5443.699999999997,5438.099999999991,5443.699999999997,1.0,0.0,0.0,,Click To Continue,Next button,7.0,object-60,temp_dist_trial,4.0,s_s_07_1,student_stem,periodic table,1.0,unique,paired,s_s_07_1.jpg,Student,$${counterbalance_group},,sub-82
Desktop or Laptop,Windows 10,Chrome 138.0.0.0,2560x1440,2327x1309,Temporal Distance Task,cb_01,4.0,temp_dist_trial,dist_items,qkpkxw,2.0,response,75,2862.699999999997,5438.099999999991,5444.39999999998,2862.699999999997,5438.099999999991,5444.39999999998,1.0,2581.6999999999825,0.0,,Slider,Slider,4.0,object-56,temp_dist_trial,4.0,s_s_07_1,student_stem,periodic table,1.0,unique,paired,s_s_07_1.jpg,Student,$${counterbalance_group},,sub-82
Desktop or Laptop,Windows 10,Chrome 138.0.0.0,2560x1440,2327x1309,Temporal Distance Task,cb_01,5.0,temp_dist_trial,num_items,zn7si1,1.0,response,1_ITEM,1247.4999999999127,1243.8000000000031,1247.4999999999127,1247.4999999999127,1243.8000000000031,1247.4999999999127,1.0,0.0,0.0,,Click Response,1_count,3.0,object-46,temp_dist_trial,5.0,s_sh_04_1,student_shared,laptop stand,1.0,competing,single,s_sh_04_1.jpg,Student,$${counterbalance_group},,sub-82
Desktop or Laptop,Windows 10,Chrome 138.0.0.0,2560x1440,2327x1309,Temporal Distance Task,cb_01,6.0,temp_dist_trial,num_items,zn7si1,1.0,response,2_ITEM,992.6999999999972,987.5999999999913,992.6999999999972,992.6999999999972,987.5999999999913,992.6999999999972,1.0,0.0,0.0,,Click Response,2_count,5.0,object-49,temp_dist_trial,6.0,s_sh_11_1,student_shared,pencil case,1.0,competing,paired,s_sh_11_1.jpg,Student,$${counterbalance_group},,sub-82
Desktop or Laptop,Windows 10,Chrome 138.0.0.0,2560x1440,2327x1309,Temporal Distance Task,cb_01,6.0,temp_dist_trial,dist_items,qkpkxw,2.0,info,,2.6000000000058208,0.0,2.6000000000058208,2.6000000000058208,0.0,2.6000000000058208,1.0,0.0,0.0,,Slider,Slider,4.0,object-56,temp_dist_trial,6.0,s_sh_11_1,student_shared,pencil case,1.0,competing,paired,s_sh_11_1.jpg,Student,$${counterbalance_group},,sub-82
Desktop or Laptop,Windows 10,Chrome 138.0.0.0,2560x1440,2327x1309,Temporal Distance Task,cb_01,6.0,temp_dist_trial,dist_items,qkpkxw,2.0,continue,,4765.999999999913,4763.100000000006,4765.999999999913,4765.999999999913,4763.100000000006,4765.999999999913,1.0,0.0,0.0,,Click To Continue,Next button,7.0,object-60,temp_dist_trial,6.0,s_sh_11_1,student_shared,pencil case,1.0,competing,paired,s_sh_11_1.jpg,Student,$${counterbalance_group},,sub-82
Desktop or Laptop,Windows 10,Chrome 138.0.0.0,2560x1440,2327x1309,Temporal Distance Task,cb_01,6.0,temp_dist_trial,dist_items,qkpkxw,2.0,response,34,775.2000000000116,4763.100000000006,4766.300000000192,775.2000000000116,4763.100000000006,4766.300000000192,1.0,3991.1000000001814,0.0,,Slider,Slider,4.0,object-56,temp_dist_trial,6.0,s_sh_11_1,student_shared,pencil case,1.0,competing,paired,s_sh_11_1.jpg,Student,$${counterbalance_group},,sub-82
Desktop or Laptop,Windows 10,Chrome 138.0.0.0,2560x1440,2327x1309,Temporal Distance Task,cb_01,7.0,temp_dist_trial,num_items,zn7si1,1.0,response,2_ITEM,1064.2000000001863,1062.6000000000058,1064.2000000001863,1064.2000000001863,1062.6000000000058,1064.2000000001863,1.0,0.0,0.0,,Click Response,2_count,5.0,object-49,temp_dist_trial,7.0,s_a_10_1,student_art,tripod,1.0,unique,paired,s_a_10_1.jpg,Student,$${counterbalance_group},,sub-82
Desktop or Laptop,Windows 10,Chrome 138.0.0.0,2560x1440,2327x1309,Temporal Distance Task,cb_01,7.0,temp_dist_trial,dist_items,qkpkxw,2.0,info,,2.5000000000873115,0.0,2.5000000000873115,2.5000000000873115,0.0,2.5000000000873115,1.0,0.0,0.0,,Slider,Slider,4.0,object-56,temp_dist_trial,7.0,s_a_10_1,student_art,tripod,1.0,unique,paired,s_a_10_1.jpg,Student,$${counterbalance_group},,sub-82
Desktop or Laptop,Windows 10,Chrome 138.0.0.0,2560x1440,2327x1309,Temporal Distance Task,cb_01,7.0,temp_dist_trial,dist_items,qkpkxw,2.0,continue,,3187.699999999808,3181.699999999997,3187.699999999808,3187.699999999808,3181.699999999997,3187.699999999808,1.0,0.0,0.0,,Click To Continue,Next button,7.0,object-60,temp_dist_trial,7.0,s_a_10_1,student_art,tripod,1.0,unique,paired,s_a_10_1.jpg,Student,$${counterbalance_group},,sub-82
Desktop or Laptop,Windows 10,Chrome 138.0.0.0,2560x1440,2327x1309,Temporal Distance Task,cb_01,7.0,temp_dist_trial,dist_items,qkpkxw,2.0,response,25,731.3999999999942,3181.699999999997,3187.8999999999933,731.3999999999942,3181.699999999997,3187.8999999999933,1.0,2456.5,0.0,,Slider,Slider,4.0,object-56,temp_dist_trial,7.0,s_a_10_1,student_art,tripod,1.0,unique,paired,s_a_10_1.jpg,Student,$${counterbalance_group},,sub-82
Desktop or Laptop,Windows 10,Chrome 138.0.0.0,2560x1440,2327x1309,Temporal Distance Task,cb_01,8.0,temp_dist_trial,num_items,zn7si1,1.0,response,1_ITEM,921.5999999999041,918.8000000000028,921.5999999999041,921.5999999999041,918.8000000000028,921.5999999999041,1.0,0.0,0.0,,Click Response,1_count,3.0,object-46,temp_dist_trial,8.0,s_a_12_1,student_art,saxophone,1.0,unique,single,s_a_12_1.jpg,Student,$${counterbalance_group},,sub-82
Desktop or Laptop,Windows 10,Chrome 138.0.0.0,2560x1440,2327x1309,Temporal Distance Task,cb_01,9.0,temp_dist_trial,num_items,zn7si1,1.0,response,1_ITEM,1018.8000000000028,1012.6000000000058,1018.8000000000028,1018.8000000000028,1012.6000000000058,1018.8000000000028,1.0,0.0,0.0,,Click Response,1_count,3.0,object-46,temp_dist_trial,9.0,s_s_02_1,student_stem,flask,1.0,unique,paired,s_s_02_1.jpg,Student,$${counterbalance_group},,sub-82
Desktop or Laptop,Windows 10,Chrome 138.0.0.0,2560x1440,2327x1309,Temporal Distance Task,cb_01,10.0,temp_dist_trial,num_items,zn7si1,1.0,response,2_ITEM,926.3000000000902,925.0999999999913,926.3000000000902,926.3000000000902,925.0999999999913,926.3000000000902,1.0,0.0,0.0,,Click Response,2_count,5.0,object-49,temp_dist_trial,10.0,s_sh_03_1,student_shared,highlighter,1.0,competing,paired,s_sh_03_1.jpg,Student,$${counterbalance_group},,sub-82
Desktop or Laptop,Windows 10,Chrome 138.0.0.0,2560x1440,2327x1309,Temporal Distance Task,cb_01,10.0,temp_dist_trial,dist_items,qkpkxw,2.0,info,,2.7000000001862645,0.0,2.7000000001862645,2.7000000001862645,0.0,2.7000000001862645,1.0,0.0,0.0,,Slider,Slider,4.0,object-56,temp_dist_trial,10.0,s_sh_03_1,student_shared,highlighter,1.0,competing,paired,s_sh_03_1.jpg,Student,$${counterbalance_group},,sub-82
Desktop or Laptop,Windows 10,Chrome 138.0.0.0,2560x1440,2327x1309,Temporal Distance Task,cb_01,10.0,temp_dist_trial,dist_items,qkpkxw,2.0,continue,,3681.699999999983,3675.3999999999933,3681.699999999983,3681.699999999983,3675.3999999999933,3681.699999999983,1.0,0.0,0.0,,Click To Continue,Next button,7.0,object-60,temp_dist_trial,10.0,s_sh_03_1,student_shared,highlighter,1.0,competing,paired,s_sh_03_1.jpg,Student,$${counterbalance_group},,sub-82
Desktop or Laptop,Windows 10,Chrome 138.0.0.0,2560x1440,2327x1309,Temporal Distance Task,cb_01,10.0,temp_dist_trial,dist_items,qkpkxw,2.0,response,30,881.3000000000029,3675.3999999999933,3681.699999999983,881.3000000000029,3675.3999999999933,3681.699999999983,1.0,2800.39999999998,0.0,,Slider,Slider,4.0,object-56,temp_dist_trial,10.0,s_sh_03_1,student_shared,highlighter,1.0,competing,paired,s_sh_03_1.jpg,Student,$${counterbalance_group},,sub-82
Desktop or Laptop,Windows 10,Chrome 138.0.0.0,2560x1440,2327x1309,Temporal Distance Task,cb_01,11.0,temp_dist_trial,num_items,zn7si1,1.0,response,2_ITEM,878.8000000001921,875.0,878.8000000001921,878.8000000001921,875.0,878.8000000001921,1.0,0.0,0.0,,Click Response,2_count,5.0,object-49,temp_dist_trial,11.0,s_s_05_1,student_stem,lab goggles,1.0,unique,paired,s_s_05_1.jpg,Student,$${counterbalance_group},,sub-82
Desktop or Laptop,Windows 10,Chrome 138.0.0.0,2560x1440,2327x1309,Temporal Distance Task,cb_01,11.0,temp_dist_trial,dist_items,qkpkxw,2.0,info,,2.399999999906868,0.0,2.399999999906868,2.399999999906868,0.0,2.399999999906868,1.0,0.0,0.0,,Slider,Slider,4.0,object-56,temp_dist_trial,11.0,s_s_05_1,student_stem,lab goggles,1.0,unique,paired,s_s_05_1.jpg,Student,$${counterbalance_group},,sub-82
Desktop or Laptop,Windows 10,Chrome 138.0.0.0,2560x1440,2327x1309,Temporal Distance Task,cb_01,11.0,temp_dist_trial,dist_items,qkpkxw,2.0,continue,,2684.5,2681.6000000000063,2684.5,2684.5,2681.6000000000063,2684.5,1.0,0.0,0.0,,Click To Continue,Next button,7.0,object-60,temp_dist_trial,11.0,s_s_05_1,student_stem,lab goggles,1.0,unique,paired,s_s_05_1.jpg,Student,$${counterbalance_group},,sub-82
Desktop or Laptop,Windows 10,Chrome 138.0.0.0,2560x1440,2327x1309,Temporal Distance Task,cb_01,11.0,temp_dist_trial,dist_items,qkpkxw,2.0,response,68,706.3000000000029,2681.6000000000063,2686.2999999998137,706.3000000000029,2681.6000000000063,2686.2999999998137,1.0,1979.9999999998108,0.0,,Slider,Slider,4.0,object-56,temp_dist_trial,11.0,s_s_05_1,student_stem,lab goggles,1.0,unique,paired,s_s_05_1.jpg,Student,$${counterbalance_group},,sub-82
Desktop or Laptop,Windows 10,Chrome 138.0.0.0,2560x1440,2327x1309,Temporal Distance Task,cb_01,12.0,temp_dist_trial,num_items,zn7si1,1.0,response,2_ITEM,692.7999999999008,687.5,692.7999999999008,692.7999999999008,687.5,692.7999999999008,1.0,0.0,0.0,,Click Response,2_count,5.0,object-49,temp_dist_trial,12.0,s_s_01_1,student_stem,microscope,1.0,unique,paired,s_s_01_1.jpg,Student,$${counterbalance_group},,sub-82
Desktop or Laptop,Windows 10,Chrome 138.0.0.0,2560x1440,2327x1309,Temporal Distance Task,cb_01,12.0,temp_dist_trial,dist_items,qkpkxw,2.0,info,,2.3000000000029104,0.0,2.3000000000029104,2.3000000000029104,0.0,2.3000000000029104,1.0,0.0,0.0,,Slider,Slider,4.0,object-56,temp_dist_trial,12.0,s_s_01_1,student_stem,microscope,1.0,unique,paired,s_s_01_1.jpg,Student,$${counterbalance_group},,sub-82
Desktop or Laptop,Windows 10,Chrome 138.0.0.0,2560x1440,2327x1309,Temporal Distance Task,cb_01,12.0,temp_dist_trial,dist_items,qkpkxw,2.0,continue,,2843.300000000003,2837.800000000003,2843.300000000003,2843.300000000003,2837.800000000003,2843.300000000003,1.0,0.0,0.0,,Click To Continue,Next button,7.0,object-60,temp_dist_trial,12.0,s_s_01_1,student_stem,microscope,1.0,unique,paired,s_s_01_1.jpg,Student,$${counterbalance_group},,sub-82
Desktop or Laptop,Windows 10,Chrome 138.0.0.0,2560x1440,2327x1309,Temporal Distance Task,cb_01,12.0,temp_dist_trial,dist_items,qkpkxw,2.0,response,15,912.6000000000058,2837.800000000003,2843.599999999817,912.6000000000058,2837.800000000003,2843.599999999817,1.0,1930.9999999998108,0.0,,Slider,Slider,4.0,object-56,temp_dist_trial,12.0,s_s_01_1,student_stem,microscope,1.0,unique,paired,s_s_01_1.jpg,Student,$${counterbalance_group},,sub-82
Desktop or Laptop,Windows 10,Chrome 138.0.0.0,2560x1440,2327x1309,Temporal Distance Task,cb_01,13.0,temp_dist_trial,num_items,zn7si1,1.0,response,2_ITEM,759.5,756.3000000000029,759.5,759.5,756.3000000000029,759.5,1.0,0.0,0.0,,Click Response,2_count,5.0,object-49,temp_dist_trial,13.0,s_a_04_1,student_art,easel,1.0,unique,paired,s_a_04_1.jpg,Student,$${counterbalance_group},,sub-82
Desktop or Laptop,Windows 10,Chrome 138.0.0.0,2560x1440,2327x1309,Temporal Distance Task,cb_01,13.0,temp_dist_trial,dist_items,qkpkxw,2.0,info,,2.3999999998195563,0.0,2.3999999998195563,2.3999999998195563,0.0,2.3999999998195563,1.0,0.0,0.0,,Slider,Slider,4.0,object-56,temp_dist_trial,13.0,s_a_04_1,student_art,easel,1.0,unique,paired,s_a_04_1.jpg,Student,$${counterbalance_group},,sub-82
Desktop or Laptop,Windows 10,Chrome 138.0.0.0,2560x1440,2327x1309,Temporal Distance Task,cb_01,13.0,temp_dist_trial,dist_items,qkpkxw,2.0,continue,,2096.9999999999127,2094.0,2096.9999999999127,2096.9999999999127,2094.0,2096.9999999999127,1.0,0.0,0.0,,Click To Continue,Next button,7.0,object-60,temp_dist_trial,13.0,s_a_04_1,student_art,easel,1.0,unique,paired,s_a_04_1.jpg,Student,$${counterbalance_group},,sub-82
Desktop or Laptop,Windows 10,Chrome 138.0.0.0,2560x1440,2327x1309,Temporal Distance Task,cb_01,13.0,temp_dist_trial,dist_items,qkpkxw,2.0,response,13,587.5,2094.0,2097.300000000192,587.5,2094.0,2097.300000000192,1.0,1509.8000000001919,0.0,,Slider,Slider,4.0,object-56,temp_dist_trial,13.0,s_a_04_1,student_art,easel,1.0,unique,paired,s_a_04_1.jpg,Student,$${counterbalance_group},,sub-82
Desktop or Laptop,Windows 10,Chrome 138.0.0.0,2560x1440,2327x1309,Temporal Distance Task,cb_01,14.0,temp_dist_trial,num_items,zn7si1,1.0,response,1_ITEM,857.8000000001921,856.4000000000087,857.8000000001921,857.8000000001921,856.4000000000087,857.8000000001921,1.0,0.0,0.0,,Click Response,1_count,3.0,object-46,temp_dist_trial,14.0,s_sh_17_1,student_shared,wireless mouse,1.0,competing,single,s_sh_17_1.jpg,Student,$${counterbalance_group},,sub-82
Desktop or Laptop,Windows 10,Chrome 138.0.0.0,2560x1440,2327x1309,Temporal Distance Task,cb_01,15.0,temp_dist_trial,num_items,zn7si1,1.0,response,2_ITEM,900.8000000000028,900.1999999999971,900.8000000000028,900.8000000000028,900.1999999999971,900.8000000000028,1.0,0.0,0.0,,Click Response,2_count,5.0,object-49,temp_dist_trial,15.0,s_sh_13_1,student_shared,index cards,1.0,competing,paired,s_sh_13_1.jpg,Student,$${counterbalance_group},,sub-82
Desktop or Laptop,Windows 10,Chrome 138.0.0.0,2560x1440,2327x1309,Temporal Distance Task,cb_01,15.0,temp_dist_trial,dist_items,qkpkxw,2.0,info,,2.400000000183354,0.0,2.400000000183354,2.400000000183354,0.0,2.400000000183354,1.0,0.0,0.0,,Slider,Slider,4.0,object-56,temp_dist_trial,15.0,s_sh_13_1,student_shared,index cards,1.0,competing,paired,s_sh_13_1.jpg,Student,$${counterbalance_group},,sub-82
Desktop or Laptop,Windows 10,Chrome 138.0.0.0,2560x1440,2327x1309,Temporal Distance Task,cb_01,15.0,temp_dist_trial,dist_items,qkpkxw,2.0,continue,,2780.8000000000898,2775.5,2780.8000000000898,2780.8000000000898,2775.5,2780.8000000000898,1.0,0.0,0.0,,Click To Continue,Next button,7.0,object-60,temp_dist_trial,15.0,s_sh_13_1,student_shared,index cards,1.0,competing,paired,s_sh_13_1.jpg,Student,$${counterbalance_group},,sub-82
Desktop or Laptop,Windows 10,Chrome 138.0.0.0,2560x1440,2327x1309,Temporal Distance Task,cb_01,15.0,temp_dist_trial,dist_items,qkpkxw,2.0,response,42,600.1999999999971,2775.5,2781.900000000009,600.1999999999971,2775.5,2781.900000000009,1.0,2181.700000000012,0.0,,Slider,Slider,4.0,object-56,temp_dist_trial,15.0,s_sh_13_1,student_shared,index cards,1.0,competing,paired,s_sh_13_1.jpg,Student,$${counterbalance_group},,sub-82
Desktop or Laptop,Windows 10,Chrome 138.0.0.0,2560x1440,2327x1309,Temporal Distance Task,cb_01,16.0,temp_dist_trial,num_items,zn7si1,1.0,response,2_ITEM,790.9999999998108,787.5,790.9999999998108,790.9999999998108,787.5,790.9999999998108,1.0,0.0,0.0,,Click Response,2_count,5.0,object-49,temp_dist_trial,16.0,s_sh_06_1,student_shared,clipboard,1.0,competing,paired,s_sh_06_1.jpg,Student,$${counterbalance_group},,sub-82
Desktop or Laptop,Windows 10,Chrome 138.0.0.0,2560x1440,2327x1309,Temporal Distance Task,cb_01,16.0,temp_dist_trial,dist_items,qkpkxw,2.0,info,,2.400000000183354,0.0,2.400000000183354,2.400000000183354,0.0,2.400000000183354,1.0,0.0,0.0,,Slider,Slider,4.0,object-56,temp_dist_trial,16.0,s_sh_06_1,student_shared,clipboard,1.0,competing,paired,s_sh_06_1.jpg,Student,$${counterbalance_group},,sub-82
Desktop or Laptop,Windows 10,Chrome 138.0.0.0,2560x1440,2327x1309,Temporal Distance Task,cb_01,16.0,temp_dist_trial,dist_items,qkpkxw,2.0,continue,,2982.8000000000898,2981.5999999999913,2982.8000000000898,2982.8000000000898,2981.5999999999913,2982.8000000000898,1.0,0.0,0.0,,Click To Continue,Next button,7.0,object-60,temp_dist_trial,16.0,s_sh_06_1,student_shared,clipboard,1.0,competing,paired,s_sh_06_1.jpg,Student,$${counterbalance_group},,sub-82
Desktop or Laptop,Windows 10,Chrome 138.0.0.0,2560x1440,2327x1309,Temporal Distance Task,cb_01,16.0,temp_dist_trial,dist_items,qkpkxw,2.0,response,50,768.8000000000029,2981.5999999999913,2982.999999999811,768.8000000000029,2981.5999999999913,2982.999999999811,1.0,2214.199999999808,0.0,,Slider,Slider,4.0,object-56,temp_dist_trial,16.0,s_sh_06_1,student_shared,clipboard,1.0,competing,paired,s_sh_06_1.jpg,Student,$${counterbalance_group},,sub-82
Desktop or Laptop,Windows 10,Chrome 138.0.0.0,2560x1440,2327x1309,Temporal Distance Task,cb_01,17.0,temp_dist_trial,num_items,zn7si1,1.0,response,2_ITEM,598.1000000000057,593.8000000000029,598.1000000000057,598.1000000000057,593.8000000000029,598.1000000000057,1.0,0.0,0.0,,Click Response,2_count,5.0,object-49,temp_dist_trial,17.0,s_sh_16_1,student_shared,stapler,1.0,competing,paired,s_sh_16_1.jpg,Student,$${counterbalance_group},,sub-82
Desktop or Laptop,Windows 10,Chrome 138.0.0.0,2560x1440,2327x1309,Temporal Distance Task,cb_01,17.0,temp_dist_trial,dist_items,qkpkxw,2.0,info,,2.8000000000029104,0.0,2.8000000000029104,2.8000000000029104,0.0,2.8000000000029104,1.0,0.0,0.0,,Slider,Slider,4.0,object-56,temp_dist_trial,17.0,s_sh_16_1,student_shared,stapler,1.0,competing,paired,s_sh_16_1.jpg,Student,$${counterbalance_group},,sub-82
Desktop or Laptop,Windows 10,Chrome 138.0.0.0,2560x1440,2327x1309,Temporal Distance Task,cb_01,17.0,temp_dist_trial,dist_items,qkpkxw,2.0,continue,,3047.300000000003,3044.1000000000067,3047.300000000003,3047.300000000003,3044.1000000000067,3047.300000000003,1.0,0.0,0.0,,Click To Continue,Next button,7.0,object-60,temp_dist_trial,17.0,s_sh_16_1,student_shared,stapler,1.0,competing,paired,s_sh_16_1.jpg,Student,$${counterbalance_group},,sub-82
Desktop or Laptop,Windows 10,Chrome 138.0.0.0,2560x1440,2327x1309,Temporal Distance Task,cb_01,17.0,temp_dist_trial,dist_items,qkpkxw,2.0,response,63,1031.4000000000087,3044.1000000000067,3047.6999999999102,1031.4000000000087,3044.1000000000067,3047.6999999999102,1.0,2016.299999999901,0.0,,Slider,Slider,4.0,object-56,temp_dist_trial,17.0,s_sh_16_1,student_shared,stapler,1.0,competing,paired,s_sh_16_1.jpg,Student,$${counterbalance_group},,sub-82
Desktop or Laptop,Windows 10,Chrome 138.0.0.0,2560x1440,2327x1309,Temporal Distance Task,cb_01,18.0,temp_dist_trial,num_items,zn7si1,1.0,response,1_ITEM,955.0999999999041,950.0999999999913,955.0999999999041,955.0999999999041,950.0999999999913,955.0999999999041,1.0,0.0,0.0,,Click Response,1_count,3.0,object-46,temp_dist_trial,18.0,s_a_05_1,student_art,clay,1.0,unique,single,s_a_05_1.jpg,Student,$${counterbalance_group},,sub-82
Desktop or Laptop,Windows 10,Chrome 138.0.0.0,2560x1440,2327x1309,Temporal Distance Task,cb_01,19.0,temp_dist_trial,num_items,zn7si1,1.0,response,2_ITEM,933.1000000000932,931.3999999999942,933.1000000000932,933.1000000000932,931.3999999999942,933.1000000000932,1.0,0.0,0.0,,Click Response,2_count,5.0,object-49,temp_dist_trial,19.0,s_s_12_1,student_stem,robotic arm,1.0,unique,paired,s_s_12_1.jpg,Student,$${counterbalance_group},,sub-82
Desktop or Laptop,Windows 10,Chrome 138.0.0.0,2560x1440,2327x1309,Temporal Distance Task,cb_01,19.0,temp_dist_trial,dist_items,qkpkxw,2.0,info,,2.6000000000058208,0.0,2.6000000000058208,2.6000000000058208,0.0,2.6000000000058208,1.0,0.0,0.0,,Slider,Slider,4.0,object-56,temp_dist_trial,19.0,s_s_12_1,student_stem,robotic arm,1.0,unique,paired,s_s_12_1.jpg,Student,$${counterbalance_group},,sub-82
Desktop or Laptop,Windows 10,Chrome 138.0.0.0,2560x1440,2327x1309,Temporal Distance Task,cb_01,19.0,temp_dist_trial,dist_items,qkpkxw,2.0,continue,,4106.399999999821,4100.5,4106.399999999821,4106.399999999821,4100.5,4106.399999999821,1.0,0.0,0.0,,Click To Continue,Next button,7.0,object-60,temp_dist_trial,19.0,s_s_12_1,student_stem,robotic arm,1.0,unique,paired,s_s_12_1.jpg,Student,$${counterbalance_group},,sub-82
Desktop or Laptop,Windows 10,Chrome 138.0.0.0,2560x1440,2327x1309,Temporal Distance Task,cb_01,19.0,temp_dist_trial,dist_items,qkpkxw,2.0,response,65,668.8000000000029,4100.5,4106.700000000099,668.8000000000029,4100.5,4106.700000000099,1.0,3437.900000000096,0.0,,Slider,Slider,4.0,object-56,temp_dist_trial,19.0,s_s_12_1,student_stem,robotic arm,1.0,unique,paired,s_s_12_1.jpg,Student,$${counterbalance_group},,sub-82
Desktop or Laptop,Windows 10,Chrome 138.0.0.0,2560x1440,2327x1309,Temporal Distance Task,cb_01,20.0,temp_dist_trial,num_items,zn7si1,1.0,response,2_ITEM,664.8000000001921,662.5,664.8000000001921,664.8000000001921,662.5,664.8000000001921,1.0,0.0,0.0,,Click Response,2_count,5.0,object-49,temp_dist_trial,20.0,s_sh_14_1,student_shared,printer,1.0,competing,paired,s_sh_14_1.jpg,Student,$${counterbalance_group},,sub-82
Desktop or Laptop,Windows 10,Chrome 138.0.0.0,2560x1440,2327x1309,Temporal Distance Task,cb_01,20.0,temp_dist_trial,dist_items,qkpkxw,2.0,info,,2.3000000001920853,0.0,2.3000000001920853,2.3000000001920853,0.0,2.3000000001920853,1.0,0.0,0.0,,Slider,Slider,4.0,object-56,temp_dist_trial,20.0,s_sh_14_1,student_shared,printer,1.0,competing,paired,s_sh_14_1.jpg,Student,$${counterbalance_group},,sub-82
Desktop or Laptop,Windows 10,Chrome 138.0.0.0,2560x1440,2327x1309,Temporal Distance Task,cb_01,20.0,temp_dist_trial,dist_items,qkpkxw,2.0,continue,,1751.6000000000058,1750.3000000000034,1751.6000000000058,1751.6000000000058,1750.3000000000034,1751.6000000000058,1.0,0.0,0.0,,Click To Continue,Next button,7.0,object-60,temp_dist_trial,20.0,s_sh_14_1,student_shared,printer,1.0,competing,paired,s_sh_14_1.jpg,Student,$${counterbalance_group},,sub-82
Desktop or Laptop,Windows 10,Chrome 138.0.0.0,2560x1440,2327x1309,Temporal Distance Task,cb_01,20.0,temp_dist_trial,dist_items,qkpkxw,2.0,response,38,450.1000000000058,1750.3000000000034,1751.9999999999127,450.1000000000058,1750.3000000000034,1751.9999999999127,1.0,1301.8999999999069,0.0,,Slider,Slider,4.0,object-56,temp_dist_trial,20.0,s_sh_14_1,student_shared,printer,1.0,competing,paired,s_sh_14_1.jpg,Student,$${counterbalance_group},,sub-82
Desktop or Laptop,Windows 10,Chrome 138.0.0.0,2560x1440,2327x1309,Temporal Distance Task,cb_01,21.0,temp_dist_trial,num_items,zn7si1,1.0,response,2_ITEM,868.1999999999098,862.6000000000058,868.1999999999098,868.1999999999098,862.6000000000058,868.1999999999098,1.0,0.0,0.0,,Click Response,2_count,5.0,object-49,temp_dist_trial,21.0,s_sh_24_1,student_shared,desk organizer,1.0,competing,paired,s_sh_24_1.jpg,Student,$${counterbalance_group},,sub-82
Desktop or Laptop,Windows 10,Chrome 138.0.0.0,2560x1440,2327x1309,Temporal Distance Task,cb_01,21.0,temp_dist_trial,dist_items,qkpkxw,2.0,info,,2.400000000183354,0.0,2.400000000183354,2.400000000183354,0.0,2.400000000183354,1.0,0.0,0.0,,Slider,Slider,4.0,object-56,temp_dist_trial,21.0,s_sh_24_1,student_shared,desk organizer,1.0,competing,paired,s_sh_24_1.jpg,Student,$${counterbalance_group},,sub-82
Desktop or Laptop,Windows 10,Chrome 138.0.0.0,2560x1440,2327x1309,Temporal Distance Task,cb_01,21.0,temp_dist_trial,dist_items,qkpkxw,2.0,continue,,3648.8000000000898,3644.199999999997,3648.8000000000898,3648.8000000000898,3644.199999999997,3648.8000000000898,1.0,0.0,0.0,,Click To Continue,Next button,7.0,object-60,temp_dist_trial,21.0,s_sh_24_1,student_shared,desk organizer,1.0,competing,paired,s_sh_24_1.jpg,Student,$${counterbalance_group},,sub-82
Desktop or Laptop,Windows 10,Chrome 138.0.0.0,2560x1440,2327x1309,Temporal Distance Task,cb_01,21.0,temp_dist_trial,dist_items,qkpkxw,2.0,response,33,693.8999999999942,3644.199999999997,3650.499999999811,693.8999999999942,3644.199999999997,3650.499999999811,1.0,2956.599999999817,0.0,,Slider,Slider,4.0,object-56,temp_dist_trial,21.0,s_sh_24_1,student_shared,desk organizer,1.0,competing,paired,s_sh_24_1.jpg,Student,$${counterbalance_group},,sub-82
Desktop or Laptop,Windows 10,Chrome 138.0.0.0,2560x1440,2327x1309,Temporal Distance Task,cb_01,22.0,temp_dist_trial,num_items,zn7si1,1.0,response,2_ITEM,800.5,800.1000000000058,800.5,800.5,800.1000000000058,800.5,1.0,0.0,0.0,,Click Response,2_count,5.0,object-49,temp_dist_trial,22.0,s_sh_07_1,student_shared,ruler,1.0,competing,paired,s_sh_07_1.jpg,Student,$${counterbalance_group},,sub-82
Desktop or Laptop,Windows 10,Chrome 138.0.0.0,2560x1440,2327x1309,Temporal Distance Task,cb_01,22.0,temp_dist_trial,dist_items,qkpkxw,2.0,info,,2.6999999998079147,0.0,2.6999999998079147,2.6999999998079147,0.0,2.6999999998079147,1.0,0.0,0.0,,Slider,Slider,4.0,object-56,temp_dist_trial,22.0,s_sh_07_1,student_shared,ruler,1.0,competing,paired,s_sh_07_1.jpg,Student,$${counterbalance_group},,sub-82
Desktop or Laptop,Windows 10,Chrome 138.0.0.0,2560x1440,2327x1309,Temporal Distance Task,cb_01,22.0,temp_dist_trial,dist_items,qkpkxw,2.0,continue,,3724.5000000000873,3719.199999999983,3724.5000000000873,3724.5000000000873,3719.199999999983,3724.5000000000873,1.0,0.0,0.0,,Click To Continue,Next button,7.0,object-60,temp_dist_trial,22.0,s_sh_07_1,student_shared,ruler,1.0,competing,paired,s_sh_07_1.jpg,Student,$${counterbalance_group},,sub-82
Desktop or Laptop,Windows 10,Chrome 138.0.0.0,2560x1440,2327x1309,Temporal Distance Task,cb_01,22.0,temp_dist_trial,dist_items,qkpkxw,2.0,response,37,493.7999999999884,3719.199999999983,3724.699999999808,493.7999999999884,3719.199999999983,3724.699999999808,1.0,3230.89999999982,0.0,,Slider,Slider,4.0,object-56,temp_dist_trial,22.0,s_sh_07_1,student_shared,ruler,1.0,competing,paired,s_sh_07_1.jpg,Student,$${counterbalance_group},,sub-82
Desktop or Laptop,Windows 10,Chrome 138.0.0.0,2560x1440,2327x1309,Temporal Distance Task,cb_01,23.0,temp_dist_trial,num_items,zn7si1,1.0,response,2_ITEM,995.9999999998256,993.8000000000177,995.9999999998256,995.9999999998256,993.8000000000177,995.9999999998256,1.0,0.0,0.0,,Click Response,2_count,5.0,object-49,temp_dist_trial,23.0,s_sh_12_1,student_shared,binder,1.0,competing,paired,s_sh_12_1.jpg,Student,$${counterbalance_group},,sub-82
Desktop or Laptop,Windows 10,Chrome 138.0.0.0,2560x1440,2327x1309,Temporal Distance Task,cb_01,23.0,temp_dist_trial,dist_items,qkpkxw,2.0,info,,2.500000000174623,0.0,2.500000000174623,2.500000000174623,0.0,2.500000000174623,1.0,0.0,0.0,,Slider,Slider,4.0,object-56,temp_dist_trial,23.0,s_sh_12_1,student_shared,binder,1.0,competing,paired,s_sh_12_1.jpg,Student,$${counterbalance_group},,sub-82
Desktop or Laptop,Windows 10,Chrome 138.0.0.0,2560x1440,2327x1309,Temporal Distance Task,cb_01,23.0,temp_dist_trial,dist_items,qkpkxw,2.0,continue,,2857.2999999999884,2856.5,2857.2999999999884,2857.2999999999884,2856.5,2857.2999999999884,1.0,0.0,0.0,,Click To Continue,Next button,7.0,object-60,temp_dist_trial,23.0,s_sh_12_1,student_shared,binder,1.0,competing,paired,s_sh_12_1.jpg,Student,$${counterbalance_group},,sub-82
Desktop or Laptop,Windows 10,Chrome 138.0.0.0,2560x1440,2327x1309,Temporal Distance Task,cb_01,23.0,temp_dist_trial,dist_items,qkpkxw,2.0,response,34,681.2999999999884,2856.5,2857.599999999802,681.2999999999884,2856.5,2857.599999999802,1.0,2176.2999999998137,0.0,,Slider,Slider,4.0,object-56,temp_dist_trial,23.0,s_sh_12_1,student_shared,binder,1.0,competing,paired,s_sh_12_1.jpg,Student,$${counterbalance_group},,sub-82
Desktop or Laptop,Windows 10,Chrome 138.0.0.0,2560x1440,2327x1309,Temporal Distance Task,cb_01,24.0,temp_dist_trial,num_items,zn7si1,1.0,response,2_ITEM,871.0999999998021,868.8999999999942,871.0999999998021,871.0999999998021,868.8999999999942,871.0999999998021,1.0,0.0,0.0,,Click Response,2_count,5.0,object-49,temp_dist_trial,24.0,s_sh_23_1,student_shared,ballpoint pen,1.0,competing,paired,s_sh_23_1.jpg,Student,$${counterbalance_group},,sub-82
Desktop or Laptop,Windows 10,Chrome 138.0.0.0,2560x1440,2327x1309,Temporal Distance Task,cb_01,24.0,temp_dist_trial,dist_items,qkpkxw,2.0,info,,2.2999999999010465,0.0,2.2999999999010465,2.2999999999010465,0.0,2.2999999999010465,1.0,0.0,0.0,,Slider,Slider,4.0,object-56,temp_dist_trial,24.0,s_sh_23_1,student_shared,ballpoint pen,1.0,competing,paired,s_sh_23_1.jpg,Student,$${counterbalance_group},,sub-82
Desktop or Laptop,Windows 10,Chrome 138.0.0.0,2560x1440,2327x1309,Temporal Distance Task,cb_01,24.0,temp_dist_trial,dist_items,qkpkxw,2.0,continue,,1673.799999999901,1669.0,1673.799999999901,1673.799999999901,1669.0,1673.799999999901,1.0,0.0,0.0,,Click To Continue,Next button,7.0,object-60,temp_dist_trial,24.0,s_sh_23_1,student_shared,ballpoint pen,1.0,competing,paired,s_sh_23_1.jpg,Student,$${counterbalance_group},,sub-82
Desktop or Laptop,Windows 10,Chrome 138.0.0.0,2560x1440,2327x1309,Temporal Distance Task,cb_01,24.0,temp_dist_trial,dist_items,qkpkxw,2.0,response,44,512.6000000000058,1669.0,1675.3000000000175,512.6000000000058,1669.0,1675.3000000000175,1.0,1162.7000000000114,0.0,,Slider,Slider,4.0,object-56,temp_dist_trial,24.0,s_sh_23_1,student_shared,ballpoint pen,1.0,competing,paired,s_sh_23_1.jpg,Student,$${counterbalance_group},,sub-82
Desktop or Laptop,Windows 10,Chrome 138.0.0.0,2560x1440,2327x1309,Temporal Distance Task,cb_01,25.0,temp_dist_trial,num_items,zn7si1,1.0,response,2_ITEM,732.7999999999008,731.2999999999884,732.7999999999008,732.7999999999008,731.2999999999884,732.7999999999008,1.0,0.0,0.0,,Click Response,2_count,5.0,object-49,temp_dist_trial,25.0,s_a_02_1,student_art,canvas,1.0,unique,paired,s_a_02_1.jpg,Student,$${counterbalance_group},,sub-82
Desktop or Laptop,Windows 10,Chrome 138.0.0.0,2560x1440,2327x1309,Temporal Distance Task,cb_01,25.0,temp_dist_trial,dist_items,qkpkxw,2.0,info,,2.5,0.0,2.5,2.5,0.0,2.5,1.0,0.0,0.0,,Slider,Slider,4.0,object-56,temp_dist_trial,25.0,s_a_02_1,student_art,canvas,1.0,unique,paired,s_a_02_1.jpg,Student,$${counterbalance_group},,sub-82
Desktop or Laptop,Windows 10,Chrome 138.0.0.0,2560x1440,2327x1309,Temporal Distance Task,cb_01,25.0,temp_dist_trial,dist_items,qkpkxw,2.0,continue,,1558.3999999999066,1556.3999999999942,1558.3999999999066,1558.3999999999066,1556.3999999999942,1558.3999999999066,1.0,0.0,0.0,,Click To Continue,Next button,7.0,object-60,temp_dist_trial,25.0,s_a_02_1,student_art,canvas,1.0,unique,paired,s_a_02_1.jpg,Student,$${counterbalance_group},,sub-82
Desktop or Laptop,Windows 10,Chrome 138.0.0.0,2560x1440,2327x1309,Temporal Distance Task,cb_01,25.0,temp_dist_trial,dist_items,qkpkxw,2.0,response,30,493.7999999999884,1556.3999999999942,1558.5,493.7999999999884,1556.3999999999942,1558.5,1.0,1064.7000000000116,0.0,,Slider,Slider,4.0,object-56,temp_dist_trial,25.0,s_a_02_1,student_art,canvas,1.0,unique,paired,s_a_02_1.jpg,Student,$${counterbalance_group},,sub-82
Desktop or Laptop,Windows 10,Chrome 138.0.0.0,2560x1440,2327x1309,Temporal Distance Task,cb_01,26.0,temp_dist_trial,num_items,zn7si1,1.0,response,1_ITEM,1008.8999999998197,1006.3000000000177,1008.8999999998197,1008.8999999998197,1006.3000000000177,1008.8999999998197,1.0,0.0,0.0,,Click Response,1_count,3.0,object-46,temp_dist_trial,26.0,s_s_19_1,student_stem,circuit board,1.0,unique,single,s_s_19_1.jpg,Student,$${counterbalance_group},,sub-82
Desktop or Laptop,Windows 10,Chrome 138.0.0.0,2560x1440,2327x1309,Temporal Distance Task,cb_01,27.0,temp_dist_trial,num_items,zn7si1,1.0,response,1_ITEM,1063.7999999999884,1062.5999999999767,1063.7999999999884,1063.7999999999884,1062.5999999999767,1063.7999999999884,1.0,0.0,0.0,,Click Response,1_count,3.0,object-46,temp_dist_trial,27.0,s_a_14_1,student_art,guitar pick,1.0,unique,single,s_a_14_1.jpg,Student,$${counterbalance_group},,sub-82
Desktop or Laptop,Windows 10,Chrome 138.0.0.0,2560x1440,2327x1309,Temporal Distance Task,cb_01,28.0,temp_dist_trial,num_items,zn7si1,1.0,response,2_ITEM,894.7000000001863,893.7000000000116,894.7000000001863,894.7000000001863,893.7000000000116,894.7000000001863,1.0,0.0,0.0,,Click Response,2_count,5.0,object-49,temp_dist_trial,28.0,s_s_09_1,student_stem,multimeter,1.0,unique,paired,s_s_09_1.jpg,Student,$${counterbalance_group},,sub-82
Desktop or Laptop,Windows 10,Chrome 138.0.0.0,2560x1440,2327x1309,Temporal Distance Task,cb_01,28.0,temp_dist_trial,dist_items,qkpkxw,2.0,info,,2.200000000011641,0.0,2.200000000011641,2.200000000011641,0.0,2.200000000011641,1.0,0.0,0.0,,Slider,Slider,4.0,object-56,temp_dist_trial,28.0,s_s_09_1,student_stem,multimeter,1.0,unique,paired,s_s_09_1.jpg,Student,$${counterbalance_group},,sub-82
Desktop or Laptop,Windows 10,Chrome 138.0.0.0,2560x1440,2327x1309,Temporal Distance Task,cb_01,28.0,temp_dist_trial,dist_items,qkpkxw,2.0,continue,,1389.3000000001048,1387.7000000000116,1389.3000000001048,1389.3000000001048,1387.7000000000116,1389.3000000001048,1.0,0.0,0.0,,Click To Continue,Next button,7.0,object-60,temp_dist_trial,28.0,s_s_09_1,student_stem,multimeter,1.0,unique,paired,s_s_09_1.jpg,Student,$${counterbalance_group},,sub-82
Desktop or Laptop,Windows 10,Chrome 138.0.0.0,2560x1440,2327x1309,Temporal Distance Task,cb_01,28.0,temp_dist_trial,dist_items,qkpkxw,2.0,response,36,493.80000000001746,1387.7000000000116,1389.7000000000116,493.80000000001746,1387.7000000000116,1389.7000000000116,1.0,895.8999999999942,0.0,,Slider,Slider,4.0,object-56,temp_dist_trial,28.0,s_s_09_1,student_stem,multimeter,1.0,unique,paired,s_s_09_1.jpg,Student,$${counterbalance_group},,sub-82
Desktop or Laptop,Windows 10,Chrome 138.0.0.0,2560x1440,2327x1309,Temporal Distance Task,cb_01,29.0,temp_dist_trial,num_items,zn7si1,1.0,response,1_ITEM,872.3999999999069,868.7999999999884,872.3999999999069,872.3999999999069,868.7999999999884,872.3999999999069,1.0,0.0,0.0,,Click Response,1_count,3.0,object-46,temp_dist_trial,29.0,s_a_20_1,student_art,pin cushion,1.0,unique,paired,s_a_20_1.jpg,Student,$${counterbalance_group},,sub-82
Desktop or Laptop,Windows 10,Chrome 138.0.0.0,2560x1440,2327x1309,Temporal Distance Task,cb_01,30.0,temp_dist_trial,num_items,zn7si1,1.0,response,2_ITEM,956.8000000001047,956.4000000000232,956.8000000001047,956.8000000001047,956.4000000000232,956.8000000001047,1.0,0.0,0.0,,Click Response,2_count,5.0,object-49,temp_dist_trial,30.0,s_s_18_1,student_stem,brain model,1.0,unique,paired,s_s_18_1.jpg,Student,$${counterbalance_group},,sub-82
Desktop or Laptop,Windows 10,Chrome 138.0.0.0,2560x1440,2327x1309,Temporal Distance Task,cb_01,30.0,temp_dist_trial,dist_items,qkpkxw,2.0,info,,2.200000000011641,0.0,2.200000000011641,2.200000000011641,0.0,2.200000000011641,1.0,0.0,0.0,,Slider,Slider,4.0,object-56,temp_dist_trial,30.0,s_s_18_1,student_stem,brain model,1.0,unique,paired,s_s_18_1.jpg,Student,$${counterbalance_group},,sub-82
Desktop or Laptop,Windows 10,Chrome 138.0.0.0,2560x1440,2327x1309,Temporal Distance Task,cb_01,30.0,temp_dist_trial,dist_items,qkpkxw,2.0,continue,,1378.4000000001981,1375.1000000000058,1378.4000000001981,1378.4000000001981,1375.1000000000058,1378.4000000001981,1.0,0.0,0.0,,Click To Continue,Next button,7.0,object-60,temp_dist_trial,30.0,s_s_18_1,student_stem,brain model,1.0,unique,paired,s_s_18_1.jpg,Student,$${counterbalance_group},,sub-82
Desktop or Laptop,Windows 10,Chrome 138.0.0.0,2560x1440,2327x1309,Temporal Distance Task,cb_01,30.0,temp_dist_trial,dist_items,qkpkxw,2.0,response,31,518.7000000000116,1375.1000000000058,1380.4999999998254,518.7000000000116,1375.1000000000058,1380.4999999998254,1.0,861.7999999998137,0.0,,Slider,Slider,4.0,object-56,temp_dist_trial,30.0,s_s_18_1,student_stem,brain model,1.0,unique,paired,s_s_18_1.jpg,Student,$${counterbalance_group},,sub-82
Desktop or Laptop,Windows 10,Chrome 138.0.0.0,2560x1440,2327x1309,Temporal Distance Task,cb_01,31.0,temp_dist_trial,num_items,zn7si1,1.0,response,2_ITEM,873.8999999998198,868.8999999999942,873.8999999998198,873.8999999998198,868.8999999999942,873.8999999998198,1.0,0.0,0.0,,Click Response,2_count,5.0,object-49,temp_dist_trial,31.0,s_s_04_1,student_stem,bunsen burner,1.0,unique,paired,s_s_04_1.jpg,Student,$${counterbalance_group},,sub-82
Desktop or Laptop,Windows 10,Chrome 138.0.0.0,2560x1440,2327x1309,Temporal Distance Task,cb_01,31.0,temp_dist_trial,dist_items,qkpkxw,2.0,info,,2.1000000003841706,0.0,2.1000000003841706,2.1000000003841706,0.0,2.1000000003841706,1.0,0.0,0.0,,Slider,Slider,4.0,object-56,temp_dist_trial,31.0,s_s_04_1,student_stem,bunsen burner,1.0,unique,paired,s_s_04_1.jpg,Student,$${counterbalance_group},,sub-82
Desktop or Laptop,Windows 10,Chrome 138.0.0.0,2560x1440,2327x1309,Temporal Distance Task,cb_01,31.0,temp_dist_trial,dist_items,qkpkxw,2.0,continue,,1504.2999999996387,1500.2000000000116,1504.2999999996387,1504.2999999996387,1500.2000000000116,1504.2999999996387,1.0,0.0,0.0,,Click To Continue,Next button,7.0,object-60,temp_dist_trial,31.0,s_s_04_1,student_stem,bunsen burner,1.0,unique,paired,s_s_04_1.jpg,Student,$${counterbalance_group},,sub-82
Desktop or Laptop,Windows 10,Chrome 138.0.0.0,2560x1440,2327x1309,Temporal Distance Task,cb_01,31.0,temp_dist_trial,dist_items,qkpkxw,2.0,response,15,543.8000000000175,1500.2000000000116,1504.4000000001981,543.8000000000175,1500.2000000000116,1504.4000000001981,1.0,960.6000000001803,0.0,,Slider,Slider,4.0,object-56,temp_dist_trial,31.0,s_s_04_1,student_stem,bunsen burner,1.0,unique,paired,s_s_04_1.jpg,Student,$${counterbalance_group},,sub-82
Desktop or Laptop,Windows 10,Chrome 138.0.0.0,2560x1440,2327x1309,Temporal Distance Task,cb_01,32.0,temp_dist_trial,num_items,zn7si1,1.0,response,2_ITEM,678.9000000003724,675.0,678.9000000003724,678.9000000003724,675.0,678.9000000003724,1.0,0.0,0.0,,Click Response,2_count,5.0,object-49,temp_dist_trial,32.0,s_a_19_1,student_art,ballet shoes,1.0,unique,paired,s_a_19_1.jpg,Student,$${counterbalance_group},,sub-82
Desktop or Laptop,Windows 10,Chrome 138.0.0.0,2560x1440,2327x1309,Temporal Distance Task,cb_01,32.0,temp_dist_trial,dist_items,qkpkxw,2.0,info,,2.1999999998079147,0.0,2.1999999998079147,2.1999999998079147,0.0,2.1999999998079147,1.0,0.0,0.0,,Slider,Slider,4.0,object-56,temp_dist_trial,32.0,s_a_19_1,student_art,ballet shoes,1.0,unique,paired,s_a_19_1.jpg,Student,$${counterbalance_group},,sub-82
Desktop or Laptop,Windows 10,Chrome 138.0.0.0,2560x1440,2327x1309,Temporal Distance Task,cb_01,32.0,temp_dist_trial,dist_items,qkpkxw,2.0,continue,,1467.8000000003667,1462.6000000000058,1467.8000000003667,1467.8000000003667,1462.6000000000058,1467.8000000003667,1.0,0.0,0.0,,Click To Continue,Next button,7.0,object-60,temp_dist_trial,32.0,s_a_19_1,student_art,ballet shoes,1.0,unique,paired,s_a_19_1.jpg,Student,$${counterbalance_group},,sub-82
Desktop or Laptop,Windows 10,Chrome 138.0.0.0,2560x1440,2327x1309,Temporal Distance Task,cb_01,32.0,temp_dist_trial,dist_items,qkpkxw,2.0,response,34,550.1000000000058,1462.6000000000058,1467.9999999996217,550.1000000000058,1462.6000000000058,1467.9999999996217,1.0,917.8999999996158,0.0,,Slider,Slider,4.0,object-56,temp_dist_trial,32.0,s_a_19_1,student_art,ballet shoes,1.0,unique,paired,s_a_19_1.jpg,Student,$${counterbalance_group},,sub-82
Desktop or Laptop,Windows 10,Chrome 138.0.0.0,2560x1440,2327x1309,Temporal Distance Task,cb_01,33.0,temp_dist_trial,num_items,zn7si1,1.0,response,1_ITEM,824.2999999999884,818.8999999999942,824.2999999999884,824.2999999999884,818.8999999999942,824.2999999999884,1.0,0.0,0.0,,Click Response,1_count,3.0,object-46,temp_dist_trial,33.0,s_a_18_1,student_art,tutu,1.0,unique,single,s_a_18_1.jpg,Student,$${counterbalance_group},,sub-82
Desktop or Laptop,Windows 10,Chrome 138.0.0.0,2560x1440,2327x1309,Temporal Distance Task,cb_01,34.0,temp_dist_trial,num_items,zn7si1,1.0,response,2_ITEM,792.3000000003668,787.6000000000058,792.3000000003668,792.3000000003668,787.6000000000058,792.3000000003668,1.0,0.0,0.0,,Click Response,2_count,5.0,object-49,temp_dist_trial,34.0,s_sh_02_1,student_shared,eraser,1.0,competing,paired,s_sh_02_1.jpg,Student,$${counterbalance_group},,sub-82
Desktop or Laptop,Windows 10,Chrome 138.0.0.0,2560x1440,2327x1309,Temporal Distance Task,cb_01,34.0,temp_dist_trial,dist_items,qkpkxw,2.0,info,,1.9999999998253768,0.0,1.9999999998253768,1.9999999998253768,0.0,1.9999999998253768,1.0,0.0,0.0,,Slider,Slider,4.0,object-56,temp_dist_trial,34.0,s_sh_02_1,student_shared,eraser,1.0,competing,paired,s_sh_02_1.jpg,Student,$${counterbalance_group},,sub-82
Desktop or Laptop,Windows 10,Chrome 138.0.0.0,2560x1440,2327x1309,Temporal Distance Task,cb_01,34.0,temp_dist_trial,dist_items,qkpkxw,2.0,continue,,4131.600000000035,4125.400000000023,4131.600000000035,4131.600000000035,4125.400000000023,4131.600000000035,1.0,0.0,0.0,,Click To Continue,Next button,7.0,object-60,temp_dist_trial,34.0,s_sh_02_1,student_shared,eraser,1.0,competing,paired,s_sh_02_1.jpg,Student,$${counterbalance_group},,sub-82
Desktop or Laptop,Windows 10,Chrome 138.0.0.0,2560x1440,2327x1309,Temporal Distance Task,cb_01,34.0,temp_dist_trial,dist_items,qkpkxw,2.0,response,38,1100.0,4125.400000000023,4131.600000000035,1100.0,4125.400000000023,4131.600000000035,1.0,3031.600000000035,0.0,,Slider,Slider,4.0,object-56,temp_dist_trial,34.0,s_sh_02_1,student_shared,eraser,1.0,competing,paired,s_sh_02_1.jpg,Student,$${counterbalance_group},,sub-82
Desktop or Laptop,Windows 10,Chrome 138.0.0.0,2560x1440,2327x1309,Temporal Distance Task,cb_01,35.0,temp_dist_trial,num_items,zn7si1,1.0,response,2_ITEM,828.2000000003609,825.0999999999768,828.2000000003609,828.2000000003609,825.0999999999768,828.2000000003609,1.0,0.0,0.0,,Click Response,2_count,5.0,object-49,temp_dist_trial,35.0,s_sh_19_1,student_shared,portable plastic drawer,1.0,competing,paired,s_sh_19_1.jpg,Student,$${counterbalance_group},,sub-82
Desktop or Laptop,Windows 10,Chrome 138.0.0.0,2560x1440,2327x1309,Temporal Distance Task,cb_01,35.0,temp_dist_trial,dist_items,qkpkxw,2.0,info,,2.499999999825377,0.0,2.499999999825377,2.499999999825377,0.0,2.499999999825377,1.0,0.0,0.0,,Slider,Slider,4.0,object-56,temp_dist_trial,35.0,s_sh_19_1,student_shared,portable plastic drawer,1.0,competing,paired,s_sh_19_1.jpg,Student,$${counterbalance_group},,sub-82
Desktop or Laptop,Windows 10,Chrome 138.0.0.0,2560x1440,2327x1309,Temporal Distance Task,cb_01,35.0,temp_dist_trial,dist_items,qkpkxw,2.0,continue,,1902.100000000384,1900.3000000000175,1902.100000000384,1902.100000000384,1900.3000000000175,1902.100000000384,1.0,0.0,0.0,,Click To Continue,Next button,7.0,object-60,temp_dist_trial,35.0,s_sh_19_1,student_shared,portable plastic drawer,1.0,competing,paired,s_sh_19_1.jpg,Student,$${counterbalance_group},,sub-82
Desktop or Laptop,Windows 10,Chrome 138.0.0.0,2560x1440,2327x1309,Temporal Distance Task,cb_01,35.0,temp_dist_trial,dist_items,qkpkxw,2.0,response,52,662.6000000000057,1900.3000000000175,1902.2999999996387,662.6000000000057,1900.3000000000175,1902.2999999996387,1.0,1239.6999999996333,0.0,,Slider,Slider,4.0,object-56,temp_dist_trial,35.0,s_sh_19_1,student_shared,portable plastic drawer,1.0,competing,paired,s_sh_19_1.jpg,Student,$${counterbalance_group},,sub-82
Desktop or Laptop,Windows 10,Chrome 138.0.0.0,2560x1440,2327x1309,Temporal Distance Task,cb_01,36.0,temp_dist_trial,num_items,zn7si1,1.0,response,1_ITEM,776.1000000001802,775.0,776.1000000001802,776.1000000001802,775.0,776.1000000001802,1.0,0.0,0.0,,Click Response,1_count,3.0,object-46,temp_dist_trial,36.0,s_sh_20_1,student_shared,tape,1.0,competing,single,s_sh_20_1.jpg,Student,$${counterbalance_group},,sub-82
Desktop or Laptop,Windows 10,Chrome 138.0.0.0,2560x1440,2327x1309,Temporal Distance Task,cb_01,37.0,temp_dist_trial,num_items,zn7si1,1.0,response,1_ITEM,967.7000000003608,962.5,967.7000000003608,967.7000000003608,962.5,967.7000000003608,1.0,0.0,0.0,,Click Response,1_count,3.0,object-46,temp_dist_trial,37.0,s_sh_09_1,student_shared,paper clips,1.0,competing,single,s_sh_09_1.jpg,Student,$${counterbalance_group},,sub-82
Desktop or Laptop,Windows 10,Chrome 138.0.0.0,2560x1440,2327x1309,Temporal Distance Task,cb_01,38.0,temp_dist_trial,num_items,zn7si1,1.0,response,1_ITEM,1068.1000000003842,1062.6000000000058,1068.1000000003842,1068.1000000003842,1062.6000000000058,1068.1000000003842,1.0,0.0,0.0,,Click Response,1_count,3.0,object-46,temp_dist_trial,38.0,s_sh_15_1,student_shared,usb drive,1.0,competing,paired,s_sh_15_1.jpg,Student,$${counterbalance_group},,sub-82
Desktop or Laptop,Windows 10,Chrome 138.0.0.0,2560x1440,2327x1309,Temporal Distance Task,cb_01,39.0,temp_dist_trial,num_items,zn7si1,1.0,response,2_ITEM,1325.4000000003725,1325.1000000000058,1325.4000000003725,1325.4000000003725,1325.1000000000058,1325.4000000003725,1.0,0.0,0.0,,Click Response,2_count,5.0,object-49,temp_dist_trial,39.0,s_a_11_1,student_art,clapperboard,1.0,unique,paired,s_a_11_1.jpg,Student,$${counterbalance_group},,sub-82
Desktop or Laptop,Windows 10,Chrome 138.0.0.0,2560x1440,2327x1309,Temporal Distance Task,cb_01,39.0,temp_dist_trial,dist_items,qkpkxw,2.0,info,,2.6000000001804437,0.0,2.6000000001804437,2.6000000001804437,0.0,2.6000000001804437,1.0,0.0,0.0,,Slider,Slider,4.0,object-56,temp_dist_trial,39.0,s_a_11_1,student_art,clapperboard,1.0,unique,paired,s_a_11_1.jpg,Student,$${counterbalance_group},,sub-82
Desktop or Laptop,Windows 10,Chrome 138.0.0.0,2560x1440,2327x1309,Temporal Distance Task,cb_01,39.0,temp_dist_trial,dist_items,qkpkxw,2.0,continue,,4736.300000000367,4731.899999999994,4736.300000000367,4736.300000000367,4731.899999999994,4736.300000000367,1.0,0.0,0.0,,Click To Continue,Next button,7.0,object-60,temp_dist_trial,39.0,s_a_11_1,student_art,clapperboard,1.0,unique,paired,s_a_11_1.jpg,Student,$${counterbalance_group},,sub-82
Desktop or Laptop,Windows 10,Chrome 138.0.0.0,2560x1440,2327x1309,Temporal Distance Task,cb_01,39.0,temp_dist_trial,dist_items,qkpkxw,2.0,response,40,1606.5,4731.899999999994,4738.10000000018,1606.5,4731.899999999994,4738.10000000018,1.0,3131.6000000001804,0.0,,Slider,Slider,4.0,object-56,temp_dist_trial,39.0,s_a_11_1,student_art,clapperboard,1.0,unique,paired,s_a_11_1.jpg,Student,$${counterbalance_group},,sub-82
Desktop or Laptop,Windows 10,Chrome 138.0.0.0,2560x1440,2327x1309,Temporal Distance Task,cb_01,40.0,temp_dist_trial,num_items,zn7si1,1.0,response,1_ITEM,1320.2999999998135,1318.7999999999886,1320.2999999998135,1320.2999999998135,1318.7999999999886,1320.2999999998135,1.0,0.0,0.0,,Click Response,1_count,3.0,object-46,temp_dist_trial,40.0,s_sh_21_1,student_shared,file holder,1.0,competing,paired,s_sh_21_1.jpg,Student,$${counterbalance_group},,sub-82
Desktop or Laptop,Windows 10,Chrome 138.0.0.0,2560x1440,2327x1309,Temporal Distance Task,cb_01,41.0,temp_dist_trial,num_items,zn7si1,1.0,response,2_ITEM,960.6000000000058,956.3000000000177,960.6000000000058,960.6000000000058,956.3000000000177,960.6000000000058,1.0,0.0,0.0,,Click Response,2_count,5.0,object-49,temp_dist_trial,41.0,s_sh_05_1,student_shared,laptop,1.0,competing,paired,s_sh_05_1.jpg,Student,$${counterbalance_group},,sub-82
Desktop or Laptop,Windows 10,Chrome 138.0.0.0,2560x1440,2327x1309,Temporal Distance Task,cb_01,41.0,temp_dist_trial,dist_items,qkpkxw,2.0,info,,2.6000000003841706,0.0,2.6000000003841706,2.6000000003841706,0.0,2.6000000003841706,1.0,0.0,0.0,,Slider,Slider,4.0,object-56,temp_dist_trial,41.0,s_sh_05_1,student_shared,laptop,1.0,competing,paired,s_sh_05_1.jpg,Student,$${counterbalance_group},,sub-82
Desktop or Laptop,Windows 10,Chrome 138.0.0.0,2560x1440,2327x1309,Temporal Distance Task,cb_01,41.0,temp_dist_trial,dist_items,qkpkxw,2.0,continue,,1974.100000000384,1969.0,1974.100000000384,1974.100000000384,1969.0,1974.100000000384,1.0,0.0,0.0,,Click To Continue,Next button,7.0,object-60,temp_dist_trial,41.0,s_sh_05_1,student_shared,laptop,1.0,competing,paired,s_sh_05_1.jpg,Student,$${counterbalance_group},,sub-82
Desktop or Laptop,Windows 10,Chrome 138.0.0.0,2560x1440,2327x1309,Temporal Distance Task,cb_01,41.0,temp_dist_trial,dist_items,qkpkxw,2.0,response,52,637.5,1969.0,1974.4000000001981,637.5,1969.0,1974.4000000001981,1.0,1336.9000000001981,0.0,,Slider,Slider,4.0,object-56,temp_dist_trial,41.0,s_sh_05_1,student_shared,laptop,1.0,competing,paired,s_sh_05_1.jpg,Student,$${counterbalance_group},,sub-82
Desktop or Laptop,Windows 10,Chrome 138.0.0.0,2560x1440,2327x1309,Temporal Distance Task,cb_01,42.0,temp_dist_trial,num_items,zn7si1,1.0,response,1_ITEM,766.9999999998255,762.5,766.9999999998255,766.9999999998255,762.5,766.9999999998255,1.0,0.0,0.0,,Click Response,1_count,3.0,object-46,temp_dist_trial,42.0,s_s_10_1,student_stem,3d molecule,1.0,unique,single,s_s_10_1.jpg,Student,$${counterbalance_group},,sub-82
Desktop or Laptop,Windows 10,Chrome 138.0.0.0,2560x1440,2327x1309,Temporal Distance Task,cb_01,43.0,temp_dist_trial,num_items,zn7si1,1.0,response,1_ITEM,994.6000000000058,993.8000000000177,994.6000000000058,994.6000000000058,993.8000000000177,994.6000000000058,1.0,0.0,0.0,,Click Response,1_count,3.0,object-46,temp_dist_trial,43.0,s_s_08_1,student_stem,soldering iron,1.0,unique,single,s_s_08_1.jpg,Student,$${counterbalance_group},,sub-82
Desktop or Laptop,Windows 10,Chrome 138.0.0.0,2560x1440,2327x1309,Temporal Distance Task,cb_01,44.0,temp_dist_trial,num_items,zn7si1,1.0,response,1_ITEM,1191.6000000003842,1187.6000000000058,1191.6000000003842,1191.6000000003842,1187.6000000000058,1191.6000000003842,1.0,0.0,0.0,,Click Response,1_count,3.0,object-46,temp_dist_trial,44.0,s_sh_18_1,student_shared,wall calendar,1.0,competing,single,s_sh_18_1.jpg,Student,$${counterbalance_group},,sub-82
Desktop or Laptop,Windows 10,Chrome 138.0.0.0,2560x1440,2327x1309,Temporal Distance Task,cb_01,45.0,temp_dist_trial,num_items,zn7si1,1.0,response,1_ITEM,1025.0999999999767,1018.8999999999942,1025.0999999999767,1025.0999999999767,1018.8999999999942,1025.0999999999767,1.0,0.0,0.0,,Click Response,1_count,3.0,object-46,temp_dist_trial,45.0,s_s_15_1,student_stem,jumper cables,1.0,unique,single,s_s_15_1.jpg,Student,$${counterbalance_group},,sub-82
Desktop or Laptop,Windows 10,Chrome 138.0.0.0,2560x1440,2327x1309,Temporal Distance Task,cb_01,46.0,temp_dist_trial,num_items,zn7si1,1.0,response,2_ITEM,915.2999999996392,912.6000000000058,915.2999999996392,915.2999999996392,912.6000000000058,915.2999999996392,1.0,0.0,0.0,,Click Response,2_count,5.0,object-49,temp_dist_trial,46.0,s_a_17_1,student_art,microphone,1.0,unique,paired,s_a_17_1.jpg,Student,$${counterbalance_group},,sub-82
Desktop or Laptop,Windows 10,Chrome 138.0.0.0,2560x1440,2327x1309,Temporal Distance Task,cb_01,46.0,temp_dist_trial,dist_items,qkpkxw,2.0,info,,2.400000000372529,0.0,2.400000000372529,2.400000000372529,0.0,2.400000000372529,1.0,0.0,0.0,,Slider,Slider,4.0,object-56,temp_dist_trial,46.0,s_a_17_1,student_art,microphone,1.0,unique,paired,s_a_17_1.jpg,Student,$${counterbalance_group},,sub-82
Desktop or Laptop,Windows 10,Chrome 138.0.0.0,2560x1440,2327x1309,Temporal Distance Task,cb_01,46.0,temp_dist_trial,dist_items,qkpkxw,2.0,continue,,2026.2999999998133,2025.2000000000119,2026.2999999998133,2026.2999999998133,2025.2000000000119,2026.2999999998133,1.0,0.0,0.0,,Click To Continue,Next button,7.0,object-60,temp_dist_trial,46.0,s_a_17_1,student_art,microphone,1.0,unique,paired,s_a_17_1.jpg,Student,$${counterbalance_group},,sub-82
Desktop or Laptop,Windows 10,Chrome 138.0.0.0,2560x1440,2327x1309,Temporal Distance Task,cb_01,46.0,temp_dist_trial,dist_items,qkpkxw,2.0,response,56,625.0,2025.2000000000119,2026.5999999996275,625.0,2025.2000000000119,2026.5999999996275,1.0,1401.5999999996275,0.0,,Slider,Slider,4.0,object-56,temp_dist_trial,46.0,s_a_17_1,student_art,microphone,1.0,unique,paired,s_a_17_1.jpg,Student,$${counterbalance_group},,sub-82
Desktop or Laptop,Windows 10,Chrome 138.0.0.0,2560x1440,2327x1309,Temporal Distance Task,cb_01,47.0,temp_dist_trial,num_items,zn7si1,1.0,response,2_ITEM,726.2000000003609,725.0,726.2000000003609,726.2000000003609,725.0,726.2000000003609,1.0,0.0,0.0,,Click Response,2_count,5.0,object-49,temp_dist_trial,47.0,s_a_16_1,student_art,piano,1.0,unique,paired,s_a_16_1.jpg,Student,$${counterbalance_group},,sub-82
Desktop or Laptop,Windows 10,Chrome 138.0.0.0,2560x1440,2327x1309,Temporal Distance Task,cb_01,47.0,temp_dist_trial,dist_items,qkpkxw,2.0,info,,2.200000000011641,0.0,2.200000000011641,2.200000000011641,0.0,2.200000000011641,1.0,0.0,0.0,,Slider,Slider,4.0,object-56,temp_dist_trial,47.0,s_a_16_1,student_art,piano,1.0,unique,paired,s_a_16_1.jpg,Student,$${counterbalance_group},,sub-82
Desktop or Laptop,Windows 10,Chrome 138.0.0.0,2560x1440,2327x1309,Temporal Distance Task,cb_01,47.0,temp_dist_trial,dist_items,qkpkxw,2.0,continue,,2541.400000000198,2537.700000000012,2541.400000000198,2541.400000000198,2537.700000000012,2541.400000000198,1.0,0.0,0.0,,Click To Continue,Next button,7.0,object-60,temp_dist_trial,47.0,s_a_16_1,student_art,piano,1.0,unique,paired,s_a_16_1.jpg,Student,$${counterbalance_group},,sub-82
Desktop or Laptop,Windows 10,Chrome 138.0.0.0,2560x1440,2327x1309,Temporal Distance Task,cb_01,47.0,temp_dist_trial,dist_items,qkpkxw,2.0,response,59,450.40000000002334,2537.700000000012,2541.700000000012,450.40000000002334,2537.700000000012,2541.700000000012,1.0,2091.2999999999884,0.0,,Slider,Slider,4.0,object-56,temp_dist_trial,47.0,s_a_16_1,student_art,piano,1.0,unique,paired,s_a_16_1.jpg,Student,$${counterbalance_group},,sub-82
Desktop or Laptop,Windows 10,Chrome 138.0.0.0,2560x1440,2327x1309,Temporal Distance Task,cb_01,48.0,temp_dist_trial,num_items,zn7si1,1.0,response,2_ITEM,1086.2999999998137,1081.3999999999942,1086.2999999998137,1086.2999999998137,1081.3999999999942,1086.2999999998137,1.0,0.0,0.0,,Click Response,2_count,5.0,object-49,temp_dist_trial,48.0,s_sh_01_1,student_shared,notebook,1.0,competing,single,s_sh_01_1.jpg,Student,$${counterbalance_group},,sub-82
Desktop or Laptop,Windows 10,Chrome 138.0.0.0,2560x1440,2327x1309,Temporal Distance Task,cb_01,48.0,temp_dist_trial,dist_items,qkpkxw,2.0,info,,2.2999999998137355,0.0,2.2999999998137355,2.2999999998137355,0.0,2.2999999998137355,1.0,0.0,0.0,,Slider,Slider,4.0,object-56,temp_dist_trial,48.0,s_sh_01_1,student_shared,notebook,1.0,competing,single,s_sh_01_1.jpg,Student,$${counterbalance_group},,sub-82
Desktop or Laptop,Windows 10,Chrome 138.0.0.0,2560x1440,2327x1309,Temporal Distance Task,cb_01,48.0,temp_dist_trial,dist_items,qkpkxw,2.0,continue,,1113.0,1112.6000000000058,1113.0,1113.0,1112.6000000000058,1113.0,1.0,0.0,0.0,,Click To Continue,Next button,7.0,object-60,temp_dist_trial,48.0,s_sh_01_1,student_shared,notebook,1.0,competing,single,s_sh_01_1.jpg,Student,$${counterbalance_group},,sub-82
Desktop or Laptop,Windows 10,Chrome 138.0.0.0,2560x1440,2327x1309,Temporal Distance Task,cb_01,48.0,temp_dist_trial,dist_items,qkpkxw,2.0,response,42,425.1000000000058,1112.6000000000058,1113.2999999998137,425.1000000000058,1112.6000000000058,1113.2999999998137,1.0,688.1999999998079,0.0,,Slider,Slider,4.0,object-56,temp_dist_trial,48.0,s_sh_01_1,student_shared,notebook,1.0,competing,single,s_sh_01_1.jpg,Student,$${counterbalance_group},,sub-82
Desktop or Laptop,Windows 10,Chrome 138.0.0.0,2560x1440,2327x1309,Temporal Distance Task,cb_01,2.0,temp_eventStart,Screen 1,dgtyxe,1.0,continue,,2909.4999999996217,2906.699999999982,2909.4999999996217,2909.4999999996217,2906.699999999982,2909.4999999996217,1.0,0.0,0.0,,Click To Continue,Next Button,3.0,object-43,temp_eventStart,,,Travel,,,,,,,$${counterbalance_group},,sub-82
Desktop or Laptop,Windows 10,Chrome 138.0.0.0,2560x1440,2327x1309,Temporal Distance Task,cb_01,49.0,temp_dist_trial,num_items,zn7si1,1.0,response,2_ITEM,1069.7000000000116,1068.8000000000177,1069.7000000000116,1069.7000000000116,1068.8000000000177,1069.7000000000116,1.0,0.0,0.0,,Click Response,2_count,5.0,object-49,temp_dist_trial,1.0,t_s_02_1,travel_shared,water bottle,1.0,competing,paired,t_s_02_1.jpg,Travel,$${counterbalance_group},,sub-82
Desktop or Laptop,Windows 10,Chrome 138.0.0.0,2560x1440,2327x1309,Temporal Distance Task,cb_01,49.0,temp_dist_trial,dist_items,qkpkxw,2.0,info,,2.3000000003667083,0.0,2.3000000003667083,2.3000000003667083,0.0,2.3000000003667083,1.0,0.0,0.0,,Slider,Slider,4.0,object-56,temp_dist_trial,1.0,t_s_02_1,travel_shared,water bottle,1.0,competing,paired,t_s_02_1.jpg,Travel,$${counterbalance_group},,sub-82
Desktop or Laptop,Windows 10,Chrome 138.0.0.0,2560x1440,2327x1309,Temporal Distance Task,cb_01,49.0,temp_dist_trial,dist_items,qkpkxw,2.0,continue,,1406.3999999999646,1400.1999999999825,1406.3999999999646,1406.3999999999646,1400.1999999999825,1406.3999999999646,1.0,0.0,0.0,,Click To Continue,Next button,7.0,object-60,temp_dist_trial,1.0,t_s_02_1,travel_shared,water bottle,1.0,competing,paired,t_s_02_1.jpg,Travel,$${counterbalance_group},,sub-82
Desktop or Laptop,Windows 10,Chrome 138.0.0.0,2560x1440,2327x1309,Temporal Distance Task,cb_01,49.0,temp_dist_trial,dist_items,qkpkxw,2.0,response,46,537.6000000000058,1400.1999999999825,1406.3999999999646,537.6000000000058,1400.1999999999825,1406.3999999999646,1.0,868.7999999999593,0.0,,Slider,Slider,4.0,object-56,temp_dist_trial,1.0,t_s_02_1,travel_shared,water bottle,1.0,competing,paired,t_s_02_1.jpg,Travel,$${counterbalance_group},,sub-82
Desktop or Laptop,Windows 10,Chrome 138.0.0.0,2560x1440,2327x1309,Temporal Distance Task,cb_01,50.0,temp_dist_trial,num_items,zn7si1,1.0,response,2_ITEM,1255.7999999996389,1250.1000000000058,1255.7999999996389,1255.7999999996389,1250.1000000000058,1255.7999999996389,1.0,0.0,0.0,,Click Response,2_count,5.0,object-49,temp_dist_trial,2.0,t_m_18_1,travel_Miami,waterproof tote,1.0,unique,paired,t_m_18_1.jpg,Travel,$${counterbalance_group},,sub-82
Desktop or Laptop,Windows 10,Chrome 138.0.0.0,2560x1440,2327x1309,Temporal Distance Task,cb_01,50.0,temp_dist_trial,dist_items,qkpkxw,2.0,info,,2.5000000003783502,0.0,2.5000000003783502,2.5000000003783502,0.0,2.5000000003783502,1.0,0.0,0.0,,Slider,Slider,4.0,object-56,temp_dist_trial,2.0,t_m_18_1,travel_Miami,waterproof tote,1.0,unique,paired,t_m_18_1.jpg,Travel,$${counterbalance_group},,sub-82
Desktop or Laptop,Windows 10,Chrome 138.0.0.0,2560x1440,2327x1309,Temporal Distance Task,cb_01,50.0,temp_dist_trial,dist_items,qkpkxw,2.0,continue,,2089.5000000003783,2087.8000000000175,2089.5000000003783,2089.5000000003783,2087.8000000000175,2089.5000000003783,1.0,0.0,0.0,,Click To Continue,Next button,7.0,object-60,temp_dist_trial,2.0,t_m_18_1,travel_Miami,waterproof tote,1.0,unique,paired,t_m_18_1.jpg,Travel,$${counterbalance_group},,sub-82
Desktop or Laptop,Windows 10,Chrome 138.0.0.0,2560x1440,2327x1309,Temporal Distance Task,cb_01,50.0,temp_dist_trial,dist_items,qkpkxw,2.0,response,54,1112.8000000000177,2087.8000000000175,2089.6999999996333,1112.8000000000177,2087.8000000000175,2089.6999999996333,1.0,976.8999999996158,0.0,,Slider,Slider,4.0,object-56,temp_dist_trial,2.0,t_m_18_1,travel_Miami,waterproof tote,1.0,unique,paired,t_m_18_1.jpg,Travel,$${counterbalance_group},,sub-82
Desktop or Laptop,Windows 10,Chrome 138.0.0.0,2560x1440,2327x1309,Temporal Distance Task,cb_01,51.0,temp_dist_trial,num_items,zn7si1,1.0,response,1_ITEM,938.7000000003608,937.5999999999768,938.7000000003608,938.7000000003608,937.5999999999768,938.7000000003608,1.0,0.0,0.0,,Click Response,1_count,3.0,object-46,temp_dist_trial,3.0,t_s_01_1,travel_shared,fanny pack,1.0,competing,single,t_s_01_1.jpg,Travel,$${counterbalance_group},,sub-82
Desktop or Laptop,Windows 10,Chrome 138.0.0.0,2560x1440,2327x1309,Temporal Distance Task,cb_01,52.0,temp_dist_trial,num_items,zn7si1,1.0,response,2_ITEM,1108.1000000003842,1106.4000000000233,1108.1000000003842,1108.1000000003842,1106.4000000000233,1108.1000000003842,1.0,0.0,0.0,,Click Response,2_count,5.0,object-49,temp_dist_trial,4.0,t_s_12_1,travel_shared,clear toiletry bag,1.0,competing,paired,t_s_12_1.jpg,Travel,$${counterbalance_group},,sub-82
Desktop or Laptop,Windows 10,Chrome 138.0.0.0,2560x1440,2327x1309,Temporal Distance Task,cb_01,52.0,temp_dist_trial,dist_items,qkpkxw,2.0,info,,2.399999999615829,0.0,2.399999999615829,2.399999999615829,0.0,2.399999999615829,1.0,0.0,0.0,,Slider,Slider,4.0,object-56,temp_dist_trial,4.0,t_s_12_1,travel_shared,clear toiletry bag,1.0,competing,paired,t_s_12_1.jpg,Travel,$${counterbalance_group},,sub-82
Desktop or Laptop,Windows 10,Chrome 138.0.0.0,2560x1440,2327x1309,Temporal Distance Task,cb_01,52.0,temp_dist_trial,dist_items,qkpkxw,2.0,continue,,1164.7999999999886,1162.6999999999825,1164.7999999999886,1164.7999999999886,1162.6999999999825,1164.7999999999886,1.0,0.0,0.0,,Click To Continue,Next button,7.0,object-60,temp_dist_trial,4.0,t_s_12_1,travel_shared,clear toiletry bag,1.0,competing,paired,t_s_12_1.jpg,Travel,$${counterbalance_group},,sub-82
Desktop or Laptop,Windows 10,Chrome 138.0.0.0,2560x1440,2327x1309,Temporal Distance Task,cb_01,52.0,temp_dist_trial,dist_items,qkpkxw,2.0,response,36,443.8999999999942,1162.6999999999825,1166.5999999998019,443.8999999999942,1162.6999999999825,1166.5999999998019,1.0,722.6999999998079,0.0,,Slider,Slider,4.0,object-56,temp_dist_trial,4.0,t_s_12_1,travel_shared,clear toiletry bag,1.0,competing,paired,t_s_12_1.jpg,Travel,$${counterbalance_group},,sub-82
Desktop or Laptop,Windows 10,Chrome 138.0.0.0,2560x1440,2327x1309,Temporal Distance Task,cb_01,53.0,temp_dist_trial,num_items,zn7si1,1.0,response,1_ITEM,1251.1000000000058,1250.2000000000114,1251.1000000000058,1251.1000000000058,1250.2000000000114,1251.1000000000058,1.0,0.0,0.0,,Click Response,1_count,3.0,object-46,temp_dist_trial,5.0,t_s_06_1,travel_shared,luggage,1.0,competing,paired,t_s_06_1.jpg,Travel,$${counterbalance_group},,sub-82
Desktop or Laptop,Windows 10,Chrome 138.0.0.0,2560x1440,2327x1309,Temporal Distance Task,cb_01,54.0,temp_dist_trial,num_items,zn7si1,1.0,response,2_ITEM,901.8999999999942,900.1000000000058,901.8999999999942,901.8999999999942,900.1000000000058,901.8999999999942,1.0,0.0,0.0,,Click Response,2_count,5.0,object-49,temp_dist_trial,6.0,t_i_20_1,travel_Iceland,lantern,1.0,unique,paired,t_i_20_1.jpg,Travel,$${counterbalance_group},,sub-82
Desktop or Laptop,Windows 10,Chrome 138.0.0.0,2560x1440,2327x1309,Temporal Distance Task,cb_01,54.0,temp_dist_trial,dist_items,qkpkxw,2.0,info,,2.1999999998079147,0.0,2.1999999998079147,2.1999999998079147,0.0,2.1999999998079147,1.0,0.0,0.0,,Slider,Slider,4.0,object-56,temp_dist_trial,6.0,t_i_20_1,travel_Iceland,lantern,1.0,unique,paired,t_i_20_1.jpg,Travel,$${counterbalance_group},,sub-82
Desktop or Laptop,Windows 10,Chrome 138.0.0.0,2560x1440,2327x1309,Temporal Distance Task,cb_01,54.0,temp_dist_trial,dist_items,qkpkxw,2.0,continue,,3298.8999999999933,3294.199999999982,3298.8999999999933,3298.8999999999933,3294.199999999982,3298.8999999999933,1.0,0.0,0.0,,Click To Continue,Next button,7.0,object-60,temp_dist_trial,6.0,t_i_20_1,travel_Iceland,lantern,1.0,unique,paired,t_i_20_1.jpg,Travel,$${counterbalance_group},,sub-82
Desktop or Laptop,Windows 10,Chrome 138.0.0.0,2560x1440,2327x1309,Temporal Distance Task,cb_01,54.0,temp_dist_trial,dist_items,qkpkxw,2.0,response,71,756.5,3294.199999999982,3299.1000000001804,756.5,3294.199999999982,3299.1000000001804,1.0,2542.6000000001804,0.0,,Slider,Slider,4.0,object-56,temp_dist_trial,6.0,t_i_20_1,travel_Iceland,lantern,1.0,unique,paired,t_i_20_1.jpg,Travel,$${counterbalance_group},,sub-82
Desktop or Laptop,Windows 10,Chrome 138.0.0.0,2560x1440,2327x1309,Temporal Distance Task,cb_01,55.0,temp_dist_trial,num_items,zn7si1,1.0,response,2_ITEM,809.6000000003842,806.3000000000177,809.6000000003842,809.6000000003842,806.3000000000177,809.6000000003842,1.0,0.0,0.0,,Click Response,2_count,5.0,object-49,temp_dist_trial,7.0,t_s_16_1,travel_shared,chapstick,1.0,competing,paired,t_s_16_1.jpg,Travel,$${counterbalance_group},,sub-82
Desktop or Laptop,Windows 10,Chrome 138.0.0.0,2560x1440,2327x1309,Temporal Distance Task,cb_01,55.0,temp_dist_trial,dist_items,qkpkxw,2.0,info,,2.399999999615829,0.0,2.399999999615829,2.399999999615829,0.0,2.399999999615829,1.0,0.0,0.0,,Slider,Slider,4.0,object-56,temp_dist_trial,7.0,t_s_16_1,travel_shared,chapstick,1.0,competing,paired,t_s_16_1.jpg,Travel,$${counterbalance_group},,sub-82
Desktop or Laptop,Windows 10,Chrome 138.0.0.0,2560x1440,2327x1309,Temporal Distance Task,cb_01,55.0,temp_dist_trial,dist_items,qkpkxw,2.0,continue,,2464.2999999999884,2462.7999999999884,2464.2999999999884,2464.2999999999884,2462.7999999999884,2464.2999999999884,1.0,0.0,0.0,,Click To Continue,Next button,7.0,object-60,temp_dist_trial,7.0,t_s_16_1,travel_shared,chapstick,1.0,competing,paired,t_s_16_1.jpg,Travel,$${counterbalance_group},,sub-82
Desktop or Laptop,Windows 10,Chrome 138.0.0.0,2560x1440,2327x1309,Temporal Distance Task,cb_01,55.0,temp_dist_trial,dist_items,qkpkxw,2.0,response,58,562.5,2462.7999999999884,2464.599999999802,562.5,2462.7999999999884,2464.599999999802,1.0,1902.0999999998016,0.0,,Slider,Slider,4.0,object-56,temp_dist_trial,7.0,t_s_16_1,travel_shared,chapstick,1.0,competing,paired,t_s_16_1.jpg,Travel,$${counterbalance_group},,sub-82
Desktop or Laptop,Windows 10,Chrome 138.0.0.0,2560x1440,2327x1309,Temporal Distance Task,cb_01,56.0,temp_dist_trial,num_items,zn7si1,1.0,response,2_ITEM,817.5999999996277,812.6000000000058,817.5999999996277,817.5999999996277,812.6000000000058,817.5999999996277,1.0,0.0,0.0,,Click Response,2_count,5.0,object-49,temp_dist_trial,8.0,t_s_07_1,travel_shared,phone charger cable,1.0,competing,paired,t_s_07_1.jpg,Travel,$${counterbalance_group},,sub-82
Desktop or Laptop,Windows 10,Chrome 138.0.0.0,2560x1440,2327x1309,Temporal Distance Task,cb_01,56.0,temp_dist_trial,dist_items,qkpkxw,2.0,info,,2.1999999998079147,0.0,2.1999999998079147,2.1999999998079147,0.0,2.1999999998079147,1.0,0.0,0.0,,Slider,Slider,4.0,object-56,temp_dist_trial,8.0,t_s_07_1,travel_shared,phone charger cable,1.0,competing,paired,t_s_07_1.jpg,Travel,$${counterbalance_group},,sub-82
Desktop or Laptop,Windows 10,Chrome 138.0.0.0,2560x1440,2327x1309,Temporal Distance Task,cb_01,56.0,temp_dist_trial,dist_items,qkpkxw,2.0,continue,,1459.9999999996217,1456.5,1459.9999999996217,1459.9999999996217,1456.5,1459.9999999996217,1.0,0.0,0.0,,Click To Continue,Next button,7.0,object-60,temp_dist_trial,8.0,t_s_07_1,travel_shared,phone charger cable,1.0,competing,paired,t_s_07_1.jpg,Travel,$${counterbalance_group},,sub-82
Desktop or Laptop,Windows 10,Chrome 138.0.0.0,2560x1440,2327x1309,Temporal Distance Task,cb_01,56.0,temp_dist_trial,dist_items,qkpkxw,2.0,response,46,537.6000000000058,1456.5,1460.1999999998081,537.6000000000058,1456.5,1460.1999999998081,1.0,922.599999999802,0.0,,Slider,Slider,4.0,object-56,temp_dist_trial,8.0,t_s_07_1,travel_shared,phone charger cable,1.0,competing,paired,t_s_07_1.jpg,Travel,$${counterbalance_group},,sub-82
Desktop or Laptop,Windows 10,Chrome 138.0.0.0,2560x1440,2327x1309,Temporal Distance Task,cb_01,57.0,temp_dist_trial,num_items,zn7si1,1.0,response,2_ITEM,859.6000000001802,856.1999999999823,859.6000000001802,859.6000000001802,856.1999999999823,859.6000000001802,1.0,0.0,0.0,,Click Response,2_count,5.0,object-49,temp_dist_trial,9.0,t_m_17_1,travel_Miami,water gun,1.0,unique,paired,t_m_17_1.jpg,Travel,$${counterbalance_group},,sub-82
Desktop or Laptop,Windows 10,Chrome 138.0.0.0,2560x1440,2327x1309,Temporal Distance Task,cb_01,57.0,temp_dist_trial,dist_items,qkpkxw,2.0,info,,2.3000000001920853,0.0,2.3000000001920853,2.3000000001920853,0.0,2.3000000001920853,1.0,0.0,0.0,,Slider,Slider,4.0,object-56,temp_dist_trial,9.0,t_m_17_1,travel_Miami,water gun,1.0,unique,paired,t_m_17_1.jpg,Travel,$${counterbalance_group},,sub-82
Desktop or Laptop,Windows 10,Chrome 138.0.0.0,2560x1440,2327x1309,Temporal Distance Task,cb_01,57.0,temp_dist_trial,dist_items,qkpkxw,2.0,continue,,1397.1000000000058,1393.8999999999942,1397.1000000000058,1397.1000000000058,1393.8999999999942,1397.1000000000058,1.0,0.0,0.0,,Click To Continue,Next button,7.0,object-60,temp_dist_trial,9.0,t_m_17_1,travel_Miami,water gun,1.0,unique,paired,t_m_17_1.jpg,Travel,$${counterbalance_group},,sub-82
Desktop or Laptop,Windows 10,Chrome 138.0.0.0,2560x1440,2327x1309,Temporal Distance Task,cb_01,57.0,temp_dist_trial,dist_items,qkpkxw,2.0,response,13,425.1000000000058,1393.8999999999942,1397.5000000003783,425.1000000000058,1393.8999999999942,1397.5000000003783,1.0,972.4000000003723,0.0,,Slider,Slider,4.0,object-56,temp_dist_trial,9.0,t_m_17_1,travel_Miami,water gun,1.0,unique,paired,t_m_17_1.jpg,Travel,$${counterbalance_group},,sub-82
Desktop or Laptop,Windows 10,Chrome 138.0.0.0,2560x1440,2327x1309,Temporal Distance Task,cb_01,58.0,temp_dist_trial,num_items,zn7si1,1.0,response,1_ITEM,1002.2999999996392,1000.1000000000058,1002.2999999996392,1002.2999999996392,1000.1000000000058,1002.2999999996392,1.0,0.0,0.0,,Click Response,1_count,3.0,object-46,temp_dist_trial,10.0,t_m_03_1,travel_Miami,wetsuit,1.0,unique,single,t_m_03_1.jpg,Travel,$${counterbalance_group},,sub-82
Desktop or Laptop,Windows 10,Chrome 138.0.0.0,2560x1440,2327x1309,Temporal Distance Task,cb_01,59.0,temp_dist_trial,num_items,zn7si1,1.0,response,1_ITEM,950.0999999999768,943.8999999999942,950.0999999999768,950.0999999999768,943.8999999999942,950.0999999999768,1.0,0.0,0.0,,Click Response,1_count,3.0,object-46,temp_dist_trial,11.0,t_i_16_1,travel_Iceland,skis,1.0,unique,single,t_i_16_1.jpg,Travel,$${counterbalance_group},,sub-82
Desktop or Laptop,Windows 10,Chrome 138.0.0.0,2560x1440,2327x1309,Temporal Distance Task,cb_01,60.0,temp_dist_trial,num_items,zn7si1,1.0,response,2_ITEM,1770.2000000000116,1769.0,1770.2000000000116,1770.2000000000116,1769.0,1770.2000000000116,1.0,0.0,0.0,,Click Response,2_count,5.0,object-49,temp_dist_trial,12.0,t_s_09_1,travel_shared,wallet,1.0,competing,paired,t_s_09_1.jpg,Travel,$${counterbalance_group},,sub-82
Desktop or Laptop,Windows 10,Chrome 138.0.0.0,2560x1440,2327x1309,Temporal Distance Task,cb_01,60.0,temp_dist_trial,dist_items,qkpkxw,2.0,info,,2.200000000011641,0.0,2.200000000011641,2.200000000011641,0.0,2.200000000011641,1.0,0.0,0.0,,Slider,Slider,4.0,object-56,temp_dist_trial,12.0,t_s_09_1,travel_shared,wallet,1.0,competing,paired,t_s_09_1.jpg,Travel,$${counterbalance_group},,sub-82
Desktop or Laptop,Windows 10,Chrome 138.0.0.0,2560x1440,2327x1309,Temporal Distance Task,cb_01,60.0,temp_dist_trial,dist_items,qkpkxw,2.0,continue,,2484.200000000012,2481.6000000000063,2484.200000000012,2484.200000000012,2481.6000000000063,2484.200000000012,1.0,0.0,0.0,,Click To Continue,Next button,7.0,object-60,temp_dist_trial,12.0,t_s_09_1,travel_shared,wallet,1.0,competing,paired,t_s_09_1.jpg,Travel,$${counterbalance_group},,sub-82
Desktop or Laptop,Windows 10,Chrome 138.0.0.0,2560x1440,2327x1309,Temporal Distance Task,cb_01,60.0,temp_dist_trial,dist_items,qkpkxw,2.0,response,58,712.6000000000058,2481.6000000000063,2486.1000000003837,712.6000000000058,2481.6000000000063,2486.1000000003837,1.0,1773.5000000003783,0.0,,Slider,Slider,4.0,object-56,temp_dist_trial,12.0,t_s_09_1,travel_shared,wallet,1.0,competing,paired,t_s_09_1.jpg,Travel,$${counterbalance_group},,sub-82
Desktop or Laptop,Windows 10,Chrome 138.0.0.0,2560x1440,2327x1309,Temporal Distance Task,cb_01,61.0,temp_dist_trial,num_items,zn7si1,1.0,response,1_ITEM,1116.5000000003783,1112.6000000000058,1116.5000000003783,1116.5000000003783,1112.6000000000058,1116.5000000003783,1.0,0.0,0.0,,Click Response,1_count,3.0,object-46,temp_dist_trial,13.0,t_s_13_1,travel_shared,contact lens case,1.0,competing,single,t_s_13_1.jpg,Travel,$${counterbalance_group},,sub-82
Desktop or Laptop,Windows 10,Chrome 138.0.0.0,2560x1440,2327x1309,Temporal Distance Task,cb_01,62.0,temp_dist_trial,num_items,zn7si1,1.0,response,1_ITEM,914.7999999998137,912.6000000000058,914.7999999998137,914.7999999998137,912.6000000000058,914.7999999998137,1.0,0.0,0.0,,Click Response,1_count,3.0,object-46,temp_dist_trial,14.0,t_i_18_1,travel_Iceland,ski mask,1.0,unique,single,t_i_18_1.jpg,Travel,$${counterbalance_group},,sub-82
Desktop or Laptop,Windows 10,Chrome 138.0.0.0,2560x1440,2327x1309,Temporal Distance Task,cb_01,63.0,temp_dist_trial,num_items,zn7si1,1.0,response,2_ITEM,976.099999999802,975.0999999999768,976.099999999802,976.099999999802,975.0999999999768,976.099999999802,1.0,0.0,0.0,,Click Response,2_count,5.0,object-49,temp_dist_trial,15.0,t_s_05_1,travel_shared,neck pillow,1.0,competing,paired,t_s_05_1.jpg,Travel,$${counterbalance_group},,sub-82
Desktop or Laptop,Windows 10,Chrome 138.0.0.0,2560x1440,2327x1309,Temporal Distance Task,cb_01,63.0,temp_dist_trial,dist_items,qkpkxw,2.0,info,,2.499999999825377,0.0,2.499999999825377,2.499999999825377,0.0,2.499999999825377,1.0,0.0,0.0,,Slider,Slider,4.0,object-56,temp_dist_trial,15.0,t_s_05_1,travel_shared,neck pillow,1.0,competing,paired,t_s_05_1.jpg,Travel,$${counterbalance_group},,sub-82
Desktop or Laptop,Windows 10,Chrome 138.0.0.0,2560x1440,2327x1309,Temporal Distance Task,cb_01,63.0,temp_dist_trial,dist_items,qkpkxw,2.0,continue,,1041.2000000000116,1037.6000000000058,1041.2000000000116,1041.2000000000116,1037.6000000000058,1041.2000000000116,1.0,0.0,0.0,,Click To Continue,Next button,7.0,object-60,temp_dist_trial,15.0,t_s_05_1,travel_shared,neck pillow,1.0,competing,paired,t_s_05_1.jpg,Travel,$${counterbalance_group},,sub-82
Desktop or Laptop,Windows 10,Chrome 138.0.0.0,2560x1440,2327x1309,Temporal Distance Task,cb_01,63.0,temp_dist_trial,dist_items,qkpkxw,2.0,response,40,437.5,1037.6000000000058,1041.4999999998254,437.5,1037.6000000000058,1041.4999999998254,1.0,603.9999999998254,0.0,,Slider,Slider,4.0,object-56,temp_dist_trial,15.0,t_s_05_1,travel_shared,neck pillow,1.0,competing,paired,t_s_05_1.jpg,Travel,$${counterbalance_group},,sub-82
Desktop or Laptop,Windows 10,Chrome 138.0.0.0,2560x1440,2327x1309,Temporal Distance Task,cb_01,64.0,temp_dist_trial,num_items,zn7si1,1.0,response,2_ITEM,1118.5000000003783,1112.6000000000058,1118.5000000003783,1118.5000000003783,1112.6000000000058,1118.5000000003783,1.0,0.0,0.0,,Click Response,2_count,5.0,object-49,temp_dist_trial,16.0,t_i_19_1,travel_Iceland,rope,1.0,unique,paired,t_i_19_1.jpg,Travel,$${counterbalance_group},,sub-82
Desktop or Laptop,Windows 10,Chrome 138.0.0.0,2560x1440,2327x1309,Temporal Distance Task,cb_01,64.0,temp_dist_trial,dist_items,qkpkxw,2.0,info,,2.7000000001862645,0.0,2.7000000001862645,2.7000000001862645,0.0,2.7000000001862645,1.0,0.0,0.0,,Slider,Slider,4.0,object-56,temp_dist_trial,16.0,t_i_19_1,travel_Iceland,rope,1.0,unique,paired,t_i_19_1.jpg,Travel,$${counterbalance_group},,sub-82
Desktop or Laptop,Windows 10,Chrome 138.0.0.0,2560x1440,2327x1309,Temporal Distance Task,cb_01,64.0,temp_dist_trial,dist_items,qkpkxw,2.0,continue,,2400.7999999998137,2400.3999999999937,2400.7999999998137,2400.7999999998137,2400.3999999999937,2400.7999999998137,1.0,0.0,0.0,,Click To Continue,Next button,7.0,object-60,temp_dist_trial,16.0,t_i_19_1,travel_Iceland,rope,1.0,unique,paired,t_i_19_1.jpg,Travel,$${counterbalance_group},,sub-82
Desktop or Laptop,Windows 10,Chrome 138.0.0.0,2560x1440,2327x1309,Temporal Distance Task,cb_01,64.0,temp_dist_trial,dist_items,qkpkxw,2.0,response,61,1500.2999999999884,2400.3999999999937,2401.0999999996275,1500.2999999999884,2400.3999999999937,2401.0999999996275,1.0,900.7999999996392,0.0,,Slider,Slider,4.0,object-56,temp_dist_trial,16.0,t_i_19_1,travel_Iceland,rope,1.0,unique,paired,t_i_19_1.jpg,Travel,$${counterbalance_group},,sub-82
Desktop or Laptop,Windows 10,Chrome 138.0.0.0,2560x1440,2327x1309,Temporal Distance Task,cb_01,65.0,temp_dist_trial,num_items,zn7si1,1.0,response,2_ITEM,1122.6999999996333,1118.8000000000177,1122.6999999996333,1122.6999999996333,1118.8000000000177,1122.6999999996333,1.0,0.0,0.0,,Click Response,2_count,5.0,object-49,temp_dist_trial,17.0,t_i_08_1,travel_Iceland,thick socks,1.0,unique,paired,t_i_08_1.jpg,Travel,$${counterbalance_group},,sub-82
Desktop or Laptop,Windows 10,Chrome 138.0.0.0,2560x1440,2327x1309,Temporal Distance Task,cb_01,65.0,temp_dist_trial,dist_items,qkpkxw,2.0,info,,2.2999999996391125,0.0,2.2999999996391125,2.2999999996391125,0.0,2.2999999996391125,1.0,0.0,0.0,,Slider,Slider,4.0,object-56,temp_dist_trial,17.0,t_i_08_1,travel_Iceland,thick socks,1.0,unique,paired,t_i_08_1.jpg,Travel,$${counterbalance_group},,sub-82
Desktop or Laptop,Windows 10,Chrome 138.0.0.0,2560x1440,2327x1309,Temporal Distance Task,cb_01,65.0,temp_dist_trial,dist_items,qkpkxw,2.0,continue,,3024.6000000003837,3019.1000000000067,3024.6000000003837,3024.6000000003837,3019.1000000000067,3024.6000000003837,1.0,0.0,0.0,,Click To Continue,Next button,7.0,object-60,temp_dist_trial,17.0,t_i_08_1,travel_Iceland,thick socks,1.0,unique,paired,t_i_08_1.jpg,Travel,$${counterbalance_group},,sub-82
Desktop or Laptop,Windows 10,Chrome 138.0.0.0,2560x1440,2327x1309,Temporal Distance Task,cb_01,65.0,temp_dist_trial,dist_items,qkpkxw,2.0,response,44,2012.7000000000119,3019.1000000000067,3025.3999999999933,2012.7000000000119,3019.1000000000067,3025.3999999999933,1.0,1012.6999999999823,0.0,,Slider,Slider,4.0,object-56,temp_dist_trial,17.0,t_i_08_1,travel_Iceland,thick socks,1.0,unique,paired,t_i_08_1.jpg,Travel,$${counterbalance_group},,sub-82
Desktop or Laptop,Windows 10,Chrome 138.0.0.0,2560x1440,2327x1309,Temporal Distance Task,cb_01,66.0,temp_dist_trial,num_items,zn7si1,1.0,response,2_ITEM,771.3999999998198,768.8999999999942,771.3999999998198,771.3999999998198,768.8999999999942,771.3999999998198,1.0,0.0,0.0,,Click Response,2_count,5.0,object-49,temp_dist_trial,18.0,t_m_01_1,travel_Miami,sandals,1.0,unique,paired,t_m_01_1.jpg,Travel,$${counterbalance_group},,sub-82
Desktop or Laptop,Windows 10,Chrome 138.0.0.0,2560x1440,2327x1309,Temporal Distance Task,cb_01,66.0,temp_dist_trial,dist_items,qkpkxw,2.0,info,,2.399999999615829,0.0,2.399999999615829,2.399999999615829,0.0,2.399999999615829,1.0,0.0,0.0,,Slider,Slider,4.0,object-56,temp_dist_trial,18.0,t_m_01_1,travel_Miami,sandals,1.0,unique,paired,t_m_01_1.jpg,Travel,$${counterbalance_group},,sub-82
Desktop or Laptop,Windows 10,Chrome 138.0.0.0,2560x1440,2327x1309,Temporal Distance Task,cb_01,66.0,temp_dist_trial,dist_items,qkpkxw,2.0,continue,,3507.700000000361,3506.699999999982,3507.700000000361,3507.700000000361,3506.699999999982,3507.700000000361,1.0,0.0,0.0,,Click To Continue,Next button,7.0,object-60,temp_dist_trial,18.0,t_m_01_1,travel_Miami,sandals,1.0,unique,paired,t_m_01_1.jpg,Travel,$${counterbalance_group},,sub-82
Desktop or Laptop,Windows 10,Chrome 138.0.0.0,2560x1440,2327x1309,Temporal Distance Task,cb_01,66.0,temp_dist_trial,dist_items,qkpkxw,2.0,response,38,862.5999999999768,3506.699999999982,3507.8999999996167,862.5999999999768,3506.699999999982,3507.8999999996167,1.0,2645.299999999639,0.0,,Slider,Slider,4.0,object-56,temp_dist_trial,18.0,t_m_01_1,travel_Miami,sandals,1.0,unique,paired,t_m_01_1.jpg,Travel,$${counterbalance_group},,sub-82
Desktop or Laptop,Windows 10,Chrome 138.0.0.0,2560x1440,2327x1309,Temporal Distance Task,cb_01,67.0,temp_dist_trial,num_items,zn7si1,1.0,response,1_ITEM,812.6000000000349,806.3000000000177,812.6000000000349,812.6000000000349,806.3000000000177,812.6000000000349,1.0,0.0,0.0,,Click Response,1_count,3.0,object-46,temp_dist_trial,19.0,t_i_14_1,travel_Iceland,snow pants,1.0,unique,single,t_i_14_1.jpg,Travel,$${counterbalance_group},,sub-82
Desktop or Laptop,Windows 10,Chrome 138.0.0.0,2560x1440,2327x1309,Temporal Distance Task,cb_01,68.0,temp_dist_trial,num_items,zn7si1,1.0,response,2_ITEM,935.7999999996392,931.3000000000177,935.7999999996392,935.7999999996392,931.3000000000177,935.7999999996392,1.0,0.0,0.0,,Click Response,2_count,5.0,object-49,temp_dist_trial,20.0,t_s_22_1,travel_shared,belt,1.0,competing,paired,t_s_22_1.jpg,Travel,$${counterbalance_group},,sub-82
Desktop or Laptop,Windows 10,Chrome 138.0.0.0,2560x1440,2327x1309,Temporal Distance Task,cb_01,68.0,temp_dist_trial,dist_items,qkpkxw,2.0,info,,3.100000000180444,0.0,3.100000000180444,3.100000000180444,0.0,3.100000000180444,1.0,0.0,0.0,,Slider,Slider,4.0,object-56,temp_dist_trial,20.0,t_s_22_1,travel_shared,belt,1.0,competing,paired,t_s_22_1.jpg,Travel,$${counterbalance_group},,sub-82
Desktop or Laptop,Windows 10,Chrome 138.0.0.0,2560x1440,2327x1309,Temporal Distance Task,cb_01,68.0,temp_dist_trial,dist_items,qkpkxw,2.0,continue,,1184.4999999996214,1181.3999999999942,1184.4999999996214,1184.4999999996214,1181.3999999999942,1184.4999999996214,1.0,0.0,0.0,,Click To Continue,Next button,7.0,object-60,temp_dist_trial,20.0,t_s_22_1,travel_shared,belt,1.0,competing,paired,t_s_22_1.jpg,Travel,$${counterbalance_group},,sub-82
Desktop or Laptop,Windows 10,Chrome 138.0.0.0,2560x1440,2327x1309,Temporal Distance Task,cb_01,68.0,temp_dist_trial,dist_items,qkpkxw,2.0,response,65,518.8999999999942,1181.3999999999942,1184.8000000003667,518.8999999999942,1181.3999999999942,1184.8000000003667,1.0,665.9000000003724,0.0,,Slider,Slider,4.0,object-56,temp_dist_trial,20.0,t_s_22_1,travel_shared,belt,1.0,competing,paired,t_s_22_1.jpg,Travel,$${counterbalance_group},,sub-82
Desktop or Laptop,Windows 10,Chrome 138.0.0.0,2560x1440,2327x1309,Temporal Distance Task,cb_01,69.0,temp_dist_trial,num_items,zn7si1,1.0,response,1_ITEM,952.9000000003723,950.1000000000058,952.9000000003723,952.9000000003723,950.1000000000058,952.9000000003723,1.0,0.0,0.0,,Click Response,1_count,3.0,object-46,temp_dist_trial,21.0,t_i_13_1,travel_Iceland,sleeping bag,1.0,unique,paired,t_i_13_1.jpg,Travel,$${counterbalance_group},,sub-82
Desktop or Laptop,Windows 10,Chrome 138.0.0.0,2560x1440,2327x1309,Temporal Distance Task,cb_01,70.0,temp_dist_trial,num_items,zn7si1,1.0,response,1_ITEM,1482.8000000003667,1481.5,1482.8000000003667,1482.8000000003667,1481.5,1482.8000000003667,1.0,0.0,0.0,,Click Response,1_count,3.0,object-46,temp_dist_trial,22.0,t_s_24_1,travel_shared,ear plugs,1.0,competing,single,t_s_24_1.jpg,Travel,$${counterbalance_group},,sub-82
Desktop or Laptop,Windows 10,Chrome 138.0.0.0,2560x1440,2327x1309,Temporal Distance Task,cb_01,71.0,temp_dist_trial,num_items,zn7si1,1.0,response,2_ITEM,1482.6000000001804,1481.3999999999942,1482.6000000001804,1482.6000000001804,1481.3999999999942,1482.6000000001804,1.0,0.0,0.0,,Click Response,2_count,5.0,object-49,temp_dist_trial,23.0,t_i_10_1,travel_Iceland,trekking poles,1.0,unique,paired,t_i_10_1.jpg,Travel,$${counterbalance_group},,sub-82
Desktop or Laptop,Windows 10,Chrome 138.0.0.0,2560x1440,2327x1309,Temporal Distance Task,cb_01,71.0,temp_dist_trial,dist_items,qkpkxw,2.0,info,,2.100000000180444,0.0,2.100000000180444,2.100000000180444,0.0,2.100000000180444,1.0,0.0,0.0,,Slider,Slider,4.0,object-56,temp_dist_trial,23.0,t_i_10_1,travel_Iceland,trekking poles,1.0,unique,paired,t_i_10_1.jpg,Travel,$${counterbalance_group},,sub-82
Desktop or Laptop,Windows 10,Chrome 138.0.0.0,2560x1440,2327x1309,Temporal Distance Task,cb_01,71.0,temp_dist_trial,dist_items,qkpkxw,2.0,continue,,1311.8999999999942,1306.2999999999886,1311.8999999999942,1311.8999999999942,1306.2999999999886,1311.8999999999942,1.0,0.0,0.0,,Click To Continue,Next button,7.0,object-60,temp_dist_trial,23.0,t_i_10_1,travel_Iceland,trekking poles,1.0,unique,paired,t_i_10_1.jpg,Travel,$${counterbalance_group},,sub-82
Desktop or Laptop,Windows 10,Chrome 138.0.0.0,2560x1440,2327x1309,Temporal Distance Task,cb_01,71.0,temp_dist_trial,dist_items,qkpkxw,2.0,response,42,581.2999999999884,1306.2999999999886,1312.1000000001804,581.2999999999884,1306.2999999999886,1312.1000000001804,1.0,730.8000000001921,0.0,,Slider,Slider,4.0,object-56,temp_dist_trial,23.0,t_i_10_1,travel_Iceland,trekking poles,1.0,unique,paired,t_i_10_1.jpg,Travel,$${counterbalance_group},,sub-82
Desktop or Laptop,Windows 10,Chrome 138.0.0.0,2560x1440,2327x1309,Temporal Distance Task,cb_01,72.0,temp_dist_trial,num_items,zn7si1,1.0,response,2_ITEM,1191.6000000000058,1187.7000000000114,1191.6000000000058,1191.6000000000058,1187.7000000000114,1191.6000000000058,1.0,0.0,0.0,,Click Response,2_count,5.0,object-49,temp_dist_trial,24.0,t_i_05_1,travel_Iceland,hiking boots,1.0,unique,paired,t_i_05_1.jpg,Travel,$${counterbalance_group},,sub-82
Desktop or Laptop,Windows 10,Chrome 138.0.0.0,2560x1440,2327x1309,Temporal Distance Task,cb_01,72.0,temp_dist_trial,dist_items,qkpkxw,2.0,info,,2.3999999998195563,0.0,2.3999999998195563,2.3999999998195563,0.0,2.3999999998195563,1.0,0.0,0.0,,Slider,Slider,4.0,object-56,temp_dist_trial,24.0,t_i_05_1,travel_Iceland,hiking boots,1.0,unique,paired,t_i_05_1.jpg,Travel,$${counterbalance_group},,sub-82
Desktop or Laptop,Windows 10,Chrome 138.0.0.0,2560x1440,2327x1309,Temporal Distance Task,cb_01,72.0,temp_dist_trial,dist_items,qkpkxw,2.0,continue,,1239.5000000003786,1237.6000000000058,1239.5000000003786,1239.5000000003786,1237.6000000000058,1239.5000000003786,1.0,0.0,0.0,,Click To Continue,Next button,7.0,object-60,temp_dist_trial,24.0,t_i_05_1,travel_Iceland,hiking boots,1.0,unique,paired,t_i_05_1.jpg,Travel,$${counterbalance_group},,sub-82
Desktop or Laptop,Windows 10,Chrome 138.0.0.0,2560x1440,2327x1309,Temporal Distance Task,cb_01,72.0,temp_dist_trial,dist_items,qkpkxw,2.0,response,54,518.8000000000175,1237.6000000000058,1239.6999999996333,518.8000000000175,1237.6000000000058,1239.6999999996333,1.0,720.8999999996158,0.0,,Slider,Slider,4.0,object-56,temp_dist_trial,24.0,t_i_05_1,travel_Iceland,hiking boots,1.0,unique,paired,t_i_05_1.jpg,Travel,$${counterbalance_group},,sub-82
Desktop or Laptop,Windows 10,Chrome 138.0.0.0,2560x1440,2327x1309,Temporal Distance Task,cb_01,73.0,temp_dist_trial,num_items,zn7si1,1.0,response,1_ITEM,996.9000000003723,993.8999999999942,996.9000000003723,996.9000000003723,993.8999999999942,996.9000000003723,1.0,0.0,0.0,,Click Response,1_count,3.0,object-46,temp_dist_trial,25.0,t_s_10_1,travel_shared,luggage lock,1.0,competing,single,t_s_10_1.jpg,Travel,$${counterbalance_group},,sub-82
Desktop or Laptop,Windows 10,Chrome 138.0.0.0,2560x1440,2327x1309,Temporal Distance Task,cb_01,74.0,temp_dist_trial,num_items,zn7si1,1.0,response,1_ITEM,1227.1000000000058,1225.1000000000058,1227.1000000000058,1227.1000000000058,1225.1000000000058,1227.1000000000058,1.0,0.0,0.0,,Click Response,1_count,3.0,object-46,temp_dist_trial,26.0,t_m_07_1,travel_Miami,sunglasses,1.0,unique,single,t_m_07_1.jpg,Travel,$${counterbalance_group},,sub-82
Desktop or Laptop,Windows 10,Chrome 138.0.0.0,2560x1440,2327x1309,Temporal Distance Task,cb_01,75.0,temp_dist_trial,num_items,zn7si1,1.0,response,2_ITEM,924.699999999808,918.8000000000177,924.699999999808,924.699999999808,918.8000000000177,924.699999999808,1.0,0.0,0.0,,Click Response,2_count,5.0,object-49,temp_dist_trial,27.0,t_i_09_1,travel_Iceland,ear muffs,1.0,unique,paired,t_i_09_1.jpg,Travel,$${counterbalance_group},,sub-82
Desktop or Laptop,Windows 10,Chrome 138.0.0.0,2560x1440,2327x1309,Temporal Distance Task,cb_01,75.0,temp_dist_trial,dist_items,qkpkxw,2.0,info,,2.599999999976717,0.0,2.599999999976717,2.599999999976717,0.0,2.599999999976717,1.0,0.0,0.0,,Slider,Slider,4.0,object-56,temp_dist_trial,27.0,t_i_09_1,travel_Iceland,ear muffs,1.0,unique,paired,t_i_09_1.jpg,Travel,$${counterbalance_group},,sub-82
Desktop or Laptop,Windows 10,Chrome 138.0.0.0,2560x1440,2327x1309,Temporal Distance Task,cb_01,75.0,temp_dist_trial,dist_items,qkpkxw,2.0,continue,,1334.300000000163,1331.5,1334.300000000163,1334.300000000163,1331.5,1334.300000000163,1.0,0.0,0.0,,Click To Continue,Next button,7.0,object-60,temp_dist_trial,27.0,t_i_09_1,travel_Iceland,ear muffs,1.0,unique,paired,t_i_09_1.jpg,Travel,$${counterbalance_group},,sub-82
Desktop or Laptop,Windows 10,Chrome 138.0.0.0,2560x1440,2327x1309,Temporal Distance Task,cb_01,75.0,temp_dist_trial,dist_items,qkpkxw,2.0,response,31,368.89999999996513,1331.5,1336.300000000163,368.89999999996513,1331.5,1336.300000000163,1.0,967.400000000198,0.0,,Slider,Slider,4.0,object-56,temp_dist_trial,27.0,t_i_09_1,travel_Iceland,ear muffs,1.0,unique,paired,t_i_09_1.jpg,Travel,$${counterbalance_group},,sub-82
Desktop or Laptop,Windows 10,Chrome 138.0.0.0,2560x1440,2327x1309,Temporal Distance Task,cb_01,76.0,temp_dist_trial,num_items,zn7si1,1.0,response,1_ITEM,1150.5000000003492,1150.0999999999767,1150.5000000003492,1150.5000000003492,1150.0999999999767,1150.5000000003492,1.0,0.0,0.0,,Click Response,1_count,3.0,object-46,temp_dist_trial,28.0,t_m_06_1,travel_Miami,handheld fan,1.0,unique,single,t_m_06_1.jpg,Travel,$${counterbalance_group},,sub-82
Desktop or Laptop,Windows 10,Chrome 138.0.0.0,2560x1440,2327x1309,Temporal Distance Task,cb_01,77.0,temp_dist_trial,num_items,zn7si1,1.0,response,1_ITEM,1202.3000000003958,1200.100000000035,1202.3000000003958,1202.3000000003958,1200.100000000035,1202.3000000003958,1.0,0.0,0.0,,Click Response,1_count,3.0,object-46,temp_dist_trial,29.0,t_s_20_1,travel_shared,travel pill case,1.0,competing,paired,t_s_20_1.jpg,Travel,$${counterbalance_group},,sub-82
Desktop or Laptop,Windows 10,Chrome 138.0.0.0,2560x1440,2327x1309,Temporal Distance Task,cb_01,78.0,temp_dist_trial,num_items,zn7si1,1.0,response,1_ITEM,1024.1000000003842,1018.7999999999884,1024.1000000003842,1024.1000000003842,1018.7999999999884,1024.1000000003842,1.0,0.0,0.0,,Click Response,1_count,3.0,object-46,temp_dist_trial,30.0,t_s_23_1,travel_shared,ball cap,1.0,competing,single,t_s_23_1.jpg,Travel,$${counterbalance_group},,sub-82
Desktop or Laptop,Windows 10,Chrome 138.0.0.0,2560x1440,2327x1309,Temporal Distance Task,cb_01,79.0,temp_dist_trial,num_items,zn7si1,1.0,response,2_ITEM,891.2000000003609,887.5,891.2000000003609,891.2000000003609,887.5,891.2000000003609,1.0,0.0,0.0,,Click Response,2_count,5.0,object-49,temp_dist_trial,31.0,t_s_14_1,travel_shared,hand sanitizer,1.0,competing,paired,t_s_14_1.jpg,Travel,$${counterbalance_group},,sub-82
Desktop or Laptop,Windows 10,Chrome 138.0.0.0,2560x1440,2327x1309,Temporal Distance Task,cb_01,79.0,temp_dist_trial,dist_items,qkpkxw,2.0,info,,2.1000000003841706,0.0,2.1000000003841706,2.1000000003841706,0.0,2.1000000003841706,1.0,0.0,0.0,,Slider,Slider,4.0,object-56,temp_dist_trial,31.0,t_s_14_1,travel_shared,hand sanitizer,1.0,competing,paired,t_s_14_1.jpg,Travel,$${counterbalance_group},,sub-82
Desktop or Laptop,Windows 10,Chrome 138.0.0.0,2560x1440,2327x1309,Temporal Distance Task,cb_01,79.0,temp_dist_trial,dist_items,qkpkxw,2.0,continue,,1010.4999999998256,1006.2999999999884,1010.4999999998256,1010.4999999998256,1006.2999999999884,1010.4999999998256,1.0,0.0,0.0,,Click To Continue,Next button,7.0,object-60,temp_dist_trial,31.0,t_s_14_1,travel_shared,hand sanitizer,1.0,competing,paired,t_s_14_1.jpg,Travel,$${counterbalance_group},,sub-82
Desktop or Laptop,Windows 10,Chrome 138.0.0.0,2560x1440,2327x1309,Temporal Distance Task,cb_01,79.0,temp_dist_trial,dist_items,qkpkxw,2.0,response,41,512.6000000000348,1006.2999999999884,1010.7999999996392,512.6000000000348,1006.2999999999884,1010.7999999996392,1.0,498.1999999996042,0.0,,Slider,Slider,4.0,object-56,temp_dist_trial,31.0,t_s_14_1,travel_shared,hand sanitizer,1.0,competing,paired,t_s_14_1.jpg,Travel,$${counterbalance_group},,sub-82
Desktop or Laptop,Windows 10,Chrome 138.0.0.0,2560x1440,2327x1309,Temporal Distance Task,cb_01,80.0,temp_dist_trial,num_items,zn7si1,1.0,response,2_ITEM,882.6000000002095,881.4000000000232,882.6000000002095,882.6000000002095,881.4000000000232,882.6000000002095,1.0,0.0,0.0,,Click Response,2_count,5.0,object-49,temp_dist_trial,32.0,t_s_21_1,travel_shared,umbrella,1.0,competing,paired,t_s_21_1.jpg,Travel,$${counterbalance_group},,sub-82
Desktop or Laptop,Windows 10,Chrome 138.0.0.0,2560x1440,2327x1309,Temporal Distance Task,cb_01,80.0,temp_dist_trial,dist_items,qkpkxw,2.0,info,,2.2000000001862645,0.0,2.2000000001862645,2.2000000001862645,0.0,2.2000000001862645,1.0,0.0,0.0,,Slider,Slider,4.0,object-56,temp_dist_trial,32.0,t_s_21_1,travel_shared,umbrella,1.0,competing,paired,t_s_21_1.jpg,Travel,$${counterbalance_group},,sub-82
Desktop or Laptop,Windows 10,Chrome 138.0.0.0,2560x1440,2327x1309,Temporal Distance Task,cb_01,80.0,temp_dist_trial,dist_items,qkpkxw,2.0,continue,,1408.0,1406.4000000000233,1408.0,1408.0,1406.4000000000233,1408.0,1.0,0.0,0.0,,Click To Continue,Next button,7.0,object-60,temp_dist_trial,32.0,t_s_21_1,travel_shared,umbrella,1.0,competing,paired,t_s_21_1.jpg,Travel,$${counterbalance_group},,sub-82
Desktop or Laptop,Windows 10,Chrome 138.0.0.0,2560x1440,2327x1309,Temporal Distance Task,cb_01,80.0,temp_dist_trial,dist_items,qkpkxw,2.0,response,83,475.0999999999767,1406.4000000000233,1408.2000000001865,475.0999999999767,1406.4000000000233,1408.2000000001865,1.0,933.1000000002097,0.0,,Slider,Slider,4.0,object-56,temp_dist_trial,32.0,t_s_21_1,travel_shared,umbrella,1.0,competing,paired,t_s_21_1.jpg,Travel,$${counterbalance_group},,sub-82
Desktop or Laptop,Windows 10,Chrome 138.0.0.0,2560x1440,2327x1309,Temporal Distance Task,cb_01,81.0,temp_dist_trial,num_items,zn7si1,1.0,response,2_ITEM,950.800000000163,950.1999999999533,950.800000000163,950.800000000163,950.1999999999533,950.800000000163,1.0,0.0,0.0,,Click Response,2_count,5.0,object-49,temp_dist_trial,33.0,t_s_08_1,travel_shared,hand lotion,1.0,competing,paired,t_s_08_1.jpg,Travel,$${counterbalance_group},,sub-82
Desktop or Laptop,Windows 10,Chrome 138.0.0.0,2560x1440,2327x1309,Temporal Distance Task,cb_01,81.0,temp_dist_trial,dist_items,qkpkxw,2.0,info,,2.100000000209548,0.0,2.100000000209548,2.100000000209548,0.0,2.100000000209548,1.0,0.0,0.0,,Slider,Slider,4.0,object-56,temp_dist_trial,33.0,t_s_08_1,travel_shared,hand lotion,1.0,competing,paired,t_s_08_1.jpg,Travel,$${counterbalance_group},,sub-82
Desktop or Laptop,Windows 10,Chrome 138.0.0.0,2560x1440,2327x1309,Temporal Distance Task,cb_01,81.0,temp_dist_trial,dist_items,qkpkxw,2.0,continue,,2738.3000000003963,2737.8000000000466,2738.3000000003963,2738.3000000003963,2737.8000000000466,2738.3000000003963,1.0,0.0,0.0,,Click To Continue,Next button,7.0,object-60,temp_dist_trial,33.0,t_s_08_1,travel_shared,hand lotion,1.0,competing,paired,t_s_08_1.jpg,Travel,$${counterbalance_group},,sub-82
Desktop or Laptop,Windows 10,Chrome 138.0.0.0,2560x1440,2327x1309,Temporal Distance Task,cb_01,81.0,temp_dist_trial,dist_items,qkpkxw,2.0,response,60,612.6000000000347,2737.8000000000466,2740.4000000000233,612.6000000000347,2737.8000000000466,2740.4000000000233,1.0,2127.7999999999884,0.0,,Slider,Slider,4.0,object-56,temp_dist_trial,33.0,t_s_08_1,travel_shared,hand lotion,1.0,competing,paired,t_s_08_1.jpg,Travel,$${counterbalance_group},,sub-82
Desktop or Laptop,Windows 10,Chrome 138.0.0.0,2560x1440,2327x1309,Temporal Distance Task,cb_01,82.0,temp_dist_trial,num_items,zn7si1,1.0,response,2_ITEM,1019.800000000163,1018.8999999999652,1019.800000000163,1019.800000000163,1018.8999999999652,1019.800000000163,1.0,0.0,0.0,,Click Response,2_count,5.0,object-49,temp_dist_trial,34.0,t_i_15_1,travel_Iceland,compass,1.0,unique,paired,t_i_15_1.jpg,Travel,$${counterbalance_group},,sub-82
Desktop or Laptop,Windows 10,Chrome 138.0.0.0,2560x1440,2327x1309,Temporal Distance Task,cb_01,82.0,temp_dist_trial,dist_items,qkpkxw,2.0,info,,2.2999999996391125,0.0,2.2999999996391125,2.2999999996391125,0.0,2.2999999996391125,1.0,0.0,0.0,,Slider,Slider,4.0,object-56,temp_dist_trial,34.0,t_i_15_1,travel_Iceland,compass,1.0,unique,paired,t_i_15_1.jpg,Travel,$${counterbalance_group},,sub-82
Desktop or Laptop,Windows 10,Chrome 138.0.0.0,2560x1440,2327x1309,Temporal Distance Task,cb_01,82.0,temp_dist_trial,dist_items,qkpkxw,2.0,continue,,1267.7999999996389,1262.600000000035,1267.7999999996389,1267.7999999996389,1262.600000000035,1267.7999999996389,1.0,0.0,0.0,,Click To Continue,Next button,7.0,object-60,temp_dist_trial,34.0,t_i_15_1,travel_Iceland,compass,1.0,unique,paired,t_i_15_1.jpg,Travel,$${counterbalance_group},,sub-82
