Participant Device,Participant OS,Participant Browser,Participant Monitor Size,Participant Viewport Size,Task Name,Current Spreadsheet,Trial Number,Display,Screen,Screen ID,Screen Counter,Response Type,Response,Onset Time,Clock Time,Reaction Time,Absolute Onset Time,Absolute Clock Time,Absolute Reaction Time,Correct,Response Duration,Proportion,Tag,Component Name,Object Name,Object Number,Object ID,Spreadsheet: display,Spreadsheet: trial,Spreadsheet: stimulus_id,Spreadsheet: expected_goal,Spreadsheet: stimulus_name,Spreadsheet: c_group,Spreadsheet: condition,Spreadsheet: paired_status,Spreadsheet: stimulus_path,Spreadsheet: block_type,Manipulation: Spreadsheet,Store: enc_test_acc,sub_label
Desktop or Laptop,Windows 10,Chrome 138.0.0.0,1792x1344,894x1182,Temporal Distance Task,$${counterbalance_group},,,,,,info,BEGIN,,,,,,,0.0,,,,,,,,,,,,,,,,,,,,sub-07
Desktop or Laptop,Windows 10,Chrome 138.0.0.0,1792x1344,894x1182,Temporal Distance Task,cb_07,1.0,temp_instructions,intro_screen,3tnme7,1.0,continue,,3805.0,3800.9,3805.0,3805.0,3800.9,3805.0,1.0,0.0,0.0,,Click To Continue,Continue Button,4.0,object-29,temp_instructions,,,Student,,,,,,,,,sub-07
Desktop or Laptop,Windows 10,Chrome 138.0.0.0,1792x1344,894x1182,Temporal Distance Task,cb_07,1.0,temp_instructions,intro_screen_2,52v7ur,2.0,continue,,1262.39999999702,1260.4000000000005,1262.39999999702,1262.39999999702,1260.4000000000005,1262.39999999702,1.0,0.0,0.0,,Click To Continue,Continue Button,4.0,object-39,temp_instructions,,,Student,,,,,,,,,sub-07
Desktop or Laptop,Windows 10,Chrome 138.0.0.0,1792x1344,894x1182,Temporal Distance Task,cb_07,1.0,temp_instructions,intro_screen_3,i7lvwx,3.0,continue,,1700.499999999999,1680.499999999999,1700.499999999999,1700.499999999999,1680.499999999999,1700.499999999999,1.0,0.0,0.0,,Click To Continue,Continue Button,4.0,object-67,temp_instructions,,,Student,,,,,,,,,sub-07
Desktop or Laptop,Windows 10,Chrome 138.0.0.0,1792x1344,894x1182,Temporal Distance Task,cb_07,1.0,temp_instructions,test_q1,5ieqx1,4.0,response,choice_3,5005.700000000002,5001.4000000000015,5005.700000000002,5005.700000000002,5001.4000000000015,5005.700000000002,1.0,0.0,0.0,,Click Response,choice_3,5.0,object-345,temp_instructions,,,Student,,,,,,,,,sub-07
Desktop or Laptop,Windows 10,Chrome 138.0.0.0,1792x1344,894x1182,Temporal Distance Task,cb_07,1.0,temp_instructions,score_corr,7ilvjr,5.0,continue,,863.1999999910588,860.0999999999983,863.1999999910588,863.1999999910588,860.0999999999983,863.1999999910588,1.0,0.0,0.0,,Click To Continue,Continue Button,3.0,object-23,temp_instructions,,,Student,,,,,,,,,sub-07
Desktop or Laptop,Windows 10,Chrome 138.0.0.0,1792x1344,894x1182,Temporal Distance Task,cb_07,1.0,temp_eventStart,Screen 1,dgtyxe,1.0,continue,,905.900000002981,900.4000000000017,905.900000002981,905.900000002981,900.4000000000017,905.900000002981,1.0,0.0,0.0,,Click To Continue,Next Button,3.0,object-43,temp_eventStart,,,Student,,,,,,,,,sub-07
Desktop or Laptop,Windows 10,Chrome 138.0.0.0,1792x1344,894x1182,Temporal Distance Task,cb_07,1.0,temp_dist_trial,num_items,zn7si1,1.0,response,2_ITEM,1392.8999999940388,1380.2999999999995,1392.8999999940388,1392.8999999940388,1380.2999999999995,1392.8999999940388,1.0,0.0,0.0,,Click Response,2_count,5.0,object-49,temp_dist_trial,1.0,s_sh_13_1,student_shared,index cards,7.0,competing,paired,s_sh_13_1.jpg,Student,,,sub-07
Desktop or Laptop,Windows 10,Chrome 138.0.0.0,1792x1344,894x1182,Temporal Distance Task,cb_07,1.0,temp_dist_trial,dist_items,qkpkxw,2.0,info,,5.199999997021223,0.0,5.199999997021223,5.199999997021223,0.0,5.199999997021223,1.0,0.0,0.0,,Slider,Slider,4.0,object-56,temp_dist_trial,1.0,s_sh_13_1,student_shared,index cards,7.0,competing,paired,s_sh_13_1.jpg,Student,,,sub-07
Desktop or Laptop,Windows 10,Chrome 138.0.0.0,1792x1344,894x1182,Temporal Distance Task,cb_07,1.0,temp_dist_trial,dist_items,qkpkxw,2.0,continue,,4456.600000002983,4441.0,4456.600000002983,4456.600000002983,4441.0,4456.600000002983,1.0,0.0,0.0,,Click To Continue,Next button,7.0,object-60,temp_dist_trial,1.0,s_sh_13_1,student_shared,index cards,7.0,competing,paired,s_sh_13_1.jpg,Student,,,sub-07
Desktop or Laptop,Windows 10,Chrome 138.0.0.0,1792x1344,894x1182,Temporal Distance Task,cb_07,1.0,temp_dist_trial,dist_items,qkpkxw,2.0,response,74,1740.4000000000015,4441.0,4456.999999994041,1740.4000000000015,4441.0,4456.999999994041,1.0,2716.5999999940395,0.0,,Slider,Slider,4.0,object-56,temp_dist_trial,1.0,s_sh_13_1,student_shared,index cards,7.0,competing,paired,s_sh_13_1.jpg,Student,,,sub-07
Desktop or Laptop,Windows 10,Chrome 138.0.0.0,1792x1344,894x1182,Temporal Distance Task,cb_07,2.0,temp_dist_trial,num_items,zn7si1,1.0,response,num_miss,3000.800000000003,3000.800000000003,3000.800000000003,3000.800000000003,3000.800000000003,3000.800000000003,1.0,0.0,0.0,num_miss_tag,Time Limit,screen,0.0,screen,temp_dist_trial,2.0,s_a_09_1,student_art,picture frame,7.0,unique,single,s_a_09_1.jpg,Student,,,sub-07
Desktop or Laptop,Windows 10,Chrome 138.0.0.0,1792x1344,894x1182,Temporal Distance Task,cb_07,3.0,temp_dist_trial,num_items,zn7si1,1.0,response,2_ITEM,2696.8999999910598,2680.7999999999993,2696.8999999910598,2696.8999999910598,2680.7999999999993,2696.8999999910598,1.0,0.0,0.0,,Click Response,2_count,5.0,object-49,temp_dist_trial,3.0,s_sh_02_1,student_shared,eraser,7.0,competing,paired,s_sh_02_1.jpg,Student,,,sub-07
Desktop or Laptop,Windows 10,Chrome 138.0.0.0,1792x1344,894x1182,Temporal Distance Task,cb_07,3.0,temp_dist_trial,dist_items,qkpkxw,2.0,info,,4.800000002978777,0.0,4.800000002978777,4.800000002978777,0.0,4.800000002978777,1.0,0.0,0.0,,Slider,Slider,4.0,object-56,temp_dist_trial,3.0,s_sh_02_1,student_shared,eraser,7.0,competing,paired,s_sh_02_1.jpg,Student,,,sub-07
Desktop or Laptop,Windows 10,Chrome 138.0.0.0,1792x1344,894x1182,Temporal Distance Task,cb_07,3.0,temp_dist_trial,dist_items,qkpkxw,2.0,continue,,1564.199999994038,1560.3999999999978,1564.199999994038,1564.199999994038,1560.3999999999978,1564.199999994038,1.0,0.0,0.0,,Click To Continue,Next button,7.0,object-60,temp_dist_trial,3.0,s_sh_02_1,student_shared,eraser,7.0,competing,paired,s_sh_02_1.jpg,Student,,,sub-07
Desktop or Laptop,Windows 10,Chrome 138.0.0.0,1792x1344,894x1182,Temporal Distance Task,cb_07,3.0,temp_dist_trial,dist_items,qkpkxw,2.0,response,85,760.0999999999983,1560.3999999999978,1564.5999999999985,760.0999999999983,1560.3999999999978,1564.5999999999985,1.0,804.5,0.0,,Slider,Slider,4.0,object-56,temp_dist_trial,3.0,s_sh_02_1,student_shared,eraser,7.0,competing,paired,s_sh_02_1.jpg,Student,,,sub-07
Desktop or Laptop,Windows 10,Chrome 138.0.0.0,1792x1344,894x1182,Temporal Distance Task,cb_07,4.0,temp_dist_trial,num_items,zn7si1,1.0,response,2_ITEM,1036.2999999940403,1020.1000000000024,1036.2999999940403,1036.2999999940403,1020.1000000000024,1036.2999999940403,1.0,0.0,0.0,,Click Response,2_count,5.0,object-49,temp_dist_trial,4.0,s_sh_07_1,student_shared,ruler,7.0,competing,paired,s_sh_07_1.jpg,Student,,,sub-07
Desktop or Laptop,Windows 10,Chrome 138.0.0.0,1792x1344,894x1182,Temporal Distance Task,cb_07,4.0,temp_dist_trial,dist_items,qkpkxw,2.0,info,,4.0,0.0,4.0,4.0,0.0,4.0,1.0,0.0,0.0,,Slider,Slider,4.0,object-56,temp_dist_trial,4.0,s_sh_07_1,student_shared,ruler,7.0,competing,paired,s_sh_07_1.jpg,Student,,,sub-07
Desktop or Laptop,Windows 10,Chrome 138.0.0.0,1792x1344,894x1182,Temporal Distance Task,cb_07,4.0,temp_dist_trial,dist_items,qkpkxw,2.0,continue,,1836.70000000298,1820.5999999999985,1836.70000000298,1836.70000000298,1820.5999999999985,1836.70000000298,1.0,0.0,0.0,,Click To Continue,Next button,7.0,object-60,temp_dist_trial,4.0,s_sh_07_1,student_shared,ruler,7.0,competing,paired,s_sh_07_1.jpg,Student,,,sub-07
Desktop or Laptop,Windows 10,Chrome 138.0.0.0,1792x1344,894x1182,Temporal Distance Task,cb_07,4.0,temp_dist_trial,dist_items,qkpkxw,2.0,response,85,900.2000000000007,1820.5999999999985,1837.0,900.2000000000007,1820.5999999999985,1837.0,1.0,936.7999999999993,0.0,,Slider,Slider,4.0,object-56,temp_dist_trial,4.0,s_sh_07_1,student_shared,ruler,7.0,competing,paired,s_sh_07_1.jpg,Student,,,sub-07
Desktop or Laptop,Windows 10,Chrome 138.0.0.0,1792x1344,894x1182,Temporal Distance Task,cb_07,5.0,temp_dist_trial,num_items,zn7si1,1.0,response,2_ITEM,1027.2999999910608,1020.0999999999983,1027.2999999910608,1027.2999999910608,1020.0999999999983,1027.2999999910608,1.0,0.0,0.0,,Click Response,2_count,5.0,object-49,temp_dist_trial,5.0,s_s_16_1,student_stem,toolbox,7.0,unique,paired,s_s_16_1.jpg,Student,,,sub-07
Desktop or Laptop,Windows 10,Chrome 138.0.0.0,1792x1344,894x1182,Temporal Distance Task,cb_07,5.0,temp_dist_trial,dist_items,qkpkxw,2.0,info,,4.799999997019769,0.0,4.799999997019769,4.799999997019769,0.0,4.799999997019769,1.0,0.0,0.0,,Slider,Slider,4.0,object-56,temp_dist_trial,5.0,s_s_16_1,student_stem,toolbox,7.0,unique,paired,s_s_16_1.jpg,Student,,,sub-07
Desktop or Laptop,Windows 10,Chrome 138.0.0.0,1792x1344,894x1182,Temporal Distance Task,cb_07,5.0,temp_dist_trial,dist_items,qkpkxw,2.0,continue,,1890.20000000298,1880.4000000000005,1890.20000000298,1890.20000000298,1880.4000000000005,1890.20000000298,1.0,0.0,0.0,,Click To Continue,Next button,7.0,object-60,temp_dist_trial,5.0,s_s_16_1,student_stem,toolbox,7.0,unique,paired,s_s_16_1.jpg,Student,,,sub-07
Desktop or Laptop,Windows 10,Chrome 138.0.0.0,1792x1344,894x1182,Temporal Distance Task,cb_07,5.0,temp_dist_trial,dist_items,qkpkxw,2.0,response,25,640.0,1880.4000000000005,1893.70000000298,640.0,1880.4000000000005,1893.70000000298,1.0,1253.7000000029802,0.0,,Slider,Slider,4.0,object-56,temp_dist_trial,5.0,s_s_16_1,student_stem,toolbox,7.0,unique,paired,s_s_16_1.jpg,Student,,,sub-07
Desktop or Laptop,Windows 10,Chrome 138.0.0.0,1792x1344,894x1182,Temporal Distance Task,cb_07,6.0,temp_dist_trial,num_items,zn7si1,1.0,response,2_ITEM,1311.0999999999985,1300.4000000000015,1311.0999999999985,1311.0999999999985,1300.4000000000015,1311.0999999999985,1.0,0.0,0.0,,Click Response,2_count,5.0,object-49,temp_dist_trial,6.0,s_a_18_1,student_art,tutu,7.0,unique,paired,s_a_18_1.jpg,Student,,,sub-07
Desktop or Laptop,Windows 10,Chrome 138.0.0.0,1792x1344,894x1182,Temporal Distance Task,cb_07,6.0,temp_dist_trial,dist_items,qkpkxw,2.0,info,,4.599999991056394,0.0,4.599999991056394,4.599999991056394,0.0,4.599999991056394,1.0,0.0,0.0,,Slider,Slider,4.0,object-56,temp_dist_trial,6.0,s_a_18_1,student_art,tutu,7.0,unique,paired,s_a_18_1.jpg,Student,,,sub-07
Desktop or Laptop,Windows 10,Chrome 138.0.0.0,1792x1344,894x1182,Temporal Distance Task,cb_07,6.0,temp_dist_trial,dist_items,qkpkxw,2.0,continue,,1578.1999999999966,1560.5,1578.1999999999966,1578.1999999999966,1560.5,1578.1999999999966,1.0,0.0,0.0,,Click To Continue,Next button,7.0,object-60,temp_dist_trial,6.0,s_a_18_1,student_art,tutu,7.0,unique,paired,s_a_18_1.jpg,Student,,,sub-07
Desktop or Laptop,Windows 10,Chrome 138.0.0.0,1792x1344,894x1182,Temporal Distance Task,cb_07,6.0,temp_dist_trial,dist_items,qkpkxw,2.0,response,69,800.0999999999983,1560.5,1578.6999999999966,800.0999999999983,1560.5,1578.6999999999966,1.0,778.5999999999983,0.0,,Slider,Slider,4.0,object-56,temp_dist_trial,6.0,s_a_18_1,student_art,tutu,7.0,unique,paired,s_a_18_1.jpg,Student,,,sub-07
Desktop or Laptop,Windows 10,Chrome 138.0.0.0,1792x1344,894x1182,Temporal Distance Task,cb_07,7.0,temp_dist_trial,num_items,zn7si1,1.0,response,2_ITEM,968.6999999999972,960.0,968.6999999999972,968.6999999999972,960.0,968.6999999999972,1.0,0.0,0.0,,Click Response,2_count,5.0,object-49,temp_dist_trial,7.0,s_a_05_1,student_art,clay,7.0,unique,paired,s_a_05_1.jpg,Student,,,sub-07
Desktop or Laptop,Windows 10,Chrome 138.0.0.0,1792x1344,894x1182,Temporal Distance Task,cb_07,7.0,temp_dist_trial,dist_items,qkpkxw,2.0,info,,3.8000000029787766,0.0,3.8000000029787766,3.8000000029787766,0.0,3.8000000029787766,1.0,0.0,0.0,,Slider,Slider,4.0,object-56,temp_dist_trial,7.0,s_a_05_1,student_art,clay,7.0,unique,paired,s_a_05_1.jpg,Student,,,sub-07
Desktop or Laptop,Windows 10,Chrome 138.0.0.0,1792x1344,894x1182,Temporal Distance Task,cb_07,7.0,temp_dist_trial,dist_items,qkpkxw,2.0,continue,,1743.199999994038,1740.4000000000015,1743.199999994038,1743.199999994038,1740.4000000000015,1743.199999994038,1.0,0.0,0.0,,Click To Continue,Next button,7.0,object-60,temp_dist_trial,7.0,s_a_05_1,student_art,clay,7.0,unique,paired,s_a_05_1.jpg,Student,,,sub-07
Desktop or Laptop,Windows 10,Chrome 138.0.0.0,1792x1344,894x1182,Temporal Distance Task,cb_07,7.0,temp_dist_trial,dist_items,qkpkxw,2.0,response,14,740.1999999999971,1740.4000000000015,1743.4999999910578,740.1999999999971,1740.4000000000015,1743.4999999910578,1.0,1003.2999999910608,0.0,,Slider,Slider,4.0,object-56,temp_dist_trial,7.0,s_a_05_1,student_art,clay,7.0,unique,paired,s_a_05_1.jpg,Student,,,sub-07
Desktop or Laptop,Windows 10,Chrome 138.0.0.0,1792x1344,894x1182,Temporal Distance Task,cb_07,8.0,temp_dist_trial,num_items,zn7si1,1.0,response,1_ITEM,2576.299999994037,2560.799999999996,2576.299999994037,2576.299999994037,2560.799999999996,2576.299999994037,1.0,0.0,0.0,,Click Response,1_count,3.0,object-46,temp_dist_trial,8.0,s_sh_04_1,student_shared,laptop stand,7.0,competing,single,s_sh_04_1.jpg,Student,,,sub-07
Desktop or Laptop,Windows 10,Chrome 138.0.0.0,1792x1344,894x1182,Temporal Distance Task,cb_07,9.0,temp_dist_trial,num_items,zn7si1,1.0,response,2_ITEM,1102.0000000029831,1100.1000000000058,1102.0000000029831,1102.0000000029831,1100.1000000000058,1102.0000000029831,1.0,0.0,0.0,,Click Response,2_count,5.0,object-49,temp_dist_trial,9.0,s_a_14_1,student_art,guitar pick,7.0,unique,paired,s_a_14_1.jpg,Student,,,sub-07
Desktop or Laptop,Windows 10,Chrome 138.0.0.0,1792x1344,894x1182,Temporal Distance Task,cb_07,9.0,temp_dist_trial,dist_items,qkpkxw,2.0,info,,4.199999991062214,0.0,4.199999991062214,4.199999991062214,0.0,4.199999991062214,1.0,0.0,0.0,,Slider,Slider,4.0,object-56,temp_dist_trial,9.0,s_a_14_1,student_art,guitar pick,7.0,unique,paired,s_a_14_1.jpg,Student,,,sub-07
Desktop or Laptop,Windows 10,Chrome 138.0.0.0,1792x1344,894x1182,Temporal Distance Task,cb_07,9.0,temp_dist_trial,dist_items,qkpkxw,2.0,continue,,1582.8999999940424,1580.2000000000046,1582.8999999940424,1582.8999999940424,1580.2000000000046,1582.8999999940424,1.0,0.0,0.0,,Click To Continue,Next button,7.0,object-60,temp_dist_trial,9.0,s_a_14_1,student_art,guitar pick,7.0,unique,paired,s_a_14_1.jpg,Student,,,sub-07
Desktop or Laptop,Windows 10,Chrome 138.0.0.0,1792x1344,894x1182,Temporal Distance Task,cb_07,9.0,temp_dist_trial,dist_items,qkpkxw,2.0,response,86,679.9000000000016,1580.2000000000046,1583.1999999910622,679.9000000000016,1580.2000000000046,1583.1999999910622,1.0,903.2999999910608,0.0,,Slider,Slider,4.0,object-56,temp_dist_trial,9.0,s_a_14_1,student_art,guitar pick,7.0,unique,paired,s_a_14_1.jpg,Student,,,sub-07
Desktop or Laptop,Windows 10,Chrome 138.0.0.0,1792x1344,894x1182,Temporal Distance Task,cb_07,10.0,temp_dist_trial,num_items,zn7si1,1.0,response,1_ITEM,1311.6999999940379,1300.2999999999956,1311.6999999940379,1311.6999999940379,1300.2999999999956,1311.6999999940379,1.0,0.0,0.0,,Click Response,1_count,3.0,object-46,temp_dist_trial,10.0,s_a_01_1,student_art,paintbrush,7.0,unique,paired,s_a_01_1.jpg,Student,,,sub-07
Desktop or Laptop,Windows 10,Chrome 138.0.0.0,1792x1344,894x1182,Temporal Distance Task,cb_07,11.0,temp_dist_trial,num_items,zn7si1,1.0,response,2_ITEM,1173.9000000029773,1160.2999999999956,1173.9000000029773,1173.9000000029773,1160.2999999999956,1173.9000000029773,1.0,0.0,0.0,,Click Response,2_count,5.0,object-49,temp_dist_trial,11.0,s_sh_16_1,student_shared,stapler,7.0,competing,paired,s_sh_16_1.jpg,Student,,,sub-07
Desktop or Laptop,Windows 10,Chrome 138.0.0.0,1792x1344,894x1182,Temporal Distance Task,cb_07,11.0,temp_dist_trial,dist_items,qkpkxw,2.0,info,,4.000000002983144,0.0,4.000000002983144,4.000000002983144,0.0,4.000000002983144,1.0,0.0,0.0,,Slider,Slider,4.0,object-56,temp_dist_trial,11.0,s_sh_16_1,student_shared,stapler,7.0,competing,paired,s_sh_16_1.jpg,Student,,,sub-07
Desktop or Laptop,Windows 10,Chrome 138.0.0.0,1792x1344,894x1182,Temporal Distance Task,cb_07,11.0,temp_dist_trial,dist_items,qkpkxw,2.0,continue,,1935.0000000029834,1920.6000000000056,1935.0000000029834,1935.0000000029834,1920.6000000000056,1935.0000000029834,1.0,0.0,0.0,,Click To Continue,Next button,7.0,object-60,temp_dist_trial,11.0,s_sh_16_1,student_shared,stapler,7.0,competing,paired,s_sh_16_1.jpg,Student,,,sub-07
Desktop or Laptop,Windows 10,Chrome 138.0.0.0,1792x1344,894x1182,Temporal Distance Task,cb_07,11.0,temp_dist_trial,dist_items,qkpkxw,2.0,response,33,720.1000000000058,1920.6000000000056,1935.3000000000034,720.1000000000058,1920.6000000000056,1935.3000000000034,1.0,1215.1999999999969,0.0,,Slider,Slider,4.0,object-56,temp_dist_trial,11.0,s_sh_16_1,student_shared,stapler,7.0,competing,paired,s_sh_16_1.jpg,Student,,,sub-07
Desktop or Laptop,Windows 10,Chrome 138.0.0.0,1792x1344,894x1182,Temporal Distance Task,cb_07,12.0,temp_dist_trial,num_items,zn7si1,1.0,response,1_ITEM,1573.9000000029773,1560.1999999999966,1573.9000000029773,1573.9000000029773,1560.1999999999966,1573.9000000029773,1.0,0.0,0.0,,Click Response,1_count,3.0,object-46,temp_dist_trial,12.0,s_a_07_1,student_art,yarn,7.0,unique,paired,s_a_07_1.jpg,Student,,,sub-07
Desktop or Laptop,Windows 10,Chrome 138.0.0.0,1792x1344,894x1182,Temporal Distance Task,cb_07,13.0,temp_dist_trial,num_items,zn7si1,1.0,response,2_ITEM,974.4000000000017,960.3000000000028,974.4000000000017,974.4000000000017,960.3000000000028,974.4000000000017,1.0,0.0,0.0,,Click Response,2_count,5.0,object-49,temp_dist_trial,13.0,s_sh_21_1,student_shared,file holder,7.0,competing,paired,s_sh_21_1.jpg,Student,,,sub-07
Desktop or Laptop,Windows 10,Chrome 138.0.0.0,1792x1344,894x1182,Temporal Distance Task,cb_07,13.0,temp_dist_trial,dist_items,qkpkxw,2.0,info,,4.7999999910607585,0.0,4.7999999910607585,4.7999999910607585,0.0,4.7999999910607585,1.0,0.0,0.0,,Slider,Slider,4.0,object-56,temp_dist_trial,13.0,s_sh_21_1,student_shared,file holder,7.0,competing,paired,s_sh_21_1.jpg,Student,,,sub-07
Desktop or Laptop,Windows 10,Chrome 138.0.0.0,1792x1344,894x1182,Temporal Distance Task,cb_07,13.0,temp_dist_trial,dist_items,qkpkxw,2.0,continue,,1301.6999999970212,1300.0999999999985,1301.6999999970212,1301.6999999970212,1300.0999999999985,1301.6999999970212,1.0,0.0,0.0,,Click To Continue,Next button,7.0,object-60,temp_dist_trial,13.0,s_sh_21_1,student_shared,file holder,7.0,competing,paired,s_sh_21_1.jpg,Student,,,sub-07
Desktop or Laptop,Windows 10,Chrome 138.0.0.0,1792x1344,894x1182,Temporal Distance Task,cb_07,13.0,temp_dist_trial,dist_items,qkpkxw,2.0,response,61,620.0,1300.0999999999985,1305.9000000000015,620.0,1300.0999999999985,1305.9000000000015,1.0,685.9000000000016,0.0,,Slider,Slider,4.0,object-56,temp_dist_trial,13.0,s_sh_21_1,student_shared,file holder,7.0,competing,paired,s_sh_21_1.jpg,Student,,,sub-07
Desktop or Laptop,Windows 10,Chrome 138.0.0.0,1792x1344,894x1182,Temporal Distance Task,cb_07,14.0,temp_dist_trial,num_items,zn7si1,1.0,response,2_ITEM,950.1999999910623,940.4000000000017,950.1999999910623,950.1999999910623,940.4000000000017,950.1999999910623,1.0,0.0,0.0,,Click Response,2_count,5.0,object-49,temp_dist_trial,14.0,s_sh_11_1,student_shared,pencil case,7.0,competing,paired,s_sh_11_1.jpg,Student,,,sub-07
Desktop or Laptop,Windows 10,Chrome 138.0.0.0,1792x1344,894x1182,Temporal Distance Task,cb_07,14.0,temp_dist_trial,dist_items,qkpkxw,2.0,info,,11.399999994042444,0.0,11.399999994042444,11.399999994042444,0.0,11.399999994042444,1.0,0.0,0.0,,Slider,Slider,4.0,object-56,temp_dist_trial,14.0,s_sh_11_1,student_shared,pencil case,7.0,competing,paired,s_sh_11_1.jpg,Student,,,sub-07
Desktop or Laptop,Windows 10,Chrome 138.0.0.0,1792x1344,894x1182,Temporal Distance Task,cb_07,14.0,temp_dist_trial,dist_items,qkpkxw,2.0,continue,,1948.8000000000034,1940.5,1948.8000000000034,1948.8000000000034,1940.5,1948.8000000000034,1.0,0.0,0.0,,Click To Continue,Next button,7.0,object-60,temp_dist_trial,14.0,s_sh_11_1,student_shared,pencil case,7.0,competing,paired,s_sh_11_1.jpg,Student,,,sub-07
Desktop or Laptop,Windows 10,Chrome 138.0.0.0,1792x1344,894x1182,Temporal Distance Task,cb_07,14.0,temp_dist_trial,dist_items,qkpkxw,2.0,response,85,600.2000000000044,1940.5,1949.5999999970227,600.2000000000044,1940.5,1949.5999999970227,1.0,1349.3999999970185,0.0,,Slider,Slider,4.0,object-56,temp_dist_trial,14.0,s_sh_11_1,student_shared,pencil case,7.0,competing,paired,s_sh_11_1.jpg,Student,,,sub-07
Desktop or Laptop,Windows 10,Chrome 138.0.0.0,1792x1344,894x1182,Temporal Distance Task,cb_07,15.0,temp_dist_trial,num_items,zn7si1,1.0,response,1_ITEM,1209.8000000000031,1200.2000000000044,1209.8000000000031,1209.8000000000031,1200.2000000000044,1209.8000000000031,1.0,0.0,0.0,,Click Response,1_count,3.0,object-46,temp_dist_trial,15.0,s_sh_05_1,student_shared,laptop,7.0,competing,paired,s_sh_05_1.jpg,Student,,,sub-07
Desktop or Laptop,Windows 10,Chrome 138.0.0.0,1792x1344,894x1182,Temporal Distance Task,cb_07,16.0,temp_dist_trial,num_items,zn7si1,1.0,response,2_ITEM,1178.6000000029815,1160.4000000000015,1178.6000000029815,1178.6000000029815,1160.4000000000015,1178.6000000029815,1.0,0.0,0.0,,Click Response,2_count,5.0,object-49,temp_dist_trial,16.0,s_sh_06_1,student_shared,clipboard,7.0,competing,paired,s_sh_06_1.jpg,Student,,,sub-07
Desktop or Laptop,Windows 10,Chrome 138.0.0.0,1792x1344,894x1182,Temporal Distance Task,cb_07,16.0,temp_dist_trial,dist_items,qkpkxw,2.0,info,,8.800000002978777,0.0,8.800000002978777,8.800000002978777,0.0,8.800000002978777,1.0,0.0,0.0,,Slider,Slider,4.0,object-56,temp_dist_trial,16.0,s_sh_06_1,student_shared,clipboard,7.0,competing,paired,s_sh_06_1.jpg,Student,,,sub-07
Desktop or Laptop,Windows 10,Chrome 138.0.0.0,1792x1344,894x1182,Temporal Distance Task,cb_07,16.0,temp_dist_trial,dist_items,qkpkxw,2.0,continue,,1950.3999999970185,1940.4000000000005,1950.3999999970185,1950.3999999970185,1940.4000000000005,1950.3999999970185,1.0,0.0,0.0,,Click To Continue,Next button,7.0,object-60,temp_dist_trial,16.0,s_sh_06_1,student_shared,clipboard,7.0,competing,paired,s_sh_06_1.jpg,Student,,,sub-07
Desktop or Laptop,Windows 10,Chrome 138.0.0.0,1792x1344,894x1182,Temporal Distance Task,cb_07,16.0,temp_dist_trial,dist_items,qkpkxw,2.0,response,35,1160.2999999999956,1940.4000000000005,1950.699999994038,1160.2999999999956,1940.4000000000005,1950.699999994038,1.0,790.3999999940422,0.0,,Slider,Slider,4.0,object-56,temp_dist_trial,16.0,s_sh_06_1,student_shared,clipboard,7.0,competing,paired,s_sh_06_1.jpg,Student,,,sub-07
Desktop or Laptop,Windows 10,Chrome 138.0.0.0,1792x1344,894x1182,Temporal Distance Task,cb_07,17.0,temp_dist_trial,num_items,zn7si1,1.0,response,1_ITEM,1056.1999999999969,1040.5,1056.1999999999969,1056.1999999999969,1040.5,1056.1999999999969,1.0,0.0,0.0,,Click Response,1_count,3.0,object-46,temp_dist_trial,17.0,s_s_10_1,student_stem,3d molecule,7.0,unique,paired,s_s_10_1.jpg,Student,,,sub-07
Desktop or Laptop,Windows 10,Chrome 138.0.0.0,1792x1344,894x1182,Temporal Distance Task,cb_07,18.0,temp_dist_trial,num_items,zn7si1,1.0,response,1_ITEM,1294.1999999999969,1280.5,1294.1999999999969,1294.1999999999969,1280.5,1294.1999999999969,1.0,0.0,0.0,,Click Response,1_count,3.0,object-46,temp_dist_trial,18.0,s_a_12_1,student_art,saxophone,7.0,unique,paired,s_a_12_1.jpg,Student,,,sub-07
Desktop or Laptop,Windows 10,Chrome 138.0.0.0,1792x1344,894x1182,Temporal Distance Task,cb_07,19.0,temp_dist_trial,num_items,zn7si1,1.0,response,2_ITEM,1716.6999999999966,1700.5,1716.6999999999966,1716.6999999999966,1700.5,1716.6999999999966,1.0,0.0,0.0,,Click Response,2_count,5.0,object-49,temp_dist_trial,19.0,s_s_15_1,student_stem,jumper cables,7.0,unique,paired,s_s_15_1.jpg,Student,,,sub-07
Desktop or Laptop,Windows 10,Chrome 138.0.0.0,1792x1344,894x1182,Temporal Distance Task,cb_07,19.0,temp_dist_trial,dist_items,qkpkxw,2.0,info,,3.599999997022678,0.0,3.599999997022678,3.599999997022678,0.0,3.599999997022678,1.0,0.0,0.0,,Slider,Slider,4.0,object-56,temp_dist_trial,19.0,s_s_15_1,student_stem,jumper cables,7.0,unique,paired,s_s_15_1.jpg,Student,,,sub-07
Desktop or Laptop,Windows 10,Chrome 138.0.0.0,1792x1344,894x1182,Temporal Distance Task,cb_07,19.0,temp_dist_trial,dist_items,qkpkxw,2.0,continue,,1898.8999999940424,1880.400000000009,1898.8999999940424,1898.8999999940424,1880.400000000009,1898.8999999940424,1.0,0.0,0.0,,Click To Continue,Next button,7.0,object-60,temp_dist_trial,19.0,s_s_15_1,student_stem,jumper cables,7.0,unique,paired,s_s_15_1.jpg,Student,,,sub-07
Desktop or Laptop,Windows 10,Chrome 138.0.0.0,1792x1344,894x1182,Temporal Distance Task,cb_07,19.0,temp_dist_trial,dist_items,qkpkxw,2.0,response,13,800.1000000000058,1880.400000000009,1899.1999999910627,800.1000000000058,1880.400000000009,1899.1999999910627,1.0,1099.0999999910564,0.0,,Slider,Slider,4.0,object-56,temp_dist_trial,19.0,s_s_15_1,student_stem,jumper cables,7.0,unique,paired,s_s_15_1.jpg,Student,,,sub-07
Desktop or Laptop,Windows 10,Chrome 138.0.0.0,1792x1344,894x1182,Temporal Distance Task,cb_07,20.0,temp_dist_trial,num_items,zn7si1,1.0,response,1_ITEM,1623.9999999940335,1620.5,1623.9999999940335,1623.9999999940335,1620.5,1623.9999999940335,1.0,0.0,0.0,,Click Response,1_count,3.0,object-46,temp_dist_trial,20.0,s_s_11_1,student_stem,scientific scale,7.0,unique,paired,s_s_11_1.jpg,Student,,,sub-07
Desktop or Laptop,Windows 10,Chrome 138.0.0.0,1792x1344,894x1182,Temporal Distance Task,cb_07,21.0,temp_dist_trial,num_items,zn7si1,1.0,response,1_ITEM,1174.5999999910566,1160.0999999999913,1174.5999999910566,1174.5999999910566,1160.0999999999913,1174.5999999910566,1.0,0.0,0.0,,Click Response,1_count,3.0,object-46,temp_dist_trial,21.0,s_s_17_1,student_stem,ring stand,7.0,unique,single,s_s_17_1.jpg,Student,,,sub-07
Desktop or Laptop,Windows 10,Chrome 138.0.0.0,1792x1344,894x1182,Temporal Distance Task,cb_07,22.0,temp_dist_trial,num_items,zn7si1,1.0,response,1_ITEM,1135.4999999940335,1120.3999999999942,1135.4999999940335,1135.4999999940335,1120.3999999999942,1135.4999999940335,1.0,0.0,0.0,,Click Response,1_count,3.0,object-46,temp_dist_trial,22.0,s_sh_17_1,student_shared,wireless mouse,7.0,competing,single,s_sh_17_1.jpg,Student,,,sub-07
Desktop or Laptop,Windows 10,Chrome 138.0.0.0,1792x1344,894x1182,Temporal Distance Task,cb_07,23.0,temp_dist_trial,num_items,zn7si1,1.0,response,1_ITEM,1080.5,1060.3000000000031,1080.5,1080.5,1060.3000000000031,1080.5,1.0,0.0,0.0,,Click Response,1_count,3.0,object-46,temp_dist_trial,23.0,s_sh_20_1,student_shared,tape,7.0,competing,single,s_sh_20_1.jpg,Student,,,sub-07
Desktop or Laptop,Windows 10,Chrome 138.0.0.0,1792x1344,894x1182,Temporal Distance Task,cb_07,24.0,temp_dist_trial,num_items,zn7si1,1.0,response,2_ITEM,1362.9999999910651,1360.0,1362.9999999910651,1362.9999999910651,1360.0,1362.9999999910651,1.0,0.0,0.0,,Click Response,2_count,5.0,object-49,temp_dist_trial,24.0,s_sh_12_1,student_shared,binder,7.0,competing,paired,s_sh_12_1.jpg,Student,,,sub-07
Desktop or Laptop,Windows 10,Chrome 138.0.0.0,1792x1344,894x1182,Temporal Distance Task,cb_07,24.0,temp_dist_trial,dist_items,qkpkxw,2.0,info,,9.699999997013947,0.0,9.699999997013947,9.699999997013947,0.0,9.699999997013947,1.0,0.0,0.0,,Slider,Slider,4.0,object-56,temp_dist_trial,24.0,s_sh_12_1,student_shared,binder,7.0,competing,paired,s_sh_12_1.jpg,Student,,,sub-07
Desktop or Laptop,Windows 10,Chrome 138.0.0.0,1792x1344,894x1182,Temporal Distance Task,cb_07,24.0,temp_dist_trial,dist_items,qkpkxw,2.0,continue,,1646.199999997014,1640.3999999999942,1646.199999997014,1646.199999997014,1640.3999999999942,1646.199999997014,1.0,0.0,0.0,,Click To Continue,Next button,7.0,object-60,temp_dist_trial,24.0,s_sh_12_1,student_shared,binder,7.0,competing,paired,s_sh_12_1.jpg,Student,,,sub-07
Desktop or Laptop,Windows 10,Chrome 138.0.0.0,1792x1344,894x1182,Temporal Distance Task,cb_07,24.0,temp_dist_trial,dist_items,qkpkxw,2.0,response,34,740.5,1640.3999999999942,1646.3999999999942,740.5,1640.3999999999942,1646.3999999999942,1.0,905.8999999999942,0.0,,Slider,Slider,4.0,object-56,temp_dist_trial,24.0,s_sh_12_1,student_shared,binder,7.0,competing,paired,s_sh_12_1.jpg,Student,,,sub-07
Desktop or Laptop,Windows 10,Chrome 138.0.0.0,1792x1344,894x1182,Temporal Distance Task,cb_07,25.0,temp_dist_trial,num_items,zn7si1,1.0,response,1_ITEM,960.0,940.3000000000028,960.0,960.0,940.3000000000028,960.0,1.0,0.0,0.0,,Click Response,1_count,3.0,object-46,temp_dist_trial,25.0,s_s_03_1,student_stem,petri dish,7.0,unique,single,s_s_03_1.jpg,Student,,,sub-07
Desktop or Laptop,Windows 10,Chrome 138.0.0.0,1792x1344,894x1182,Temporal Distance Task,cb_07,26.0,temp_dist_trial,num_items,zn7si1,1.0,response,2_ITEM,1095.8999999970256,1080.2000000000116,1095.8999999970256,1095.8999999970256,1080.2000000000116,1095.8999999970256,1.0,0.0,0.0,,Click Response,2_count,5.0,object-49,temp_dist_trial,26.0,s_sh_01_1,student_shared,notebook,7.0,competing,single,s_sh_01_1.jpg,Student,,,sub-07
Desktop or Laptop,Windows 10,Chrome 138.0.0.0,1792x1344,894x1182,Temporal Distance Task,cb_07,26.0,temp_dist_trial,dist_items,qkpkxw,2.0,info,,3.5000000029831426,0.0,3.5000000029831426,3.5000000029831426,0.0,3.5000000029831426,1.0,0.0,0.0,,Slider,Slider,4.0,object-56,temp_dist_trial,26.0,s_sh_01_1,student_shared,notebook,7.0,competing,single,s_sh_01_1.jpg,Student,,,sub-07
Desktop or Laptop,Windows 10,Chrome 138.0.0.0,1792x1344,894x1182,Temporal Distance Task,cb_07,26.0,temp_dist_trial,dist_items,qkpkxw,2.0,continue,,1580.400000000009,1560.400000000009,1580.400000000009,1580.400000000009,1560.400000000009,1580.400000000009,1.0,0.0,0.0,,Click To Continue,Next button,7.0,object-60,temp_dist_trial,26.0,s_sh_01_1,student_shared,notebook,7.0,competing,single,s_sh_01_1.jpg,Student,,,sub-07
Desktop or Laptop,Windows 10,Chrome 138.0.0.0,1792x1344,894x1182,Temporal Distance Task,cb_07,26.0,temp_dist_trial,dist_items,qkpkxw,2.0,response,74,680.1000000000057,1560.400000000009,1580.400000000009,680.1000000000057,1560.400000000009,1580.400000000009,1.0,900.3000000000029,0.0,,Slider,Slider,4.0,object-56,temp_dist_trial,26.0,s_sh_01_1,student_shared,notebook,7.0,competing,single,s_sh_01_1.jpg,Student,,,sub-07
Desktop or Laptop,Windows 10,Chrome 138.0.0.0,1792x1344,894x1182,Temporal Distance Task,cb_07,27.0,temp_dist_trial,num_items,zn7si1,1.0,response,1_ITEM,1048.699999997014,1040.5,1048.699999997014,1048.699999997014,1040.5,1048.699999997014,1.0,0.0,0.0,,Click Response,1_count,3.0,object-46,temp_dist_trial,27.0,s_sh_18_1,student_shared,wall calendar,7.0,competing,single,s_sh_18_1.jpg,Student,,,sub-07
Desktop or Laptop,Windows 10,Chrome 138.0.0.0,1792x1344,894x1182,Temporal Distance Task,cb_07,28.0,temp_dist_trial,num_items,zn7si1,1.0,response,1_ITEM,1124.199999997014,1120.1999999999969,1124.199999997014,1124.199999997014,1120.1999999999969,1124.199999997014,1.0,0.0,0.0,,Click Response,1_count,3.0,object-46,temp_dist_trial,28.0,s_sh_10_1,student_shared,scissors,7.0,competing,paired,s_sh_10_1.jpg,Student,,,sub-07
Desktop or Laptop,Windows 10,Chrome 138.0.0.0,1792x1344,894x1182,Temporal Distance Task,cb_07,29.0,temp_dist_trial,num_items,zn7si1,1.0,response,2_ITEM,1190.6999999999969,1180.1999999999969,1190.6999999999969,1190.6999999999969,1180.1999999999969,1190.6999999999969,1.0,0.0,0.0,,Click Response,2_count,5.0,object-49,temp_dist_trial,29.0,s_sh_23_1,student_shared,ballpoint pen,7.0,competing,paired,s_sh_23_1.jpg,Student,,,sub-07
Desktop or Laptop,Windows 10,Chrome 138.0.0.0,1792x1344,894x1182,Temporal Distance Task,cb_07,29.0,temp_dist_trial,dist_items,qkpkxw,2.0,info,,3.1999999970139466,0.0,3.1999999970139466,3.1999999970139466,0.0,3.1999999970139466,1.0,0.0,0.0,,Slider,Slider,4.0,object-56,temp_dist_trial,29.0,s_sh_23_1,student_shared,ballpoint pen,7.0,competing,paired,s_sh_23_1.jpg,Student,,,sub-07
Desktop or Laptop,Windows 10,Chrome 138.0.0.0,1792x1344,894x1182,Temporal Distance Task,cb_07,29.0,temp_dist_trial,dist_items,qkpkxw,2.0,continue,,1444.199999997014,1440.3999999999942,1444.199999997014,1444.199999997014,1440.3999999999942,1444.199999997014,1.0,0.0,0.0,,Click To Continue,Next button,7.0,object-60,temp_dist_trial,29.0,s_sh_23_1,student_shared,ballpoint pen,7.0,competing,paired,s_sh_23_1.jpg,Student,,,sub-07
Desktop or Laptop,Windows 10,Chrome 138.0.0.0,1792x1344,894x1182,Temporal Distance Task,cb_07,29.0,temp_dist_trial,dist_items,qkpkxw,2.0,response,26,580.1999999999971,1440.3999999999942,1444.4999999940335,580.1999999999971,1440.3999999999942,1444.4999999940335,1.0,864.2999999940365,0.0,,Slider,Slider,4.0,object-56,temp_dist_trial,29.0,s_sh_23_1,student_shared,ballpoint pen,7.0,competing,paired,s_sh_23_1.jpg,Student,,,sub-07
Desktop or Laptop,Windows 10,Chrome 138.0.0.0,1792x1344,894x1182,Temporal Distance Task,cb_07,30.0,temp_dist_trial,num_items,zn7si1,1.0,response,2_ITEM,994.7999999970198,980.5,994.7999999970198,994.7999999970198,980.5,994.7999999970198,1.0,0.0,0.0,,Click Response,2_count,5.0,object-49,temp_dist_trial,30.0,s_a_06_1,student_art,pastels,7.0,unique,paired,s_a_06_1.jpg,Student,,,sub-07
Desktop or Laptop,Windows 10,Chrome 138.0.0.0,1792x1344,894x1182,Temporal Distance Task,cb_07,30.0,temp_dist_trial,dist_items,qkpkxw,2.0,info,,3.1999999999970896,0.0,3.1999999999970896,3.1999999999970896,0.0,3.1999999999970896,1.0,0.0,0.0,,Slider,Slider,4.0,object-56,temp_dist_trial,30.0,s_a_06_1,student_art,pastels,7.0,unique,paired,s_a_06_1.jpg,Student,,,sub-07
Desktop or Laptop,Windows 10,Chrome 138.0.0.0,1792x1344,894x1182,Temporal Distance Task,cb_07,30.0,temp_dist_trial,dist_items,qkpkxw,2.0,continue,,1462.4000000029773,1460.3999999999942,1462.4000000029773,1462.4000000029773,1460.3999999999942,1462.4000000029773,1.0,0.0,0.0,,Click To Continue,Next button,7.0,object-60,temp_dist_trial,30.0,s_a_06_1,student_art,pastels,7.0,unique,paired,s_a_06_1.jpg,Student,,,sub-07
Desktop or Laptop,Windows 10,Chrome 138.0.0.0,1792x1344,894x1182,Temporal Distance Task,cb_07,30.0,temp_dist_trial,dist_items,qkpkxw,2.0,response,58,580.3000000000029,1460.3999999999942,1462.6999999999966,580.3000000000029,1460.3999999999942,1462.6999999999966,1.0,882.3999999999942,0.0,,Slider,Slider,4.0,object-56,temp_dist_trial,30.0,s_a_06_1,student_art,pastels,7.0,unique,paired,s_a_06_1.jpg,Student,,,sub-07
Desktop or Laptop,Windows 10,Chrome 138.0.0.0,1792x1344,894x1182,Temporal Distance Task,cb_07,31.0,temp_dist_trial,num_items,zn7si1,1.0,response,1_ITEM,917.8000000000028,900.3000000000029,917.8000000000028,917.8000000000028,900.3000000000029,917.8000000000028,1.0,0.0,0.0,,Click Response,1_count,3.0,object-46,temp_dist_trial,31.0,s_sh_14_1,student_shared,printer,7.0,competing,paired,s_sh_14_1.jpg,Student,,,sub-07
Desktop or Laptop,Windows 10,Chrome 138.0.0.0,1792x1344,894x1182,Temporal Distance Task,cb_07,32.0,temp_dist_trial,num_items,zn7si1,1.0,response,2_ITEM,998.7999999940364,980.0999999999913,998.7999999940364,998.7999999940364,980.0999999999913,998.7999999940364,1.0,0.0,0.0,,Click Response,2_count,5.0,object-49,temp_dist_trial,32.0,s_sh_03_1,student_shared,highlighter,7.0,competing,paired,s_sh_03_1.jpg,Student,,,sub-07
Desktop or Laptop,Windows 10,Chrome 138.0.0.0,1792x1344,894x1182,Temporal Distance Task,cb_07,32.0,temp_dist_trial,dist_items,qkpkxw,2.0,info,,3.1999999940453563,0.0,3.1999999940453563,3.1999999940453563,0.0,3.1999999940453563,1.0,0.0,0.0,,Slider,Slider,4.0,object-56,temp_dist_trial,32.0,s_sh_03_1,student_shared,highlighter,7.0,competing,paired,s_sh_03_1.jpg,Student,,,sub-07
Desktop or Laptop,Windows 10,Chrome 138.0.0.0,1792x1344,894x1182,Temporal Distance Task,cb_07,32.0,temp_dist_trial,dist_items,qkpkxw,2.0,continue,,1704.1999999940454,1700.400000000009,1704.1999999940454,1704.1999999940454,1700.400000000009,1704.1999999940454,1.0,0.0,0.0,,Click To Continue,Next button,7.0,object-60,temp_dist_trial,32.0,s_sh_03_1,student_shared,highlighter,7.0,competing,paired,s_sh_03_1.jpg,Student,,,sub-07
Desktop or Laptop,Windows 10,Chrome 138.0.0.0,1792x1344,894x1182,Temporal Distance Task,cb_07,32.0,temp_dist_trial,dist_items,qkpkxw,2.0,response,19,660.2000000000116,1700.400000000009,1704.4999999910654,660.2000000000116,1700.400000000009,1704.4999999910654,1.0,1044.2999999910537,0.0,,Slider,Slider,4.0,object-56,temp_dist_trial,32.0,s_sh_03_1,student_shared,highlighter,7.0,competing,paired,s_sh_03_1.jpg,Student,,,sub-07
Desktop or Laptop,Windows 10,Chrome 138.0.0.0,1792x1344,894x1182,Temporal Distance Task,cb_07,33.0,temp_dist_trial,num_items,zn7si1,1.0,response,1_ITEM,1021.1999999999972,1020.1999999999972,1021.1999999999972,1021.1999999999972,1020.1999999999972,1021.1999999999972,1.0,0.0,0.0,,Click Response,1_count,3.0,object-46,temp_dist_trial,33.0,s_a_08_1,student_art,sewing machine,7.0,unique,single,s_a_08_1.jpg,Student,,,sub-07
Desktop or Laptop,Windows 10,Chrome 138.0.0.0,1792x1344,894x1182,Temporal Distance Task,cb_07,34.0,temp_dist_trial,num_items,zn7si1,1.0,response,1_ITEM,1092.6000000029744,1080.3999999999942,1092.6000000029744,1092.6000000029744,1080.3999999999942,1092.6000000029744,1.0,0.0,0.0,,Click Response,1_count,3.0,object-46,temp_dist_trial,34.0,s_sh_24_1,student_shared,desk organizer,7.0,competing,paired,s_sh_24_1.jpg,Student,,,sub-07
Desktop or Laptop,Windows 10,Chrome 138.0.0.0,1792x1344,894x1182,Temporal Distance Task,cb_07,35.0,temp_dist_trial,num_items,zn7si1,1.0,response,2_ITEM,1325.1999999910622,1320.1999999999969,1325.1999999910622,1325.1999999910622,1320.1999999999969,1325.1999999910622,1.0,0.0,0.0,,Click Response,2_count,5.0,object-49,temp_dist_trial,35.0,s_s_08_1,student_stem,soldering iron,7.0,unique,paired,s_s_08_1.jpg,Student,,,sub-07
Desktop or Laptop,Windows 10,Chrome 138.0.0.0,1792x1344,894x1182,Temporal Distance Task,cb_07,35.0,temp_dist_trial,dist_items,qkpkxw,2.0,info,,3.6999999970139466,0.0,3.6999999970139466,3.6999999970139466,0.0,3.6999999970139466,1.0,0.0,0.0,,Slider,Slider,4.0,object-56,temp_dist_trial,35.0,s_s_08_1,student_stem,soldering iron,7.0,unique,paired,s_s_08_1.jpg,Student,,,sub-07
Desktop or Laptop,Windows 10,Chrome 138.0.0.0,1792x1344,894x1182,Temporal Distance Task,cb_07,35.0,temp_dist_trial,dist_items,qkpkxw,2.0,continue,,1596.6000000029746,1580.3999999999942,1596.6000000029746,1596.6000000029746,1580.3999999999942,1596.6000000029746,1.0,0.0,0.0,,Click To Continue,Next button,7.0,object-60,temp_dist_trial,35.0,s_s_08_1,student_stem,soldering iron,7.0,unique,paired,s_s_08_1.jpg,Student,,,sub-07
Desktop or Laptop,Windows 10,Chrome 138.0.0.0,1792x1344,894x1182,Temporal Distance Task,cb_07,35.0,temp_dist_trial,dist_items,qkpkxw,2.0,response,23,660.0,1580.3999999999942,1596.9999999940335,660.0,1580.3999999999942,1596.9999999940335,1.0,936.9999999940337,0.0,,Slider,Slider,4.0,object-56,temp_dist_trial,35.0,s_s_08_1,student_stem,soldering iron,7.0,unique,paired,s_s_08_1.jpg,Student,,,sub-07
Desktop or Laptop,Windows 10,Chrome 138.0.0.0,1792x1344,894x1182,Temporal Distance Task,cb_07,36.0,temp_dist_trial,num_items,zn7si1,1.0,response,2_ITEM,958.5,940.1000000000058,958.5,958.5,940.1000000000058,958.5,1.0,0.0,0.0,,Click Response,2_count,5.0,object-49,temp_dist_trial,36.0,s_a_03_1,student_art,palette,7.0,unique,single,s_a_03_1.jpg,Student,,,sub-07
Desktop or Laptop,Windows 10,Chrome 138.0.0.0,1792x1344,894x1182,Temporal Distance Task,cb_07,36.0,temp_dist_trial,dist_items,qkpkxw,2.0,info,,3.400000002977322,0.0,3.400000002977322,3.400000002977322,0.0,3.400000002977322,1.0,0.0,0.0,,Slider,Slider,4.0,object-56,temp_dist_trial,36.0,s_a_03_1,student_art,palette,7.0,unique,single,s_a_03_1.jpg,Student,,,sub-07
Desktop or Laptop,Windows 10,Chrome 138.0.0.0,1792x1344,894x1182,Temporal Distance Task,cb_07,36.0,temp_dist_trial,dist_items,qkpkxw,2.0,continue,,2138.999999997017,2120.3999999999937,2138.999999997017,2138.999999997017,2120.3999999999937,2138.999999997017,1.0,0.0,0.0,,Click To Continue,Next button,7.0,object-60,temp_dist_trial,36.0,s_a_03_1,student_art,palette,7.0,unique,single,s_a_03_1.jpg,Student,,,sub-07
Desktop or Laptop,Windows 10,Chrome 138.0.0.0,1792x1344,894x1182,Temporal Distance Task,cb_07,36.0,temp_dist_trial,dist_items,qkpkxw,2.0,response,57,1280.1999999999969,2120.3999999999937,2139.199999999997,1280.1999999999969,2120.3999999999937,2139.199999999997,1.0,859.0,0.0,,Slider,Slider,4.0,object-56,temp_dist_trial,36.0,s_a_03_1,student_art,palette,7.0,unique,single,s_a_03_1.jpg,Student,,,sub-07
Desktop or Laptop,Windows 10,Chrome 138.0.0.0,1792x1344,894x1182,Temporal Distance Task,cb_07,37.0,temp_dist_trial,num_items,zn7si1,1.0,response,1_ITEM,873.8000000000029,860.4000000000087,873.8000000000029,873.8000000000029,860.4000000000087,873.8000000000029,1.0,0.0,0.0,,Click Response,1_count,3.0,object-46,temp_dist_trial,37.0,s_s_20_1,student_stem,dna model,7.0,unique,paired,s_s_20_1.jpg,Student,,,sub-07
Desktop or Laptop,Windows 10,Chrome 138.0.0.0,1792x1344,894x1182,Temporal Distance Task,cb_07,38.0,temp_dist_trial,num_items,zn7si1,1.0,response,1_ITEM,951.8999999999942,940.2999999999884,951.8999999999942,951.8999999999942,940.2999999999884,951.8999999999942,1.0,0.0,0.0,,Click Response,1_count,3.0,object-46,temp_dist_trial,38.0,s_sh_22_1,student_shared,hole puncher,7.0,competing,single,s_sh_22_1.jpg,Student,,,sub-07
Desktop or Laptop,Windows 10,Chrome 138.0.0.0,1792x1344,894x1182,Temporal Distance Task,cb_07,39.0,temp_dist_trial,num_items,zn7si1,1.0,response,2_ITEM,2003.5999999910568,2000.5,2003.5999999910568,2003.5999999910568,2000.5,2003.5999999910568,1.0,0.0,0.0,,Click Response,2_count,5.0,object-49,temp_dist_trial,39.0,s_sh_19_1,student_shared,portable plastic drawer,7.0,competing,paired,s_sh_19_1.jpg,Student,,,sub-07
Desktop or Laptop,Windows 10,Chrome 138.0.0.0,1792x1344,894x1182,Temporal Distance Task,cb_07,39.0,temp_dist_trial,dist_items,qkpkxw,2.0,info,,3.300000002986053,0.0,3.300000002986053,3.300000002986053,0.0,3.300000002986053,1.0,0.0,0.0,,Slider,Slider,4.0,object-56,temp_dist_trial,39.0,s_sh_19_1,student_shared,portable plastic drawer,7.0,competing,paired,s_sh_19_1.jpg,Student,,,sub-07
Desktop or Laptop,Windows 10,Chrome 138.0.0.0,1792x1344,894x1182,Temporal Distance Task,cb_07,39.0,temp_dist_trial,dist_items,qkpkxw,2.0,continue,,1693.4999999910654,1680.6000000000058,1693.4999999910654,1693.4999999910654,1680.6000000000058,1693.4999999910654,1.0,0.0,0.0,,Click To Continue,Next button,7.0,object-60,temp_dist_trial,39.0,s_sh_19_1,student_shared,portable plastic drawer,7.0,competing,paired,s_sh_19_1.jpg,Student,,,sub-07
Desktop or Laptop,Windows 10,Chrome 138.0.0.0,1792x1344,894x1182,Temporal Distance Task,cb_07,39.0,temp_dist_trial,dist_items,qkpkxw,2.0,response,21,760.2000000000116,1680.6000000000058,1693.800000002986,760.2000000000116,1680.6000000000058,1693.800000002986,1.0,933.6000000029744,0.0,,Slider,Slider,4.0,object-56,temp_dist_trial,39.0,s_sh_19_1,student_shared,portable plastic drawer,7.0,competing,paired,s_sh_19_1.jpg,Student,,,sub-07
Desktop or Laptop,Windows 10,Chrome 138.0.0.0,1792x1344,894x1182,Temporal Distance Task,cb_07,40.0,temp_dist_trial,num_items,zn7si1,1.0,response,1_ITEM,1100.2999999970198,1080.1999999999969,1100.2999999970198,1100.2999999970198,1080.1999999999969,1100.2999999970198,1.0,0.0,0.0,,Click Response,1_count,3.0,object-46,temp_dist_trial,40.0,s_sh_08_1,student_shared,post-its,7.0,competing,single,s_sh_08_1.jpg,Student,,,sub-07
Desktop or Laptop,Windows 10,Chrome 138.0.0.0,1792x1344,894x1182,Temporal Distance Task,cb_07,41.0,temp_dist_trial,num_items,zn7si1,1.0,response,1_ITEM,781.7999999940365,780.0999999999913,781.7999999940365,781.7999999940365,780.0999999999913,781.7999999940365,1.0,0.0,0.0,,Click Response,1_count,3.0,object-46,temp_dist_trial,41.0,s_a_15_1,student_art,drum kit,7.0,unique,paired,s_a_15_1.jpg,Student,,,sub-07
Desktop or Laptop,Windows 10,Chrome 138.0.0.0,1792x1344,894x1182,Temporal Distance Task,cb_07,42.0,temp_dist_trial,num_items,zn7si1,1.0,response,2_ITEM,1282.5999999940395,1280.3000000000031,1282.5999999940395,1282.5999999940395,1280.3000000000031,1282.5999999940395,1.0,0.0,0.0,,Click Response,2_count,5.0,object-49,temp_dist_trial,42.0,s_s_06_1,student_stem,calculator,7.0,unique,paired,s_s_06_1.jpg,Student,,,sub-07
Desktop or Laptop,Windows 10,Chrome 138.0.0.0,1792x1344,894x1182,Temporal Distance Task,cb_07,42.0,temp_dist_trial,dist_items,qkpkxw,2.0,info,,4.6000000000058225,0.0,4.6000000000058225,4.6000000000058225,0.0,4.6000000000058225,1.0,0.0,0.0,,Slider,Slider,4.0,object-56,temp_dist_trial,42.0,s_s_06_1,student_stem,calculator,7.0,unique,paired,s_s_06_1.jpg,Student,,,sub-07
Desktop or Laptop,Windows 10,Chrome 138.0.0.0,1792x1344,894x1182,Temporal Distance Task,cb_07,42.0,temp_dist_trial,dist_items,qkpkxw,2.0,continue,,3196.800000002986,3180.800000000003,3196.800000002986,3196.800000002986,3180.800000000003,3196.800000002986,1.0,0.0,0.0,,Click To Continue,Next button,7.0,object-60,temp_dist_trial,42.0,s_s_06_1,student_stem,calculator,7.0,unique,paired,s_s_06_1.jpg,Student,,,sub-07
Desktop or Laptop,Windows 10,Chrome 138.0.0.0,1792x1344,894x1182,Temporal Distance Task,cb_07,42.0,temp_dist_trial,dist_items,qkpkxw,2.0,response,36,2200.700000000012,3180.800000000003,3197.3999999970256,2200.700000000012,3180.800000000003,3197.3999999970256,1.0,996.6999999970141,0.0,,Slider,Slider,4.0,object-56,temp_dist_trial,42.0,s_s_06_1,student_stem,calculator,7.0,unique,paired,s_s_06_1.jpg,Student,,,sub-07
Desktop or Laptop,Windows 10,Chrome 138.0.0.0,1792x1344,894x1182,Temporal Distance Task,cb_07,43.0,temp_dist_trial,num_items,zn7si1,1.0,response,1_ITEM,1040.1999999999969,1020.3000000000028,1040.1999999999969,1040.1999999999969,1020.3000000000028,1040.1999999999969,1.0,0.0,0.0,,Click Response,1_count,3.0,object-46,temp_dist_trial,43.0,s_s_13_1,student_stem,telescope,7.0,unique,single,s_s_13_1.jpg,Student,,,sub-07
Desktop or Laptop,Windows 10,Chrome 138.0.0.0,1792x1344,894x1182,Temporal Distance Task,cb_07,44.0,temp_dist_trial,num_items,zn7si1,1.0,response,1_ITEM,1883.5,1880.5,1883.5,1883.5,1880.5,1883.5,1.0,0.0,0.0,,Click Response,1_count,3.0,object-46,temp_dist_trial,44.0,s_a_13_1,student_art,violin,7.0,unique,single,s_a_13_1.jpg,Student,,,sub-07
Desktop or Laptop,Windows 10,Chrome 138.0.0.0,1792x1344,894x1182,Temporal Distance Task,cb_07,45.0,temp_dist_trial,num_items,zn7si1,1.0,response,2_ITEM,1373.199999997014,1360.2999999999886,1373.199999997014,1373.199999997014,1360.2999999999886,1373.199999997014,1.0,0.0,0.0,,Click Response,2_count,5.0,object-49,temp_dist_trial,45.0,s_sh_15_1,student_shared,usb drive,7.0,competing,paired,s_sh_15_1.jpg,Student,,,sub-07
Desktop or Laptop,Windows 10,Chrome 138.0.0.0,1792x1344,894x1182,Temporal Distance Task,cb_07,45.0,temp_dist_trial,dist_items,qkpkxw,2.0,info,,4.8999999910593015,0.0,4.8999999910593015,4.8999999910593015,0.0,4.8999999910593015,1.0,0.0,0.0,,Slider,Slider,4.0,object-56,temp_dist_trial,45.0,s_sh_15_1,student_shared,usb drive,7.0,competing,paired,s_sh_15_1.jpg,Student,,,sub-07
Desktop or Laptop,Windows 10,Chrome 138.0.0.0,1792x1344,894x1182,Temporal Distance Task,cb_07,45.0,temp_dist_trial,dist_items,qkpkxw,2.0,continue,,2040.5000000000146,2020.6000000000056,2040.5000000000146,2040.5000000000146,2020.6000000000056,2040.5000000000146,1.0,0.0,0.0,,Click To Continue,Next button,7.0,object-60,temp_dist_trial,45.0,s_sh_15_1,student_shared,usb drive,7.0,competing,paired,s_sh_15_1.jpg,Student,,,sub-07
Desktop or Laptop,Windows 10,Chrome 138.0.0.0,1792x1344,894x1182,Temporal Distance Task,cb_07,45.0,temp_dist_trial,dist_items,qkpkxw,2.0,response,13,800.1999999999971,2020.6000000000056,2040.5000000000146,800.1999999999971,2020.6000000000056,2040.5000000000146,1.0,1240.3000000000175,0.0,,Slider,Slider,4.0,object-56,temp_dist_trial,45.0,s_sh_15_1,student_shared,usb drive,7.0,competing,paired,s_sh_15_1.jpg,Student,,,sub-07
Desktop or Laptop,Windows 10,Chrome 138.0.0.0,1792x1344,894x1182,Temporal Distance Task,cb_07,46.0,temp_dist_trial,num_items,zn7si1,1.0,response,1_ITEM,923.1000000029744,920.1999999999972,923.1000000029744,923.1000000029744,920.1999999999972,923.1000000029744,1.0,0.0,0.0,,Click Response,1_count,3.0,object-46,temp_dist_trial,46.0,s_s_14_1,student_stem,funnel,7.0,unique,single,s_s_14_1.jpg,Student,,,sub-07
Desktop or Laptop,Windows 10,Chrome 138.0.0.0,1792x1344,894x1182,Temporal Distance Task,cb_07,47.0,temp_dist_trial,num_items,zn7si1,1.0,response,2_ITEM,1409.5999999910566,1400.3999999999942,1409.5999999910566,1409.5999999910566,1400.3999999999942,1409.5999999910566,1.0,0.0,0.0,,Click Response,2_count,5.0,object-49,temp_dist_trial,47.0,s_s_19_1,student_stem,circuit board,7.0,unique,paired,s_s_19_1.jpg,Student,,,sub-07
Desktop or Laptop,Windows 10,Chrome 138.0.0.0,1792x1344,894x1182,Temporal Distance Task,cb_07,47.0,temp_dist_trial,dist_items,qkpkxw,2.0,info,,3.6999999940453567,0.0,3.6999999940453567,3.6999999940453567,0.0,3.6999999940453567,1.0,0.0,0.0,,Slider,Slider,4.0,object-56,temp_dist_trial,47.0,s_s_19_1,student_stem,circuit board,7.0,unique,paired,s_s_19_1.jpg,Student,,,sub-07
Desktop or Laptop,Windows 10,Chrome 138.0.0.0,1792x1344,894x1182,Temporal Distance Task,cb_07,47.0,temp_dist_trial,dist_items,qkpkxw,2.0,continue,,1394.300000002986,1380.2000000000116,1394.300000002986,1394.300000002986,1380.2000000000116,1394.300000002986,1.0,0.0,0.0,,Click To Continue,Next button,7.0,object-60,temp_dist_trial,47.0,s_s_19_1,student_stem,circuit board,7.0,unique,paired,s_s_19_1.jpg,Student,,,sub-07
Desktop or Laptop,Windows 10,Chrome 138.0.0.0,1792x1344,894x1182,Temporal Distance Task,cb_07,47.0,temp_dist_trial,dist_items,qkpkxw,2.0,response,61,620.1000000000057,1380.2000000000116,1394.6000000000058,620.1000000000057,1380.2000000000116,1394.6000000000058,1.0,774.5,0.0,,Slider,Slider,4.0,object-56,temp_dist_trial,47.0,s_s_19_1,student_stem,circuit board,7.0,unique,paired,s_s_19_1.jpg,Student,,,sub-07
Desktop or Laptop,Windows 10,Chrome 138.0.0.0,1792x1344,894x1182,Temporal Distance Task,cb_07,48.0,temp_dist_trial,num_items,zn7si1,1.0,response,1_ITEM,1043.6000000029744,1040.2999999999884,1043.6000000029744,1043.6000000029744,1040.2999999999884,1043.6000000029744,1.0,0.0,0.0,,Click Response,1_count,3.0,object-46,temp_dist_trial,48.0,s_sh_09_1,student_shared,paper clips,7.0,competing,single,s_sh_09_1.jpg,Student,,,sub-07
Desktop or Laptop,Windows 10,Chrome 138.0.0.0,1792x1344,894x1182,Temporal Distance Task,cb_07,2.0,temp_eventStart,Screen 1,dgtyxe,1.0,continue,,983.0999999940396,980.2999999999884,983.0999999940396,983.0999999940396,980.2999999999884,983.0999999940396,1.0,0.0,0.0,,Click To Continue,Next Button,3.0,object-43,temp_eventStart,,,Travel,,,,,,,,,sub-07
Desktop or Laptop,Windows 10,Chrome 138.0.0.0,1792x1344,894x1182,Temporal Distance Task,cb_07,49.0,temp_dist_trial,num_items,zn7si1,1.0,response,2_ITEM,1619.2000000000116,1600.3000000000175,1619.2000000000116,1619.2000000000116,1600.3000000000175,1619.2000000000116,1.0,0.0,0.0,,Click Response,2_count,5.0,object-49,temp_dist_trial,1.0,t_i_04_1,travel_Iceland,portable camping stove,7.0,unique,paired,t_i_04_1.jpg,Travel,,,sub-07
Desktop or Laptop,Windows 10,Chrome 138.0.0.0,1792x1344,894x1182,Temporal Distance Task,cb_07,49.0,temp_dist_trial,dist_items,qkpkxw,2.0,info,,6.299999999988358,0.0,6.299999999988358,6.299999999988358,0.0,6.299999999988358,1.0,0.0,0.0,,Slider,Slider,4.0,object-56,temp_dist_trial,1.0,t_i_04_1,travel_Iceland,portable camping stove,7.0,unique,paired,t_i_04_1.jpg,Travel,,,sub-07
Desktop or Laptop,Windows 10,Chrome 138.0.0.0,1792x1344,894x1182,Temporal Distance Task,cb_07,49.0,temp_dist_trial,dist_items,qkpkxw,2.0,continue,,1896.0000000029688,1880.5999999999767,1896.0000000029688,1896.0000000029688,1880.5999999999767,1896.0000000029688,1.0,0.0,0.0,,Click To Continue,Next button,7.0,object-60,temp_dist_trial,1.0,t_i_04_1,travel_Iceland,portable camping stove,7.0,unique,paired,t_i_04_1.jpg,Travel,,,sub-07
Desktop or Laptop,Windows 10,Chrome 138.0.0.0,1792x1344,894x1182,Temporal Distance Task,cb_07,49.0,temp_dist_trial,dist_items,qkpkxw,2.0,response,29,1000.2999999999884,1880.5999999999767,1896.2999999999884,1000.2999999999884,1880.5999999999767,1896.2999999999884,1.0,896.0,0.0,,Slider,Slider,4.0,object-56,temp_dist_trial,1.0,t_i_04_1,travel_Iceland,portable camping stove,7.0,unique,paired,t_i_04_1.jpg,Travel,,,sub-07
Desktop or Laptop,Windows 10,Chrome 138.0.0.0,1792x1344,894x1182,Temporal Distance Task,cb_07,50.0,temp_dist_trial,num_items,zn7si1,1.0,response,1_ITEM,1342.9999999970316,1340.2000000000114,1342.9999999970316,1342.9999999970316,1340.2000000000114,1342.9999999970316,1.0,0.0,0.0,,Click Response,1_count,3.0,object-46,temp_dist_trial,2.0,t_i_17_1,travel_Iceland,binoculars,7.0,unique,single,t_i_17_1.jpg,Travel,,,sub-07
Desktop or Laptop,Windows 10,Chrome 138.0.0.0,1792x1344,894x1182,Temporal Distance Task,cb_07,51.0,temp_dist_trial,num_items,zn7si1,1.0,response,1_ITEM,1023.6000000029744,1020.2999999999884,1023.6000000029744,1023.6000000029744,1020.2999999999884,1023.6000000029744,1.0,0.0,0.0,,Click Response,1_count,3.0,object-46,temp_dist_trial,3.0,t_m_04_1,travel_Miami,UV jacket,7.0,unique,single,t_m_04_1.jpg,Travel,,,sub-07
Desktop or Laptop,Windows 10,Chrome 138.0.0.0,1792x1344,894x1182,Temporal Distance Task,cb_07,52.0,temp_dist_trial,num_items,zn7si1,1.0,response,1_ITEM,902.6999999970141,900.1000000000058,902.6999999970141,902.6999999970141,900.1000000000058,902.6999999970141,1.0,0.0,0.0,,Click Response,1_count,3.0,object-46,temp_dist_trial,4.0,t_m_20_1,travel_Miami,inflatable beachball,7.0,unique,single,t_m_20_1.jpg,Travel,,,sub-07
Desktop or Laptop,Windows 10,Chrome 138.0.0.0,1792x1344,894x1182,Temporal Distance Task,cb_07,53.0,temp_dist_trial,num_items,zn7si1,1.0,response,1_ITEM,977.5999999940396,960.0,977.5999999940396,977.5999999940396,960.0,977.5999999940396,1.0,0.0,0.0,,Click Response,1_count,3.0,object-46,temp_dist_trial,5.0,t_s_24_1,travel_shared,ear plugs,7.0,competing,single,t_s_24_1.jpg,Travel,,,sub-07
Desktop or Laptop,Windows 10,Chrome 138.0.0.0,1792x1344,894x1182,Temporal Distance Task,cb_07,54.0,temp_dist_trial,num_items,zn7si1,1.0,response,2_ITEM,1859.199999997014,1840.3999999999944,1859.199999997014,1859.199999997014,1840.3999999999944,1859.199999997014,1.0,0.0,0.0,,Click Response,2_count,5.0,object-49,temp_dist_trial,6.0,t_s_16_1,travel_shared,chapstick,7.0,competing,paired,t_s_16_1.jpg,Travel,,,sub-07
Desktop or Laptop,Windows 10,Chrome 138.0.0.0,1792x1344,894x1182,Temporal Distance Task,cb_07,54.0,temp_dist_trial,dist_items,qkpkxw,2.0,info,,3.2999999910534825,0.0,3.2999999910534825,3.2999999910534825,0.0,3.2999999910534825,1.0,0.0,0.0,,Slider,Slider,4.0,object-56,temp_dist_trial,6.0,t_s_16_1,travel_shared,chapstick,7.0,competing,paired,t_s_16_1.jpg,Travel,,,sub-07
Desktop or Laptop,Windows 10,Chrome 138.0.0.0,1792x1344,894x1182,Temporal Distance Task,cb_07,54.0,temp_dist_trial,dist_items,qkpkxw,2.0,continue,,1383.6000000029746,1380.3999999999942,1383.6000000029746,1383.6000000029746,1380.3999999999942,1383.6000000029746,1.0,0.0,0.0,,Click To Continue,Next button,7.0,object-60,temp_dist_trial,6.0,t_s_16_1,travel_shared,chapstick,7.0,competing,paired,t_s_16_1.jpg,Travel,,,sub-07
Desktop or Laptop,Windows 10,Chrome 138.0.0.0,1792x1344,894x1182,Temporal Distance Task,cb_07,54.0,temp_dist_trial,dist_items,qkpkxw,2.0,response,75,540.2999999999884,1380.3999999999942,1383.7999999910535,540.2999999999884,1380.3999999999942,1383.7999999910535,1.0,843.499999991065,0.0,,Slider,Slider,4.0,object-56,temp_dist_trial,6.0,t_s_16_1,travel_shared,chapstick,7.0,competing,paired,t_s_16_1.jpg,Travel,,,sub-07
Desktop or Laptop,Windows 10,Chrome 138.0.0.0,1792x1344,894x1182,Temporal Distance Task,cb_07,55.0,temp_dist_trial,num_items,zn7si1,1.0,response,1_ITEM,985.8999999910593,980.5,985.8999999910593,985.8999999910593,980.5,985.8999999910593,1.0,0.0,0.0,,Click Response,1_count,3.0,object-46,temp_dist_trial,7.0,t_s_23_1,travel_shared,ball cap,7.0,competing,single,t_s_23_1.jpg,Travel,,,sub-07
Desktop or Laptop,Windows 10,Chrome 138.0.0.0,1792x1344,894x1182,Temporal Distance Task,cb_07,56.0,temp_dist_trial,num_items,zn7si1,1.0,response,1_ITEM,1111.2000000000116,1100.3000000000177,1111.2000000000116,1111.2000000000116,1100.3000000000177,1111.2000000000116,1.0,0.0,0.0,,Click Response,1_count,3.0,object-46,temp_dist_trial,8.0,t_i_11_1,travel_Iceland,headlamp,7.0,unique,paired,t_i_11_1.jpg,Travel,,,sub-07
Desktop or Laptop,Windows 10,Chrome 138.0.0.0,1792x1344,894x1182,Temporal Distance Task,cb_07,57.0,temp_dist_trial,num_items,zn7si1,1.0,response,1_ITEM,972.5000000029686,960.3999999999942,972.5000000029686,972.5000000029686,960.3999999999942,972.5000000029686,1.0,0.0,0.0,,Click Response,1_count,3.0,object-46,temp_dist_trial,9.0,t_i_03_1,travel_Iceland,winter jacket,7.0,unique,single,t_i_03_1.jpg,Travel,,,sub-07
Desktop or Laptop,Windows 10,Chrome 138.0.0.0,1792x1344,894x1182,Temporal Distance Task,cb_07,58.0,temp_dist_trial,num_items,zn7si1,1.0,response,2_ITEM,1183.8999999910593,1180.2999999999886,1183.8999999910593,1183.8999999910593,1180.2999999999886,1183.8999999910593,1.0,0.0,0.0,,Click Response,2_count,5.0,object-49,temp_dist_trial,10.0,t_i_12_1,travel_Iceland,tent,7.0,unique,paired,t_i_12_1.jpg,Travel,,,sub-07
Desktop or Laptop,Windows 10,Chrome 138.0.0.0,1792x1344,894x1182,Temporal Distance Task,cb_07,58.0,temp_dist_trial,dist_items,qkpkxw,2.0,info,,3.3999999970255885,0.0,3.3999999970255885,3.3999999970255885,0.0,3.3999999970255885,1.0,0.0,0.0,,Slider,Slider,4.0,object-56,temp_dist_trial,10.0,t_i_12_1,travel_Iceland,tent,7.0,unique,paired,t_i_12_1.jpg,Travel,,,sub-07
Desktop or Laptop,Windows 10,Chrome 138.0.0.0,1792x1344,894x1182,Temporal Distance Task,cb_07,58.0,temp_dist_trial,dist_items,qkpkxw,2.0,continue,,1723.300000002986,1720.3999999999942,1723.300000002986,1723.300000002986,1720.3999999999942,1723.300000002986,1.0,0.0,0.0,,Click To Continue,Next button,7.0,object-60,temp_dist_trial,10.0,t_i_12_1,travel_Iceland,tent,7.0,unique,paired,t_i_12_1.jpg,Travel,,,sub-07
Desktop or Laptop,Windows 10,Chrome 138.0.0.0,1792x1344,894x1182,Temporal Distance Task,cb_07,58.0,temp_dist_trial,dist_items,qkpkxw,2.0,response,13,700.2000000000116,1720.3999999999942,1723.6000000000058,700.2000000000116,1720.3999999999942,1723.6000000000058,1.0,1023.3999999999942,0.0,,Slider,Slider,4.0,object-56,temp_dist_trial,10.0,t_i_12_1,travel_Iceland,tent,7.0,unique,paired,t_i_12_1.jpg,Travel,,,sub-07
Desktop or Laptop,Windows 10,Chrome 138.0.0.0,1792x1344,894x1182,Temporal Distance Task,cb_07,59.0,temp_dist_trial,num_items,zn7si1,1.0,response,1_ITEM,1312.7999999940512,1300.3000000000175,1312.7999999940512,1312.7999999940512,1300.3000000000175,1312.7999999940512,1.0,0.0,0.0,,Click Response,1_count,3.0,object-46,temp_dist_trial,11.0,t_s_15_1,travel_shared,luggage tag,7.0,competing,single,t_s_15_1.jpg,Travel,,,sub-07
Desktop or Laptop,Windows 10,Chrome 138.0.0.0,1792x1344,894x1182,Temporal Distance Task,cb_07,60.0,temp_dist_trial,num_items,zn7si1,1.0,response,2_ITEM,1216.300000002986,1200.3000000000175,1216.300000002986,1216.300000002986,1200.3000000000175,1216.300000002986,1.0,0.0,0.0,,Click Response,2_count,5.0,object-49,temp_dist_trial,12.0,t_m_05_1,travel_Miami,sunscreen,7.0,unique,paired,t_m_05_1.jpg,Travel,,,sub-07
Desktop or Laptop,Windows 10,Chrome 138.0.0.0,1792x1344,894x1182,Temporal Distance Task,cb_07,60.0,temp_dist_trial,dist_items,qkpkxw,2.0,info,,3.8999999940278935,0.0,3.8999999940278935,3.8999999940278935,0.0,3.8999999940278935,1.0,0.0,0.0,,Slider,Slider,4.0,object-56,temp_dist_trial,12.0,t_m_05_1,travel_Miami,sunscreen,7.0,unique,paired,t_m_05_1.jpg,Travel,,,sub-07
Desktop or Laptop,Windows 10,Chrome 138.0.0.0,1792x1344,894x1182,Temporal Distance Task,cb_07,60.0,temp_dist_trial,dist_items,qkpkxw,2.0,continue,,1564.7999999999884,1560.3999999999942,1564.7999999999884,1564.7999999999884,1560.3999999999942,1564.7999999999884,1.0,0.0,0.0,,Click To Continue,Next button,7.0,object-60,temp_dist_trial,12.0,t_m_05_1,travel_Miami,sunscreen,7.0,unique,paired,t_m_05_1.jpg,Travel,,,sub-07
Desktop or Laptop,Windows 10,Chrome 138.0.0.0,1792x1344,894x1182,Temporal Distance Task,cb_07,60.0,temp_dist_trial,dist_items,qkpkxw,2.0,response,70,620.0999999999767,1560.3999999999942,1565.0999999970081,620.0999999999767,1560.3999999999942,1565.0999999970081,1.0,944.9999999970314,0.0,,Slider,Slider,4.0,object-56,temp_dist_trial,12.0,t_m_05_1,travel_Miami,sunscreen,7.0,unique,paired,t_m_05_1.jpg,Travel,,,sub-07
Desktop or Laptop,Windows 10,Chrome 138.0.0.0,1792x1344,894x1182,Temporal Distance Task,cb_07,61.0,temp_dist_trial,num_items,zn7si1,1.0,response,1_ITEM,1255.1000000029746,1240.2999999999886,1255.1000000029746,1255.1000000029746,1240.2999999999886,1255.1000000029746,1.0,0.0,0.0,,Click Response,1_count,3.0,object-46,temp_dist_trial,13.0,t_s_01_1,travel_shared,fanny pack,7.0,competing,single,t_s_01_1.jpg,Travel,,,sub-07
Desktop or Laptop,Windows 10,Chrome 138.0.0.0,1792x1344,894x1182,Temporal Distance Task,cb_07,62.0,temp_dist_trial,num_items,zn7si1,1.0,response,1_ITEM,806.1000000029744,800.0,806.1000000029744,806.1000000029744,800.0,806.1000000029744,1.0,0.0,0.0,,Click Response,1_count,3.0,object-46,temp_dist_trial,14.0,t_m_09_1,travel_Miami,beach towel,7.0,unique,paired,t_m_09_1.jpg,Travel,,,sub-07
Desktop or Laptop,Windows 10,Chrome 138.0.0.0,1792x1344,894x1182,Temporal Distance Task,cb_07,63.0,temp_dist_trial,num_items,zn7si1,1.0,response,1_ITEM,991.099999997008,980.3999999999942,991.099999997008,991.099999997008,980.3999999999942,991.099999997008,1.0,0.0,0.0,,Click Response,1_count,3.0,object-46,temp_dist_trial,15.0,t_m_07_1,travel_Miami,sunglasses,7.0,unique,paired,t_m_07_1.jpg,Travel,,,sub-07
Desktop or Laptop,Windows 10,Chrome 138.0.0.0,1792x1344,894x1182,Temporal Distance Task,cb_07,64.0,temp_dist_trial,num_items,zn7si1,1.0,response,2_ITEM,2043.8999999999944,2040.3999999999944,2043.8999999999944,2043.8999999999944,2040.3999999999944,2043.8999999999944,1.0,0.0,0.0,,Click Response,2_count,5.0,object-49,temp_dist_trial,16.0,t_s_09_1,travel_shared,wallet,7.0,competing,paired,t_s_09_1.jpg,Travel,,,sub-07
Desktop or Laptop,Windows 10,Chrome 138.0.0.0,1792x1344,894x1182,Temporal Distance Task,cb_07,64.0,temp_dist_trial,dist_items,qkpkxw,2.0,info,,3.4999999970314093,0.0,3.4999999970314093,3.4999999970314093,0.0,3.4999999970314093,1.0,0.0,0.0,,Slider,Slider,4.0,object-56,temp_dist_trial,16.0,t_s_09_1,travel_shared,wallet,7.0,competing,paired,t_s_09_1.jpg,Travel,,,sub-07
Desktop or Laptop,Windows 10,Chrome 138.0.0.0,1792x1344,894x1182,Temporal Distance Task,cb_07,64.0,temp_dist_trial,dist_items,qkpkxw,2.0,continue,,1674.4000000029919,1660.4000000000233,1674.4000000029919,1674.4000000029919,1660.4000000000233,1674.4000000029919,1.0,0.0,0.0,,Click To Continue,Next button,7.0,object-60,temp_dist_trial,16.0,t_s_09_1,travel_shared,wallet,7.0,competing,paired,t_s_09_1.jpg,Travel,,,sub-07
Desktop or Laptop,Windows 10,Chrome 138.0.0.0,1792x1344,894x1182,Temporal Distance Task,cb_07,64.0,temp_dist_trial,dist_items,qkpkxw,2.0,response,85,720.0,1660.4000000000233,1674.7999999940512,720.0,1660.4000000000233,1674.7999999940512,1.0,954.7999999940512,0.0,,Slider,Slider,4.0,object-56,temp_dist_trial,16.0,t_s_09_1,travel_shared,wallet,7.0,competing,paired,t_s_09_1.jpg,Travel,,,sub-07
Desktop or Laptop,Windows 10,Chrome 138.0.0.0,1792x1344,894x1182,Temporal Distance Task,cb_07,65.0,temp_dist_trial,num_items,zn7si1,1.0,response,num_miss,3000.699999999982,3000.699999999982,3000.699999999982,3000.699999999982,3000.699999999982,3000.699999999982,1.0,0.0,0.0,num_miss_tag,Time Limit,screen,0.0,screen,temp_dist_trial,17.0,t_m_14_1,travel_Miami,swim goggles,7.0,unique,single,t_m_14_1.jpg,Travel,,,sub-07
Desktop or Laptop,Windows 10,Chrome 138.0.0.0,1792x1344,894x1182,Temporal Distance Task,cb_07,66.0,temp_dist_trial,num_items,zn7si1,1.0,response,num_miss,3000.6000000000067,3000.6000000000067,3000.6000000000067,3000.6000000000067,3000.6000000000067,3000.6000000000067,1.0,0.0,0.0,num_miss_tag,Time Limit,screen,0.0,screen,temp_dist_trial,18.0,t_s_03_1,travel_shared,portable charger,7.0,competing,paired,t_s_03_1.jpg,Travel,,,sub-07
Desktop or Laptop,Windows 10,Chrome 138.0.0.0,1792x1344,894x1182,Temporal Distance Task,cb_07,67.0,temp_dist_trial,num_items,zn7si1,1.0,response,2_ITEM,136.0000000029686,120.09999999997672,136.0000000029686,136.0000000029686,120.09999999997672,136.0000000029686,1.0,0.0,0.0,,Click Response,2_count,5.0,object-49,temp_dist_trial,19.0,t_s_20_1,travel_shared,travel pill case,7.0,competing,paired,t_s_20_1.jpg,Travel,,,sub-07
Desktop or Laptop,Windows 10,Chrome 138.0.0.0,1792x1344,894x1182,Temporal Distance Task,cb_07,67.0,temp_dist_trial,dist_items,qkpkxw,2.0,info,,9.799999994051177,0.0,9.799999994051177,9.799999994051177,0.0,9.799999994051177,1.0,0.0,0.0,,Slider,Slider,4.0,object-56,temp_dist_trial,19.0,t_s_20_1,travel_shared,travel pill case,7.0,competing,paired,t_s_20_1.jpg,Travel,,,sub-07
Desktop or Laptop,Windows 10,Chrome 138.0.0.0,1792x1344,894x1182,Temporal Distance Task,cb_07,67.0,temp_dist_trial,dist_items,qkpkxw,2.0,continue,,1699.7000000000116,1680.6000000000058,1699.7000000000116,1699.7000000000116,1680.6000000000058,1699.7000000000116,1.0,0.0,0.0,,Click To Continue,Next button,7.0,object-60,temp_dist_trial,19.0,t_s_20_1,travel_shared,travel pill case,7.0,competing,paired,t_s_20_1.jpg,Travel,,,sub-07
Desktop or Laptop,Windows 10,Chrome 138.0.0.0,1792x1344,894x1182,Temporal Distance Task,cb_07,67.0,temp_dist_trial,dist_items,qkpkxw,2.0,response,64,920.2000000000116,1680.6000000000058,1699.9999999970316,920.2000000000116,1680.6000000000058,1699.9999999970316,1.0,779.7999999970198,0.0,,Slider,Slider,4.0,object-56,temp_dist_trial,19.0,t_s_20_1,travel_shared,travel pill case,7.0,competing,paired,t_s_20_1.jpg,Travel,,,sub-07
Desktop or Laptop,Windows 10,Chrome 138.0.0.0,1792x1344,894x1182,Temporal Distance Task,cb_07,68.0,temp_dist_trial,num_items,zn7si1,1.0,response,num_miss,3000.8999999999933,3000.8999999999933,3000.8999999999933,3000.8999999999933,3000.8999999999933,3000.8999999999933,1.0,0.0,0.0,num_miss_tag,Time Limit,screen,0.0,screen,temp_dist_trial,20.0,t_s_21_1,travel_shared,umbrella,7.0,competing,paired,t_s_21_1.jpg,Travel,,,sub-07
Desktop or Laptop,Windows 10,Chrome 138.0.0.0,1792x1344,894x1182,Temporal Distance Task,cb_07,69.0,temp_dist_trial,num_items,zn7si1,1.0,response,num_miss,3001.0,3001.0,3001.0,3001.0,3001.0,3001.0,1.0,0.0,0.0,num_miss_tag,Time Limit,screen,0.0,screen,temp_dist_trial,21.0,t_i_16_1,travel_Iceland,skis,7.0,unique,paired,t_i_16_1.jpg,Travel,,,sub-07
Desktop or Laptop,Windows 10,Chrome 138.0.0.0,1792x1344,894x1182,Temporal Distance Task,cb_07,70.0,temp_dist_trial,num_items,zn7si1,1.0,response,num_miss,3000.8999999999933,3000.8999999999933,3000.8999999999933,3000.8999999999933,3000.8999999999933,3000.8999999999933,1.0,0.0,0.0,num_miss_tag,Time Limit,screen,0.0,screen,temp_dist_trial,22.0,t_s_06_1,travel_shared,luggage,7.0,competing,paired,t_s_06_1.jpg,Travel,,,sub-07
Desktop or Laptop,Windows 10,Chrome 138.0.0.0,1792x1344,894x1182,Temporal Distance Task,cb_07,71.0,temp_dist_trial,num_items,zn7si1,1.0,response,2_ITEM,2307.2999999940507,2300.6000000000063,2307.2999999940507,2307.2999999940507,2300.6000000000063,2307.2999999940507,1.0,0.0,0.0,,Click Response,2_count,5.0,object-49,temp_dist_trial,23.0,t_s_05_1,travel_shared,neck pillow,7.0,competing,paired,t_s_05_1.jpg,Travel,,,sub-07
Desktop or Laptop,Windows 10,Chrome 138.0.0.0,1792x1344,894x1182,Temporal Distance Task,cb_07,71.0,temp_dist_trial,dist_items,qkpkxw,2.0,info,,3.2999999999883585,0.0,3.2999999999883585,3.2999999999883585,0.0,3.2999999999883585,1.0,0.0,0.0,,Slider,Slider,4.0,object-56,temp_dist_trial,23.0,t_s_05_1,travel_shared,neck pillow,7.0,competing,paired,t_s_05_1.jpg,Travel,,,sub-07
Desktop or Laptop,Windows 10,Chrome 138.0.0.0,1792x1344,894x1182,Temporal Distance Task,cb_07,71.0,temp_dist_trial,dist_items,qkpkxw,2.0,continue,,2114.0000000029686,2100.3999999999937,2114.0000000029686,2114.0000000029686,2100.3999999999937,2114.0000000029686,1.0,0.0,0.0,,Click To Continue,Next button,7.0,object-60,temp_dist_trial,23.0,t_s_05_1,travel_shared,neck pillow,7.0,competing,paired,t_s_05_1.jpg,Travel,,,sub-07
Desktop or Laptop,Windows 10,Chrome 138.0.0.0,1792x1344,894x1182,Temporal Distance Task,cb_07,71.0,temp_dist_trial,dist_items,qkpkxw,2.0,response,24,1080.0,2100.3999999999937,2114.2999999999884,1080.0,2100.3999999999937,2114.2999999999884,1.0,1034.2999999999884,0.0,,Slider,Slider,4.0,object-56,temp_dist_trial,23.0,t_s_05_1,travel_shared,neck pillow,7.0,competing,paired,t_s_05_1.jpg,Travel,,,sub-07
Desktop or Laptop,Windows 10,Chrome 138.0.0.0,1792x1344,894x1182,Temporal Distance Task,cb_07,72.0,temp_dist_trial,num_items,zn7si1,1.0,response,2_ITEM,1402.8999999999942,1400.2999999999884,1402.8999999999942,1402.8999999999942,1400.2999999999884,1402.8999999999942,1.0,0.0,0.0,,Click Response,2_count,5.0,object-49,temp_dist_trial,24.0,t_s_12_1,travel_shared,clear toiletry bag,7.0,competing,paired,t_s_12_1.jpg,Travel,,,sub-07
Desktop or Laptop,Windows 10,Chrome 138.0.0.0,1792x1344,894x1182,Temporal Distance Task,cb_07,72.0,temp_dist_trial,dist_items,qkpkxw,2.0,info,,4.5,0.0,4.5,4.5,0.0,4.5,1.0,0.0,0.0,,Slider,Slider,4.0,object-56,temp_dist_trial,24.0,t_s_12_1,travel_shared,clear toiletry bag,7.0,competing,paired,t_s_12_1.jpg,Travel,,,sub-07
Desktop or Laptop,Windows 10,Chrome 138.0.0.0,1792x1344,894x1182,Temporal Distance Task,cb_07,72.0,temp_dist_trial,dist_items,qkpkxw,2.0,continue,,1959.29999999702,1940.6000000000056,1959.29999999702,1959.29999999702,1940.6000000000056,1959.29999999702,1.0,0.0,0.0,,Click To Continue,Next button,7.0,object-60,temp_dist_trial,24.0,t_s_12_1,travel_shared,clear toiletry bag,7.0,competing,paired,t_s_12_1.jpg,Travel,,,sub-07
Desktop or Laptop,Windows 10,Chrome 138.0.0.0,1792x1344,894x1182,Temporal Distance Task,cb_07,72.0,temp_dist_trial,dist_items,qkpkxw,2.0,response,85,500.1000000000058,1940.6000000000056,1960.8000000000175,500.1000000000058,1940.6000000000056,1960.8000000000175,1.0,1460.7000000000116,0.0,,Slider,Slider,4.0,object-56,temp_dist_trial,24.0,t_s_12_1,travel_shared,clear toiletry bag,7.0,competing,paired,t_s_12_1.jpg,Travel,,,sub-07
Desktop or Laptop,Windows 10,Chrome 138.0.0.0,1792x1344,894x1182,Temporal Distance Task,cb_07,73.0,temp_dist_trial,num_items,zn7si1,1.0,response,1_ITEM,1039.9000000000233,1020.1000000000058,1039.9000000000233,1039.9000000000233,1020.1000000000058,1039.9000000000233,1.0,0.0,0.0,,Click Response,1_count,3.0,object-46,temp_dist_trial,25.0,t_s_10_1,travel_shared,luggage lock,7.0,competing,single,t_s_10_1.jpg,Travel,,,sub-07
Desktop or Laptop,Windows 10,Chrome 138.0.0.0,1792x1344,894x1182,Temporal Distance Task,cb_07,74.0,temp_dist_trial,num_items,zn7si1,1.0,response,2_ITEM,1533.9999999970316,1520.4000000000233,1533.9999999970316,1533.9999999970316,1520.4000000000233,1533.9999999970316,1.0,0.0,0.0,,Click Response,2_count,5.0,object-49,temp_dist_trial,26.0,t_s_22_1,travel_shared,belt,7.0,competing,paired,t_s_22_1.jpg,Travel,,,sub-07
Desktop or Laptop,Windows 10,Chrome 138.0.0.0,1792x1344,894x1182,Temporal Distance Task,cb_07,74.0,temp_dist_trial,dist_items,qkpkxw,2.0,info,,3.0999999970081262,0.0,3.0999999970081262,3.0999999970081262,0.0,3.0999999970081262,1.0,0.0,0.0,,Slider,Slider,4.0,object-56,temp_dist_trial,26.0,t_s_22_1,travel_shared,belt,7.0,competing,paired,t_s_22_1.jpg,Travel,,,sub-07
Desktop or Laptop,Windows 10,Chrome 138.0.0.0,1792x1344,894x1182,Temporal Distance Task,cb_07,74.0,temp_dist_trial,dist_items,qkpkxw,2.0,continue,,1463.0999999970081,1460.3999999999942,1463.0999999970081,1463.0999999970081,1460.3999999999942,1463.0999999970081,1.0,0.0,0.0,,Click To Continue,Next button,7.0,object-60,temp_dist_trial,26.0,t_s_22_1,travel_shared,belt,7.0,competing,paired,t_s_22_1.jpg,Travel,,,sub-07
Desktop or Laptop,Windows 10,Chrome 138.0.0.0,1792x1344,894x1182,Temporal Distance Task,cb_07,74.0,temp_dist_trial,dist_items,qkpkxw,2.0,response,20,620.1999999999825,1460.3999999999942,1463.5000000029684,620.1999999999825,1460.3999999999942,1463.5000000029684,1.0,843.3000000029858,0.0,,Slider,Slider,4.0,object-56,temp_dist_trial,26.0,t_s_22_1,travel_shared,belt,7.0,competing,paired,t_s_22_1.jpg,Travel,,,sub-07
Desktop or Laptop,Windows 10,Chrome 138.0.0.0,1792x1344,894x1182,Temporal Distance Task,cb_07,75.0,temp_dist_trial,num_items,zn7si1,1.0,response,2_ITEM,1243.6000000029746,1240.2999999999886,1243.6000000029746,1243.6000000029746,1240.2999999999886,1243.6000000029746,1.0,0.0,0.0,,Click Response,2_count,5.0,object-49,temp_dist_trial,27.0,t_s_07_1,travel_shared,phone charger cable,7.0,competing,paired,t_s_07_1.jpg,Travel,,,sub-07
Desktop or Laptop,Windows 10,Chrome 138.0.0.0,1792x1344,894x1182,Temporal Distance Task,cb_07,75.0,temp_dist_trial,dist_items,qkpkxw,2.0,info,,3.700000002980232,0.0,3.700000002980232,3.700000002980232,0.0,3.700000002980232,1.0,0.0,0.0,,Slider,Slider,4.0,object-56,temp_dist_trial,27.0,t_s_07_1,travel_shared,phone charger cable,7.0,competing,paired,t_s_07_1.jpg,Travel,,,sub-07
Desktop or Laptop,Windows 10,Chrome 138.0.0.0,1792x1344,894x1182,Temporal Distance Task,cb_07,75.0,temp_dist_trial,dist_items,qkpkxw,2.0,continue,,1552.8999999910593,1540.3999999999942,1552.8999999910593,1552.8999999910593,1540.3999999999942,1552.8999999910593,1.0,0.0,0.0,,Click To Continue,Next button,7.0,object-60,temp_dist_trial,27.0,t_s_07_1,travel_shared,phone charger cable,7.0,competing,paired,t_s_07_1.jpg,Travel,,,sub-07
Desktop or Laptop,Windows 10,Chrome 138.0.0.0,1792x1344,894x1182,Temporal Distance Task,cb_07,75.0,temp_dist_trial,dist_items,qkpkxw,2.0,response,64,780.2999999999884,1540.3999999999942,1553.3999999910593,780.2999999999884,1540.3999999999942,1553.3999999910593,1.0,773.0999999910712,0.0,,Slider,Slider,4.0,object-56,temp_dist_trial,27.0,t_s_07_1,travel_shared,phone charger cable,7.0,competing,paired,t_s_07_1.jpg,Travel,,,sub-07
Desktop or Laptop,Windows 10,Chrome 138.0.0.0,1792x1344,894x1182,Temporal Distance Task,cb_07,76.0,temp_dist_trial,num_items,zn7si1,1.0,response,1_ITEM,1012.1999999940454,1000.3000000000177,1012.1999999940454,1012.1999999940454,1000.3000000000177,1012.1999999940454,1.0,0.0,0.0,,Click Response,1_count,3.0,object-46,temp_dist_trial,28.0,t_m_03_1,travel_Miami,wetsuit,7.0,unique,paired,t_m_03_1.jpg,Travel,,,sub-07
Desktop or Laptop,Windows 10,Chrome 138.0.0.0,1792x1344,894x1182,Temporal Distance Task,cb_07,77.0,temp_dist_trial,num_items,zn7si1,1.0,response,1_ITEM,1002.8999999970256,1000.1000000000058,1002.8999999970256,1002.8999999970256,1000.1000000000058,1002.8999999970256,1.0,0.0,0.0,,Click Response,1_count,3.0,object-46,temp_dist_trial,29.0,t_s_02_1,travel_shared,water bottle,7.0,competing,paired,t_s_02_1.jpg,Travel,,,sub-07
Desktop or Laptop,Windows 10,Chrome 138.0.0.0,1792x1344,894x1182,Temporal Distance Task,cb_07,78.0,temp_dist_trial,num_items,zn7si1,1.0,response,2_ITEM,1250.9999999970316,1240.0,1250.9999999970316,1250.9999999970316,1240.0,1250.9999999970316,1.0,0.0,0.0,,Click Response,2_count,5.0,object-49,temp_dist_trial,30.0,t_s_14_1,travel_shared,hand sanitizer,7.0,competing,paired,t_s_14_1.jpg,Travel,,,sub-07
Desktop or Laptop,Windows 10,Chrome 138.0.0.0,1792x1344,894x1182,Temporal Distance Task,cb_07,78.0,temp_dist_trial,dist_items,qkpkxw,2.0,info,,4.099999994039536,0.0,4.099999994039536,4.099999994039536,0.0,4.099999994039536,1.0,0.0,0.0,,Slider,Slider,4.0,object-56,temp_dist_trial,30.0,t_s_14_1,travel_shared,hand sanitizer,7.0,competing,paired,t_s_14_1.jpg,Travel,,,sub-07
Desktop or Laptop,Windows 10,Chrome 138.0.0.0,1792x1344,894x1182,Temporal Distance Task,cb_07,78.0,temp_dist_trial,dist_items,qkpkxw,2.0,continue,,1000.3999999999652,980.2999999999884,1000.3999999999652,1000.3999999999652,980.2999999999884,1000.3999999999652,1.0,0.0,0.0,,Click To Continue,Next button,7.0,object-60,temp_dist_trial,30.0,t_s_14_1,travel_shared,hand sanitizer,7.0,competing,paired,t_s_14_1.jpg,Travel,,,sub-07
Desktop or Laptop,Windows 10,Chrome 138.0.0.0,1792x1344,894x1182,Temporal Distance Task,cb_07,78.0,temp_dist_trial,dist_items,qkpkxw,2.0,response,19,500.1000000000058,980.2999999999884,1000.3999999999652,500.1000000000058,980.2999999999884,1000.3999999999652,1.0,500.29999999995925,0.0,,Slider,Slider,4.0,object-56,temp_dist_trial,30.0,t_s_14_1,travel_shared,hand sanitizer,7.0,competing,paired,t_s_14_1.jpg,Travel,,,sub-07
Desktop or Laptop,Windows 10,Chrome 138.0.0.0,1792x1344,894x1182,Temporal Distance Task,cb_07,79.0,temp_dist_trial,num_items,zn7si1,1.0,response,1_ITEM,878.2000000000116,860.2000000000116,878.2000000000116,878.2000000000116,860.2000000000116,878.2000000000116,1.0,0.0,0.0,,Click Response,1_count,3.0,object-46,temp_dist_trial,31.0,t_m_10_1,travel_Miami,tanktop,7.0,unique,single,t_m_10_1.jpg,Travel,,,sub-07
Desktop or Laptop,Windows 10,Chrome 138.0.0.0,1792x1344,894x1182,Temporal Distance Task,cb_07,80.0,temp_dist_trial,num_items,zn7si1,1.0,response,1_ITEM,892.099999997008,880.2999999999884,892.099999997008,892.099999997008,880.2999999999884,892.099999997008,1.0,0.0,0.0,,Click Response,1_count,3.0,object-46,temp_dist_trial,32.0,t_m_11_1,travel_Miami,collapsible beach chair,7.0,unique,paired,t_m_11_1.jpg,Travel,,,sub-07
Desktop or Laptop,Windows 10,Chrome 138.0.0.0,1792x1344,894x1182,Temporal Distance Task,cb_07,81.0,temp_dist_trial,num_items,zn7si1,1.0,response,2_ITEM,1143.7999999940512,1140.3000000000175,1143.7999999940512,1143.7999999940512,1140.3000000000175,1143.7999999940512,1.0,0.0,0.0,,Click Response,2_count,5.0,object-49,temp_dist_trial,33.0,t_s_08_1,travel_shared,hand lotion,7.0,competing,paired,t_s_08_1.jpg,Travel,,,sub-07
Desktop or Laptop,Windows 10,Chrome 138.0.0.0,1792x1344,894x1182,Temporal Distance Task,cb_07,81.0,temp_dist_trial,dist_items,qkpkxw,2.0,info,,4.199999991047662,0.0,4.199999991047662,4.199999991047662,0.0,4.199999991047662,1.0,0.0,0.0,,Slider,Slider,4.0,object-56,temp_dist_trial,33.0,t_s_08_1,travel_shared,hand lotion,7.0,competing,paired,t_s_08_1.jpg,Travel,,,sub-07
Desktop or Laptop,Windows 10,Chrome 138.0.0.0,1792x1344,894x1182,Temporal Distance Task,cb_07,81.0,temp_dist_trial,dist_items,qkpkxw,2.0,continue,,2599.199999991048,2580.6999999999825,2599.199999991048,2599.199999991048,2580.6999999999825,2599.199999991048,1.0,0.0,0.0,,Click To Continue,Next button,7.0,object-60,temp_dist_trial,33.0,t_s_08_1,travel_shared,hand lotion,7.0,competing,paired,t_s_08_1.jpg,Travel,,,sub-07
Desktop or Laptop,Windows 10,Chrome 138.0.0.0,1792x1344,894x1182,Temporal Distance Task,cb_07,81.0,temp_dist_trial,dist_items,qkpkxw,2.0,response,16,1360.2999999999886,2580.6999999999825,2599.599999997008,1360.2999999999886,2580.6999999999825,2599.599999997008,1.0,1239.2999999970198,0.0,,Slider,Slider,4.0,object-56,temp_dist_trial,33.0,t_s_08_1,travel_shared,hand lotion,7.0,competing,paired,t_s_08_1.jpg,Travel,,,sub-07
Desktop or Laptop,Windows 10,Chrome 138.0.0.0,1792x1344,894x1182,Temporal Distance Task,cb_07,82.0,temp_dist_trial,num_items,zn7si1,1.0,response,1_ITEM,1242.3999999970254,1240.3000000000175,1242.3999999970254,1242.3999999970254,1240.3000000000175,1242.3999999970254,1.0,0.0,0.0,,Click Response,1_count,3.0,object-46,temp_dist_trial,34.0,t_i_07_1,travel_Iceland,hiking backpack,7.0,unique,single,t_i_07_1.jpg,Travel,,,sub-07
Desktop or Laptop,Windows 10,Chrome 138.0.0.0,1792x1344,894x1182,Temporal Distance Task,cb_07,83.0,temp_dist_trial,num_items,zn7si1,1.0,response,2_ITEM,1191.4999999970316,1180.2000000000114,1191.4999999970316,1191.4999999970316,1180.2000000000114,1191.4999999970316,1.0,0.0,0.0,,Click Response,2_count,5.0,object-49,temp_dist_trial,35.0,t_s_18_1,travel_shared,first aid kit,7.0,competing,paired,t_s_18_1.jpg,Travel,,,sub-07
Desktop or Laptop,Windows 10,Chrome 138.0.0.0,1792x1344,894x1182,Temporal Distance Task,cb_07,83.0,temp_dist_trial,dist_items,qkpkxw,2.0,info,,3.1999999970139466,0.0,3.1999999970139466,3.1999999970139466,0.0,3.1999999970139466,1.0,0.0,0.0,,Slider,Slider,4.0,object-56,temp_dist_trial,35.0,t_s_18_1,travel_shared,first aid kit,7.0,competing,paired,t_s_18_1.jpg,Travel,,,sub-07
Desktop or Laptop,Windows 10,Chrome 138.0.0.0,1792x1344,894x1182,Temporal Distance Task,cb_07,83.0,temp_dist_trial,dist_items,qkpkxw,2.0,continue,,2706.699999997014,2700.6999999999825,2706.699999997014,2706.699999997014,2700.6999999999825,2706.699999997014,1.0,0.0,0.0,,Click To Continue,Next button,7.0,object-60,temp_dist_trial,35.0,t_s_18_1,travel_shared,first aid kit,7.0,competing,paired,t_s_18_1.jpg,Travel,,,sub-07
Desktop or Laptop,Windows 10,Chrome 138.0.0.0,1792x1344,894x1182,Temporal Distance Task,cb_07,83.0,temp_dist_trial,dist_items,qkpkxw,2.0,response,18,1860.6999999999825,2700.6999999999825,2706.9999999940337,1860.6999999999825,2700.6999999999825,2706.9999999940337,1.0,846.2999999940512,0.0,,Slider,Slider,4.0,object-56,temp_dist_trial,35.0,t_s_18_1,travel_shared,first aid kit,7.0,competing,paired,t_s_18_1.jpg,Travel,,,sub-07
Desktop or Laptop,Windows 10,Chrome 138.0.0.0,1792x1344,894x1182,Temporal Distance Task,cb_07,84.0,temp_dist_trial,num_items,zn7si1,1.0,response,1_ITEM,1055.7999999940512,1040.3000000000177,1055.7999999940512,1055.7999999940512,1040.3000000000177,1055.7999999940512,1.0,0.0,0.0,,Click Response,1_count,3.0,object-46,temp_dist_trial,36.0,t_i_14_1,travel_Iceland,snow pants,7.0,unique,paired,t_i_14_1.jpg,Travel,,,sub-07
Desktop or Laptop,Windows 10,Chrome 138.0.0.0,1792x1344,894x1182,Temporal Distance Task,cb_07,85.0,temp_dist_trial,num_items,zn7si1,1.0,response,1_ITEM,861.6000000000058,860.0,861.6000000000058,861.6000000000058,860.0,861.6000000000058,1.0,0.0,0.0,,Click Response,1_count,3.0,object-46,temp_dist_trial,37.0,t_i_01_1,travel_Iceland,gloves,7.0,unique,paired,t_i_01_1.jpg,Travel,,,sub-07
Desktop or Laptop,Windows 10,Chrome 138.0.0.0,1792x1344,894x1182,Temporal Distance Task,cb_07,86.0,temp_dist_trial,num_items,zn7si1,1.0,response,1_ITEM,854.8999999999942,840.1000000000058,854.8999999999942,854.8999999999942,840.1000000000058,854.8999999999942,1.0,0.0,0.0,,Click Response,1_count,3.0,object-46,temp_dist_trial,38.0,t_i_18_1,travel_Iceland,ski mask,7.0,unique,paired,t_i_18_1.jpg,Travel,,,sub-07
Desktop or Laptop,Windows 10,Chrome 138.0.0.0,1792x1344,894x1182,Temporal Distance Task,cb_07,87.0,temp_dist_trial,num_items,zn7si1,1.0,response,1_ITEM,991.399999994028,980.2999999999884,991.399999994028,991.399999994028,980.2999999999884,991.399999994028,1.0,0.0,0.0,,Click Response,1_count,3.0,object-46,temp_dist_trial,39.0,t_m_06_1,travel_Miami,handheld fan,7.0,unique,paired,t_m_06_1.jpg,Travel,,,sub-07
Desktop or Laptop,Windows 10,Chrome 138.0.0.0,1792x1344,894x1182,Temporal Distance Task,cb_07,88.0,temp_dist_trial,num_items,zn7si1,1.0,response,1_ITEM,1048.6000000029744,1040.2999999999884,1048.6000000029744,1048.6000000029744,1040.2999999999884,1048.6000000029744,1.0,0.0,0.0,,Click Response,1_count,3.0,object-46,temp_dist_trial,40.0,t_i_06_1,travel_Iceland,knit hat,7.0,unique,paired,t_i_06_1.jpg,Travel,,,sub-07
Desktop or Laptop,Windows 10,Chrome 138.0.0.0,1792x1344,894x1182,Temporal Distance Task,cb_07,89.0,temp_dist_trial,num_items,zn7si1,1.0,response,2_ITEM,1055.8999999910593,1040.2000000000116,1055.8999999910593,1055.8999999910593,1040.2000000000116,1055.8999999910593,1.0,0.0,0.0,,Click Response,2_count,5.0,object-49,temp_dist_trial,41.0,t_s_17_1,travel_shared,toothbrush,7.0,competing,paired,t_s_17_1.jpg,Travel,,,sub-07
Desktop or Laptop,Windows 10,Chrome 138.0.0.0,1792x1344,894x1182,Temporal Distance Task,cb_07,89.0,temp_dist_trial,dist_items,qkpkxw,2.0,info,,3.9999999970314084,0.0,3.9999999970314084,3.9999999970314084,0.0,3.9999999970314084,1.0,0.0,0.0,,Slider,Slider,4.0,object-56,temp_dist_trial,41.0,t_s_17_1,travel_shared,toothbrush,7.0,competing,paired,t_s_17_1.jpg,Travel,,,sub-07
Desktop or Laptop,Windows 10,Chrome 138.0.0.0,1792x1344,894x1182,Temporal Distance Task,cb_07,89.0,temp_dist_trial,dist_items,qkpkxw,2.0,continue,,1700.4000000029919,1680.4000000000233,1700.4000000029919,1700.4000000029919,1680.4000000000233,1700.4000000029919,1.0,0.0,0.0,,Click To Continue,Next button,7.0,object-60,temp_dist_trial,41.0,t_s_17_1,travel_shared,toothbrush,7.0,competing,paired,t_s_17_1.jpg,Travel,,,sub-07
Desktop or Laptop,Windows 10,Chrome 138.0.0.0,1792x1344,894x1182,Temporal Distance Task,cb_07,89.0,temp_dist_trial,dist_items,qkpkxw,2.0,response,23,880.3000000000177,1680.4000000000233,1700.500000000029,880.3000000000177,1680.4000000000233,1700.500000000029,1.0,820.2000000000116,0.0,,Slider,Slider,4.0,object-56,temp_dist_trial,41.0,t_s_17_1,travel_shared,toothbrush,7.0,competing,paired,t_s_17_1.jpg,Travel,,,sub-07
Desktop or Laptop,Windows 10,Chrome 138.0.0.0,1792x1344,894x1182,Temporal Distance Task,cb_07,90.0,temp_dist_trial,num_items,zn7si1,1.0,response,1_ITEM,843.7999999999884,840.1999999999823,843.7999999999884,843.7999999999884,840.1999999999823,843.7999999999884,1.0,0.0,0.0,,Click Response,1_count,3.0,object-46,temp_dist_trial,42.0,t_m_13_1,travel_Miami,floatie,7.0,unique,paired,t_m_13_1.jpg,Travel,,,sub-07
Desktop or Laptop,Windows 10,Chrome 138.0.0.0,1792x1344,894x1182,Temporal Distance Task,cb_07,91.0,temp_dist_trial,num_items,zn7si1,1.0,response,1_ITEM,920.0,900.1000000000058,920.0,920.0,900.1000000000058,920.0,1.0,0.0,0.0,,Click Response,1_count,3.0,object-46,temp_dist_trial,43.0,t_s_04_1,travel_shared,instant camera,7.0,competing,single,t_s_04_1.jpg,Travel,,,sub-07
Desktop or Laptop,Windows 10,Chrome 138.0.0.0,1792x1344,894x1182,Temporal Distance Task,cb_07,92.0,temp_dist_trial,num_items,zn7si1,1.0,response,1_ITEM,1763.7999999999884,1760.5999999999767,1763.7999999999884,1763.7999999999884,1760.5999999999767,1763.7999999999884,1.0,0.0,0.0,,Click Response,1_count,3.0,object-46,temp_dist_trial,44.0,t_s_13_1,travel_shared,contact lens case,7.0,competing,single,t_s_13_1.jpg,Travel,,,sub-07
Desktop or Laptop,Windows 10,Chrome 138.0.0.0,1792x1344,894x1182,Temporal Distance Task,cb_07,93.0,temp_dist_trial,num_items,zn7si1,1.0,response,1_ITEM,901.5999999910713,900.1000000000058,901.5999999910713,901.5999999910713,900.1000000000058,901.5999999910713,1.0,0.0,0.0,,Click Response,1_count,3.0,object-46,temp_dist_trial,45.0,t_i_02_1,travel_Iceland,scarf,7.0,unique,single,t_i_02_1.jpg,Travel,,,sub-07
Desktop or Laptop,Windows 10,Chrome 138.0.0.0,1792x1344,894x1182,Temporal Distance Task,cb_07,94.0,temp_dist_trial,num_items,zn7si1,1.0,response,2_ITEM,1282.9999999970316,1280.2000000000114,1282.9999999970316,1282.9999999970316,1280.2000000000114,1282.9999999970316,1.0,0.0,0.0,,Click Response,2_count,5.0,object-49,temp_dist_trial,46.0,t_s_11_1,travel_shared,eye mask,7.0,competing,paired,t_s_11_1.jpg,Travel,,,sub-07
Desktop or Laptop,Windows 10,Chrome 138.0.0.0,1792x1344,894x1182,Temporal Distance Task,cb_07,94.0,temp_dist_trial,dist_items,qkpkxw,2.0,info,,3.4999999940337148,0.0,3.4999999940337148,3.4999999940337148,0.0,3.4999999940337148,1.0,0.0,0.0,,Slider,Slider,4.0,object-56,temp_dist_trial,46.0,t_s_11_1,travel_shared,eye mask,7.0,competing,paired,t_s_11_1.jpg,Travel,,,sub-07
Desktop or Laptop,Windows 10,Chrome 138.0.0.0,1792x1344,894x1182,Temporal Distance Task,cb_07,94.0,temp_dist_trial,dist_items,qkpkxw,2.0,continue,,1500.3999999999942,1480.5,1500.3999999999942,1500.3999999999942,1480.5,1500.3999999999942,1.0,0.0,0.0,,Click To Continue,Next button,7.0,object-60,temp_dist_trial,46.0,t_s_11_1,travel_shared,eye mask,7.0,competing,paired,t_s_11_1.jpg,Travel,,,sub-07
Desktop or Laptop,Windows 10,Chrome 138.0.0.0,1792x1344,894x1182,Temporal Distance Task,cb_07,94.0,temp_dist_trial,dist_items,qkpkxw,2.0,response,30,680.1999999999825,1480.5,1500.7000000000116,680.1999999999825,1480.5,1500.7000000000116,1.0,820.5000000000291,0.0,,Slider,Slider,4.0,object-56,temp_dist_trial,46.0,t_s_11_1,travel_shared,eye mask,7.0,competing,paired,t_s_11_1.jpg,Travel,,,sub-07
Desktop or Laptop,Windows 10,Chrome 138.0.0.0,1792x1344,894x1182,Temporal Distance Task,cb_07,95.0,temp_dist_trial,num_items,zn7si1,1.0,response,1_ITEM,847.4999999940338,840.0,847.4999999940338,847.4999999940338,840.0,847.4999999940338,1.0,0.0,0.0,,Click Response,1_count,3.0,object-46,temp_dist_trial,47.0,t_s_19_1,travel_shared,pajamas,7.0,competing,single,t_s_19_1.jpg,Travel,,,sub-07
Desktop or Laptop,Windows 10,Chrome 138.0.0.0,1792x1344,894x1182,Temporal Distance Task,cb_07,96.0,temp_dist_trial,num_items,zn7si1,1.0,response,1_ITEM,820.5000000000291,800.3000000000177,820.5000000000291,820.5000000000291,800.3000000000177,820.5000000000291,1.0,0.0,0.0,,Click Response,1_count,3.0,object-46,temp_dist_trial,48.0,t_m_08_1,travel_Miami,flipflops,7.0,unique,paired,t_m_08_1.jpg,Travel,,,sub-07
Desktop or Laptop,Windows 10,Chrome 138.0.0.0,1792x1344,894x1182,Temporal Distance Task,$${counterbalance_group},,,,,,info,END,,,232168.0,,,,0.0,,,,,,,,,,,,,,,,,,,,sub-07
