Participant Device,Participant OS,Participant Browser,Participant Monitor Size,Participant Viewport Size,Task Name,Current Spreadsheet,Trial Number,Display,Screen,Screen ID,Screen Counter,Response Type,Response,Onset Time,Clock Time,Reaction Time,Absolute Onset Time,Absolute Clock Time,Absolute Reaction Time,Correct,Response Duration,Proportion,Tag,Component Name,Object Name,Object Number,Object ID,Spreadsheet: display,Spreadsheet: trial,Spreadsheet: stimulus_id,Spreadsheet: expected_goal,Spreadsheet: stimulus_name,Spreadsheet: c_group,Spreadsheet: condition,Spreadsheet: paired_status,Spreadsheet: stimulus_path,Spreadsheet: block_type,Manipulation: Spreadsheet,Store: enc_test_acc,sub_label
Desktop or Laptop,Windows 10,Chrome 138.0.0.0,2294x960,1835x650,Temporal Distance Task,,,,,,,info,BEGIN,,,,,,,,,,,,,,,,,,,,,,,,,$${counterbalance_group},,sub-74
Desktop or Laptop,Windows 10,Chrome 138.0.0.0,2294x960,1835x650,Temporal Distance Task,cb_05,1.0,temp_instructions,intro_screen,3tnme7,1.0,continue,,7003.099999928474,6986.9,7003.099999928474,7003.099999928474,6986.9,7003.099999928474,1.0,0.0,0.0,,Click To Continue,Continue Button,4.0,object-29,temp_instructions,,,Student,,,,,,,$${counterbalance_group},,sub-74
Desktop or Laptop,Windows 10,Chrome 138.0.0.0,2294x960,1835x650,Temporal Distance Task,cb_05,1.0,temp_instructions,intro_screen_2,52v7ur,2.0,continue,,16090.399999976155,16074.5,16090.399999976155,16090.399999976155,16074.5,16090.399999976155,1.0,0.0,0.0,,Click To Continue,Continue Button,4.0,object-39,temp_instructions,,,Student,,,,,,,$${counterbalance_group},,sub-74
Desktop or Laptop,Windows 10,Chrome 138.0.0.0,2294x960,1835x650,Temporal Distance Task,cb_05,1.0,temp_instructions,intro_screen_3,i7lvwx,3.0,continue,,7701.399999976158,7687.099999999998,7701.399999976158,7701.399999976158,7687.099999999998,7701.399999976158,1.0,0.0,0.0,,Click To Continue,Continue Button,4.0,object-67,temp_instructions,,,Student,,,,,,,$${counterbalance_group},,sub-74
Desktop or Laptop,Windows 10,Chrome 138.0.0.0,2294x960,1835x650,Temporal Distance Task,cb_05,1.0,temp_instructions,test_q1,5ieqx1,4.0,response,choice_3,12072.6,12055.9,12072.6,12072.6,12055.9,12072.6,1.0,0.0,0.0,,Click Response,choice_3,5.0,object-345,temp_instructions,,,Student,,,,,,,$${counterbalance_group},,sub-74
Desktop or Laptop,Windows 10,Chrome 138.0.0.0,2294x960,1835x650,Temporal Distance Task,cb_05,1.0,temp_instructions,score_corr,7ilvjr,5.0,continue,,974.2999999523164,967.0999999999983,974.2999999523164,974.2999999523164,967.0999999999983,974.2999999523164,1.0,0.0,0.0,,Click To Continue,Continue Button,3.0,object-23,temp_instructions,,,Student,,,,,,,$${counterbalance_group},,sub-74
Desktop or Laptop,Windows 10,Chrome 138.0.0.0,2294x960,1835x650,Temporal Distance Task,cb_05,1.0,temp_eventStart,Screen 1,dgtyxe,1.0,continue,,2434.199999952317,2417.900000000001,2434.199999952317,2434.199999952317,2417.900000000001,2434.199999952317,1.0,0.0,0.0,,Click To Continue,Next Button,3.0,object-43,temp_eventStart,,,Student,,,,,,,$${counterbalance_group},,sub-74
Desktop or Laptop,Windows 10,Chrome 138.0.0.0,2294x960,1835x650,Temporal Distance Task,cb_05,1.0,temp_dist_trial,num_items,zn7si1,1.0,response,1_ITEM,2392.600000023842,2384.400000000001,2392.600000023842,2392.600000023842,2384.400000000001,2392.600000023842,1.0,0.0,0.0,,Click Response,1_count,3.0,object-46,temp_dist_trial,1.0,s_a_08_1,student_art,sewing machine,5.0,unique,paired,s_a_08_1.jpg,Student,$${counterbalance_group},,sub-74
Desktop or Laptop,Windows 10,Chrome 138.0.0.0,2294x960,1835x650,Temporal Distance Task,cb_05,2.0,temp_dist_trial,num_items,zn7si1,1.0,response,2_ITEM,2415.79999997616,2401.2000000000044,2415.79999997616,2415.79999997616,2401.2000000000044,2415.79999997616,1.0,0.0,0.0,,Click Response,2_count,5.0,object-49,temp_dist_trial,2.0,s_s_03_1,student_stem,petri dish,5.0,unique,paired,s_s_03_1.jpg,Student,$${counterbalance_group},,sub-74
Desktop or Laptop,Windows 10,Chrome 138.0.0.0,2294x960,1835x650,Temporal Distance Task,cb_05,2.0,temp_dist_trial,dist_items,qkpkxw,2.0,info,,3.3999999284715163,0.0,3.3999999284715163,3.3999999284715163,0.0,3.3999999284715163,1.0,0.0,0.0,,Slider,Slider,4.0,object-56,temp_dist_trial,2.0,s_s_03_1,student_stem,petri dish,5.0,unique,paired,s_s_03_1.jpg,Student,$${counterbalance_group},,sub-74
Desktop or Laptop,Windows 10,Chrome 138.0.0.0,2294x960,1835x650,Temporal Distance Task,cb_05,2.0,temp_dist_trial,dist_items,qkpkxw,2.0,continue,,2687.699999999997,2684.699999999997,2687.699999999997,2687.699999999997,2684.699999999997,2687.699999999997,1.0,0.0,0.0,,Click To Continue,Next button,7.0,object-60,temp_dist_trial,2.0,s_s_03_1,student_stem,petri dish,5.0,unique,paired,s_s_03_1.jpg,Student,$${counterbalance_group},,sub-74
Desktop or Laptop,Windows 10,Chrome 138.0.0.0,2294x960,1835x650,Temporal Distance Task,cb_05,2.0,temp_dist_trial,dist_items,qkpkxw,2.0,response,36,1684.2999999999954,2684.699999999997,2689.5999999761552,1684.2999999999954,2684.699999999997,2689.5999999761552,1.0,1005.2999999761597,0.0,,Slider,Slider,4.0,object-56,temp_dist_trial,2.0,s_s_03_1,student_stem,petri dish,5.0,unique,paired,s_s_03_1.jpg,Student,$${counterbalance_group},,sub-74
Desktop or Laptop,Windows 10,Chrome 138.0.0.0,2294x960,1835x650,Temporal Distance Task,cb_05,3.0,temp_dist_trial,num_items,zn7si1,1.0,response,2_ITEM,1277.0,1267.3000000000031,1277.0,1277.0,1267.3000000000031,1277.0,1.0,0.0,0.0,,Click Response,2_count,5.0,object-49,temp_dist_trial,3.0,s_sh_02_1,student_shared,eraser,5.0,competing,paired,s_sh_02_1.jpg,Student,$${counterbalance_group},,sub-74
Desktop or Laptop,Windows 10,Chrome 138.0.0.0,2294x960,1835x650,Temporal Distance Task,cb_05,3.0,temp_dist_trial,dist_items,qkpkxw,2.0,info,,3.499999976156688,0.0,3.499999976156688,3.499999976156688,0.0,3.499999976156688,1.0,0.0,0.0,,Slider,Slider,4.0,object-56,temp_dist_trial,3.0,s_sh_02_1,student_shared,eraser,5.0,competing,paired,s_sh_02_1.jpg,Student,$${counterbalance_group},,sub-74
Desktop or Laptop,Windows 10,Chrome 138.0.0.0,2294x960,1835x650,Temporal Distance Task,cb_05,3.0,temp_dist_trial,dist_items,qkpkxw,2.0,continue,,2164.9999999761567,2151.0999999999985,2164.9999999761567,2164.9999999761567,2151.0999999999985,2164.9999999761567,1.0,0.0,0.0,,Click To Continue,Next button,7.0,object-60,temp_dist_trial,3.0,s_sh_02_1,student_shared,eraser,5.0,competing,paired,s_sh_02_1.jpg,Student,$${counterbalance_group},,sub-74
Desktop or Laptop,Windows 10,Chrome 138.0.0.0,2294x960,1835x650,Temporal Distance Task,cb_05,3.0,temp_dist_trial,dist_items,qkpkxw,2.0,response,50,933.9000000000017,2151.0999999999985,2165.200000023841,933.9000000000017,2151.0999999999985,2165.200000023841,1.0,1231.300000023839,0.0,,Slider,Slider,4.0,object-56,temp_dist_trial,3.0,s_sh_02_1,student_shared,eraser,5.0,competing,paired,s_sh_02_1.jpg,Student,$${counterbalance_group},,sub-74
Desktop or Laptop,Windows 10,Chrome 138.0.0.0,2294x960,1835x650,Temporal Distance Task,cb_05,4.0,temp_dist_trial,num_items,zn7si1,1.0,response,1_ITEM,2539.2999999523167,2534.5,2539.2999999523167,2539.2999999523167,2534.5,2539.2999999523167,1.0,0.0,0.0,,Click Response,1_count,3.0,object-46,temp_dist_trial,4.0,s_a_01_1,student_art,paintbrush,5.0,unique,paired,s_a_01_1.jpg,Student,$${counterbalance_group},,sub-74
Desktop or Laptop,Windows 10,Chrome 138.0.0.0,2294x960,1835x650,Temporal Distance Task,cb_05,5.0,temp_dist_trial,num_items,zn7si1,1.0,response,2_ITEM,1411.6999999523175,1400.8000000000034,1411.6999999523175,1411.6999999523175,1400.8000000000034,1411.6999999523175,1.0,0.0,0.0,,Click Response,2_count,5.0,object-49,temp_dist_trial,5.0,s_s_17_1,student_stem,ring stand,5.0,unique,paired,s_s_17_1.jpg,Student,$${counterbalance_group},,sub-74
Desktop or Laptop,Windows 10,Chrome 138.0.0.0,2294x960,1835x650,Temporal Distance Task,cb_05,5.0,temp_dist_trial,dist_items,qkpkxw,2.0,info,,3.100000023841858,0.0,3.100000023841858,3.100000023841858,0.0,3.100000023841858,1.0,0.0,0.0,,Slider,Slider,4.0,object-56,temp_dist_trial,5.0,s_s_17_1,student_stem,ring stand,5.0,unique,paired,s_s_17_1.jpg,Student,$${counterbalance_group},,sub-74
Desktop or Laptop,Windows 10,Chrome 138.0.0.0,2294x960,1835x650,Temporal Distance Task,cb_05,5.0,temp_dist_trial,dist_items,qkpkxw,2.0,continue,,1794.5,1784.1999999999966,1794.5,1794.5,1784.1999999999966,1794.5,1.0,0.0,0.0,,Click To Continue,Next button,7.0,object-60,temp_dist_trial,5.0,s_s_17_1,student_stem,ring stand,5.0,unique,paired,s_s_17_1.jpg,Student,$${counterbalance_group},,sub-74
Desktop or Laptop,Windows 10,Chrome 138.0.0.0,2294x960,1835x650,Temporal Distance Task,cb_05,5.0,temp_dist_trial,dist_items,qkpkxw,2.0,response,73,850.3999999999942,1784.1999999999966,1794.7999999523165,850.3999999999942,1784.1999999999966,1794.7999999523165,1.0,944.3999999523219,0.0,,Slider,Slider,4.0,object-56,temp_dist_trial,5.0,s_s_17_1,student_stem,ring stand,5.0,unique,paired,s_s_17_1.jpg,Student,$${counterbalance_group},,sub-74
Desktop or Laptop,Windows 10,Chrome 138.0.0.0,2294x960,1835x650,Temporal Distance Task,cb_05,6.0,temp_dist_trial,num_items,zn7si1,1.0,response,2_ITEM,2480.9000000238448,2467.9000000000087,2480.9000000238448,2480.9000000238448,2467.9000000000087,2480.9000000238448,1.0,0.0,0.0,,Click Response,2_count,5.0,object-49,temp_dist_trial,6.0,s_sh_11_1,student_shared,pencil case,5.0,competing,single,s_sh_11_1.jpg,Student,$${counterbalance_group},,sub-74
Desktop or Laptop,Windows 10,Chrome 138.0.0.0,2294x960,1835x650,Temporal Distance Task,cb_05,6.0,temp_dist_trial,dist_items,qkpkxw,2.0,info,,2.8999999284715163,0.0,2.8999999284715163,2.8999999284715163,0.0,2.8999999284715163,1.0,0.0,0.0,,Slider,Slider,4.0,object-56,temp_dist_trial,6.0,s_sh_11_1,student_shared,pencil case,5.0,competing,single,s_sh_11_1.jpg,Student,$${counterbalance_group},,sub-74
Desktop or Laptop,Windows 10,Chrome 138.0.0.0,2294x960,1835x650,Temporal Distance Task,cb_05,6.0,temp_dist_trial,dist_items,qkpkxw,2.0,continue,,1703.3000000238392,1700.8000000000034,1703.3000000238392,1703.3000000238392,1700.8000000000034,1703.3000000238392,1.0,0.0,0.0,,Click To Continue,Next button,7.0,object-60,temp_dist_trial,6.0,s_sh_11_1,student_shared,pencil case,5.0,competing,single,s_sh_11_1.jpg,Student,$${counterbalance_group},,sub-74
Desktop or Laptop,Windows 10,Chrome 138.0.0.0,2294x960,1835x650,Temporal Distance Task,cb_05,6.0,temp_dist_trial,dist_items,qkpkxw,2.0,response,69,733.5999999999913,1700.8000000000034,1703.5999999761555,733.5999999999913,1700.8000000000034,1703.5999999761555,1.0,969.999999976164,0.0,,Slider,Slider,4.0,object-56,temp_dist_trial,6.0,s_sh_11_1,student_shared,pencil case,5.0,competing,single,s_sh_11_1.jpg,Student,$${counterbalance_group},,sub-74
Desktop or Laptop,Windows 10,Chrome 138.0.0.0,2294x960,1835x650,Temporal Distance Task,cb_05,7.0,temp_dist_trial,num_items,zn7si1,1.0,response,2_ITEM,1098.6999999523102,1083.7999999999884,1098.6999999523102,1098.6999999523102,1083.7999999999884,1098.6999999523102,1.0,0.0,0.0,,Click Response,2_count,5.0,object-49,temp_dist_trial,7.0,s_a_07_1,student_art,yarn,5.0,unique,paired,s_a_07_1.jpg,Student,$${counterbalance_group},,sub-74
Desktop or Laptop,Windows 10,Chrome 138.0.0.0,2294x960,1835x650,Temporal Distance Task,cb_05,7.0,temp_dist_trial,dist_items,qkpkxw,2.0,info,,2.799999952316284,0.0,2.799999952316284,2.799999952316284,0.0,2.799999952316284,1.0,0.0,0.0,,Slider,Slider,4.0,object-56,temp_dist_trial,7.0,s_a_07_1,student_art,yarn,5.0,unique,paired,s_a_07_1.jpg,Student,$${counterbalance_group},,sub-74
Desktop or Laptop,Windows 10,Chrome 138.0.0.0,2294x960,1835x650,Temporal Distance Task,cb_05,7.0,temp_dist_trial,dist_items,qkpkxw,2.0,continue,,1494.8999999761581,1484.1000000000058,1494.8999999761581,1494.8999999761581,1484.1000000000058,1494.8999999761581,1.0,0.0,0.0,,Click To Continue,Next button,7.0,object-60,temp_dist_trial,7.0,s_a_07_1,student_art,yarn,5.0,unique,paired,s_a_07_1.jpg,Student,$${counterbalance_group},,sub-74
Desktop or Laptop,Windows 10,Chrome 138.0.0.0,2294x960,1835x650,Temporal Distance Task,cb_05,7.0,temp_dist_trial,dist_items,qkpkxw,2.0,response,54,733.8000000000029,1484.1000000000058,1495.1999999284744,733.8000000000029,1484.1000000000058,1495.1999999284744,1.0,761.3999999284715,0.0,,Slider,Slider,4.0,object-56,temp_dist_trial,7.0,s_a_07_1,student_art,yarn,5.0,unique,paired,s_a_07_1.jpg,Student,$${counterbalance_group},,sub-74
Desktop or Laptop,Windows 10,Chrome 138.0.0.0,2294x960,1835x650,Temporal Distance Task,cb_05,8.0,temp_dist_trial,num_items,zn7si1,1.0,response,1_ITEM,1192.5999999284684,1183.8999999999942,1192.5999999284684,1192.5999999284684,1183.8999999999942,1192.5999999284684,1.0,0.0,0.0,,Click Response,1_count,3.0,object-46,temp_dist_trial,8.0,s_a_13_1,student_art,violin,5.0,unique,paired,s_a_13_1.jpg,Student,$${counterbalance_group},,sub-74
Desktop or Laptop,Windows 10,Chrome 138.0.0.0,2294x960,1835x650,Temporal Distance Task,cb_05,9.0,temp_dist_trial,num_items,zn7si1,1.0,response,1_ITEM,1063.7999999761523,1050.5,1063.7999999761523,1063.7999999761523,1050.5,1063.7999999761523,1.0,0.0,0.0,,Click Response,1_count,3.0,object-46,temp_dist_trial,9.0,s_sh_17_1,student_shared,wireless mouse,5.0,competing,paired,s_sh_17_1.jpg,Student,$${counterbalance_group},,sub-74
Desktop or Laptop,Windows 10,Chrome 138.0.0.0,2294x960,1835x650,Temporal Distance Task,cb_05,10.0,temp_dist_trial,num_items,zn7si1,1.0,response,1_ITEM,1048.4999999284773,1033.9000000000087,1048.4999999284773,1048.4999999284773,1033.9000000000087,1048.4999999284773,1.0,0.0,0.0,,Click Response,1_count,3.0,object-46,temp_dist_trial,10.0,s_s_05_1,student_stem,lab goggles,5.0,unique,single,s_s_05_1.jpg,Student,$${counterbalance_group},,sub-74
Desktop or Laptop,Windows 10,Chrome 138.0.0.0,2294x960,1835x650,Temporal Distance Task,cb_05,11.0,temp_dist_trial,num_items,zn7si1,1.0,response,2_ITEM,1327.4999999284773,1317.4000000000087,1327.4999999284773,1327.4999999284773,1317.4000000000087,1327.4999999284773,1.0,0.0,0.0,,Click Response,2_count,5.0,object-49,temp_dist_trial,11.0,s_s_16_1,student_stem,toolbox,5.0,unique,paired,s_s_16_1.jpg,Student,$${counterbalance_group},,sub-74
Desktop or Laptop,Windows 10,Chrome 138.0.0.0,2294x960,1835x650,Temporal Distance Task,cb_05,11.0,temp_dist_trial,dist_items,qkpkxw,2.0,info,,2.9000000238447683,0.0,2.9000000238447683,2.9000000238447683,0.0,2.9000000238447683,1.0,0.0,0.0,,Slider,Slider,4.0,object-56,temp_dist_trial,11.0,s_s_16_1,student_stem,toolbox,5.0,unique,paired,s_s_16_1.jpg,Student,$${counterbalance_group},,sub-74
Desktop or Laptop,Windows 10,Chrome 138.0.0.0,2294x960,1835x650,Temporal Distance Task,cb_05,11.0,temp_dist_trial,dist_items,qkpkxw,2.0,continue,,2145.599999952319,2134.300000000003,2145.599999952319,2145.599999952319,2134.300000000003,2145.599999952319,1.0,0.0,0.0,,Click To Continue,Next button,7.0,object-60,temp_dist_trial,11.0,s_s_16_1,student_stem,toolbox,5.0,unique,paired,s_s_16_1.jpg,Student,$${counterbalance_group},,sub-74
Desktop or Laptop,Windows 10,Chrome 138.0.0.0,2294x960,1835x650,Temporal Distance Task,cb_05,11.0,temp_dist_trial,dist_items,qkpkxw,2.0,response,65,1417.3000000000034,2134.300000000003,2145.699999976161,1417.3000000000034,2134.300000000003,2145.699999976161,1.0,728.3999999761581,0.0,,Slider,Slider,4.0,object-56,temp_dist_trial,11.0,s_s_16_1,student_stem,toolbox,5.0,unique,paired,s_s_16_1.jpg,Student,$${counterbalance_group},,sub-74
Desktop or Laptop,Windows 10,Chrome 138.0.0.0,2294x960,1835x650,Temporal Distance Task,cb_05,12.0,temp_dist_trial,num_items,zn7si1,1.0,response,2_ITEM,1426.6999999284744,1417.3999999999942,1426.6999999284744,1426.6999999284744,1417.3999999999942,1426.6999999284744,1.0,0.0,0.0,,Click Response,2_count,5.0,object-49,temp_dist_trial,12.0,s_sh_24_1,student_shared,desk organizer,5.0,competing,single,s_sh_24_1.jpg,Student,$${counterbalance_group},,sub-74
Desktop or Laptop,Windows 10,Chrome 138.0.0.0,2294x960,1835x650,Temporal Distance Task,cb_05,12.0,temp_dist_trial,dist_items,qkpkxw,2.0,info,,3.0,0.0,3.0,3.0,0.0,3.0,1.0,0.0,0.0,,Slider,Slider,4.0,object-56,temp_dist_trial,12.0,s_sh_24_1,student_shared,desk organizer,5.0,competing,single,s_sh_24_1.jpg,Student,$${counterbalance_group},,sub-74
Desktop or Laptop,Windows 10,Chrome 138.0.0.0,2294x960,1835x650,Temporal Distance Task,cb_05,12.0,temp_dist_trial,dist_items,qkpkxw,2.0,continue,,1460.2999999523165,1450.6999999999966,1460.2999999523165,1460.2999999523165,1450.6999999999966,1460.2999999523165,1.0,0.0,0.0,,Click To Continue,Next button,7.0,object-60,temp_dist_trial,12.0,s_sh_24_1,student_shared,desk organizer,5.0,competing,single,s_sh_24_1.jpg,Student,$${counterbalance_group},,sub-74
Desktop or Laptop,Windows 10,Chrome 138.0.0.0,2294x960,1835x650,Temporal Distance Task,cb_05,12.0,temp_dist_trial,dist_items,qkpkxw,2.0,response,65,1000.5,1450.6999999999966,1460.5,1000.5,1450.6999999999966,1460.5,1.0,460.0,0.0,,Slider,Slider,4.0,object-56,temp_dist_trial,12.0,s_sh_24_1,student_shared,desk organizer,5.0,competing,single,s_sh_24_1.jpg,Student,$${counterbalance_group},,sub-74
Desktop or Laptop,Windows 10,Chrome 138.0.0.0,2294x960,1835x650,Temporal Distance Task,cb_05,13.0,temp_dist_trial,num_items,zn7si1,1.0,response,2_ITEM,1476.0999999523196,1467.400000000009,1476.0999999523196,1476.0999999523196,1467.400000000009,1476.0999999523196,1.0,0.0,0.0,,Click Response,2_count,5.0,object-49,temp_dist_trial,13.0,s_a_15_1,student_art,drum kit,5.0,unique,paired,s_a_15_1.jpg,Student,$${counterbalance_group},,sub-74
Desktop or Laptop,Windows 10,Chrome 138.0.0.0,2294x960,1835x650,Temporal Distance Task,cb_05,13.0,temp_dist_trial,dist_items,qkpkxw,2.0,info,,2.4999999284773367,0.0,2.4999999284773367,2.4999999284773367,0.0,2.4999999284773367,1.0,0.0,0.0,,Slider,Slider,4.0,object-56,temp_dist_trial,13.0,s_a_15_1,student_art,drum kit,5.0,unique,paired,s_a_15_1.jpg,Student,$${counterbalance_group},,sub-74
Desktop or Laptop,Windows 10,Chrome 138.0.0.0,2294x960,1835x650,Temporal Distance Task,cb_05,13.0,temp_dist_trial,dist_items,qkpkxw,2.0,continue,,2011.9000000238445,2001.0,2011.9000000238445,2011.9000000238445,2001.0,2011.9000000238445,1.0,0.0,0.0,,Click To Continue,Next button,7.0,object-60,temp_dist_trial,13.0,s_a_15_1,student_art,drum kit,5.0,unique,paired,s_a_15_1.jpg,Student,$${counterbalance_group},,sub-74
Desktop or Laptop,Windows 10,Chrome 138.0.0.0,2294x960,1835x650,Temporal Distance Task,cb_05,13.0,temp_dist_trial,dist_items,qkpkxw,2.0,response,60,1517.400000000009,2001.0,2012.0999999523196,1517.400000000009,2001.0,2012.0999999523196,1.0,494.69999995231046,0.0,,Slider,Slider,4.0,object-56,temp_dist_trial,13.0,s_a_15_1,student_art,drum kit,5.0,unique,paired,s_a_15_1.jpg,Student,$${counterbalance_group},,sub-74
Desktop or Laptop,Windows 10,Chrome 138.0.0.0,2294x960,1835x650,Temporal Distance Task,cb_05,14.0,temp_dist_trial,num_items,zn7si1,1.0,response,1_ITEM,1209.5999999523192,1200.6000000000058,1209.5999999523192,1209.5999999523192,1200.6000000000058,1209.5999999523192,1.0,0.0,0.0,,Click Response,1_count,3.0,object-46,temp_dist_trial,14.0,s_a_06_1,student_art,pastels,5.0,unique,paired,s_a_06_1.jpg,Student,$${counterbalance_group},,sub-74
Desktop or Laptop,Windows 10,Chrome 138.0.0.0,2294x960,1835x650,Temporal Distance Task,cb_05,15.0,temp_dist_trial,num_items,zn7si1,1.0,response,2_ITEM,1035.6000000000058,1033.8000000000031,1035.6000000000058,1035.6000000000058,1033.8000000000031,1035.6000000000058,1.0,0.0,0.0,,Click Response,2_count,5.0,object-49,temp_dist_trial,15.0,s_sh_20_1,student_shared,tape,5.0,competing,paired,s_sh_20_1.jpg,Student,$${counterbalance_group},,sub-74
Desktop or Laptop,Windows 10,Chrome 138.0.0.0,2294x960,1835x650,Temporal Distance Task,cb_05,15.0,temp_dist_trial,dist_items,qkpkxw,2.0,info,,2.7999999284802475,0.0,2.7999999284802475,2.7999999284802475,0.0,2.7999999284802475,1.0,0.0,0.0,,Slider,Slider,4.0,object-56,temp_dist_trial,15.0,s_sh_20_1,student_shared,tape,5.0,competing,paired,s_sh_20_1.jpg,Student,$${counterbalance_group},,sub-74
Desktop or Laptop,Windows 10,Chrome 138.0.0.0,2294x960,1835x650,Temporal Distance Task,cb_05,15.0,temp_dist_trial,dist_items,qkpkxw,2.0,continue,,1651.899999952322,1650.8000000000034,1651.899999952322,1651.899999952322,1650.8000000000034,1651.899999952322,1.0,0.0,0.0,,Click To Continue,Next button,7.0,object-60,temp_dist_trial,15.0,s_sh_20_1,student_shared,tape,5.0,competing,paired,s_sh_20_1.jpg,Student,$${counterbalance_group},,sub-74
Desktop or Laptop,Windows 10,Chrome 138.0.0.0,2294x960,1835x650,Temporal Distance Task,cb_05,15.0,temp_dist_trial,dist_items,qkpkxw,2.0,response,82,983.9000000000087,1650.8000000000034,1652.1000000000058,983.9000000000087,1650.8000000000034,1652.1000000000058,1.0,668.1999999999971,0.0,,Slider,Slider,4.0,object-56,temp_dist_trial,15.0,s_sh_20_1,student_shared,tape,5.0,competing,paired,s_sh_20_1.jpg,Student,$${counterbalance_group},,sub-74
Desktop or Laptop,Windows 10,Chrome 138.0.0.0,2294x960,1835x650,Temporal Distance Task,cb_05,16.0,temp_dist_trial,num_items,zn7si1,1.0,response,1_ITEM,1250.4999999284773,1233.9000000000087,1250.4999999284773,1250.4999999284773,1233.9000000000087,1250.4999999284773,1.0,0.0,0.0,,Click Response,1_count,3.0,object-46,temp_dist_trial,16.0,s_a_03_1,student_art,palette,5.0,unique,paired,s_a_03_1.jpg,Student,$${counterbalance_group},,sub-74
Desktop or Laptop,Windows 10,Chrome 138.0.0.0,2294x960,1835x650,Temporal Distance Task,cb_05,17.0,temp_dist_trial,num_items,zn7si1,1.0,response,2_ITEM,1154.199999976161,1150.6000000000058,1154.199999976161,1154.199999976161,1150.6000000000058,1154.199999976161,1.0,0.0,0.0,,Click Response,2_count,5.0,object-49,temp_dist_trial,17.0,s_sh_16_1,student_shared,stapler,5.0,competing,paired,s_sh_16_1.jpg,Student,$${counterbalance_group},,sub-74
Desktop or Laptop,Windows 10,Chrome 138.0.0.0,2294x960,1835x650,Temporal Distance Task,cb_05,17.0,temp_dist_trial,dist_items,qkpkxw,2.0,info,,3.1999999284744263,0.0,3.1999999284744263,3.1999999284744263,0.0,3.1999999284744263,1.0,0.0,0.0,,Slider,Slider,4.0,object-56,temp_dist_trial,17.0,s_sh_16_1,student_shared,stapler,5.0,competing,paired,s_sh_16_1.jpg,Student,$${counterbalance_group},,sub-74
Desktop or Laptop,Windows 10,Chrome 138.0.0.0,2294x960,1835x650,Temporal Distance Task,cb_05,17.0,temp_dist_trial,dist_items,qkpkxw,2.0,continue,,1214.899999976158,1200.6000000000058,1214.899999976158,1214.899999976158,1200.6000000000058,1214.899999976158,1.0,0.0,0.0,,Click To Continue,Next button,7.0,object-60,temp_dist_trial,17.0,s_sh_16_1,student_shared,stapler,5.0,competing,paired,s_sh_16_1.jpg,Student,$${counterbalance_group},,sub-74
Desktop or Laptop,Windows 10,Chrome 138.0.0.0,2294x960,1835x650,Temporal Distance Task,cb_05,17.0,temp_dist_trial,dist_items,qkpkxw,2.0,response,61,683.6000000000057,1200.6000000000058,1215.100000023842,683.6000000000057,1200.6000000000058,1215.100000023842,1.0,531.500000023836,0.0,,Slider,Slider,4.0,object-56,temp_dist_trial,17.0,s_sh_16_1,student_shared,stapler,5.0,competing,paired,s_sh_16_1.jpg,Student,$${counterbalance_group},,sub-74
Desktop or Laptop,Windows 10,Chrome 138.0.0.0,2294x960,1835x650,Temporal Distance Task,cb_05,18.0,temp_dist_trial,num_items,zn7si1,1.0,response,1_ITEM,1417.3999999999942,1400.6999999999966,1417.3999999999942,1417.3999999999942,1400.6999999999966,1417.3999999999942,1.0,0.0,0.0,,Click Response,1_count,3.0,object-46,temp_dist_trial,18.0,s_sh_14_1,student_shared,printer,5.0,competing,single,s_sh_14_1.jpg,Student,$${counterbalance_group},,sub-74
Desktop or Laptop,Windows 10,Chrome 138.0.0.0,2294x960,1835x650,Temporal Distance Task,cb_05,19.0,temp_dist_trial,num_items,zn7si1,1.0,response,1_ITEM,2658.300000023839,2651.300000000003,2658.300000023839,2658.300000023839,2651.300000000003,2658.300000023839,1.0,0.0,0.0,,Click Response,1_count,3.0,object-46,temp_dist_trial,19.0,s_sh_19_1,student_shared,portable plastic drawer,5.0,competing,paired,s_sh_19_1.jpg,Student,$${counterbalance_group},,sub-74
Desktop or Laptop,Windows 10,Chrome 138.0.0.0,2294x960,1835x650,Temporal Distance Task,cb_05,20.0,temp_dist_trial,num_items,zn7si1,1.0,response,1_ITEM,1208.5999999761552,1200.5,1208.5999999761552,1208.5999999761552,1200.5,1208.5999999761552,1.0,0.0,0.0,,Click Response,1_count,3.0,object-46,temp_dist_trial,20.0,s_s_04_1,student_stem,bunsen burner,5.0,unique,single,s_s_04_1.jpg,Student,$${counterbalance_group},,sub-74
Desktop or Laptop,Windows 10,Chrome 138.0.0.0,2294x960,1835x650,Temporal Distance Task,cb_05,21.0,temp_dist_trial,num_items,zn7si1,1.0,response,2_ITEM,1381.6999999284744,1367.3000000000031,1381.6999999284744,1381.6999999284744,1367.3000000000031,1381.6999999284744,1.0,0.0,0.0,,Click Response,2_count,5.0,object-49,temp_dist_trial,21.0,s_s_14_1,student_stem,funnel,5.0,unique,paired,s_s_14_1.jpg,Student,$${counterbalance_group},,sub-74
Desktop or Laptop,Windows 10,Chrome 138.0.0.0,2294x960,1835x650,Temporal Distance Task,cb_05,21.0,temp_dist_trial,dist_items,qkpkxw,2.0,info,,2.899999976158142,0.0,2.899999976158142,2.899999976158142,0.0,2.899999976158142,1.0,0.0,0.0,,Slider,Slider,4.0,object-56,temp_dist_trial,21.0,s_s_14_1,student_stem,funnel,5.0,unique,paired,s_s_14_1.jpg,Student,$${counterbalance_group},,sub-74
Desktop or Laptop,Windows 10,Chrome 138.0.0.0,2294x960,1835x650,Temporal Distance Task,cb_05,21.0,temp_dist_trial,dist_items,qkpkxw,2.0,continue,,4354.600000023842,4352.100000000006,4354.600000023842,4354.600000023842,4352.100000000006,4354.600000023842,1.0,0.0,0.0,,Click To Continue,Next button,7.0,object-60,temp_dist_trial,21.0,s_s_14_1,student_stem,funnel,5.0,unique,paired,s_s_14_1.jpg,Student,$${counterbalance_group},,sub-74
Desktop or Laptop,Windows 10,Chrome 138.0.0.0,2294x960,1835x650,Temporal Distance Task,cb_05,21.0,temp_dist_trial,dist_items,qkpkxw,2.0,response,87,3101.3999999999933,4352.100000000006,4354.899999976158,3101.3999999999933,4352.100000000006,4354.899999976158,1.0,1253.499999976164,0.0,,Slider,Slider,4.0,object-56,temp_dist_trial,21.0,s_s_14_1,student_stem,funnel,5.0,unique,paired,s_s_14_1.jpg,Student,$${counterbalance_group},,sub-74
Desktop or Laptop,Windows 10,Chrome 138.0.0.0,2294x960,1835x650,Temporal Distance Task,cb_05,22.0,temp_dist_trial,num_items,zn7si1,1.0,response,1_ITEM,1174.2999999761525,1167.2999999999886,1174.2999999761525,1174.2999999761525,1167.2999999999886,1174.2999999761525,1.0,0.0,0.0,,Click Response,1_count,3.0,object-46,temp_dist_trial,22.0,s_sh_15_1,student_shared,usb drive,5.0,competing,single,s_sh_15_1.jpg,Student,$${counterbalance_group},,sub-74
Desktop or Laptop,Windows 10,Chrome 138.0.0.0,2294x960,1835x650,Temporal Distance Task,cb_05,23.0,temp_dist_trial,num_items,zn7si1,1.0,response,2_ITEM,1462.6000000238419,1450.6999999999966,1462.6000000238419,1462.6000000238419,1450.6999999999966,1462.6000000238419,1.0,0.0,0.0,,Click Response,2_count,5.0,object-49,temp_dist_trial,23.0,s_sh_10_1,student_shared,scissors,5.0,competing,single,s_sh_10_1.jpg,Student,$${counterbalance_group},,sub-74
Desktop or Laptop,Windows 10,Chrome 138.0.0.0,2294x960,1835x650,Temporal Distance Task,cb_05,23.0,temp_dist_trial,dist_items,qkpkxw,2.0,info,,2.8000000000029104,0.0,2.8000000000029104,2.8000000000029104,0.0,2.8000000000029104,1.0,0.0,0.0,,Slider,Slider,4.0,object-56,temp_dist_trial,23.0,s_sh_10_1,student_shared,scissors,5.0,competing,single,s_sh_10_1.jpg,Student,$${counterbalance_group},,sub-74
Desktop or Laptop,Windows 10,Chrome 138.0.0.0,2294x960,1835x650,Temporal Distance Task,cb_05,23.0,temp_dist_trial,dist_items,qkpkxw,2.0,continue,,1295.9000000238448,1284.1000000000058,1295.9000000238448,1295.9000000238448,1284.1000000000058,1295.9000000238448,1.0,0.0,0.0,,Click To Continue,Next button,7.0,object-60,temp_dist_trial,23.0,s_sh_10_1,student_shared,scissors,5.0,competing,single,s_sh_10_1.jpg,Student,$${counterbalance_group},,sub-74
Desktop or Laptop,Windows 10,Chrome 138.0.0.0,2294x960,1835x650,Temporal Distance Task,cb_05,23.0,temp_dist_trial,dist_items,qkpkxw,2.0,response,51,617.1000000000057,1284.1000000000058,1295.9999999284773,617.1000000000057,1284.1000000000058,1295.9999999284773,1.0,678.8999999284715,0.0,,Slider,Slider,4.0,object-56,temp_dist_trial,23.0,s_sh_10_1,student_shared,scissors,5.0,competing,single,s_sh_10_1.jpg,Student,$${counterbalance_group},,sub-74
Desktop or Laptop,Windows 10,Chrome 138.0.0.0,2294x960,1835x650,Temporal Distance Task,cb_05,24.0,temp_dist_trial,num_items,zn7si1,1.0,response,1_ITEM,2147.0999999761552,2134.300000000003,2147.0999999761552,2147.0999999761552,2134.300000000003,2147.0999999761552,1.0,0.0,0.0,,Click Response,1_count,3.0,object-46,temp_dist_trial,24.0,s_s_12_1,student_stem,robotic arm,5.0,unique,single,s_s_12_1.jpg,Student,$${counterbalance_group},,sub-74
Desktop or Laptop,Windows 10,Chrome 138.0.0.0,2294x960,1835x650,Temporal Distance Task,cb_05,25.0,temp_dist_trial,num_items,zn7si1,1.0,response,2_ITEM,1067.0999999999913,1050.5,1067.0999999999913,1067.0999999999913,1050.5,1067.0999999999913,1.0,0.0,0.0,,Click Response,2_count,5.0,object-49,temp_dist_trial,25.0,s_sh_23_1,student_shared,ballpoint pen,5.0,competing,paired,s_sh_23_1.jpg,Student,$${counterbalance_group},,sub-74
Desktop or Laptop,Windows 10,Chrome 138.0.0.0,2294x960,1835x650,Temporal Distance Task,cb_05,25.0,temp_dist_trial,dist_items,qkpkxw,2.0,info,,2.299999928480247,0.0,2.299999928480247,2.299999928480247,0.0,2.299999928480247,1.0,0.0,0.0,,Slider,Slider,4.0,object-56,temp_dist_trial,25.0,s_sh_23_1,student_shared,ballpoint pen,5.0,competing,paired,s_sh_23_1.jpg,Student,$${counterbalance_group},,sub-74
Desktop or Laptop,Windows 10,Chrome 138.0.0.0,2294x960,1835x650,Temporal Distance Task,cb_05,25.0,temp_dist_trial,dist_items,qkpkxw,2.0,continue,,2624.499999976164,2617.9000000000087,2624.499999976164,2624.499999976164,2617.9000000000087,2624.499999976164,1.0,0.0,0.0,,Click To Continue,Next button,7.0,object-60,temp_dist_trial,25.0,s_sh_23_1,student_shared,ballpoint pen,5.0,competing,paired,s_sh_23_1.jpg,Student,$${counterbalance_group},,sub-74
Desktop or Laptop,Windows 10,Chrome 138.0.0.0,2294x960,1835x650,Temporal Distance Task,cb_05,25.0,temp_dist_trial,dist_items,qkpkxw,2.0,response,40,1600.8000000000034,2617.9000000000087,2624.7999999284802,1600.8000000000034,2617.9000000000087,2624.7999999284802,1.0,1023.9999999284773,0.0,,Slider,Slider,4.0,object-56,temp_dist_trial,25.0,s_sh_23_1,student_shared,ballpoint pen,5.0,competing,paired,s_sh_23_1.jpg,Student,$${counterbalance_group},,sub-74
Desktop or Laptop,Windows 10,Chrome 138.0.0.0,2294x960,1835x650,Temporal Distance Task,cb_05,26.0,temp_dist_trial,num_items,zn7si1,1.0,response,2_ITEM,1230.1999999999969,1217.1999999999969,1230.1999999999969,1230.1999999999969,1217.1999999999969,1230.1999999999969,1.0,0.0,0.0,,Click Response,2_count,5.0,object-49,temp_dist_trial,26.0,s_sh_06_1,student_shared,clipboard,5.0,competing,single,s_sh_06_1.jpg,Student,$${counterbalance_group},,sub-74
Desktop or Laptop,Windows 10,Chrome 138.0.0.0,2294x960,1835x650,Temporal Distance Task,cb_05,26.0,temp_dist_trial,dist_items,qkpkxw,2.0,info,,2.7999999761523213,0.0,2.7999999761523213,2.7999999761523213,0.0,2.7999999761523213,1.0,0.0,0.0,,Slider,Slider,4.0,object-56,temp_dist_trial,26.0,s_sh_06_1,student_shared,clipboard,5.0,competing,single,s_sh_06_1.jpg,Student,$${counterbalance_group},,sub-74
Desktop or Laptop,Windows 10,Chrome 138.0.0.0,2294x960,1835x650,Temporal Distance Task,cb_05,26.0,temp_dist_trial,dist_items,qkpkxw,2.0,continue,,1325.000000023836,1317.3999999999942,1325.000000023836,1325.000000023836,1317.3999999999942,1325.000000023836,1.0,0.0,0.0,,Click To Continue,Next button,7.0,object-60,temp_dist_trial,26.0,s_sh_06_1,student_shared,clipboard,5.0,competing,single,s_sh_06_1.jpg,Student,$${counterbalance_group},,sub-74
Desktop or Laptop,Windows 10,Chrome 138.0.0.0,2294x960,1835x650,Temporal Distance Task,cb_05,26.0,temp_dist_trial,dist_items,qkpkxw,2.0,response,48,667.0,1317.3999999999942,1327.6999999523105,667.0,1317.3999999999942,1327.6999999523105,1.0,660.6999999523105,0.0,,Slider,Slider,4.0,object-56,temp_dist_trial,26.0,s_sh_06_1,student_shared,clipboard,5.0,competing,single,s_sh_06_1.jpg,Student,$${counterbalance_group},,sub-74
Desktop or Laptop,Windows 10,Chrome 138.0.0.0,2294x960,1835x650,Temporal Distance Task,cb_05,27.0,temp_dist_trial,num_items,zn7si1,1.0,response,1_ITEM,1300.399999976158,1284.0,1300.399999976158,1300.399999976158,1284.0,1300.399999976158,1.0,0.0,0.0,,Click Response,1_count,3.0,object-46,temp_dist_trial,27.0,s_s_18_1,student_stem,brain model,5.0,unique,single,s_s_18_1.jpg,Student,$${counterbalance_group},,sub-74
Desktop or Laptop,Windows 10,Chrome 138.0.0.0,2294x960,1835x650,Temporal Distance Task,cb_05,28.0,temp_dist_trial,num_items,zn7si1,1.0,response,2_ITEM,999.2999999761523,983.7999999999884,999.2999999761523,999.2999999761523,983.7999999999884,999.2999999761523,1.0,0.0,0.0,,Click Response,2_count,5.0,object-49,temp_dist_trial,28.0,s_sh_08_1,student_shared,post-its,5.0,competing,paired,s_sh_08_1.jpg,Student,$${counterbalance_group},,sub-74
Desktop or Laptop,Windows 10,Chrome 138.0.0.0,2294x960,1835x650,Temporal Distance Task,cb_05,28.0,temp_dist_trial,dist_items,qkpkxw,2.0,info,,2.299999952316284,0.0,2.299999952316284,2.299999952316284,0.0,2.299999952316284,1.0,0.0,0.0,,Slider,Slider,4.0,object-56,temp_dist_trial,28.0,s_sh_08_1,student_shared,post-its,5.0,competing,paired,s_sh_08_1.jpg,Student,$${counterbalance_group},,sub-74
Desktop or Laptop,Windows 10,Chrome 138.0.0.0,2294x960,1835x650,Temporal Distance Task,cb_05,28.0,temp_dist_trial,dist_items,qkpkxw,2.0,continue,,2412.399999976158,2401.1000000000063,2412.399999976158,2412.399999976158,2401.1000000000063,2412.399999976158,1.0,0.0,0.0,,Click To Continue,Next button,7.0,object-60,temp_dist_trial,28.0,s_sh_08_1,student_shared,post-its,5.0,competing,paired,s_sh_08_1.jpg,Student,$${counterbalance_group},,sub-74
Desktop or Laptop,Windows 10,Chrome 138.0.0.0,2294x960,1835x650,Temporal Distance Task,cb_05,28.0,temp_dist_trial,dist_items,qkpkxw,2.0,response,73,817.1000000000058,2401.1000000000063,2412.6999999284744,817.1000000000058,2401.1000000000063,2412.6999999284744,1.0,1595.5999999284686,0.0,,Slider,Slider,4.0,object-56,temp_dist_trial,28.0,s_sh_08_1,student_shared,post-its,5.0,competing,paired,s_sh_08_1.jpg,Student,$${counterbalance_group},,sub-74
Desktop or Laptop,Windows 10,Chrome 138.0.0.0,2294x960,1835x650,Temporal Distance Task,cb_05,29.0,temp_dist_trial,num_items,zn7si1,1.0,response,1_ITEM,1506.2999999761525,1500.7999999999884,1506.2999999761525,1506.2999999761525,1500.7999999999884,1506.2999999761525,1.0,0.0,0.0,,Click Response,1_count,3.0,object-46,temp_dist_trial,29.0,s_a_20_1,student_art,pin cushion,5.0,unique,single,s_a_20_1.jpg,Student,$${counterbalance_group},,sub-74
Desktop or Laptop,Windows 10,Chrome 138.0.0.0,2294x960,1835x650,Temporal Distance Task,cb_05,30.0,temp_dist_trial,num_items,zn7si1,1.0,response,1_ITEM,966.3999999999942,950.3999999999942,966.3999999999942,966.3999999999942,950.3999999999942,966.3999999999942,1.0,0.0,0.0,,Click Response,1_count,3.0,object-46,temp_dist_trial,30.0,s_s_13_1,student_stem,telescope,5.0,unique,paired,s_s_13_1.jpg,Student,$${counterbalance_group},,sub-74
Desktop or Laptop,Windows 10,Chrome 138.0.0.0,2294x960,1835x650,Temporal Distance Task,cb_05,31.0,temp_dist_trial,num_items,zn7si1,1.0,response,1_ITEM,1101.8999999999942,1100.6000000000058,1101.8999999999942,1101.8999999999942,1100.6000000000058,1101.8999999999942,1.0,0.0,0.0,,Click Response,1_count,3.0,object-46,temp_dist_trial,31.0,s_sh_13_1,student_shared,index cards,5.0,competing,single,s_sh_13_1.jpg,Student,$${counterbalance_group},,sub-74
Desktop or Laptop,Windows 10,Chrome 138.0.0.0,2294x960,1835x650,Temporal Distance Task,cb_05,32.0,temp_dist_trial,num_items,zn7si1,1.0,response,2_ITEM,1742.999999976164,1734.1000000000058,1742.999999976164,1742.999999976164,1734.1000000000058,1742.999999976164,1.0,0.0,0.0,,Click Response,2_count,5.0,object-49,temp_dist_trial,32.0,s_sh_05_1,student_shared,laptop,5.0,competing,paired,s_sh_05_1.jpg,Student,$${counterbalance_group},,sub-74
Desktop or Laptop,Windows 10,Chrome 138.0.0.0,2294x960,1835x650,Temporal Distance Task,cb_05,32.0,temp_dist_trial,dist_items,qkpkxw,2.0,info,,2.6999999761465006,0.0,2.6999999761465006,2.6999999761465006,0.0,2.6999999761465006,1.0,0.0,0.0,,Slider,Slider,4.0,object-56,temp_dist_trial,32.0,s_sh_05_1,student_shared,laptop,5.0,competing,paired,s_sh_05_1.jpg,Student,$${counterbalance_group},,sub-74
Desktop or Laptop,Windows 10,Chrome 138.0.0.0,2294x960,1835x650,Temporal Distance Task,cb_05,32.0,temp_dist_trial,dist_items,qkpkxw,2.0,continue,,2095.9999999284632,2084.1999999999825,2095.9999999284632,2095.9999999284632,2084.1999999999825,2095.9999999284632,1.0,0.0,0.0,,Click To Continue,Next button,7.0,object-60,temp_dist_trial,32.0,s_sh_05_1,student_shared,laptop,5.0,competing,paired,s_sh_05_1.jpg,Student,$${counterbalance_group},,sub-74
Desktop or Laptop,Windows 10,Chrome 138.0.0.0,2294x960,1835x650,Temporal Distance Task,cb_05,32.0,temp_dist_trial,dist_items,qkpkxw,2.0,response,85,1050.3999999999942,2084.1999999999825,2096.0999999523046,1050.3999999999942,2084.1999999999825,2096.0999999523046,1.0,1045.6999999523102,0.0,,Slider,Slider,4.0,object-56,temp_dist_trial,32.0,s_sh_05_1,student_shared,laptop,5.0,competing,paired,s_sh_05_1.jpg,Student,$${counterbalance_group},,sub-74
Desktop or Laptop,Windows 10,Chrome 138.0.0.0,2294x960,1835x650,Temporal Distance Task,cb_05,33.0,temp_dist_trial,num_items,zn7si1,1.0,response,2_ITEM,1779.6000000000058,1767.7000000000116,1779.6000000000058,1779.6000000000058,1767.7000000000116,1779.6000000000058,1.0,0.0,0.0,,Click Response,2_count,5.0,object-49,temp_dist_trial,33.0,s_sh_21_1,student_shared,file holder,5.0,competing,paired,s_sh_21_1.jpg,Student,$${counterbalance_group},,sub-74
Desktop or Laptop,Windows 10,Chrome 138.0.0.0,2294x960,1835x650,Temporal Distance Task,cb_05,33.0,temp_dist_trial,dist_items,qkpkxw,2.0,info,,2.3999999999941792,0.0,2.3999999999941792,2.3999999999941792,0.0,2.3999999999941792,1.0,0.0,0.0,,Slider,Slider,4.0,object-56,temp_dist_trial,33.0,s_sh_21_1,student_shared,file holder,5.0,competing,paired,s_sh_21_1.jpg,Student,$${counterbalance_group},,sub-74
Desktop or Laptop,Windows 10,Chrome 138.0.0.0,2294x960,1835x650,Temporal Distance Task,cb_05,33.0,temp_dist_trial,dist_items,qkpkxw,2.0,continue,,1196.500000023836,1183.8999999999942,1196.500000023836,1196.500000023836,1183.8999999999942,1196.500000023836,1.0,0.0,0.0,,Click To Continue,Next button,7.0,object-60,temp_dist_trial,33.0,s_sh_21_1,student_shared,file holder,5.0,competing,paired,s_sh_21_1.jpg,Student,$${counterbalance_group},,sub-74
Desktop or Laptop,Windows 10,Chrome 138.0.0.0,2294x960,1835x650,Temporal Distance Task,cb_05,33.0,temp_dist_trial,dist_items,qkpkxw,2.0,response,52,550.2999999999884,1183.8999999999942,1196.6999999523105,550.2999999999884,1183.8999999999942,1196.6999999523105,1.0,646.3999999523221,0.0,,Slider,Slider,4.0,object-56,temp_dist_trial,33.0,s_sh_21_1,student_shared,file holder,5.0,competing,paired,s_sh_21_1.jpg,Student,$${counterbalance_group},,sub-74
Desktop or Laptop,Windows 10,Chrome 138.0.0.0,2294x960,1835x650,Temporal Distance Task,cb_05,34.0,temp_dist_trial,num_items,zn7si1,1.0,response,2_ITEM,1572.2999999523165,1567.5,1572.2999999523165,1572.2999999523165,1567.5,1572.2999999523165,1.0,0.0,0.0,,Click Response,2_count,5.0,object-49,temp_dist_trial,34.0,s_sh_03_1,student_shared,highlighter,5.0,competing,paired,s_sh_03_1.jpg,Student,$${counterbalance_group},,sub-74
Desktop or Laptop,Windows 10,Chrome 138.0.0.0,2294x960,1835x650,Temporal Distance Task,cb_05,34.0,temp_dist_trial,dist_items,qkpkxw,2.0,info,,2.2999999761523213,0.0,2.2999999761523213,2.2999999761523213,0.0,2.2999999761523213,1.0,0.0,0.0,,Slider,Slider,4.0,object-56,temp_dist_trial,34.0,s_sh_03_1,student_shared,highlighter,5.0,competing,paired,s_sh_03_1.jpg,Student,$${counterbalance_group},,sub-74
Desktop or Laptop,Windows 10,Chrome 138.0.0.0,2294x960,1835x650,Temporal Distance Task,cb_05,34.0,temp_dist_trial,dist_items,qkpkxw,2.0,continue,,1452.8999999999942,1450.6999999999825,1452.8999999999942,1452.8999999999942,1450.6999999999825,1452.8999999999942,1.0,0.0,0.0,,Click To Continue,Next button,7.0,object-60,temp_dist_trial,34.0,s_sh_03_1,student_shared,highlighter,5.0,competing,paired,s_sh_03_1.jpg,Student,$${counterbalance_group},,sub-74
Desktop or Laptop,Windows 10,Chrome 138.0.0.0,2294x960,1835x650,Temporal Distance Task,cb_05,34.0,temp_dist_trial,dist_items,qkpkxw,2.0,response,73,617.0,1450.6999999999825,1453.1999999523105,617.0,1450.6999999999825,1453.1999999523105,1.0,836.1999999523105,0.0,,Slider,Slider,4.0,object-56,temp_dist_trial,34.0,s_sh_03_1,student_shared,highlighter,5.0,competing,paired,s_sh_03_1.jpg,Student,$${counterbalance_group},,sub-74
Desktop or Laptop,Windows 10,Chrome 138.0.0.0,2294x960,1835x650,Temporal Distance Task,cb_05,35.0,temp_dist_trial,num_items,zn7si1,1.0,response,1_ITEM,1427.999999952328,1417.4000000000233,1427.999999952328,1427.999999952328,1417.4000000000233,1427.999999952328,1.0,0.0,0.0,,Click Response,1_count,3.0,object-46,temp_dist_trial,35.0,s_s_20_1,student_stem,dna model,5.0,unique,paired,s_s_20_1.jpg,Student,$${counterbalance_group},,sub-74
Desktop or Laptop,Windows 10,Chrome 138.0.0.0,2294x960,1835x650,Temporal Distance Task,cb_05,36.0,temp_dist_trial,num_items,zn7si1,1.0,response,1_ITEM,931.0999999761698,917.1000000000058,931.0999999761698,931.0999999761698,917.1000000000058,931.0999999761698,1.0,0.0,0.0,,Click Response,1_count,3.0,object-46,temp_dist_trial,36.0,s_a_10_1,student_art,tripod,5.0,unique,single,s_a_10_1.jpg,Student,$${counterbalance_group},,sub-74
Desktop or Laptop,Windows 10,Chrome 138.0.0.0,2294x960,1835x650,Temporal Distance Task,cb_05,37.0,temp_dist_trial,num_items,zn7si1,1.0,response,2_ITEM,1178.6999999523105,1167.1000000000058,1178.6999999523105,1178.6999999523105,1167.1000000000058,1178.6999999523105,1.0,0.0,0.0,,Click Response,2_count,5.0,object-49,temp_dist_trial,37.0,s_a_09_1,student_art,picture frame,5.0,unique,paired,s_a_09_1.jpg,Student,$${counterbalance_group},,sub-74
Desktop or Laptop,Windows 10,Chrome 138.0.0.0,2294x960,1835x650,Temporal Distance Task,cb_05,37.0,temp_dist_trial,dist_items,qkpkxw,2.0,info,,2.7999999284802475,0.0,2.7999999284802475,2.7999999284802475,0.0,2.7999999284802475,1.0,0.0,0.0,,Slider,Slider,4.0,object-56,temp_dist_trial,37.0,s_a_09_1,student_art,picture frame,5.0,unique,paired,s_a_09_1.jpg,Student,$${counterbalance_group},,sub-74
Desktop or Laptop,Windows 10,Chrome 138.0.0.0,2294x960,1835x650,Temporal Distance Task,cb_05,37.0,temp_dist_trial,dist_items,qkpkxw,2.0,continue,,1367.2999999284802,1350.7000000000114,1367.2999999284802,1367.2999999284802,1350.7000000000114,1367.2999999284802,1.0,0.0,0.0,,Click To Continue,Next button,7.0,object-60,temp_dist_trial,37.0,s_a_09_1,student_art,picture frame,5.0,unique,paired,s_a_09_1.jpg,Student,$${counterbalance_group},,sub-74
Desktop or Laptop,Windows 10,Chrome 138.0.0.0,2294x960,1835x650,Temporal Distance Task,cb_05,37.0,temp_dist_trial,dist_items,qkpkxw,2.0,response,73,533.6000000000058,1350.7000000000114,1367.4000000000233,533.6000000000058,1350.7000000000114,1367.4000000000233,1.0,833.8000000000177,0.0,,Slider,Slider,4.0,object-56,temp_dist_trial,37.0,s_a_09_1,student_art,picture frame,5.0,unique,paired,s_a_09_1.jpg,Student,$${counterbalance_group},,sub-74
Desktop or Laptop,Windows 10,Chrome 138.0.0.0,2294x960,1835x650,Temporal Distance Task,cb_05,38.0,temp_dist_trial,num_items,zn7si1,1.0,response,1_ITEM,1004.5999999284686,1000.5,1004.5999999284686,1004.5999999284686,1000.5,1004.5999999284686,1.0,0.0,0.0,,Click Response,1_count,3.0,object-46,temp_dist_trial,38.0,s_a_11_1,student_art,clapperboard,5.0,unique,single,s_a_11_1.jpg,Student,$${counterbalance_group},,sub-74
Desktop or Laptop,Windows 10,Chrome 138.0.0.0,2294x960,1835x650,Temporal Distance Task,cb_05,39.0,temp_dist_trial,num_items,zn7si1,1.0,response,2_ITEM,1613.5999999523044,1600.7999999999884,1613.5999999523044,1613.5999999523044,1600.7999999999884,1613.5999999523044,1.0,0.0,0.0,,Click Response,2_count,5.0,object-49,temp_dist_trial,39.0,s_sh_04_1,student_shared,laptop stand,5.0,competing,paired,s_sh_04_1.jpg,Student,$${counterbalance_group},,sub-74
Desktop or Laptop,Windows 10,Chrome 138.0.0.0,2294x960,1835x650,Temporal Distance Task,cb_05,39.0,temp_dist_trial,dist_items,qkpkxw,2.0,info,,2.1999999523104634,0.0,2.1999999523104634,2.1999999523104634,0.0,2.1999999523104634,1.0,0.0,0.0,,Slider,Slider,4.0,object-56,temp_dist_trial,39.0,s_sh_04_1,student_shared,laptop stand,5.0,competing,paired,s_sh_04_1.jpg,Student,$${counterbalance_group},,sub-74
Desktop or Laptop,Windows 10,Chrome 138.0.0.0,2294x960,1835x650,Temporal Distance Task,cb_05,39.0,temp_dist_trial,dist_items,qkpkxw,2.0,continue,,1354.0999999284684,1350.6999999999825,1354.0999999284684,1354.0999999284684,1350.6999999999825,1354.0999999284684,1.0,0.0,0.0,,Click To Continue,Next button,7.0,object-60,temp_dist_trial,39.0,s_sh_04_1,student_shared,laptop stand,5.0,competing,paired,s_sh_04_1.jpg,Student,$${counterbalance_group},,sub-74
Desktop or Laptop,Windows 10,Chrome 138.0.0.0,2294x960,1835x650,Temporal Distance Task,cb_05,39.0,temp_dist_trial,dist_items,qkpkxw,2.0,response,78,650.2999999999884,1350.6999999999825,1354.3999999999942,650.2999999999884,1350.6999999999825,1354.3999999999942,1.0,704.1000000000058,0.0,,Slider,Slider,4.0,object-56,temp_dist_trial,39.0,s_sh_04_1,student_shared,laptop stand,5.0,competing,paired,s_sh_04_1.jpg,Student,$${counterbalance_group},,sub-74
Desktop or Laptop,Windows 10,Chrome 138.0.0.0,2294x960,1835x650,Temporal Distance Task,cb_05,40.0,temp_dist_trial,num_items,zn7si1,1.0,response,num_miss,3001.4000000000237,3001.4000000000237,3001.4000000000237,3001.4000000000237,3001.4000000000237,3001.4000000000237,1.0,0.0,0.0,num_miss_tag,Time Limit,screen,0.0,screen,temp_dist_trial,40.0,s_sh_09_1,student_shared,paper clips,5.0,competing,paired,s_sh_09_1.jpg,Student,$${counterbalance_group},,sub-74
Desktop or Laptop,Windows 10,Chrome 138.0.0.0,2294x960,1835x650,Temporal Distance Task,cb_05,41.0,temp_dist_trial,num_items,zn7si1,1.0,response,1_ITEM,1782.6999999761465,1767.5,1782.6999999761465,1782.6999999761465,1767.5,1782.6999999761465,1.0,0.0,0.0,,Click Response,1_count,3.0,object-46,temp_dist_trial,41.0,s_sh_22_1,student_shared,hole puncher,5.0,competing,paired,s_sh_22_1.jpg,Student,$${counterbalance_group},,sub-74
Desktop or Laptop,Windows 10,Chrome 138.0.0.0,2294x960,1835x650,Temporal Distance Task,cb_05,42.0,temp_dist_trial,num_items,zn7si1,1.0,response,2_ITEM,1097.1000000000058,1083.8999999999942,1097.1000000000058,1097.1000000000058,1083.8999999999942,1097.1000000000058,1.0,0.0,0.0,,Click Response,2_count,5.0,object-49,temp_dist_trial,42.0,s_sh_01_1,student_shared,notebook,5.0,competing,paired,s_sh_01_1.jpg,Student,$${counterbalance_group},,sub-74
Desktop or Laptop,Windows 10,Chrome 138.0.0.0,2294x960,1835x650,Temporal Distance Task,cb_05,42.0,temp_dist_trial,dist_items,qkpkxw,2.0,info,,2.399999928486068,0.0,2.399999928486068,2.399999928486068,0.0,2.399999928486068,1.0,0.0,0.0,,Slider,Slider,4.0,object-56,temp_dist_trial,42.0,s_sh_01_1,student_shared,notebook,5.0,competing,paired,s_sh_01_1.jpg,Student,$${counterbalance_group},,sub-74
Desktop or Laptop,Windows 10,Chrome 138.0.0.0,2294x960,1835x650,Temporal Distance Task,cb_05,42.0,temp_dist_trial,dist_items,qkpkxw,2.0,continue,,1291.899999928486,1284.0,1291.899999928486,1291.899999928486,1284.0,1291.899999928486,1.0,0.0,0.0,,Click To Continue,Next button,7.0,object-60,temp_dist_trial,42.0,s_sh_01_1,student_shared,notebook,5.0,competing,paired,s_sh_01_1.jpg,Student,$${counterbalance_group},,sub-74
Desktop or Laptop,Windows 10,Chrome 138.0.0.0,2294x960,1835x650,Temporal Distance Task,cb_05,42.0,temp_dist_trial,dist_items,qkpkxw,2.0,response,73,567.0,1284.0,1292.2000000000114,567.0,1284.0,1292.2000000000114,1.0,725.2000000000116,0.0,,Slider,Slider,4.0,object-56,temp_dist_trial,42.0,s_sh_01_1,student_shared,notebook,5.0,competing,paired,s_sh_01_1.jpg,Student,$${counterbalance_group},,sub-74
Desktop or Laptop,Windows 10,Chrome 138.0.0.0,2294x960,1835x650,Temporal Distance Task,cb_05,43.0,temp_dist_trial,num_items,zn7si1,1.0,response,1_ITEM,1287.499999952328,1283.9000000000233,1287.499999952328,1287.499999952328,1283.9000000000233,1287.499999952328,1.0,0.0,0.0,,Click Response,1_count,3.0,object-46,temp_dist_trial,43.0,s_s_11_1,student_stem,scientific scale,5.0,unique,paired,s_s_11_1.jpg,Student,$${counterbalance_group},,sub-74
Desktop or Laptop,Windows 10,Chrome 138.0.0.0,2294x960,1835x650,Temporal Distance Task,cb_05,44.0,temp_dist_trial,num_items,zn7si1,1.0,response,2_ITEM,1259.999999976164,1250.6000000000058,1259.999999976164,1259.999999976164,1250.6000000000058,1259.999999976164,1.0,0.0,0.0,,Click Response,2_count,5.0,object-49,temp_dist_trial,44.0,s_sh_07_1,student_shared,ruler,5.0,competing,paired,s_sh_07_1.jpg,Student,$${counterbalance_group},,sub-74
Desktop or Laptop,Windows 10,Chrome 138.0.0.0,2294x960,1835x650,Temporal Distance Task,cb_05,44.0,temp_dist_trial,dist_items,qkpkxw,2.0,info,,4.5,0.0,4.5,4.5,0.0,4.5,1.0,0.0,0.0,,Slider,Slider,4.0,object-56,temp_dist_trial,44.0,s_sh_07_1,student_shared,ruler,5.0,competing,paired,s_sh_07_1.jpg,Student,$${counterbalance_group},,sub-74
Desktop or Laptop,Windows 10,Chrome 138.0.0.0,2294x960,1835x650,Temporal Distance Task,cb_05,44.0,temp_dist_trial,dist_items,qkpkxw,2.0,continue,,1421.5,1417.5,1421.5,1421.5,1417.5,1421.5,1.0,0.0,0.0,,Click To Continue,Next button,7.0,object-60,temp_dist_trial,44.0,s_sh_07_1,student_shared,ruler,5.0,competing,paired,s_sh_07_1.jpg,Student,$${counterbalance_group},,sub-74
Desktop or Laptop,Windows 10,Chrome 138.0.0.0,2294x960,1835x650,Temporal Distance Task,cb_05,44.0,temp_dist_trial,dist_items,qkpkxw,2.0,response,82,583.7999999999884,1417.5,1421.6999999284744,583.7999999999884,1417.5,1421.6999999284744,1.0,837.8999999284862,0.0,,Slider,Slider,4.0,object-56,temp_dist_trial,44.0,s_sh_07_1,student_shared,ruler,5.0,competing,paired,s_sh_07_1.jpg,Student,$${counterbalance_group},,sub-74
Desktop or Laptop,Windows 10,Chrome 138.0.0.0,2294x960,1835x650,Temporal Distance Task,cb_05,45.0,temp_dist_trial,num_items,zn7si1,1.0,response,1_ITEM,1686.0,1684.1000000000058,1686.0,1686.0,1684.1000000000058,1686.0,1.0,0.0,0.0,,Click Response,1_count,3.0,object-46,temp_dist_trial,45.0,s_a_04_1,student_art,easel,5.0,unique,single,s_a_04_1.jpg,Student,$${counterbalance_group},,sub-74
Desktop or Laptop,Windows 10,Chrome 138.0.0.0,2294x960,1835x650,Temporal Distance Task,cb_05,46.0,temp_dist_trial,num_items,zn7si1,1.0,response,1_ITEM,1237.7000000000114,1233.9000000000233,1237.7000000000114,1237.7000000000114,1233.9000000000233,1237.7000000000114,1.0,0.0,0.0,,Click Response,1_count,3.0,object-46,temp_dist_trial,46.0,s_s_06_1,student_stem,calculator,5.0,unique,paired,s_s_06_1.jpg,Student,$${counterbalance_group},,sub-74
Desktop or Laptop,Windows 10,Chrome 138.0.0.0,2294x960,1835x650,Temporal Distance Task,cb_05,47.0,temp_dist_trial,num_items,zn7si1,1.0,response,1_ITEM,2799.700000000012,2784.800000000017,2799.700000000012,2799.700000000012,2784.800000000017,2799.700000000012,1.0,0.0,0.0,,Click Response,1_count,3.0,object-46,temp_dist_trial,47.0,s_sh_12_1,student_shared,binder,5.0,competing,single,s_sh_12_1.jpg,Student,$${counterbalance_group},,sub-74
Desktop or Laptop,Windows 10,Chrome 138.0.0.0,2294x960,1835x650,Temporal Distance Task,cb_05,48.0,temp_dist_trial,num_items,zn7si1,1.0,response,2_ITEM,2066.6999999523105,2051.0,2066.6999999523105,2066.6999999523105,2051.0,2066.6999999523105,1.0,0.0,0.0,,Click Response,2_count,5.0,object-49,temp_dist_trial,48.0,s_sh_18_1,student_shared,wall calendar,5.0,competing,paired,s_sh_18_1.jpg,Student,$${counterbalance_group},,sub-74
Desktop or Laptop,Windows 10,Chrome 138.0.0.0,2294x960,1835x650,Temporal Distance Task,cb_05,48.0,temp_dist_trial,dist_items,qkpkxw,2.0,info,,2.3000000238534994,0.0,2.3000000238534994,2.3000000238534994,0.0,2.3000000238534994,1.0,0.0,0.0,,Slider,Slider,4.0,object-56,temp_dist_trial,48.0,s_sh_18_1,student_shared,wall calendar,5.0,competing,paired,s_sh_18_1.jpg,Student,$${counterbalance_group},,sub-74
Desktop or Laptop,Windows 10,Chrome 138.0.0.0,2294x960,1835x650,Temporal Distance Task,cb_05,48.0,temp_dist_trial,dist_items,qkpkxw,2.0,continue,,1543.8000000238535,1534.0,1543.8000000238535,1543.8000000238535,1534.0,1543.8000000238535,1.0,0.0,0.0,,Click To Continue,Next button,7.0,object-60,temp_dist_trial,48.0,s_sh_18_1,student_shared,wall calendar,5.0,competing,paired,s_sh_18_1.jpg,Student,$${counterbalance_group},,sub-74
Desktop or Laptop,Windows 10,Chrome 138.0.0.0,2294x960,1835x650,Temporal Distance Task,cb_05,48.0,temp_dist_trial,dist_items,qkpkxw,2.0,response,85,800.4000000000232,1534.0,1543.999999952328,800.4000000000232,1534.0,1543.999999952328,1.0,743.5999999523046,0.0,,Slider,Slider,4.0,object-56,temp_dist_trial,48.0,s_sh_18_1,student_shared,wall calendar,5.0,competing,paired,s_sh_18_1.jpg,Student,$${counterbalance_group},,sub-74
Desktop or Laptop,Windows 10,Chrome 138.0.0.0,2294x960,1835x650,Temporal Distance Task,cb_05,2.0,temp_eventStart,Screen 1,dgtyxe,1.0,continue,,1545.0999999761698,1534.2000000000116,1545.0999999761698,1545.0999999761698,1534.2000000000116,1545.0999999761698,1.0,0.0,0.0,,Click To Continue,Next Button,3.0,object-43,temp_eventStart,,,Travel,,,,,,,$${counterbalance_group},,sub-74
Desktop or Laptop,Windows 10,Chrome 138.0.0.0,2294x960,1835x650,Temporal Distance Task,cb_05,49.0,temp_dist_trial,num_items,zn7si1,1.0,response,1_ITEM,2086.0,2084.2999999999884,2086.0,2086.0,2084.2999999999884,2086.0,1.0,0.0,0.0,,Click Response,1_count,3.0,object-46,temp_dist_trial,1.0,t_m_20_1,travel_Miami,inflatable beachball,5.0,unique,paired,t_m_20_1.jpg,Travel,$${counterbalance_group},,sub-74
Desktop or Laptop,Windows 10,Chrome 138.0.0.0,2294x960,1835x650,Temporal Distance Task,cb_05,50.0,temp_dist_trial,num_items,zn7si1,1.0,response,1_ITEM,914.8999999523219,900.5,914.8999999523219,914.8999999523219,900.5,914.8999999523219,1.0,0.0,0.0,,Click Response,1_count,3.0,object-46,temp_dist_trial,2.0,t_i_13_1,travel_Iceland,sleeping bag,5.0,unique,single,t_i_13_1.jpg,Travel,$${counterbalance_group},,sub-74
Desktop or Laptop,Windows 10,Chrome 138.0.0.0,2294x960,1835x650,Temporal Distance Task,cb_05,51.0,temp_dist_trial,num_items,zn7si1,1.0,response,1_ITEM,1603.2000000238475,1600.8999999999942,1603.2000000238475,1603.2000000238475,1600.8999999999942,1603.2000000238475,1.0,0.0,0.0,,Click Response,1_count,3.0,object-46,temp_dist_trial,3.0,t_s_05_1,travel_shared,neck pillow,5.0,competing,paired,t_s_05_1.jpg,Travel,$${counterbalance_group},,sub-74
Desktop or Laptop,Windows 10,Chrome 138.0.0.0,2294x960,1835x650,Temporal Distance Task,cb_05,52.0,temp_dist_trial,num_items,zn7si1,1.0,response,1_ITEM,1836.899999952322,1834.2000000000119,1836.899999952322,1836.899999952322,1834.2000000000119,1836.899999952322,1.0,0.0,0.0,,Click Response,1_count,3.0,object-46,temp_dist_trial,4.0,t_s_07_1,travel_shared,phone charger cable,5.0,competing,paired,t_s_07_1.jpg,Travel,$${counterbalance_group},,sub-74
Desktop or Laptop,Windows 10,Chrome 138.0.0.0,2294x960,1835x650,Temporal Distance Task,cb_05,53.0,temp_dist_trial,num_items,zn7si1,1.0,response,2_ITEM,1166.4999999284628,1150.5999999999767,1166.4999999284628,1166.4999999284628,1150.5999999999767,1166.4999999284628,1.0,0.0,0.0,,Click Response,2_count,5.0,object-49,temp_dist_trial,5.0,t_i_03_1,travel_Iceland,winter jacket,5.0,unique,paired,t_i_03_1.jpg,Travel,$${counterbalance_group},,sub-74
Desktop or Laptop,Windows 10,Chrome 138.0.0.0,2294x960,1835x650,Temporal Distance Task,cb_05,53.0,temp_dist_trial,dist_items,qkpkxw,2.0,info,,2.6000000000058208,0.0,2.6000000000058208,2.6000000000058208,0.0,2.6000000000058208,1.0,0.0,0.0,,Slider,Slider,4.0,object-56,temp_dist_trial,5.0,t_i_03_1,travel_Iceland,winter jacket,5.0,unique,paired,t_i_03_1.jpg,Travel,$${counterbalance_group},,sub-74
Desktop or Laptop,Windows 10,Chrome 138.0.0.0,2294x960,1835x650,Temporal Distance Task,cb_05,53.0,temp_dist_trial,dist_items,qkpkxw,2.0,continue,,3191.6000000000067,3184.8999999999933,3191.6000000000067,3191.6000000000067,3184.8999999999933,3191.6000000000067,1.0,0.0,0.0,,Click To Continue,Next button,7.0,object-60,temp_dist_trial,5.0,t_i_03_1,travel_Iceland,winter jacket,5.0,unique,paired,t_i_03_1.jpg,Travel,$${counterbalance_group},,sub-74
Desktop or Laptop,Windows 10,Chrome 138.0.0.0,2294x960,1835x650,Temporal Distance Task,cb_05,53.0,temp_dist_trial,dist_items,qkpkxw,2.0,response,82,867.1000000000058,3184.8999999999933,3193.1000000000067,867.1000000000058,3184.8999999999933,3193.1000000000067,1.0,2326.0,0.0,,Slider,Slider,4.0,object-56,temp_dist_trial,5.0,t_i_03_1,travel_Iceland,winter jacket,5.0,unique,paired,t_i_03_1.jpg,Travel,$${counterbalance_group},,sub-74
Desktop or Laptop,Windows 10,Chrome 138.0.0.0,2294x960,1835x650,Temporal Distance Task,cb_05,54.0,temp_dist_trial,num_items,zn7si1,1.0,response,1_ITEM,1310.3000000238535,1300.6000000000058,1310.3000000238535,1310.3000000238535,1300.6000000000058,1310.3000000238535,1.0,0.0,0.0,,Click Response,1_count,3.0,object-46,temp_dist_trial,6.0,t_m_10_1,travel_Miami,tanktop,5.0,unique,paired,t_m_10_1.jpg,Travel,$${counterbalance_group},,sub-74
Desktop or Laptop,Windows 10,Chrome 138.0.0.0,2294x960,1835x650,Temporal Distance Task,cb_05,55.0,temp_dist_trial,num_items,zn7si1,1.0,response,2_ITEM,1071.5,1067.2999999999884,1071.5,1071.5,1067.2999999999884,1071.5,1.0,0.0,0.0,,Click Response,2_count,5.0,object-49,temp_dist_trial,7.0,t_s_01_1,travel_shared,fanny pack,5.0,competing,paired,t_s_01_1.jpg,Travel,$${counterbalance_group},,sub-74
Desktop or Laptop,Windows 10,Chrome 138.0.0.0,2294x960,1835x650,Temporal Distance Task,cb_05,55.0,temp_dist_trial,dist_items,qkpkxw,2.0,info,,2.2000000238476787,0.0,2.2000000238476787,2.2000000238476787,0.0,2.2000000238476787,1.0,0.0,0.0,,Slider,Slider,4.0,object-56,temp_dist_trial,7.0,t_s_01_1,travel_shared,fanny pack,5.0,competing,paired,t_s_01_1.jpg,Travel,$${counterbalance_group},,sub-74
Desktop or Laptop,Windows 10,Chrome 138.0.0.0,2294x960,1835x650,Temporal Distance Task,cb_05,55.0,temp_dist_trial,dist_items,qkpkxw,2.0,continue,,1223.8999999523219,1217.2000000000114,1223.8999999523219,1223.8999999523219,1217.2000000000114,1223.8999999523219,1.0,0.0,0.0,,Click To Continue,Next button,7.0,object-60,temp_dist_trial,7.0,t_s_01_1,travel_shared,fanny pack,5.0,competing,paired,t_s_01_1.jpg,Travel,$${counterbalance_group},,sub-74
Desktop or Laptop,Windows 10,Chrome 138.0.0.0,2294x960,1835x650,Temporal Distance Task,cb_05,55.0,temp_dist_trial,dist_items,qkpkxw,2.0,response,68,583.6000000000057,1217.2000000000114,1224.1000000000058,583.6000000000057,1217.2000000000114,1224.1000000000058,1.0,640.5,0.0,,Slider,Slider,4.0,object-56,temp_dist_trial,7.0,t_s_01_1,travel_shared,fanny pack,5.0,competing,paired,t_s_01_1.jpg,Travel,$${counterbalance_group},,sub-74
Desktop or Laptop,Windows 10,Chrome 138.0.0.0,2294x960,1835x650,Temporal Distance Task,cb_05,56.0,temp_dist_trial,num_items,zn7si1,1.0,response,1_ITEM,1717.3999999999942,1700.8999999999942,1717.3999999999942,1717.3999999999942,1700.8999999999942,1717.3999999999942,1.0,0.0,0.0,,Click Response,1_count,3.0,object-46,temp_dist_trial,8.0,t_i_02_1,travel_Iceland,scarf,5.0,unique,paired,t_i_02_1.jpg,Travel,$${counterbalance_group},,sub-74
Desktop or Laptop,Windows 10,Chrome 138.0.0.0,2294x960,1835x650,Temporal Distance Task,cb_05,57.0,temp_dist_trial,num_items,zn7si1,1.0,response,1_ITEM,1997.5999999284686,1984.2999999999884,1997.5999999284686,1997.5999999284686,1984.2999999999884,1997.5999999284686,1.0,0.0,0.0,,Click Response,1_count,3.0,object-46,temp_dist_trial,9.0,t_m_12_1,travel_Miami,foldable pail and shovel,5.0,unique,single,t_m_12_1.jpg,Travel,$${counterbalance_group},,sub-74
Desktop or Laptop,Windows 10,Chrome 138.0.0.0,2294x960,1835x650,Temporal Distance Task,cb_05,58.0,temp_dist_trial,num_items,zn7si1,1.0,response,2_ITEM,1173.5,1167.2000000000114,1173.5,1173.5,1167.2000000000114,1173.5,1.0,0.0,0.0,,Click Response,2_count,5.0,object-49,temp_dist_trial,10.0,t_s_19_1,travel_shared,pajamas,5.0,competing,paired,t_s_19_1.jpg,Travel,$${counterbalance_group},,sub-74
Desktop or Laptop,Windows 10,Chrome 138.0.0.0,2294x960,1835x650,Temporal Distance Task,cb_05,58.0,temp_dist_trial,dist_items,qkpkxw,2.0,info,,2.499999976163963,0.0,2.499999976163963,2.499999976163963,0.0,2.499999976163963,1.0,0.0,0.0,,Slider,Slider,4.0,object-56,temp_dist_trial,10.0,t_s_19_1,travel_shared,pajamas,5.0,competing,paired,t_s_19_1.jpg,Travel,$${counterbalance_group},,sub-74
Desktop or Laptop,Windows 10,Chrome 138.0.0.0,2294x960,1835x650,Temporal Distance Task,cb_05,58.0,temp_dist_trial,dist_items,qkpkxw,2.0,continue,,1261.6000000000058,1250.6000000000058,1261.6000000000058,1261.6000000000058,1250.6000000000058,1261.6000000000058,1.0,0.0,0.0,,Click To Continue,Next button,7.0,object-60,temp_dist_trial,10.0,t_s_19_1,travel_shared,pajamas,5.0,competing,paired,t_s_19_1.jpg,Travel,$${counterbalance_group},,sub-74
Desktop or Laptop,Windows 10,Chrome 138.0.0.0,2294x960,1835x650,Temporal Distance Task,cb_05,58.0,temp_dist_trial,dist_items,qkpkxw,2.0,response,68,583.7000000000116,1250.6000000000058,1264.2000000238475,583.7000000000116,1250.6000000000058,1264.2000000238475,1.0,680.500000023836,0.0,,Slider,Slider,4.0,object-56,temp_dist_trial,10.0,t_s_19_1,travel_shared,pajamas,5.0,competing,paired,t_s_19_1.jpg,Travel,$${counterbalance_group},,sub-74
Desktop or Laptop,Windows 10,Chrome 138.0.0.0,2294x960,1835x650,Temporal Distance Task,cb_05,59.0,temp_dist_trial,num_items,zn7si1,1.0,response,2_ITEM,1152.100000023842,1150.6000000000058,1152.100000023842,1152.100000023842,1150.6000000000058,1152.100000023842,1.0,0.0,0.0,,Click Response,2_count,5.0,object-49,temp_dist_trial,11.0,t_s_12_1,travel_shared,clear toiletry bag,5.0,competing,single,t_s_12_1.jpg,Travel,$${counterbalance_group},,sub-74
Desktop or Laptop,Windows 10,Chrome 138.0.0.0,2294x960,1835x650,Temporal Distance Task,cb_05,59.0,temp_dist_trial,dist_items,qkpkxw,2.0,info,,3.2999999761523213,0.0,3.2999999761523213,3.2999999761523213,0.0,3.2999999761523213,1.0,0.0,0.0,,Slider,Slider,4.0,object-56,temp_dist_trial,11.0,t_s_12_1,travel_shared,clear toiletry bag,5.0,competing,single,t_s_12_1.jpg,Travel,$${counterbalance_group},,sub-74
Desktop or Laptop,Windows 10,Chrome 138.0.0.0,2294x960,1835x650,Temporal Distance Task,cb_05,59.0,temp_dist_trial,dist_items,qkpkxw,2.0,continue,,1051.2999999761523,1050.6000000000058,1051.2999999761523,1051.2999999761523,1050.6000000000058,1051.2999999761523,1.0,0.0,0.0,,Click To Continue,Next button,7.0,object-60,temp_dist_trial,11.0,t_s_12_1,travel_shared,clear toiletry bag,5.0,competing,single,t_s_12_1.jpg,Travel,$${counterbalance_group},,sub-74
Desktop or Laptop,Windows 10,Chrome 138.0.0.0,2294x960,1835x650,Temporal Distance Task,cb_05,59.0,temp_dist_trial,dist_items,qkpkxw,2.0,response,79,400.2999999999884,1050.6000000000058,1051.3999999999942,400.2999999999884,1050.6000000000058,1051.3999999999942,1.0,651.1000000000057,0.0,,Slider,Slider,4.0,object-56,temp_dist_trial,11.0,t_s_12_1,travel_shared,clear toiletry bag,5.0,competing,single,t_s_12_1.jpg,Travel,$${counterbalance_group},,sub-74
Desktop or Laptop,Windows 10,Chrome 138.0.0.0,2294x960,1835x650,Temporal Distance Task,cb_05,60.0,temp_dist_trial,num_items,zn7si1,1.0,response,1_ITEM,1399.9999999284628,1384.0,1399.9999999284628,1399.9999999284628,1384.0,1399.9999999284628,1.0,0.0,0.0,,Click Response,1_count,3.0,object-46,temp_dist_trial,12.0,t_s_20_1,travel_shared,travel pill case,5.0,competing,paired,t_s_20_1.jpg,Travel,$${counterbalance_group},,sub-74
Desktop or Laptop,Windows 10,Chrome 138.0.0.0,2294x960,1835x650,Temporal Distance Task,cb_05,61.0,temp_dist_trial,num_items,zn7si1,1.0,response,1_ITEM,2849.7999999284802,2834.700000000012,2849.7999999284802,2849.7999999284802,2834.700000000012,2849.7999999284802,1.0,0.0,0.0,,Click Response,1_count,3.0,object-46,temp_dist_trial,13.0,t_s_21_1,travel_shared,umbrella,5.0,competing,single,t_s_21_1.jpg,Travel,$${counterbalance_group},,sub-74
Desktop or Laptop,Windows 10,Chrome 138.0.0.0,2294x960,1835x650,Temporal Distance Task,cb_05,62.0,temp_dist_trial,num_items,zn7si1,1.0,response,2_ITEM,1011.9999999284627,1000.5,1011.9999999284627,1011.9999999284627,1000.5,1011.9999999284627,1.0,0.0,0.0,,Click Response,2_count,5.0,object-49,temp_dist_trial,14.0,t_m_04_1,travel_Miami,UV jacket,5.0,unique,paired,t_m_04_1.jpg,Travel,$${counterbalance_group},,sub-74
Desktop or Laptop,Windows 10,Chrome 138.0.0.0,2294x960,1835x650,Temporal Distance Task,cb_05,62.0,temp_dist_trial,dist_items,qkpkxw,2.0,info,,2.200000000011641,0.0,2.200000000011641,2.200000000011641,0.0,2.200000000011641,1.0,0.0,0.0,,Slider,Slider,4.0,object-56,temp_dist_trial,14.0,t_m_04_1,travel_Miami,UV jacket,5.0,unique,paired,t_m_04_1.jpg,Travel,$${counterbalance_group},,sub-74
Desktop or Laptop,Windows 10,Chrome 138.0.0.0,2294x960,1835x650,Temporal Distance Task,cb_05,62.0,temp_dist_trial,dist_items,qkpkxw,2.0,continue,,1383.899999928486,1367.4000000000233,1383.899999928486,1383.899999928486,1367.4000000000233,1383.899999928486,1.0,0.0,0.0,,Click To Continue,Next button,7.0,object-60,temp_dist_trial,14.0,t_m_04_1,travel_Miami,UV jacket,5.0,unique,paired,t_m_04_1.jpg,Travel,$${counterbalance_group},,sub-74
Desktop or Laptop,Windows 10,Chrome 138.0.0.0,2294x960,1835x650,Temporal Distance Task,cb_05,62.0,temp_dist_trial,dist_items,qkpkxw,2.0,response,67,683.7000000000116,1367.4000000000233,1384.1000000000354,683.7000000000116,1367.4000000000233,1384.1000000000354,1.0,700.4000000000232,0.0,,Slider,Slider,4.0,object-56,temp_dist_trial,14.0,t_m_04_1,travel_Miami,UV jacket,5.0,unique,paired,t_m_04_1.jpg,Travel,$${counterbalance_group},,sub-74
Desktop or Laptop,Windows 10,Chrome 138.0.0.0,2294x960,1835x650,Temporal Distance Task,cb_05,63.0,temp_dist_trial,num_items,zn7si1,1.0,response,1_ITEM,1498.7999999999884,1484.0,1498.7999999999884,1498.7999999999884,1484.0,1498.7999999999884,1.0,0.0,0.0,,Click Response,1_count,3.0,object-46,temp_dist_trial,15.0,t_m_14_1,travel_Miami,swim goggles,5.0,unique,paired,t_m_14_1.jpg,Travel,$${counterbalance_group},,sub-74
Desktop or Laptop,Windows 10,Chrome 138.0.0.0,2294x960,1835x650,Temporal Distance Task,cb_05,64.0,temp_dist_trial,num_items,zn7si1,1.0,response,2_ITEM,1085.2000000000116,1083.9000000000233,1085.2000000000116,1085.2000000000116,1083.9000000000233,1085.2000000000116,1.0,0.0,0.0,,Click Response,2_count,5.0,object-49,temp_dist_trial,16.0,t_i_17_1,travel_Iceland,binoculars,5.0,unique,paired,t_i_17_1.jpg,Travel,$${counterbalance_group},,sub-74
Desktop or Laptop,Windows 10,Chrome 138.0.0.0,2294x960,1835x650,Temporal Distance Task,cb_05,64.0,temp_dist_trial,dist_items,qkpkxw,2.0,info,,2.8000000238534994,0.0,2.8000000238534994,2.8000000238534994,0.0,2.8000000238534994,1.0,0.0,0.0,,Slider,Slider,4.0,object-56,temp_dist_trial,16.0,t_i_17_1,travel_Iceland,binoculars,5.0,unique,paired,t_i_17_1.jpg,Travel,$${counterbalance_group},,sub-74
Desktop or Laptop,Windows 10,Chrome 138.0.0.0,2294x960,1835x650,Temporal Distance Task,cb_05,64.0,temp_dist_trial,dist_items,qkpkxw,2.0,continue,,1713.499999952328,1700.8000000000175,1713.499999952328,1713.499999952328,1700.8000000000175,1713.499999952328,1.0,0.0,0.0,,Click To Continue,Next button,7.0,object-60,temp_dist_trial,16.0,t_i_17_1,travel_Iceland,binoculars,5.0,unique,paired,t_i_17_1.jpg,Travel,$${counterbalance_group},,sub-74
Desktop or Laptop,Windows 10,Chrome 138.0.0.0,2294x960,1835x650,Temporal Distance Task,cb_05,64.0,temp_dist_trial,dist_items,qkpkxw,2.0,response,67,533.7000000000116,1700.8000000000175,1713.5999999761698,533.7000000000116,1700.8000000000175,1713.5999999761698,1.0,1179.899999976158,0.0,,Slider,Slider,4.0,object-56,temp_dist_trial,16.0,t_i_17_1,travel_Iceland,binoculars,5.0,unique,paired,t_i_17_1.jpg,Travel,$${counterbalance_group},,sub-74
Desktop or Laptop,Windows 10,Chrome 138.0.0.0,2294x960,1835x650,Temporal Distance Task,cb_05,65.0,temp_dist_trial,num_items,zn7si1,1.0,response,1_ITEM,1672.7999999761525,1667.5,1672.7999999761525,1672.7999999761525,1667.5,1672.7999999761525,1.0,0.0,0.0,,Click Response,1_count,3.0,object-46,temp_dist_trial,17.0,t_s_18_1,travel_shared,first aid kit,5.0,competing,paired,t_s_18_1.jpg,Travel,$${counterbalance_group},,sub-74
Desktop or Laptop,Windows 10,Chrome 138.0.0.0,2294x960,1835x650,Temporal Distance Task,cb_05,66.0,temp_dist_trial,num_items,zn7si1,1.0,response,2_ITEM,1229.7999999999886,1217.2999999999886,1229.7999999999886,1229.7999999999886,1217.2999999999886,1229.7999999999886,1.0,0.0,0.0,,Click Response,2_count,5.0,object-49,temp_dist_trial,18.0,t_i_11_1,travel_Iceland,headlamp,5.0,unique,paired,t_i_11_1.jpg,Travel,$${counterbalance_group},,sub-74
Desktop or Laptop,Windows 10,Chrome 138.0.0.0,2294x960,1835x650,Temporal Distance Task,cb_05,66.0,temp_dist_trial,dist_items,qkpkxw,2.0,info,,2.399999976158142,0.0,2.399999976158142,2.399999976158142,0.0,2.399999976158142,1.0,0.0,0.0,,Slider,Slider,4.0,object-56,temp_dist_trial,18.0,t_i_11_1,travel_Iceland,headlamp,5.0,unique,paired,t_i_11_1.jpg,Travel,$${counterbalance_group},,sub-74
Desktop or Laptop,Windows 10,Chrome 138.0.0.0,2294x960,1835x650,Temporal Distance Task,cb_05,66.0,temp_dist_trial,dist_items,qkpkxw,2.0,continue,,1069.899999976158,1067.3999999999942,1069.899999976158,1069.899999976158,1067.3999999999942,1069.899999976158,1.0,0.0,0.0,,Click To Continue,Next button,7.0,object-60,temp_dist_trial,18.0,t_i_11_1,travel_Iceland,headlamp,5.0,unique,paired,t_i_11_1.jpg,Travel,$${counterbalance_group},,sub-74
Desktop or Laptop,Windows 10,Chrome 138.0.0.0,2294x960,1835x650,Temporal Distance Task,cb_05,66.0,temp_dist_trial,dist_items,qkpkxw,2.0,response,73,367.0,1067.3999999999942,1070.100000023842,367.0,1067.3999999999942,1070.100000023842,1.0,703.1000000238419,0.0,,Slider,Slider,4.0,object-56,temp_dist_trial,18.0,t_i_11_1,travel_Iceland,headlamp,5.0,unique,paired,t_i_11_1.jpg,Travel,$${counterbalance_group},,sub-74
Desktop or Laptop,Windows 10,Chrome 138.0.0.0,2294x960,1835x650,Temporal Distance Task,cb_05,67.0,temp_dist_trial,num_items,zn7si1,1.0,response,2_ITEM,1392.7000000238475,1384.0,1392.7000000238475,1392.7000000238475,1384.0,1392.7000000238475,1.0,0.0,0.0,,Click Response,2_count,5.0,object-49,temp_dist_trial,19.0,t_s_04_1,travel_shared,instant camera,5.0,competing,paired,t_s_04_1.jpg,Travel,$${counterbalance_group},,sub-74
Desktop or Laptop,Windows 10,Chrome 138.0.0.0,2294x960,1835x650,Temporal Distance Task,cb_05,67.0,temp_dist_trial,dist_items,qkpkxw,2.0,info,,2.499999976163963,0.0,2.499999976163963,2.499999976163963,0.0,2.499999976163963,1.0,0.0,0.0,,Slider,Slider,4.0,object-56,temp_dist_trial,19.0,t_s_04_1,travel_shared,instant camera,5.0,competing,paired,t_s_04_1.jpg,Travel,$${counterbalance_group},,sub-74
Desktop or Laptop,Windows 10,Chrome 138.0.0.0,2294x960,1835x650,Temporal Distance Task,cb_05,67.0,temp_dist_trial,dist_items,qkpkxw,2.0,continue,,1229.3999999523219,1217.3000000000175,1229.3999999523219,1229.3999999523219,1217.3000000000175,1229.3999999523219,1.0,0.0,0.0,,Click To Continue,Next button,7.0,object-60,temp_dist_trial,19.0,t_s_04_1,travel_shared,instant camera,5.0,competing,paired,t_s_04_1.jpg,Travel,$${counterbalance_group},,sub-74
Desktop or Laptop,Windows 10,Chrome 138.0.0.0,2294x960,1835x650,Temporal Distance Task,cb_05,67.0,temp_dist_trial,dist_items,qkpkxw,2.0,response,67,483.6000000000058,1217.3000000000175,1232.3999999523219,483.6000000000058,1217.3000000000175,1232.3999999523219,1.0,748.7999999523163,0.0,,Slider,Slider,4.0,object-56,temp_dist_trial,19.0,t_s_04_1,travel_shared,instant camera,5.0,competing,paired,t_s_04_1.jpg,Travel,$${counterbalance_group},,sub-74
Desktop or Laptop,Windows 10,Chrome 138.0.0.0,2294x960,1835x650,Temporal Distance Task,cb_05,68.0,temp_dist_trial,num_items,zn7si1,1.0,response,1_ITEM,1452.0999999523044,1450.7999999999884,1452.0999999523044,1452.0999999523044,1450.7999999999884,1452.0999999523044,1.0,0.0,0.0,,Click Response,1_count,3.0,object-46,temp_dist_trial,20.0,t_i_12_1,travel_Iceland,tent,5.0,unique,paired,t_i_12_1.jpg,Travel,$${counterbalance_group},,sub-74
Desktop or Laptop,Windows 10,Chrome 138.0.0.0,2294x960,1835x650,Temporal Distance Task,cb_05,69.0,temp_dist_trial,num_items,zn7si1,1.0,response,1_ITEM,1618.1999999284744,1617.5,1618.1999999284744,1618.1999999284744,1617.5,1618.1999999284744,1.0,0.0,0.0,,Click Response,1_count,3.0,object-46,temp_dist_trial,21.0,t_i_07_1,travel_Iceland,hiking backpack,5.0,unique,paired,t_i_07_1.jpg,Travel,$${counterbalance_group},,sub-74
Desktop or Laptop,Windows 10,Chrome 138.0.0.0,2294x960,1835x650,Temporal Distance Task,cb_05,70.0,temp_dist_trial,num_items,zn7si1,1.0,response,2_ITEM,1097.399999976158,1084.0,1097.399999976158,1097.399999976158,1084.0,1097.399999976158,1.0,0.0,0.0,,Click Response,2_count,5.0,object-49,temp_dist_trial,22.0,t_m_05_1,travel_Miami,sunscreen,5.0,unique,paired,t_m_05_1.jpg,Travel,$${counterbalance_group},,sub-74
Desktop or Laptop,Windows 10,Chrome 138.0.0.0,2294x960,1835x650,Temporal Distance Task,cb_05,70.0,temp_dist_trial,dist_items,qkpkxw,2.0,info,,2.599999952304642,0.0,2.599999952304642,2.599999952304642,0.0,2.599999952304642,1.0,0.0,0.0,,Slider,Slider,4.0,object-56,temp_dist_trial,22.0,t_m_05_1,travel_Miami,sunscreen,5.0,unique,paired,t_m_05_1.jpg,Travel,$${counterbalance_group},,sub-74
Desktop or Laptop,Windows 10,Chrome 138.0.0.0,2294x960,1835x650,Temporal Distance Task,cb_05,70.0,temp_dist_trial,dist_items,qkpkxw,2.0,continue,,1312.4000000238302,1300.5,1312.4000000238302,1312.4000000238302,1300.5,1312.4000000238302,1.0,0.0,0.0,,Click To Continue,Next button,7.0,object-60,temp_dist_trial,22.0,t_m_05_1,travel_Miami,sunscreen,5.0,unique,paired,t_m_05_1.jpg,Travel,$${counterbalance_group},,sub-74
Desktop or Laptop,Windows 10,Chrome 138.0.0.0,2294x960,1835x650,Temporal Distance Task,cb_05,70.0,temp_dist_trial,dist_items,qkpkxw,2.0,response,78,600.2999999999884,1300.5,1312.4999999284628,600.2999999999884,1300.5,1312.4999999284628,1.0,712.1999999284744,0.0,,Slider,Slider,4.0,object-56,temp_dist_trial,22.0,t_m_05_1,travel_Miami,sunscreen,5.0,unique,paired,t_m_05_1.jpg,Travel,$${counterbalance_group},,sub-74
Desktop or Laptop,Windows 10,Chrome 138.0.0.0,2294x960,1835x650,Temporal Distance Task,cb_05,71.0,temp_dist_trial,num_items,zn7si1,1.0,response,2_ITEM,1399.9000000238302,1384.0,1399.9000000238302,1399.9000000238302,1384.0,1399.9000000238302,1.0,0.0,0.0,,Click Response,2_count,5.0,object-49,temp_dist_trial,23.0,t_i_01_1,travel_Iceland,gloves,5.0,unique,paired,t_i_01_1.jpg,Travel,$${counterbalance_group},,sub-74
Desktop or Laptop,Windows 10,Chrome 138.0.0.0,2294x960,1835x650,Temporal Distance Task,cb_05,71.0,temp_dist_trial,dist_items,qkpkxw,2.0,info,,2.2000000238476787,0.0,2.2000000238476787,2.2000000238476787,0.0,2.2000000238476787,1.0,0.0,0.0,,Slider,Slider,4.0,object-56,temp_dist_trial,23.0,t_i_01_1,travel_Iceland,gloves,5.0,unique,paired,t_i_01_1.jpg,Travel,$${counterbalance_group},,sub-74
Desktop or Laptop,Windows 10,Chrome 138.0.0.0,2294x960,1835x650,Temporal Distance Task,cb_05,71.0,temp_dist_trial,dist_items,qkpkxw,2.0,continue,,1502.2000000238475,1500.8000000000175,1502.2000000238475,1502.2000000238475,1500.8000000000175,1502.2000000238475,1.0,0.0,0.0,,Click To Continue,Next button,7.0,object-60,temp_dist_trial,23.0,t_i_01_1,travel_Iceland,gloves,5.0,unique,paired,t_i_01_1.jpg,Travel,$${counterbalance_group},,sub-74
Desktop or Laptop,Windows 10,Chrome 138.0.0.0,2294x960,1835x650,Temporal Distance Task,cb_05,71.0,temp_dist_trial,dist_items,qkpkxw,2.0,response,61,583.6000000000057,1500.8000000000175,1502.399999952322,583.6000000000057,1500.8000000000175,1502.399999952322,1.0,918.7999999523164,0.0,,Slider,Slider,4.0,object-56,temp_dist_trial,23.0,t_i_01_1,travel_Iceland,gloves,5.0,unique,paired,t_i_01_1.jpg,Travel,$${counterbalance_group},,sub-74
Desktop or Laptop,Windows 10,Chrome 138.0.0.0,2294x960,1835x650,Temporal Distance Task,cb_05,72.0,temp_dist_trial,num_items,zn7si1,1.0,response,1_ITEM,1159.0999999523046,1150.5,1159.0999999523046,1159.0999999523046,1150.5,1159.0999999523046,1.0,0.0,0.0,,Click Response,1_count,3.0,object-46,temp_dist_trial,24.0,t_m_17_1,travel_Miami,water gun,5.0,unique,single,t_m_17_1.jpg,Travel,$${counterbalance_group},,sub-74
Desktop or Laptop,Windows 10,Chrome 138.0.0.0,2294x960,1835x650,Temporal Distance Task,cb_05,73.0,temp_dist_trial,num_items,zn7si1,1.0,response,1_ITEM,1344.399999928486,1334.1000000000058,1344.399999928486,1344.399999928486,1334.1000000000058,1344.399999928486,1.0,0.0,0.0,,Click Response,1_count,3.0,object-46,temp_dist_trial,25.0,t_s_03_1,travel_shared,portable charger,5.0,competing,single,t_s_03_1.jpg,Travel,$${counterbalance_group},,sub-74
Desktop or Laptop,Windows 10,Chrome 138.0.0.0,2294x960,1835x650,Temporal Distance Task,cb_05,74.0,temp_dist_trial,num_items,zn7si1,1.0,response,1_ITEM,1840.499999976164,1834.2000000000119,1840.499999976164,1840.499999976164,1834.2000000000119,1840.499999976164,1.0,0.0,0.0,,Click Response,1_count,3.0,object-46,temp_dist_trial,26.0,t_i_06_1,travel_Iceland,knit hat,5.0,unique,paired,t_i_06_1.jpg,Travel,$${counterbalance_group},,sub-74
Desktop or Laptop,Windows 10,Chrome 138.0.0.0,2294x960,1835x650,Temporal Distance Task,cb_05,75.0,temp_dist_trial,num_items,zn7si1,1.0,response,2_ITEM,1400.7999999999884,1384.0,1400.7999999999884,1400.7999999999884,1384.0,1400.7999999999884,1.0,0.0,0.0,,Click Response,2_count,5.0,object-49,temp_dist_trial,27.0,t_m_01_1,travel_Miami,sandals,5.0,unique,single,t_m_01_1.jpg,Travel,$${counterbalance_group},,sub-74
Desktop or Laptop,Windows 10,Chrome 138.0.0.0,2294x960,1835x650,Temporal Distance Task,cb_05,75.0,temp_dist_trial,dist_items,qkpkxw,2.0,info,,2.6000000000058208,0.0,2.6000000000058208,2.6000000000058208,0.0,2.6000000000058208,1.0,0.0,0.0,,Slider,Slider,4.0,object-56,temp_dist_trial,27.0,t_m_01_1,travel_Miami,sandals,5.0,unique,single,t_m_01_1.jpg,Travel,$${counterbalance_group},,sub-74
Desktop or Laptop,Windows 10,Chrome 138.0.0.0,2294x960,1835x650,Temporal Distance Task,cb_05,75.0,temp_dist_trial,dist_items,qkpkxw,2.0,continue,,1115.8999999523219,1100.5,1115.8999999523219,1115.8999999523219,1100.5,1115.8999999523219,1.0,0.0,0.0,,Click To Continue,Next button,7.0,object-60,temp_dist_trial,27.0,t_m_01_1,travel_Miami,sandals,5.0,unique,single,t_m_01_1.jpg,Travel,$${counterbalance_group},,sub-74
Desktop or Laptop,Windows 10,Chrome 138.0.0.0,2294x960,1835x650,Temporal Distance Task,cb_05,75.0,temp_dist_trial,dist_items,qkpkxw,2.0,response,72,466.8999999999942,1100.5,1116.1000000000058,466.8999999999942,1100.5,1116.1000000000058,1.0,649.2000000000116,0.0,,Slider,Slider,4.0,object-56,temp_dist_trial,27.0,t_m_01_1,travel_Miami,sandals,5.0,unique,single,t_m_01_1.jpg,Travel,$${counterbalance_group},,sub-74
Desktop or Laptop,Windows 10,Chrome 138.0.0.0,2294x960,1835x650,Temporal Distance Task,cb_05,76.0,temp_dist_trial,num_items,zn7si1,1.0,response,num_miss,3001.5,3001.5,3001.5,3001.5,3001.5,3001.5,1.0,0.0,0.0,num_miss_tag,Time Limit,screen,0.0,screen,temp_dist_trial,28.0,t_s_15_1,travel_shared,luggage tag,5.0,competing,paired,t_s_15_1.jpg,Travel,$${counterbalance_group},,sub-74
Desktop or Laptop,Windows 10,Chrome 138.0.0.0,2294x960,1835x650,Temporal Distance Task,cb_05,77.0,temp_dist_trial,num_items,zn7si1,1.0,response,1_ITEM,1197.499999976164,1183.8999999999942,1197.499999976164,1197.499999976164,1183.8999999999942,1197.499999976164,1.0,0.0,0.0,,Click Response,1_count,3.0,object-46,temp_dist_trial,29.0,t_s_02_1,travel_shared,water bottle,5.0,competing,single,t_s_02_1.jpg,Travel,$${counterbalance_group},,sub-74
Desktop or Laptop,Windows 10,Chrome 138.0.0.0,2294x960,1835x650,Temporal Distance Task,cb_05,78.0,temp_dist_trial,num_items,zn7si1,1.0,response,2_ITEM,2291.6000000000063,2284.5,2291.6000000000063,2291.6000000000063,2284.5,2291.6000000000063,1.0,0.0,0.0,,Click Response,2_count,5.0,object-49,temp_dist_trial,30.0,t_m_11_1,travel_Miami,collapsible beach chair,5.0,unique,paired,t_m_11_1.jpg,Travel,$${counterbalance_group},,sub-74
Desktop or Laptop,Windows 10,Chrome 138.0.0.0,2294x960,1835x650,Temporal Distance Task,cb_05,78.0,temp_dist_trial,dist_items,qkpkxw,2.0,info,,2.599999928468605,0.0,2.599999928468605,2.599999928468605,0.0,2.599999928468605,1.0,0.0,0.0,,Slider,Slider,4.0,object-56,temp_dist_trial,30.0,t_m_11_1,travel_Miami,collapsible beach chair,5.0,unique,paired,t_m_11_1.jpg,Travel,$${counterbalance_group},,sub-74
Desktop or Laptop,Windows 10,Chrome 138.0.0.0,2294x960,1835x650,Temporal Distance Task,cb_05,78.0,temp_dist_trial,dist_items,qkpkxw,2.0,continue,,1820.6999999523105,1817.3999999999944,1820.6999999523105,1820.6999999523105,1817.3999999999944,1820.6999999523105,1.0,0.0,0.0,,Click To Continue,Next button,7.0,object-60,temp_dist_trial,30.0,t_m_11_1,travel_Miami,collapsible beach chair,5.0,unique,paired,t_m_11_1.jpg,Travel,$${counterbalance_group},,sub-74
Desktop or Laptop,Windows 10,Chrome 138.0.0.0,2294x960,1835x650,Temporal Distance Task,cb_05,78.0,temp_dist_trial,dist_items,qkpkxw,2.0,response,64,1200.5,1817.3999999999944,1820.8999999999944,1200.5,1817.3999999999944,1820.8999999999944,1.0,620.3999999999943,0.0,,Slider,Slider,4.0,object-56,temp_dist_trial,30.0,t_m_11_1,travel_Miami,collapsible beach chair,5.0,unique,paired,t_m_11_1.jpg,Travel,$${counterbalance_group},,sub-74
Desktop or Laptop,Windows 10,Chrome 138.0.0.0,2294x960,1835x650,Temporal Distance Task,cb_05,79.0,temp_dist_trial,num_items,zn7si1,1.0,response,1_ITEM,1169.399999976158,1167.2999999999886,1169.399999976158,1169.399999976158,1167.2999999999886,1169.399999976158,1.0,0.0,0.0,,Click Response,1_count,3.0,object-46,temp_dist_trial,31.0,t_s_22_1,travel_shared,belt,5.0,competing,paired,t_s_22_1.jpg,Travel,$${counterbalance_group},,sub-74
Desktop or Laptop,Windows 10,Chrome 138.0.0.0,2294x960,1835x650,Temporal Distance Task,cb_05,80.0,temp_dist_trial,num_items,zn7si1,1.0,response,1_ITEM,1740.999999976164,1734.2000000000116,1740.999999976164,1740.999999976164,1734.2000000000116,1740.999999976164,1.0,0.0,0.0,,Click Response,1_count,3.0,object-46,temp_dist_trial,32.0,t_s_24_1,travel_shared,ear plugs,5.0,competing,paired,t_s_24_1.jpg,Travel,$${counterbalance_group},,sub-74
Desktop or Laptop,Windows 10,Chrome 138.0.0.0,2294x960,1835x650,Temporal Distance Task,cb_05,81.0,temp_dist_trial,num_items,zn7si1,1.0,response,2_ITEM,1516.2999999999884,1500.6999999999825,1516.2999999999884,1516.2999999999884,1500.6999999999825,1516.2999999999884,1.0,0.0,0.0,,Click Response,2_count,5.0,object-49,temp_dist_trial,33.0,t_s_09_1,travel_shared,wallet,5.0,competing,single,t_s_09_1.jpg,Travel,$${counterbalance_group},,sub-74
Desktop or Laptop,Windows 10,Chrome 138.0.0.0,2294x960,1835x650,Temporal Distance Task,cb_05,81.0,temp_dist_trial,dist_items,qkpkxw,2.0,info,,2.600000023841858,0.0,2.600000023841858,2.600000023841858,0.0,2.600000023841858,1.0,0.0,0.0,,Slider,Slider,4.0,object-56,temp_dist_trial,33.0,t_s_09_1,travel_shared,wallet,5.0,competing,single,t_s_09_1.jpg,Travel,$${counterbalance_group},,sub-74
Desktop or Laptop,Windows 10,Chrome 138.0.0.0,2294x960,1835x650,Temporal Distance Task,cb_05,81.0,temp_dist_trial,dist_items,qkpkxw,2.0,continue,,1274.5,1267.2999999999886,1274.5,1274.5,1267.2999999999886,1274.5,1.0,0.0,0.0,,Click To Continue,Next button,7.0,object-60,temp_dist_trial,33.0,t_s_09_1,travel_shared,wallet,5.0,competing,single,t_s_09_1.jpg,Travel,$${counterbalance_group},,sub-74
Desktop or Laptop,Windows 10,Chrome 138.0.0.0,2294x960,1835x650,Temporal Distance Task,cb_05,81.0,temp_dist_trial,dist_items,qkpkxw,2.0,response,73,633.7000000000116,1267.2999999999886,1276.7999999523165,633.7000000000116,1267.2999999999886,1276.7999999523165,1.0,643.0999999523046,0.0,,Slider,Slider,4.0,object-56,temp_dist_trial,33.0,t_s_09_1,travel_shared,wallet,5.0,competing,single,t_s_09_1.jpg,Travel,$${counterbalance_group},,sub-74
Desktop or Laptop,Windows 10,Chrome 138.0.0.0,2294x960,1835x650,Temporal Distance Task,cb_05,82.0,temp_dist_trial,num_items,zn7si1,1.0,response,1_ITEM,1644.499999952328,1634.2000000000116,1644.499999952328,1644.499999952328,1634.2000000000116,1644.499999952328,1.0,0.0,0.0,,Click Response,1_count,3.0,object-46,temp_dist_trial,34.0,t_i_15_1,travel_Iceland,compass,5.0,unique,single,t_i_15_1.jpg,Travel,$${counterbalance_group},,sub-74
Desktop or Laptop,Windows 10,Chrome 138.0.0.0,2294x960,1835x650,Temporal Distance Task,cb_05,83.0,temp_dist_trial,num_items,zn7si1,1.0,response,2_ITEM,1025.2999999761523,1017.1000000000058,1025.2999999761523,1025.2999999761523,1017.1000000000058,1025.2999999761523,1.0,0.0,0.0,,Click Response,2_count,5.0,object-49,temp_dist_trial,35.0,t_m_13_1,travel_Miami,floatie,5.0,unique,paired,t_m_13_1.jpg,Travel,$${counterbalance_group},,sub-74
Desktop or Laptop,Windows 10,Chrome 138.0.0.0,2294x960,1835x650,Temporal Distance Task,cb_05,83.0,temp_dist_trial,dist_items,qkpkxw,2.0,info,,2.2000000238476787,0.0,2.2000000238476787,2.2000000238476787,0.0,2.2000000238476787,1.0,0.0,0.0,,Slider,Slider,4.0,object-56,temp_dist_trial,35.0,t_m_13_1,travel_Miami,floatie,5.0,unique,paired,t_m_13_1.jpg,Travel,$${counterbalance_group},,sub-74
Desktop or Laptop,Windows 10,Chrome 138.0.0.0,2294x960,1835x650,Temporal Distance Task,cb_05,83.0,temp_dist_trial,dist_items,qkpkxw,2.0,continue,,1538.499999976164,1534.0,1538.499999976164,1538.499999976164,1534.0,1538.499999976164,1.0,0.0,0.0,,Click To Continue,Next button,7.0,object-60,temp_dist_trial,35.0,t_m_13_1,travel_Miami,floatie,5.0,unique,paired,t_m_13_1.jpg,Travel,$${counterbalance_group},,sub-74
Desktop or Laptop,Windows 10,Chrome 138.0.0.0,2294x960,1835x650,Temporal Distance Task,cb_05,83.0,temp_dist_trial,dist_items,qkpkxw,2.0,response,83,883.8000000000177,1534.0,1538.7000000238475,883.8000000000177,1534.0,1538.7000000238475,1.0,654.9000000238302,0.0,,Slider,Slider,4.0,object-56,temp_dist_trial,35.0,t_m_13_1,travel_Miami,floatie,5.0,unique,paired,t_m_13_1.jpg,Travel,$${counterbalance_group},,sub-74
Desktop or Laptop,Windows 10,Chrome 138.0.0.0,2294x960,1835x650,Temporal Distance Task,cb_05,84.0,temp_dist_trial,num_items,zn7si1,1.0,response,num_miss,3001.500000000029,3001.500000000029,3001.500000000029,3001.500000000029,3001.500000000029,3001.500000000029,1.0,0.0,0.0,num_miss_tag,Time Limit,screen,0.0,screen,temp_dist_trial,36.0,t_i_05_1,travel_Iceland,hiking boots,5.0,unique,single,t_i_05_1.jpg,Travel,$${counterbalance_group},,sub-74
Desktop or Laptop,Windows 10,Chrome 138.0.0.0,2294x960,1835x650,Temporal Distance Task,cb_05,85.0,temp_dist_trial,num_items,zn7si1,1.0,response,1_ITEM,1145.899999952293,1133.7999999999886,1145.899999952293,1145.899999952293,1133.7999999999886,1145.899999952293,1.0,0.0,0.0,,Click Response,1_count,3.0,object-46,temp_dist_trial,37.0,t_i_09_1,travel_Iceland,ear muffs,5.0,unique,single,t_i_09_1.jpg,Travel,$${counterbalance_group},,sub-74
Desktop or Laptop,Windows 10,Chrome 138.0.0.0,2294x960,1835x650,Temporal Distance Task,cb_05,86.0,temp_dist_trial,num_items,zn7si1,1.0,response,1_ITEM,1178.0999999999767,1167.1999999999534,1178.0999999999767,1178.0999999999767,1167.1999999999534,1178.0999999999767,1.0,0.0,0.0,,Click Response,1_count,3.0,object-46,temp_dist_trial,38.0,t_s_08_1,travel_shared,hand lotion,5.0,competing,paired,t_s_08_1.jpg,Travel,$${counterbalance_group},,sub-74
Desktop or Laptop,Windows 10,Chrome 138.0.0.0,2294x960,1835x650,Temporal Distance Task,cb_05,87.0,temp_dist_trial,num_items,zn7si1,1.0,response,num_miss,3001.4000000000237,3001.4000000000237,3001.4000000000237,3001.4000000000237,3001.4000000000237,3001.4000000000237,1.0,0.0,0.0,num_miss_tag,Time Limit,screen,0.0,screen,temp_dist_trial,39.0,t_s_11_1,travel_shared,eye mask,5.0,competing,paired,t_s_11_1.jpg,Travel,$${counterbalance_group},,sub-74
Desktop or Laptop,Windows 10,Chrome 138.0.0.0,2294x960,1835x650,Temporal Distance Task,cb_05,88.0,temp_dist_trial,num_items,zn7si1,1.0,response,1_ITEM,376.5999999523046,366.89999999996513,376.5999999523046,376.5999999523046,366.89999999996513,376.5999999523046,1.0,0.0,0.0,,Click Response,1_count,3.0,object-46,temp_dist_trial,40.0,t_m_02_1,travel_Miami,t-shirt,5.0,unique,single,t_m_02_1.jpg,Travel,$${counterbalance_group},,sub-74
Desktop or Laptop,Windows 10,Chrome 138.0.0.0,2294x960,1835x650,Temporal Distance Task,cb_05,89.0,temp_dist_trial,num_items,zn7si1,1.0,response,2_ITEM,1208.7999999999886,1200.5999999999767,1208.7999999999886,1208.7999999999886,1200.5999999999767,1208.7999999999886,1.0,0.0,0.0,,Click Response,2_count,5.0,object-49,temp_dist_trial,41.0,t_s_23_1,travel_shared,ball cap,5.0,competing,paired,t_s_23_1.jpg,Travel,$${counterbalance_group},,sub-74
Desktop or Laptop,Windows 10,Chrome 138.0.0.0,2294x960,1835x650,Temporal Distance Task,cb_05,89.0,temp_dist_trial,dist_items,qkpkxw,2.0,info,,2.4999999523279257,0.0,2.4999999523279257,2.4999999523279257,0.0,2.4999999523279257,1.0,0.0,0.0,,Slider,Slider,4.0,object-56,temp_dist_trial,41.0,t_s_23_1,travel_shared,ball cap,5.0,competing,paired,t_s_23_1.jpg,Travel,$${counterbalance_group},,sub-74
Desktop or Laptop,Windows 10,Chrome 138.0.0.0,2294x960,1835x650,Temporal Distance Task,cb_05,89.0,temp_dist_trial,dist_items,qkpkxw,2.0,continue,,2180.999999952328,2167.9000000000233,2180.999999952328,2180.999999952328,2167.9000000000233,2180.999999952328,1.0,0.0,0.0,,Click To Continue,Next button,7.0,object-60,temp_dist_trial,41.0,t_s_23_1,travel_shared,ball cap,5.0,competing,paired,t_s_23_1.jpg,Travel,$${counterbalance_group},,sub-74
Desktop or Laptop,Windows 10,Chrome 138.0.0.0,2294x960,1835x650,Temporal Distance Task,cb_05,89.0,temp_dist_trial,dist_items,qkpkxw,2.0,response,77,567.0,2167.9000000000233,2181.200000000012,567.0,2167.9000000000233,2181.200000000012,1.0,1614.2000000000116,0.0,,Slider,Slider,4.0,object-56,temp_dist_trial,41.0,t_s_23_1,travel_shared,ball cap,5.0,competing,paired,t_s_23_1.jpg,Travel,$${counterbalance_group},,sub-74
Desktop or Laptop,Windows 10,Chrome 138.0.0.0,2294x960,1835x650,Temporal Distance Task,cb_05,90.0,temp_dist_trial,num_items,zn7si1,1.0,response,2_ITEM,2019.9999999284628,2017.5,2019.9999999284628,2019.9999999284628,2017.5,2019.9999999284628,1.0,0.0,0.0,,Click Response,2_count,5.0,object-49,temp_dist_trial,42.0,t_s_13_1,travel_shared,contact lens case,5.0,competing,paired,t_s_13_1.jpg,Travel,$${counterbalance_group},,sub-74
Desktop or Laptop,Windows 10,Chrome 138.0.0.0,2294x960,1835x650,Temporal Distance Task,cb_05,90.0,temp_dist_trial,dist_items,qkpkxw,2.0,info,,2.8999999522930016,0.0,2.8999999522930016,2.8999999522930016,0.0,2.8999999522930016,1.0,0.0,0.0,,Slider,Slider,4.0,object-56,temp_dist_trial,42.0,t_s_13_1,travel_shared,contact lens case,5.0,competing,paired,t_s_13_1.jpg,Travel,$${counterbalance_group},,sub-74
Desktop or Laptop,Windows 10,Chrome 138.0.0.0,2294x960,1835x650,Temporal Distance Task,cb_05,90.0,temp_dist_trial,dist_items,qkpkxw,2.0,continue,,2817.999999999942,2801.399999999965,2817.999999999942,2817.999999999942,2801.399999999965,2817.999999999942,1.0,0.0,0.0,,Click To Continue,Next button,7.0,object-60,temp_dist_trial,42.0,t_s_13_1,travel_shared,contact lens case,5.0,competing,paired,t_s_13_1.jpg,Travel,$${counterbalance_group},,sub-74
Desktop or Laptop,Windows 10,Chrome 138.0.0.0,2294x960,1835x650,Temporal Distance Task,cb_05,90.0,temp_dist_trial,dist_items,qkpkxw,2.0,response,67,1417.3999999999646,2801.399999999965,2817.999999999942,1417.3999999999646,2801.399999999965,2817.999999999942,1.0,1400.5999999999767,0.0,,Slider,Slider,4.0,object-56,temp_dist_trial,42.0,t_s_13_1,travel_shared,contact lens case,5.0,competing,paired,t_s_13_1.jpg,Travel,$${counterbalance_group},,sub-74
Desktop or Laptop,Windows 10,Chrome 138.0.0.0,2294x960,1835x650,Temporal Distance Task,cb_05,91.0,temp_dist_trial,num_items,zn7si1,1.0,response,1_ITEM,1047.0999999761698,1033.7999999999884,1047.0999999761698,1047.0999999761698,1033.7999999999884,1047.0999999761698,1.0,0.0,0.0,,Click Response,1_count,3.0,object-46,temp_dist_trial,43.0,t_s_06_1,travel_shared,luggage,5.0,competing,single,t_s_06_1.jpg,Travel,$${counterbalance_group},,sub-74
Desktop or Laptop,Windows 10,Chrome 138.0.0.0,2294x960,1835x650,Temporal Distance Task,cb_05,92.0,temp_dist_trial,num_items,zn7si1,1.0,response,1_ITEM,2517.1999999523396,2501.4000000000233,2517.1999999523396,2517.1999999523396,2501.4000000000233,2517.1999999523396,1.0,0.0,0.0,,Click Response,1_count,3.0,object-46,temp_dist_trial,44.0,t_s_16_1,travel_shared,chapstick,5.0,competing,single,t_s_16_1.jpg,Travel,$${counterbalance_group},,sub-74
Desktop or Laptop,Windows 10,Chrome 138.0.0.0,2294x960,1835x650,Temporal Distance Task,cb_05,93.0,temp_dist_trial,num_items,zn7si1,1.0,response,1_ITEM,1347.9000000000233,1333.9000000000233,1347.9000000000233,1347.9000000000233,1333.9000000000233,1347.9000000000233,1.0,0.0,0.0,,Click Response,1_count,3.0,object-46,temp_dist_trial,45.0,t_s_17_1,travel_shared,toothbrush,5.0,competing,paired,t_s_17_1.jpg,Travel,$${counterbalance_group},,sub-74
Desktop or Laptop,Windows 10,Chrome 138.0.0.0,2294x960,1835x650,Temporal Distance Task,cb_05,94.0,temp_dist_trial,num_items,zn7si1,1.0,response,1_ITEM,1030.9000000238302,1017.2000000000116,1030.9000000238302,1030.9000000238302,1017.2000000000116,1030.9000000238302,1.0,0.0,0.0,,Click Response,1_count,3.0,object-46,temp_dist_trial,46.0,t_s_10_1,travel_shared,luggage lock,5.0,competing,paired,t_s_10_1.jpg,Travel,$${counterbalance_group},,sub-74
Desktop or Laptop,Windows 10,Chrome 138.0.0.0,2294x960,1835x650,Temporal Distance Task,cb_05,95.0,temp_dist_trial,num_items,zn7si1,1.0,response,1_ITEM,1558.6999999284744,1550.7999999999884,1558.6999999284744,1558.6999999284744,1550.7999999999884,1558.6999999284744,1.0,0.0,0.0,,Click Response,1_count,3.0,object-46,temp_dist_trial,47.0,t_s_14_1,travel_shared,hand sanitizer,5.0,competing,single,t_s_14_1.jpg,Travel,$${counterbalance_group},,sub-74
Desktop or Laptop,Windows 10,Chrome 138.0.0.0,2294x960,1835x650,Temporal Distance Task,cb_05,96.0,temp_dist_trial,num_items,zn7si1,1.0,response,2_ITEM,1826.300000023853,1817.6000000000354,1826.300000023853,1826.300000023853,1817.6000000000354,1826.300000023853,1.0,0.0,0.0,,Click Response,2_count,5.0,object-49,temp_dist_trial,48.0,t_m_09_1,travel_Miami,beach towel,5.0,unique,paired,t_m_09_1.jpg,Travel,$${counterbalance_group},,sub-74
Desktop or Laptop,Windows 10,Chrome 138.0.0.0,2294x960,1835x650,Temporal Distance Task,cb_05,96.0,temp_dist_trial,dist_items,qkpkxw,2.0,info,,2.5,0.0,2.5,2.5,0.0,2.5,1.0,0.0,0.0,,Slider,Slider,4.0,object-56,temp_dist_trial,48.0,t_m_09_1,travel_Miami,beach towel,5.0,unique,paired,t_m_09_1.jpg,Travel,$${counterbalance_group},,sub-74
Desktop or Laptop,Windows 10,Chrome 138.0.0.0,2294x960,1835x650,Temporal Distance Task,cb_05,96.0,temp_dist_trial,dist_items,qkpkxw,2.0,continue,,1109.100000023842,1100.5999999999767,1109.100000023842,1109.100000023842,1100.5999999999767,1109.100000023842,1.0,0.0,0.0,,Click To Continue,Next button,7.0,object-60,temp_dist_trial,48.0,t_m_09_1,travel_Miami,beach towel,5.0,unique,paired,t_m_09_1.jpg,Travel,$${counterbalance_group},,sub-74
Desktop or Laptop,Windows 10,Chrome 138.0.0.0,2294x960,1835x650,Temporal Distance Task,cb_05,96.0,temp_dist_trial,dist_items,qkpkxw,2.0,response,50,417.0,1100.5999999999767,1109.2999999523165,417.0,1100.5999999999767,1109.2999999523165,1.0,692.2999999523163,0.0,,Slider,Slider,4.0,object-56,temp_dist_trial,48.0,t_m_09_1,travel_Miami,beach towel,5.0,unique,paired,t_m_09_1.jpg,Travel,$${counterbalance_group},,sub-74
Desktop or Laptop,Windows 10,Chrome 138.0.0.0,2294x960,1835x650,Temporal Distance Task,,,,,,,info,END,,,286536.0,,,,,,,,,,,,,,,,,,,,,,$${counterbalance_group},,sub-74
