Participant Device,Participant OS,Participant Browser,Participant Monitor Size,Participant Viewport Size,Task Name,Current Spreadsheet,Trial Number,Display,Screen,Screen ID,Screen Counter,Response Type,Response,Onset Time,Clock Time,Reaction Time,Absolute Onset Time,Absolute Clock Time,Absolute Reaction Time,Correct,Response Duration,Proportion,Tag,Component Name,Object Name,Object Number,Object ID,Spreadsheet: display,Spreadsheet: trial,Spreadsheet: stimulus_id,Spreadsheet: expected_goal,Spreadsheet: stimulus_name,Spreadsheet: c_group,Spreadsheet: condition,Spreadsheet: paired_status,Spreadsheet: stimulus_path,Spreadsheet: block_type,Manipulation: Spreadsheet,Store: enc_test_acc,sub_label
Desktop or Laptop,Windows 10,Firefox 139.0,1536x864,1536x779,Temporal Distance Task,$${counterbalance_group},,,,,,info,BEGIN,,,,,,,0.0,,,,,,,,,,,,,,,,,,,,sub-21
Desktop or Laptop,Windows 10,Firefox 139.0,1536x864,1536x779,Temporal Distance Task,cb_10,1.0,temp_instructions,intro_screen,3tnme7,1.0,continue,,8680.380000000001,8669.759999999998,8680.380000000001,8680.380000000001,8669.759999999998,8680.380000000001,1.0,0.0,0.0,,Click To Continue,Continue Button,4.0,object-29,temp_instructions,,,Travel,,,,,,,,,sub-21
Desktop or Laptop,Windows 10,Firefox 139.0,1536x864,1536x779,Temporal Distance Task,cb_10,1.0,temp_instructions,intro_screen_2,52v7ur,2.0,continue,,7328.620000000001,7318.340000000003,7328.620000000001,7328.620000000001,7318.340000000003,7328.620000000001,1.0,0.0,0.0,,Click To Continue,Continue Button,4.0,object-39,temp_instructions,,,Travel,,,,,,,,,sub-21
Desktop or Laptop,Windows 10,Firefox 139.0,1536x864,1536x779,Temporal Distance Task,cb_10,1.0,temp_instructions,intro_screen_3,i7lvwx,3.0,continue,,4085.0,4068.32,4085.0,4085.0,4068.32,4085.0,1.0,0.0,0.0,,Click To Continue,Continue Button,4.0,object-67,temp_instructions,,,Travel,,,,,,,,,sub-21
Desktop or Laptop,Windows 10,Firefox 139.0,1536x864,1536x779,Temporal Distance Task,cb_10,1.0,temp_instructions,test_q1,5ieqx1,4.0,response,choice_3,5201.68,5185.02,5201.68,5201.68,5185.02,5201.68,1.0,0.0,0.0,,Click Response,choice_3,5.0,object-345,temp_instructions,,,Travel,,,,,,,,,sub-21
Desktop or Laptop,Windows 10,Firefox 139.0,1536x864,1536x779,Temporal Distance Task,cb_10,1.0,temp_instructions,score_corr,7ilvjr,5.0,continue,,1301.619999999999,1284.9599999999991,1301.619999999999,1301.619999999999,1284.9599999999991,1301.619999999999,1.0,0.0,0.0,,Click To Continue,Continue Button,3.0,object-23,temp_instructions,,,Travel,,,,,,,,,sub-21
Desktop or Laptop,Windows 10,Firefox 139.0,1536x864,1536x779,Temporal Distance Task,cb_10,1.0,temp_eventStart,Screen 1,dgtyxe,1.0,continue,,1612.9799999999993,1600.0,1612.9799999999993,1612.9799999999993,1600.0,1612.9799999999993,1.0,0.0,0.0,,Click To Continue,Next Button,3.0,object-43,temp_eventStart,,,Travel,,,,,,,,,sub-21
Desktop or Laptop,Windows 10,Firefox 139.0,1536x864,1536x779,Temporal Distance Task,cb_10,1.0,temp_dist_trial,num_items,zn7si1,1.0,response,1_ITEM,1760.9799999999993,1749.9999999999966,1760.9799999999993,1760.9799999999993,1749.9999999999966,1760.9799999999993,1.0,0.0,0.0,,Click Response,1_count,3.0,object-46,temp_dist_trial,1.0,t_m_13_1,travel_Miami,floatie,10.0,unique,single,t_m_13_1.jpg,Travel,,,sub-21
Desktop or Laptop,Windows 10,Firefox 139.0,1536x864,1536x779,Temporal Distance Task,cb_10,2.0,temp_dist_trial,num_items,zn7si1,1.0,response,1_ITEM,2668.340000000004,2651.6600000000035,2668.340000000004,2668.340000000004,2651.6600000000035,2668.340000000004,1.0,0.0,0.0,,Click Response,1_count,3.0,object-46,temp_dist_trial,2.0,t_i_16_1,travel_Iceland,skis,10.0,unique,paired,t_i_16_1.jpg,Travel,,,sub-21
Desktop or Laptop,Windows 10,Firefox 139.0,1536x864,1536x779,Temporal Distance Task,cb_10,3.0,temp_dist_trial,num_items,zn7si1,1.0,response,1_ITEM,1131.3199999999995,1116.6599999999962,1131.3199999999995,1131.3199999999995,1116.6599999999962,1131.3199999999995,1.0,0.0,0.0,,Click Response,1_count,3.0,object-46,temp_dist_trial,3.0,t_i_06_1,travel_Iceland,knit hat,10.0,unique,single,t_i_06_1.jpg,Travel,,,sub-21
Desktop or Laptop,Windows 10,Firefox 139.0,1536x864,1536x779,Temporal Distance Task,cb_10,4.0,temp_dist_trial,num_items,zn7si1,1.0,response,2_ITEM,1164.6600000000035,1151.6800000000005,1164.6600000000035,1164.6600000000035,1151.6800000000005,1164.6600000000035,1.0,0.0,0.0,,Click Response,2_count,5.0,object-49,temp_dist_trial,4.0,t_s_04_1,travel_shared,instant camera,10.0,competing,single,t_s_04_1.jpg,Travel,,,sub-21
Desktop or Laptop,Windows 10,Firefox 139.0,1536x864,1536x779,Temporal Distance Task,cb_10,4.0,temp_dist_trial,dist_items,qkpkxw,2.0,info,,11.9800000000032,0.0,11.9800000000032,11.9800000000032,0.0,11.9800000000032,1.0,0.0,0.0,,Slider,Slider,4.0,object-56,temp_dist_trial,4.0,t_s_04_1,travel_shared,instant camera,10.0,competing,single,t_s_04_1.jpg,Travel,,,sub-21
Desktop or Laptop,Windows 10,Firefox 139.0,1536x864,1536x779,Temporal Distance Task,cb_10,4.0,temp_dist_trial,dist_items,qkpkxw,2.0,continue,,2238.980000000003,2233.32,2238.980000000003,2238.980000000003,2233.32,2238.980000000003,1.0,0.0,0.0,,Click To Continue,Next button,7.0,object-60,temp_dist_trial,4.0,t_s_04_1,travel_shared,instant camera,10.0,competing,single,t_s_04_1.jpg,Travel,,,sub-21
Desktop or Laptop,Windows 10,Firefox 139.0,1536x864,1536x779,Temporal Distance Task,cb_10,4.0,temp_dist_trial,dist_items,qkpkxw,2.0,response,69,866.6600000000035,2233.32,2240.980000000003,866.6600000000035,2233.32,2240.980000000003,1.0,1374.3199999999995,0.0,,Slider,Slider,4.0,object-56,temp_dist_trial,4.0,t_s_04_1,travel_shared,instant camera,10.0,competing,single,t_s_04_1.jpg,Travel,,,sub-21
Desktop or Laptop,Windows 10,Firefox 139.0,1536x864,1536x779,Temporal Distance Task,cb_10,5.0,temp_dist_trial,num_items,zn7si1,1.0,response,2_ITEM,1730.6600000000033,1718.4000000000015,1730.6600000000033,1730.6600000000033,1718.4000000000015,1730.6600000000033,1.0,0.0,0.0,,Click Response,2_count,5.0,object-49,temp_dist_trial,5.0,t_i_12_1,travel_Iceland,tent,10.0,unique,single,t_i_12_1.jpg,Travel,,,sub-21
Desktop or Laptop,Windows 10,Firefox 139.0,1536x864,1536x779,Temporal Distance Task,cb_10,5.0,temp_dist_trial,dist_items,qkpkxw,2.0,info,,12.260000000002035,0.0,12.260000000002035,12.260000000002035,0.0,12.260000000002035,1.0,0.0,0.0,,Slider,Slider,4.0,object-56,temp_dist_trial,5.0,t_i_12_1,travel_Iceland,tent,10.0,unique,single,t_i_12_1.jpg,Travel,,,sub-21
Desktop or Laptop,Windows 10,Firefox 139.0,1536x864,1536x779,Temporal Distance Task,cb_10,5.0,temp_dist_trial,dist_items,qkpkxw,2.0,continue,,1572.260000000002,1566.6800000000005,1572.260000000002,1572.260000000002,1566.6800000000005,1572.260000000002,1.0,0.0,0.0,,Click To Continue,Next button,7.0,object-60,temp_dist_trial,5.0,t_i_12_1,travel_Iceland,tent,10.0,unique,single,t_i_12_1.jpg,Travel,,,sub-21
Desktop or Laptop,Windows 10,Firefox 139.0,1536x864,1536x779,Temporal Distance Task,cb_10,5.0,temp_dist_trial,dist_items,qkpkxw,2.0,response,73,616.6800000000002,1566.6800000000005,1573.260000000002,616.6800000000002,1566.6800000000005,1573.260000000002,1.0,956.5800000000016,0.0,,Slider,Slider,4.0,object-56,temp_dist_trial,5.0,t_i_12_1,travel_Iceland,tent,10.0,unique,single,t_i_12_1.jpg,Travel,,,sub-21
Desktop or Laptop,Windows 10,Firefox 139.0,1536x864,1536x779,Temporal Distance Task,cb_10,6.0,temp_dist_trial,num_items,zn7si1,1.0,response,1_ITEM,1445.5800000000015,1433.3199999999995,1445.5800000000015,1445.5800000000015,1433.3199999999995,1445.5800000000015,1.0,0.0,0.0,,Click Response,1_count,3.0,object-46,temp_dist_trial,6.0,t_m_11_1,travel_Miami,collapsible beach chair,10.0,unique,single,t_m_11_1.jpg,Travel,,,sub-21
Desktop or Laptop,Windows 10,Firefox 139.0,1536x864,1536x779,Temporal Distance Task,cb_10,7.0,temp_dist_trial,num_items,zn7si1,1.0,response,2_ITEM,1278.260000000002,1268.3800000000047,1278.260000000002,1278.260000000002,1268.3800000000047,1278.260000000002,1.0,0.0,0.0,,Click Response,2_count,5.0,object-49,temp_dist_trial,7.0,t_i_10_1,travel_Iceland,trekking poles,10.0,unique,paired,t_i_10_1.jpg,Travel,,,sub-21
Desktop or Laptop,Windows 10,Firefox 139.0,1536x864,1536x779,Temporal Distance Task,cb_10,7.0,temp_dist_trial,dist_items,qkpkxw,2.0,info,,10.87999999999738,0.0,10.87999999999738,10.87999999999738,0.0,10.87999999999738,1.0,0.0,0.0,,Slider,Slider,4.0,object-56,temp_dist_trial,7.0,t_i_10_1,travel_Iceland,trekking poles,10.0,unique,paired,t_i_10_1.jpg,Travel,,,sub-21
Desktop or Laptop,Windows 10,Firefox 139.0,1536x864,1536x779,Temporal Distance Task,cb_10,7.0,temp_dist_trial,dist_items,qkpkxw,2.0,continue,,1840.8799999999967,1833.3399999999967,1840.8799999999967,1840.8799999999967,1833.3399999999967,1840.8799999999967,1.0,0.0,0.0,,Click To Continue,Next button,7.0,object-60,temp_dist_trial,7.0,t_i_10_1,travel_Iceland,trekking poles,10.0,unique,paired,t_i_10_1.jpg,Travel,,,sub-21
Desktop or Laptop,Windows 10,Firefox 139.0,1536x864,1536x779,Temporal Distance Task,cb_10,7.0,temp_dist_trial,dist_items,qkpkxw,2.0,response,72,1233.3399999999965,1833.3399999999967,1841.8799999999967,1233.3399999999965,1833.3399999999967,1841.8799999999967,1.0,608.5400000000009,0.0,,Slider,Slider,4.0,object-56,temp_dist_trial,7.0,t_i_10_1,travel_Iceland,trekking poles,10.0,unique,paired,t_i_10_1.jpg,Travel,,,sub-21
Desktop or Laptop,Windows 10,Firefox 139.0,1536x864,1536x779,Temporal Distance Task,cb_10,8.0,temp_dist_trial,num_items,zn7si1,1.0,response,2_ITEM,1911.5400000000006,1900.0,1911.5400000000006,1911.5400000000006,1900.0,1911.5400000000006,1.0,0.0,0.0,,Click Response,2_count,5.0,object-49,temp_dist_trial,8.0,t_s_17_1,travel_shared,toothbrush,10.0,competing,paired,t_s_17_1.jpg,Travel,,,sub-21
Desktop or Laptop,Windows 10,Firefox 139.0,1536x864,1536x779,Temporal Distance Task,cb_10,8.0,temp_dist_trial,dist_items,qkpkxw,2.0,info,,8.839999999996508,0.0,8.839999999996508,8.839999999996508,0.0,8.839999999996508,1.0,0.0,0.0,,Slider,Slider,4.0,object-56,temp_dist_trial,8.0,t_s_17_1,travel_shared,toothbrush,10.0,competing,paired,t_s_17_1.jpg,Travel,,,sub-21
Desktop or Laptop,Windows 10,Firefox 139.0,1536x864,1536x779,Temporal Distance Task,cb_10,8.0,temp_dist_trial,dist_items,qkpkxw,2.0,continue,,2930.8399999999965,2916.6599999999958,2930.8399999999965,2930.8399999999965,2916.6599999999958,2930.8399999999965,1.0,0.0,0.0,,Click To Continue,Next button,7.0,object-60,temp_dist_trial,8.0,t_s_17_1,travel_shared,toothbrush,10.0,competing,paired,t_s_17_1.jpg,Travel,,,sub-21
Desktop or Laptop,Windows 10,Firefox 139.0,1536x864,1536x779,Temporal Distance Task,cb_10,8.0,temp_dist_trial,dist_items,qkpkxw,2.0,response,65,1766.6599999999967,2916.6599999999958,2931.8399999999965,1766.6599999999967,2916.6599999999958,2931.8399999999965,1.0,1165.1800000000005,0.0,,Slider,Slider,4.0,object-56,temp_dist_trial,8.0,t_s_17_1,travel_shared,toothbrush,10.0,competing,paired,t_s_17_1.jpg,Travel,,,sub-21
Desktop or Laptop,Windows 10,Firefox 139.0,1536x864,1536x779,Temporal Distance Task,cb_10,9.0,temp_dist_trial,num_items,zn7si1,1.0,response,1_ITEM,1416.1800000000005,1400.0,1416.1800000000005,1416.1800000000005,1400.0,1416.1800000000005,1.0,0.0,0.0,,Click Response,1_count,3.0,object-46,temp_dist_trial,9.0,t_m_15_1,travel_Miami,shorts,10.0,unique,paired,t_m_15_1.jpg,Travel,,,sub-21
Desktop or Laptop,Windows 10,Firefox 139.0,1536x864,1536x779,Temporal Distance Task,cb_10,10.0,temp_dist_trial,num_items,zn7si1,1.0,response,2_ITEM,1790.4800000000034,1783.3400000000033,1790.4800000000034,1790.4800000000034,1783.3400000000033,1790.4800000000034,1.0,0.0,0.0,,Click Response,2_count,5.0,object-49,temp_dist_trial,10.0,t_m_18_1,travel_Miami,waterproof tote,10.0,unique,paired,t_m_18_1.jpg,Travel,,,sub-21
Desktop or Laptop,Windows 10,Firefox 139.0,1536x864,1536x779,Temporal Distance Task,cb_10,10.0,temp_dist_trial,dist_items,qkpkxw,2.0,info,,9.139999999999418,0.0,9.139999999999418,9.139999999999418,0.0,9.139999999999418,1.0,0.0,0.0,,Slider,Slider,4.0,object-56,temp_dist_trial,10.0,t_m_18_1,travel_Miami,waterproof tote,10.0,unique,paired,t_m_18_1.jpg,Travel,,,sub-21
Desktop or Laptop,Windows 10,Firefox 139.0,1536x864,1536x779,Temporal Distance Task,cb_10,10.0,temp_dist_trial,dist_items,qkpkxw,2.0,continue,,2139.1399999999994,2134.7200000000007,2139.1399999999994,2139.1399999999994,2134.7200000000007,2139.1399999999994,1.0,0.0,0.0,,Click To Continue,Next button,7.0,object-60,temp_dist_trial,10.0,t_m_18_1,travel_Miami,waterproof tote,10.0,unique,paired,t_m_18_1.jpg,Travel,,,sub-21
Desktop or Laptop,Windows 10,Firefox 139.0,1536x864,1536x779,Temporal Distance Task,cb_10,10.0,temp_dist_trial,dist_items,qkpkxw,2.0,response,58,933.3399999999964,2134.7200000000007,2140.1399999999994,933.3399999999964,2134.7200000000007,2140.1399999999994,1.0,1206.8000000000031,0.0,,Slider,Slider,4.0,object-56,temp_dist_trial,10.0,t_m_18_1,travel_Miami,waterproof tote,10.0,unique,paired,t_m_18_1.jpg,Travel,,,sub-21
Desktop or Laptop,Windows 10,Firefox 139.0,1536x864,1536x779,Temporal Distance Task,cb_10,11.0,temp_dist_trial,num_items,zn7si1,1.0,response,1_ITEM,1319.4199999999985,1316.6800000000005,1319.4199999999985,1319.4199999999985,1316.6800000000005,1319.4199999999985,1.0,0.0,0.0,,Click Response,1_count,3.0,object-46,temp_dist_trial,11.0,t_s_24_1,travel_shared,ear plugs,10.0,competing,single,t_s_24_1.jpg,Travel,,,sub-21
Desktop or Laptop,Windows 10,Firefox 139.0,1536x864,1536x779,Temporal Distance Task,cb_10,12.0,temp_dist_trial,num_items,zn7si1,1.0,response,2_ITEM,1331.739999999998,1316.6599999999962,1331.739999999998,1331.739999999998,1316.6599999999962,1331.739999999998,1.0,0.0,0.0,,Click Response,2_count,5.0,object-49,temp_dist_trial,12.0,t_s_12_1,travel_shared,clear toiletry bag,10.0,competing,paired,t_s_12_1.jpg,Travel,,,sub-21
Desktop or Laptop,Windows 10,Firefox 139.0,1536x864,1536x779,Temporal Distance Task,cb_10,12.0,temp_dist_trial,dist_items,qkpkxw,2.0,info,,11.080000000001744,0.0,11.080000000001744,11.080000000001744,0.0,11.080000000001744,1.0,0.0,0.0,,Slider,Slider,4.0,object-56,temp_dist_trial,12.0,t_s_12_1,travel_shared,clear toiletry bag,10.0,competing,paired,t_s_12_1.jpg,Travel,,,sub-21
Desktop or Laptop,Windows 10,Firefox 139.0,1536x864,1536x779,Temporal Distance Task,cb_10,12.0,temp_dist_trial,dist_items,qkpkxw,2.0,continue,,2318.0800000000017,2301.800000000003,2318.0800000000017,2318.0800000000017,2301.800000000003,2318.0800000000017,1.0,0.0,0.0,,Click To Continue,Next button,7.0,object-60,temp_dist_trial,12.0,t_s_12_1,travel_shared,clear toiletry bag,10.0,competing,paired,t_s_12_1.jpg,Travel,,,sub-21
Desktop or Laptop,Windows 10,Firefox 139.0,1536x864,1536x779,Temporal Distance Task,cb_10,12.0,temp_dist_trial,dist_items,qkpkxw,2.0,response,62,868.4599999999991,2301.800000000003,2318.4600000000064,868.4599999999991,2301.800000000003,2318.4600000000064,1.0,1450.0000000000073,0.0,,Slider,Slider,4.0,object-56,temp_dist_trial,12.0,t_s_12_1,travel_shared,clear toiletry bag,10.0,competing,paired,t_s_12_1.jpg,Travel,,,sub-21
Desktop or Laptop,Windows 10,Firefox 139.0,1536x864,1536x779,Temporal Distance Task,cb_10,13.0,temp_dist_trial,num_items,zn7si1,1.0,response,2_ITEM,1649.2799999999988,1633.3399999999967,1649.2799999999988,1649.2799999999988,1633.3399999999967,1649.2799999999988,1.0,0.0,0.0,,Click Response,2_count,5.0,object-49,temp_dist_trial,13.0,t_i_14_1,travel_Iceland,snow pants,10.0,unique,paired,t_i_14_1.jpg,Travel,,,sub-21
Desktop or Laptop,Windows 10,Firefox 139.0,1536x864,1536x779,Temporal Distance Task,cb_10,13.0,temp_dist_trial,dist_items,qkpkxw,2.0,info,,9.940000000002328,0.0,9.940000000002328,9.940000000002328,0.0,9.940000000002328,1.0,0.0,0.0,,Slider,Slider,4.0,object-56,temp_dist_trial,13.0,t_i_14_1,travel_Iceland,snow pants,10.0,unique,paired,t_i_14_1.jpg,Travel,,,sub-21
Desktop or Laptop,Windows 10,Firefox 139.0,1536x864,1536x779,Temporal Distance Task,cb_10,13.0,temp_dist_trial,dist_items,qkpkxw,2.0,continue,,2046.9400000000023,2034.8399999999967,2046.9400000000023,2046.9400000000023,2034.8399999999967,2046.9400000000023,1.0,0.0,0.0,,Click To Continue,Next button,7.0,object-60,temp_dist_trial,13.0,t_i_14_1,travel_Iceland,snow pants,10.0,unique,paired,t_i_14_1.jpg,Travel,,,sub-21
Desktop or Laptop,Windows 10,Firefox 139.0,1536x864,1536x779,Temporal Distance Task,cb_10,13.0,temp_dist_trial,dist_items,qkpkxw,2.0,response,38,733.320000000007,2034.8399999999967,2047.9400000000023,733.320000000007,2034.8399999999967,2047.9400000000023,1.0,1314.6199999999953,0.0,,Slider,Slider,4.0,object-56,temp_dist_trial,13.0,t_i_14_1,travel_Iceland,snow pants,10.0,unique,paired,t_i_14_1.jpg,Travel,,,sub-21
Desktop or Laptop,Windows 10,Firefox 139.0,1536x864,1536x779,Temporal Distance Task,cb_10,14.0,temp_dist_trial,num_items,zn7si1,1.0,response,1_ITEM,1126.1000000000058,1116.6600000000037,1126.1000000000058,1126.1000000000058,1116.6600000000037,1126.1000000000058,1.0,0.0,0.0,,Click Response,1_count,3.0,object-46,temp_dist_trial,14.0,t_s_19_1,travel_shared,pajamas,10.0,competing,single,t_s_19_1.jpg,Travel,,,sub-21
Desktop or Laptop,Windows 10,Firefox 139.0,1536x864,1536x779,Temporal Distance Task,cb_10,15.0,temp_dist_trial,num_items,zn7si1,1.0,response,2_ITEM,1176.4400000000023,1166.6800000000076,1176.4400000000023,1176.4400000000023,1166.6800000000076,1176.4400000000023,1.0,0.0,0.0,,Click Response,2_count,5.0,object-49,temp_dist_trial,15.0,t_s_21_1,travel_shared,umbrella,10.0,competing,paired,t_s_21_1.jpg,Travel,,,sub-21
Desktop or Laptop,Windows 10,Firefox 139.0,1536x864,1536x779,Temporal Distance Task,cb_10,15.0,temp_dist_trial,dist_items,qkpkxw,2.0,info,,16.680000000007567,0.0,16.680000000007567,16.680000000007567,0.0,16.680000000007567,1.0,0.0,0.0,,Slider,Slider,4.0,object-56,temp_dist_trial,15.0,t_s_21_1,travel_shared,umbrella,10.0,competing,paired,t_s_21_1.jpg,Travel,,,sub-21
Desktop or Laptop,Windows 10,Firefox 139.0,1536x864,1536x779,Temporal Distance Task,cb_10,15.0,temp_dist_trial,dist_items,qkpkxw,2.0,continue,,1926.7599999999948,1918.2999999999884,1926.7599999999948,1926.7599999999948,1918.2999999999884,1926.7599999999948,1.0,0.0,0.0,,Click To Continue,Next button,7.0,object-60,temp_dist_trial,15.0,t_s_21_1,travel_shared,umbrella,10.0,competing,paired,t_s_21_1.jpg,Travel,,,sub-21
Desktop or Laptop,Windows 10,Firefox 139.0,1536x864,1536x779,Temporal Distance Task,cb_10,15.0,temp_dist_trial,dist_items,qkpkxw,2.0,response,52,633.3199999999922,1918.2999999999884,1927.7599999999948,633.3199999999922,1918.2999999999884,1927.7599999999948,1.0,1294.4400000000023,0.0,,Slider,Slider,4.0,object-56,temp_dist_trial,15.0,t_s_21_1,travel_shared,umbrella,10.0,competing,paired,t_s_21_1.jpg,Travel,,,sub-21
Desktop or Laptop,Windows 10,Firefox 139.0,1536x864,1536x779,Temporal Distance Task,cb_10,16.0,temp_dist_trial,num_items,zn7si1,1.0,response,1_ITEM,1942.4600000000064,1933.340000000011,1942.4600000000064,1942.4600000000064,1933.340000000011,1942.4600000000064,1.0,0.0,0.0,,Click Response,1_count,3.0,object-46,temp_dist_trial,16.0,t_i_04_1,travel_Iceland,portable camping stove,10.0,unique,paired,t_i_04_1.jpg,Travel,,,sub-21
Desktop or Laptop,Windows 10,Firefox 139.0,1536x864,1536x779,Temporal Distance Task,cb_10,17.0,temp_dist_trial,num_items,zn7si1,1.0,response,2_ITEM,1160.1199999999953,1151.5800000000015,1160.1199999999953,1160.1199999999953,1151.5800000000015,1160.1199999999953,1.0,0.0,0.0,,Click Response,2_count,5.0,object-49,temp_dist_trial,17.0,t_i_18_1,travel_Iceland,ski mask,10.0,unique,paired,t_i_18_1.jpg,Travel,,,sub-21
Desktop or Laptop,Windows 10,Firefox 139.0,1536x864,1536x779,Temporal Distance Task,cb_10,17.0,temp_dist_trial,dist_items,qkpkxw,2.0,info,,8.539999999993597,0.0,8.539999999993597,8.539999999993597,0.0,8.539999999993597,1.0,0.0,0.0,,Slider,Slider,4.0,object-56,temp_dist_trial,17.0,t_i_18_1,travel_Iceland,ski mask,10.0,unique,paired,t_i_18_1.jpg,Travel,,,sub-21
Desktop or Laptop,Windows 10,Firefox 139.0,1536x864,1536x779,Temporal Distance Task,cb_10,17.0,temp_dist_trial,dist_items,qkpkxw,2.0,continue,,1815.5399999999936,1800.0,1815.5399999999936,1815.5399999999936,1800.0,1815.5399999999936,1.0,0.0,0.0,,Click To Continue,Next button,7.0,object-60,temp_dist_trial,17.0,t_i_18_1,travel_Iceland,ski mask,10.0,unique,paired,t_i_18_1.jpg,Travel,,,sub-21
Desktop or Laptop,Windows 10,Firefox 139.0,1536x864,1536x779,Temporal Distance Task,cb_10,17.0,temp_dist_trial,dist_items,qkpkxw,2.0,response,43,800.0,1800.0,1816.5399999999936,800.0,1800.0,1816.5399999999936,1.0,1016.5399999999936,0.0,,Slider,Slider,4.0,object-56,temp_dist_trial,17.0,t_i_18_1,travel_Iceland,ski mask,10.0,unique,paired,t_i_18_1.jpg,Travel,,,sub-21
Desktop or Laptop,Windows 10,Firefox 139.0,1536x864,1536x779,Temporal Distance Task,cb_10,18.0,temp_dist_trial,num_items,zn7si1,1.0,response,2_ITEM,1479.5399999999936,1466.659999999989,1479.5399999999936,1479.5399999999936,1466.659999999989,1479.5399999999936,1.0,0.0,0.0,,Click Response,2_count,5.0,object-49,temp_dist_trial,18.0,t_i_19_1,travel_Iceland,rope,10.0,unique,paired,t_i_19_1.jpg,Travel,,,sub-21
Desktop or Laptop,Windows 10,Firefox 139.0,1536x864,1536x779,Temporal Distance Task,cb_10,18.0,temp_dist_trial,dist_items,qkpkxw,2.0,info,,11.880000000004651,0.0,11.880000000004651,11.880000000004651,0.0,11.880000000004651,1.0,0.0,0.0,,Slider,Slider,4.0,object-56,temp_dist_trial,18.0,t_i_19_1,travel_Iceland,rope,10.0,unique,paired,t_i_19_1.jpg,Travel,,,sub-21
Desktop or Laptop,Windows 10,Firefox 139.0,1536x864,1536x779,Temporal Distance Task,cb_10,18.0,temp_dist_trial,dist_items,qkpkxw,2.0,continue,,1642.8800000000049,1635.020000000004,1642.8800000000049,1642.8800000000049,1635.020000000004,1642.8800000000049,1.0,0.0,0.0,,Click To Continue,Next button,7.0,object-60,temp_dist_trial,18.0,t_i_19_1,travel_Iceland,rope,10.0,unique,paired,t_i_19_1.jpg,Travel,,,sub-21
Desktop or Laptop,Windows 10,Firefox 139.0,1536x864,1536x779,Temporal Distance Task,cb_10,18.0,temp_dist_trial,dist_items,qkpkxw,2.0,response,58,868.3600000000006,1635.020000000004,1644.8800000000049,868.3600000000006,1635.020000000004,1644.8800000000049,1.0,776.5200000000041,0.0,,Slider,Slider,4.0,object-56,temp_dist_trial,18.0,t_i_19_1,travel_Iceland,rope,10.0,unique,paired,t_i_19_1.jpg,Travel,,,sub-21
Desktop or Laptop,Windows 10,Firefox 139.0,1536x864,1536x779,Temporal Distance Task,cb_10,19.0,temp_dist_trial,num_items,zn7si1,1.0,response,1_ITEM,1371.8600000000004,1366.6600000000035,1371.8600000000004,1371.8600000000004,1366.6600000000035,1371.8600000000004,1.0,0.0,0.0,,Click Response,1_count,3.0,object-46,temp_dist_trial,19.0,t_s_01_1,travel_shared,fanny pack,10.0,competing,single,t_s_01_1.jpg,Travel,,,sub-21
Desktop or Laptop,Windows 10,Firefox 139.0,1536x864,1536x779,Temporal Distance Task,cb_10,20.0,temp_dist_trial,num_items,zn7si1,1.0,response,1_ITEM,898.1999999999971,883.3399999999965,898.1999999999971,898.1999999999971,883.3399999999965,898.1999999999971,1.0,0.0,0.0,,Click Response,1_count,3.0,object-46,temp_dist_trial,20.0,t_m_19_1,travel_Miami,surfboard,10.0,unique,paired,t_m_19_1.jpg,Travel,,,sub-21
Desktop or Laptop,Windows 10,Firefox 139.0,1536x864,1536x779,Temporal Distance Task,cb_10,21.0,temp_dist_trial,num_items,zn7si1,1.0,response,1_ITEM,1157.8600000000004,1151.6399999999996,1157.8600000000004,1157.8600000000004,1151.6399999999996,1157.8600000000004,1.0,0.0,0.0,,Click Response,1_count,3.0,object-46,temp_dist_trial,21.0,t_m_05_1,travel_Miami,sunscreen,10.0,unique,single,t_m_05_1.jpg,Travel,,,sub-21
Desktop or Laptop,Windows 10,Firefox 139.0,1536x864,1536x779,Temporal Distance Task,cb_10,22.0,temp_dist_trial,num_items,zn7si1,1.0,response,2_ITEM,1396.2200000000012,1383.3399999999967,1396.2200000000012,1396.2200000000012,1383.3399999999967,1396.2200000000012,1.0,0.0,0.0,,Click Response,2_count,5.0,object-49,temp_dist_trial,22.0,t_s_16_1,travel_shared,chapstick,10.0,competing,paired,t_s_16_1.jpg,Travel,,,sub-21
Desktop or Laptop,Windows 10,Firefox 139.0,1536x864,1536x779,Temporal Distance Task,cb_10,22.0,temp_dist_trial,dist_items,qkpkxw,2.0,info,,13.880000000004651,0.0,13.880000000004651,13.880000000004651,0.0,13.880000000004651,1.0,0.0,0.0,,Slider,Slider,4.0,object-56,temp_dist_trial,22.0,t_s_16_1,travel_shared,chapstick,10.0,competing,paired,t_s_16_1.jpg,Travel,,,sub-21
Desktop or Laptop,Windows 10,Firefox 139.0,1536x864,1536x779,Temporal Distance Task,cb_10,22.0,temp_dist_trial,dist_items,qkpkxw,2.0,continue,,1707.8800000000049,1700.0,1707.8800000000049,1707.8800000000049,1700.0,1707.8800000000049,1.0,0.0,0.0,,Click To Continue,Next button,7.0,object-60,temp_dist_trial,22.0,t_s_16_1,travel_shared,chapstick,10.0,competing,paired,t_s_16_1.jpg,Travel,,,sub-21
Desktop or Laptop,Windows 10,Firefox 139.0,1536x864,1536x779,Temporal Distance Task,cb_10,22.0,temp_dist_trial,dist_items,qkpkxw,2.0,response,45,833.3400000000113,1700.0,1708.8800000000049,833.3400000000113,1700.0,1708.8800000000049,1.0,875.5399999999936,0.0,,Slider,Slider,4.0,object-56,temp_dist_trial,22.0,t_s_16_1,travel_shared,chapstick,10.0,competing,paired,t_s_16_1.jpg,Travel,,,sub-21
Desktop or Laptop,Windows 10,Firefox 139.0,1536x864,1536x779,Temporal Distance Task,cb_10,23.0,temp_dist_trial,num_items,zn7si1,1.0,response,2_ITEM,1106.8800000000047,1101.7000000000116,1106.8800000000047,1106.8800000000047,1101.7000000000116,1106.8800000000047,1.0,0.0,0.0,,Click Response,2_count,5.0,object-49,temp_dist_trial,23.0,t_s_05_1,travel_shared,neck pillow,10.0,competing,paired,t_s_05_1.jpg,Travel,,,sub-21
Desktop or Laptop,Windows 10,Firefox 139.0,1536x864,1536x779,Temporal Distance Task,cb_10,23.0,temp_dist_trial,dist_items,qkpkxw,2.0,info,,10.179999999993015,0.0,10.179999999993015,10.179999999993015,0.0,10.179999999993015,1.0,0.0,0.0,,Slider,Slider,4.0,object-56,temp_dist_trial,23.0,t_s_05_1,travel_shared,neck pillow,10.0,competing,paired,t_s_05_1.jpg,Travel,,,sub-21
Desktop or Laptop,Windows 10,Firefox 139.0,1536x864,1536x779,Temporal Distance Task,cb_10,23.0,temp_dist_trial,dist_items,qkpkxw,2.0,continue,,5277.179999999993,5268.1399999999985,5277.179999999993,5277.179999999993,5268.1399999999985,5277.179999999993,1.0,0.0,0.0,,Click To Continue,Next button,7.0,object-60,temp_dist_trial,23.0,t_s_05_1,travel_shared,neck pillow,10.0,competing,paired,t_s_05_1.jpg,Travel,,,sub-21
Desktop or Laptop,Windows 10,Firefox 139.0,1536x864,1536x779,Temporal Distance Task,cb_10,23.0,temp_dist_trial,dist_items,qkpkxw,2.0,response,39,4318.1399999999985,5268.1399999999985,5279.179999999993,4318.1399999999985,5268.1399999999985,5279.179999999993,1.0,961.0399999999936,0.0,,Slider,Slider,4.0,object-56,temp_dist_trial,23.0,t_s_05_1,travel_shared,neck pillow,10.0,competing,paired,t_s_05_1.jpg,Travel,,,sub-21
Desktop or Laptop,Windows 10,Firefox 139.0,1536x864,1536x779,Temporal Distance Task,cb_10,24.0,temp_dist_trial,num_items,zn7si1,1.0,response,1_ITEM,1333.319999999978,1316.659999999989,1333.319999999978,1333.319999999978,1316.659999999989,1333.319999999978,1.0,0.0,0.0,,Click Response,1_count,3.0,object-46,temp_dist_trial,24.0,t_s_02_1,travel_shared,water bottle,10.0,competing,paired,t_s_02_1.jpg,Travel,,,sub-21
Desktop or Laptop,Windows 10,Firefox 139.0,1536x864,1536x779,Temporal Distance Task,cb_10,25.0,temp_dist_trial,num_items,zn7si1,1.0,response,1_ITEM,906.3800000000048,901.7200000000012,906.3800000000048,906.3800000000048,901.7200000000012,906.3800000000048,1.0,0.0,0.0,,Click Response,1_count,3.0,object-46,temp_dist_trial,25.0,t_m_08_1,travel_Miami,flipflops,10.0,unique,paired,t_m_08_1.jpg,Travel,,,sub-21
Desktop or Laptop,Windows 10,Firefox 139.0,1536x864,1536x779,Temporal Distance Task,cb_10,26.0,temp_dist_trial,num_items,zn7si1,1.0,response,2_ITEM,1232.6600000000035,1216.6600000000035,1232.6600000000035,1232.6600000000035,1216.6600000000035,1232.6600000000035,1.0,0.0,0.0,,Click Response,2_count,5.0,object-49,temp_dist_trial,26.0,t_s_06_1,travel_shared,luggage,10.0,competing,paired,t_s_06_1.jpg,Travel,,,sub-21
Desktop or Laptop,Windows 10,Firefox 139.0,1536x864,1536x779,Temporal Distance Task,cb_10,26.0,temp_dist_trial,dist_items,qkpkxw,2.0,info,,13.0,0.0,13.0,13.0,0.0,13.0,1.0,0.0,0.0,,Slider,Slider,4.0,object-56,temp_dist_trial,26.0,t_s_06_1,travel_shared,luggage,10.0,competing,paired,t_s_06_1.jpg,Travel,,,sub-21
Desktop or Laptop,Windows 10,Firefox 139.0,1536x864,1536x779,Temporal Distance Task,cb_10,26.0,temp_dist_trial,dist_items,qkpkxw,2.0,continue,,1450.0,1433.3399999999967,1450.0,1450.0,1433.3399999999967,1450.0,1.0,0.0,0.0,,Click To Continue,Next button,7.0,object-60,temp_dist_trial,26.0,t_s_06_1,travel_shared,luggage,10.0,competing,paired,t_s_06_1.jpg,Travel,,,sub-21
Desktop or Laptop,Windows 10,Firefox 139.0,1536x864,1536x779,Temporal Distance Task,cb_10,26.0,temp_dist_trial,dist_items,qkpkxw,2.0,response,46,633.3399999999965,1433.3399999999967,1450.0,633.3399999999965,1433.3399999999967,1450.0,1.0,816.6600000000035,0.0,,Slider,Slider,4.0,object-56,temp_dist_trial,26.0,t_s_06_1,travel_shared,luggage,10.0,competing,paired,t_s_06_1.jpg,Travel,,,sub-21
Desktop or Laptop,Windows 10,Firefox 139.0,1536x864,1536x779,Temporal Distance Task,cb_10,27.0,temp_dist_trial,num_items,zn7si1,1.0,response,2_ITEM,1256.6600000000035,1251.6600000000035,1256.6600000000035,1256.6600000000035,1251.6600000000035,1256.6600000000035,1.0,0.0,0.0,,Click Response,2_count,5.0,object-49,temp_dist_trial,27.0,t_s_20_1,travel_shared,travel pill case,10.0,competing,paired,t_s_20_1.jpg,Travel,,,sub-21
Desktop or Laptop,Windows 10,Firefox 139.0,1536x864,1536x779,Temporal Distance Task,cb_10,27.0,temp_dist_trial,dist_items,qkpkxw,2.0,info,,11.0,0.0,11.0,11.0,0.0,11.0,1.0,0.0,0.0,,Slider,Slider,4.0,object-56,temp_dist_trial,27.0,t_s_20_1,travel_shared,travel pill case,10.0,competing,paired,t_s_20_1.jpg,Travel,,,sub-21
Desktop or Laptop,Windows 10,Firefox 139.0,1536x864,1536x779,Temporal Distance Task,cb_10,27.0,temp_dist_trial,dist_items,qkpkxw,2.0,continue,,1698.0,1683.3399999999967,1698.0,1698.0,1683.3399999999967,1698.0,1.0,0.0,0.0,,Click To Continue,Next button,7.0,object-60,temp_dist_trial,27.0,t_s_20_1,travel_shared,travel pill case,10.0,competing,paired,t_s_20_1.jpg,Travel,,,sub-21
Desktop or Laptop,Windows 10,Firefox 139.0,1536x864,1536x779,Temporal Distance Task,cb_10,27.0,temp_dist_trial,dist_items,qkpkxw,2.0,response,65,966.679999999993,1683.3399999999967,1699.0,966.679999999993,1683.3399999999967,1699.0,1.0,732.320000000007,0.0,,Slider,Slider,4.0,object-56,temp_dist_trial,27.0,t_s_20_1,travel_shared,travel pill case,10.0,competing,paired,t_s_20_1.jpg,Travel,,,sub-21
Desktop or Laptop,Windows 10,Firefox 139.0,1536x864,1536x779,Temporal Distance Task,cb_10,28.0,temp_dist_trial,num_items,zn7si1,1.0,response,2_ITEM,1856.6600000000033,1850.0,1856.6600000000033,1856.6600000000033,1850.0,1856.6600000000033,1.0,0.0,0.0,,Click Response,2_count,5.0,object-49,temp_dist_trial,28.0,t_i_08_1,travel_Iceland,thick socks,10.0,unique,paired,t_i_08_1.jpg,Travel,,,sub-21
Desktop or Laptop,Windows 10,Firefox 139.0,1536x864,1536x779,Temporal Distance Task,cb_10,28.0,temp_dist_trial,dist_items,qkpkxw,2.0,info,,11.660000000003492,0.0,11.660000000003492,11.660000000003492,0.0,11.660000000003492,1.0,0.0,0.0,,Slider,Slider,4.0,object-56,temp_dist_trial,28.0,t_i_08_1,travel_Iceland,thick socks,10.0,unique,paired,t_i_08_1.jpg,Travel,,,sub-21
Desktop or Laptop,Windows 10,Firefox 139.0,1536x864,1536x779,Temporal Distance Task,cb_10,28.0,temp_dist_trial,dist_items,qkpkxw,2.0,continue,,1495.6600000000033,1485.0599999999977,1495.6600000000033,1495.6600000000033,1485.0599999999977,1495.6600000000033,1.0,0.0,0.0,,Click To Continue,Next button,7.0,object-60,temp_dist_trial,28.0,t_i_08_1,travel_Iceland,thick socks,10.0,unique,paired,t_i_08_1.jpg,Travel,,,sub-21
Desktop or Laptop,Windows 10,Firefox 139.0,1536x864,1536x779,Temporal Distance Task,cb_10,28.0,temp_dist_trial,dist_items,qkpkxw,2.0,response,56,635.0599999999978,1485.0599999999977,1495.6600000000033,635.0599999999978,1485.0599999999977,1495.6600000000033,1.0,860.6000000000058,0.0,,Slider,Slider,4.0,object-56,temp_dist_trial,28.0,t_i_08_1,travel_Iceland,thick socks,10.0,unique,paired,t_i_08_1.jpg,Travel,,,sub-21
Desktop or Laptop,Windows 10,Firefox 139.0,1536x864,1536x779,Temporal Distance Task,cb_10,29.0,temp_dist_trial,num_items,zn7si1,1.0,response,1_ITEM,1357.6000000000058,1350.0,1357.6000000000058,1357.6000000000058,1350.0,1357.6000000000058,1.0,0.0,0.0,,Click Response,1_count,3.0,object-46,temp_dist_trial,29.0,t_s_11_1,travel_shared,eye mask,10.0,competing,paired,t_s_11_1.jpg,Travel,,,sub-21
Desktop or Laptop,Windows 10,Firefox 139.0,1536x864,1536x779,Temporal Distance Task,cb_10,30.0,temp_dist_trial,num_items,zn7si1,1.0,response,2_ITEM,1466.6000000000058,1450.0,1466.6000000000058,1466.6000000000058,1450.0,1466.6000000000058,1.0,0.0,0.0,,Click Response,2_count,5.0,object-49,temp_dist_trial,30.0,t_s_14_1,travel_shared,hand sanitizer,10.0,competing,paired,t_s_14_1.jpg,Travel,,,sub-21
Desktop or Laptop,Windows 10,Firefox 139.0,1536x864,1536x779,Temporal Distance Task,cb_10,30.0,temp_dist_trial,dist_items,qkpkxw,2.0,info,,11.600000000005819,0.0,11.600000000005819,11.600000000005819,0.0,11.600000000005819,1.0,0.0,0.0,,Slider,Slider,4.0,object-56,temp_dist_trial,30.0,t_s_14_1,travel_shared,hand sanitizer,10.0,competing,paired,t_s_14_1.jpg,Travel,,,sub-21
Desktop or Laptop,Windows 10,Firefox 139.0,1536x864,1536x779,Temporal Distance Task,cb_10,30.0,temp_dist_trial,dist_items,qkpkxw,2.0,continue,,2090.6000000000063,2085.040000000008,2090.6000000000063,2090.6000000000063,2085.040000000008,2090.6000000000063,1.0,0.0,0.0,,Click To Continue,Next button,7.0,object-60,temp_dist_trial,30.0,t_s_14_1,travel_shared,hand sanitizer,10.0,competing,paired,t_s_14_1.jpg,Travel,,,sub-21
Desktop or Laptop,Windows 10,Firefox 139.0,1536x864,1536x779,Temporal Distance Task,cb_10,30.0,temp_dist_trial,dist_items,qkpkxw,2.0,response,46,1101.7000000000116,2085.040000000008,2090.6000000000063,1101.7000000000116,2085.040000000008,2090.6000000000063,1.0,988.8999999999942,0.0,,Slider,Slider,4.0,object-56,temp_dist_trial,30.0,t_s_14_1,travel_shared,hand sanitizer,10.0,competing,paired,t_s_14_1.jpg,Travel,,,sub-21
Desktop or Laptop,Windows 10,Firefox 139.0,1536x864,1536x779,Temporal Distance Task,cb_10,31.0,temp_dist_trial,num_items,zn7si1,1.0,response,2_ITEM,1225.5599999999977,1216.6600000000035,1225.5599999999977,1225.5599999999977,1216.6600000000035,1225.5599999999977,1.0,0.0,0.0,,Click Response,2_count,5.0,object-49,temp_dist_trial,31.0,t_s_22_1,travel_shared,belt,10.0,competing,paired,t_s_22_1.jpg,Travel,,,sub-21
Desktop or Laptop,Windows 10,Firefox 139.0,1536x864,1536x779,Temporal Distance Task,cb_10,31.0,temp_dist_trial,dist_items,qkpkxw,2.0,info,,10.899999999994181,0.0,10.899999999994181,10.899999999994181,0.0,10.899999999994181,1.0,0.0,0.0,,Slider,Slider,4.0,object-56,temp_dist_trial,31.0,t_s_22_1,travel_shared,belt,10.0,competing,paired,t_s_22_1.jpg,Travel,,,sub-21
Desktop or Laptop,Windows 10,Firefox 139.0,1536x864,1536x779,Temporal Distance Task,cb_10,31.0,temp_dist_trial,dist_items,qkpkxw,2.0,continue,,1460.8999999999942,1451.6999999999966,1460.8999999999942,1460.8999999999942,1451.6999999999966,1460.8999999999942,1.0,0.0,0.0,,Click To Continue,Next button,7.0,object-60,temp_dist_trial,31.0,t_s_22_1,travel_shared,belt,10.0,competing,paired,t_s_22_1.jpg,Travel,,,sub-21
Desktop or Laptop,Windows 10,Firefox 139.0,1536x864,1536x779,Temporal Distance Task,cb_10,31.0,temp_dist_trial,dist_items,qkpkxw,2.0,response,43,766.679999999993,1451.6999999999966,1462.8999999999942,766.679999999993,1451.6999999999966,1462.8999999999942,1.0,696.2200000000012,0.0,,Slider,Slider,4.0,object-56,temp_dist_trial,31.0,t_s_22_1,travel_shared,belt,10.0,competing,paired,t_s_22_1.jpg,Travel,,,sub-21
Desktop or Laptop,Windows 10,Firefox 139.0,1536x864,1536x779,Temporal Distance Task,cb_10,32.0,temp_dist_trial,num_items,zn7si1,1.0,response,1_ITEM,1099.1999999999969,1083.3399999999963,1099.1999999999969,1099.1999999999969,1083.3399999999963,1099.1999999999969,1.0,0.0,0.0,,Click Response,1_count,3.0,object-46,temp_dist_trial,32.0,t_i_20_1,travel_Iceland,lantern,10.0,unique,paired,t_i_20_1.jpg,Travel,,,sub-21
Desktop or Laptop,Windows 10,Firefox 139.0,1536x864,1536x779,Temporal Distance Task,cb_10,33.0,temp_dist_trial,num_items,zn7si1,1.0,response,2_ITEM,1407.8600000000006,1400.0,1407.8600000000006,1407.8600000000006,1400.0,1407.8600000000006,1.0,0.0,0.0,,Click Response,2_count,5.0,object-49,temp_dist_trial,33.0,t_s_10_1,travel_shared,luggage lock,10.0,competing,single,t_s_10_1.jpg,Travel,,,sub-21
Desktop or Laptop,Windows 10,Firefox 139.0,1536x864,1536x779,Temporal Distance Task,cb_10,33.0,temp_dist_trial,dist_items,qkpkxw,2.0,info,,11.860000000000582,0.0,11.860000000000582,11.860000000000582,0.0,11.860000000000582,1.0,0.0,0.0,,Slider,Slider,4.0,object-56,temp_dist_trial,33.0,t_s_10_1,travel_shared,luggage lock,10.0,competing,single,t_s_10_1.jpg,Travel,,,sub-21
Desktop or Laptop,Windows 10,Firefox 139.0,1536x864,1536x779,Temporal Distance Task,cb_10,33.0,temp_dist_trial,dist_items,qkpkxw,2.0,continue,,2441.860000000001,2435.0,2441.860000000001,2441.860000000001,2435.0,2441.860000000001,1.0,0.0,0.0,,Click To Continue,Next button,7.0,object-60,temp_dist_trial,33.0,t_s_10_1,travel_shared,luggage lock,10.0,competing,single,t_s_10_1.jpg,Travel,,,sub-21
Desktop or Laptop,Windows 10,Firefox 139.0,1536x864,1536x779,Temporal Distance Task,cb_10,33.0,temp_dist_trial,dist_items,qkpkxw,2.0,response,62,1016.6600000000036,2435.0,2442.860000000001,1016.6600000000036,2435.0,2442.860000000001,1.0,1426.1999999999966,0.0,,Slider,Slider,4.0,object-56,temp_dist_trial,33.0,t_s_10_1,travel_shared,luggage lock,10.0,competing,single,t_s_10_1.jpg,Travel,,,sub-21
Desktop or Laptop,Windows 10,Firefox 139.0,1536x864,1536x779,Temporal Distance Task,cb_10,34.0,temp_dist_trial,num_items,zn7si1,1.0,response,1_ITEM,1699.9999999999854,1683.3399999999967,1699.9999999999854,1699.9999999999854,1683.3399999999967,1699.9999999999854,1.0,0.0,0.0,,Click Response,1_count,3.0,object-46,temp_dist_trial,34.0,t_s_13_1,travel_shared,contact lens case,10.0,competing,single,t_s_13_1.jpg,Travel,,,sub-21
Desktop or Laptop,Windows 10,Firefox 139.0,1536x864,1536x779,Temporal Distance Task,cb_10,35.0,temp_dist_trial,num_items,zn7si1,1.0,response,2_ITEM,1106.520000000004,1101.3600000000006,1106.520000000004,1106.520000000004,1101.3600000000006,1106.520000000004,1.0,0.0,0.0,,Click Response,2_count,5.0,object-49,temp_dist_trial,35.0,t_s_08_1,travel_shared,hand lotion,10.0,competing,paired,t_s_08_1.jpg,Travel,,,sub-21
Desktop or Laptop,Windows 10,Firefox 139.0,1536x864,1536x779,Temporal Distance Task,cb_10,35.0,temp_dist_trial,dist_items,qkpkxw,2.0,info,,10.160000000003492,0.0,10.160000000003492,10.160000000003492,0.0,10.160000000003492,1.0,0.0,0.0,,Slider,Slider,4.0,object-56,temp_dist_trial,35.0,t_s_08_1,travel_shared,hand lotion,10.0,competing,paired,t_s_08_1.jpg,Travel,,,sub-21
Desktop or Laptop,Windows 10,Firefox 139.0,1536x864,1536x779,Temporal Distance Task,cb_10,35.0,temp_dist_trial,dist_items,qkpkxw,2.0,continue,,2816.6799999999935,2800.0,2816.6799999999935,2816.6799999999935,2800.0,2816.6799999999935,1.0,0.0,0.0,,Click To Continue,Next button,7.0,object-60,temp_dist_trial,35.0,t_s_08_1,travel_shared,hand lotion,10.0,competing,paired,t_s_08_1.jpg,Travel,,,sub-21
Desktop or Laptop,Windows 10,Firefox 139.0,1536x864,1536x779,Temporal Distance Task,cb_10,35.0,temp_dist_trial,dist_items,qkpkxw,2.0,response,70,2133.320000000007,2800.0,2816.6799999999935,2133.320000000007,2800.0,2816.6799999999935,1.0,683.3599999999859,0.0,,Slider,Slider,4.0,object-56,temp_dist_trial,35.0,t_s_08_1,travel_shared,hand lotion,10.0,competing,paired,t_s_08_1.jpg,Travel,,,sub-21
Desktop or Laptop,Windows 10,Firefox 139.0,1536x864,1536x779,Temporal Distance Task,cb_10,36.0,temp_dist_trial,num_items,zn7si1,1.0,response,2_ITEM,1947.1600000000033,1934.8999999999944,1947.1600000000033,1947.1600000000033,1934.8999999999944,1947.1600000000033,1.0,0.0,0.0,,Click Response,2_count,5.0,object-49,temp_dist_trial,36.0,t_s_07_1,travel_shared,phone charger cable,10.0,competing,paired,t_s_07_1.jpg,Travel,,,sub-21
Desktop or Laptop,Windows 10,Firefox 139.0,1536x864,1536x779,Temporal Distance Task,cb_10,36.0,temp_dist_trial,dist_items,qkpkxw,2.0,info,,10.260000000009313,0.0,10.260000000009313,10.260000000009313,0.0,10.260000000009313,1.0,0.0,0.0,,Slider,Slider,4.0,object-56,temp_dist_trial,36.0,t_s_07_1,travel_shared,phone charger cable,10.0,competing,paired,t_s_07_1.jpg,Travel,,,sub-21
Desktop or Laptop,Windows 10,Firefox 139.0,1536x864,1536x779,Temporal Distance Task,cb_10,36.0,temp_dist_trial,dist_items,qkpkxw,2.0,continue,,2192.2600000000093,2183.3399999999965,2192.2600000000093,2192.2600000000093,2183.3399999999965,2192.2600000000093,1.0,0.0,0.0,,Click To Continue,Next button,7.0,object-60,temp_dist_trial,36.0,t_s_07_1,travel_shared,phone charger cable,10.0,competing,paired,t_s_07_1.jpg,Travel,,,sub-21
Desktop or Laptop,Windows 10,Firefox 139.0,1536x864,1536x779,Temporal Distance Task,cb_10,36.0,temp_dist_trial,dist_items,qkpkxw,2.0,response,51,716.6600000000035,2183.3399999999965,2192.2600000000093,716.6600000000035,2183.3399999999965,2192.2600000000093,1.0,1475.6000000000058,0.0,,Slider,Slider,4.0,object-56,temp_dist_trial,36.0,t_s_07_1,travel_shared,phone charger cable,10.0,competing,paired,t_s_07_1.jpg,Travel,,,sub-21
Desktop or Laptop,Windows 10,Firefox 139.0,1536x864,1536x779,Temporal Distance Task,cb_10,37.0,temp_dist_trial,num_items,zn7si1,1.0,response,1_ITEM,2351.640000000014,2334.9800000000105,2351.640000000014,2351.640000000014,2334.9800000000105,2351.640000000014,1.0,0.0,0.0,,Click Response,1_count,3.0,object-46,temp_dist_trial,37.0,t_m_06_1,travel_Miami,handheld fan,10.0,unique,paired,t_m_06_1.jpg,Travel,,,sub-21
Desktop or Laptop,Windows 10,Firefox 139.0,1536x864,1536x779,Temporal Distance Task,cb_10,38.0,temp_dist_trial,num_items,zn7si1,1.0,response,2_ITEM,1313.9400000000023,1300.0199999999895,1313.9400000000023,1313.9400000000023,1300.0199999999895,1313.9400000000023,1.0,0.0,0.0,,Click Response,2_count,5.0,object-49,temp_dist_trial,38.0,t_s_18_1,travel_shared,first aid kit,10.0,competing,paired,t_s_18_1.jpg,Travel,,,sub-21
Desktop or Laptop,Windows 10,Firefox 139.0,1536x864,1536x779,Temporal Distance Task,cb_10,38.0,temp_dist_trial,dist_items,qkpkxw,2.0,info,,12.920000000012806,0.0,12.920000000012806,12.920000000012806,0.0,12.920000000012806,1.0,0.0,0.0,,Slider,Slider,4.0,object-56,temp_dist_trial,38.0,t_s_18_1,travel_shared,first aid kit,10.0,competing,paired,t_s_18_1.jpg,Travel,,,sub-21
Desktop or Laptop,Windows 10,Firefox 139.0,1536x864,1536x779,Temporal Distance Task,cb_10,38.0,temp_dist_trial,dist_items,qkpkxw,2.0,continue,,2395.9200000000133,2385.0200000000186,2395.9200000000133,2395.9200000000133,2385.0200000000186,2395.9200000000133,1.0,0.0,0.0,,Click To Continue,Next button,7.0,object-60,temp_dist_trial,38.0,t_s_18_1,travel_shared,first aid kit,10.0,competing,paired,t_s_18_1.jpg,Travel,,,sub-21
Desktop or Laptop,Windows 10,Firefox 139.0,1536x864,1536x779,Temporal Distance Task,cb_10,38.0,temp_dist_trial,dist_items,qkpkxw,2.0,response,67,1351.680000000022,2385.0200000000186,2399.9200000000133,1351.680000000022,2385.0200000000186,2399.9200000000133,1.0,1048.2399999999907,0.0,,Slider,Slider,4.0,object-56,temp_dist_trial,38.0,t_s_18_1,travel_shared,first aid kit,10.0,competing,paired,t_s_18_1.jpg,Travel,,,sub-21
Desktop or Laptop,Windows 10,Firefox 139.0,1536x864,1536x779,Temporal Distance Task,cb_10,39.0,temp_dist_trial,num_items,zn7si1,1.0,response,1_ITEM,1333.320000000007,1316.6600000000035,1333.320000000007,1333.320000000007,1316.6600000000035,1333.320000000007,1.0,0.0,0.0,,Click Response,1_count,3.0,object-46,temp_dist_trial,39.0,t_s_09_1,travel_shared,wallet,10.0,competing,paired,t_s_09_1.jpg,Travel,,,sub-21
Desktop or Laptop,Windows 10,Firefox 139.0,1536x864,1536x779,Temporal Distance Task,cb_10,40.0,temp_dist_trial,num_items,zn7si1,1.0,response,2_ITEM,1050.0199999999895,1033.3399999999963,1050.0199999999895,1050.0199999999895,1033.3399999999963,1050.0199999999895,1.0,0.0,0.0,,Click Response,2_count,5.0,object-49,temp_dist_trial,40.0,t_s_03_1,travel_shared,portable charger,10.0,competing,paired,t_s_03_1.jpg,Travel,,,sub-21
Desktop or Laptop,Windows 10,Firefox 139.0,1536x864,1536x779,Temporal Distance Task,cb_10,40.0,temp_dist_trial,dist_items,qkpkxw,2.0,info,,10.899999999994181,0.0,10.899999999994181,10.899999999994181,0.0,10.899999999994181,1.0,0.0,0.0,,Slider,Slider,4.0,object-56,temp_dist_trial,40.0,t_s_03_1,travel_shared,portable charger,10.0,competing,paired,t_s_03_1.jpg,Travel,,,sub-21
Desktop or Laptop,Windows 10,Firefox 139.0,1536x864,1536x779,Temporal Distance Task,cb_10,40.0,temp_dist_trial,dist_items,qkpkxw,2.0,continue,,2034.8999999999944,2018.2599999999798,2034.8999999999944,2034.8999999999944,2018.2599999999798,2034.8999999999944,1.0,0.0,0.0,,Click To Continue,Next button,7.0,object-60,temp_dist_trial,40.0,t_s_03_1,travel_shared,portable charger,10.0,competing,paired,t_s_03_1.jpg,Travel,,,sub-21
Desktop or Laptop,Windows 10,Firefox 139.0,1536x864,1536x779,Temporal Distance Task,cb_10,40.0,temp_dist_trial,dist_items,qkpkxw,2.0,response,60,1134.9400000000023,2018.2599999999798,2034.8999999999944,1134.9400000000023,2018.2599999999798,2034.8999999999944,1.0,899.9599999999921,0.0,,Slider,Slider,4.0,object-56,temp_dist_trial,40.0,t_s_03_1,travel_shared,portable charger,10.0,competing,paired,t_s_03_1.jpg,Travel,,,sub-21
Desktop or Laptop,Windows 10,Firefox 139.0,1536x864,1536x779,Temporal Distance Task,cb_10,41.0,temp_dist_trial,num_items,zn7si1,1.0,response,1_ITEM,1130.640000000014,1116.680000000022,1130.640000000014,1130.640000000014,1116.680000000022,1130.640000000014,1.0,0.0,0.0,,Click Response,1_count,3.0,object-46,temp_dist_trial,41.0,t_s_23_1,travel_shared,ball cap,10.0,competing,single,t_s_23_1.jpg,Travel,,,sub-21
Desktop or Laptop,Windows 10,Firefox 139.0,1536x864,1536x779,Temporal Distance Task,cb_10,42.0,temp_dist_trial,num_items,zn7si1,1.0,response,1_ITEM,1691.959999999992,1685.039999999979,1691.959999999992,1691.959999999992,1685.039999999979,1691.959999999992,1.0,0.0,0.0,,Click Response,1_count,3.0,object-46,temp_dist_trial,42.0,t_m_03_1,travel_Miami,wetsuit,10.0,unique,paired,t_m_03_1.jpg,Travel,,,sub-21
Desktop or Laptop,Windows 10,Firefox 139.0,1536x864,1536x779,Temporal Distance Task,cb_10,43.0,temp_dist_trial,num_items,zn7si1,1.0,response,1_ITEM,1133.320000000007,1116.6600000000037,1133.320000000007,1133.320000000007,1116.6600000000037,1133.320000000007,1.0,0.0,0.0,,Click Response,1_count,3.0,object-46,temp_dist_trial,43.0,t_s_15_1,travel_shared,luggage tag,10.0,competing,single,t_s_15_1.jpg,Travel,,,sub-21
Desktop or Laptop,Windows 10,Firefox 139.0,1536x864,1536x779,Temporal Distance Task,cb_10,44.0,temp_dist_trial,num_items,zn7si1,1.0,response,1_ITEM,898.2600000000093,883.3399999999965,898.2600000000093,898.2600000000093,883.3399999999965,898.2600000000093,1.0,0.0,0.0,,Click Response,1_count,3.0,object-46,temp_dist_trial,44.0,t_m_09_1,travel_Miami,beach towel,10.0,unique,single,t_m_09_1.jpg,Travel,,,sub-21
Desktop or Laptop,Windows 10,Firefox 139.0,1536x864,1536x779,Temporal Distance Task,cb_10,45.0,temp_dist_trial,num_items,zn7si1,1.0,response,1_ITEM,1116.6599999999744,1100.0,1116.6599999999744,1116.6599999999744,1100.0,1116.6599999999744,1.0,0.0,0.0,,Click Response,1_count,3.0,object-46,temp_dist_trial,45.0,t_i_11_1,travel_Iceland,headlamp,10.0,unique,single,t_i_11_1.jpg,Travel,,,sub-21
Desktop or Laptop,Windows 10,Firefox 139.0,1536x864,1536x779,Temporal Distance Task,cb_10,46.0,temp_dist_trial,num_items,zn7si1,1.0,response,1_ITEM,935.0599999999976,918.3800000000048,935.0599999999976,935.0599999999976,918.3800000000048,935.0599999999976,1.0,0.0,0.0,,Click Response,1_count,3.0,object-46,temp_dist_trial,46.0,t_m_16_1,travel_Miami,flippers,10.0,unique,paired,t_m_16_1.jpg,Travel,,,sub-21
Desktop or Laptop,Windows 10,Firefox 139.0,1536x864,1536x779,Temporal Distance Task,cb_10,47.0,temp_dist_trial,num_items,zn7si1,1.0,response,1_ITEM,1114.540000000008,1100.0,1114.540000000008,1114.540000000008,1100.0,1114.540000000008,1.0,0.0,0.0,,Click Response,1_count,3.0,object-46,temp_dist_trial,47.0,t_i_01_1,travel_Iceland,gloves,10.0,unique,single,t_i_01_1.jpg,Travel,,,sub-21
Desktop or Laptop,Windows 10,Firefox 139.0,1536x864,1536x779,Temporal Distance Task,cb_10,48.0,temp_dist_trial,num_items,zn7si1,1.0,response,1_ITEM,999.9800000000104,983.320000000007,999.9800000000104,999.9800000000104,983.320000000007,999.9800000000104,1.0,0.0,0.0,,Click Response,1_count,3.0,object-46,temp_dist_trial,48.0,t_m_07_1,travel_Miami,sunglasses,10.0,unique,paired,t_m_07_1.jpg,Travel,,,sub-21
Desktop or Laptop,Windows 10,Firefox 139.0,1536x864,1536x779,Temporal Distance Task,cb_10,2.0,temp_eventStart,Screen 1,dgtyxe,1.0,continue,,1812.2200000000007,1801.640000000014,1812.2200000000007,1812.2200000000007,1801.640000000014,1812.2200000000007,1.0,0.0,0.0,,Click To Continue,Next Button,3.0,object-43,temp_eventStart,,,Student,,,,,,,,,sub-21
Desktop or Laptop,Windows 10,Firefox 139.0,1536x864,1536x779,Temporal Distance Task,cb_10,49.0,temp_dist_trial,num_items,zn7si1,1.0,response,1_ITEM,1109.5799999999872,1100.0,1109.5799999999872,1109.5799999999872,1100.0,1109.5799999999872,1.0,0.0,0.0,,Click Response,1_count,3.0,object-46,temp_dist_trial,1.0,s_sh_14_1,student_shared,printer,10.0,competing,paired,s_sh_14_1.jpg,Student,,,sub-21
Desktop or Laptop,Windows 10,Firefox 139.0,1536x864,1536x779,Temporal Distance Task,cb_10,50.0,temp_dist_trial,num_items,zn7si1,1.0,response,2_ITEM,1191.5799999999872,1183.3399999999965,1191.5799999999872,1191.5799999999872,1183.3399999999965,1191.5799999999872,1.0,0.0,0.0,,Click Response,2_count,5.0,object-49,temp_dist_trial,2.0,s_sh_13_1,student_shared,index cards,10.0,competing,paired,s_sh_13_1.jpg,Student,,,sub-21
Desktop or Laptop,Windows 10,Firefox 139.0,1536x864,1536x779,Temporal Distance Task,cb_10,50.0,temp_dist_trial,dist_items,qkpkxw,2.0,info,,13.239999999990687,0.0,13.239999999990687,13.239999999990687,0.0,13.239999999990687,1.0,0.0,0.0,,Slider,Slider,4.0,object-56,temp_dist_trial,2.0,s_sh_13_1,student_shared,index cards,10.0,competing,paired,s_sh_13_1.jpg,Student,,,sub-21
Desktop or Laptop,Windows 10,Firefox 139.0,1536x864,1536x779,Temporal Distance Task,cb_10,50.0,temp_dist_trial,dist_items,qkpkxw,2.0,continue,,1607.2399999999911,1601.5599999999977,1607.2399999999911,1607.2399999999911,1601.5599999999977,1607.2399999999911,1.0,0.0,0.0,,Click To Continue,Next button,7.0,object-60,temp_dist_trial,2.0,s_sh_13_1,student_shared,index cards,10.0,competing,paired,s_sh_13_1.jpg,Student,,,sub-21
Desktop or Laptop,Windows 10,Firefox 139.0,1536x864,1536x779,Temporal Distance Task,cb_10,50.0,temp_dist_trial,dist_items,qkpkxw,2.0,response,62,984.8800000000048,1601.5599999999977,1610.2399999999911,984.8800000000048,1601.5599999999977,1610.2399999999911,1.0,625.3599999999859,0.0,,Slider,Slider,4.0,object-56,temp_dist_trial,2.0,s_sh_13_1,student_shared,index cards,10.0,competing,paired,s_sh_13_1.jpg,Student,,,sub-21
Desktop or Laptop,Windows 10,Firefox 139.0,1536x864,1536x779,Temporal Distance Task,cb_10,51.0,temp_dist_trial,num_items,zn7si1,1.0,response,1_ITEM,1475.679999999993,1466.6600000000033,1475.679999999993,1475.679999999993,1466.6600000000033,1475.679999999993,1.0,0.0,0.0,,Click Response,1_count,3.0,object-46,temp_dist_trial,3.0,s_sh_01_1,student_shared,notebook,10.0,competing,single,s_sh_01_1.jpg,Student,,,sub-21
Desktop or Laptop,Windows 10,Firefox 139.0,1536x864,1536x779,Temporal Distance Task,cb_10,52.0,temp_dist_trial,num_items,zn7si1,1.0,response,2_ITEM,1500.0199999999895,1483.3399999999967,1500.0199999999895,1500.0199999999895,1483.3399999999967,1500.0199999999895,1.0,0.0,0.0,,Click Response,2_count,5.0,object-49,temp_dist_trial,4.0,s_s_15_1,student_stem,jumper cables,10.0,unique,paired,s_s_15_1.jpg,Student,,,sub-21
Desktop or Laptop,Windows 10,Firefox 139.0,1536x864,1536x779,Temporal Distance Task,cb_10,52.0,temp_dist_trial,dist_items,qkpkxw,2.0,info,,10.679999999993015,0.0,10.679999999993015,10.679999999993015,0.0,10.679999999993015,1.0,0.0,0.0,,Slider,Slider,4.0,object-56,temp_dist_trial,4.0,s_s_15_1,student_stem,jumper cables,10.0,unique,paired,s_s_15_1.jpg,Student,,,sub-21
Desktop or Laptop,Windows 10,Firefox 139.0,1536x864,1536x779,Temporal Distance Task,cb_10,52.0,temp_dist_trial,dist_items,qkpkxw,2.0,continue,,1995.679999999993,1985.039999999979,1995.679999999993,1995.679999999993,1985.039999999979,1995.679999999993,1.0,0.0,0.0,,Click To Continue,Next button,7.0,object-60,temp_dist_trial,4.0,s_s_15_1,student_stem,jumper cables,10.0,unique,paired,s_s_15_1.jpg,Student,,,sub-21
Desktop or Laptop,Windows 10,Firefox 139.0,1536x864,1536x779,Temporal Distance Task,cb_10,52.0,temp_dist_trial,dist_items,qkpkxw,2.0,response,59,1018.3599999999859,1985.039999999979,1995.679999999993,1018.3599999999859,1985.039999999979,1995.679999999993,1.0,977.320000000007,0.0,,Slider,Slider,4.0,object-56,temp_dist_trial,4.0,s_s_15_1,student_stem,jumper cables,10.0,unique,paired,s_s_15_1.jpg,Student,,,sub-21
Desktop or Laptop,Windows 10,Firefox 139.0,1536x864,1536x779,Temporal Distance Task,cb_10,53.0,temp_dist_trial,num_items,zn7si1,1.0,response,2_ITEM,1573.640000000014,1566.6600000000033,1573.640000000014,1573.640000000014,1566.6600000000033,1573.640000000014,1.0,0.0,0.0,,Click Response,2_count,5.0,object-49,temp_dist_trial,5.0,s_s_08_1,student_stem,soldering iron,10.0,unique,paired,s_s_08_1.jpg,Student,,,sub-21
Desktop or Laptop,Windows 10,Firefox 139.0,1536x864,1536x779,Temporal Distance Task,cb_10,53.0,temp_dist_trial,dist_items,qkpkxw,2.0,info,,12.980000000010474,0.0,12.980000000010474,12.980000000010474,0.0,12.980000000010474,1.0,0.0,0.0,,Slider,Slider,4.0,object-56,temp_dist_trial,5.0,s_s_08_1,student_stem,soldering iron,10.0,unique,paired,s_s_08_1.jpg,Student,,,sub-21
Desktop or Laptop,Windows 10,Firefox 139.0,1536x864,1536x779,Temporal Distance Task,cb_10,53.0,temp_dist_trial,dist_items,qkpkxw,2.0,continue,,1507.9800000000105,1501.7200000000012,1507.9800000000105,1507.9800000000105,1501.7200000000012,1507.9800000000105,1.0,0.0,0.0,,Click To Continue,Next button,7.0,object-60,temp_dist_trial,5.0,s_s_08_1,student_stem,soldering iron,10.0,unique,paired,s_s_08_1.jpg,Student,,,sub-21
Desktop or Laptop,Windows 10,Firefox 139.0,1536x864,1536x779,Temporal Distance Task,cb_10,53.0,temp_dist_trial,dist_items,qkpkxw,2.0,response,68,918.3800000000048,1501.7200000000012,1507.9800000000105,918.3800000000048,1501.7200000000012,1507.9800000000105,1.0,589.6000000000057,0.0,,Slider,Slider,4.0,object-56,temp_dist_trial,5.0,s_s_08_1,student_stem,soldering iron,10.0,unique,paired,s_s_08_1.jpg,Student,,,sub-21
Desktop or Laptop,Windows 10,Firefox 139.0,1536x864,1536x779,Temporal Distance Task,cb_10,54.0,temp_dist_trial,num_items,zn7si1,1.0,response,1_ITEM,1273.2600000000093,1266.6600000000035,1273.2600000000093,1273.2600000000093,1266.6600000000035,1273.2600000000093,1.0,0.0,0.0,,Click Response,1_count,3.0,object-46,temp_dist_trial,6.0,s_s_09_1,student_stem,multimeter,10.0,unique,paired,s_s_09_1.jpg,Student,,,sub-21
Desktop or Laptop,Windows 10,Firefox 139.0,1536x864,1536x779,Temporal Distance Task,cb_10,55.0,temp_dist_trial,num_items,zn7si1,1.0,response,1_ITEM,1163.6000000000058,1150.0,1163.6000000000058,1163.6000000000058,1150.0,1163.6000000000058,1.0,0.0,0.0,,Click Response,1_count,3.0,object-46,temp_dist_trial,7.0,s_sh_04_1,student_shared,laptop stand,10.0,competing,single,s_sh_04_1.jpg,Student,,,sub-21
Desktop or Laptop,Windows 10,Firefox 139.0,1536x864,1536x779,Temporal Distance Task,cb_10,56.0,temp_dist_trial,num_items,zn7si1,1.0,response,2_ITEM,1025.6000000000058,1018.3600000000152,1025.6000000000058,1025.6000000000058,1018.3600000000152,1025.6000000000058,1.0,0.0,0.0,,Click Response,2_count,5.0,object-49,temp_dist_trial,8.0,s_sh_06_1,student_shared,clipboard,10.0,competing,paired,s_sh_06_1.jpg,Student,,,sub-21
Desktop or Laptop,Windows 10,Firefox 139.0,1536x864,1536x779,Temporal Distance Task,cb_10,56.0,temp_dist_trial,dist_items,qkpkxw,2.0,info,,9.239999999990687,0.0,9.239999999990687,9.239999999990687,0.0,9.239999999990687,1.0,0.0,0.0,,Slider,Slider,4.0,object-56,temp_dist_trial,8.0,s_sh_06_1,student_shared,clipboard,10.0,competing,paired,s_sh_06_1.jpg,Student,,,sub-21
Desktop or Laptop,Windows 10,Firefox 139.0,1536x864,1536x779,Temporal Distance Task,cb_10,56.0,temp_dist_trial,dist_items,qkpkxw,2.0,continue,,2149.2399999999907,2133.319999999978,2149.2399999999907,2149.2399999999907,2133.319999999978,2149.2399999999907,1.0,0.0,0.0,,Click To Continue,Next button,7.0,object-60,temp_dist_trial,8.0,s_sh_06_1,student_shared,clipboard,10.0,competing,paired,s_sh_06_1.jpg,Student,,,sub-21
Desktop or Laptop,Windows 10,Firefox 139.0,1536x864,1536x779,Temporal Distance Task,cb_10,56.0,temp_dist_trial,dist_items,qkpkxw,2.0,response,48,983.319999999978,2133.319999999978,2149.9799999999523,983.319999999978,2133.319999999978,2149.9799999999523,1.0,1166.6599999999746,0.0,,Slider,Slider,4.0,object-56,temp_dist_trial,8.0,s_sh_06_1,student_shared,clipboard,10.0,competing,paired,s_sh_06_1.jpg,Student,,,sub-21
Desktop or Laptop,Windows 10,Firefox 139.0,1536x864,1536x779,Temporal Distance Task,cb_10,57.0,temp_dist_trial,num_items,zn7si1,1.0,response,1_ITEM,1416.6599999999744,1400.0,1416.6599999999744,1416.6599999999744,1400.0,1416.6599999999744,1.0,0.0,0.0,,Click Response,1_count,3.0,object-46,temp_dist_trial,9.0,s_sh_07_1,student_shared,ruler,10.0,competing,paired,s_sh_07_1.jpg,Student,,,sub-21
Desktop or Laptop,Windows 10,Firefox 139.0,1536x864,1536x779,Temporal Distance Task,cb_10,58.0,temp_dist_trial,num_items,zn7si1,1.0,response,1_ITEM,772.9200000000128,768.3400000000256,772.9200000000128,772.9200000000128,768.3400000000256,772.9200000000128,1.0,0.0,0.0,,Click Response,1_count,3.0,object-46,temp_dist_trial,10.0,s_a_12_1,student_art,saxophone,10.0,unique,paired,s_a_12_1.jpg,Student,,,sub-21
Desktop or Laptop,Windows 10,Firefox 139.0,1536x864,1536x779,Temporal Distance Task,cb_10,59.0,temp_dist_trial,num_items,zn7si1,1.0,response,2_ITEM,1072.5799999999872,1066.6599999999744,1072.5799999999872,1072.5799999999872,1066.6599999999744,1072.5799999999872,1.0,0.0,0.0,,Click Response,2_count,5.0,object-49,temp_dist_trial,11.0,s_sh_05_1,student_shared,laptop,10.0,competing,paired,s_sh_05_1.jpg,Student,,,sub-21
Desktop or Laptop,Windows 10,Firefox 139.0,1536x864,1536x779,Temporal Distance Task,cb_10,59.0,temp_dist_trial,dist_items,qkpkxw,2.0,info,,8.920000000012807,0.0,8.920000000012807,8.920000000012807,0.0,8.920000000012807,1.0,0.0,0.0,,Slider,Slider,4.0,object-56,temp_dist_trial,11.0,s_sh_05_1,student_shared,laptop,10.0,competing,paired,s_sh_05_1.jpg,Student,,,sub-21
Desktop or Laptop,Windows 10,Firefox 139.0,1536x864,1536x779,Temporal Distance Task,cb_10,59.0,temp_dist_trial,dist_items,qkpkxw,2.0,continue,,1476.9200000000128,1466.680000000022,1476.9200000000128,1476.9200000000128,1466.680000000022,1476.9200000000128,1.0,0.0,0.0,,Click To Continue,Next button,7.0,object-60,temp_dist_trial,11.0,s_sh_05_1,student_shared,laptop,10.0,competing,paired,s_sh_05_1.jpg,Student,,,sub-21
Desktop or Laptop,Windows 10,Firefox 139.0,1536x864,1536x779,Temporal Distance Task,cb_10,59.0,temp_dist_trial,dist_items,qkpkxw,2.0,response,60,783.3400000000256,1466.680000000022,1478.9200000000128,783.3400000000256,1466.680000000022,1478.9200000000128,1.0,695.5799999999872,0.0,,Slider,Slider,4.0,object-56,temp_dist_trial,11.0,s_sh_05_1,student_shared,laptop,10.0,competing,paired,s_sh_05_1.jpg,Student,,,sub-21
Desktop or Laptop,Windows 10,Firefox 139.0,1536x864,1536x779,Temporal Distance Task,cb_10,60.0,temp_dist_trial,num_items,zn7si1,1.0,response,2_ITEM,1181.2399999999907,1166.6600000000035,1181.2399999999907,1181.2399999999907,1166.6600000000035,1181.2399999999907,1.0,0.0,0.0,,Click Response,2_count,5.0,object-49,temp_dist_trial,12.0,s_a_18_1,student_art,tutu,10.0,unique,paired,s_a_18_1.jpg,Student,,,sub-21
Desktop or Laptop,Windows 10,Firefox 139.0,1536x864,1536x779,Temporal Distance Task,cb_10,60.0,temp_dist_trial,dist_items,qkpkxw,2.0,info,,8.899999999994181,0.0,8.899999999994181,8.899999999994181,0.0,8.899999999994181,1.0,0.0,0.0,,Slider,Slider,4.0,object-56,temp_dist_trial,12.0,s_a_18_1,student_art,tutu,10.0,unique,paired,s_a_18_1.jpg,Student,,,sub-21
Desktop or Laptop,Windows 10,Firefox 139.0,1536x864,1536x779,Temporal Distance Task,cb_10,60.0,temp_dist_trial,dist_items,qkpkxw,2.0,continue,,1633.320000000007,1616.6600000000033,1633.320000000007,1633.320000000007,1616.6600000000033,1633.320000000007,1.0,0.0,0.0,,Click To Continue,Next button,7.0,object-60,temp_dist_trial,12.0,s_a_18_1,student_art,tutu,10.0,unique,paired,s_a_18_1.jpg,Student,,,sub-21
Desktop or Laptop,Windows 10,Firefox 139.0,1536x864,1536x779,Temporal Distance Task,cb_10,60.0,temp_dist_trial,dist_items,qkpkxw,2.0,response,73,683.3399999999965,1616.6600000000033,1633.320000000007,683.3399999999965,1616.6600000000033,1633.320000000007,1.0,949.9800000000104,0.0,,Slider,Slider,4.0,object-56,temp_dist_trial,12.0,s_a_18_1,student_art,tutu,10.0,unique,paired,s_a_18_1.jpg,Student,,,sub-21
Desktop or Laptop,Windows 10,Firefox 139.0,1536x864,1536x779,Temporal Distance Task,cb_10,61.0,temp_dist_trial,num_items,zn7si1,1.0,response,1_ITEM,1533.359999999986,1516.679999999993,1533.359999999986,1533.359999999986,1516.679999999993,1533.359999999986,1.0,0.0,0.0,,Click Response,1_count,3.0,object-46,temp_dist_trial,13.0,s_s_02_1,student_stem,flask,10.0,unique,paired,s_s_02_1.jpg,Student,,,sub-21
Desktop or Laptop,Windows 10,Firefox 139.0,1536x864,1536x779,Temporal Distance Task,cb_10,62.0,temp_dist_trial,num_items,zn7si1,1.0,response,1_ITEM,1207.5599999999977,1201.679999999993,1207.5599999999977,1207.5599999999977,1201.679999999993,1207.5599999999977,1.0,0.0,0.0,,Click Response,1_count,3.0,object-46,temp_dist_trial,14.0,s_sh_17_1,student_shared,wireless mouse,10.0,competing,single,s_sh_17_1.jpg,Student,,,sub-21
Desktop or Laptop,Windows 10,Firefox 139.0,1536x864,1536x779,Temporal Distance Task,cb_10,63.0,temp_dist_trial,num_items,zn7si1,1.0,response,2_ITEM,1272.8800000000047,1266.6600000000035,1272.8800000000047,1272.8800000000047,1266.6600000000035,1272.8800000000047,1.0,0.0,0.0,,Click Response,2_count,5.0,object-49,temp_dist_trial,15.0,s_sh_24_1,student_shared,desk organizer,10.0,competing,paired,s_sh_24_1.jpg,Student,,,sub-21
Desktop or Laptop,Windows 10,Firefox 139.0,1536x864,1536x779,Temporal Distance Task,cb_10,63.0,temp_dist_trial,dist_items,qkpkxw,2.0,info,,9.220000000001164,0.0,9.220000000001164,9.220000000001164,0.0,9.220000000001164,1.0,0.0,0.0,,Slider,Slider,4.0,object-56,temp_dist_trial,15.0,s_sh_24_1,student_shared,desk organizer,10.0,competing,paired,s_sh_24_1.jpg,Student,,,sub-21
Desktop or Laptop,Windows 10,Firefox 139.0,1536x864,1536x779,Temporal Distance Task,cb_10,63.0,temp_dist_trial,dist_items,qkpkxw,2.0,continue,,1791.2200000000012,1783.3399999999967,1791.2200000000012,1791.2200000000012,1783.3399999999967,1791.2200000000012,1.0,0.0,0.0,,Click To Continue,Next button,7.0,object-60,temp_dist_trial,15.0,s_sh_24_1,student_shared,desk organizer,10.0,competing,paired,s_sh_24_1.jpg,Student,,,sub-21
Desktop or Laptop,Windows 10,Firefox 139.0,1536x864,1536x779,Temporal Distance Task,cb_10,63.0,temp_dist_trial,dist_items,qkpkxw,2.0,response,54,983.3399999999964,1783.3399999999967,1792.2200000000012,983.3399999999964,1783.3399999999967,1792.2200000000012,1.0,808.8800000000048,0.0,,Slider,Slider,4.0,object-56,temp_dist_trial,15.0,s_sh_24_1,student_shared,desk organizer,10.0,competing,paired,s_sh_24_1.jpg,Student,,,sub-21
Desktop or Laptop,Windows 10,Firefox 139.0,1536x864,1536x779,Temporal Distance Task,cb_10,64.0,temp_dist_trial,num_items,zn7si1,1.0,response,1_ITEM,1268.3399999999674,1251.679999999993,1268.3399999999674,1268.3399999999674,1251.679999999993,1268.3399999999674,1.0,0.0,0.0,,Click Response,1_count,3.0,object-46,temp_dist_trial,16.0,s_s_19_1,student_stem,circuit board,10.0,unique,paired,s_s_19_1.jpg,Student,,,sub-21
Desktop or Laptop,Windows 10,Firefox 139.0,1536x864,1536x779,Temporal Distance Task,cb_10,65.0,temp_dist_trial,num_items,zn7si1,1.0,response,1_ITEM,1600.000000000029,1583.3400000000256,1600.000000000029,1600.000000000029,1583.3400000000256,1600.000000000029,1.0,0.0,0.0,,Click Response,1_count,3.0,object-46,temp_dist_trial,17.0,s_sh_02_1,student_shared,eraser,10.0,competing,paired,s_sh_02_1.jpg,Student,,,sub-21
Desktop or Laptop,Windows 10,Firefox 139.0,1536x864,1536x779,Temporal Distance Task,cb_10,66.0,temp_dist_trial,num_items,zn7si1,1.0,response,1_ITEM,943.8599999999859,933.3399999999964,943.8599999999859,943.8599999999859,933.3399999999964,943.8599999999859,1.0,0.0,0.0,,Click Response,1_count,3.0,object-46,temp_dist_trial,18.0,s_sh_03_1,student_shared,highlighter,10.0,competing,paired,s_sh_03_1.jpg,Student,,,sub-21
Desktop or Laptop,Windows 10,Firefox 139.0,1536x864,1536x779,Temporal Distance Task,cb_10,67.0,temp_dist_trial,num_items,zn7si1,1.0,response,1_ITEM,844.5199999999895,835.0399999999789,844.5199999999895,844.5199999999895,835.0399999999789,844.5199999999895,1.0,0.0,0.0,,Click Response,1_count,3.0,object-46,temp_dist_trial,19.0,s_a_07_1,student_art,yarn,10.0,unique,single,s_a_07_1.jpg,Student,,,sub-21
Desktop or Laptop,Windows 10,Firefox 139.0,1536x864,1536x779,Temporal Distance Task,cb_10,68.0,temp_dist_trial,num_items,zn7si1,1.0,response,2_ITEM,1059.4800000000105,1050.0,1059.4800000000105,1059.4800000000105,1050.0,1059.4800000000105,1.0,0.0,0.0,,Click Response,2_count,5.0,object-49,temp_dist_trial,20.0,s_sh_15_1,student_shared,usb drive,10.0,competing,paired,s_sh_15_1.jpg,Student,,,sub-21
Desktop or Laptop,Windows 10,Firefox 139.0,1536x864,1536x779,Temporal Distance Task,cb_10,68.0,temp_dist_trial,dist_items,qkpkxw,2.0,info,,10.480000000010476,0.0,10.480000000010476,10.480000000010476,0.0,10.480000000010476,1.0,0.0,0.0,,Slider,Slider,4.0,object-56,temp_dist_trial,20.0,s_sh_15_1,student_shared,usb drive,10.0,competing,paired,s_sh_15_1.jpg,Student,,,sub-21
Desktop or Laptop,Windows 10,Firefox 139.0,1536x864,1536x779,Temporal Distance Task,cb_10,68.0,temp_dist_trial,dist_items,qkpkxw,2.0,continue,,2216.679999999993,2200.0,2216.679999999993,2216.679999999993,2200.0,2216.679999999993,1.0,0.0,0.0,,Click To Continue,Next button,7.0,object-60,temp_dist_trial,20.0,s_sh_15_1,student_shared,usb drive,10.0,competing,paired,s_sh_15_1.jpg,Student,,,sub-21
Desktop or Laptop,Windows 10,Firefox 139.0,1536x864,1536x779,Temporal Distance Task,cb_10,68.0,temp_dist_trial,dist_items,qkpkxw,2.0,response,58,1133.320000000007,2200.0,2216.679999999993,1133.320000000007,2200.0,2216.679999999993,1.0,1083.359999999986,0.0,,Slider,Slider,4.0,object-56,temp_dist_trial,20.0,s_sh_15_1,student_shared,usb drive,10.0,competing,paired,s_sh_15_1.jpg,Student,,,sub-21
Desktop or Laptop,Windows 10,Firefox 139.0,1536x864,1536x779,Temporal Distance Task,cb_10,69.0,temp_dist_trial,num_items,zn7si1,1.0,response,1_ITEM,1174.4800000000105,1168.140000000014,1174.4800000000105,1174.4800000000105,1168.140000000014,1174.4800000000105,1.0,0.0,0.0,,Click Response,1_count,3.0,object-46,temp_dist_trial,21.0,s_sh_09_1,student_shared,paper clips,10.0,competing,single,s_sh_09_1.jpg,Student,,,sub-21
Desktop or Laptop,Windows 10,Firefox 139.0,1536x864,1536x779,Temporal Distance Task,cb_10,70.0,temp_dist_trial,num_items,zn7si1,1.0,response,2_ITEM,1047.3399999999963,1033.3399999999963,1047.3399999999963,1047.3399999999963,1033.3399999999963,1047.3399999999963,1.0,0.0,0.0,,Click Response,2_count,5.0,object-49,temp_dist_trial,22.0,s_s_01_1,student_stem,microscope,10.0,unique,paired,s_s_01_1.jpg,Student,,,sub-21
Desktop or Laptop,Windows 10,Firefox 139.0,1536x864,1536x779,Temporal Distance Task,cb_10,70.0,temp_dist_trial,dist_items,qkpkxw,2.0,info,,12.0,0.0,12.0,12.0,0.0,12.0,1.0,0.0,0.0,,Slider,Slider,4.0,object-56,temp_dist_trial,22.0,s_s_01_1,student_stem,microscope,10.0,unique,paired,s_s_01_1.jpg,Student,,,sub-21
Desktop or Laptop,Windows 10,Firefox 139.0,1536x864,1536x779,Temporal Distance Task,cb_10,70.0,temp_dist_trial,dist_items,qkpkxw,2.0,continue,,1783.320000000007,1766.6600000000033,1783.320000000007,1783.320000000007,1766.6600000000033,1783.320000000007,1.0,0.0,0.0,,Click To Continue,Next button,7.0,object-60,temp_dist_trial,22.0,s_s_01_1,student_stem,microscope,10.0,unique,paired,s_s_01_1.jpg,Student,,,sub-21
Desktop or Laptop,Windows 10,Firefox 139.0,1536x864,1536x779,Temporal Distance Task,cb_10,70.0,temp_dist_trial,dist_items,qkpkxw,2.0,response,59,933.320000000007,1766.6600000000033,1783.320000000007,933.320000000007,1766.6600000000033,1783.320000000007,1.0,850.0,0.0,,Slider,Slider,4.0,object-56,temp_dist_trial,22.0,s_s_01_1,student_stem,microscope,10.0,unique,paired,s_s_01_1.jpg,Student,,,sub-21
Desktop or Laptop,Windows 10,Firefox 139.0,1536x864,1536x779,Temporal Distance Task,cb_10,71.0,temp_dist_trial,num_items,zn7si1,1.0,response,1_ITEM,1201.679999999993,1185.0199999999895,1201.679999999993,1201.679999999993,1185.0199999999895,1201.679999999993,1.0,0.0,0.0,,Click Response,1_count,3.0,object-46,temp_dist_trial,23.0,s_s_06_1,student_stem,calculator,10.0,unique,single,s_s_06_1.jpg,Student,,,sub-21
Desktop or Laptop,Windows 10,Firefox 139.0,1536x864,1536x779,Temporal Distance Task,cb_10,72.0,temp_dist_trial,num_items,zn7si1,1.0,response,1_ITEM,942.320000000007,933.3399999999964,942.320000000007,942.320000000007,933.3399999999964,942.320000000007,1.0,0.0,0.0,,Click Response,1_count,3.0,object-46,temp_dist_trial,24.0,s_a_15_1,student_art,drum kit,10.0,unique,single,s_a_15_1.jpg,Student,,,sub-21
Desktop or Laptop,Windows 10,Firefox 139.0,1536x864,1536x779,Temporal Distance Task,cb_10,73.0,temp_dist_trial,num_items,zn7si1,1.0,response,1_ITEM,942.9800000000104,933.320000000007,942.9800000000104,942.9800000000104,933.320000000007,942.9800000000104,1.0,0.0,0.0,,Click Response,1_count,3.0,object-46,temp_dist_trial,25.0,s_a_01_1,student_art,paintbrush,10.0,unique,single,s_a_01_1.jpg,Student,,,sub-21
Desktop or Laptop,Windows 10,Firefox 139.0,1536x864,1536x779,Temporal Distance Task,cb_10,74.0,temp_dist_trial,num_items,zn7si1,1.0,response,2_ITEM,1292.6600000000035,1285.0599999999977,1292.6600000000035,1292.6600000000035,1285.0599999999977,1292.6600000000035,1.0,0.0,0.0,,Click Response,2_count,5.0,object-49,temp_dist_trial,26.0,s_a_17_1,student_art,microphone,10.0,unique,paired,s_a_17_1.jpg,Student,,,sub-21
Desktop or Laptop,Windows 10,Firefox 139.0,1536x864,1536x779,Temporal Distance Task,cb_10,74.0,temp_dist_trial,dist_items,qkpkxw,2.0,info,,9.600000000005819,0.0,9.600000000005819,9.600000000005819,0.0,9.600000000005819,1.0,0.0,0.0,,Slider,Slider,4.0,object-56,temp_dist_trial,26.0,s_a_17_1,student_art,microphone,10.0,unique,paired,s_a_17_1.jpg,Student,,,sub-21
Desktop or Laptop,Windows 10,Firefox 139.0,1536x864,1536x779,Temporal Distance Task,cb_10,74.0,temp_dist_trial,dist_items,qkpkxw,2.0,continue,,1939.6000000000056,1933.320000000007,1939.6000000000056,1939.6000000000056,1933.320000000007,1939.6000000000056,1.0,0.0,0.0,,Click To Continue,Next button,7.0,object-60,temp_dist_trial,26.0,s_a_17_1,student_art,microphone,10.0,unique,paired,s_a_17_1.jpg,Student,,,sub-21
Desktop or Laptop,Windows 10,Firefox 139.0,1536x864,1536x779,Temporal Distance Task,cb_10,74.0,temp_dist_trial,dist_items,qkpkxw,2.0,response,79,833.320000000007,1933.320000000007,1940.6000000000056,833.320000000007,1933.320000000007,1940.6000000000056,1.0,1107.2799999999988,0.0,,Slider,Slider,4.0,object-56,temp_dist_trial,26.0,s_a_17_1,student_art,microphone,10.0,unique,paired,s_a_17_1.jpg,Student,,,sub-21
Desktop or Laptop,Windows 10,Firefox 139.0,1536x864,1536x779,Temporal Distance Task,cb_10,75.0,temp_dist_trial,num_items,zn7si1,1.0,response,2_ITEM,1158.2799999999988,1150.0,1158.2799999999988,1158.2799999999988,1150.0,1158.2799999999988,1.0,0.0,0.0,,Click Response,2_count,5.0,object-49,temp_dist_trial,27.0,s_a_05_1,student_art,clay,10.0,unique,paired,s_a_05_1.jpg,Student,,,sub-21
Desktop or Laptop,Windows 10,Firefox 139.0,1536x864,1536x779,Temporal Distance Task,cb_10,75.0,temp_dist_trial,dist_items,qkpkxw,2.0,info,,11.279999999998836,0.0,11.279999999998836,11.279999999998836,0.0,11.279999999998836,1.0,0.0,0.0,,Slider,Slider,4.0,object-56,temp_dist_trial,27.0,s_a_05_1,student_art,clay,10.0,unique,paired,s_a_05_1.jpg,Student,,,sub-21
Desktop or Laptop,Windows 10,Firefox 139.0,1536x864,1536x779,Temporal Distance Task,cb_10,75.0,temp_dist_trial,dist_items,qkpkxw,2.0,continue,,2310.2799999999993,2301.519999999989,2310.2799999999993,2310.2799999999993,2301.519999999989,2310.2799999999993,1.0,0.0,0.0,,Click To Continue,Next button,7.0,object-60,temp_dist_trial,27.0,s_a_05_1,student_art,clay,10.0,unique,paired,s_a_05_1.jpg,Student,,,sub-21
Desktop or Laptop,Windows 10,Firefox 139.0,1536x864,1536x779,Temporal Distance Task,cb_10,75.0,temp_dist_trial,dist_items,qkpkxw,2.0,response,33,1184.859999999986,2301.519999999989,2311.2799999999993,1184.859999999986,2301.519999999989,2311.2799999999993,1.0,1126.4200000000128,0.0,,Slider,Slider,4.0,object-56,temp_dist_trial,27.0,s_a_05_1,student_art,clay,10.0,unique,paired,s_a_05_1.jpg,Student,,,sub-21
Desktop or Laptop,Windows 10,Firefox 139.0,1536x864,1536x779,Temporal Distance Task,cb_10,76.0,temp_dist_trial,num_items,zn7si1,1.0,response,2_ITEM,1216.6600000000035,1200.0,1216.6600000000035,1216.6600000000035,1200.0,1216.6600000000035,1.0,0.0,0.0,,Click Response,2_count,5.0,object-49,temp_dist_trial,28.0,s_sh_21_1,student_shared,file holder,10.0,competing,paired,s_sh_21_1.jpg,Student,,,sub-21
Desktop or Laptop,Windows 10,Firefox 139.0,1536x864,1536x779,Temporal Distance Task,cb_10,76.0,temp_dist_trial,dist_items,qkpkxw,2.0,info,,10.760000000009313,0.0,10.760000000009313,10.760000000009313,0.0,10.760000000009313,1.0,0.0,0.0,,Slider,Slider,4.0,object-56,temp_dist_trial,28.0,s_sh_21_1,student_shared,file holder,10.0,competing,paired,s_sh_21_1.jpg,Student,,,sub-21
Desktop or Laptop,Windows 10,Firefox 139.0,1536x864,1536x779,Temporal Distance Task,cb_10,76.0,temp_dist_trial,dist_items,qkpkxw,2.0,continue,,1400.7600000000089,1385.040000000008,1400.7600000000089,1400.7600000000089,1385.040000000008,1400.7600000000089,1.0,0.0,0.0,,Click To Continue,Next button,7.0,object-60,temp_dist_trial,28.0,s_sh_21_1,student_shared,file holder,10.0,competing,paired,s_sh_21_1.jpg,Student,,,sub-21
Desktop or Laptop,Windows 10,Firefox 139.0,1536x864,1536x779,Temporal Distance Task,cb_10,76.0,temp_dist_trial,dist_items,qkpkxw,2.0,response,62,500.0,1385.040000000008,1400.7600000000089,500.0,1385.040000000008,1400.7600000000089,1.0,900.7600000000093,0.0,,Slider,Slider,4.0,object-56,temp_dist_trial,28.0,s_sh_21_1,student_shared,file holder,10.0,competing,paired,s_sh_21_1.jpg,Student,,,sub-21
Desktop or Laptop,Windows 10,Firefox 139.0,1536x864,1536x779,Temporal Distance Task,cb_10,77.0,temp_dist_trial,num_items,zn7si1,1.0,response,1_ITEM,1129.7200000000012,1116.679999999993,1129.7200000000012,1129.7200000000012,1116.679999999993,1129.7200000000012,1.0,0.0,0.0,,Click Response,1_count,3.0,object-46,temp_dist_trial,29.0,s_a_02_1,student_art,canvas,10.0,unique,paired,s_a_02_1.jpg,Student,,,sub-21
Desktop or Laptop,Windows 10,Firefox 139.0,1536x864,1536x779,Temporal Distance Task,cb_10,78.0,temp_dist_trial,num_items,zn7si1,1.0,response,1_ITEM,1749.9800000000105,1733.320000000007,1749.9800000000105,1749.9800000000105,1733.320000000007,1749.9800000000105,1.0,0.0,0.0,,Click Response,1_count,3.0,object-46,temp_dist_trial,30.0,s_s_11_1,student_stem,scientific scale,10.0,unique,single,s_s_11_1.jpg,Student,,,sub-21
Desktop or Laptop,Windows 10,Firefox 139.0,1536x864,1536x779,Temporal Distance Task,cb_10,79.0,temp_dist_trial,num_items,zn7si1,1.0,response,1_ITEM,1144.7200000000012,1135.0,1144.7200000000012,1144.7200000000012,1135.0,1144.7200000000012,1.0,0.0,0.0,,Click Response,1_count,3.0,object-46,temp_dist_trial,31.0,s_a_14_1,student_art,guitar pick,10.0,unique,paired,s_a_14_1.jpg,Student,,,sub-21
Desktop or Laptop,Windows 10,Firefox 139.0,1536x864,1536x779,Temporal Distance Task,cb_10,80.0,temp_dist_trial,num_items,zn7si1,1.0,response,1_ITEM,1260.7200000000012,1250.0,1260.7200000000012,1260.7200000000012,1250.0,1260.7200000000012,1.0,0.0,0.0,,Click Response,1_count,3.0,object-46,temp_dist_trial,32.0,s_sh_22_1,student_shared,hole puncher,10.0,competing,single,s_sh_22_1.jpg,Student,,,sub-21
Desktop or Laptop,Windows 10,Firefox 139.0,1536x864,1536x779,Temporal Distance Task,cb_10,81.0,temp_dist_trial,num_items,zn7si1,1.0,response,2_ITEM,1145.7200000000012,1133.3399999999965,1145.7200000000012,1145.7200000000012,1133.3399999999965,1145.7200000000012,1.0,0.0,0.0,,Click Response,2_count,5.0,object-49,temp_dist_trial,33.0,s_sh_11_1,student_shared,pencil case,10.0,competing,paired,s_sh_11_1.jpg,Student,,,sub-21
Desktop or Laptop,Windows 10,Firefox 139.0,1536x864,1536x779,Temporal Distance Task,cb_10,81.0,temp_dist_trial,dist_items,qkpkxw,2.0,info,,9.380000000004657,0.0,9.380000000004657,9.380000000004657,0.0,9.380000000004657,1.0,0.0,0.0,,Slider,Slider,4.0,object-56,temp_dist_trial,33.0,s_sh_11_1,student_shared,pencil case,10.0,competing,paired,s_sh_11_1.jpg,Student,,,sub-21
Desktop or Laptop,Windows 10,Firefox 139.0,1536x864,1536x779,Temporal Distance Task,cb_10,81.0,temp_dist_trial,dist_items,qkpkxw,2.0,continue,,1309.3800000000047,1301.6600000000035,1309.3800000000047,1309.3800000000047,1301.6600000000035,1309.3800000000047,1.0,0.0,0.0,,Click To Continue,Next button,7.0,object-60,temp_dist_trial,33.0,s_sh_11_1,student_shared,pencil case,10.0,competing,paired,s_sh_11_1.jpg,Student,,,sub-21
Desktop or Laptop,Windows 10,Firefox 139.0,1536x864,1536x779,Temporal Distance Task,cb_10,81.0,temp_dist_trial,dist_items,qkpkxw,2.0,response,70,616.6600000000035,1301.6600000000035,1310.3800000000047,616.6600000000035,1301.6600000000035,1310.3800000000047,1.0,693.7200000000012,0.0,,Slider,Slider,4.0,object-56,temp_dist_trial,33.0,s_sh_11_1,student_shared,pencil case,10.0,competing,paired,s_sh_11_1.jpg,Student,,,sub-21
Desktop or Laptop,Windows 10,Firefox 139.0,1536x864,1536x779,Temporal Distance Task,cb_10,82.0,temp_dist_trial,num_items,zn7si1,1.0,response,2_ITEM,1408.7200000000012,1400.0,1408.7200000000012,1408.7200000000012,1400.0,1408.7200000000012,1.0,0.0,0.0,,Click Response,2_count,5.0,object-49,temp_dist_trial,34.0,s_s_20_1,student_stem,dna model,10.0,unique,single,s_s_20_1.jpg,Student,,,sub-21
Desktop or Laptop,Windows 10,Firefox 139.0,1536x864,1536x779,Temporal Distance Task,cb_10,82.0,temp_dist_trial,dist_items,qkpkxw,2.0,info,,10.720000000001164,0.0,10.720000000001164,10.720000000001164,0.0,10.720000000001164,1.0,0.0,0.0,,Slider,Slider,4.0,object-56,temp_dist_trial,34.0,s_s_20_1,student_stem,dna model,10.0,unique,single,s_s_20_1.jpg,Student,,,sub-21
Desktop or Laptop,Windows 10,Firefox 139.0,1536x864,1536x779,Temporal Distance Task,cb_10,82.0,temp_dist_trial,dist_items,qkpkxw,2.0,continue,,3200.720000000001,3184.9400000000023,3200.720000000001,3200.720000000001,3184.9400000000023,3200.720000000001,1.0,0.0,0.0,,Click To Continue,Next button,7.0,object-60,temp_dist_trial,34.0,s_s_20_1,student_stem,dna model,10.0,unique,single,s_s_20_1.jpg,Student,,,sub-21
Desktop or Laptop,Windows 10,Firefox 139.0,1536x864,1536x779,Temporal Distance Task,cb_10,82.0,temp_dist_trial,dist_items,qkpkxw,2.0,response,46,2300.0,3184.9400000000023,3201.619999999996,2300.0,3184.9400000000023,3201.619999999996,1.0,901.6199999999952,0.0,,Slider,Slider,4.0,object-56,temp_dist_trial,34.0,s_s_20_1,student_stem,dna model,10.0,unique,single,s_s_20_1.jpg,Student,,,sub-21
Desktop or Laptop,Windows 10,Firefox 139.0,1536x864,1536x779,Temporal Distance Task,cb_10,83.0,temp_dist_trial,num_items,zn7si1,1.0,response,1_ITEM,1370.7799999999988,1366.6600000000035,1370.7799999999988,1370.7799999999988,1366.6600000000035,1370.7799999999988,1.0,0.0,0.0,,Click Response,1_count,3.0,object-46,temp_dist_trial,35.0,s_s_07_1,student_stem,periodic table,10.0,unique,paired,s_s_07_1.jpg,Student,,,sub-21
Desktop or Laptop,Windows 10,Firefox 139.0,1536x864,1536x779,Temporal Distance Task,cb_10,84.0,temp_dist_trial,num_items,zn7si1,1.0,response,1_ITEM,1066.6600000000037,1050.0,1066.6600000000037,1066.6600000000037,1050.0,1066.6600000000037,1.0,0.0,0.0,,Click Response,1_count,3.0,object-46,temp_dist_trial,36.0,s_sh_19_1,student_shared,portable plastic drawer,10.0,competing,paired,s_sh_19_1.jpg,Student,,,sub-21
Desktop or Laptop,Windows 10,Firefox 139.0,1536x864,1536x779,Temporal Distance Task,cb_10,85.0,temp_dist_trial,num_items,zn7si1,1.0,response,2_ITEM,1124.1199999999953,1118.359999999986,1124.1199999999953,1124.1199999999953,1118.359999999986,1124.1199999999953,1.0,0.0,0.0,,Click Response,2_count,5.0,object-49,temp_dist_trial,37.0,s_a_19_1,student_art,ballet shoes,10.0,unique,paired,s_a_19_1.jpg,Student,,,sub-21
Desktop or Laptop,Windows 10,Firefox 139.0,1536x864,1536x779,Temporal Distance Task,cb_10,85.0,temp_dist_trial,dist_items,qkpkxw,2.0,info,,9.760000000009313,0.0,9.760000000009313,9.760000000009313,0.0,9.760000000009313,1.0,0.0,0.0,,Slider,Slider,4.0,object-56,temp_dist_trial,37.0,s_a_19_1,student_art,ballet shoes,10.0,unique,paired,s_a_19_1.jpg,Student,,,sub-21
Desktop or Laptop,Windows 10,Firefox 139.0,1536x864,1536x779,Temporal Distance Task,cb_10,85.0,temp_dist_trial,dist_items,qkpkxw,2.0,continue,,3455.7600000000093,3450.0,3455.7600000000093,3455.7600000000093,3450.0,3455.7600000000093,1.0,0.0,0.0,,Click To Continue,Next button,7.0,object-60,temp_dist_trial,37.0,s_a_19_1,student_art,ballet shoes,10.0,unique,paired,s_a_19_1.jpg,Student,,,sub-21
Desktop or Laptop,Windows 10,Firefox 139.0,1536x864,1536x779,Temporal Distance Task,cb_10,85.0,temp_dist_trial,dist_items,qkpkxw,2.0,response,76,2400.0,3450.0,3455.7600000000093,2400.0,3450.0,3455.7600000000093,1.0,1055.7600000000093,0.0,,Slider,Slider,4.0,object-56,temp_dist_trial,37.0,s_a_19_1,student_art,ballet shoes,10.0,unique,paired,s_a_19_1.jpg,Student,,,sub-21
Desktop or Laptop,Windows 10,Firefox 139.0,1536x864,1536x779,Temporal Distance Task,cb_10,86.0,temp_dist_trial,num_items,zn7si1,1.0,response,2_ITEM,1551.640000000014,1534.9800000000105,1551.640000000014,1551.640000000014,1534.9800000000105,1551.640000000014,1.0,0.0,0.0,,Click Response,2_count,5.0,object-49,temp_dist_trial,38.0,s_sh_12_1,student_shared,binder,10.0,competing,paired,s_sh_12_1.jpg,Student,,,sub-21
Desktop or Laptop,Windows 10,Firefox 139.0,1536x864,1536x779,Temporal Distance Task,cb_10,86.0,temp_dist_trial,dist_items,qkpkxw,2.0,info,,9.779999999998836,0.0,9.779999999998836,9.779999999998836,0.0,9.779999999998836,1.0,0.0,0.0,,Slider,Slider,4.0,object-56,temp_dist_trial,38.0,s_sh_12_1,student_shared,binder,10.0,competing,paired,s_sh_12_1.jpg,Student,,,sub-21
Desktop or Laptop,Windows 10,Firefox 139.0,1536x864,1536x779,Temporal Distance Task,cb_10,86.0,temp_dist_trial,dist_items,qkpkxw,2.0,continue,,3289.779999999999,3284.6799999999935,3289.779999999999,3289.779999999999,3284.6799999999935,3289.779999999999,1.0,0.0,0.0,,Click To Continue,Next button,7.0,object-60,temp_dist_trial,38.0,s_sh_12_1,student_shared,binder,10.0,competing,paired,s_sh_12_1.jpg,Student,,,sub-21
Desktop or Laptop,Windows 10,Firefox 139.0,1536x864,1536x779,Temporal Distance Task,cb_10,86.0,temp_dist_trial,dist_items,qkpkxw,2.0,response,35,2484.679999999993,3284.6799999999935,3290.779999999999,2484.679999999993,3284.6799999999935,3290.779999999999,1.0,806.1000000000058,0.0,,Slider,Slider,4.0,object-56,temp_dist_trial,38.0,s_sh_12_1,student_shared,binder,10.0,competing,paired,s_sh_12_1.jpg,Student,,,sub-21
Desktop or Laptop,Windows 10,Firefox 139.0,1536x864,1536x779,Temporal Distance Task,cb_10,87.0,temp_dist_trial,num_items,zn7si1,1.0,response,1_ITEM,1100.0199999999895,1083.3399999999963,1100.0199999999895,1100.0199999999895,1083.3399999999963,1100.0199999999895,1.0,0.0,0.0,,Click Response,1_count,3.0,object-46,temp_dist_trial,39.0,s_sh_20_1,student_shared,tape,10.0,competing,single,s_sh_20_1.jpg,Student,,,sub-21
Desktop or Laptop,Windows 10,Firefox 139.0,1536x864,1536x779,Temporal Distance Task,cb_10,88.0,temp_dist_trial,num_items,zn7si1,1.0,response,2_ITEM,1323.7600000000093,1316.6600000000035,1323.7600000000093,1323.7600000000093,1316.6600000000035,1323.7600000000093,1.0,0.0,0.0,,Click Response,2_count,5.0,object-49,temp_dist_trial,40.0,s_s_10_1,student_stem,3d molecule,10.0,unique,paired,s_s_10_1.jpg,Student,,,sub-21
Desktop or Laptop,Windows 10,Firefox 139.0,1536x864,1536x779,Temporal Distance Task,cb_10,88.0,temp_dist_trial,dist_items,qkpkxw,2.0,info,,9.100000000005819,0.0,9.100000000005819,9.100000000005819,0.0,9.100000000005819,1.0,0.0,0.0,,Slider,Slider,4.0,object-56,temp_dist_trial,40.0,s_s_10_1,student_stem,3d molecule,10.0,unique,paired,s_s_10_1.jpg,Student,,,sub-21
Desktop or Laptop,Windows 10,Firefox 139.0,1536x864,1536x779,Temporal Distance Task,cb_10,88.0,temp_dist_trial,dist_items,qkpkxw,2.0,continue,,1993.1000000000056,1984.9800000000105,1993.1000000000056,1993.1000000000056,1984.9800000000105,1993.1000000000056,1.0,0.0,0.0,,Click To Continue,Next button,7.0,object-60,temp_dist_trial,40.0,s_s_10_1,student_stem,3d molecule,10.0,unique,paired,s_s_10_1.jpg,Student,,,sub-21
Desktop or Laptop,Windows 10,Firefox 139.0,1536x864,1536x779,Temporal Distance Task,cb_10,88.0,temp_dist_trial,dist_items,qkpkxw,2.0,response,62,918.3000000000177,1984.9800000000105,1994.1000000000056,918.3000000000177,1984.9800000000105,1994.1000000000056,1.0,1075.7999999999884,0.0,,Slider,Slider,4.0,object-56,temp_dist_trial,40.0,s_s_10_1,student_stem,3d molecule,10.0,unique,paired,s_s_10_1.jpg,Student,,,sub-21
Desktop or Laptop,Windows 10,Firefox 139.0,1536x864,1536x779,Temporal Distance Task,cb_10,89.0,temp_dist_trial,num_items,zn7si1,1.0,response,1_ITEM,1783.1199999999951,1766.6600000000033,1783.1199999999951,1783.1199999999951,1766.6600000000033,1783.1199999999951,1.0,0.0,0.0,,Click Response,1_count,3.0,object-46,temp_dist_trial,41.0,s_sh_16_1,student_shared,stapler,10.0,competing,paired,s_sh_16_1.jpg,Student,,,sub-21
Desktop or Laptop,Windows 10,Firefox 139.0,1536x864,1536x779,Temporal Distance Task,cb_10,90.0,temp_dist_trial,num_items,zn7si1,1.0,response,1_ITEM,1201.6999999999534,1185.039999999979,1201.6999999999534,1201.6999999999534,1185.039999999979,1201.6999999999534,1.0,0.0,0.0,,Click Response,1_count,3.0,object-46,temp_dist_trial,42.0,s_a_06_1,student_art,pastels,10.0,unique,single,s_a_06_1.jpg,Student,,,sub-21
Desktop or Laptop,Windows 10,Firefox 139.0,1536x864,1536x779,Temporal Distance Task,cb_10,91.0,temp_dist_trial,num_items,zn7si1,1.0,response,1_ITEM,997.4200000000128,983.3400000000256,997.4200000000128,997.4200000000128,983.3400000000256,997.4200000000128,1.0,0.0,0.0,,Click Response,1_count,3.0,object-46,temp_dist_trial,43.0,s_s_16_1,student_stem,toolbox,10.0,unique,single,s_s_16_1.jpg,Student,,,sub-21
Desktop or Laptop,Windows 10,Firefox 139.0,1536x864,1536x779,Temporal Distance Task,cb_10,92.0,temp_dist_trial,num_items,zn7si1,1.0,response,2_ITEM,1477.0799999999872,1466.6599999999744,1477.0799999999872,1477.0799999999872,1466.6599999999744,1477.0799999999872,1.0,0.0,0.0,,Click Response,2_count,5.0,object-49,temp_dist_trial,44.0,s_a_16_1,student_art,piano,10.0,unique,paired,s_a_16_1.jpg,Student,,,sub-21
Desktop or Laptop,Windows 10,Firefox 139.0,1536x864,1536x779,Temporal Distance Task,cb_10,92.0,temp_dist_trial,dist_items,qkpkxw,2.0,info,,9.420000000012807,0.0,9.420000000012807,9.420000000012807,0.0,9.420000000012807,1.0,0.0,0.0,,Slider,Slider,4.0,object-56,temp_dist_trial,44.0,s_a_16_1,student_art,piano,10.0,unique,paired,s_a_16_1.jpg,Student,,,sub-21
Desktop or Laptop,Windows 10,Firefox 139.0,1536x864,1536x779,Temporal Distance Task,cb_10,92.0,temp_dist_trial,dist_items,qkpkxw,2.0,continue,,1500.4200000000128,1485.0,1500.4200000000128,1500.4200000000128,1485.0,1500.4200000000128,1.0,0.0,0.0,,Click To Continue,Next button,7.0,object-60,temp_dist_trial,44.0,s_a_16_1,student_art,piano,10.0,unique,paired,s_a_16_1.jpg,Student,,,sub-21
Desktop or Laptop,Windows 10,Firefox 139.0,1536x864,1536x779,Temporal Distance Task,cb_10,92.0,temp_dist_trial,dist_items,qkpkxw,2.0,response,78,583.3400000000256,1485.0,1500.4200000000128,583.3400000000256,1485.0,1500.4200000000128,1.0,917.0799999999872,0.0,,Slider,Slider,4.0,object-56,temp_dist_trial,44.0,s_a_16_1,student_art,piano,10.0,unique,paired,s_a_16_1.jpg,Student,,,sub-21
Desktop or Laptop,Windows 10,Firefox 139.0,1536x864,1536x779,Temporal Distance Task,cb_10,93.0,temp_dist_trial,num_items,zn7si1,1.0,response,1_ITEM,959.4200000000128,950.0,959.4200000000128,959.4200000000128,950.0,959.4200000000128,1.0,0.0,0.0,,Click Response,1_count,3.0,object-46,temp_dist_trial,45.0,s_sh_10_1,student_shared,scissors,10.0,competing,paired,s_sh_10_1.jpg,Student,,,sub-21
Desktop or Laptop,Windows 10,Firefox 139.0,1536x864,1536x779,Temporal Distance Task,cb_10,94.0,temp_dist_trial,num_items,zn7si1,1.0,response,1_ITEM,945.4200000000128,933.320000000007,945.4200000000128,945.4200000000128,933.320000000007,945.4200000000128,1.0,0.0,0.0,,Click Response,1_count,3.0,object-46,temp_dist_trial,46.0,s_sh_18_1,student_shared,wall calendar,10.0,competing,single,s_sh_18_1.jpg,Student,,,sub-21
Desktop or Laptop,Windows 10,Firefox 139.0,1536x864,1536x779,Temporal Distance Task,cb_10,95.0,temp_dist_trial,num_items,zn7si1,1.0,response,1_ITEM,839.1000000000058,833.3399999999965,839.1000000000058,839.1000000000058,833.3399999999965,839.1000000000058,1.0,0.0,0.0,,Click Response,1_count,3.0,object-46,temp_dist_trial,47.0,s_sh_23_1,student_shared,ballpoint pen,10.0,competing,paired,s_sh_23_1.jpg,Student,,,sub-21
Desktop or Laptop,Windows 10,Firefox 139.0,1536x864,1536x779,Temporal Distance Task,cb_10,96.0,temp_dist_trial,num_items,zn7si1,1.0,response,2_ITEM,1147.7600000000093,1134.9799999999816,1147.7600000000093,1147.7600000000093,1134.9799999999816,1147.7600000000093,1.0,0.0,0.0,,Click Response,2_count,5.0,object-49,temp_dist_trial,48.0,s_sh_08_1,student_shared,post-its,10.0,competing,single,s_sh_08_1.jpg,Student,,,sub-21
Desktop or Laptop,Windows 10,Firefox 139.0,1536x864,1536x779,Temporal Distance Task,cb_10,96.0,temp_dist_trial,dist_items,qkpkxw,2.0,info,,9.78000000002794,0.0,9.78000000002794,9.78000000002794,0.0,9.78000000002794,1.0,0.0,0.0,,Slider,Slider,4.0,object-56,temp_dist_trial,48.0,s_sh_08_1,student_shared,post-its,10.0,competing,single,s_sh_08_1.jpg,Student,,,sub-21
Desktop or Laptop,Windows 10,Firefox 139.0,1536x864,1536x779,Temporal Distance Task,cb_10,96.0,temp_dist_trial,dist_items,qkpkxw,2.0,continue,,1573.7800000000284,1566.6600000000324,1573.7800000000284,1573.7800000000284,1566.6600000000324,1573.7800000000284,1.0,0.0,0.0,,Click To Continue,Next button,7.0,object-60,temp_dist_trial,48.0,s_sh_08_1,student_shared,post-its,10.0,competing,single,s_sh_08_1.jpg,Student,,,sub-21
Desktop or Laptop,Windows 10,Firefox 139.0,1536x864,1536x779,Temporal Distance Task,cb_10,96.0,temp_dist_trial,dist_items,qkpkxw,2.0,response,62,666.6600000000327,1566.6600000000324,1576.7800000000284,666.6600000000327,1566.6600000000324,1576.7800000000284,1.0,910.1199999999952,0.0,,Slider,Slider,4.0,object-56,temp_dist_trial,48.0,s_sh_08_1,student_shared,post-its,10.0,competing,single,s_sh_08_1.jpg,Student,,,sub-21
Desktop or Laptop,Windows 10,Firefox 139.0,1536x864,1536x779,Temporal Distance Task,$${counterbalance_group},,,,,,info,END,,,262752.0,,,,0.0,,,,,,,,,,,,,,,,,,,,sub-21
