Participant Device,Participant OS,Participant Browser,Participant Monitor Size,Participant Viewport Size,Task Name,Current Spreadsheet,Trial Number,Display,Screen,Screen ID,Screen Counter,Response Type,Response,Onset Time,Clock Time,Reaction Time,Absolute Onset Time,Absolute Clock Time,Absolute Reaction Time,Correct,Response Duration,Proportion,Tag,Component Name,Object Name,Object Number,Object ID,Spreadsheet: display,Spreadsheet: trial,Spreadsheet: stimulus_id,Spreadsheet: expected_goal,Spreadsheet: stimulus_name,Spreadsheet: c_group,Spreadsheet: condition,Spreadsheet: paired_status,Spreadsheet: stimulus_path,Spreadsheet: block_type,Manipulation: Spreadsheet,Store: enc_test_acc,sub_label
Desktop or Laptop,Windows 10,Chrome 134.0.0.0,1280x720,1280x720,Temporal Distance Task,$${counterbalance_group},,,,,,info,BEGIN,,,,,,,0.0,,,,,,,,,,,,,,,,,,,,sub-65
Desktop or Laptop,Windows 10,Chrome 134.0.0.0,1280x720,1280x720,Temporal Distance Task,cb_06,1.0,temp_instructions,intro_screen,3tnme7,1.0,continue,,26578.299999999992,26561.5,26578.299999999992,26578.299999999992,26561.5,26578.299999999992,1.0,0.0,0.0,,Click To Continue,Continue Button,4.0,object-29,temp_instructions,,,Travel,,,,,,,,,sub-65
Desktop or Laptop,Windows 10,Chrome 134.0.0.0,1280x720,1280x720,Temporal Distance Task,cb_06,1.0,temp_instructions,intro_screen_2,52v7ur,2.0,continue,,86937.3,86928.3,86937.3,86937.3,86928.3,86937.3,1.0,0.0,0.0,,Click To Continue,Continue Button,4.0,object-39,temp_instructions,,,Travel,,,,,,,,,sub-65
Desktop or Laptop,Windows 10,Chrome 134.0.0.0,1280x720,1280x720,Temporal Distance Task,cb_06,1.0,temp_instructions,intro_screen_3,i7lvwx,3.0,continue,,64040.29999995232,64030.79999999999,64040.29999995232,64040.29999995232,64030.79999999999,64040.29999995232,1.0,0.0,0.0,,Click To Continue,Continue Button,4.0,object-67,temp_instructions,,,Travel,,,,,,,,,sub-65
Desktop or Laptop,Windows 10,Chrome 134.0.0.0,1280x720,1280x720,Temporal Distance Task,cb_06,1.0,temp_instructions,test_q1,5ieqx1,4.0,response,choice_3,18001.600000000006,17985.200000000008,18001.600000000006,18001.600000000006,17985.200000000008,18001.600000000006,1.0,0.0,0.0,,Click Response,choice_3,5.0,object-345,temp_instructions,,,Travel,,,,,,,,,sub-65
Desktop or Laptop,Windows 10,Chrome 134.0.0.0,1280x720,1280x720,Temporal Distance Task,cb_06,1.0,temp_instructions,score_corr,7ilvjr,5.0,continue,,1215.2999999999886,1198.8999999999942,1215.2999999999886,1215.2999999999886,1198.8999999999942,1215.2999999999886,1.0,0.0,0.0,,Click To Continue,Continue Button,3.0,object-23,temp_instructions,,,Travel,,,,,,,,,sub-65
Desktop or Laptop,Windows 10,Chrome 134.0.0.0,1280x720,1280x720,Temporal Distance Task,cb_06,1.0,temp_eventStart,Screen 1,dgtyxe,1.0,continue,,61560.89999995232,61549.60000000001,61560.89999995232,61560.89999995232,61549.60000000001,61560.89999995232,1.0,0.0,0.0,,Click To Continue,Next Button,3.0,object-43,temp_eventStart,,,Travel,,,,,,,,,sub-65
Desktop or Laptop,Windows 10,Chrome 134.0.0.0,1280x720,1280x720,Temporal Distance Task,cb_06,1.0,temp_dist_trial,num_items,zn7si1,1.0,response,1_ITEM,2899.2999999523163,2897.4000000000237,2899.2999999523163,2899.2999999523163,2897.4000000000237,2899.2999999523163,1.0,0.0,0.0,,Click Response,1_count,3.0,object-46,temp_dist_trial,1.0,t_i_05_1,travel_Iceland,hiking boots,6.0,unique,single,t_i_05_1.jpg,Travel,,,sub-65
Desktop or Laptop,Windows 10,Chrome 134.0.0.0,1280x720,1280x720,Temporal Distance Task,cb_06,2.0,temp_dist_trial,num_items,zn7si1,1.0,response,2_ITEM,2296.099999904633,2281.599999999977,2296.099999904633,2296.099999904633,2281.599999999977,2296.099999904633,1.0,0.0,0.0,,Click Response,2_count,5.0,object-49,temp_dist_trial,2.0,t_s_18_1,travel_shared,first aid kit,6.0,competing,single,t_s_18_1.jpg,Travel,,,sub-65
Desktop or Laptop,Windows 10,Chrome 134.0.0.0,1280x720,1280x720,Temporal Distance Task,cb_06,2.0,temp_dist_trial,dist_items,qkpkxw,2.0,info,,15.299999952316284,0.0,15.299999952316284,15.299999952316284,0.0,15.299999952316284,1.0,0.0,0.0,,Slider,Slider,4.0,object-56,temp_dist_trial,2.0,t_s_18_1,travel_shared,first aid kit,6.0,competing,single,t_s_18_1.jpg,Travel,,,sub-65
Desktop or Laptop,Windows 10,Chrome 134.0.0.0,1280x720,1280x720,Temporal Distance Task,cb_06,2.0,temp_dist_trial,dist_items,qkpkxw,2.0,continue,,4293.0999999046335,4279.900000000023,4293.0999999046335,4293.0999999046335,4279.900000000023,4293.0999999046335,1.0,0.0,0.0,,Click To Continue,Next button,7.0,object-60,temp_dist_trial,2.0,t_s_18_1,travel_shared,first aid kit,6.0,competing,single,t_s_18_1.jpg,Travel,,,sub-65
Desktop or Laptop,Windows 10,Chrome 134.0.0.0,1280x720,1280x720,Temporal Distance Task,cb_06,2.0,temp_dist_trial,dist_items,qkpkxw,2.0,response,42,1698.9000000000233,4279.900000000023,4294.799999952316,1698.9000000000233,4279.900000000023,4294.799999952316,1.0,2595.899999952293,0.0,,Slider,Slider,4.0,object-56,temp_dist_trial,2.0,t_s_18_1,travel_shared,first aid kit,6.0,competing,single,t_s_18_1.jpg,Travel,,,sub-65
Desktop or Laptop,Windows 10,Chrome 134.0.0.0,1280x720,1280x720,Temporal Distance Task,cb_06,3.0,temp_dist_trial,num_items,zn7si1,1.0,response,2_ITEM,1885.399999952293,1881.7999999999884,1885.399999952293,1885.399999952293,1881.7999999999884,1885.399999952293,1.0,0.0,0.0,,Click Response,2_count,5.0,object-49,temp_dist_trial,3.0,t_s_13_1,travel_shared,contact lens case,6.0,competing,paired,t_s_13_1.jpg,Travel,,,sub-65
Desktop or Laptop,Windows 10,Chrome 134.0.0.0,1280x720,1280x720,Temporal Distance Task,cb_06,3.0,temp_dist_trial,dist_items,qkpkxw,2.0,info,,13.5,0.0,13.5,13.5,0.0,13.5,1.0,0.0,0.0,,Slider,Slider,4.0,object-56,temp_dist_trial,3.0,t_s_13_1,travel_shared,contact lens case,6.0,competing,paired,t_s_13_1.jpg,Travel,,,sub-65
Desktop or Laptop,Windows 10,Chrome 134.0.0.0,1280x720,1280x720,Temporal Distance Task,cb_06,3.0,temp_dist_trial,dist_items,qkpkxw,2.0,continue,,2697.099999904633,2681.4000000000233,2697.099999904633,2697.099999904633,2681.4000000000233,2697.099999904633,1.0,0.0,0.0,,Click To Continue,Next button,7.0,object-60,temp_dist_trial,3.0,t_s_13_1,travel_shared,contact lens case,6.0,competing,paired,t_s_13_1.jpg,Travel,,,sub-65
Desktop or Laptop,Windows 10,Chrome 134.0.0.0,1280x720,1280x720,Temporal Distance Task,cb_06,3.0,temp_dist_trial,dist_items,qkpkxw,2.0,response,55,1199.0,2681.4000000000233,2698.0,1199.0,2681.4000000000233,2698.0,1.0,1499.0,0.0,,Slider,Slider,4.0,object-56,temp_dist_trial,3.0,t_s_13_1,travel_shared,contact lens case,6.0,competing,paired,t_s_13_1.jpg,Travel,,,sub-65
Desktop or Laptop,Windows 10,Chrome 134.0.0.0,1280x720,1280x720,Temporal Distance Task,cb_06,4.0,temp_dist_trial,num_items,zn7si1,1.0,response,2_ITEM,2871.899999952293,2864.2999999999884,2871.899999952293,2871.899999952293,2864.2999999999884,2871.899999952293,1.0,0.0,0.0,,Click Response,2_count,5.0,object-49,temp_dist_trial,4.0,t_i_11_1,travel_Iceland,headlamp,6.0,unique,paired,t_i_11_1.jpg,Travel,,,sub-65
Desktop or Laptop,Windows 10,Chrome 134.0.0.0,1280x720,1280x720,Temporal Distance Task,cb_06,4.0,temp_dist_trial,dist_items,qkpkxw,2.0,info,,12.700000000011642,0.0,12.700000000011642,12.700000000011642,0.0,12.700000000011642,1.0,0.0,0.0,,Slider,Slider,4.0,object-56,temp_dist_trial,4.0,t_i_11_1,travel_Iceland,headlamp,6.0,unique,paired,t_i_11_1.jpg,Travel,,,sub-65
Desktop or Laptop,Windows 10,Chrome 134.0.0.0,1280x720,1280x720,Temporal Distance Task,cb_06,4.0,temp_dist_trial,dist_items,qkpkxw,2.0,continue,,2102.400000047696,2098.4000000000233,2102.400000047696,2102.400000047696,2098.4000000000233,2102.400000047696,1.0,0.0,0.0,,Click To Continue,Next button,7.0,object-60,temp_dist_trial,4.0,t_i_11_1,travel_Iceland,headlamp,6.0,unique,paired,t_i_11_1.jpg,Travel,,,sub-65
Desktop or Laptop,Windows 10,Chrome 134.0.0.0,1280x720,1280x720,Temporal Distance Task,cb_06,4.0,temp_dist_trial,dist_items,qkpkxw,2.0,response,44,1132.600000000035,2098.4000000000233,2103.900000047696,1132.600000000035,2098.4000000000233,2103.900000047696,1.0,971.3000000476603,0.0,,Slider,Slider,4.0,object-56,temp_dist_trial,4.0,t_i_11_1,travel_Iceland,headlamp,6.0,unique,paired,t_i_11_1.jpg,Travel,,,sub-65
Desktop or Laptop,Windows 10,Chrome 134.0.0.0,1280x720,1280x720,Temporal Distance Task,cb_06,5.0,temp_dist_trial,num_items,zn7si1,1.0,response,1_ITEM,2195.5999999523046,2181.399999999965,2195.5999999523046,2195.5999999523046,2181.399999999965,2195.5999999523046,1.0,0.0,0.0,,Click Response,1_count,3.0,object-46,temp_dist_trial,5.0,t_s_07_1,travel_shared,phone charger cable,6.0,competing,single,t_s_07_1.jpg,Travel,,,sub-65
Desktop or Laptop,Windows 10,Chrome 134.0.0.0,1280x720,1280x720,Temporal Distance Task,cb_06,6.0,temp_dist_trial,num_items,zn7si1,1.0,response,2_ITEM,1548.4000000000233,1532.1000000000354,1548.4000000000233,1548.4000000000233,1532.1000000000354,1548.4000000000233,1.0,0.0,0.0,,Click Response,2_count,5.0,object-49,temp_dist_trial,6.0,t_i_12_1,travel_Iceland,tent,6.0,unique,paired,t_i_12_1.jpg,Travel,,,sub-65
Desktop or Laptop,Windows 10,Chrome 134.0.0.0,1280x720,1280x720,Temporal Distance Task,cb_06,6.0,temp_dist_trial,dist_items,qkpkxw,2.0,info,,13.699999856937213,0.0,13.699999856937213,13.699999856937213,0.0,13.699999856937213,1.0,0.0,0.0,,Slider,Slider,4.0,object-56,temp_dist_trial,6.0,t_i_12_1,travel_Iceland,tent,6.0,unique,paired,t_i_12_1.jpg,Travel,,,sub-65
Desktop or Laptop,Windows 10,Chrome 134.0.0.0,1280x720,1280x720,Temporal Distance Task,cb_06,6.0,temp_dist_trial,dist_items,qkpkxw,2.0,continue,,4220.099999952306,4213.099999999977,4220.099999952306,4220.099999952306,4213.099999999977,4220.099999952306,1.0,0.0,0.0,,Click To Continue,Next button,7.0,object-60,temp_dist_trial,6.0,t_i_12_1,travel_Iceland,tent,6.0,unique,paired,t_i_12_1.jpg,Travel,,,sub-65
Desktop or Laptop,Windows 10,Chrome 134.0.0.0,1280x720,1280x720,Temporal Distance Task,cb_06,6.0,temp_dist_trial,dist_items,qkpkxw,2.0,response,62,1082.7000000000116,4213.099999999977,4220.399999904621,1082.7000000000116,4213.099999999977,4220.399999904621,1.0,3137.699999904609,0.0,,Slider,Slider,4.0,object-56,temp_dist_trial,6.0,t_i_12_1,travel_Iceland,tent,6.0,unique,paired,t_i_12_1.jpg,Travel,,,sub-65
Desktop or Laptop,Windows 10,Chrome 134.0.0.0,1280x720,1280x720,Temporal Distance Task,cb_06,7.0,temp_dist_trial,num_items,zn7si1,1.0,response,num_miss,2997.7999999999884,2997.7999999999884,2997.7999999999884,2997.7999999999884,2997.7999999999884,2997.7999999999884,1.0,0.0,0.0,num_miss_tag,Time Limit,screen,0.0,screen,temp_dist_trial,7.0,t_m_02_1,travel_Miami,t-shirt,6.0,unique,single,t_m_02_1.jpg,Travel,,,sub-65
Desktop or Laptop,Windows 10,Chrome 134.0.0.0,1280x720,1280x720,Temporal Distance Task,cb_06,8.0,temp_dist_trial,num_items,zn7si1,1.0,response,2_ITEM,1179.2000000476835,1165.9000000000233,1179.2000000476835,1179.2000000476835,1165.9000000000233,1179.2000000476835,1.0,0.0,0.0,,Click Response,2_count,5.0,object-49,temp_dist_trial,8.0,t_s_19_1,travel_shared,pajamas,6.0,competing,paired,t_s_19_1.jpg,Travel,,,sub-65
Desktop or Laptop,Windows 10,Chrome 134.0.0.0,1280x720,1280x720,Temporal Distance Task,cb_06,8.0,temp_dist_trial,dist_items,qkpkxw,2.0,info,,12.699999856937213,0.0,12.699999856937213,12.699999856937213,0.0,12.699999856937213,1.0,0.0,0.0,,Slider,Slider,4.0,object-56,temp_dist_trial,8.0,t_s_19_1,travel_shared,pajamas,6.0,competing,paired,t_s_19_1.jpg,Travel,,,sub-65
Desktop or Laptop,Windows 10,Chrome 134.0.0.0,1280x720,1280x720,Temporal Distance Task,cb_06,8.0,temp_dist_trial,dist_items,qkpkxw,2.0,continue,,2267.899999904621,2264.599999999977,2267.899999904621,2267.899999904621,2264.599999999977,2267.899999904621,1.0,0.0,0.0,,Click To Continue,Next button,7.0,object-60,temp_dist_trial,8.0,t_s_19_1,travel_shared,pajamas,6.0,competing,paired,t_s_19_1.jpg,Travel,,,sub-65
Desktop or Laptop,Windows 10,Chrome 134.0.0.0,1280x720,1280x720,Temporal Distance Task,cb_06,8.0,temp_dist_trial,dist_items,qkpkxw,2.0,response,59,1182.5,2264.599999999977,2268.6999998569368,1182.5,2264.599999999977,2268.6999998569368,1.0,1086.1999998569372,0.0,,Slider,Slider,4.0,object-56,temp_dist_trial,8.0,t_s_19_1,travel_shared,pajamas,6.0,competing,paired,t_s_19_1.jpg,Travel,,,sub-65
Desktop or Laptop,Windows 10,Chrome 134.0.0.0,1280x720,1280x720,Temporal Distance Task,cb_06,9.0,temp_dist_trial,num_items,zn7si1,1.0,response,1_ITEM,978.499999952328,965.9000000000232,978.499999952328,978.499999952328,965.9000000000232,978.499999952328,1.0,0.0,0.0,,Click Response,1_count,3.0,object-46,temp_dist_trial,9.0,t_s_11_1,travel_shared,eye mask,6.0,competing,single,t_s_11_1.jpg,Travel,,,sub-65
Desktop or Laptop,Windows 10,Chrome 134.0.0.0,1280x720,1280x720,Temporal Distance Task,cb_06,10.0,temp_dist_trial,num_items,zn7si1,1.0,response,2_ITEM,1410.1999998569372,1398.8999999999646,1410.1999998569372,1410.1999998569372,1398.8999999999646,1410.1999998569372,1.0,0.0,0.0,,Click Response,2_count,5.0,object-49,temp_dist_trial,10.0,t_s_04_1,travel_shared,instant camera,6.0,competing,paired,t_s_04_1.jpg,Travel,,,sub-65
Desktop or Laptop,Windows 10,Chrome 134.0.0.0,1280x720,1280x720,Temporal Distance Task,cb_06,10.0,temp_dist_trial,dist_items,qkpkxw,2.0,info,,11.000000047672074,0.0,11.000000047672074,11.000000047672074,0.0,11.000000047672074,1.0,0.0,0.0,,Slider,Slider,4.0,object-56,temp_dist_trial,10.0,t_s_04_1,travel_shared,instant camera,6.0,competing,paired,t_s_04_1.jpg,Travel,,,sub-65
Desktop or Laptop,Windows 10,Chrome 134.0.0.0,1280x720,1280x720,Temporal Distance Task,cb_06,10.0,temp_dist_trial,dist_items,qkpkxw,2.0,continue,,2985.899999904621,2981.0999999999767,2985.899999904621,2985.899999904621,2981.0999999999767,2985.899999904621,1.0,0.0,0.0,,Click To Continue,Next button,7.0,object-60,temp_dist_trial,10.0,t_s_04_1,travel_shared,instant camera,6.0,competing,paired,t_s_04_1.jpg,Travel,,,sub-65
Desktop or Laptop,Windows 10,Chrome 134.0.0.0,1280x720,1280x720,Temporal Distance Task,cb_06,10.0,temp_dist_trial,dist_items,qkpkxw,2.0,response,63,1898.5,2981.0999999999767,2987.2999999999884,1898.5,2981.0999999999767,2987.2999999999884,1.0,1088.7999999999884,0.0,,Slider,Slider,4.0,object-56,temp_dist_trial,10.0,t_s_04_1,travel_shared,instant camera,6.0,competing,paired,t_s_04_1.jpg,Travel,,,sub-65
Desktop or Laptop,Windows 10,Chrome 134.0.0.0,1280x720,1280x720,Temporal Distance Task,cb_06,11.0,temp_dist_trial,num_items,zn7si1,1.0,response,1_ITEM,1100.9000000476954,1098.7999999999884,1100.9000000476954,1100.9000000476954,1098.7999999999884,1100.9000000476954,1.0,0.0,0.0,,Click Response,1_count,3.0,object-46,temp_dist_trial,11.0,t_m_20_1,travel_Miami,inflatable beachball,6.0,unique,paired,t_m_20_1.jpg,Travel,,,sub-65
Desktop or Laptop,Windows 10,Chrome 134.0.0.0,1280x720,1280x720,Temporal Distance Task,cb_06,12.0,temp_dist_trial,num_items,zn7si1,1.0,response,2_ITEM,1144.9999998569256,1132.5,1144.9999998569256,1144.9999998569256,1132.5,1144.9999998569256,1.0,0.0,0.0,,Click Response,2_count,5.0,object-49,temp_dist_trial,12.0,t_m_11_1,travel_Miami,collapsible beach chair,6.0,unique,paired,t_m_11_1.jpg,Travel,,,sub-65
Desktop or Laptop,Windows 10,Chrome 134.0.0.0,1280x720,1280x720,Temporal Distance Task,cb_06,12.0,temp_dist_trial,dist_items,qkpkxw,2.0,info,,9.999999904655851,0.0,9.999999904655851,9.999999904655851,0.0,9.999999904655851,1.0,0.0,0.0,,Slider,Slider,4.0,object-56,temp_dist_trial,12.0,t_m_11_1,travel_Miami,collapsible beach chair,6.0,unique,paired,t_m_11_1.jpg,Travel,,,sub-65
Desktop or Laptop,Windows 10,Chrome 134.0.0.0,1280x720,1280x720,Temporal Distance Task,cb_06,12.0,temp_dist_trial,dist_items,qkpkxw,2.0,continue,,2602.299999856972,2598.3000000000466,2602.299999856972,2602.299999856972,2598.3000000000466,2602.299999856972,1.0,0.0,0.0,,Click To Continue,Next button,7.0,object-60,temp_dist_trial,12.0,t_m_11_1,travel_Miami,collapsible beach chair,6.0,unique,paired,t_m_11_1.jpg,Travel,,,sub-65
Desktop or Laptop,Windows 10,Chrome 134.0.0.0,1280x720,1280x720,Temporal Distance Task,cb_06,12.0,temp_dist_trial,dist_items,qkpkxw,2.0,response,58,1215.8000000000466,2598.3000000000466,2603.4000000000233,1215.8000000000466,2598.3000000000466,2603.4000000000233,1.0,1387.5999999999767,0.0,,Slider,Slider,4.0,object-56,temp_dist_trial,12.0,t_m_11_1,travel_Miami,collapsible beach chair,6.0,unique,paired,t_m_11_1.jpg,Travel,,,sub-65
Desktop or Laptop,Windows 10,Chrome 134.0.0.0,1280x720,1280x720,Temporal Distance Task,cb_06,13.0,temp_dist_trial,num_items,zn7si1,1.0,response,1_ITEM,1763.6999999046093,1748.3999999999646,1763.6999999046093,1763.6999999046093,1748.3999999999646,1763.6999999046093,1.0,0.0,0.0,,Click Response,1_count,3.0,object-46,temp_dist_trial,13.0,t_s_22_1,travel_shared,belt,6.0,competing,single,t_s_22_1.jpg,Travel,,,sub-65
Desktop or Laptop,Windows 10,Chrome 134.0.0.0,1280x720,1280x720,Temporal Distance Task,cb_06,14.0,temp_dist_trial,num_items,zn7si1,1.0,response,2_ITEM,949.0999999999768,932.7000000000116,949.0999999999768,949.0999999999768,932.7000000000116,949.0999999999768,1.0,0.0,0.0,,Click Response,2_count,5.0,object-49,temp_dist_trial,14.0,t_i_13_1,travel_Iceland,sleeping bag,6.0,unique,single,t_i_13_1.jpg,Travel,,,sub-65
Desktop or Laptop,Windows 10,Chrome 134.0.0.0,1280x720,1280x720,Temporal Distance Task,cb_06,14.0,temp_dist_trial,dist_items,qkpkxw,2.0,info,,11.500000047672074,0.0,11.500000047672074,11.500000047672074,0.0,11.500000047672074,1.0,0.0,0.0,,Slider,Slider,4.0,object-56,temp_dist_trial,14.0,t_i_13_1,travel_Iceland,sleeping bag,6.0,unique,single,t_i_13_1.jpg,Travel,,,sub-65
Desktop or Laptop,Windows 10,Chrome 134.0.0.0,1280x720,1280x720,Temporal Distance Task,cb_06,14.0,temp_dist_trial,dist_items,qkpkxw,2.0,continue,,3079.500000047672,3064.2999999999884,3079.500000047672,3079.500000047672,3064.2999999999884,3079.500000047672,1.0,0.0,0.0,,Click To Continue,Next button,7.0,object-60,temp_dist_trial,14.0,t_i_13_1,travel_Iceland,sleeping bag,6.0,unique,single,t_i_13_1.jpg,Travel,,,sub-65
Desktop or Laptop,Windows 10,Chrome 134.0.0.0,1280x720,1280x720,Temporal Distance Task,cb_06,14.0,temp_dist_trial,dist_items,qkpkxw,2.0,response,64,1665.2999999999884,3064.2999999999884,3080.500000047672,1665.2999999999884,3064.2999999999884,3080.500000047672,1.0,1415.2000000476835,0.0,,Slider,Slider,4.0,object-56,temp_dist_trial,14.0,t_i_13_1,travel_Iceland,sleeping bag,6.0,unique,single,t_i_13_1.jpg,Travel,,,sub-65
Desktop or Laptop,Windows 10,Chrome 134.0.0.0,1280x720,1280x720,Temporal Distance Task,cb_06,15.0,temp_dist_trial,num_items,zn7si1,1.0,response,2_ITEM,1015.7000000476836,999.2999999999884,1015.7000000476836,1015.7000000476836,999.2999999999884,1015.7000000476836,1.0,0.0,0.0,,Click Response,2_count,5.0,object-49,temp_dist_trial,15.0,t_s_06_1,travel_shared,luggage,6.0,competing,paired,t_s_06_1.jpg,Travel,,,sub-65
Desktop or Laptop,Windows 10,Chrome 134.0.0.0,1280x720,1280x720,Temporal Distance Task,cb_06,15.0,temp_dist_trial,dist_items,qkpkxw,2.0,info,,11.000000047672074,0.0,11.000000047672074,11.000000047672074,0.0,11.000000047672074,1.0,0.0,0.0,,Slider,Slider,4.0,object-56,temp_dist_trial,15.0,t_s_06_1,travel_shared,luggage,6.0,competing,paired,t_s_06_1.jpg,Travel,,,sub-65
Desktop or Laptop,Windows 10,Chrome 134.0.0.0,1280x720,1280x720,Temporal Distance Task,cb_06,15.0,temp_dist_trial,dist_items,qkpkxw,2.0,continue,,2373.7999999999884,2364.700000000012,2373.7999999999884,2373.7999999999884,2364.700000000012,2373.7999999999884,1.0,0.0,0.0,,Click To Continue,Next button,7.0,object-60,temp_dist_trial,15.0,t_s_06_1,travel_shared,luggage,6.0,competing,paired,t_s_06_1.jpg,Travel,,,sub-65
Desktop or Laptop,Windows 10,Chrome 134.0.0.0,1280x720,1280x720,Temporal Distance Task,cb_06,15.0,temp_dist_trial,dist_items,qkpkxw,2.0,response,63,1331.7999999999886,2364.700000000012,2374.6999998569368,1331.7999999999886,2364.700000000012,2374.6999998569368,1.0,1042.8999998569486,0.0,,Slider,Slider,4.0,object-56,temp_dist_trial,15.0,t_s_06_1,travel_shared,luggage,6.0,competing,paired,t_s_06_1.jpg,Travel,,,sub-65
Desktop or Laptop,Windows 10,Chrome 134.0.0.0,1280x720,1280x720,Temporal Distance Task,cb_06,16.0,temp_dist_trial,num_items,zn7si1,1.0,response,2_ITEM,1298.7000000000114,1282.0,1298.7000000000114,1298.7000000000114,1282.0,1298.7000000000114,1.0,0.0,0.0,,Click Response,2_count,5.0,object-49,temp_dist_trial,16.0,t_i_09_1,travel_Iceland,ear muffs,6.0,unique,single,t_i_09_1.jpg,Travel,,,sub-65
Desktop or Laptop,Windows 10,Chrome 134.0.0.0,1280x720,1280x720,Temporal Distance Task,cb_06,16.0,temp_dist_trial,dist_items,qkpkxw,2.0,info,,12.499999856925573,0.0,12.499999856925573,12.499999856925573,0.0,12.499999856925573,1.0,0.0,0.0,,Slider,Slider,4.0,object-56,temp_dist_trial,16.0,t_i_09_1,travel_Iceland,ear muffs,6.0,unique,single,t_i_09_1.jpg,Travel,,,sub-65
Desktop or Laptop,Windows 10,Chrome 134.0.0.0,1280x720,1280x720,Temporal Distance Task,cb_06,16.0,temp_dist_trial,dist_items,qkpkxw,2.0,continue,,1941.5999999999767,1931.7999999999884,1941.5999999999767,1941.5999999999767,1931.7999999999884,1941.5999999999767,1.0,0.0,0.0,,Click To Continue,Next button,7.0,object-60,temp_dist_trial,16.0,t_i_09_1,travel_Iceland,ear muffs,6.0,unique,single,t_i_09_1.jpg,Travel,,,sub-65
Desktop or Laptop,Windows 10,Chrome 134.0.0.0,1280x720,1280x720,Temporal Distance Task,cb_06,16.0,temp_dist_trial,dist_items,qkpkxw,2.0,response,38,782.7999999999884,1931.7999999999884,1943.0999999999767,782.7999999999884,1931.7999999999884,1943.0999999999767,1.0,1160.2999999999886,0.0,,Slider,Slider,4.0,object-56,temp_dist_trial,16.0,t_i_09_1,travel_Iceland,ear muffs,6.0,unique,single,t_i_09_1.jpg,Travel,,,sub-65
Desktop or Laptop,Windows 10,Chrome 134.0.0.0,1280x720,1280x720,Temporal Distance Task,cb_06,17.0,temp_dist_trial,num_items,zn7si1,1.0,response,2_ITEM,1041.7999999999884,1032.2999999999884,1041.7999999999884,1041.7999999999884,1032.2999999999884,1041.7999999999884,1.0,0.0,0.0,,Click Response,2_count,5.0,object-49,temp_dist_trial,17.0,t_i_03_1,travel_Iceland,winter jacket,6.0,unique,paired,t_i_03_1.jpg,Travel,,,sub-65
Desktop or Laptop,Windows 10,Chrome 134.0.0.0,1280x720,1280x720,Temporal Distance Task,cb_06,17.0,temp_dist_trial,dist_items,qkpkxw,2.0,info,,10.39999985694885,0.0,10.39999985694885,10.39999985694885,0.0,10.39999985694885,1.0,0.0,0.0,,Slider,Slider,4.0,object-56,temp_dist_trial,17.0,t_i_03_1,travel_Iceland,winter jacket,6.0,unique,paired,t_i_03_1.jpg,Travel,,,sub-65
Desktop or Laptop,Windows 10,Chrome 134.0.0.0,1280x720,1280x720,Temporal Distance Task,cb_06,17.0,temp_dist_trial,dist_items,qkpkxw,2.0,continue,,2079.5,2064.9000000000233,2079.5,2079.5,2064.9000000000233,2079.5,1.0,0.0,0.0,,Click To Continue,Next button,7.0,object-60,temp_dist_trial,17.0,t_i_03_1,travel_Iceland,winter jacket,6.0,unique,paired,t_i_03_1.jpg,Travel,,,sub-65
Desktop or Laptop,Windows 10,Chrome 134.0.0.0,1280x720,1280x720,Temporal Distance Task,cb_06,17.0,temp_dist_trial,dist_items,qkpkxw,2.0,response,36,1199.0,2064.9000000000233,2081.099999904633,1199.0,2064.9000000000233,2081.099999904633,1.0,882.0999999046326,0.0,,Slider,Slider,4.0,object-56,temp_dist_trial,17.0,t_i_03_1,travel_Iceland,winter jacket,6.0,unique,paired,t_i_03_1.jpg,Travel,,,sub-65
Desktop or Laptop,Windows 10,Chrome 134.0.0.0,1280x720,1280x720,Temporal Distance Task,cb_06,18.0,temp_dist_trial,num_items,zn7si1,1.0,response,2_ITEM,755.8999999522929,749.0,755.8999999522929,755.8999999522929,749.0,755.8999999522929,1.0,0.0,0.0,,Click Response,2_count,5.0,object-49,temp_dist_trial,18.0,t_i_15_1,travel_Iceland,compass,6.0,unique,single,t_i_15_1.jpg,Travel,,,sub-65
Desktop or Laptop,Windows 10,Chrome 134.0.0.0,1280x720,1280x720,Temporal Distance Task,cb_06,18.0,temp_dist_trial,dist_items,qkpkxw,2.0,info,,7.699999856937209,0.0,7.699999856937209,7.699999856937209,0.0,7.699999856937209,1.0,0.0,0.0,,Slider,Slider,4.0,object-56,temp_dist_trial,18.0,t_i_15_1,travel_Iceland,compass,6.0,unique,single,t_i_15_1.jpg,Travel,,,sub-65
Desktop or Laptop,Windows 10,Chrome 134.0.0.0,1280x720,1280x720,Temporal Distance Task,cb_06,18.0,temp_dist_trial,dist_items,qkpkxw,2.0,continue,,1775.7999999999884,1765.7000000000116,1775.7999999999884,1775.7999999999884,1765.7000000000116,1775.7999999999884,1.0,0.0,0.0,,Click To Continue,Next button,7.0,object-60,temp_dist_trial,18.0,t_i_15_1,travel_Iceland,compass,6.0,unique,single,t_i_15_1.jpg,Travel,,,sub-65
Desktop or Laptop,Windows 10,Chrome 134.0.0.0,1280x720,1280x720,Temporal Distance Task,cb_06,18.0,temp_dist_trial,dist_items,qkpkxw,2.0,response,56,999.2999999999884,1765.7000000000116,1776.500000047672,999.2999999999884,1765.7000000000116,1776.500000047672,1.0,777.2000000476837,0.0,,Slider,Slider,4.0,object-56,temp_dist_trial,18.0,t_i_15_1,travel_Iceland,compass,6.0,unique,single,t_i_15_1.jpg,Travel,,,sub-65
Desktop or Laptop,Windows 10,Chrome 134.0.0.0,1280x720,1280x720,Temporal Distance Task,cb_06,19.0,temp_dist_trial,num_items,zn7si1,1.0,response,2_ITEM,1279.5999999999767,1265.1999999999534,1279.5999999999767,1279.5999999999767,1265.1999999999534,1279.5999999999767,1.0,0.0,0.0,,Click Response,2_count,5.0,object-49,temp_dist_trial,19.0,t_i_06_1,travel_Iceland,knit hat,6.0,unique,paired,t_i_06_1.jpg,Travel,,,sub-65
Desktop or Laptop,Windows 10,Chrome 134.0.0.0,1280x720,1280x720,Temporal Distance Task,cb_06,19.0,temp_dist_trial,dist_items,qkpkxw,2.0,info,,12.699999856937213,0.0,12.699999856937213,12.699999856937213,0.0,12.699999856937213,1.0,0.0,0.0,,Slider,Slider,4.0,object-56,temp_dist_trial,19.0,t_i_06_1,travel_Iceland,knit hat,6.0,unique,paired,t_i_06_1.jpg,Travel,,,sub-65
Desktop or Laptop,Windows 10,Chrome 134.0.0.0,1280x720,1280x720,Temporal Distance Task,cb_06,19.0,temp_dist_trial,dist_items,qkpkxw,2.0,continue,,1574.899999904621,1565.5,1574.899999904621,1574.899999904621,1565.5,1574.899999904621,1.0,0.0,0.0,,Click To Continue,Next button,7.0,object-60,temp_dist_trial,19.0,t_i_06_1,travel_Iceland,knit hat,6.0,unique,paired,t_i_06_1.jpg,Travel,,,sub-65
Desktop or Laptop,Windows 10,Chrome 134.0.0.0,1280x720,1280x720,Temporal Distance Task,cb_06,19.0,temp_dist_trial,dist_items,qkpkxw,2.0,response,58,732.5,1565.5,1575.899999904621,732.5,1565.5,1575.899999904621,1.0,843.3999999046208,0.0,,Slider,Slider,4.0,object-56,temp_dist_trial,19.0,t_i_06_1,travel_Iceland,knit hat,6.0,unique,paired,t_i_06_1.jpg,Travel,,,sub-65
Desktop or Laptop,Windows 10,Chrome 134.0.0.0,1280x720,1280x720,Temporal Distance Task,cb_06,20.0,temp_dist_trial,num_items,zn7si1,1.0,response,2_ITEM,1073.000000047672,1065.7999999999884,1073.000000047672,1073.000000047672,1065.7999999999884,1073.000000047672,1.0,0.0,0.0,,Click Response,2_count,5.0,object-49,temp_dist_trial,20.0,t_s_03_1,travel_shared,portable charger,6.0,competing,paired,t_s_03_1.jpg,Travel,,,sub-65
Desktop or Laptop,Windows 10,Chrome 134.0.0.0,1280x720,1280x720,Temporal Distance Task,cb_06,20.0,temp_dist_trial,dist_items,qkpkxw,2.0,info,,5.599999952304644,0.0,5.599999952304644,5.599999952304644,0.0,5.599999952304644,1.0,0.0,0.0,,Slider,Slider,4.0,object-56,temp_dist_trial,20.0,t_s_03_1,travel_shared,portable charger,6.0,competing,paired,t_s_03_1.jpg,Travel,,,sub-65
Desktop or Laptop,Windows 10,Chrome 134.0.0.0,1280x720,1280x720,Temporal Distance Task,cb_06,20.0,temp_dist_trial,dist_items,qkpkxw,2.0,continue,,2663.7999999999884,2647.7999999999884,2663.7999999999884,2663.7999999999884,2647.7999999999884,2663.7999999999884,1.0,0.0,0.0,,Click To Continue,Next button,7.0,object-60,temp_dist_trial,20.0,t_s_03_1,travel_shared,portable charger,6.0,competing,paired,t_s_03_1.jpg,Travel,,,sub-65
Desktop or Laptop,Windows 10,Chrome 134.0.0.0,1280x720,1280x720,Temporal Distance Task,cb_06,20.0,temp_dist_trial,dist_items,qkpkxw,2.0,response,59,1115.7000000000116,2647.7999999999884,2664.399999999965,1115.7000000000116,2647.7999999999884,2664.399999999965,1.0,1548.6999999999537,0.0,,Slider,Slider,4.0,object-56,temp_dist_trial,20.0,t_s_03_1,travel_shared,portable charger,6.0,competing,paired,t_s_03_1.jpg,Travel,,,sub-65
Desktop or Laptop,Windows 10,Chrome 134.0.0.0,1280x720,1280x720,Temporal Distance Task,cb_06,21.0,temp_dist_trial,num_items,zn7si1,1.0,response,2_ITEM,789.8999998569489,782.5,789.8999998569489,789.8999998569489,782.5,789.8999998569489,1.0,0.0,0.0,,Click Response,2_count,5.0,object-49,temp_dist_trial,21.0,t_s_24_1,travel_shared,ear plugs,6.0,competing,paired,t_s_24_1.jpg,Travel,,,sub-65
Desktop or Laptop,Windows 10,Chrome 134.0.0.0,1280x720,1280x720,Temporal Distance Task,cb_06,21.0,temp_dist_trial,dist_items,qkpkxw,2.0,info,,11.899999952293,0.0,11.899999952293,11.899999952293,0.0,11.899999952293,1.0,0.0,0.0,,Slider,Slider,4.0,object-56,temp_dist_trial,21.0,t_s_24_1,travel_shared,ear plugs,6.0,competing,paired,t_s_24_1.jpg,Travel,,,sub-65
Desktop or Laptop,Windows 10,Chrome 134.0.0.0,1280x720,1280x720,Temporal Distance Task,cb_06,21.0,temp_dist_trial,dist_items,qkpkxw,2.0,continue,,1893.9999998569253,1881.5999999999767,1893.9999998569253,1893.9999998569253,1881.5999999999767,1893.9999998569253,1.0,0.0,0.0,,Click To Continue,Next button,7.0,object-60,temp_dist_trial,21.0,t_s_24_1,travel_shared,ear plugs,6.0,competing,paired,t_s_24_1.jpg,Travel,,,sub-65
Desktop or Laptop,Windows 10,Chrome 134.0.0.0,1280x720,1280x720,Temporal Distance Task,cb_06,21.0,temp_dist_trial,dist_items,qkpkxw,2.0,response,33,949.0999999999768,1881.5999999999767,1894.5999999999767,949.0999999999768,1881.5999999999767,1894.5999999999767,1.0,945.5,0.0,,Slider,Slider,4.0,object-56,temp_dist_trial,21.0,t_s_24_1,travel_shared,ear plugs,6.0,competing,paired,t_s_24_1.jpg,Travel,,,sub-65
Desktop or Laptop,Windows 10,Chrome 134.0.0.0,1280x720,1280x720,Temporal Distance Task,cb_06,22.0,temp_dist_trial,num_items,zn7si1,1.0,response,2_ITEM,796.0,783.0999999999768,796.0,796.0,783.0999999999768,796.0,1.0,0.0,0.0,,Click Response,2_count,5.0,object-49,temp_dist_trial,22.0,t_m_09_1,travel_Miami,beach towel,6.0,unique,paired,t_m_09_1.jpg,Travel,,,sub-65
Desktop or Laptop,Windows 10,Chrome 134.0.0.0,1280x720,1280x720,Temporal Distance Task,cb_06,22.0,temp_dist_trial,dist_items,qkpkxw,2.0,info,,10.700000047683718,0.0,10.700000047683718,10.700000047683718,0.0,10.700000047683718,1.0,0.0,0.0,,Slider,Slider,4.0,object-56,temp_dist_trial,22.0,t_m_09_1,travel_Miami,beach towel,6.0,unique,paired,t_m_09_1.jpg,Travel,,,sub-65
Desktop or Laptop,Windows 10,Chrome 134.0.0.0,1280x720,1280x720,Temporal Distance Task,cb_06,22.0,temp_dist_trial,dist_items,qkpkxw,2.0,continue,,2211.5,2198.200000000012,2211.5,2211.5,2198.200000000012,2211.5,1.0,0.0,0.0,,Click To Continue,Next button,7.0,object-60,temp_dist_trial,22.0,t_m_09_1,travel_Miami,beach towel,6.0,unique,paired,t_m_09_1.jpg,Travel,,,sub-65
Desktop or Laptop,Windows 10,Chrome 134.0.0.0,1280x720,1280x720,Temporal Distance Task,cb_06,22.0,temp_dist_trial,dist_items,qkpkxw,2.0,response,33,1299.4000000000233,2198.200000000012,2212.7999999523167,1299.4000000000233,2198.200000000012,2212.7999999523167,1.0,913.3999999522928,0.0,,Slider,Slider,4.0,object-56,temp_dist_trial,22.0,t_m_09_1,travel_Miami,beach towel,6.0,unique,paired,t_m_09_1.jpg,Travel,,,sub-65
Desktop or Laptop,Windows 10,Chrome 134.0.0.0,1280x720,1280x720,Temporal Distance Task,cb_06,23.0,temp_dist_trial,num_items,zn7si1,1.0,response,2_ITEM,693.5999999523046,682.7999999999884,693.5999999523046,693.5999999523046,682.7999999999884,693.5999999523046,1.0,0.0,0.0,,Click Response,2_count,5.0,object-49,temp_dist_trial,23.0,t_s_20_1,travel_shared,travel pill case,6.0,competing,single,t_s_20_1.jpg,Travel,,,sub-65
Desktop or Laptop,Windows 10,Chrome 134.0.0.0,1280x720,1280x720,Temporal Distance Task,cb_06,23.0,temp_dist_trial,dist_items,qkpkxw,2.0,info,,12.400000047695356,0.0,12.400000047695356,12.400000047695356,0.0,12.400000047695356,1.0,0.0,0.0,,Slider,Slider,4.0,object-56,temp_dist_trial,23.0,t_s_20_1,travel_shared,travel pill case,6.0,competing,single,t_s_20_1.jpg,Travel,,,sub-65
Desktop or Laptop,Windows 10,Chrome 134.0.0.0,1280x720,1280x720,Temporal Distance Task,cb_06,23.0,temp_dist_trial,dist_items,qkpkxw,2.0,continue,,3224.200000000012,3214.2999999999884,3224.200000000012,3224.200000000012,3214.2999999999884,3224.200000000012,1.0,0.0,0.0,,Click To Continue,Next button,7.0,object-60,temp_dist_trial,23.0,t_s_20_1,travel_shared,travel pill case,6.0,competing,single,t_s_20_1.jpg,Travel,,,sub-65
Desktop or Laptop,Windows 10,Chrome 134.0.0.0,1280x720,1280x720,Temporal Distance Task,cb_06,23.0,temp_dist_trial,dist_items,qkpkxw,2.0,response,57,2048.600000000035,3214.2999999999884,3225.499999952328,2048.600000000035,3214.2999999999884,3225.499999952328,1.0,1176.899999952293,0.0,,Slider,Slider,4.0,object-56,temp_dist_trial,23.0,t_s_20_1,travel_shared,travel pill case,6.0,competing,single,t_s_20_1.jpg,Travel,,,sub-65
Desktop or Laptop,Windows 10,Chrome 134.0.0.0,1280x720,1280x720,Temporal Distance Task,cb_06,24.0,temp_dist_trial,num_items,zn7si1,1.0,response,1_ITEM,1097.999999904656,1082.2000000000116,1097.999999904656,1097.999999904656,1082.2000000000116,1097.999999904656,1.0,0.0,0.0,,Click Response,1_count,3.0,object-46,temp_dist_trial,24.0,t_m_12_1,travel_Miami,foldable pail and shovel,6.0,unique,single,t_m_12_1.jpg,Travel,,,sub-65
Desktop or Laptop,Windows 10,Chrome 134.0.0.0,1280x720,1280x720,Temporal Distance Task,cb_06,25.0,temp_dist_trial,num_items,zn7si1,1.0,response,2_ITEM,1070.4000000000233,1066.100000000035,1070.4000000000233,1070.4000000000233,1066.100000000035,1070.4000000000233,1.0,0.0,0.0,,Click Response,2_count,5.0,object-49,temp_dist_trial,25.0,t_i_07_1,travel_Iceland,hiking backpack,6.0,unique,paired,t_i_07_1.jpg,Travel,,,sub-65
Desktop or Laptop,Windows 10,Chrome 134.0.0.0,1280x720,1280x720,Temporal Distance Task,cb_06,25.0,temp_dist_trial,dist_items,qkpkxw,2.0,info,,10.899999856948853,0.0,10.899999856948853,10.899999856948853,0.0,10.899999856948853,1.0,0.0,0.0,,Slider,Slider,4.0,object-56,temp_dist_trial,25.0,t_i_07_1,travel_Iceland,hiking backpack,6.0,unique,paired,t_i_07_1.jpg,Travel,,,sub-65
Desktop or Laptop,Windows 10,Chrome 134.0.0.0,1280x720,1280x720,Temporal Distance Task,cb_06,25.0,temp_dist_trial,dist_items,qkpkxw,2.0,continue,,3330.499999999942,3314.0999999999767,3330.499999999942,3330.499999999942,3314.0999999999767,3330.499999999942,1.0,0.0,0.0,,Click To Continue,Next button,7.0,object-60,temp_dist_trial,25.0,t_i_07_1,travel_Iceland,hiking backpack,6.0,unique,paired,t_i_07_1.jpg,Travel,,,sub-65
Desktop or Laptop,Windows 10,Chrome 134.0.0.0,1280x720,1280x720,Temporal Distance Task,cb_06,25.0,temp_dist_trial,dist_items,qkpkxw,2.0,response,56,982.7000000000116,3314.0999999999767,3330.499999999942,982.7000000000116,3314.0999999999767,3330.499999999942,1.0,2347.79999999993,0.0,,Slider,Slider,4.0,object-56,temp_dist_trial,25.0,t_i_07_1,travel_Iceland,hiking backpack,6.0,unique,paired,t_i_07_1.jpg,Travel,,,sub-65
Desktop or Laptop,Windows 10,Chrome 134.0.0.0,1280x720,1280x720,Temporal Distance Task,cb_06,26.0,temp_dist_trial,num_items,zn7si1,1.0,response,2_ITEM,1232.7999998569721,1215.9000000000233,1232.7999998569721,1232.7999998569721,1215.9000000000233,1232.7999998569721,1.0,0.0,0.0,,Click Response,2_count,5.0,object-49,temp_dist_trial,26.0,t_m_04_1,travel_Miami,UV jacket,6.0,unique,paired,t_m_04_1.jpg,Travel,,,sub-65
Desktop or Laptop,Windows 10,Chrome 134.0.0.0,1280x720,1280x720,Temporal Distance Task,cb_06,26.0,temp_dist_trial,dist_items,qkpkxw,2.0,info,,11.100000047707,0.0,11.100000047707,11.100000047707,0.0,11.100000047707,1.0,0.0,0.0,,Slider,Slider,4.0,object-56,temp_dist_trial,26.0,t_m_04_1,travel_Miami,UV jacket,6.0,unique,paired,t_m_04_1.jpg,Travel,,,sub-65
Desktop or Laptop,Windows 10,Chrome 134.0.0.0,1280x720,1280x720,Temporal Distance Task,cb_06,26.0,temp_dist_trial,dist_items,qkpkxw,2.0,continue,,1742.999999904656,1732.1000000000354,1742.999999904656,1742.999999904656,1732.1000000000354,1742.999999904656,1.0,0.0,0.0,,Click To Continue,Next button,7.0,object-60,temp_dist_trial,26.0,t_m_04_1,travel_Miami,UV jacket,6.0,unique,paired,t_m_04_1.jpg,Travel,,,sub-65
Desktop or Laptop,Windows 10,Chrome 134.0.0.0,1280x720,1280x720,Temporal Distance Task,cb_06,26.0,temp_dist_trial,dist_items,qkpkxw,2.0,response,41,732.6000000000349,1732.1000000000354,1744.100000047707,732.6000000000349,1732.1000000000354,1744.100000047707,1.0,1011.500000047672,0.0,,Slider,Slider,4.0,object-56,temp_dist_trial,26.0,t_m_04_1,travel_Miami,UV jacket,6.0,unique,paired,t_m_04_1.jpg,Travel,,,sub-65
Desktop or Laptop,Windows 10,Chrome 134.0.0.0,1280x720,1280x720,Temporal Distance Task,cb_06,27.0,temp_dist_trial,num_items,zn7si1,1.0,response,2_ITEM,825.0000000476721,816.0,825.0000000476721,825.0000000476721,816.0,825.0000000476721,1.0,0.0,0.0,,Click Response,2_count,5.0,object-49,temp_dist_trial,27.0,t_i_02_1,travel_Iceland,scarf,6.0,unique,paired,t_i_02_1.jpg,Travel,,,sub-65
Desktop or Laptop,Windows 10,Chrome 134.0.0.0,1280x720,1280x720,Temporal Distance Task,cb_06,27.0,temp_dist_trial,dist_items,qkpkxw,2.0,info,,10.900000000023285,0.0,10.900000000023285,10.900000000023285,0.0,10.900000000023285,1.0,0.0,0.0,,Slider,Slider,4.0,object-56,temp_dist_trial,27.0,t_i_02_1,travel_Iceland,scarf,6.0,unique,paired,t_i_02_1.jpg,Travel,,,sub-65
Desktop or Laptop,Windows 10,Chrome 134.0.0.0,1280x720,1280x720,Temporal Distance Task,cb_06,27.0,temp_dist_trial,dist_items,qkpkxw,2.0,continue,,1969.7999998569721,1965.5,1969.7999998569721,1969.7999998569721,1965.5,1969.7999998569721,1.0,0.0,0.0,,Click To Continue,Next button,7.0,object-60,temp_dist_trial,27.0,t_i_02_1,travel_Iceland,scarf,6.0,unique,paired,t_i_02_1.jpg,Travel,,,sub-65
Desktop or Laptop,Windows 10,Chrome 134.0.0.0,1280x720,1280x720,Temporal Distance Task,cb_06,27.0,temp_dist_trial,dist_items,qkpkxw,2.0,response,36,982.7000000000116,1965.5,1982.1999999999528,982.7000000000116,1965.5,1982.1999999999528,1.0,999.4999999999416,0.0,,Slider,Slider,4.0,object-56,temp_dist_trial,27.0,t_i_02_1,travel_Iceland,scarf,6.0,unique,paired,t_i_02_1.jpg,Travel,,,sub-65
Desktop or Laptop,Windows 10,Chrome 134.0.0.0,1280x720,1280x720,Temporal Distance Task,cb_06,28.0,temp_dist_trial,num_items,zn7si1,1.0,response,2_ITEM,764.6000000477071,749.1000000000349,764.6000000477071,764.6000000477071,749.1000000000349,764.6000000477071,1.0,0.0,0.0,,Click Response,2_count,5.0,object-49,temp_dist_trial,28.0,t_s_01_1,travel_shared,fanny pack,6.0,competing,paired,t_s_01_1.jpg,Travel,,,sub-65
Desktop or Laptop,Windows 10,Chrome 134.0.0.0,1280x720,1280x720,Temporal Distance Task,cb_06,28.0,temp_dist_trial,dist_items,qkpkxw,2.0,info,,10.200000047683718,0.0,10.200000047683718,10.200000047683718,0.0,10.200000047683718,1.0,0.0,0.0,,Slider,Slider,4.0,object-56,temp_dist_trial,28.0,t_s_01_1,travel_shared,fanny pack,6.0,competing,paired,t_s_01_1.jpg,Travel,,,sub-65
Desktop or Laptop,Windows 10,Chrome 134.0.0.0,1280x720,1280x720,Temporal Distance Task,cb_06,28.0,temp_dist_trial,dist_items,qkpkxw,2.0,continue,,1973.5,1965.2999999999884,1973.5,1973.5,1965.2999999999884,1973.5,1.0,0.0,0.0,,Click To Continue,Next button,7.0,object-60,temp_dist_trial,28.0,t_s_01_1,travel_shared,fanny pack,6.0,competing,paired,t_s_01_1.jpg,Travel,,,sub-65
Desktop or Laptop,Windows 10,Chrome 134.0.0.0,1280x720,1280x720,Temporal Distance Task,cb_06,28.0,temp_dist_trial,dist_items,qkpkxw,2.0,response,60,1049.4000000000233,1965.2999999999884,1974.5,1049.4000000000233,1965.2999999999884,1974.5,1.0,925.0999999999768,0.0,,Slider,Slider,4.0,object-56,temp_dist_trial,28.0,t_s_01_1,travel_shared,fanny pack,6.0,competing,paired,t_s_01_1.jpg,Travel,,,sub-65
Desktop or Laptop,Windows 10,Chrome 134.0.0.0,1280x720,1280x720,Temporal Distance Task,cb_06,29.0,temp_dist_trial,num_items,zn7si1,1.0,response,2_ITEM,1208.0999998569605,1199.0,1208.0999998569605,1208.0999998569605,1199.0,1208.0999998569605,1.0,0.0,0.0,,Click Response,2_count,5.0,object-49,temp_dist_trial,29.0,t_s_21_1,travel_shared,umbrella,6.0,competing,paired,t_s_21_1.jpg,Travel,,,sub-65
Desktop or Laptop,Windows 10,Chrome 134.0.0.0,1280x720,1280x720,Temporal Distance Task,cb_06,29.0,temp_dist_trial,dist_items,qkpkxw,2.0,info,,12.5,0.0,12.5,12.5,0.0,12.5,1.0,0.0,0.0,,Slider,Slider,4.0,object-56,temp_dist_trial,29.0,t_s_21_1,travel_shared,umbrella,6.0,competing,paired,t_s_21_1.jpg,Travel,,,sub-65
Desktop or Laptop,Windows 10,Chrome 134.0.0.0,1280x720,1280x720,Temporal Distance Task,cb_06,29.0,temp_dist_trial,dist_items,qkpkxw,2.0,continue,,1615.3999999999646,1598.7999999999884,1615.3999999999646,1615.3999999999646,1598.7999999999884,1615.3999999999646,1.0,0.0,0.0,,Click To Continue,Next button,7.0,object-60,temp_dist_trial,29.0,t_s_21_1,travel_shared,umbrella,6.0,competing,paired,t_s_21_1.jpg,Travel,,,sub-65
Desktop or Laptop,Windows 10,Chrome 134.0.0.0,1280x720,1280x720,Temporal Distance Task,cb_06,29.0,temp_dist_trial,dist_items,qkpkxw,2.0,response,35,832.7999999999884,1598.7999999999884,1615.3999999999646,832.7999999999884,1598.7999999999884,1615.3999999999646,1.0,782.5999999999768,0.0,,Slider,Slider,4.0,object-56,temp_dist_trial,29.0,t_s_21_1,travel_shared,umbrella,6.0,competing,paired,t_s_21_1.jpg,Travel,,,sub-65
Desktop or Laptop,Windows 10,Chrome 134.0.0.0,1280x720,1280x720,Temporal Distance Task,cb_06,30.0,temp_dist_trial,num_items,zn7si1,1.0,response,1_ITEM,1352.5999998569605,1348.600000000035,1352.5999998569605,1352.5999998569605,1348.600000000035,1352.5999998569605,1.0,0.0,0.0,,Click Response,1_count,3.0,object-46,temp_dist_trial,30.0,t_m_01_1,travel_Miami,sandals,6.0,unique,single,t_m_01_1.jpg,Travel,,,sub-65
Desktop or Laptop,Windows 10,Chrome 134.0.0.0,1280x720,1280x720,Temporal Distance Task,cb_06,31.0,temp_dist_trial,num_items,zn7si1,1.0,response,2_ITEM,2201.999999904656,2198.4000000000233,2201.999999904656,2201.999999904656,2198.4000000000233,2201.999999904656,1.0,0.0,0.0,,Click Response,2_count,5.0,object-49,temp_dist_trial,31.0,t_s_10_1,travel_shared,luggage lock,6.0,competing,paired,t_s_10_1.jpg,Travel,,,sub-65
Desktop or Laptop,Windows 10,Chrome 134.0.0.0,1280x720,1280x720,Temporal Distance Task,cb_06,31.0,temp_dist_trial,dist_items,qkpkxw,2.0,info,,10.599999999976717,0.0,10.599999999976717,10.599999999976717,0.0,10.599999999976717,1.0,0.0,0.0,,Slider,Slider,4.0,object-56,temp_dist_trial,31.0,t_s_10_1,travel_shared,luggage lock,6.0,competing,paired,t_s_10_1.jpg,Travel,,,sub-65
Desktop or Laptop,Windows 10,Chrome 134.0.0.0,1280x720,1280x720,Temporal Distance Task,cb_06,31.0,temp_dist_trial,dist_items,qkpkxw,2.0,continue,,2946.0999999999767,2931.0,2946.0999999999767,2946.0999999999767,2931.0,2946.0999999999767,1.0,0.0,0.0,,Click To Continue,Next button,7.0,object-60,temp_dist_trial,31.0,t_s_10_1,travel_shared,luggage lock,6.0,competing,paired,t_s_10_1.jpg,Travel,,,sub-65
Desktop or Laptop,Windows 10,Chrome 134.0.0.0,1280x720,1280x720,Temporal Distance Task,cb_06,31.0,temp_dist_trial,dist_items,qkpkxw,2.0,response,34,1898.1999999999528,2931.0,2946.899999952293,1898.1999999999528,2931.0,2946.899999952293,1.0,1048.6999999523396,0.0,,Slider,Slider,4.0,object-56,temp_dist_trial,31.0,t_s_10_1,travel_shared,luggage lock,6.0,competing,paired,t_s_10_1.jpg,Travel,,,sub-65
Desktop or Laptop,Windows 10,Chrome 134.0.0.0,1280x720,1280x720,Temporal Distance Task,cb_06,32.0,temp_dist_trial,num_items,zn7si1,1.0,response,num_miss,2997.5,2997.5,2997.5,2997.5,2997.5,2997.5,1.0,0.0,0.0,num_miss_tag,Time Limit,screen,0.0,screen,temp_dist_trial,32.0,t_s_12_1,travel_shared,clear toiletry bag,6.0,competing,paired,t_s_12_1.jpg,Travel,,,sub-65
Desktop or Laptop,Windows 10,Chrome 134.0.0.0,1280x720,1280x720,Temporal Distance Task,cb_06,33.0,temp_dist_trial,num_items,zn7si1,1.0,response,num_miss,2997.200000000012,2997.200000000012,2997.200000000012,2997.200000000012,2997.200000000012,2997.200000000012,1.0,0.0,0.0,num_miss_tag,Time Limit,screen,0.0,screen,temp_dist_trial,33.0,t_s_02_1,travel_shared,water bottle,6.0,competing,paired,t_s_02_1.jpg,Travel,,,sub-65
Desktop or Laptop,Windows 10,Chrome 134.0.0.0,1280x720,1280x720,Temporal Distance Task,cb_06,34.0,temp_dist_trial,num_items,zn7si1,1.0,response,1_ITEM,585.3999999046209,582.5999999999767,585.3999999046209,585.3999999046209,582.5999999999767,585.3999999046209,1.0,0.0,0.0,,Click Response,1_count,3.0,object-46,temp_dist_trial,34.0,t_s_17_1,travel_shared,toothbrush,6.0,competing,single,t_s_17_1.jpg,Travel,,,sub-65
Desktop or Laptop,Windows 10,Chrome 134.0.0.0,1280x720,1280x720,Temporal Distance Task,cb_06,35.0,temp_dist_trial,num_items,zn7si1,1.0,response,2_ITEM,801.2999999523163,799.4000000000232,801.2999999523163,801.2999999523163,799.4000000000232,801.2999999523163,1.0,0.0,0.0,,Click Response,2_count,5.0,object-49,temp_dist_trial,35.0,t_m_10_1,travel_Miami,tanktop,6.0,unique,paired,t_m_10_1.jpg,Travel,,,sub-65
Desktop or Laptop,Windows 10,Chrome 134.0.0.0,1280x720,1280x720,Temporal Distance Task,cb_06,35.0,temp_dist_trial,dist_items,qkpkxw,2.0,info,,11.79999990464421,0.0,11.79999990464421,11.79999990464421,0.0,11.79999990464421,1.0,0.0,0.0,,Slider,Slider,4.0,object-56,temp_dist_trial,35.0,t_m_10_1,travel_Miami,tanktop,6.0,unique,paired,t_m_10_1.jpg,Travel,,,sub-65
Desktop or Laptop,Windows 10,Chrome 134.0.0.0,1280x720,1280x720,Temporal Distance Task,cb_06,35.0,temp_dist_trial,dist_items,qkpkxw,2.0,continue,,2056.200000000012,2048.5,2056.200000000012,2056.200000000012,2048.5,2056.200000000012,1.0,0.0,0.0,,Click To Continue,Next button,7.0,object-60,temp_dist_trial,35.0,t_m_10_1,travel_Miami,tanktop,6.0,unique,paired,t_m_10_1.jpg,Travel,,,sub-65
Desktop or Laptop,Windows 10,Chrome 134.0.0.0,1280x720,1280x720,Temporal Distance Task,cb_06,35.0,temp_dist_trial,dist_items,qkpkxw,2.0,response,62,1082.7000000000116,2048.5,2056.999999952328,1082.7000000000116,2048.5,2056.999999952328,1.0,974.2999999523164,0.0,,Slider,Slider,4.0,object-56,temp_dist_trial,35.0,t_m_10_1,travel_Miami,tanktop,6.0,unique,paired,t_m_10_1.jpg,Travel,,,sub-65
Desktop or Laptop,Windows 10,Chrome 134.0.0.0,1280x720,1280x720,Temporal Distance Task,cb_06,36.0,temp_dist_trial,num_items,zn7si1,1.0,response,2_ITEM,927.499999952328,915.9000000000232,927.499999952328,927.499999952328,915.9000000000232,927.499999952328,1.0,0.0,0.0,,Click Response,2_count,5.0,object-49,temp_dist_trial,36.0,t_s_16_1,travel_shared,chapstick,6.0,competing,paired,t_s_16_1.jpg,Travel,,,sub-65
Desktop or Laptop,Windows 10,Chrome 134.0.0.0,1280x720,1280x720,Temporal Distance Task,cb_06,36.0,temp_dist_trial,dist_items,qkpkxw,2.0,info,,11.499999904655853,0.0,11.499999904655853,11.499999904655853,0.0,11.499999904655853,1.0,0.0,0.0,,Slider,Slider,4.0,object-56,temp_dist_trial,36.0,t_s_16_1,travel_shared,chapstick,6.0,competing,paired,t_s_16_1.jpg,Travel,,,sub-65
Desktop or Laptop,Windows 10,Chrome 134.0.0.0,1280x720,1280x720,Temporal Distance Task,cb_06,36.0,temp_dist_trial,dist_items,qkpkxw,2.0,continue,,1865.3000000000463,1848.8000000000463,1865.3000000000463,1865.3000000000463,1848.8000000000463,1865.3000000000463,1.0,0.0,0.0,,Click To Continue,Next button,7.0,object-60,temp_dist_trial,36.0,t_s_16_1,travel_shared,chapstick,6.0,competing,paired,t_s_16_1.jpg,Travel,,,sub-65
Desktop or Laptop,Windows 10,Chrome 134.0.0.0,1280x720,1280x720,Temporal Distance Task,cb_06,36.0,temp_dist_trial,dist_items,qkpkxw,2.0,response,27,899.8000000000467,1848.8000000000463,1865.3000000000463,899.8000000000467,1848.8000000000463,1865.3000000000463,1.0,965.5,0.0,,Slider,Slider,4.0,object-56,temp_dist_trial,36.0,t_s_16_1,travel_shared,chapstick,6.0,competing,paired,t_s_16_1.jpg,Travel,,,sub-65
Desktop or Laptop,Windows 10,Chrome 134.0.0.0,1280x720,1280x720,Temporal Distance Task,cb_06,37.0,temp_dist_trial,num_items,zn7si1,1.0,response,2_ITEM,944.9999998569257,932.5999999999768,944.9999998569257,944.9999998569257,932.5999999999768,944.9999998569257,1.0,0.0,0.0,,Click Response,2_count,5.0,object-49,temp_dist_trial,37.0,t_s_08_1,travel_shared,hand lotion,6.0,competing,single,t_s_08_1.jpg,Travel,,,sub-65
Desktop or Laptop,Windows 10,Chrome 134.0.0.0,1280x720,1280x720,Temporal Distance Task,cb_06,37.0,temp_dist_trial,dist_items,qkpkxw,2.0,info,,10.799999856972137,0.0,10.799999856972137,10.799999856972137,0.0,10.799999856972137,1.0,0.0,0.0,,Slider,Slider,4.0,object-56,temp_dist_trial,37.0,t_s_08_1,travel_shared,hand lotion,6.0,competing,single,t_s_08_1.jpg,Travel,,,sub-65
Desktop or Laptop,Windows 10,Chrome 134.0.0.0,1280x720,1280x720,Temporal Distance Task,cb_06,37.0,temp_dist_trial,dist_items,qkpkxw,2.0,continue,,1827.4000000000235,1815.2000000000119,1827.4000000000235,1827.4000000000235,1815.2000000000119,1827.4000000000235,1.0,0.0,0.0,,Click To Continue,Next button,7.0,object-60,temp_dist_trial,37.0,t_s_08_1,travel_shared,hand lotion,6.0,competing,single,t_s_08_1.jpg,Travel,,,sub-65
Desktop or Laptop,Windows 10,Chrome 134.0.0.0,1280x720,1280x720,Temporal Distance Task,cb_06,37.0,temp_dist_trial,dist_items,qkpkxw,2.0,response,60,683.0,1815.2000000000119,1828.9000000000235,683.0,1815.2000000000119,1828.9000000000235,1.0,1145.9000000000233,0.0,,Slider,Slider,4.0,object-56,temp_dist_trial,37.0,t_s_08_1,travel_shared,hand lotion,6.0,competing,single,t_s_08_1.jpg,Travel,,,sub-65
Desktop or Laptop,Windows 10,Chrome 134.0.0.0,1280x720,1280x720,Temporal Distance Task,cb_06,38.0,temp_dist_trial,num_items,zn7si1,1.0,response,2_ITEM,851.7000000000116,849.2000000000116,851.7000000000116,851.7000000000116,849.2000000000116,851.7000000000116,1.0,0.0,0.0,,Click Response,2_count,5.0,object-49,temp_dist_trial,38.0,t_m_17_1,travel_Miami,water gun,6.0,unique,single,t_m_17_1.jpg,Travel,,,sub-65
Desktop or Laptop,Windows 10,Chrome 134.0.0.0,1280x720,1280x720,Temporal Distance Task,cb_06,38.0,temp_dist_trial,dist_items,qkpkxw,2.0,info,,9.299999904644213,0.0,9.299999904644213,9.299999904644213,0.0,9.299999904644213,1.0,0.0,0.0,,Slider,Slider,4.0,object-56,temp_dist_trial,38.0,t_m_17_1,travel_Miami,water gun,6.0,unique,single,t_m_17_1.jpg,Travel,,,sub-65
Desktop or Laptop,Windows 10,Chrome 134.0.0.0,1280x720,1280x720,Temporal Distance Task,cb_06,38.0,temp_dist_trial,dist_items,qkpkxw,2.0,continue,,2369.0999998569605,2365.100000000035,2369.0999998569605,2369.0999998569605,2365.100000000035,2369.0999998569605,1.0,0.0,0.0,,Click To Continue,Next button,7.0,object-60,temp_dist_trial,38.0,t_m_17_1,travel_Miami,water gun,6.0,unique,single,t_m_17_1.jpg,Travel,,,sub-65
Desktop or Laptop,Windows 10,Chrome 134.0.0.0,1280x720,1280x720,Temporal Distance Task,cb_06,38.0,temp_dist_trial,dist_items,qkpkxw,2.0,response,56,1399.2000000000116,2365.100000000035,2381.70000000007,1399.2000000000116,2365.100000000035,2381.70000000007,1.0,982.5000000000584,0.0,,Slider,Slider,4.0,object-56,temp_dist_trial,38.0,t_m_17_1,travel_Miami,water gun,6.0,unique,single,t_m_17_1.jpg,Travel,,,sub-65
Desktop or Laptop,Windows 10,Chrome 134.0.0.0,1280x720,1280x720,Temporal Distance Task,cb_06,39.0,temp_dist_trial,num_items,zn7si1,1.0,response,2_ITEM,675.399999952293,665.7999999999884,675.399999952293,675.399999952293,665.7999999999884,675.399999952293,1.0,0.0,0.0,,Click Response,2_count,5.0,object-49,temp_dist_trial,39.0,t_m_05_1,travel_Miami,sunscreen,6.0,unique,paired,t_m_05_1.jpg,Travel,,,sub-65
Desktop or Laptop,Windows 10,Chrome 134.0.0.0,1280x720,1280x720,Temporal Distance Task,cb_06,39.0,temp_dist_trial,dist_items,qkpkxw,2.0,info,,11.199999856937213,0.0,11.199999856937213,11.199999856937213,0.0,11.199999856937213,1.0,0.0,0.0,,Slider,Slider,4.0,object-56,temp_dist_trial,39.0,t_m_05_1,travel_Miami,sunscreen,6.0,unique,paired,t_m_05_1.jpg,Travel,,,sub-65
Desktop or Laptop,Windows 10,Chrome 134.0.0.0,1280x720,1280x720,Temporal Distance Task,cb_06,39.0,temp_dist_trial,dist_items,qkpkxw,2.0,continue,,1744.399999904621,1732.0,1744.399999904621,1744.399999904621,1732.0,1744.399999904621,1.0,0.0,0.0,,Click To Continue,Next button,7.0,object-60,temp_dist_trial,39.0,t_m_05_1,travel_Miami,sunscreen,6.0,unique,paired,t_m_05_1.jpg,Travel,,,sub-65
Desktop or Laptop,Windows 10,Chrome 134.0.0.0,1280x720,1280x720,Temporal Distance Task,cb_06,39.0,temp_dist_trial,dist_items,qkpkxw,2.0,response,22,782.5,1732.0,1745.2999999999884,782.5,1732.0,1745.2999999999884,1.0,962.7999999999884,0.0,,Slider,Slider,4.0,object-56,temp_dist_trial,39.0,t_m_05_1,travel_Miami,sunscreen,6.0,unique,paired,t_m_05_1.jpg,Travel,,,sub-65
Desktop or Laptop,Windows 10,Chrome 134.0.0.0,1280x720,1280x720,Temporal Distance Task,cb_06,40.0,temp_dist_trial,num_items,zn7si1,1.0,response,2_ITEM,694.5000000476721,682.8999999999653,694.5000000476721,694.5000000476721,682.8999999999653,694.5000000476721,1.0,0.0,0.0,,Click Response,2_count,5.0,object-49,temp_dist_trial,40.0,t_i_17_1,travel_Iceland,binoculars,6.0,unique,paired,t_i_17_1.jpg,Travel,,,sub-65
Desktop or Laptop,Windows 10,Chrome 134.0.0.0,1280x720,1280x720,Temporal Distance Task,cb_06,40.0,temp_dist_trial,dist_items,qkpkxw,2.0,info,,10.199999856937213,0.0,10.199999856937213,10.199999856937213,0.0,10.199999856937213,1.0,0.0,0.0,,Slider,Slider,4.0,object-56,temp_dist_trial,40.0,t_i_17_1,travel_Iceland,binoculars,6.0,unique,paired,t_i_17_1.jpg,Travel,,,sub-65
Desktop or Laptop,Windows 10,Chrome 134.0.0.0,1280x720,1280x720,Temporal Distance Task,cb_06,40.0,temp_dist_trial,dist_items,qkpkxw,2.0,continue,,1783.500000047672,1781.7000000000116,1783.500000047672,1783.500000047672,1781.7000000000116,1783.500000047672,1.0,0.0,0.0,,Click To Continue,Next button,7.0,object-60,temp_dist_trial,40.0,t_i_17_1,travel_Iceland,binoculars,6.0,unique,paired,t_i_17_1.jpg,Travel,,,sub-65
Desktop or Laptop,Windows 10,Chrome 134.0.0.0,1280x720,1280x720,Temporal Distance Task,cb_06,40.0,temp_dist_trial,dist_items,qkpkxw,2.0,response,62,932.7000000000116,1781.7000000000116,1785.000000047672,932.7000000000116,1781.7000000000116,1785.000000047672,1.0,852.3000000476602,0.0,,Slider,Slider,4.0,object-56,temp_dist_trial,40.0,t_i_17_1,travel_Iceland,binoculars,6.0,unique,paired,t_i_17_1.jpg,Travel,,,sub-65
Desktop or Laptop,Windows 10,Chrome 134.0.0.0,1280x720,1280x720,Temporal Distance Task,cb_06,41.0,temp_dist_trial,num_items,zn7si1,1.0,response,2_ITEM,713.8000000476602,699.5999999999768,713.8000000476602,713.8000000476602,699.5999999999768,713.8000000476602,1.0,0.0,0.0,,Click Response,2_count,5.0,object-49,temp_dist_trial,41.0,t_i_01_1,travel_Iceland,gloves,6.0,unique,paired,t_i_01_1.jpg,Travel,,,sub-65
Desktop or Laptop,Windows 10,Chrome 134.0.0.0,1280x720,1280x720,Temporal Distance Task,cb_06,41.0,temp_dist_trial,dist_items,qkpkxw,2.0,info,,7.599999856960496,0.0,7.599999856960496,7.599999856960496,0.0,7.599999856960496,1.0,0.0,0.0,,Slider,Slider,4.0,object-56,temp_dist_trial,41.0,t_i_01_1,travel_Iceland,gloves,6.0,unique,paired,t_i_01_1.jpg,Travel,,,sub-65
Desktop or Laptop,Windows 10,Chrome 134.0.0.0,1280x720,1280x720,Temporal Distance Task,cb_06,41.0,temp_dist_trial,dist_items,qkpkxw,2.0,continue,,2725.0999998569605,2714.5,2725.0999998569605,2725.0999998569605,2714.5,2725.0999998569605,1.0,0.0,0.0,,Click To Continue,Next button,7.0,object-60,temp_dist_trial,41.0,t_i_01_1,travel_Iceland,gloves,6.0,unique,paired,t_i_01_1.jpg,Travel,,,sub-65
Desktop or Laptop,Windows 10,Chrome 134.0.0.0,1280x720,1280x720,Temporal Distance Task,cb_06,41.0,temp_dist_trial,dist_items,qkpkxw,2.0,response,42,1298.7999999999886,2714.5,2726.5999998569605,1298.7999999999886,2714.5,2726.5999998569605,1.0,1427.7999998569721,0.0,,Slider,Slider,4.0,object-56,temp_dist_trial,41.0,t_i_01_1,travel_Iceland,gloves,6.0,unique,paired,t_i_01_1.jpg,Travel,,,sub-65
Desktop or Laptop,Windows 10,Chrome 134.0.0.0,1280x720,1280x720,Temporal Distance Task,cb_06,42.0,temp_dist_trial,num_items,zn7si1,1.0,response,2_ITEM,825.5999998569605,816.0,825.5999998569605,825.5999998569605,816.0,825.5999998569605,1.0,0.0,0.0,,Click Response,2_count,5.0,object-49,temp_dist_trial,42.0,t_s_05_1,travel_shared,neck pillow,6.0,competing,single,t_s_05_1.jpg,Travel,,,sub-65
Desktop or Laptop,Windows 10,Chrome 134.0.0.0,1280x720,1280x720,Temporal Distance Task,cb_06,42.0,temp_dist_trial,dist_items,qkpkxw,2.0,info,,12.499999952327926,0.0,12.499999952327926,12.499999952327926,0.0,12.499999952327926,1.0,0.0,0.0,,Slider,Slider,4.0,object-56,temp_dist_trial,42.0,t_s_05_1,travel_shared,neck pillow,6.0,competing,single,t_s_05_1.jpg,Travel,,,sub-65
Desktop or Laptop,Windows 10,Chrome 134.0.0.0,1280x720,1280x720,Temporal Distance Task,cb_06,42.0,temp_dist_trial,dist_items,qkpkxw,2.0,continue,,1839.2999999046438,1831.7999999999884,1839.2999999046438,1839.2999999046438,1831.7999999999884,1839.2999999046438,1.0,0.0,0.0,,Click To Continue,Next button,7.0,object-60,temp_dist_trial,42.0,t_s_05_1,travel_shared,neck pillow,6.0,competing,single,t_s_05_1.jpg,Travel,,,sub-65
Desktop or Laptop,Windows 10,Chrome 134.0.0.0,1280x720,1280x720,Temporal Distance Task,cb_06,42.0,temp_dist_trial,dist_items,qkpkxw,2.0,response,39,882.9000000000232,1831.7999999999884,1839.7999999046438,882.9000000000232,1831.7999999999884,1839.7999999046438,1.0,956.8999999046208,0.0,,Slider,Slider,4.0,object-56,temp_dist_trial,42.0,t_s_05_1,travel_shared,neck pillow,6.0,competing,single,t_s_05_1.jpg,Travel,,,sub-65
Desktop or Laptop,Windows 10,Chrome 134.0.0.0,1280x720,1280x720,Temporal Distance Task,cb_06,43.0,temp_dist_trial,num_items,zn7si1,1.0,response,1_ITEM,715.2999998569722,699.7000000000116,715.2999998569722,715.2999998569722,699.7000000000116,715.2999998569722,1.0,0.0,0.0,,Click Response,1_count,3.0,object-46,temp_dist_trial,43.0,t_s_23_1,travel_shared,ball cap,6.0,competing,paired,t_s_23_1.jpg,Travel,,,sub-65
Desktop or Laptop,Windows 10,Chrome 134.0.0.0,1280x720,1280x720,Temporal Distance Task,cb_06,44.0,temp_dist_trial,num_items,zn7si1,1.0,response,2_ITEM,691.4999998569258,682.7999999999884,691.4999998569258,691.4999998569258,682.7999999999884,691.4999998569258,1.0,0.0,0.0,,Click Response,2_count,5.0,object-49,temp_dist_trial,44.0,t_s_15_1,travel_shared,luggage tag,6.0,competing,paired,t_s_15_1.jpg,Travel,,,sub-65
Desktop or Laptop,Windows 10,Chrome 134.0.0.0,1280x720,1280x720,Temporal Distance Task,cb_06,44.0,temp_dist_trial,dist_items,qkpkxw,2.0,info,,7.400000000023283,0.0,7.400000000023283,7.400000000023283,0.0,7.400000000023283,1.0,0.0,0.0,,Slider,Slider,4.0,object-56,temp_dist_trial,44.0,t_s_15_1,travel_shared,luggage tag,6.0,competing,paired,t_s_15_1.jpg,Travel,,,sub-65
Desktop or Laptop,Windows 10,Chrome 134.0.0.0,1280x720,1280x720,Temporal Distance Task,cb_06,44.0,temp_dist_trial,dist_items,qkpkxw,2.0,response,dist_miss,6994.400000000023,6994.400000000023,6994.400000000023,6994.400000000023,6994.400000000023,6994.400000000023,1.0,0.0,0.0,dist_miss_tag,Time Limit,screen,0.0,screen,temp_dist_trial,44.0,t_s_15_1,travel_shared,luggage tag,6.0,competing,paired,t_s_15_1.jpg,Travel,,,sub-65
Desktop or Laptop,Windows 10,Chrome 134.0.0.0,1280x720,1280x720,Temporal Distance Task,cb_06,44.0,temp_dist_trial,dist_items,qkpkxw,2.0,response,27,682.7000000000116,6994.400000000023,7004.299999856971,682.7000000000116,6994.400000000023,7004.299999856971,1.0,6321.5999998569605,0.0,,Slider,Slider,4.0,object-56,temp_dist_trial,44.0,t_s_15_1,travel_shared,luggage tag,6.0,competing,paired,t_s_15_1.jpg,Travel,,,sub-65
Desktop or Laptop,Windows 10,Chrome 134.0.0.0,1280x720,1280x720,Temporal Distance Task,cb_06,45.0,temp_dist_trial,num_items,zn7si1,1.0,response,2_ITEM,724.3999998569489,716.0,724.3999998569489,724.3999998569489,716.0,724.3999998569489,1.0,0.0,0.0,,Click Response,2_count,5.0,object-49,temp_dist_trial,45.0,t_s_09_1,travel_shared,wallet,6.0,competing,paired,t_s_09_1.jpg,Travel,,,sub-65
Desktop or Laptop,Windows 10,Chrome 134.0.0.0,1280x720,1280x720,Temporal Distance Task,cb_06,45.0,temp_dist_trial,dist_items,qkpkxw,2.0,info,,10.49999985692557,0.0,10.49999985692557,10.49999985692557,0.0,10.49999985692557,1.0,0.0,0.0,,Slider,Slider,4.0,object-56,temp_dist_trial,45.0,t_s_09_1,travel_shared,wallet,6.0,competing,paired,t_s_09_1.jpg,Travel,,,sub-65
Desktop or Laptop,Windows 10,Chrome 134.0.0.0,1280x720,1280x720,Temporal Distance Task,cb_06,45.0,temp_dist_trial,dist_items,qkpkxw,2.0,continue,,2142.5999999999767,2131.1999999999534,2142.5999999999767,2142.5999999999767,2131.1999999999534,2142.5999999999767,1.0,0.0,0.0,,Click To Continue,Next button,7.0,object-60,temp_dist_trial,45.0,t_s_09_1,travel_shared,wallet,6.0,competing,paired,t_s_09_1.jpg,Travel,,,sub-65
Desktop or Laptop,Windows 10,Chrome 134.0.0.0,1280x720,1280x720,Temporal Distance Task,cb_06,45.0,temp_dist_trial,dist_items,qkpkxw,2.0,response,65,898.8999999999651,2131.1999999999534,2143.5999999999767,898.8999999999651,2131.1999999999534,2143.5999999999767,1.0,1244.7000000000114,0.0,,Slider,Slider,4.0,object-56,temp_dist_trial,45.0,t_s_09_1,travel_shared,wallet,6.0,competing,paired,t_s_09_1.jpg,Travel,,,sub-65
Desktop or Laptop,Windows 10,Chrome 134.0.0.0,1280x720,1280x720,Temporal Distance Task,cb_06,46.0,temp_dist_trial,num_items,zn7si1,1.0,response,2_ITEM,747.1999999523398,733.1000000000349,747.1999999523398,747.1999999523398,733.1000000000349,747.1999999523398,1.0,0.0,0.0,,Click Response,2_count,5.0,object-49,temp_dist_trial,46.0,t_m_13_1,travel_Miami,floatie,6.0,unique,paired,t_m_13_1.jpg,Travel,,,sub-65
Desktop or Laptop,Windows 10,Chrome 134.0.0.0,1280x720,1280x720,Temporal Distance Task,cb_06,46.0,temp_dist_trial,dist_items,qkpkxw,2.0,info,,8.200000047683716,0.0,8.200000047683716,8.200000047683716,0.0,8.200000047683716,1.0,0.0,0.0,,Slider,Slider,4.0,object-56,temp_dist_trial,46.0,t_m_13_1,travel_Miami,floatie,6.0,unique,paired,t_m_13_1.jpg,Travel,,,sub-65
Desktop or Laptop,Windows 10,Chrome 134.0.0.0,1280x720,1280x720,Temporal Distance Task,cb_06,46.0,temp_dist_trial,dist_items,qkpkxw,2.0,continue,,2076.399999856949,2064.5999999999767,2076.399999856949,2076.399999856949,2064.5999999999767,2076.399999856949,1.0,0.0,0.0,,Click To Continue,Next button,7.0,object-60,temp_dist_trial,46.0,t_m_13_1,travel_Miami,floatie,6.0,unique,paired,t_m_13_1.jpg,Travel,,,sub-65
Desktop or Laptop,Windows 10,Chrome 134.0.0.0,1280x720,1280x720,Temporal Distance Task,cb_06,46.0,temp_dist_trial,dist_items,qkpkxw,2.0,response,37,865.9000000000232,2064.5999999999767,2077.599999904633,865.9000000000232,2064.5999999999767,2077.599999904633,1.0,1211.6999999046093,0.0,,Slider,Slider,4.0,object-56,temp_dist_trial,46.0,t_m_13_1,travel_Miami,floatie,6.0,unique,paired,t_m_13_1.jpg,Travel,,,sub-65
Desktop or Laptop,Windows 10,Chrome 134.0.0.0,1280x720,1280x720,Temporal Distance Task,cb_06,47.0,temp_dist_trial,num_items,zn7si1,1.0,response,2_ITEM,859.6999999523398,849.5,859.6999999523398,859.6999999523398,849.5,859.6999999523398,1.0,0.0,0.0,,Click Response,2_count,5.0,object-49,temp_dist_trial,47.0,t_m_14_1,travel_Miami,swim goggles,6.0,unique,paired,t_m_14_1.jpg,Travel,,,sub-65
Desktop or Laptop,Windows 10,Chrome 134.0.0.0,1280x720,1280x720,Temporal Distance Task,cb_06,47.0,temp_dist_trial,dist_items,qkpkxw,2.0,info,,10.700000000011645,0.0,10.700000000011645,10.700000000011645,0.0,10.700000000011645,1.0,0.0,0.0,,Slider,Slider,4.0,object-56,temp_dist_trial,47.0,t_m_14_1,travel_Miami,swim goggles,6.0,unique,paired,t_m_14_1.jpg,Travel,,,sub-65
Desktop or Laptop,Windows 10,Chrome 134.0.0.0,1280x720,1280x720,Temporal Distance Task,cb_06,47.0,temp_dist_trial,dist_items,qkpkxw,2.0,continue,,2304.5999998569605,2298.200000000012,2304.5999998569605,2304.5999998569605,2298.200000000012,2304.5999998569605,1.0,0.0,0.0,,Click To Continue,Next button,7.0,object-60,temp_dist_trial,47.0,t_m_14_1,travel_Miami,swim goggles,6.0,unique,paired,t_m_14_1.jpg,Travel,,,sub-65
Desktop or Laptop,Windows 10,Chrome 134.0.0.0,1280x720,1280x720,Temporal Distance Task,cb_06,47.0,temp_dist_trial,dist_items,qkpkxw,2.0,response,36,849.2000000000116,2298.200000000012,2306.499999952328,849.2000000000116,2298.200000000012,2306.499999952328,1.0,1457.2999999523165,0.0,,Slider,Slider,4.0,object-56,temp_dist_trial,47.0,t_m_14_1,travel_Miami,swim goggles,6.0,unique,paired,t_m_14_1.jpg,Travel,,,sub-65
Desktop or Laptop,Windows 10,Chrome 134.0.0.0,1280x720,1280x720,Temporal Distance Task,cb_06,48.0,temp_dist_trial,num_items,zn7si1,1.0,response,2_ITEM,653.7000000476837,649.7000000000116,653.7000000476837,653.7000000476837,649.7000000000116,653.7000000476837,1.0,0.0,0.0,,Click Response,2_count,5.0,object-49,temp_dist_trial,48.0,t_s_14_1,travel_shared,hand sanitizer,6.0,competing,paired,t_s_14_1.jpg,Travel,,,sub-65
Desktop or Laptop,Windows 10,Chrome 134.0.0.0,1280x720,1280x720,Temporal Distance Task,cb_06,48.0,temp_dist_trial,dist_items,qkpkxw,2.0,info,,5.899999952293001,0.0,5.899999952293001,5.899999952293001,0.0,5.899999952293001,1.0,0.0,0.0,,Slider,Slider,4.0,object-56,temp_dist_trial,48.0,t_s_14_1,travel_shared,hand sanitizer,6.0,competing,paired,t_s_14_1.jpg,Travel,,,sub-65
Desktop or Laptop,Windows 10,Chrome 134.0.0.0,1280x720,1280x720,Temporal Distance Task,cb_06,48.0,temp_dist_trial,dist_items,qkpkxw,2.0,continue,,2395.6999999046093,2381.7999999999884,2395.6999999046093,2395.6999999046093,2381.7999999999884,2395.6999999046093,1.0,0.0,0.0,,Click To Continue,Next button,7.0,object-60,temp_dist_trial,48.0,t_s_14_1,travel_shared,hand sanitizer,6.0,competing,paired,t_s_14_1.jpg,Travel,,,sub-65
Desktop or Laptop,Windows 10,Chrome 134.0.0.0,1280x720,1280x720,Temporal Distance Task,cb_06,48.0,temp_dist_trial,dist_items,qkpkxw,2.0,response,35,1465.6999999999537,2381.7999999999884,2396.399999952293,1465.6999999999537,2381.7999999999884,2396.399999952293,1.0,930.6999999523397,0.0,,Slider,Slider,4.0,object-56,temp_dist_trial,48.0,t_s_14_1,travel_shared,hand sanitizer,6.0,competing,paired,t_s_14_1.jpg,Travel,,,sub-65
Desktop or Laptop,Windows 10,Chrome 134.0.0.0,1280x720,1280x720,Temporal Distance Task,cb_06,2.0,temp_eventStart,Screen 1,dgtyxe,1.0,continue,,15317.500000047668,15304.0,15317.500000047668,15317.500000047668,15304.0,15317.500000047668,1.0,0.0,0.0,,Click To Continue,Next Button,3.0,object-43,temp_eventStart,,,Student,,,,,,,,,sub-65
Desktop or Laptop,Windows 10,Chrome 134.0.0.0,1280x720,1280x720,Temporal Distance Task,cb_06,49.0,temp_dist_trial,num_items,zn7si1,1.0,response,2_ITEM,1357.500000047672,1349.0999999999767,1357.500000047672,1357.500000047672,1349.0999999999767,1357.500000047672,1.0,0.0,0.0,,Click Response,2_count,5.0,object-49,temp_dist_trial,1.0,s_a_03_1,student_art,palette,6.0,unique,paired,s_a_03_1.jpg,Student,,,sub-65
Desktop or Laptop,Windows 10,Chrome 134.0.0.0,1280x720,1280x720,Temporal Distance Task,cb_06,49.0,temp_dist_trial,dist_items,qkpkxw,2.0,info,,7.899999856948852,0.0,7.899999856948852,7.899999856948852,0.0,7.899999856948852,1.0,0.0,0.0,,Slider,Slider,4.0,object-56,temp_dist_trial,1.0,s_a_03_1,student_art,palette,6.0,unique,paired,s_a_03_1.jpg,Student,,,sub-65
Desktop or Laptop,Windows 10,Chrome 134.0.0.0,1280x720,1280x720,Temporal Distance Task,cb_06,49.0,temp_dist_trial,dist_items,qkpkxw,2.0,continue,,2078.5,2065.0,2078.5,2078.5,2065.0,2078.5,1.0,0.0,0.0,,Click To Continue,Next button,7.0,object-60,temp_dist_trial,1.0,s_a_03_1,student_art,palette,6.0,unique,paired,s_a_03_1.jpg,Student,,,sub-65
Desktop or Laptop,Windows 10,Chrome 134.0.0.0,1280x720,1280x720,Temporal Distance Task,cb_06,49.0,temp_dist_trial,dist_items,qkpkxw,2.0,response,38,966.0,2065.0,2079.200000047684,966.0,2065.0,2079.200000047684,1.0,1113.2000000476835,0.0,,Slider,Slider,4.0,object-56,temp_dist_trial,1.0,s_a_03_1,student_art,palette,6.0,unique,paired,s_a_03_1.jpg,Student,,,sub-65
Desktop or Laptop,Windows 10,Chrome 134.0.0.0,1280x720,1280x720,Temporal Distance Task,cb_06,50.0,temp_dist_trial,num_items,zn7si1,1.0,response,2_ITEM,741.7000000476837,732.7999999999884,741.7000000476837,741.7000000476837,732.7999999999884,741.7000000476837,1.0,0.0,0.0,,Click Response,2_count,5.0,object-49,temp_dist_trial,2.0,s_sh_03_1,student_shared,highlighter,6.0,competing,single,s_sh_03_1.jpg,Student,,,sub-65
Desktop or Laptop,Windows 10,Chrome 134.0.0.0,1280x720,1280x720,Temporal Distance Task,cb_06,50.0,temp_dist_trial,dist_items,qkpkxw,2.0,info,,10.200000000011645,0.0,10.200000000011645,10.200000000011645,0.0,10.200000000011645,1.0,0.0,0.0,,Slider,Slider,4.0,object-56,temp_dist_trial,2.0,s_sh_03_1,student_shared,highlighter,6.0,competing,single,s_sh_03_1.jpg,Student,,,sub-65
Desktop or Laptop,Windows 10,Chrome 134.0.0.0,1280x720,1280x720,Temporal Distance Task,cb_06,50.0,temp_dist_trial,dist_items,qkpkxw,2.0,continue,,1823.5999998569605,1815.2000000000119,1823.5999998569605,1823.5999998569605,1815.2000000000119,1823.5999998569605,1.0,0.0,0.0,,Click To Continue,Next button,7.0,object-60,temp_dist_trial,2.0,s_sh_03_1,student_shared,highlighter,6.0,competing,single,s_sh_03_1.jpg,Student,,,sub-65
Desktop or Laptop,Windows 10,Chrome 134.0.0.0,1280x720,1280x720,Temporal Distance Task,cb_06,50.0,temp_dist_trial,dist_items,qkpkxw,2.0,response,39,949.1000000000348,1815.2000000000119,1824.999999952328,949.1000000000348,1815.2000000000119,1824.999999952328,1.0,875.8999999522929,0.0,,Slider,Slider,4.0,object-56,temp_dist_trial,2.0,s_sh_03_1,student_shared,highlighter,6.0,competing,single,s_sh_03_1.jpg,Student,,,sub-65
Desktop or Laptop,Windows 10,Chrome 134.0.0.0,1280x720,1280x720,Temporal Distance Task,cb_06,51.0,temp_dist_trial,num_items,zn7si1,1.0,response,2_ITEM,687.7999999523163,682.7000000000116,687.7999999523163,687.7999999523163,682.7000000000116,687.7999999523163,1.0,0.0,0.0,,Click Response,2_count,5.0,object-49,temp_dist_trial,3.0,s_s_14_1,student_stem,funnel,6.0,unique,paired,s_s_14_1.jpg,Student,,,sub-65
Desktop or Laptop,Windows 10,Chrome 134.0.0.0,1280x720,1280x720,Temporal Distance Task,cb_06,51.0,temp_dist_trial,dist_items,qkpkxw,2.0,info,,10.100000047707,0.0,10.100000047707,10.100000047707,0.0,10.100000047707,1.0,0.0,0.0,,Slider,Slider,4.0,object-56,temp_dist_trial,3.0,s_s_14_1,student_stem,funnel,6.0,unique,paired,s_s_14_1.jpg,Student,,,sub-65
Desktop or Laptop,Windows 10,Chrome 134.0.0.0,1280x720,1280x720,Temporal Distance Task,cb_06,51.0,temp_dist_trial,dist_items,qkpkxw,2.0,continue,,1427.9000000000233,1415.6000000000354,1427.9000000000233,1427.9000000000233,1415.6000000000354,1427.9000000000233,1.0,0.0,0.0,,Click To Continue,Next button,7.0,object-60,temp_dist_trial,3.0,s_s_14_1,student_stem,funnel,6.0,unique,paired,s_s_14_1.jpg,Student,,,sub-65
Desktop or Laptop,Windows 10,Chrome 134.0.0.0,1280x720,1280x720,Temporal Distance Task,cb_06,51.0,temp_dist_trial,dist_items,qkpkxw,2.0,response,62,749.7000000000116,1415.6000000000354,1429.4000000000233,749.7000000000116,1415.6000000000354,1429.4000000000233,1.0,679.7000000000116,0.0,,Slider,Slider,4.0,object-56,temp_dist_trial,3.0,s_s_14_1,student_stem,funnel,6.0,unique,paired,s_s_14_1.jpg,Student,,,sub-65
Desktop or Laptop,Windows 10,Chrome 134.0.0.0,1280x720,1280x720,Temporal Distance Task,cb_06,52.0,temp_dist_trial,num_items,zn7si1,1.0,response,2_ITEM,699.5999999999185,682.8999999999653,699.5999999999185,699.5999999999185,682.8999999999653,699.5999999999185,1.0,0.0,0.0,,Click Response,2_count,5.0,object-49,temp_dist_trial,4.0,s_sh_07_1,student_shared,ruler,6.0,competing,single,s_sh_07_1.jpg,Student,,,sub-65
Desktop or Laptop,Windows 10,Chrome 134.0.0.0,1280x720,1280x720,Temporal Distance Task,cb_06,52.0,temp_dist_trial,dist_items,qkpkxw,2.0,info,,11.500000047672074,0.0,11.500000047672074,11.500000047672074,0.0,11.500000047672074,1.0,0.0,0.0,,Slider,Slider,4.0,object-56,temp_dist_trial,4.0,s_sh_07_1,student_shared,ruler,6.0,competing,single,s_sh_07_1.jpg,Student,,,sub-65
Desktop or Laptop,Windows 10,Chrome 134.0.0.0,1280x720,1280x720,Temporal Distance Task,cb_06,52.0,temp_dist_trial,dist_items,qkpkxw,2.0,continue,,1095.7999999999884,1082.5999999999767,1095.7999999999884,1095.7999999999884,1082.5999999999767,1095.7999999999884,1.0,0.0,0.0,,Click To Continue,Next button,7.0,object-60,temp_dist_trial,4.0,s_sh_07_1,student_shared,ruler,6.0,competing,single,s_sh_07_1.jpg,Student,,,sub-65
Desktop or Laptop,Windows 10,Chrome 134.0.0.0,1280x720,1280x720,Temporal Distance Task,cb_06,52.0,temp_dist_trial,dist_items,qkpkxw,2.0,response,39,466.5,1082.5999999999767,1099.2999999999884,466.5,1082.5999999999767,1099.2999999999884,1.0,632.7999999999884,0.0,,Slider,Slider,4.0,object-56,temp_dist_trial,4.0,s_sh_07_1,student_shared,ruler,6.0,competing,single,s_sh_07_1.jpg,Student,,,sub-65
Desktop or Laptop,Windows 10,Chrome 134.0.0.0,1280x720,1280x720,Temporal Distance Task,cb_06,53.0,temp_dist_trial,num_items,zn7si1,1.0,response,2_ITEM,711.0999998569605,699.2999999999884,711.0999998569605,711.0999998569605,699.2999999999884,711.0999998569605,1.0,0.0,0.0,,Click Response,2_count,5.0,object-49,temp_dist_trial,5.0,s_s_11_1,student_stem,scientific scale,6.0,unique,paired,s_s_11_1.jpg,Student,,,sub-65
Desktop or Laptop,Windows 10,Chrome 134.0.0.0,1280x720,1280x720,Temporal Distance Task,cb_06,53.0,temp_dist_trial,dist_items,qkpkxw,2.0,info,,9.199999904609284,0.0,9.199999904609284,9.199999904609284,0.0,9.199999904609284,1.0,0.0,0.0,,Slider,Slider,4.0,object-56,temp_dist_trial,5.0,s_s_11_1,student_stem,scientific scale,6.0,unique,paired,s_s_11_1.jpg,Student,,,sub-65
Desktop or Laptop,Windows 10,Chrome 134.0.0.0,1280x720,1280x720,Temporal Distance Task,cb_06,53.0,temp_dist_trial,dist_items,qkpkxw,2.0,continue,,1415.4999999999418,1398.8999999999646,1415.4999999999418,1415.4999999999418,1398.8999999999646,1415.4999999999418,1.0,0.0,0.0,,Click To Continue,Next button,7.0,object-60,temp_dist_trial,5.0,s_s_11_1,student_stem,scientific scale,6.0,unique,paired,s_s_11_1.jpg,Student,,,sub-65
Desktop or Laptop,Windows 10,Chrome 134.0.0.0,1280x720,1280x720,Temporal Distance Task,cb_06,53.0,temp_dist_trial,dist_items,qkpkxw,2.0,response,37,749.5,1398.8999999999646,1415.4999999999418,749.5,1398.8999999999646,1415.4999999999418,1.0,665.9999999999418,0.0,,Slider,Slider,4.0,object-56,temp_dist_trial,5.0,s_s_11_1,student_stem,scientific scale,6.0,unique,paired,s_s_11_1.jpg,Student,,,sub-65
Desktop or Laptop,Windows 10,Chrome 134.0.0.0,1280x720,1280x720,Temporal Distance Task,cb_06,54.0,temp_dist_trial,num_items,zn7si1,1.0,response,1_ITEM,632.5000000000582,615.9000000000233,632.5000000000582,632.5000000000582,615.9000000000233,632.5000000000582,1.0,0.0,0.0,,Click Response,1_count,3.0,object-46,temp_dist_trial,6.0,s_sh_09_1,student_shared,paper clips,6.0,competing,paired,s_sh_09_1.jpg,Student,,,sub-65
Desktop or Laptop,Windows 10,Chrome 134.0.0.0,1280x720,1280x720,Temporal Distance Task,cb_06,55.0,temp_dist_trial,num_items,zn7si1,1.0,response,2_ITEM,727.3999998569489,716.0,727.3999998569489,727.3999998569489,716.0,727.3999998569489,1.0,0.0,0.0,,Click Response,2_count,5.0,object-49,temp_dist_trial,7.0,s_a_07_1,student_art,yarn,6.0,unique,paired,s_a_07_1.jpg,Student,,,sub-65
Desktop or Laptop,Windows 10,Chrome 134.0.0.0,1280x720,1280x720,Temporal Distance Task,cb_06,55.0,temp_dist_trial,dist_items,qkpkxw,2.0,info,,12.400000047695356,0.0,12.400000047695356,12.400000047695356,0.0,12.400000047695356,1.0,0.0,0.0,,Slider,Slider,4.0,object-56,temp_dist_trial,7.0,s_a_07_1,student_art,yarn,6.0,unique,paired,s_a_07_1.jpg,Student,,,sub-65
Desktop or Laptop,Windows 10,Chrome 134.0.0.0,1280x720,1280x720,Temporal Distance Task,cb_06,55.0,temp_dist_trial,dist_items,qkpkxw,2.0,continue,,2115.499999952328,2098.700000000012,2115.499999952328,2115.499999952328,2098.700000000012,2115.499999952328,1.0,0.0,0.0,,Click To Continue,Next button,7.0,object-60,temp_dist_trial,7.0,s_a_07_1,student_art,yarn,6.0,unique,paired,s_a_07_1.jpg,Student,,,sub-65
Desktop or Laptop,Windows 10,Chrome 134.0.0.0,1280x720,1280x720,Temporal Distance Task,cb_06,55.0,temp_dist_trial,dist_items,qkpkxw,2.0,response,38,999.2000000000116,2098.700000000012,2115.5,999.2000000000116,2098.700000000012,2115.5,1.0,1116.2999999999884,0.0,,Slider,Slider,4.0,object-56,temp_dist_trial,7.0,s_a_07_1,student_art,yarn,6.0,unique,paired,s_a_07_1.jpg,Student,,,sub-65
Desktop or Laptop,Windows 10,Chrome 134.0.0.0,1280x720,1280x720,Temporal Distance Task,cb_06,56.0,temp_dist_trial,num_items,zn7si1,1.0,response,2_ITEM,726.2999999523163,715.7000000000116,726.2999999523163,726.2999999523163,715.7000000000116,726.2999999523163,1.0,0.0,0.0,,Click Response,2_count,5.0,object-49,temp_dist_trial,8.0,s_sh_11_1,student_shared,pencil case,6.0,competing,paired,s_sh_11_1.jpg,Student,,,sub-65
Desktop or Laptop,Windows 10,Chrome 134.0.0.0,1280x720,1280x720,Temporal Distance Task,cb_06,56.0,temp_dist_trial,dist_items,qkpkxw,2.0,info,,10.200000047683718,0.0,10.200000047683718,10.200000047683718,0.0,10.200000047683718,1.0,0.0,0.0,,Slider,Slider,4.0,object-56,temp_dist_trial,8.0,s_sh_11_1,student_shared,pencil case,6.0,competing,paired,s_sh_11_1.jpg,Student,,,sub-65
Desktop or Laptop,Windows 10,Chrome 134.0.0.0,1280x720,1280x720,Temporal Distance Task,cb_06,56.0,temp_dist_trial,dist_items,qkpkxw,2.0,continue,,2177.2999999523167,2165.0,2177.2999999523167,2177.2999999523167,2165.0,2177.2999999523167,1.0,0.0,0.0,,Click To Continue,Next button,7.0,object-60,temp_dist_trial,8.0,s_sh_11_1,student_shared,pencil case,6.0,competing,paired,s_sh_11_1.jpg,Student,,,sub-65
Desktop or Laptop,Windows 10,Chrome 134.0.0.0,1280x720,1280x720,Temporal Distance Task,cb_06,56.0,temp_dist_trial,dist_items,qkpkxw,2.0,response,64,1398.9000000000233,2165.0,2178.700000047684,1398.9000000000233,2165.0,2178.700000047684,1.0,779.8000000476602,0.0,,Slider,Slider,4.0,object-56,temp_dist_trial,8.0,s_sh_11_1,student_shared,pencil case,6.0,competing,paired,s_sh_11_1.jpg,Student,,,sub-65
Desktop or Laptop,Windows 10,Chrome 134.0.0.0,1280x720,1280x720,Temporal Distance Task,cb_06,57.0,temp_dist_trial,num_items,zn7si1,1.0,response,2_ITEM,851.8999998569489,849.2000000000116,851.8999998569489,851.8999998569489,849.2000000000116,851.8999998569489,1.0,0.0,0.0,,Click Response,2_count,5.0,object-49,temp_dist_trial,9.0,s_sh_12_1,student_shared,binder,6.0,competing,paired,s_sh_12_1.jpg,Student,,,sub-65
Desktop or Laptop,Windows 10,Chrome 134.0.0.0,1280x720,1280x720,Temporal Distance Task,cb_06,57.0,temp_dist_trial,dist_items,qkpkxw,2.0,info,,10.79999990464421,0.0,10.79999990464421,10.79999990464421,0.0,10.79999990464421,1.0,0.0,0.0,,Slider,Slider,4.0,object-56,temp_dist_trial,9.0,s_sh_12_1,student_shared,binder,6.0,competing,paired,s_sh_12_1.jpg,Student,,,sub-65
Desktop or Laptop,Windows 10,Chrome 134.0.0.0,1280x720,1280x720,Temporal Distance Task,cb_06,57.0,temp_dist_trial,dist_items,qkpkxw,2.0,continue,,1802.4000000476958,1798.2000000000116,1802.4000000476958,1802.4000000476958,1798.2000000000116,1802.4000000476958,1.0,0.0,0.0,,Click To Continue,Next button,7.0,object-60,temp_dist_trial,9.0,s_sh_12_1,student_shared,binder,6.0,competing,paired,s_sh_12_1.jpg,Student,,,sub-65
Desktop or Laptop,Windows 10,Chrome 134.0.0.0,1280x720,1280x720,Temporal Distance Task,cb_06,57.0,temp_dist_trial,dist_items,qkpkxw,2.0,response,43,749.2999999999884,1798.2000000000116,1802.999999952328,749.2999999999884,1798.2000000000116,1802.999999952328,1.0,1053.6999999523396,0.0,,Slider,Slider,4.0,object-56,temp_dist_trial,9.0,s_sh_12_1,student_shared,binder,6.0,competing,paired,s_sh_12_1.jpg,Student,,,sub-65
Desktop or Laptop,Windows 10,Chrome 134.0.0.0,1280x720,1280x720,Temporal Distance Task,cb_06,58.0,temp_dist_trial,num_items,zn7si1,1.0,response,1_ITEM,889.8999998569489,882.9000000000232,889.8999998569489,889.8999998569489,882.9000000000232,889.8999998569489,1.0,0.0,0.0,,Click Response,1_count,3.0,object-46,temp_dist_trial,10.0,s_sh_13_1,student_shared,index cards,6.0,competing,paired,s_sh_13_1.jpg,Student,,,sub-65
Desktop or Laptop,Windows 10,Chrome 134.0.0.0,1280x720,1280x720,Temporal Distance Task,cb_06,59.0,temp_dist_trial,num_items,zn7si1,1.0,response,2_ITEM,998.0999999523046,982.5999999999768,998.0999999523046,998.0999999523046,982.5999999999768,998.0999999523046,1.0,0.0,0.0,,Click Response,2_count,5.0,object-49,temp_dist_trial,11.0,s_sh_23_1,student_shared,ballpoint pen,6.0,competing,single,s_sh_23_1.jpg,Student,,,sub-65
Desktop or Laptop,Windows 10,Chrome 134.0.0.0,1280x720,1280x720,Temporal Distance Task,cb_06,59.0,temp_dist_trial,dist_items,qkpkxw,2.0,info,,11.799999952316284,0.0,11.799999952316284,11.799999952316284,0.0,11.799999952316284,1.0,0.0,0.0,,Slider,Slider,4.0,object-56,temp_dist_trial,11.0,s_sh_23_1,student_shared,ballpoint pen,6.0,competing,single,s_sh_23_1.jpg,Student,,,sub-65
Desktop or Laptop,Windows 10,Chrome 134.0.0.0,1280x720,1280x720,Temporal Distance Task,cb_06,59.0,temp_dist_trial,dist_items,qkpkxw,2.0,continue,,2501.7999999523167,2498.099999999977,2501.7999999523167,2501.7999999523167,2498.099999999977,2501.7999999523167,1.0,0.0,0.0,,Click To Continue,Next button,7.0,object-60,temp_dist_trial,11.0,s_sh_23_1,student_shared,ballpoint pen,6.0,competing,single,s_sh_23_1.jpg,Student,,,sub-65
Desktop or Laptop,Windows 10,Chrome 134.0.0.0,1280x720,1280x720,Temporal Distance Task,cb_06,59.0,temp_dist_trial,dist_items,qkpkxw,2.0,response,54,582.7000000000116,2498.099999999977,2503.0,582.7000000000116,2498.099999999977,2503.0,1.0,1920.2999999999884,0.0,,Slider,Slider,4.0,object-56,temp_dist_trial,11.0,s_sh_23_1,student_shared,ballpoint pen,6.0,competing,single,s_sh_23_1.jpg,Student,,,sub-65
Desktop or Laptop,Windows 10,Chrome 134.0.0.0,1280x720,1280x720,Temporal Distance Task,cb_06,60.0,temp_dist_trial,num_items,zn7si1,1.0,response,2_ITEM,758.2999998569722,749.3000000000467,758.2999998569722,758.2999998569722,749.3000000000467,758.2999998569722,1.0,0.0,0.0,,Click Response,2_count,5.0,object-49,temp_dist_trial,12.0,s_a_09_1,student_art,picture frame,6.0,unique,paired,s_a_09_1.jpg,Student,,,sub-65
Desktop or Laptop,Windows 10,Chrome 134.0.0.0,1280x720,1280x720,Temporal Distance Task,cb_06,60.0,temp_dist_trial,dist_items,qkpkxw,2.0,info,,8.900000047695357,0.0,8.900000047695357,8.900000047695357,0.0,8.900000047695357,1.0,0.0,0.0,,Slider,Slider,4.0,object-56,temp_dist_trial,12.0,s_a_09_1,student_art,picture frame,6.0,unique,paired,s_a_09_1.jpg,Student,,,sub-65
Desktop or Laptop,Windows 10,Chrome 134.0.0.0,1280x720,1280x720,Temporal Distance Task,cb_06,60.0,temp_dist_trial,dist_items,qkpkxw,2.0,response,dist_miss,6994.600000000036,6994.600000000036,6994.600000000036,6994.600000000036,6994.600000000036,6994.600000000036,1.0,0.0,0.0,dist_miss_tag,Time Limit,screen,0.0,screen,temp_dist_trial,12.0,s_a_09_1,student_art,picture frame,6.0,unique,paired,s_a_09_1.jpg,Student,,,sub-65
Desktop or Laptop,Windows 10,Chrome 134.0.0.0,1280x720,1280x720,Temporal Distance Task,cb_06,60.0,temp_dist_trial,dist_items,qkpkxw,2.0,response,31,5362.200000000013,6994.600000000036,7008.7000000000135,5362.200000000013,6994.600000000036,7008.7000000000135,1.0,1646.5,0.0,,Slider,Slider,4.0,object-56,temp_dist_trial,12.0,s_a_09_1,student_art,picture frame,6.0,unique,paired,s_a_09_1.jpg,Student,,,sub-65
Desktop or Laptop,Windows 10,Chrome 134.0.0.0,1280x720,1280x720,Temporal Distance Task,cb_06,61.0,temp_dist_trial,num_items,zn7si1,1.0,response,2_ITEM,2632.6999999046093,2630.899999999965,2632.6999999046093,2632.6999999046093,2630.899999999965,2632.6999999046093,1.0,0.0,0.0,,Click Response,2_count,5.0,object-49,temp_dist_trial,13.0,s_s_13_1,student_stem,telescope,6.0,unique,paired,s_s_13_1.jpg,Student,,,sub-65
Desktop or Laptop,Windows 10,Chrome 134.0.0.0,1280x720,1280x720,Temporal Distance Task,cb_06,61.0,temp_dist_trial,dist_items,qkpkxw,2.0,info,,7.399999904620928,0.0,7.399999904620928,7.399999904620928,0.0,7.399999904620928,1.0,0.0,0.0,,Slider,Slider,4.0,object-56,temp_dist_trial,13.0,s_s_13_1,student_stem,telescope,6.0,unique,paired,s_s_13_1.jpg,Student,,,sub-65
Desktop or Laptop,Windows 10,Chrome 134.0.0.0,1280x720,1280x720,Temporal Distance Task,cb_06,61.0,temp_dist_trial,dist_items,qkpkxw,2.0,continue,,4753.699999856937,4746.099999999977,4753.699999856937,4753.699999856937,4746.099999999977,4753.699999856937,1.0,0.0,0.0,,Click To Continue,Next button,7.0,object-60,temp_dist_trial,13.0,s_s_13_1,student_stem,telescope,6.0,unique,paired,s_s_13_1.jpg,Student,,,sub-65
Desktop or Laptop,Windows 10,Chrome 134.0.0.0,1280x720,1280x720,Temporal Distance Task,cb_06,61.0,temp_dist_trial,dist_items,qkpkxw,2.0,response,36,2364.599999999977,4746.099999999977,4754.699999856937,2364.599999999977,4746.099999999977,4754.699999856937,1.0,2390.0999998569605,0.0,,Slider,Slider,4.0,object-56,temp_dist_trial,13.0,s_s_13_1,student_stem,telescope,6.0,unique,paired,s_s_13_1.jpg,Student,,,sub-65
Desktop or Laptop,Windows 10,Chrome 134.0.0.0,1280x720,1280x720,Temporal Distance Task,cb_06,62.0,temp_dist_trial,num_items,zn7si1,1.0,response,2_ITEM,1303.499999952328,1299.100000000035,1303.499999952328,1303.499999952328,1299.100000000035,1303.499999952328,1.0,0.0,0.0,,Click Response,2_count,5.0,object-49,temp_dist_trial,14.0,s_sh_19_1,student_shared,portable plastic drawer,6.0,competing,single,s_sh_19_1.jpg,Student,,,sub-65
Desktop or Laptop,Windows 10,Chrome 134.0.0.0,1280x720,1280x720,Temporal Distance Task,cb_06,62.0,temp_dist_trial,dist_items,qkpkxw,2.0,info,,9.899999952293,0.0,9.899999952293,9.899999952293,0.0,9.899999952293,1.0,0.0,0.0,,Slider,Slider,4.0,object-56,temp_dist_trial,14.0,s_sh_19_1,student_shared,portable plastic drawer,6.0,competing,single,s_sh_19_1.jpg,Student,,,sub-65
Desktop or Laptop,Windows 10,Chrome 134.0.0.0,1280x720,1280x720,Temporal Distance Task,cb_06,62.0,temp_dist_trial,dist_items,qkpkxw,2.0,continue,,2691.099999999977,2681.5,2691.099999999977,2691.099999999977,2681.5,2691.099999999977,1.0,0.0,0.0,,Click To Continue,Next button,7.0,object-60,temp_dist_trial,14.0,s_sh_19_1,student_shared,portable plastic drawer,6.0,competing,single,s_sh_19_1.jpg,Student,,,sub-65
Desktop or Laptop,Windows 10,Chrome 134.0.0.0,1280x720,1280x720,Temporal Distance Task,cb_06,62.0,temp_dist_trial,dist_items,qkpkxw,2.0,response,34,1532.3999999999646,2681.5,2698.100000000035,1532.3999999999646,2681.5,2698.100000000035,1.0,1165.7000000000694,0.0,,Slider,Slider,4.0,object-56,temp_dist_trial,14.0,s_sh_19_1,student_shared,portable plastic drawer,6.0,competing,single,s_sh_19_1.jpg,Student,,,sub-65
Desktop or Laptop,Windows 10,Chrome 134.0.0.0,1280x720,1280x720,Temporal Distance Task,cb_06,63.0,temp_dist_trial,num_items,zn7si1,1.0,response,2_ITEM,985.4999998569257,982.1999999999533,985.4999998569257,985.4999998569257,982.1999999999533,985.4999998569257,1.0,0.0,0.0,,Click Response,2_count,5.0,object-49,temp_dist_trial,15.0,s_a_11_1,student_art,clapperboard,6.0,unique,single,s_a_11_1.jpg,Student,,,sub-65
Desktop or Laptop,Windows 10,Chrome 134.0.0.0,1280x720,1280x720,Temporal Distance Task,cb_06,63.0,temp_dist_trial,dist_items,qkpkxw,2.0,info,,4.8999998569488525,0.0,4.8999998569488525,4.8999998569488525,0.0,4.8999998569488525,1.0,0.0,0.0,,Slider,Slider,4.0,object-56,temp_dist_trial,15.0,s_a_11_1,student_art,clapperboard,6.0,unique,single,s_a_11_1.jpg,Student,,,sub-65
Desktop or Laptop,Windows 10,Chrome 134.0.0.0,1280x720,1280x720,Temporal Distance Task,cb_06,63.0,temp_dist_trial,dist_items,qkpkxw,2.0,continue,,2257.5,2248.4000000000233,2257.5,2257.5,2248.4000000000233,2257.5,1.0,0.0,0.0,,Click To Continue,Next button,7.0,object-60,temp_dist_trial,15.0,s_a_11_1,student_art,clapperboard,6.0,unique,single,s_a_11_1.jpg,Student,,,sub-65
Desktop or Laptop,Windows 10,Chrome 134.0.0.0,1280x720,1280x720,Temporal Distance Task,cb_06,63.0,temp_dist_trial,dist_items,qkpkxw,2.0,response,30,1265.5,2248.4000000000233,2258.399999856949,1265.5,2248.4000000000233,2258.399999856949,1.0,992.8999998569487,0.0,,Slider,Slider,4.0,object-56,temp_dist_trial,15.0,s_a_11_1,student_art,clapperboard,6.0,unique,single,s_a_11_1.jpg,Student,,,sub-65
Desktop or Laptop,Windows 10,Chrome 134.0.0.0,1280x720,1280x720,Temporal Distance Task,cb_06,64.0,temp_dist_trial,num_items,zn7si1,1.0,response,2_ITEM,1224.899999952293,1215.5999999999767,1224.899999952293,1224.899999952293,1215.5999999999767,1224.899999952293,1.0,0.0,0.0,,Click Response,2_count,5.0,object-49,temp_dist_trial,16.0,s_s_18_1,student_stem,brain model,6.0,unique,single,s_s_18_1.jpg,Student,,,sub-65
Desktop or Laptop,Windows 10,Chrome 134.0.0.0,1280x720,1280x720,Temporal Distance Task,cb_06,64.0,temp_dist_trial,dist_items,qkpkxw,2.0,info,,11.600000047707,0.0,11.600000047707,11.600000047707,0.0,11.600000047707,1.0,0.0,0.0,,Slider,Slider,4.0,object-56,temp_dist_trial,16.0,s_s_18_1,student_stem,brain model,6.0,unique,single,s_s_18_1.jpg,Student,,,sub-65
Desktop or Laptop,Windows 10,Chrome 134.0.0.0,1280x720,1280x720,Temporal Distance Task,cb_06,64.0,temp_dist_trial,dist_items,qkpkxw,2.0,continue,,2247.8000000000466,2231.4000000000233,2247.8000000000466,2247.8000000000466,2231.4000000000233,2247.8000000000466,1.0,0.0,0.0,,Click To Continue,Next button,7.0,object-60,temp_dist_trial,16.0,s_s_18_1,student_stem,brain model,6.0,unique,single,s_s_18_1.jpg,Student,,,sub-65
Desktop or Laptop,Windows 10,Chrome 134.0.0.0,1280x720,1280x720,Temporal Distance Task,cb_06,64.0,temp_dist_trial,dist_items,qkpkxw,2.0,response,34,1315.7000000000114,2231.4000000000233,2247.8000000000466,1315.7000000000114,2231.4000000000233,2247.8000000000466,1.0,932.1000000000348,0.0,,Slider,Slider,4.0,object-56,temp_dist_trial,16.0,s_s_18_1,student_stem,brain model,6.0,unique,single,s_s_18_1.jpg,Student,,,sub-65
Desktop or Laptop,Windows 10,Chrome 134.0.0.0,1280x720,1280x720,Temporal Distance Task,cb_06,65.0,temp_dist_trial,num_items,zn7si1,1.0,response,1_ITEM,1455.8999998569489,1449.2000000000116,1455.8999998569489,1455.8999998569489,1449.2000000000116,1455.8999998569489,1.0,0.0,0.0,,Click Response,1_count,3.0,object-46,temp_dist_trial,17.0,s_a_10_1,student_art,tripod,6.0,unique,single,s_a_10_1.jpg,Student,,,sub-65
Desktop or Laptop,Windows 10,Chrome 134.0.0.0,1280x720,1280x720,Temporal Distance Task,cb_06,66.0,temp_dist_trial,num_items,zn7si1,1.0,response,1_ITEM,749.5999998569605,732.9000000000232,749.5999998569605,749.5999998569605,732.9000000000232,749.5999998569605,1.0,0.0,0.0,,Click Response,1_count,3.0,object-46,temp_dist_trial,18.0,s_a_13_1,student_art,violin,6.0,unique,paired,s_a_13_1.jpg,Student,,,sub-65
Desktop or Laptop,Windows 10,Chrome 134.0.0.0,1280x720,1280x720,Temporal Distance Task,cb_06,67.0,temp_dist_trial,num_items,zn7si1,1.0,response,1_ITEM,840.5999998569605,832.7000000000116,840.5999998569605,840.5999998569605,832.7000000000116,840.5999998569605,1.0,0.0,0.0,,Click Response,1_count,3.0,object-46,temp_dist_trial,19.0,s_a_15_1,student_art,drum kit,6.0,unique,paired,s_a_15_1.jpg,Student,,,sub-65
Desktop or Laptop,Windows 10,Chrome 134.0.0.0,1280x720,1280x720,Temporal Distance Task,cb_06,68.0,temp_dist_trial,num_items,zn7si1,1.0,response,2_ITEM,1451.7000000000116,1449.0,1451.7000000000116,1451.7000000000116,1449.0,1451.7000000000116,1.0,0.0,0.0,,Click Response,2_count,5.0,object-49,temp_dist_trial,20.0,s_sh_22_1,student_shared,hole puncher,6.0,competing,paired,s_sh_22_1.jpg,Student,,,sub-65
Desktop or Laptop,Windows 10,Chrome 134.0.0.0,1280x720,1280x720,Temporal Distance Task,cb_06,68.0,temp_dist_trial,dist_items,qkpkxw,2.0,info,,11.799999999988358,0.0,11.799999999988358,11.799999999988358,0.0,11.799999999988358,1.0,0.0,0.0,,Slider,Slider,4.0,object-56,temp_dist_trial,20.0,s_sh_22_1,student_shared,hole puncher,6.0,competing,paired,s_sh_22_1.jpg,Student,,,sub-65
Desktop or Laptop,Windows 10,Chrome 134.0.0.0,1280x720,1280x720,Temporal Distance Task,cb_06,68.0,temp_dist_trial,dist_items,qkpkxw,2.0,continue,,1506.000000047672,1499.0999999999767,1506.000000047672,1506.000000047672,1499.0999999999767,1506.000000047672,1.0,0.0,0.0,,Click To Continue,Next button,7.0,object-60,temp_dist_trial,20.0,s_sh_22_1,student_shared,hole puncher,6.0,competing,paired,s_sh_22_1.jpg,Student,,,sub-65
Desktop or Laptop,Windows 10,Chrome 134.0.0.0,1280x720,1280x720,Temporal Distance Task,cb_06,68.0,temp_dist_trial,dist_items,qkpkxw,2.0,response,36,749.3999999999651,1499.0999999999767,1506.6999998569372,749.3999999999651,1499.0999999999767,1506.6999998569372,1.0,757.2999998569722,0.0,,Slider,Slider,4.0,object-56,temp_dist_trial,20.0,s_sh_22_1,student_shared,hole puncher,6.0,competing,paired,s_sh_22_1.jpg,Student,,,sub-65
Desktop or Laptop,Windows 10,Chrome 134.0.0.0,1280x720,1280x720,Temporal Distance Task,cb_06,69.0,temp_dist_trial,num_items,zn7si1,1.0,response,1_ITEM,1142.5999998569605,1132.2999999999886,1142.5999998569605,1142.5999998569605,1132.2999999999886,1142.5999998569605,1.0,0.0,0.0,,Click Response,1_count,3.0,object-46,temp_dist_trial,21.0,s_s_04_1,student_stem,bunsen burner,6.0,unique,single,s_s_04_1.jpg,Student,,,sub-65
Desktop or Laptop,Windows 10,Chrome 134.0.0.0,1280x720,1280x720,Temporal Distance Task,cb_06,70.0,temp_dist_trial,num_items,zn7si1,1.0,response,2_ITEM,1024.7999999999884,1015.7999999999884,1024.7999999999884,1024.7999999999884,1015.7999999999884,1024.7999999999884,1.0,0.0,0.0,,Click Response,2_count,5.0,object-49,temp_dist_trial,22.0,s_sh_01_1,student_shared,notebook,6.0,competing,paired,s_sh_01_1.jpg,Student,,,sub-65
Desktop or Laptop,Windows 10,Chrome 134.0.0.0,1280x720,1280x720,Temporal Distance Task,cb_06,70.0,temp_dist_trial,dist_items,qkpkxw,2.0,info,,9.99999985692557,0.0,9.99999985692557,9.99999985692557,0.0,9.99999985692557,1.0,0.0,0.0,,Slider,Slider,4.0,object-56,temp_dist_trial,22.0,s_sh_01_1,student_shared,notebook,6.0,competing,paired,s_sh_01_1.jpg,Student,,,sub-65
Desktop or Laptop,Windows 10,Chrome 134.0.0.0,1280x720,1280x720,Temporal Distance Task,cb_06,70.0,temp_dist_trial,dist_items,qkpkxw,2.0,continue,,2055.1999999046093,2048.5,2055.1999999046093,2055.1999999046093,2048.5,2055.1999999046093,1.0,0.0,0.0,,Click To Continue,Next button,7.0,object-60,temp_dist_trial,22.0,s_sh_01_1,student_shared,notebook,6.0,competing,paired,s_sh_01_1.jpg,Student,,,sub-65
Desktop or Laptop,Windows 10,Chrome 134.0.0.0,1280x720,1280x720,Temporal Distance Task,cb_06,70.0,temp_dist_trial,dist_items,qkpkxw,2.0,response,62,999.3999999999652,2048.5,2056.4999998569256,999.3999999999652,2048.5,2056.4999998569256,1.0,1057.0999998569605,0.0,,Slider,Slider,4.0,object-56,temp_dist_trial,22.0,s_sh_01_1,student_shared,notebook,6.0,competing,paired,s_sh_01_1.jpg,Student,,,sub-65
Desktop or Laptop,Windows 10,Chrome 134.0.0.0,1280x720,1280x720,Temporal Distance Task,cb_06,71.0,temp_dist_trial,num_items,zn7si1,1.0,response,2_ITEM,881.6999999046092,865.8999999999651,881.6999999046092,881.6999999046092,865.8999999999651,881.6999999046092,1.0,0.0,0.0,,Click Response,2_count,5.0,object-49,temp_dist_trial,23.0,s_sh_21_1,student_shared,file holder,6.0,competing,single,s_sh_21_1.jpg,Student,,,sub-65
Desktop or Laptop,Windows 10,Chrome 134.0.0.0,1280x720,1280x720,Temporal Distance Task,cb_06,71.0,temp_dist_trial,dist_items,qkpkxw,2.0,info,,11.099999856960494,0.0,11.099999856960494,11.099999856960494,0.0,11.099999856960494,1.0,0.0,0.0,,Slider,Slider,4.0,object-56,temp_dist_trial,23.0,s_sh_21_1,student_shared,file holder,6.0,competing,single,s_sh_21_1.jpg,Student,,,sub-65
Desktop or Laptop,Windows 10,Chrome 134.0.0.0,1280x720,1280x720,Temporal Distance Task,cb_06,71.0,temp_dist_trial,dist_items,qkpkxw,2.0,continue,,2523.5999998569605,2515.0,2523.5999998569605,2523.5999998569605,2515.0,2523.5999998569605,1.0,0.0,0.0,,Click To Continue,Next button,7.0,object-60,temp_dist_trial,23.0,s_sh_21_1,student_shared,file holder,6.0,competing,single,s_sh_21_1.jpg,Student,,,sub-65
Desktop or Laptop,Windows 10,Chrome 134.0.0.0,1280x720,1280x720,Temporal Distance Task,cb_06,71.0,temp_dist_trial,dist_items,qkpkxw,2.0,response,61,1049.5,2515.0,2531.7999999999884,1049.5,2515.0,2531.7999999999884,1.0,1482.2999999999884,0.0,,Slider,Slider,4.0,object-56,temp_dist_trial,23.0,s_sh_21_1,student_shared,file holder,6.0,competing,single,s_sh_21_1.jpg,Student,,,sub-65
Desktop or Laptop,Windows 10,Chrome 134.0.0.0,1280x720,1280x720,Temporal Distance Task,cb_06,72.0,temp_dist_trial,num_items,zn7si1,1.0,response,2_ITEM,640.4999999523279,632.7000000000116,640.4999999523279,640.4999999523279,632.7000000000116,640.4999999523279,1.0,0.0,0.0,,Click Response,2_count,5.0,object-49,temp_dist_trial,24.0,s_sh_02_1,student_shared,eraser,6.0,competing,single,s_sh_02_1.jpg,Student,,,sub-65
Desktop or Laptop,Windows 10,Chrome 134.0.0.0,1280x720,1280x720,Temporal Distance Task,cb_06,72.0,temp_dist_trial,dist_items,qkpkxw,2.0,info,,10.400000047695356,0.0,10.400000047695356,10.400000047695356,0.0,10.400000047695356,1.0,0.0,0.0,,Slider,Slider,4.0,object-56,temp_dist_trial,24.0,s_sh_02_1,student_shared,eraser,6.0,competing,single,s_sh_02_1.jpg,Student,,,sub-65
Desktop or Laptop,Windows 10,Chrome 134.0.0.0,1280x720,1280x720,Temporal Distance Task,cb_06,72.0,temp_dist_trial,dist_items,qkpkxw,2.0,continue,,1422.2000000000116,1415.4000000000233,1422.2000000000116,1422.2000000000116,1415.4000000000233,1422.2000000000116,1.0,0.0,0.0,,Click To Continue,Next button,7.0,object-60,temp_dist_trial,24.0,s_sh_02_1,student_shared,eraser,6.0,competing,single,s_sh_02_1.jpg,Student,,,sub-65
Desktop or Laptop,Windows 10,Chrome 134.0.0.0,1280x720,1280x720,Temporal Distance Task,cb_06,72.0,temp_dist_trial,dist_items,qkpkxw,2.0,response,41,766.1000000000349,1415.4000000000233,1423.2000000000116,766.1000000000349,1415.4000000000233,1423.2000000000116,1.0,657.0999999999767,0.0,,Slider,Slider,4.0,object-56,temp_dist_trial,24.0,s_sh_02_1,student_shared,eraser,6.0,competing,single,s_sh_02_1.jpg,Student,,,sub-65
Desktop or Laptop,Windows 10,Chrome 134.0.0.0,1280x720,1280x720,Temporal Distance Task,cb_06,73.0,temp_dist_trial,num_items,zn7si1,1.0,response,1_ITEM,1670.1999998569372,1665.5,1670.1999998569372,1670.1999998569372,1665.5,1670.1999998569372,1.0,0.0,0.0,,Click Response,1_count,3.0,object-46,temp_dist_trial,25.0,s_s_20_1,student_stem,dna model,6.0,unique,paired,s_s_20_1.jpg,Student,,,sub-65
Desktop or Laptop,Windows 10,Chrome 134.0.0.0,1280x720,1280x720,Temporal Distance Task,cb_06,74.0,temp_dist_trial,num_items,zn7si1,1.0,response,2_ITEM,1027.9000000000233,1016.2000000000116,1027.9000000000233,1027.9000000000233,1016.2000000000116,1027.9000000000233,1.0,0.0,0.0,,Click Response,2_count,5.0,object-49,temp_dist_trial,26.0,s_sh_17_1,student_shared,wireless mouse,6.0,competing,paired,s_sh_17_1.jpg,Student,,,sub-65
Desktop or Laptop,Windows 10,Chrome 134.0.0.0,1280x720,1280x720,Temporal Distance Task,cb_06,74.0,temp_dist_trial,dist_items,qkpkxw,2.0,info,,11.699999856937213,0.0,11.699999856937213,11.699999856937213,0.0,11.699999856937213,1.0,0.0,0.0,,Slider,Slider,4.0,object-56,temp_dist_trial,26.0,s_sh_17_1,student_shared,wireless mouse,6.0,competing,paired,s_sh_17_1.jpg,Student,,,sub-65
Desktop or Laptop,Windows 10,Chrome 134.0.0.0,1280x720,1280x720,Temporal Distance Task,cb_06,74.0,temp_dist_trial,dist_items,qkpkxw,2.0,continue,,3719.599999952305,3713.700000000012,3719.599999952305,3719.599999952305,3713.700000000012,3719.599999952305,1.0,0.0,0.0,,Click To Continue,Next button,7.0,object-60,temp_dist_trial,26.0,s_sh_17_1,student_shared,wireless mouse,6.0,competing,paired,s_sh_17_1.jpg,Student,,,sub-65
Desktop or Laptop,Windows 10,Chrome 134.0.0.0,1280x720,1280x720,Temporal Distance Task,cb_06,74.0,temp_dist_trial,dist_items,qkpkxw,2.0,response,36,966.2000000000116,3713.700000000012,3720.099999952305,966.2000000000116,3713.700000000012,3720.099999952305,1.0,2753.899999952293,0.0,,Slider,Slider,4.0,object-56,temp_dist_trial,26.0,s_sh_17_1,student_shared,wireless mouse,6.0,competing,paired,s_sh_17_1.jpg,Student,,,sub-65
Desktop or Laptop,Windows 10,Chrome 134.0.0.0,1280x720,1280x720,Temporal Distance Task,cb_06,75.0,temp_dist_trial,num_items,zn7si1,1.0,response,2_ITEM,1056.0999999999767,1049.4000000000233,1056.0999999999767,1056.0999999999767,1049.4000000000233,1056.0999999999767,1.0,0.0,0.0,,Click Response,2_count,5.0,object-49,temp_dist_trial,27.0,s_sh_10_1,student_shared,scissors,6.0,competing,paired,s_sh_10_1.jpg,Student,,,sub-65
Desktop or Laptop,Windows 10,Chrome 134.0.0.0,1280x720,1280x720,Temporal Distance Task,cb_06,75.0,temp_dist_trial,dist_items,qkpkxw,2.0,info,,11.299999856972134,0.0,11.299999856972134,11.299999856972134,0.0,11.299999856972134,1.0,0.0,0.0,,Slider,Slider,4.0,object-56,temp_dist_trial,27.0,s_sh_10_1,student_shared,scissors,6.0,competing,paired,s_sh_10_1.jpg,Student,,,sub-65
Desktop or Laptop,Windows 10,Chrome 134.0.0.0,1280x720,1280x720,Temporal Distance Task,cb_06,75.0,temp_dist_trial,dist_items,qkpkxw,2.0,continue,,2893.4000000000237,2881.0,2893.4000000000237,2893.4000000000237,2881.0,2893.4000000000237,1.0,0.0,0.0,,Click To Continue,Next button,7.0,object-60,temp_dist_trial,27.0,s_sh_10_1,student_shared,scissors,6.0,competing,paired,s_sh_10_1.jpg,Student,,,sub-65
