Participant Device,Participant OS,Participant Browser,Participant Monitor Size,Participant Viewport Size,Task Name,Current Spreadsheet,Trial Number,Display,Screen,Screen ID,Screen Counter,Response Type,Response,Onset Time,Clock Time,Reaction Time,Absolute Onset Time,Absolute Clock Time,Absolute Reaction Time,Correct,Response Duration,Proportion,Tag,Component Name,Object Name,Object Number,Object ID,Spreadsheet: display,Spreadsheet: trial,Spreadsheet: stimulus_id,Spreadsheet: expected_goal,Spreadsheet: stimulus_name,Spreadsheet: c_group,Spreadsheet: condition,Spreadsheet: paired_status,Spreadsheet: stimulus_path,Spreadsheet: block_type,Manipulation: Spreadsheet,Store: enc_test_acc,sub_label
Desktop or Laptop,Windows 10,Chrome 138.0.0.0,1536x864,1536x864,Temporal Distance Task,,,,,,,info,BEGIN,,,,,,,,,,,,,,,,,,,,,,,,,$${counterbalance_group},,sub-81
Desktop or Laptop,Windows 10,Chrome 138.0.0.0,1536x864,1536x864,Temporal Distance Task,cb_08,1.0,temp_instructions,intro_screen,3tnme7,1.0,continue,,18529.200000572204,18518.1,18529.200000572204,18529.200000572204,18518.1,18529.200000572204,1.0,0.0,0.0,,Click To Continue,Continue Button,4.0,object-29,temp_instructions,,,Travel,,,,,,,$${counterbalance_group},,sub-81
Desktop or Laptop,Windows 10,Chrome 138.0.0.0,1536x864,1536x864,Temporal Distance Task,cb_08,1.0,temp_instructions,intro_screen_2,52v7ur,2.0,continue,,20888.30000038147,20882.6,20888.30000038147,20888.30000038147,20882.6,20888.30000038147,1.0,0.0,0.0,,Click To Continue,Continue Button,4.0,object-39,temp_instructions,,,Travel,,,,,,,$${counterbalance_group},,sub-81
Desktop or Laptop,Windows 10,Chrome 138.0.0.0,1536x864,1536x864,Temporal Distance Task,cb_08,1.0,temp_instructions,intro_screen_3,i7lvwx,3.0,continue,,8293.400000190732,8277.0,8293.400000190732,8293.400000190732,8277.0,8293.400000190732,1.0,0.0,0.0,,Click To Continue,Continue Button,4.0,object-67,temp_instructions,,,Travel,,,,,,,$${counterbalance_group},,sub-81
Desktop or Laptop,Windows 10,Chrome 138.0.0.0,1536x864,1536x864,Temporal Distance Task,cb_08,1.0,temp_instructions,test_q1,5ieqx1,4.0,response,choice_3,11295.200000381465,11290.200000000004,11295.200000381465,11295.200000381465,11290.200000000004,11295.200000381465,1.0,0.0,0.0,,Click Response,choice_3,5.0,object-345,temp_instructions,,,Travel,,,,,,,$${counterbalance_group},,sub-81
Desktop or Laptop,Windows 10,Chrome 138.0.0.0,1536x864,1536x864,Temporal Distance Task,cb_08,1.0,temp_instructions,score_corr,7ilvjr,5.0,continue,,1639.3999999999942,1632.2999999999884,1639.3999999999942,1639.3999999999942,1632.2999999999884,1639.3999999999942,1.0,0.0,0.0,,Click To Continue,Continue Button,3.0,object-23,temp_instructions,,,Travel,,,,,,,$${counterbalance_group},,sub-81
Desktop or Laptop,Windows 10,Chrome 138.0.0.0,1536x864,1536x864,Temporal Distance Task,cb_08,1.0,temp_eventStart,Screen 1,dgtyxe,1.0,continue,,6660.800000000018,6644.400000000009,6660.800000000018,6660.800000000018,6644.400000000009,6660.800000000018,1.0,0.0,0.0,,Click To Continue,Next Button,3.0,object-43,temp_eventStart,,,Travel,,,,,,,$${counterbalance_group},,sub-81
Desktop or Laptop,Windows 10,Chrome 138.0.0.0,1536x864,1536x864,Temporal Distance Task,cb_08,1.0,temp_dist_trial,num_items,zn7si1,1.0,response,2_ITEM,1632.0,1615.5,1632.0,1632.0,1615.5,1632.0,1.0,0.0,0.0,,Click Response,2_count,5.0,object-49,temp_dist_trial,1.0,t_s_23_1,travel_shared,ball cap,8.0,competing,paired,t_s_23_1.jpg,Travel,$${counterbalance_group},,sub-81
Desktop or Laptop,Windows 10,Chrome 138.0.0.0,1536x864,1536x864,Temporal Distance Task,cb_08,1.0,temp_dist_trial,dist_items,qkpkxw,2.0,info,,16.69999999999709,0.0,16.69999999999709,16.69999999999709,0.0,16.69999999999709,1.0,0.0,0.0,,Slider,Slider,4.0,object-56,temp_dist_trial,1.0,t_s_23_1,travel_shared,ball cap,8.0,competing,paired,t_s_23_1.jpg,Travel,$${counterbalance_group},,sub-81
Desktop or Laptop,Windows 10,Chrome 138.0.0.0,1536x864,1536x864,Temporal Distance Task,cb_08,1.0,temp_dist_trial,dist_items,qkpkxw,2.0,continue,,3918.0000005722095,3913.300000000003,3918.0000005722095,3918.0000005722095,3913.300000000003,3918.0000005722095,1.0,0.0,0.0,,Click To Continue,Next button,7.0,object-60,temp_dist_trial,1.0,t_s_23_1,travel_shared,ball cap,8.0,competing,paired,t_s_23_1.jpg,Travel,$${counterbalance_group},,sub-81
Desktop or Laptop,Windows 10,Chrome 138.0.0.0,1536x864,1536x864,Temporal Distance Task,cb_08,1.0,temp_dist_trial,dist_items,qkpkxw,2.0,response,34,2281.6000000000063,3913.300000000003,3918.6000000000067,2281.6000000000063,3913.300000000003,3918.6000000000067,1.0,1637.0,0.0,,Slider,Slider,4.0,object-56,temp_dist_trial,1.0,t_s_23_1,travel_shared,ball cap,8.0,competing,paired,t_s_23_1.jpg,Travel,$${counterbalance_group},,sub-81
Desktop or Laptop,Windows 10,Chrome 138.0.0.0,1536x864,1536x864,Temporal Distance Task,cb_08,2.0,temp_dist_trial,num_items,zn7si1,1.0,response,2_ITEM,1620.4000003814724,1615.6999999999966,1620.4000003814724,1620.4000003814724,1615.6999999999966,1620.4000003814724,1.0,0.0,0.0,,Click Response,2_count,5.0,object-49,temp_dist_trial,2.0,t_s_20_1,travel_shared,travel pill case,8.0,competing,paired,t_s_20_1.jpg,Travel,$${counterbalance_group},,sub-81
Desktop or Laptop,Windows 10,Chrome 138.0.0.0,1536x864,1536x864,Temporal Distance Task,cb_08,2.0,temp_dist_trial,dist_items,qkpkxw,2.0,info,,16.60000000000582,0.0,16.60000000000582,16.60000000000582,0.0,16.60000000000582,1.0,0.0,0.0,,Slider,Slider,4.0,object-56,temp_dist_trial,2.0,t_s_20_1,travel_shared,travel pill case,8.0,competing,paired,t_s_20_1.jpg,Travel,$${counterbalance_group},,sub-81
Desktop or Laptop,Windows 10,Chrome 138.0.0.0,1536x864,1536x864,Temporal Distance Task,cb_08,2.0,temp_dist_trial,dist_items,qkpkxw,2.0,continue,,2072.8000005721988,2065.199999999997,2072.8000005721988,2072.8000005721988,2065.199999999997,2072.8000005721988,1.0,0.0,0.0,,Click To Continue,Next button,7.0,object-60,temp_dist_trial,2.0,t_s_20_1,travel_shared,travel pill case,8.0,competing,paired,t_s_20_1.jpg,Travel,$${counterbalance_group},,sub-81
Desktop or Laptop,Windows 10,Chrome 138.0.0.0,1536x864,1536x864,Temporal Distance Task,cb_08,2.0,temp_dist_trial,dist_items,qkpkxw,2.0,response,68,1132.5,2065.199999999997,2073.500000381464,1132.5,2065.199999999997,2073.500000381464,1.0,941.0000003814639,0.0,,Slider,Slider,4.0,object-56,temp_dist_trial,2.0,t_s_20_1,travel_shared,travel pill case,8.0,competing,paired,t_s_20_1.jpg,Travel,$${counterbalance_group},,sub-81
Desktop or Laptop,Windows 10,Chrome 138.0.0.0,1536x864,1536x864,Temporal Distance Task,cb_08,3.0,temp_dist_trial,num_items,zn7si1,1.0,response,2_ITEM,1164.3999998092622,1149.0999999999913,1164.3999998092622,1164.3999998092622,1149.0999999999913,1164.3999998092622,1.0,0.0,0.0,,Click Response,2_count,5.0,object-49,temp_dist_trial,3.0,t_s_17_1,travel_shared,toothbrush,8.0,competing,paired,t_s_17_1.jpg,Travel,$${counterbalance_group},,sub-81
Desktop or Laptop,Windows 10,Chrome 138.0.0.0,1536x864,1536x864,Temporal Distance Task,cb_08,3.0,temp_dist_trial,dist_items,qkpkxw,2.0,info,,16.80000000000291,0.0,16.80000000000291,16.80000000000291,0.0,16.80000000000291,1.0,0.0,0.0,,Slider,Slider,4.0,object-56,temp_dist_trial,3.0,t_s_17_1,travel_shared,toothbrush,8.0,competing,paired,t_s_17_1.jpg,Travel,$${counterbalance_group},,sub-81
Desktop or Laptop,Windows 10,Chrome 138.0.0.0,1536x864,1536x864,Temporal Distance Task,cb_08,3.0,temp_dist_trial,dist_items,qkpkxw,2.0,continue,,2846.800000000003,2830.699999999997,2846.800000000003,2846.800000000003,2830.699999999997,2846.800000000003,1.0,0.0,0.0,,Click To Continue,Next button,7.0,object-60,temp_dist_trial,3.0,t_s_17_1,travel_shared,toothbrush,8.0,competing,paired,t_s_17_1.jpg,Travel,$${counterbalance_group},,sub-81
Desktop or Laptop,Windows 10,Chrome 138.0.0.0,1536x864,1536x864,Temporal Distance Task,cb_08,3.0,temp_dist_trial,dist_items,qkpkxw,2.0,response,61,2264.699999999997,2830.699999999997,2846.800000000003,2264.699999999997,2830.699999999997,2846.800000000003,1.0,582.1000000000057,0.0,,Slider,Slider,4.0,object-56,temp_dist_trial,3.0,t_s_17_1,travel_shared,toothbrush,8.0,competing,paired,t_s_17_1.jpg,Travel,$${counterbalance_group},,sub-81
Desktop or Laptop,Windows 10,Chrome 138.0.0.0,1536x864,1536x864,Temporal Distance Task,cb_08,4.0,temp_dist_trial,num_items,zn7si1,1.0,response,2_ITEM,1890.1000005722012,1881.6999999999966,1890.1000005722012,1890.1000005722012,1881.6999999999966,1890.1000005722012,1.0,0.0,0.0,,Click Response,2_count,5.0,object-49,temp_dist_trial,4.0,t_m_08_1,travel_Miami,flipflops,8.0,unique,paired,t_m_08_1.jpg,Travel,$${counterbalance_group},,sub-81
Desktop or Laptop,Windows 10,Chrome 138.0.0.0,1536x864,1536x864,Temporal Distance Task,cb_08,4.0,temp_dist_trial,dist_items,qkpkxw,2.0,info,,16.59999999999127,0.0,16.59999999999127,16.59999999999127,0.0,16.59999999999127,1.0,0.0,0.0,,Slider,Slider,4.0,object-56,temp_dist_trial,4.0,t_m_08_1,travel_Miami,flipflops,8.0,unique,paired,t_m_08_1.jpg,Travel,$${counterbalance_group},,sub-81
Desktop or Laptop,Windows 10,Chrome 138.0.0.0,1536x864,1536x864,Temporal Distance Task,cb_08,4.0,temp_dist_trial,dist_items,qkpkxw,2.0,continue,,1501.4999998092678,1498.3000000000034,1501.4999998092678,1501.4999998092678,1498.3000000000034,1501.4999998092678,1.0,0.0,0.0,,Click To Continue,Next button,7.0,object-60,temp_dist_trial,4.0,t_m_08_1,travel_Miami,flipflops,8.0,unique,paired,t_m_08_1.jpg,Travel,$${counterbalance_group},,sub-81
Desktop or Laptop,Windows 10,Chrome 138.0.0.0,1536x864,1536x864,Temporal Distance Task,cb_08,4.0,temp_dist_trial,dist_items,qkpkxw,2.0,response,64,932.1000000000058,1498.3000000000034,1502.2000005722077,932.1000000000058,1498.3000000000034,1502.2000005722077,1.0,570.1000005722018,0.0,,Slider,Slider,4.0,object-56,temp_dist_trial,4.0,t_m_08_1,travel_Miami,flipflops,8.0,unique,paired,t_m_08_1.jpg,Travel,$${counterbalance_group},,sub-81
Desktop or Laptop,Windows 10,Chrome 138.0.0.0,1536x864,1536x864,Temporal Distance Task,cb_08,5.0,temp_dist_trial,num_items,zn7si1,1.0,response,2_ITEM,1299.9000000000087,1282.8000000000031,1299.9000000000087,1299.9000000000087,1282.8000000000031,1299.9000000000087,1.0,0.0,0.0,,Click Response,2_count,5.0,object-49,temp_dist_trial,5.0,t_s_03_1,travel_shared,portable charger,8.0,competing,single,t_s_03_1.jpg,Travel,$${counterbalance_group},,sub-81
Desktop or Laptop,Windows 10,Chrome 138.0.0.0,1536x864,1536x864,Temporal Distance Task,cb_08,5.0,temp_dist_trial,dist_items,qkpkxw,2.0,info,,16.5,0.0,16.5,16.5,0.0,16.5,1.0,0.0,0.0,,Slider,Slider,4.0,object-56,temp_dist_trial,5.0,t_s_03_1,travel_shared,portable charger,8.0,competing,single,t_s_03_1.jpg,Travel,$${counterbalance_group},,sub-81
Desktop or Laptop,Windows 10,Chrome 138.0.0.0,1536x864,1536x864,Temporal Distance Task,cb_08,5.0,temp_dist_trial,dist_items,qkpkxw,2.0,continue,,2305.400000190741,2297.9000000000087,2305.400000190741,2305.400000190741,2297.9000000000087,2305.400000190741,1.0,0.0,0.0,,Click To Continue,Next button,7.0,object-60,temp_dist_trial,5.0,t_s_03_1,travel_shared,portable charger,8.0,competing,single,t_s_03_1.jpg,Travel,$${counterbalance_group},,sub-81
Desktop or Laptop,Windows 10,Chrome 138.0.0.0,1536x864,1536x864,Temporal Distance Task,cb_08,5.0,temp_dist_trial,dist_items,qkpkxw,2.0,response,67,1681.7000000000116,2297.9000000000087,2306.2000003814755,1681.7000000000116,2297.9000000000087,2306.2000003814755,1.0,624.5000003814639,0.0,,Slider,Slider,4.0,object-56,temp_dist_trial,5.0,t_s_03_1,travel_shared,portable charger,8.0,competing,single,t_s_03_1.jpg,Travel,$${counterbalance_group},,sub-81
Desktop or Laptop,Windows 10,Chrome 138.0.0.0,1536x864,1536x864,Temporal Distance Task,cb_08,6.0,temp_dist_trial,num_items,zn7si1,1.0,response,2_ITEM,1292.1999999999969,1282.3999999999942,1292.1999999999969,1292.1999999999969,1282.3999999999942,1292.1999999999969,1.0,0.0,0.0,,Click Response,2_count,5.0,object-49,temp_dist_trial,6.0,t_s_24_1,travel_shared,ear plugs,8.0,competing,paired,t_s_24_1.jpg,Travel,$${counterbalance_group},,sub-81
Desktop or Laptop,Windows 10,Chrome 138.0.0.0,1536x864,1536x864,Temporal Distance Task,cb_08,6.0,temp_dist_trial,dist_items,qkpkxw,2.0,info,,16.5,0.0,16.5,16.5,0.0,16.5,1.0,0.0,0.0,,Slider,Slider,4.0,object-56,temp_dist_trial,6.0,t_s_24_1,travel_shared,ear plugs,8.0,competing,paired,t_s_24_1.jpg,Travel,$${counterbalance_group},,sub-81
Desktop or Laptop,Windows 10,Chrome 138.0.0.0,1536x864,1536x864,Temporal Distance Task,cb_08,6.0,temp_dist_trial,dist_items,qkpkxw,2.0,continue,,2920.0,2914.6000000000067,2920.0,2920.0,2914.6000000000067,2920.0,1.0,0.0,0.0,,Click To Continue,Next button,7.0,object-60,temp_dist_trial,6.0,t_s_24_1,travel_shared,ear plugs,8.0,competing,paired,t_s_24_1.jpg,Travel,$${counterbalance_group},,sub-81
Desktop or Laptop,Windows 10,Chrome 138.0.0.0,1536x864,1536x864,Temporal Distance Task,cb_08,6.0,temp_dist_trial,dist_items,qkpkxw,2.0,response,69,2314.6000000000063,2914.6000000000067,2929.400000572205,2314.6000000000063,2914.6000000000067,2929.400000572205,1.0,614.8000005721988,0.0,,Slider,Slider,4.0,object-56,temp_dist_trial,6.0,t_s_24_1,travel_shared,ear plugs,8.0,competing,paired,t_s_24_1.jpg,Travel,$${counterbalance_group},,sub-81
Desktop or Laptop,Windows 10,Chrome 138.0.0.0,1536x864,1536x864,Temporal Distance Task,cb_08,7.0,temp_dist_trial,num_items,zn7si1,1.0,response,2_ITEM,1365.8000000000031,1349.0,1365.8000000000031,1365.8000000000031,1349.0,1365.8000000000031,1.0,0.0,0.0,,Click Response,2_count,5.0,object-49,temp_dist_trial,7.0,t_i_12_1,travel_Iceland,tent,8.0,unique,paired,t_i_12_1.jpg,Travel,$${counterbalance_group},,sub-81
Desktop or Laptop,Windows 10,Chrome 138.0.0.0,1536x864,1536x864,Temporal Distance Task,cb_08,7.0,temp_dist_trial,dist_items,qkpkxw,2.0,info,,16.399999809262226,0.0,16.399999809262226,16.399999809262226,0.0,16.399999809262226,1.0,0.0,0.0,,Slider,Slider,4.0,object-56,temp_dist_trial,7.0,t_i_12_1,travel_Iceland,tent,8.0,unique,paired,t_i_12_1.jpg,Travel,$${counterbalance_group},,sub-81
Desktop or Laptop,Windows 10,Chrome 138.0.0.0,1536x864,1536x864,Temporal Distance Task,cb_08,7.0,temp_dist_trial,dist_items,qkpkxw,2.0,continue,,2831.3999999999933,2814.699999999997,2831.3999999999933,2831.3999999999933,2814.699999999997,2831.3999999999933,1.0,0.0,0.0,,Click To Continue,Next button,7.0,object-60,temp_dist_trial,7.0,t_i_12_1,travel_Iceland,tent,8.0,unique,paired,t_i_12_1.jpg,Travel,$${counterbalance_group},,sub-81
Desktop or Laptop,Windows 10,Chrome 138.0.0.0,1536x864,1536x864,Temporal Distance Task,cb_08,7.0,temp_dist_trial,dist_items,qkpkxw,2.0,response,71,2315.0,2814.699999999997,2831.3999999999933,2315.0,2814.699999999997,2831.3999999999933,1.0,516.3999999999942,0.0,,Slider,Slider,4.0,object-56,temp_dist_trial,7.0,t_i_12_1,travel_Iceland,tent,8.0,unique,paired,t_i_12_1.jpg,Travel,$${counterbalance_group},,sub-81
Desktop or Laptop,Windows 10,Chrome 138.0.0.0,1536x864,1536x864,Temporal Distance Task,cb_08,8.0,temp_dist_trial,num_items,zn7si1,1.0,response,2_ITEM,2542.199999809265,2531.199999999997,2542.199999809265,2542.199999809265,2531.199999999997,2542.199999809265,1.0,0.0,0.0,,Click Response,2_count,5.0,object-49,temp_dist_trial,8.0,t_s_10_1,travel_shared,luggage lock,8.0,competing,paired,t_s_10_1.jpg,Travel,$${counterbalance_group},,sub-81
Desktop or Laptop,Windows 10,Chrome 138.0.0.0,1536x864,1536x864,Temporal Distance Task,cb_08,8.0,temp_dist_trial,dist_items,qkpkxw,2.0,info,,16.80000000000291,0.0,16.80000000000291,16.80000000000291,0.0,16.80000000000291,1.0,0.0,0.0,,Slider,Slider,4.0,object-56,temp_dist_trial,8.0,t_s_10_1,travel_shared,luggage lock,8.0,competing,paired,t_s_10_1.jpg,Travel,$${counterbalance_group},,sub-81
Desktop or Laptop,Windows 10,Chrome 138.0.0.0,1536x864,1536x864,Temporal Distance Task,cb_08,8.0,temp_dist_trial,dist_items,qkpkxw,2.0,continue,,1965.5999998092595,1964.5999999999915,1965.5999998092595,1965.5999998092595,1964.5999999999915,1965.5999998092595,1.0,0.0,0.0,,Click To Continue,Next button,7.0,object-60,temp_dist_trial,8.0,t_s_10_1,travel_shared,luggage lock,8.0,competing,paired,t_s_10_1.jpg,Travel,$${counterbalance_group},,sub-81
Desktop or Laptop,Windows 10,Chrome 138.0.0.0,1536x864,1536x864,Temporal Distance Task,cb_08,8.0,temp_dist_trial,dist_items,qkpkxw,2.0,response,70,1298.5,1964.5999999999915,1966.3000005721988,1298.5,1964.5999999999915,1966.3000005721988,1.0,667.8000005721988,0.0,,Slider,Slider,4.0,object-56,temp_dist_trial,8.0,t_s_10_1,travel_shared,luggage lock,8.0,competing,paired,t_s_10_1.jpg,Travel,$${counterbalance_group},,sub-81
Desktop or Laptop,Windows 10,Chrome 138.0.0.0,1536x864,1536x864,Temporal Distance Task,cb_08,9.0,temp_dist_trial,num_items,zn7si1,1.0,response,1_ITEM,1827.4000003814729,1815.400000000009,1827.4000003814729,1827.4000003814729,1815.400000000009,1827.4000003814729,1.0,0.0,0.0,,Click Response,1_count,3.0,object-46,temp_dist_trial,9.0,t_m_20_1,travel_Miami,inflatable beachball,8.0,unique,single,t_m_20_1.jpg,Travel,$${counterbalance_group},,sub-81
Desktop or Laptop,Windows 10,Chrome 138.0.0.0,1536x864,1536x864,Temporal Distance Task,cb_08,10.0,temp_dist_trial,num_items,zn7si1,1.0,response,1_ITEM,2807.900000190741,2797.900000000009,2807.900000190741,2807.900000190741,2797.900000000009,2807.900000190741,1.0,0.0,0.0,,Click Response,1_count,3.0,object-46,temp_dist_trial,10.0,t_i_03_1,travel_Iceland,winter jacket,8.0,unique,single,t_i_03_1.jpg,Travel,$${counterbalance_group},,sub-81
Desktop or Laptop,Windows 10,Chrome 138.0.0.0,1536x864,1536x864,Temporal Distance Task,cb_08,11.0,temp_dist_trial,num_items,zn7si1,1.0,response,2_ITEM,1102.099999809259,1098.7999999999884,1102.099999809259,1102.099999809259,1098.7999999999884,1102.099999809259,1.0,0.0,0.0,,Click Response,2_count,5.0,object-49,temp_dist_trial,11.0,t_s_22_1,travel_shared,belt,8.0,competing,paired,t_s_22_1.jpg,Travel,$${counterbalance_group},,sub-81
Desktop or Laptop,Windows 10,Chrome 138.0.0.0,1536x864,1536x864,Temporal Distance Task,cb_08,11.0,temp_dist_trial,dist_items,qkpkxw,2.0,info,,16.799999999988362,0.0,16.799999999988362,16.799999999988362,0.0,16.799999999988362,1.0,0.0,0.0,,Slider,Slider,4.0,object-56,temp_dist_trial,11.0,t_s_22_1,travel_shared,belt,8.0,competing,paired,t_s_22_1.jpg,Travel,$${counterbalance_group},,sub-81
Desktop or Laptop,Windows 10,Chrome 138.0.0.0,1536x864,1536x864,Temporal Distance Task,cb_08,11.0,temp_dist_trial,dist_items,qkpkxw,2.0,continue,,2130.9000001907407,2114.9000000000087,2130.9000001907407,2130.9000001907407,2114.9000000000087,2130.9000001907407,1.0,0.0,0.0,,Click To Continue,Next button,7.0,object-60,temp_dist_trial,11.0,t_s_22_1,travel_shared,belt,8.0,competing,paired,t_s_22_1.jpg,Travel,$${counterbalance_group},,sub-81
Desktop or Laptop,Windows 10,Chrome 138.0.0.0,1536x864,1536x864,Temporal Distance Task,cb_08,11.0,temp_dist_trial,dist_items,qkpkxw,2.0,response,59,1498.5,2114.9000000000087,2131.4000001907407,1498.5,2114.9000000000087,2131.4000001907407,1.0,632.9000001907407,0.0,,Slider,Slider,4.0,object-56,temp_dist_trial,11.0,t_s_22_1,travel_shared,belt,8.0,competing,paired,t_s_22_1.jpg,Travel,$${counterbalance_group},,sub-81
Desktop or Laptop,Windows 10,Chrome 138.0.0.0,1536x864,1536x864,Temporal Distance Task,cb_08,12.0,temp_dist_trial,num_items,zn7si1,1.0,response,2_ITEM,1131.1000005722015,1115.8999999999942,1131.1000005722015,1131.1000005722015,1115.8999999999942,1131.1000005722015,1.0,0.0,0.0,,Click Response,2_count,5.0,object-49,temp_dist_trial,12.0,t_s_05_1,travel_shared,neck pillow,8.0,competing,paired,t_s_05_1.jpg,Travel,$${counterbalance_group},,sub-81
Desktop or Laptop,Windows 10,Chrome 138.0.0.0,1536x864,1536x864,Temporal Distance Task,cb_08,12.0,temp_dist_trial,dist_items,qkpkxw,2.0,info,,14.90000057220459,0.0,14.90000057220459,14.90000057220459,0.0,14.90000057220459,1.0,0.0,0.0,,Slider,Slider,4.0,object-56,temp_dist_trial,12.0,t_s_05_1,travel_shared,neck pillow,8.0,competing,paired,t_s_05_1.jpg,Travel,$${counterbalance_group},,sub-81
Desktop or Laptop,Windows 10,Chrome 138.0.0.0,1536x864,1536x864,Temporal Distance Task,cb_08,12.0,temp_dist_trial,dist_items,qkpkxw,2.0,continue,,1296.6000003814695,1282.5,1296.6000003814695,1296.6000003814695,1282.5,1296.6000003814695,1.0,0.0,0.0,,Click To Continue,Next button,7.0,object-60,temp_dist_trial,12.0,t_s_05_1,travel_shared,neck pillow,8.0,competing,paired,t_s_05_1.jpg,Travel,$${counterbalance_group},,sub-81
Desktop or Laptop,Windows 10,Chrome 138.0.0.0,1536x864,1536x864,Temporal Distance Task,cb_08,12.0,temp_dist_trial,dist_items,qkpkxw,2.0,response,64,765.6000000000058,1282.5,1297.3000001907346,765.6000000000058,1282.5,1297.3000001907346,1.0,531.700000190729,0.0,,Slider,Slider,4.0,object-56,temp_dist_trial,12.0,t_s_05_1,travel_shared,neck pillow,8.0,competing,paired,t_s_05_1.jpg,Travel,$${counterbalance_group},,sub-81
Desktop or Laptop,Windows 10,Chrome 138.0.0.0,1536x864,1536x864,Temporal Distance Task,cb_08,13.0,temp_dist_trial,num_items,zn7si1,1.0,response,2_ITEM,1155.8000001907346,1148.8000000000031,1155.8000001907346,1155.8000001907346,1148.8000000000031,1155.8000001907346,1.0,0.0,0.0,,Click Response,2_count,5.0,object-49,temp_dist_trial,13.0,t_s_19_1,travel_shared,pajamas,8.0,competing,paired,t_s_19_1.jpg,Travel,$${counterbalance_group},,sub-81
Desktop or Laptop,Windows 10,Chrome 138.0.0.0,1536x864,1536x864,Temporal Distance Task,cb_08,13.0,temp_dist_trial,dist_items,qkpkxw,2.0,info,,15.69999999999709,0.0,15.69999999999709,15.69999999999709,0.0,15.69999999999709,1.0,0.0,0.0,,Slider,Slider,4.0,object-56,temp_dist_trial,13.0,t_s_19_1,travel_shared,pajamas,8.0,competing,paired,t_s_19_1.jpg,Travel,$${counterbalance_group},,sub-81
Desktop or Laptop,Windows 10,Chrome 138.0.0.0,1536x864,1536x864,Temporal Distance Task,cb_08,13.0,temp_dist_trial,dist_items,qkpkxw,2.0,continue,,2936.1000005722017,2931.300000000003,2936.1000005722017,2936.1000005722017,2931.300000000003,2936.1000005722017,1.0,0.0,0.0,,Click To Continue,Next button,7.0,object-60,temp_dist_trial,13.0,t_s_19_1,travel_shared,pajamas,8.0,competing,paired,t_s_19_1.jpg,Travel,$${counterbalance_group},,sub-81
Desktop or Laptop,Windows 10,Chrome 138.0.0.0,1536x864,1536x864,Temporal Distance Task,cb_08,13.0,temp_dist_trial,dist_items,qkpkxw,2.0,response,70,2281.5999999999913,2931.300000000003,2936.500000190732,2281.5999999999913,2931.300000000003,2936.500000190732,1.0,654.9000001907407,0.0,,Slider,Slider,4.0,object-56,temp_dist_trial,13.0,t_s_19_1,travel_shared,pajamas,8.0,competing,paired,t_s_19_1.jpg,Travel,$${counterbalance_group},,sub-81
Desktop or Laptop,Windows 10,Chrome 138.0.0.0,1536x864,1536x864,Temporal Distance Task,cb_08,14.0,temp_dist_trial,num_items,zn7si1,1.0,response,2_ITEM,1346.500000381464,1332.5,1346.500000381464,1346.500000381464,1332.5,1346.500000381464,1.0,0.0,0.0,,Click Response,2_count,5.0,object-49,temp_dist_trial,14.0,t_m_09_1,travel_Miami,beach towel,8.0,unique,paired,t_m_09_1.jpg,Travel,$${counterbalance_group},,sub-81
Desktop or Laptop,Windows 10,Chrome 138.0.0.0,1536x864,1536x864,Temporal Distance Task,cb_08,14.0,temp_dist_trial,dist_items,qkpkxw,2.0,info,,16.89999999999418,0.0,16.89999999999418,16.89999999999418,0.0,16.89999999999418,1.0,0.0,0.0,,Slider,Slider,4.0,object-56,temp_dist_trial,14.0,t_m_09_1,travel_Miami,beach towel,8.0,unique,paired,t_m_09_1.jpg,Travel,$${counterbalance_group},,sub-81
Desktop or Laptop,Windows 10,Chrome 138.0.0.0,1536x864,1536x864,Temporal Distance Task,cb_08,14.0,temp_dist_trial,dist_items,qkpkxw,2.0,continue,,1564.7999999999884,1548.1999999999966,1564.7999999999884,1564.7999999999884,1548.1999999999966,1564.7999999999884,1.0,0.0,0.0,,Click To Continue,Next button,7.0,object-60,temp_dist_trial,14.0,t_m_09_1,travel_Miami,beach towel,8.0,unique,paired,t_m_09_1.jpg,Travel,$${counterbalance_group},,sub-81
Desktop or Laptop,Windows 10,Chrome 138.0.0.0,1536x864,1536x864,Temporal Distance Task,cb_08,14.0,temp_dist_trial,dist_items,qkpkxw,2.0,response,62,865.9000000000087,1548.1999999999966,1564.7999999999884,865.9000000000087,1548.1999999999966,1564.7999999999884,1.0,698.8999999999795,0.0,,Slider,Slider,4.0,object-56,temp_dist_trial,14.0,t_m_09_1,travel_Miami,beach towel,8.0,unique,paired,t_m_09_1.jpg,Travel,$${counterbalance_group},,sub-81
Desktop or Laptop,Windows 10,Chrome 138.0.0.0,1536x864,1536x864,Temporal Distance Task,cb_08,15.0,temp_dist_trial,num_items,zn7si1,1.0,response,1_ITEM,1356.7000003814755,1349.2000000000114,1356.7000003814755,1356.7000003814755,1349.2000000000114,1356.7000003814755,1.0,0.0,0.0,,Click Response,1_count,3.0,object-46,temp_dist_trial,15.0,t_s_21_1,travel_shared,umbrella,8.0,competing,single,t_s_21_1.jpg,Travel,$${counterbalance_group},,sub-81
Desktop or Laptop,Windows 10,Chrome 138.0.0.0,1536x864,1536x864,Temporal Distance Task,cb_08,16.0,temp_dist_trial,num_items,zn7si1,1.0,response,1_ITEM,1964.8000001907349,1948.2999999999884,1964.8000001907349,1964.8000001907349,1948.2999999999884,1964.8000001907349,1.0,0.0,0.0,,Click Response,1_count,3.0,object-46,temp_dist_trial,16.0,t_m_14_1,travel_Miami,swim goggles,8.0,unique,single,t_m_14_1.jpg,Travel,$${counterbalance_group},,sub-81
Desktop or Laptop,Windows 10,Chrome 138.0.0.0,1536x864,1536x864,Temporal Distance Task,cb_08,17.0,temp_dist_trial,num_items,zn7si1,1.0,response,2_ITEM,1127.6000001907232,1115.3999999999942,1127.6000001907232,1127.6000001907232,1115.3999999999942,1127.6000001907232,1.0,0.0,0.0,,Click Response,2_count,5.0,object-49,temp_dist_trial,17.0,t_m_05_1,travel_Miami,sunscreen,8.0,unique,paired,t_m_05_1.jpg,Travel,$${counterbalance_group},,sub-81
Desktop or Laptop,Windows 10,Chrome 138.0.0.0,1536x864,1536x864,Temporal Distance Task,cb_08,17.0,temp_dist_trial,dist_items,qkpkxw,2.0,info,,16.5,0.0,16.5,16.5,0.0,16.5,1.0,0.0,0.0,,Slider,Slider,4.0,object-56,temp_dist_trial,17.0,t_m_05_1,travel_Miami,sunscreen,8.0,unique,paired,t_m_05_1.jpg,Travel,$${counterbalance_group},,sub-81
Desktop or Laptop,Windows 10,Chrome 138.0.0.0,1536x864,1536x864,Temporal Distance Task,cb_08,17.0,temp_dist_trial,dist_items,qkpkxw,2.0,continue,,2038.6999998092651,2031.8999999999944,2038.6999998092651,2038.6999998092651,2031.8999999999944,2038.6999998092651,1.0,0.0,0.0,,Click To Continue,Next button,7.0,object-60,temp_dist_trial,17.0,t_m_05_1,travel_Miami,sunscreen,8.0,unique,paired,t_m_05_1.jpg,Travel,$${counterbalance_group},,sub-81
Desktop or Laptop,Windows 10,Chrome 138.0.0.0,1536x864,1536x864,Temporal Distance Task,cb_08,17.0,temp_dist_trial,dist_items,qkpkxw,2.0,response,65,1398.8999999999942,2031.8999999999944,2039.100000381469,1398.8999999999942,2031.8999999999944,2039.100000381469,1.0,640.2000003814755,0.0,,Slider,Slider,4.0,object-56,temp_dist_trial,17.0,t_m_05_1,travel_Miami,sunscreen,8.0,unique,paired,t_m_05_1.jpg,Travel,$${counterbalance_group},,sub-81
Desktop or Laptop,Windows 10,Chrome 138.0.0.0,1536x864,1536x864,Temporal Distance Task,cb_08,18.0,temp_dist_trial,num_items,zn7si1,1.0,response,1_ITEM,1821.0000005722104,1815.1000000000056,1821.0000005722104,1821.0000005722104,1815.1000000000056,1821.0000005722104,1.0,0.0,0.0,,Click Response,1_count,3.0,object-46,temp_dist_trial,18.0,t_i_07_1,travel_Iceland,hiking backpack,8.0,unique,single,t_i_07_1.jpg,Travel,$${counterbalance_group},,sub-81
Desktop or Laptop,Windows 10,Chrome 138.0.0.0,1536x864,1536x864,Temporal Distance Task,cb_08,19.0,temp_dist_trial,num_items,zn7si1,1.0,response,2_ITEM,974.700000572193,965.8999999999942,974.700000572193,974.700000572193,965.8999999999942,974.700000572193,1.0,0.0,0.0,,Click Response,2_count,5.0,object-49,temp_dist_trial,19.0,t_m_13_1,travel_Miami,floatie,8.0,unique,paired,t_m_13_1.jpg,Travel,$${counterbalance_group},,sub-81
Desktop or Laptop,Windows 10,Chrome 138.0.0.0,1536x864,1536x864,Temporal Distance Task,cb_08,19.0,temp_dist_trial,dist_items,qkpkxw,2.0,info,,15.299999809270954,0.0,15.299999809270954,15.299999809270954,0.0,15.299999809270954,1.0,0.0,0.0,,Slider,Slider,4.0,object-56,temp_dist_trial,19.0,t_m_13_1,travel_Miami,floatie,8.0,unique,paired,t_m_13_1.jpg,Travel,$${counterbalance_group},,sub-81
Desktop or Laptop,Windows 10,Chrome 138.0.0.0,1536x864,1536x864,Temporal Distance Task,cb_08,19.0,temp_dist_trial,dist_items,qkpkxw,2.0,continue,,1597.799999809271,1582.2000000000116,1597.799999809271,1597.799999809271,1582.2000000000116,1597.799999809271,1.0,0.0,0.0,,Click To Continue,Next button,7.0,object-60,temp_dist_trial,19.0,t_m_13_1,travel_Miami,floatie,8.0,unique,paired,t_m_13_1.jpg,Travel,$${counterbalance_group},,sub-81
Desktop or Laptop,Windows 10,Chrome 138.0.0.0,1536x864,1536x864,Temporal Distance Task,cb_08,19.0,temp_dist_trial,dist_items,qkpkxw,2.0,response,73,832.7000000000116,1582.2000000000116,1598.5000005722104,832.7000000000116,1582.2000000000116,1598.5000005722104,1.0,765.8000005721988,0.0,,Slider,Slider,4.0,object-56,temp_dist_trial,19.0,t_m_13_1,travel_Miami,floatie,8.0,unique,paired,t_m_13_1.jpg,Travel,$${counterbalance_group},,sub-81
Desktop or Laptop,Windows 10,Chrome 138.0.0.0,1536x864,1536x864,Temporal Distance Task,cb_08,20.0,temp_dist_trial,num_items,zn7si1,1.0,response,1_ITEM,2271.500000381464,2264.7999999999884,2271.500000381464,2271.500000381464,2264.7999999999884,2271.500000381464,1.0,0.0,0.0,,Click Response,1_count,3.0,object-46,temp_dist_trial,20.0,t_s_14_1,travel_shared,hand sanitizer,8.0,competing,single,t_s_14_1.jpg,Travel,$${counterbalance_group},,sub-81
Desktop or Laptop,Windows 10,Chrome 138.0.0.0,1536x864,1536x864,Temporal Distance Task,cb_08,21.0,temp_dist_trial,num_items,zn7si1,1.0,response,1_ITEM,1324.1000005722162,1315.7000000000114,1324.1000005722162,1324.1000005722162,1315.7000000000114,1324.1000005722162,1.0,0.0,0.0,,Click Response,1_count,3.0,object-46,temp_dist_trial,21.0,t_s_12_1,travel_shared,clear toiletry bag,8.0,competing,single,t_s_12_1.jpg,Travel,$${counterbalance_group},,sub-81
Desktop or Laptop,Windows 10,Chrome 138.0.0.0,1536x864,1536x864,Temporal Distance Task,cb_08,22.0,temp_dist_trial,num_items,zn7si1,1.0,response,2_ITEM,1054.1999998092654,1049.2000000000116,1054.1999998092654,1054.1999998092654,1049.2000000000116,1054.1999998092654,1.0,0.0,0.0,,Click Response,2_count,5.0,object-49,temp_dist_trial,22.0,t_s_01_1,travel_shared,fanny pack,8.0,competing,paired,t_s_01_1.jpg,Travel,$${counterbalance_group},,sub-81
Desktop or Laptop,Windows 10,Chrome 138.0.0.0,1536x864,1536x864,Temporal Distance Task,cb_08,22.0,temp_dist_trial,dist_items,qkpkxw,2.0,info,,16.300000000017462,0.0,16.300000000017462,16.300000000017462,0.0,16.300000000017462,1.0,0.0,0.0,,Slider,Slider,4.0,object-56,temp_dist_trial,22.0,t_s_01_1,travel_shared,fanny pack,8.0,competing,paired,t_s_01_1.jpg,Travel,$${counterbalance_group},,sub-81
Desktop or Laptop,Windows 10,Chrome 138.0.0.0,1536x864,1536x864,Temporal Distance Task,cb_08,22.0,temp_dist_trial,dist_items,qkpkxw,2.0,continue,,2601.499999809253,2597.599999999977,2601.499999809253,2601.499999809253,2597.599999999977,2601.499999809253,1.0,0.0,0.0,,Click To Continue,Next button,7.0,object-60,temp_dist_trial,22.0,t_s_01_1,travel_shared,fanny pack,8.0,competing,paired,t_s_01_1.jpg,Travel,$${counterbalance_group},,sub-81
Desktop or Laptop,Windows 10,Chrome 138.0.0.0,1536x864,1536x864,Temporal Distance Task,cb_08,22.0,temp_dist_trial,dist_items,qkpkxw,2.0,response,43,1965.0999999999767,2597.599999999977,2601.900000381458,1965.0999999999767,2597.599999999977,2601.900000381458,1.0,636.8000003814814,0.0,,Slider,Slider,4.0,object-56,temp_dist_trial,22.0,t_s_01_1,travel_shared,fanny pack,8.0,competing,paired,t_s_01_1.jpg,Travel,$${counterbalance_group},,sub-81
Desktop or Laptop,Windows 10,Chrome 138.0.0.0,1536x864,1536x864,Temporal Distance Task,cb_08,23.0,temp_dist_trial,num_items,zn7si1,1.0,response,1_ITEM,1475.8000003814816,1465.5,1475.8000003814816,1475.8000003814816,1465.5,1475.8000003814816,1.0,0.0,0.0,,Click Response,1_count,3.0,object-46,temp_dist_trial,23.0,t_s_02_1,travel_shared,water bottle,8.0,competing,single,t_s_02_1.jpg,Travel,$${counterbalance_group},,sub-81
Desktop or Laptop,Windows 10,Chrome 138.0.0.0,1536x864,1536x864,Temporal Distance Task,cb_08,24.0,temp_dist_trial,num_items,zn7si1,1.0,response,2_ITEM,1931.500000381464,1915.0,1931.500000381464,1931.500000381464,1915.0,1931.500000381464,1.0,0.0,0.0,,Click Response,2_count,5.0,object-49,temp_dist_trial,24.0,t_m_06_1,travel_Miami,handheld fan,8.0,unique,paired,t_m_06_1.jpg,Travel,$${counterbalance_group},,sub-81
Desktop or Laptop,Windows 10,Chrome 138.0.0.0,1536x864,1536x864,Temporal Distance Task,cb_08,24.0,temp_dist_trial,dist_items,qkpkxw,2.0,info,,16.700000000011638,0.0,16.700000000011638,16.700000000011638,0.0,16.700000000011638,1.0,0.0,0.0,,Slider,Slider,4.0,object-56,temp_dist_trial,24.0,t_m_06_1,travel_Miami,handheld fan,8.0,unique,paired,t_m_06_1.jpg,Travel,$${counterbalance_group},,sub-81
Desktop or Laptop,Windows 10,Chrome 138.0.0.0,1536x864,1536x864,Temporal Distance Task,cb_08,24.0,temp_dist_trial,dist_items,qkpkxw,2.0,continue,,1412.1999998092651,1398.5,1412.1999998092651,1412.1999998092651,1398.5,1412.1999998092651,1.0,0.0,0.0,,Click To Continue,Next button,7.0,object-60,temp_dist_trial,24.0,t_m_06_1,travel_Miami,handheld fan,8.0,unique,paired,t_m_06_1.jpg,Travel,$${counterbalance_group},,sub-81
Desktop or Laptop,Windows 10,Chrome 138.0.0.0,1536x864,1536x864,Temporal Distance Task,cb_08,24.0,temp_dist_trial,dist_items,qkpkxw,2.0,response,57,782.2999999999884,1398.5,1412.9000005722046,782.2999999999884,1398.5,1412.9000005722046,1.0,630.6000005722162,0.0,,Slider,Slider,4.0,object-56,temp_dist_trial,24.0,t_m_06_1,travel_Miami,handheld fan,8.0,unique,paired,t_m_06_1.jpg,Travel,$${counterbalance_group},,sub-81
Desktop or Laptop,Windows 10,Chrome 138.0.0.0,1536x864,1536x864,Temporal Distance Task,cb_08,25.0,temp_dist_trial,num_items,zn7si1,1.0,response,1_ITEM,2212.400000572205,2198.5,2212.400000572205,2212.400000572205,2198.5,2212.400000572205,1.0,0.0,0.0,,Click Response,1_count,3.0,object-46,temp_dist_trial,25.0,t_i_16_1,travel_Iceland,skis,8.0,unique,paired,t_i_16_1.jpg,Travel,$${counterbalance_group},,sub-81
Desktop or Laptop,Windows 10,Chrome 138.0.0.0,1536x864,1536x864,Temporal Distance Task,cb_08,26.0,temp_dist_trial,num_items,zn7si1,1.0,response,2_ITEM,1221.2999999999886,1215.5,1221.2999999999886,1221.2999999999886,1215.5,1221.2999999999886,1.0,0.0,0.0,,Click Response,2_count,5.0,object-49,temp_dist_trial,26.0,t_i_01_1,travel_Iceland,gloves,8.0,unique,paired,t_i_01_1.jpg,Travel,$${counterbalance_group},,sub-81
Desktop or Laptop,Windows 10,Chrome 138.0.0.0,1536x864,1536x864,Temporal Distance Task,cb_08,26.0,temp_dist_trial,dist_items,qkpkxw,2.0,info,,14.899999809276776,0.0,14.899999809276776,14.899999809276776,0.0,14.899999809276776,1.0,0.0,0.0,,Slider,Slider,4.0,object-56,temp_dist_trial,26.0,t_i_01_1,travel_Iceland,gloves,8.0,unique,paired,t_i_01_1.jpg,Travel,$${counterbalance_group},,sub-81
Desktop or Laptop,Windows 10,Chrome 138.0.0.0,1536x864,1536x864,Temporal Distance Task,cb_08,26.0,temp_dist_trial,dist_items,qkpkxw,2.0,continue,,2467.0000001907465,2464.1000000000063,2467.0000001907465,2467.0000001907465,2464.1000000000063,2467.0000001907465,1.0,0.0,0.0,,Click To Continue,Next button,7.0,object-60,temp_dist_trial,26.0,t_i_01_1,travel_Iceland,gloves,8.0,unique,paired,t_i_01_1.jpg,Travel,$${counterbalance_group},,sub-81
Desktop or Laptop,Windows 10,Chrome 138.0.0.0,1536x864,1536x864,Temporal Distance Task,cb_08,26.0,temp_dist_trial,dist_items,qkpkxw,2.0,response,59,1814.7000000000119,2464.1000000000063,2467.3999998092772,1814.7000000000119,2464.1000000000063,2467.3999998092772,1.0,652.6999998092651,0.0,,Slider,Slider,4.0,object-56,temp_dist_trial,26.0,t_i_01_1,travel_Iceland,gloves,8.0,unique,paired,t_i_01_1.jpg,Travel,$${counterbalance_group},,sub-81
Desktop or Laptop,Windows 10,Chrome 138.0.0.0,1536x864,1536x864,Temporal Distance Task,cb_08,27.0,temp_dist_trial,num_items,zn7si1,1.0,response,1_ITEM,1581.8999999999942,1565.6000000000058,1581.8999999999942,1581.8999999999942,1565.6000000000058,1581.8999999999942,1.0,0.0,0.0,,Click Response,1_count,3.0,object-46,temp_dist_trial,27.0,t_m_10_1,travel_Miami,tanktop,8.0,unique,single,t_m_10_1.jpg,Travel,$${counterbalance_group},,sub-81
Desktop or Laptop,Windows 10,Chrome 138.0.0.0,1536x864,1536x864,Temporal Distance Task,cb_08,28.0,temp_dist_trial,num_items,zn7si1,1.0,response,2_ITEM,1374.500000381464,1365.1999999999825,1374.500000381464,1374.500000381464,1365.1999999999825,1374.500000381464,1.0,0.0,0.0,,Click Response,2_count,5.0,object-49,temp_dist_trial,28.0,t_s_15_1,travel_shared,luggage tag,8.0,competing,paired,t_s_15_1.jpg,Travel,$${counterbalance_group},,sub-81
Desktop or Laptop,Windows 10,Chrome 138.0.0.0,1536x864,1536x864,Temporal Distance Task,cb_08,28.0,temp_dist_trial,dist_items,qkpkxw,2.0,info,,15.100000381469727,0.0,15.100000381469727,15.100000381469727,0.0,15.100000381469727,1.0,0.0,0.0,,Slider,Slider,4.0,object-56,temp_dist_trial,28.0,t_s_15_1,travel_shared,luggage tag,8.0,competing,paired,t_s_15_1.jpg,Travel,$${counterbalance_group},,sub-81
Desktop or Laptop,Windows 10,Chrome 138.0.0.0,1536x864,1536x864,Temporal Distance Task,cb_08,28.0,temp_dist_trial,dist_items,qkpkxw,2.0,continue,,2448.5,2447.5,2448.5,2448.5,2447.5,2448.5,1.0,0.0,0.0,,Click To Continue,Next button,7.0,object-60,temp_dist_trial,28.0,t_s_15_1,travel_shared,luggage tag,8.0,competing,paired,t_s_15_1.jpg,Travel,$${counterbalance_group},,sub-81
Desktop or Laptop,Windows 10,Chrome 138.0.0.0,1536x864,1536x864,Temporal Distance Task,cb_08,28.0,temp_dist_trial,dist_items,qkpkxw,2.0,response,54,865.3999999999942,2447.5,2454.699999809265,865.3999999999942,2447.5,2454.699999809265,1.0,1589.299999809271,0.0,,Slider,Slider,4.0,object-56,temp_dist_trial,28.0,t_s_15_1,travel_shared,luggage tag,8.0,competing,paired,t_s_15_1.jpg,Travel,$${counterbalance_group},,sub-81
Desktop or Laptop,Windows 10,Chrome 138.0.0.0,1536x864,1536x864,Temporal Distance Task,cb_08,29.0,temp_dist_trial,num_items,zn7si1,1.0,response,2_ITEM,1404.1999998092651,1399.1000000000058,1404.1999998092651,1404.1999998092651,1399.1000000000058,1404.1999998092651,1.0,0.0,0.0,,Click Response,2_count,5.0,object-49,temp_dist_trial,29.0,t_s_13_1,travel_shared,contact lens case,8.0,competing,paired,t_s_13_1.jpg,Travel,$${counterbalance_group},,sub-81
Desktop or Laptop,Windows 10,Chrome 138.0.0.0,1536x864,1536x864,Temporal Distance Task,cb_08,29.0,temp_dist_trial,dist_items,qkpkxw,2.0,info,,16.799999999988362,0.0,16.799999999988362,16.799999999988362,0.0,16.799999999988362,1.0,0.0,0.0,,Slider,Slider,4.0,object-56,temp_dist_trial,29.0,t_s_13_1,travel_shared,contact lens case,8.0,competing,paired,t_s_13_1.jpg,Travel,$${counterbalance_group},,sub-81
Desktop or Laptop,Windows 10,Chrome 138.0.0.0,1536x864,1536x864,Temporal Distance Task,cb_08,29.0,temp_dist_trial,dist_items,qkpkxw,2.0,continue,,1306.2000003814755,1299.1000000000058,1306.2000003814755,1306.2000003814755,1299.1000000000058,1306.2000003814755,1.0,0.0,0.0,,Click To Continue,Next button,7.0,object-60,temp_dist_trial,29.0,t_s_13_1,travel_shared,contact lens case,8.0,competing,paired,t_s_13_1.jpg,Travel,$${counterbalance_group},,sub-81
Desktop or Laptop,Windows 10,Chrome 138.0.0.0,1536x864,1536x864,Temporal Distance Task,cb_08,29.0,temp_dist_trial,dist_items,qkpkxw,2.0,response,44,715.8999999999942,1299.1000000000058,1306.5000005722106,715.8999999999942,1299.1000000000058,1306.5000005722106,1.0,590.6000005722162,0.0,,Slider,Slider,4.0,object-56,temp_dist_trial,29.0,t_s_13_1,travel_shared,contact lens case,8.0,competing,paired,t_s_13_1.jpg,Travel,$${counterbalance_group},,sub-81
Desktop or Laptop,Windows 10,Chrome 138.0.0.0,1536x864,1536x864,Temporal Distance Task,cb_08,30.0,temp_dist_trial,num_items,zn7si1,1.0,response,1_ITEM,1394.6000003814695,1382.2000000000116,1394.6000003814695,1394.6000003814695,1382.2000000000116,1394.6000003814695,1.0,0.0,0.0,,Click Response,1_count,3.0,object-46,temp_dist_trial,30.0,t_m_03_1,travel_Miami,wetsuit,8.0,unique,paired,t_m_03_1.jpg,Travel,$${counterbalance_group},,sub-81
Desktop or Laptop,Windows 10,Chrome 138.0.0.0,1536x864,1536x864,Temporal Distance Task,cb_08,31.0,temp_dist_trial,num_items,zn7si1,1.0,response,1_ITEM,1201.3000001907346,1198.5,1201.3000001907346,1201.3000001907346,1198.5,1201.3000001907346,1.0,0.0,0.0,,Click Response,1_count,3.0,object-46,temp_dist_trial,31.0,t_i_02_1,travel_Iceland,scarf,8.0,unique,single,t_i_02_1.jpg,Travel,$${counterbalance_group},,sub-81
Desktop or Laptop,Windows 10,Chrome 138.0.0.0,1536x864,1536x864,Temporal Distance Task,cb_08,32.0,temp_dist_trial,num_items,zn7si1,1.0,response,1_ITEM,1149.000000000029,1132.4000000000233,1149.000000000029,1149.000000000029,1132.4000000000233,1149.000000000029,1.0,0.0,0.0,,Click Response,1_count,3.0,object-46,temp_dist_trial,32.0,t_s_16_1,travel_shared,chapstick,8.0,competing,single,t_s_16_1.jpg,Travel,$${counterbalance_group},,sub-81
Desktop or Laptop,Windows 10,Chrome 138.0.0.0,1536x864,1536x864,Temporal Distance Task,cb_08,33.0,temp_dist_trial,num_items,zn7si1,1.0,response,1_ITEM,1196.1000003814695,1182.1000000000058,1196.1000003814695,1196.1000003814695,1182.1000000000058,1196.1000003814695,1.0,0.0,0.0,,Click Response,1_count,3.0,object-46,temp_dist_trial,33.0,t_i_17_1,travel_Iceland,binoculars,8.0,unique,single,t_i_17_1.jpg,Travel,$${counterbalance_group},,sub-81
Desktop or Laptop,Windows 10,Chrome 138.0.0.0,1536x864,1536x864,Temporal Distance Task,cb_08,34.0,temp_dist_trial,num_items,zn7si1,1.0,response,2_ITEM,1229.4000005722044,1215.2999999999886,1229.4000005722044,1229.4000005722044,1215.2999999999886,1229.4000005722044,1.0,0.0,0.0,,Click Response,2_count,5.0,object-49,temp_dist_trial,34.0,t_s_04_1,travel_shared,instant camera,8.0,competing,paired,t_s_04_1.jpg,Travel,$${counterbalance_group},,sub-81
Desktop or Laptop,Windows 10,Chrome 138.0.0.0,1536x864,1536x864,Temporal Distance Task,cb_08,34.0,temp_dist_trial,dist_items,qkpkxw,2.0,info,,14.899999999994181,0.0,14.899999999994181,14.899999999994181,0.0,14.899999999994181,1.0,0.0,0.0,,Slider,Slider,4.0,object-56,temp_dist_trial,34.0,t_s_04_1,travel_shared,instant camera,8.0,competing,paired,t_s_04_1.jpg,Travel,$${counterbalance_group},,sub-81
Desktop or Laptop,Windows 10,Chrome 138.0.0.0,1536x864,1536x864,Temporal Distance Task,cb_08,34.0,temp_dist_trial,dist_items,qkpkxw,2.0,continue,,1630.000000381464,1615.0,1630.000000381464,1630.000000381464,1615.0,1630.000000381464,1.0,0.0,0.0,,Click To Continue,Next button,7.0,object-60,temp_dist_trial,34.0,t_s_04_1,travel_shared,instant camera,8.0,competing,paired,t_s_04_1.jpg,Travel,$${counterbalance_group},,sub-81
Desktop or Laptop,Windows 10,Chrome 138.0.0.0,1536x864,1536x864,Temporal Distance Task,cb_08,34.0,temp_dist_trial,dist_items,qkpkxw,2.0,response,56,865.8999999999942,1615.0,1630.3000005721988,865.8999999999942,1615.0,1630.3000005721988,1.0,764.4000005722046,0.0,,Slider,Slider,4.0,object-56,temp_dist_trial,34.0,t_s_04_1,travel_shared,instant camera,8.0,competing,paired,t_s_04_1.jpg,Travel,$${counterbalance_group},,sub-81
Desktop or Laptop,Windows 10,Chrome 138.0.0.0,1536x864,1536x864,Temporal Distance Task,cb_08,35.0,temp_dist_trial,num_items,zn7si1,1.0,response,2_ITEM,2297.800000572199,2281.6999999999825,2297.800000572199,2297.800000572199,2281.6999999999825,2297.800000572199,1.0,0.0,0.0,,Click Response,2_count,5.0,object-49,temp_dist_trial,35.0,t_s_08_1,travel_shared,hand lotion,8.0,competing,paired,t_s_08_1.jpg,Travel,$${counterbalance_group},,sub-81
Desktop or Laptop,Windows 10,Chrome 138.0.0.0,1536x864,1536x864,Temporal Distance Task,cb_08,35.0,temp_dist_trial,dist_items,qkpkxw,2.0,info,,15.600000190723224,0.0,15.600000190723224,15.600000190723224,0.0,15.600000190723224,1.0,0.0,0.0,,Slider,Slider,4.0,object-56,temp_dist_trial,35.0,t_s_08_1,travel_shared,hand lotion,8.0,competing,paired,t_s_08_1.jpg,Travel,$${counterbalance_group},,sub-81
Desktop or Laptop,Windows 10,Chrome 138.0.0.0,1536x864,1536x864,Temporal Distance Task,cb_08,35.0,temp_dist_trial,dist_items,qkpkxw,2.0,continue,,2050.700000572193,2047.8999999999944,2050.700000572193,2050.700000572193,2047.8999999999944,2050.700000572193,1.0,0.0,0.0,,Click To Continue,Next button,7.0,object-60,temp_dist_trial,35.0,t_s_08_1,travel_shared,hand lotion,8.0,competing,paired,t_s_08_1.jpg,Travel,$${counterbalance_group},,sub-81
Desktop or Laptop,Windows 10,Chrome 138.0.0.0,1536x864,1536x864,Temporal Distance Task,cb_08,35.0,temp_dist_trial,dist_items,qkpkxw,2.0,response,46,682.5,2047.8999999999944,2051.200000572193,682.5,2047.8999999999944,2051.200000572193,1.0,1368.700000572193,0.0,,Slider,Slider,4.0,object-56,temp_dist_trial,35.0,t_s_08_1,travel_shared,hand lotion,8.0,competing,paired,t_s_08_1.jpg,Travel,$${counterbalance_group},,sub-81
Desktop or Laptop,Windows 10,Chrome 138.0.0.0,1536x864,1536x864,Temporal Distance Task,cb_08,36.0,temp_dist_trial,num_items,zn7si1,1.0,response,2_ITEM,1803.3999999999944,1798.3999999999942,1803.3999999999944,1803.3999999999944,1798.3999999999942,1803.3999999999944,1.0,0.0,0.0,,Click Response,2_count,5.0,object-49,temp_dist_trial,36.0,t_i_04_1,travel_Iceland,portable camping stove,8.0,unique,paired,t_i_04_1.jpg,Travel,$${counterbalance_group},,sub-81
Desktop or Laptop,Windows 10,Chrome 138.0.0.0,1536x864,1536x864,Temporal Distance Task,cb_08,36.0,temp_dist_trial,dist_items,qkpkxw,2.0,info,,13.899999809276776,0.0,13.899999809276776,13.899999809276776,0.0,13.899999809276776,1.0,0.0,0.0,,Slider,Slider,4.0,object-56,temp_dist_trial,36.0,t_i_04_1,travel_Iceland,portable camping stove,8.0,unique,paired,t_i_04_1.jpg,Travel,$${counterbalance_group},,sub-81
Desktop or Laptop,Windows 10,Chrome 138.0.0.0,1536x864,1536x864,Temporal Distance Task,cb_08,36.0,temp_dist_trial,dist_items,qkpkxw,2.0,continue,,1342.0000001907465,1332.1000000000058,1342.0000001907465,1342.0000001907465,1332.1000000000058,1342.0000001907465,1.0,0.0,0.0,,Click To Continue,Next button,7.0,object-60,temp_dist_trial,36.0,t_i_04_1,travel_Iceland,portable camping stove,8.0,unique,paired,t_i_04_1.jpg,Travel,$${counterbalance_group},,sub-81
Desktop or Laptop,Windows 10,Chrome 138.0.0.0,1536x864,1536x864,Temporal Distance Task,cb_08,36.0,temp_dist_trial,dist_items,qkpkxw,2.0,response,64,782.3000000000177,1332.1000000000058,1342.7000000000114,782.3000000000177,1332.1000000000058,1342.7000000000114,1.0,560.3999999999942,0.0,,Slider,Slider,4.0,object-56,temp_dist_trial,36.0,t_i_04_1,travel_Iceland,portable camping stove,8.0,unique,paired,t_i_04_1.jpg,Travel,$${counterbalance_group},,sub-81
Desktop or Laptop,Windows 10,Chrome 138.0.0.0,1536x864,1536x864,Temporal Distance Task,cb_08,37.0,temp_dist_trial,num_items,zn7si1,1.0,response,1_ITEM,1428.0000005722104,1415.5,1428.0000005722104,1428.0000005722104,1415.5,1428.0000005722104,1.0,0.0,0.0,,Click Response,1_count,3.0,object-46,temp_dist_trial,37.0,t_m_04_1,travel_Miami,UV jacket,8.0,unique,single,t_m_04_1.jpg,Travel,$${counterbalance_group},,sub-81
Desktop or Laptop,Windows 10,Chrome 138.0.0.0,1536x864,1536x864,Temporal Distance Task,cb_08,38.0,temp_dist_trial,num_items,zn7si1,1.0,response,1_ITEM,2178.1000000000063,2164.6000000000063,2178.1000000000063,2178.1000000000063,2164.6000000000063,2178.1000000000063,1.0,0.0,0.0,,Click Response,1_count,3.0,object-46,temp_dist_trial,38.0,t_i_14_1,travel_Iceland,snow pants,8.0,unique,paired,t_i_14_1.jpg,Travel,$${counterbalance_group},,sub-81
Desktop or Laptop,Windows 10,Chrome 138.0.0.0,1536x864,1536x864,Temporal Distance Task,cb_08,39.0,temp_dist_trial,num_items,zn7si1,1.0,response,2_ITEM,1089.1999998092654,1082.2999999999884,1089.1999998092654,1089.1999998092654,1082.2999999999884,1089.1999998092654,1.0,0.0,0.0,,Click Response,2_count,5.0,object-49,temp_dist_trial,39.0,t_i_06_1,travel_Iceland,knit hat,8.0,unique,paired,t_i_06_1.jpg,Travel,$${counterbalance_group},,sub-81
Desktop or Laptop,Windows 10,Chrome 138.0.0.0,1536x864,1536x864,Temporal Distance Task,cb_08,39.0,temp_dist_trial,dist_items,qkpkxw,2.0,info,,14.199999809265135,0.0,14.199999809265135,14.199999809265135,0.0,14.199999809265135,1.0,0.0,0.0,,Slider,Slider,4.0,object-56,temp_dist_trial,39.0,t_i_06_1,travel_Iceland,knit hat,8.0,unique,paired,t_i_06_1.jpg,Travel,$${counterbalance_group},,sub-81
Desktop or Laptop,Windows 10,Chrome 138.0.0.0,1536x864,1536x864,Temporal Distance Task,cb_08,39.0,temp_dist_trial,dist_items,qkpkxw,2.0,continue,,1791.4000005722046,1782.0,1791.4000005722046,1791.4000005722046,1782.0,1791.4000005722046,1.0,0.0,0.0,,Click To Continue,Next button,7.0,object-60,temp_dist_trial,39.0,t_i_06_1,travel_Iceland,knit hat,8.0,unique,paired,t_i_06_1.jpg,Travel,$${counterbalance_group},,sub-81
Desktop or Laptop,Windows 10,Chrome 138.0.0.0,1536x864,1536x864,Temporal Distance Task,cb_08,39.0,temp_dist_trial,dist_items,qkpkxw,2.0,response,65,1215.7999999999886,1782.0,1791.8000001907349,1215.7999999999886,1782.0,1791.8000001907349,1.0,576.0000001907465,0.0,,Slider,Slider,4.0,object-56,temp_dist_trial,39.0,t_i_06_1,travel_Iceland,knit hat,8.0,unique,paired,t_i_06_1.jpg,Travel,$${counterbalance_group},,sub-81
Desktop or Laptop,Windows 10,Chrome 138.0.0.0,1536x864,1536x864,Temporal Distance Task,cb_08,40.0,temp_dist_trial,num_items,zn7si1,1.0,response,2_ITEM,1294.5,1282.2000000000114,1294.5,1294.5,1282.2000000000114,1294.5,1.0,0.0,0.0,,Click Response,2_count,5.0,object-49,temp_dist_trial,40.0,t_s_07_1,travel_shared,phone charger cable,8.0,competing,paired,t_s_07_1.jpg,Travel,$${counterbalance_group},,sub-81
Desktop or Laptop,Windows 10,Chrome 138.0.0.0,1536x864,1536x864,Temporal Distance Task,cb_08,40.0,temp_dist_trial,dist_items,qkpkxw,2.0,info,,14.799999999988358,0.0,14.799999999988358,14.799999999988358,0.0,14.799999999988358,1.0,0.0,0.0,,Slider,Slider,4.0,object-56,temp_dist_trial,40.0,t_s_07_1,travel_shared,phone charger cable,8.0,competing,paired,t_s_07_1.jpg,Travel,$${counterbalance_group},,sub-81
Desktop or Laptop,Windows 10,Chrome 138.0.0.0,1536x864,1536x864,Temporal Distance Task,cb_08,40.0,temp_dist_trial,dist_items,qkpkxw,2.0,continue,,2321.6000001907228,2314.5,2321.6000001907228,2321.6000001907228,2314.5,2321.6000001907228,1.0,0.0,0.0,,Click To Continue,Next button,7.0,object-60,temp_dist_trial,40.0,t_s_07_1,travel_shared,phone charger cable,8.0,competing,paired,t_s_07_1.jpg,Travel,$${counterbalance_group},,sub-81
Desktop or Laptop,Windows 10,Chrome 138.0.0.0,1536x864,1536x864,Temporal Distance Task,cb_08,40.0,temp_dist_trial,dist_items,qkpkxw,2.0,response,56,1698.5999999999767,2314.5,2322.2999999999884,1698.5999999999767,2314.5,2322.2999999999884,1.0,623.7000000000116,0.0,,Slider,Slider,4.0,object-56,temp_dist_trial,40.0,t_s_07_1,travel_shared,phone charger cable,8.0,competing,paired,t_s_07_1.jpg,Travel,$${counterbalance_group},,sub-81
Desktop or Laptop,Windows 10,Chrome 138.0.0.0,1536x864,1536x864,Temporal Distance Task,cb_08,41.0,temp_dist_trial,num_items,zn7si1,1.0,response,2_ITEM,1947.4999998092533,1931.6999999999825,1947.4999998092533,1947.4999998092533,1931.6999999999825,1947.4999998092533,1.0,0.0,0.0,,Click Response,2_count,5.0,object-49,temp_dist_trial,41.0,t_m_07_1,travel_Miami,sunglasses,8.0,unique,paired,t_m_07_1.jpg,Travel,$${counterbalance_group},,sub-81
Desktop or Laptop,Windows 10,Chrome 138.0.0.0,1536x864,1536x864,Temporal Distance Task,cb_08,41.0,temp_dist_trial,dist_items,qkpkxw,2.0,info,,16.60000000000582,0.0,16.60000000000582,16.60000000000582,0.0,16.60000000000582,1.0,0.0,0.0,,Slider,Slider,4.0,object-56,temp_dist_trial,41.0,t_m_07_1,travel_Miami,sunglasses,8.0,unique,paired,t_m_07_1.jpg,Travel,$${counterbalance_group},,sub-81
Desktop or Laptop,Windows 10,Chrome 138.0.0.0,1536x864,1536x864,Temporal Distance Task,cb_08,41.0,temp_dist_trial,dist_items,qkpkxw,2.0,continue,,3077.199999809265,3063.8999999999933,3077.199999809265,3077.199999809265,3063.8999999999933,3077.199999809265,1.0,0.0,0.0,,Click To Continue,Next button,7.0,object-60,temp_dist_trial,41.0,t_m_07_1,travel_Miami,sunglasses,8.0,unique,paired,t_m_07_1.jpg,Travel,$${counterbalance_group},,sub-81
Desktop or Laptop,Windows 10,Chrome 138.0.0.0,1536x864,1536x864,Temporal Distance Task,cb_08,41.0,temp_dist_trial,dist_items,qkpkxw,2.0,response,59,2031.6000000000056,3063.8999999999933,3077.699999809265,2031.6000000000056,3063.8999999999933,3077.699999809265,1.0,1046.099999809259,0.0,,Slider,Slider,4.0,object-56,temp_dist_trial,41.0,t_m_07_1,travel_Miami,sunglasses,8.0,unique,paired,t_m_07_1.jpg,Travel,$${counterbalance_group},,sub-81
Desktop or Laptop,Windows 10,Chrome 138.0.0.0,1536x864,1536x864,Temporal Distance Task,cb_08,42.0,temp_dist_trial,num_items,zn7si1,1.0,response,2_ITEM,1278.6000000000058,1265.7000000000114,1278.6000000000058,1278.6000000000058,1265.7000000000114,1278.6000000000058,1.0,0.0,0.0,,Click Response,2_count,5.0,object-49,temp_dist_trial,42.0,t_i_11_1,travel_Iceland,headlamp,8.0,unique,paired,t_i_11_1.jpg,Travel,$${counterbalance_group},,sub-81
Desktop or Laptop,Windows 10,Chrome 138.0.0.0,1536x864,1536x864,Temporal Distance Task,cb_08,42.0,temp_dist_trial,dist_items,qkpkxw,2.0,info,,15.700000000011642,0.0,15.700000000011642,15.700000000011642,0.0,15.700000000011642,1.0,0.0,0.0,,Slider,Slider,4.0,object-56,temp_dist_trial,42.0,t_i_11_1,travel_Iceland,headlamp,8.0,unique,paired,t_i_11_1.jpg,Travel,$${counterbalance_group},,sub-81
Desktop or Laptop,Windows 10,Chrome 138.0.0.0,1536x864,1536x864,Temporal Distance Task,cb_08,42.0,temp_dist_trial,dist_items,qkpkxw,2.0,continue,,1543.3000003814816,1532.0,1543.3000003814816,1543.3000003814816,1532.0,1543.3000003814816,1.0,0.0,0.0,,Click To Continue,Next button,7.0,object-60,temp_dist_trial,42.0,t_i_11_1,travel_Iceland,headlamp,8.0,unique,paired,t_i_11_1.jpg,Travel,$${counterbalance_group},,sub-81
Desktop or Laptop,Windows 10,Chrome 138.0.0.0,1536x864,1536x864,Temporal Distance Task,cb_08,42.0,temp_dist_trial,dist_items,qkpkxw,2.0,response,45,882.9000000000232,1532.0,1543.8000003814816,882.9000000000232,1532.0,1543.8000003814816,1.0,660.9000003814581,0.0,,Slider,Slider,4.0,object-56,temp_dist_trial,42.0,t_i_11_1,travel_Iceland,headlamp,8.0,unique,paired,t_i_11_1.jpg,Travel,$${counterbalance_group},,sub-81
Desktop or Laptop,Windows 10,Chrome 138.0.0.0,1536x864,1536x864,Temporal Distance Task,cb_08,43.0,temp_dist_trial,num_items,zn7si1,1.0,response,2_ITEM,1898.0000001907465,1882.0,1898.0000001907465,1898.0000001907465,1882.0,1898.0000001907465,1.0,0.0,0.0,,Click Response,2_count,5.0,object-49,temp_dist_trial,43.0,t_i_18_1,travel_Iceland,ski mask,8.0,unique,paired,t_i_18_1.jpg,Travel,$${counterbalance_group},,sub-81
Desktop or Laptop,Windows 10,Chrome 138.0.0.0,1536x864,1536x864,Temporal Distance Task,cb_08,43.0,temp_dist_trial,dist_items,qkpkxw,2.0,info,,15.200000000011642,0.0,15.200000000011642,15.200000000011642,0.0,15.200000000011642,1.0,0.0,0.0,,Slider,Slider,4.0,object-56,temp_dist_trial,43.0,t_i_18_1,travel_Iceland,ski mask,8.0,unique,paired,t_i_18_1.jpg,Travel,$${counterbalance_group},,sub-81
Desktop or Laptop,Windows 10,Chrome 138.0.0.0,1536x864,1536x864,Temporal Distance Task,cb_08,43.0,temp_dist_trial,dist_items,qkpkxw,2.0,continue,,1391.2000000000116,1382.0,1391.2000000000116,1391.2000000000116,1382.0,1391.2000000000116,1.0,0.0,0.0,,Click To Continue,Next button,7.0,object-60,temp_dist_trial,43.0,t_i_18_1,travel_Iceland,ski mask,8.0,unique,paired,t_i_18_1.jpg,Travel,$${counterbalance_group},,sub-81
Desktop or Laptop,Windows 10,Chrome 138.0.0.0,1536x864,1536x864,Temporal Distance Task,cb_08,43.0,temp_dist_trial,dist_items,qkpkxw,2.0,response,62,699.1000000000058,1382.0,1392.0000001907465,699.1000000000058,1382.0,1392.0000001907465,1.0,692.9000001907408,0.0,,Slider,Slider,4.0,object-56,temp_dist_trial,43.0,t_i_18_1,travel_Iceland,ski mask,8.0,unique,paired,t_i_18_1.jpg,Travel,$${counterbalance_group},,sub-81
Desktop or Laptop,Windows 10,Chrome 138.0.0.0,1536x864,1536x864,Temporal Distance Task,cb_08,44.0,temp_dist_trial,num_items,zn7si1,1.0,response,2_ITEM,2186.8000003814814,2181.6000000000063,2186.8000003814814,2186.8000003814814,2181.6000000000063,2186.8000003814814,1.0,0.0,0.0,,Click Response,2_count,5.0,object-49,temp_dist_trial,44.0,t_s_18_1,travel_shared,first aid kit,8.0,competing,paired,t_s_18_1.jpg,Travel,$${counterbalance_group},,sub-81
Desktop or Laptop,Windows 10,Chrome 138.0.0.0,1536x864,1536x864,Temporal Distance Task,cb_08,44.0,temp_dist_trial,dist_items,qkpkxw,2.0,info,,15.800000190734865,0.0,15.800000190734865,15.800000190734865,0.0,15.800000190734865,1.0,0.0,0.0,,Slider,Slider,4.0,object-56,temp_dist_trial,44.0,t_s_18_1,travel_shared,first aid kit,8.0,competing,paired,t_s_18_1.jpg,Travel,$${counterbalance_group},,sub-81
Desktop or Laptop,Windows 10,Chrome 138.0.0.0,1536x864,1536x864,Temporal Distance Task,cb_08,44.0,temp_dist_trial,dist_items,qkpkxw,2.0,continue,,1469.6999998092651,1465.0,1469.6999998092651,1469.6999998092651,1465.0,1469.6999998092651,1.0,0.0,0.0,,Click To Continue,Next button,7.0,object-60,temp_dist_trial,44.0,t_s_18_1,travel_shared,first aid kit,8.0,competing,paired,t_s_18_1.jpg,Travel,$${counterbalance_group},,sub-81
Desktop or Laptop,Windows 10,Chrome 138.0.0.0,1536x864,1536x864,Temporal Distance Task,cb_08,44.0,temp_dist_trial,dist_items,qkpkxw,2.0,response,65,782.2000000000116,1465.0,1470.0,782.2000000000116,1465.0,1470.0,1.0,687.7999999999884,0.0,,Slider,Slider,4.0,object-56,temp_dist_trial,44.0,t_s_18_1,travel_shared,first aid kit,8.0,competing,paired,t_s_18_1.jpg,Travel,$${counterbalance_group},,sub-81
Desktop or Laptop,Windows 10,Chrome 138.0.0.0,1536x864,1536x864,Temporal Distance Task,cb_08,45.0,temp_dist_trial,num_items,zn7si1,1.0,response,2_ITEM,1137.3000001907346,1132.7999999999886,1137.3000001907346,1137.3000001907346,1132.7999999999886,1137.3000001907346,1.0,0.0,0.0,,Click Response,2_count,5.0,object-49,temp_dist_trial,45.0,t_s_11_1,travel_shared,eye mask,8.0,competing,paired,t_s_11_1.jpg,Travel,$${counterbalance_group},,sub-81
Desktop or Laptop,Windows 10,Chrome 138.0.0.0,1536x864,1536x864,Temporal Distance Task,cb_08,45.0,temp_dist_trial,dist_items,qkpkxw,2.0,info,,14.90000057220459,0.0,14.90000057220459,14.90000057220459,0.0,14.90000057220459,1.0,0.0,0.0,,Slider,Slider,4.0,object-56,temp_dist_trial,45.0,t_s_11_1,travel_shared,eye mask,8.0,competing,paired,t_s_11_1.jpg,Travel,$${counterbalance_group},,sub-81
Desktop or Laptop,Windows 10,Chrome 138.0.0.0,1536x864,1536x864,Temporal Distance Task,cb_08,45.0,temp_dist_trial,dist_items,qkpkxw,2.0,continue,,1627.1000003814695,1614.7999999999884,1627.1000003814695,1627.1000003814695,1614.7999999999884,1627.1000003814695,1.0,0.0,0.0,,Click To Continue,Next button,7.0,object-60,temp_dist_trial,45.0,t_s_11_1,travel_shared,eye mask,8.0,competing,paired,t_s_11_1.jpg,Travel,$${counterbalance_group},,sub-81
Desktop or Laptop,Windows 10,Chrome 138.0.0.0,1536x864,1536x864,Temporal Distance Task,cb_08,45.0,temp_dist_trial,dist_items,qkpkxw,2.0,response,40,915.6000000000058,1614.7999999999884,1627.6000003814695,915.6000000000058,1614.7999999999884,1627.6000003814695,1.0,712.0000003814639,0.0,,Slider,Slider,4.0,object-56,temp_dist_trial,45.0,t_s_11_1,travel_shared,eye mask,8.0,competing,paired,t_s_11_1.jpg,Travel,$${counterbalance_group},,sub-81
Desktop or Laptop,Windows 10,Chrome 138.0.0.0,1536x864,1536x864,Temporal Distance Task,cb_08,46.0,temp_dist_trial,num_items,zn7si1,1.0,response,2_ITEM,1353.5000001907465,1349.0,1353.5000001907465,1353.5000001907465,1349.0,1353.5000001907465,1.0,0.0,0.0,,Click Response,2_count,5.0,object-49,temp_dist_trial,46.0,t_m_11_1,travel_Miami,collapsible beach chair,8.0,unique,paired,t_m_11_1.jpg,Travel,$${counterbalance_group},,sub-81
Desktop or Laptop,Windows 10,Chrome 138.0.0.0,1536x864,1536x864,Temporal Distance Task,cb_08,46.0,temp_dist_trial,dist_items,qkpkxw,2.0,info,,15.5,0.0,15.5,15.5,0.0,15.5,1.0,0.0,0.0,,Slider,Slider,4.0,object-56,temp_dist_trial,46.0,t_m_11_1,travel_Miami,collapsible beach chair,8.0,unique,paired,t_m_11_1.jpg,Travel,$${counterbalance_group},,sub-81
Desktop or Laptop,Windows 10,Chrome 138.0.0.0,1536x864,1536x864,Temporal Distance Task,cb_08,46.0,temp_dist_trial,dist_items,qkpkxw,2.0,continue,,1539.1000003814695,1532.1000000000058,1539.1000003814695,1539.1000003814695,1532.1000000000058,1539.1000003814695,1.0,0.0,0.0,,Click To Continue,Next button,7.0,object-60,temp_dist_trial,46.0,t_m_11_1,travel_Miami,collapsible beach chair,8.0,unique,paired,t_m_11_1.jpg,Travel,$${counterbalance_group},,sub-81
Desktop or Laptop,Windows 10,Chrome 138.0.0.0,1536x864,1536x864,Temporal Distance Task,cb_08,46.0,temp_dist_trial,dist_items,qkpkxw,2.0,response,56,766.0,1532.1000000000058,1539.6999998092651,766.0,1532.1000000000058,1539.6999998092651,1.0,773.6999998092651,0.0,,Slider,Slider,4.0,object-56,temp_dist_trial,46.0,t_m_11_1,travel_Miami,collapsible beach chair,8.0,unique,paired,t_m_11_1.jpg,Travel,$${counterbalance_group},,sub-81
Desktop or Laptop,Windows 10,Chrome 138.0.0.0,1536x864,1536x864,Temporal Distance Task,cb_08,47.0,temp_dist_trial,num_items,zn7si1,1.0,response,1_ITEM,1373.8999999999942,1365.3999999999942,1373.8999999999942,1373.8999999999942,1365.3999999999942,1373.8999999999942,1.0,0.0,0.0,,Click Response,1_count,3.0,object-46,temp_dist_trial,47.0,t_s_09_1,travel_shared,wallet,8.0,competing,single,t_s_09_1.jpg,Travel,$${counterbalance_group},,sub-81
Desktop or Laptop,Windows 10,Chrome 138.0.0.0,1536x864,1536x864,Temporal Distance Task,cb_08,48.0,temp_dist_trial,num_items,zn7si1,1.0,response,2_ITEM,1194.900000190741,1182.3999999999942,1194.900000190741,1194.900000190741,1182.3999999999942,1194.900000190741,1.0,0.0,0.0,,Click Response,2_count,5.0,object-49,temp_dist_trial,48.0,t_s_06_1,travel_shared,luggage,8.0,competing,single,t_s_06_1.jpg,Travel,$${counterbalance_group},,sub-81
Desktop or Laptop,Windows 10,Chrome 138.0.0.0,1536x864,1536x864,Temporal Distance Task,cb_08,48.0,temp_dist_trial,dist_items,qkpkxw,2.0,info,,14.700000000011642,0.0,14.700000000011642,14.700000000011642,0.0,14.700000000011642,1.0,0.0,0.0,,Slider,Slider,4.0,object-56,temp_dist_trial,48.0,t_s_06_1,travel_shared,luggage,8.0,competing,single,t_s_06_1.jpg,Travel,$${counterbalance_group},,sub-81
Desktop or Laptop,Windows 10,Chrome 138.0.0.0,1536x864,1536x864,Temporal Distance Task,cb_08,48.0,temp_dist_trial,dist_items,qkpkxw,2.0,continue,,1494.8000003814816,1482.4000000000233,1494.8000003814816,1494.8000003814816,1482.4000000000233,1494.8000003814816,1.0,0.0,0.0,,Click To Continue,Next button,7.0,object-60,temp_dist_trial,48.0,t_s_06_1,travel_shared,luggage,8.0,competing,single,t_s_06_1.jpg,Travel,$${counterbalance_group},,sub-81
Desktop or Laptop,Windows 10,Chrome 138.0.0.0,1536x864,1536x864,Temporal Distance Task,cb_08,48.0,temp_dist_trial,dist_items,qkpkxw,2.0,response,57,865.8000000000177,1482.4000000000233,1495.2000000000116,865.8000000000177,1482.4000000000233,1495.2000000000116,1.0,629.3999999999943,0.0,,Slider,Slider,4.0,object-56,temp_dist_trial,48.0,t_s_06_1,travel_shared,luggage,8.0,competing,single,t_s_06_1.jpg,Travel,$${counterbalance_group},,sub-81
Desktop or Laptop,Windows 10,Chrome 138.0.0.0,1536x864,1536x864,Temporal Distance Task,cb_08,2.0,temp_eventStart,Screen 1,dgtyxe,1.0,continue,,3411.499999809253,3396.8999999999933,3411.499999809253,3411.499999809253,3396.8999999999933,3411.499999809253,1.0,0.0,0.0,,Click To Continue,Next Button,3.0,object-43,temp_eventStart,,,Student,,,,,,,$${counterbalance_group},,sub-81
Desktop or Laptop,Windows 10,Chrome 138.0.0.0,1536x864,1536x864,Temporal Distance Task,cb_08,49.0,temp_dist_trial,num_items,zn7si1,1.0,response,2_ITEM,2725.300000572199,2714.2999999999884,2725.300000572199,2725.300000572199,2714.2999999999884,2725.300000572199,1.0,0.0,0.0,,Click Response,2_count,5.0,object-49,temp_dist_trial,1.0,s_sh_11_1,student_shared,pencil case,8.0,competing,single,s_sh_11_1.jpg,Student,$${counterbalance_group},,sub-81
Desktop or Laptop,Windows 10,Chrome 138.0.0.0,1536x864,1536x864,Temporal Distance Task,cb_08,49.0,temp_dist_trial,dist_items,qkpkxw,2.0,info,,8.600000190723222,0.0,8.600000190723222,8.600000190723222,0.0,8.600000190723222,1.0,0.0,0.0,,Slider,Slider,4.0,object-56,temp_dist_trial,1.0,s_sh_11_1,student_shared,pencil case,8.0,competing,single,s_sh_11_1.jpg,Student,$${counterbalance_group},,sub-81
Desktop or Laptop,Windows 10,Chrome 138.0.0.0,1536x864,1536x864,Temporal Distance Task,cb_08,49.0,temp_dist_trial,dist_items,qkpkxw,2.0,continue,,1682.3999999999646,1665.5999999999767,1682.3999999999646,1682.3999999999646,1665.5999999999767,1682.3999999999646,1.0,0.0,0.0,,Click To Continue,Next button,7.0,object-60,temp_dist_trial,1.0,s_sh_11_1,student_shared,pencil case,8.0,competing,single,s_sh_11_1.jpg,Student,$${counterbalance_group},,sub-81
Desktop or Laptop,Windows 10,Chrome 138.0.0.0,1536x864,1536x864,Temporal Distance Task,cb_08,49.0,temp_dist_trial,dist_items,qkpkxw,2.0,response,61,1149.0,1665.5999999999767,1682.3999999999646,1149.0,1665.5999999999767,1682.3999999999646,1.0,533.3999999999652,0.0,,Slider,Slider,4.0,object-56,temp_dist_trial,1.0,s_sh_11_1,student_shared,pencil case,8.0,competing,single,s_sh_11_1.jpg,Student,$${counterbalance_group},,sub-81
Desktop or Laptop,Windows 10,Chrome 138.0.0.0,1536x864,1536x864,Temporal Distance Task,cb_08,50.0,temp_dist_trial,num_items,zn7si1,1.0,response,2_ITEM,1664.5000001907465,1648.7000000000116,1664.5000001907465,1664.5000001907465,1648.7000000000116,1664.5000001907465,1.0,0.0,0.0,,Click Response,2_count,5.0,object-49,temp_dist_trial,2.0,s_a_14_1,student_art,guitar pick,8.0,unique,paired,s_a_14_1.jpg,Student,$${counterbalance_group},,sub-81
Desktop or Laptop,Windows 10,Chrome 138.0.0.0,1536x864,1536x864,Temporal Distance Task,cb_08,50.0,temp_dist_trial,dist_items,qkpkxw,2.0,info,,16.60000000000582,0.0,16.60000000000582,16.60000000000582,0.0,16.60000000000582,1.0,0.0,0.0,,Slider,Slider,4.0,object-56,temp_dist_trial,2.0,s_a_14_1,student_art,guitar pick,8.0,unique,paired,s_a_14_1.jpg,Student,$${counterbalance_group},,sub-81
Desktop or Laptop,Windows 10,Chrome 138.0.0.0,1536x864,1536x864,Temporal Distance Task,cb_08,50.0,temp_dist_trial,dist_items,qkpkxw,2.0,continue,,2182.3999999999937,2165.5,2182.3999999999937,2182.3999999999937,2165.5,2182.3999999999937,1.0,0.0,0.0,,Click To Continue,Next button,7.0,object-60,temp_dist_trial,2.0,s_a_14_1,student_art,guitar pick,8.0,unique,paired,s_a_14_1.jpg,Student,$${counterbalance_group},,sub-81
Desktop or Laptop,Windows 10,Chrome 138.0.0.0,1536x864,1536x864,Temporal Distance Task,cb_08,50.0,temp_dist_trial,dist_items,qkpkxw,2.0,response,62,849.1999999999823,2165.5,2182.3999999999937,849.1999999999823,2165.5,2182.3999999999937,1.0,1333.2000000000114,0.0,,Slider,Slider,4.0,object-56,temp_dist_trial,2.0,s_a_14_1,student_art,guitar pick,8.0,unique,paired,s_a_14_1.jpg,Student,$${counterbalance_group},,sub-81
Desktop or Laptop,Windows 10,Chrome 138.0.0.0,1536x864,1536x864,Temporal Distance Task,cb_08,51.0,temp_dist_trial,num_items,zn7si1,1.0,response,1_ITEM,1705.3000005721988,1698.1000000000058,1705.3000005721988,1705.3000005721988,1698.1000000000058,1705.3000005721988,1.0,0.0,0.0,,Click Response,1_count,3.0,object-46,temp_dist_trial,3.0,s_sh_06_1,student_shared,clipboard,8.0,competing,single,s_sh_06_1.jpg,Student,$${counterbalance_group},,sub-81
Desktop or Laptop,Windows 10,Chrome 138.0.0.0,1536x864,1536x864,Temporal Distance Task,cb_08,52.0,temp_dist_trial,num_items,zn7si1,1.0,response,2_ITEM,1114.200000572193,1099.0999999999767,1114.200000572193,1114.200000572193,1099.0999999999767,1114.200000572193,1.0,0.0,0.0,,Click Response,2_count,5.0,object-49,temp_dist_trial,4.0,s_sh_16_1,student_shared,stapler,8.0,competing,paired,s_sh_16_1.jpg,Student,$${counterbalance_group},,sub-81
Desktop or Laptop,Windows 10,Chrome 138.0.0.0,1536x864,1536x864,Temporal Distance Task,cb_08,52.0,temp_dist_trial,dist_items,qkpkxw,2.0,info,,14.600000000005819,0.0,14.600000000005819,14.600000000005819,0.0,14.600000000005819,1.0,0.0,0.0,,Slider,Slider,4.0,object-56,temp_dist_trial,4.0,s_sh_16_1,student_shared,stapler,8.0,competing,paired,s_sh_16_1.jpg,Student,$${counterbalance_group},,sub-81
Desktop or Laptop,Windows 10,Chrome 138.0.0.0,1536x864,1536x864,Temporal Distance Task,cb_08,52.0,temp_dist_trial,dist_items,qkpkxw,2.0,continue,,1263.299999809271,1248.8000000000175,1263.299999809271,1263.299999809271,1248.8000000000175,1263.299999809271,1.0,0.0,0.0,,Click To Continue,Next button,7.0,object-60,temp_dist_trial,4.0,s_sh_16_1,student_shared,stapler,8.0,competing,paired,s_sh_16_1.jpg,Student,$${counterbalance_group},,sub-81
Desktop or Laptop,Windows 10,Chrome 138.0.0.0,1536x864,1536x864,Temporal Distance Task,cb_08,52.0,temp_dist_trial,dist_items,qkpkxw,2.0,response,65,732.8999999999942,1248.8000000000175,1263.900000190741,732.8999999999942,1248.8000000000175,1263.900000190741,1.0,531.0000001907465,0.0,,Slider,Slider,4.0,object-56,temp_dist_trial,4.0,s_sh_16_1,student_shared,stapler,8.0,competing,paired,s_sh_16_1.jpg,Student,$${counterbalance_group},,sub-81
Desktop or Laptop,Windows 10,Chrome 138.0.0.0,1536x864,1536x864,Temporal Distance Task,cb_08,53.0,temp_dist_trial,num_items,zn7si1,1.0,response,2_ITEM,1323.9999998092535,1315.5999999999767,1323.9999998092535,1323.9999998092535,1315.5999999999767,1323.9999998092535,1.0,0.0,0.0,,Click Response,2_count,5.0,object-49,temp_dist_trial,5.0,s_a_12_1,student_art,saxophone,8.0,unique,paired,s_a_12_1.jpg,Student,$${counterbalance_group},,sub-81
Desktop or Laptop,Windows 10,Chrome 138.0.0.0,1536x864,1536x864,Temporal Distance Task,cb_08,53.0,temp_dist_trial,dist_items,qkpkxw,2.0,info,,15.000000190746505,0.0,15.000000190746505,15.000000190746505,0.0,15.000000190746505,1.0,0.0,0.0,,Slider,Slider,4.0,object-56,temp_dist_trial,5.0,s_a_12_1,student_art,saxophone,8.0,unique,paired,s_a_12_1.jpg,Student,$${counterbalance_group},,sub-81
Desktop or Laptop,Windows 10,Chrome 138.0.0.0,1536x864,1536x864,Temporal Distance Task,cb_08,53.0,temp_dist_trial,dist_items,qkpkxw,2.0,continue,,1128.7000000000114,1115.6000000000058,1128.7000000000114,1128.7000000000114,1115.6000000000058,1128.7000000000114,1.0,0.0,0.0,,Click To Continue,Next button,7.0,object-60,temp_dist_trial,5.0,s_a_12_1,student_art,saxophone,8.0,unique,paired,s_a_12_1.jpg,Student,$${counterbalance_group},,sub-81
Desktop or Laptop,Windows 10,Chrome 138.0.0.0,1536x864,1536x864,Temporal Distance Task,cb_08,53.0,temp_dist_trial,dist_items,qkpkxw,2.0,response,67,599.3000000000175,1115.6000000000058,1129.3999998092768,599.3000000000175,1115.6000000000058,1129.3999998092768,1.0,530.0999998092593,0.0,,Slider,Slider,4.0,object-56,temp_dist_trial,5.0,s_a_12_1,student_art,saxophone,8.0,unique,paired,s_a_12_1.jpg,Student,$${counterbalance_group},,sub-81
Desktop or Laptop,Windows 10,Chrome 138.0.0.0,1536x864,1536x864,Temporal Distance Task,cb_08,54.0,temp_dist_trial,num_items,zn7si1,1.0,response,1_ITEM,1146.299999809271,1132.3999999999942,1146.299999809271,1146.299999809271,1132.3999999999942,1146.299999809271,1.0,0.0,0.0,,Click Response,1_count,3.0,object-46,temp_dist_trial,6.0,s_a_03_1,student_art,palette,8.0,unique,single,s_a_03_1.jpg,Student,$${counterbalance_group},,sub-81
Desktop or Laptop,Windows 10,Chrome 138.0.0.0,1536x864,1536x864,Temporal Distance Task,cb_08,55.0,temp_dist_trial,num_items,zn7si1,1.0,response,2_ITEM,1343.2999999999886,1332.0,1343.2999999999886,1343.2999999999886,1332.0,1343.2999999999886,1.0,0.0,0.0,,Click Response,2_count,5.0,object-49,temp_dist_trial,7.0,s_s_08_1,student_stem,soldering iron,8.0,unique,paired,s_s_08_1.jpg,Student,$${counterbalance_group},,sub-81
Desktop or Laptop,Windows 10,Chrome 138.0.0.0,1536x864,1536x864,Temporal Distance Task,cb_08,55.0,temp_dist_trial,dist_items,qkpkxw,2.0,info,,14.400000381458087,0.0,14.400000381458087,14.400000381458087,0.0,14.400000381458087,1.0,0.0,0.0,,Slider,Slider,4.0,object-56,temp_dist_trial,7.0,s_s_08_1,student_stem,soldering iron,8.0,unique,paired,s_s_08_1.jpg,Student,$${counterbalance_group},,sub-81
Desktop or Laptop,Windows 10,Chrome 138.0.0.0,1536x864,1536x864,Temporal Distance Task,cb_08,55.0,temp_dist_trial,dist_items,qkpkxw,2.0,continue,,1244.9999998092535,1232.1999999999825,1244.9999998092535,1244.9999998092535,1232.1999999999825,1244.9999998092535,1.0,0.0,0.0,,Click To Continue,Next button,7.0,object-60,temp_dist_trial,7.0,s_s_08_1,student_stem,soldering iron,8.0,unique,paired,s_s_08_1.jpg,Student,$${counterbalance_group},,sub-81
Desktop or Laptop,Windows 10,Chrome 138.0.0.0,1536x864,1536x864,Temporal Distance Task,cb_08,55.0,temp_dist_trial,dist_items,qkpkxw,2.0,response,69,715.8999999999942,1232.1999999999825,1245.2999999999886,715.8999999999942,1232.1999999999825,1245.2999999999886,1.0,529.3999999999942,0.0,,Slider,Slider,4.0,object-56,temp_dist_trial,7.0,s_s_08_1,student_stem,soldering iron,8.0,unique,paired,s_s_08_1.jpg,Student,$${counterbalance_group},,sub-81
Desktop or Laptop,Windows 10,Chrome 138.0.0.0,1536x864,1536x864,Temporal Distance Task,cb_08,56.0,temp_dist_trial,num_items,zn7si1,1.0,response,1_ITEM,1782.3000000000175,1765.6000000000058,1782.3000000000175,1782.3000000000175,1765.6000000000058,1782.3000000000175,1.0,0.0,0.0,,Click Response,1_count,3.0,object-46,temp_dist_trial,8.0,s_s_03_1,student_stem,petri dish,8.0,unique,single,s_s_03_1.jpg,Student,$${counterbalance_group},,sub-81
Desktop or Laptop,Windows 10,Chrome 138.0.0.0,1536x864,1536x864,Temporal Distance Task,cb_08,57.0,temp_dist_trial,num_items,zn7si1,1.0,response,1_ITEM,1597.6000001907232,1581.5999999999767,1597.6000001907232,1597.6000001907232,1581.5999999999767,1597.6000001907232,1.0,0.0,0.0,,Click Response,1_count,3.0,object-46,temp_dist_trial,9.0,s_sh_14_1,student_shared,printer,8.0,competing,single,s_sh_14_1.jpg,Student,$${counterbalance_group},,sub-81
Desktop or Laptop,Windows 10,Chrome 138.0.0.0,1536x864,1536x864,Temporal Distance Task,cb_08,58.0,temp_dist_trial,num_items,zn7si1,1.0,response,2_ITEM,904.7000003814757,899.3999999999942,904.7000003814757,904.7000003814757,899.3999999999942,904.7000003814757,1.0,0.0,0.0,,Click Response,2_count,5.0,object-49,temp_dist_trial,10.0,s_sh_02_1,student_shared,eraser,8.0,competing,paired,s_sh_02_1.jpg,Student,$${counterbalance_group},,sub-81
Desktop or Laptop,Windows 10,Chrome 138.0.0.0,1536x864,1536x864,Temporal Distance Task,cb_08,58.0,temp_dist_trial,dist_items,qkpkxw,2.0,info,,13.099999809259314,0.0,13.099999809259314,13.099999809259314,0.0,13.099999809259314,1.0,0.0,0.0,,Slider,Slider,4.0,object-56,temp_dist_trial,10.0,s_sh_02_1,student_shared,eraser,8.0,competing,paired,s_sh_02_1.jpg,Student,$${counterbalance_group},,sub-81
Desktop or Laptop,Windows 10,Chrome 138.0.0.0,1536x864,1536x864,Temporal Distance Task,cb_08,58.0,temp_dist_trial,dist_items,qkpkxw,2.0,continue,,1327.099999809259,1315.3999999999942,1327.099999809259,1327.099999809259,1315.3999999999942,1327.099999809259,1.0,0.0,0.0,,Click To Continue,Next button,7.0,object-60,temp_dist_trial,10.0,s_sh_02_1,student_shared,eraser,8.0,competing,paired,s_sh_02_1.jpg,Student,$${counterbalance_group},,sub-81
Desktop or Laptop,Windows 10,Chrome 138.0.0.0,1536x864,1536x864,Temporal Distance Task,cb_08,58.0,temp_dist_trial,dist_items,qkpkxw,2.0,response,62,815.6999999999823,1315.3999999999942,1327.700000190729,815.6999999999823,1315.3999999999942,1327.700000190729,1.0,512.0000001907465,0.0,,Slider,Slider,4.0,object-56,temp_dist_trial,10.0,s_sh_02_1,student_shared,eraser,8.0,competing,paired,s_sh_02_1.jpg,Student,$${counterbalance_group},,sub-81
Desktop or Laptop,Windows 10,Chrome 138.0.0.0,1536x864,1536x864,Temporal Distance Task,cb_08,59.0,temp_dist_trial,num_items,zn7si1,1.0,response,1_ITEM,2122.699999809265,2115.0,2122.699999809265,2122.699999809265,2115.0,2122.699999809265,1.0,0.0,0.0,,Click Response,1_count,3.0,object-46,temp_dist_trial,11.0,s_s_19_1,student_stem,circuit board,8.0,unique,paired,s_s_19_1.jpg,Student,$${counterbalance_group},,sub-81
Desktop or Laptop,Windows 10,Chrome 138.0.0.0,1536x864,1536x864,Temporal Distance Task,cb_08,60.0,temp_dist_trial,num_items,zn7si1,1.0,response,1_ITEM,1318.8000005721988,1315.3999999999942,1318.8000005721988,1318.8000005721988,1315.3999999999942,1318.8000005721988,1.0,0.0,0.0,,Click Response,1_count,3.0,object-46,temp_dist_trial,12.0,s_s_11_1,student_stem,scientific scale,8.0,unique,paired,s_s_11_1.jpg,Student,$${counterbalance_group},,sub-81
Desktop or Laptop,Windows 10,Chrome 138.0.0.0,1536x864,1536x864,Temporal Distance Task,cb_08,61.0,temp_dist_trial,num_items,zn7si1,1.0,response,1_ITEM,1219.3000003814814,1215.3000000000175,1219.3000003814814,1219.3000003814814,1215.3000000000175,1219.3000003814814,1.0,0.0,0.0,,Click Response,1_count,3.0,object-46,temp_dist_trial,13.0,s_s_14_1,student_stem,funnel,8.0,unique,single,s_s_14_1.jpg,Student,$${counterbalance_group},,sub-81
Desktop or Laptop,Windows 10,Chrome 138.0.0.0,1536x864,1536x864,Temporal Distance Task,cb_08,62.0,temp_dist_trial,num_items,zn7si1,1.0,response,1_ITEM,1686.9000001907407,1682.1000000000058,1686.9000001907407,1686.9000001907407,1682.1000000000058,1686.9000001907407,1.0,0.0,0.0,,Click Response,1_count,3.0,object-46,temp_dist_trial,14.0,s_sh_04_1,student_shared,laptop stand,8.0,competing,paired,s_sh_04_1.jpg,Student,$${counterbalance_group},,sub-81
Desktop or Laptop,Windows 10,Chrome 138.0.0.0,1536x864,1536x864,Temporal Distance Task,cb_08,63.0,temp_dist_trial,num_items,zn7si1,1.0,response,2_ITEM,1082.2000000000407,1065.6000000000058,1082.2000000000407,1082.2000000000407,1065.6000000000058,1082.2000000000407,1.0,0.0,0.0,,Click Response,2_count,5.0,object-49,temp_dist_trial,15.0,s_a_05_1,student_art,clay,8.0,unique,paired,s_a_05_1.jpg,Student,$${counterbalance_group},,sub-81
Desktop or Laptop,Windows 10,Chrome 138.0.0.0,1536x864,1536x864,Temporal Distance Task,cb_08,63.0,temp_dist_trial,dist_items,qkpkxw,2.0,info,,14.400000000023287,0.0,14.400000000023287,14.400000000023287,0.0,14.400000000023287,1.0,0.0,0.0,,Slider,Slider,4.0,object-56,temp_dist_trial,15.0,s_a_05_1,student_art,clay,8.0,unique,paired,s_a_05_1.jpg,Student,$${counterbalance_group},,sub-81
Desktop or Laptop,Windows 10,Chrome 138.0.0.0,1536x864,1536x864,Temporal Distance Task,cb_08,63.0,temp_dist_trial,dist_items,qkpkxw,2.0,continue,,1180.4000000000233,1165.5,1180.4000000000233,1180.4000000000233,1165.5,1180.4000000000233,1.0,0.0,0.0,,Click To Continue,Next button,7.0,object-60,temp_dist_trial,15.0,s_a_05_1,student_art,clay,8.0,unique,paired,s_a_05_1.jpg,Student,$${counterbalance_group},,sub-81
Desktop or Laptop,Windows 10,Chrome 138.0.0.0,1536x864,1536x864,Temporal Distance Task,cb_08,63.0,temp_dist_trial,dist_items,qkpkxw,2.0,response,62,682.3000000000466,1165.5,1181.0999998092884,682.3000000000466,1165.5,1181.0999998092884,1.0,498.7999998092418,0.0,,Slider,Slider,4.0,object-56,temp_dist_trial,15.0,s_a_05_1,student_art,clay,8.0,unique,paired,s_a_05_1.jpg,Student,$${counterbalance_group},,sub-81
Desktop or Laptop,Windows 10,Chrome 138.0.0.0,1536x864,1536x864,Temporal Distance Task,cb_08,64.0,temp_dist_trial,num_items,zn7si1,1.0,response,2_ITEM,1049.4000000000233,1032.7000000000116,1049.4000000000233,1049.4000000000233,1032.7000000000116,1049.4000000000233,1.0,0.0,0.0,,Click Response,2_count,5.0,object-49,temp_dist_trial,16.0,s_sh_05_1,student_shared,laptop,8.0,competing,paired,s_sh_05_1.jpg,Student,$${counterbalance_group},,sub-81
Desktop or Laptop,Windows 10,Chrome 138.0.0.0,1536x864,1536x864,Temporal Distance Task,cb_08,64.0,temp_dist_trial,dist_items,qkpkxw,2.0,info,,16.699999999953434,0.0,16.699999999953434,16.699999999953434,0.0,16.699999999953434,1.0,0.0,0.0,,Slider,Slider,4.0,object-56,temp_dist_trial,16.0,s_sh_05_1,student_shared,laptop,8.0,competing,paired,s_sh_05_1.jpg,Student,$${counterbalance_group},,sub-81
Desktop or Laptop,Windows 10,Chrome 138.0.0.0,1536x864,1536x864,Temporal Distance Task,cb_08,64.0,temp_dist_trial,dist_items,qkpkxw,2.0,continue,,1138.3000005722279,1132.4000000000233,1138.3000005722279,1138.3000005722279,1132.4000000000233,1138.3000005722279,1.0,0.0,0.0,,Click To Continue,Next button,7.0,object-60,temp_dist_trial,16.0,s_sh_05_1,student_shared,laptop,8.0,competing,paired,s_sh_05_1.jpg,Student,$${counterbalance_group},,sub-81
Desktop or Laptop,Windows 10,Chrome 138.0.0.0,1536x864,1536x864,Temporal Distance Task,cb_08,64.0,temp_dist_trial,dist_items,qkpkxw,2.0,response,64,649.3000000000466,1132.4000000000233,1145.7000001907581,649.3000000000466,1132.4000000000233,1145.7000001907581,1.0,496.4000001907116,0.0,,Slider,Slider,4.0,object-56,temp_dist_trial,16.0,s_sh_05_1,student_shared,laptop,8.0,competing,paired,s_sh_05_1.jpg,Student,$${counterbalance_group},,sub-81
Desktop or Laptop,Windows 10,Chrome 138.0.0.0,1536x864,1536x864,Temporal Distance Task,cb_08,65.0,temp_dist_trial,num_items,zn7si1,1.0,response,1_ITEM,1642.3000001907349,1632.0,1642.3000001907349,1642.3000001907349,1632.0,1642.3000001907349,1.0,0.0,0.0,,Click Response,1_count,3.0,object-46,temp_dist_trial,17.0,s_a_06_1,student_art,pastels,8.0,unique,paired,s_a_06_1.jpg,Student,$${counterbalance_group},,sub-81
Desktop or Laptop,Windows 10,Chrome 138.0.0.0,1536x864,1536x864,Temporal Distance Task,cb_08,66.0,temp_dist_trial,num_items,zn7si1,1.0,response,2_ITEM,1008.1000003814696,999.2000000000116,1008.1000003814696,1008.1000003814696,999.2000000000116,1008.1000003814696,1.0,0.0,0.0,,Click Response,2_count,5.0,object-49,temp_dist_trial,18.0,s_sh_07_1,student_shared,ruler,8.0,competing,paired,s_sh_07_1.jpg,Student,$${counterbalance_group},,sub-81
Desktop or Laptop,Windows 10,Chrome 138.0.0.0,1536x864,1536x864,Temporal Distance Task,cb_08,66.0,temp_dist_trial,dist_items,qkpkxw,2.0,info,,16.5,0.0,16.5,16.5,0.0,16.5,1.0,0.0,0.0,,Slider,Slider,4.0,object-56,temp_dist_trial,18.0,s_sh_07_1,student_shared,ruler,8.0,competing,paired,s_sh_07_1.jpg,Student,$${counterbalance_group},,sub-81
Desktop or Laptop,Windows 10,Chrome 138.0.0.0,1536x864,1536x864,Temporal Distance Task,cb_08,66.0,temp_dist_trial,dist_items,qkpkxw,2.0,continue,,1224.5999998092884,1215.5,1224.5999998092884,1224.5999998092884,1215.5,1224.5999998092884,1.0,0.0,0.0,,Click To Continue,Next button,7.0,object-60,temp_dist_trial,18.0,s_sh_07_1,student_shared,ruler,8.0,competing,paired,s_sh_07_1.jpg,Student,$${counterbalance_group},,sub-81
Desktop or Laptop,Windows 10,Chrome 138.0.0.0,1536x864,1536x864,Temporal Distance Task,cb_08,66.0,temp_dist_trial,dist_items,qkpkxw,2.0,response,62,666.1000000000347,1215.5,1225.0999998092884,666.1000000000347,1215.5,1225.0999998092884,1.0,558.9999998092535,0.0,,Slider,Slider,4.0,object-56,temp_dist_trial,18.0,s_sh_07_1,student_shared,ruler,8.0,competing,paired,s_sh_07_1.jpg,Student,$${counterbalance_group},,sub-81
Desktop or Laptop,Windows 10,Chrome 138.0.0.0,1536x864,1536x864,Temporal Distance Task,cb_08,67.0,temp_dist_trial,num_items,zn7si1,1.0,response,2_ITEM,1055.5999998092884,1049.4000000000233,1055.5999998092884,1055.5999998092884,1049.4000000000233,1055.5999998092884,1.0,0.0,0.0,,Click Response,2_count,5.0,object-49,temp_dist_trial,19.0,s_sh_21_1,student_shared,file holder,8.0,competing,paired,s_sh_21_1.jpg,Student,$${counterbalance_group},,sub-81
Desktop or Laptop,Windows 10,Chrome 138.0.0.0,1536x864,1536x864,Temporal Distance Task,cb_08,67.0,temp_dist_trial,dist_items,qkpkxw,2.0,info,,12.900000190711577,0.0,12.900000190711577,12.900000190711577,0.0,12.900000190711577,1.0,0.0,0.0,,Slider,Slider,4.0,object-56,temp_dist_trial,19.0,s_sh_21_1,student_shared,file holder,8.0,competing,paired,s_sh_21_1.jpg,Student,$${counterbalance_group},,sub-81
Desktop or Laptop,Windows 10,Chrome 138.0.0.0,1536x864,1536x864,Temporal Distance Task,cb_08,67.0,temp_dist_trial,dist_items,qkpkxw,2.0,continue,,1278.7999998092419,1265.899999999965,1278.7999998092419,1278.7999998092419,1265.899999999965,1278.7999998092419,1.0,0.0,0.0,,Click To Continue,Next button,7.0,object-60,temp_dist_trial,19.0,s_sh_21_1,student_shared,file holder,8.0,competing,paired,s_sh_21_1.jpg,Student,$${counterbalance_group},,sub-81
Desktop or Laptop,Windows 10,Chrome 138.0.0.0,1536x864,1536x864,Temporal Distance Task,cb_08,67.0,temp_dist_trial,dist_items,qkpkxw,2.0,response,64,782.5999999999768,1265.899999999965,1279.5000005721813,782.5999999999768,1265.899999999965,1279.5000005721813,1.0,496.9000005722046,0.0,,Slider,Slider,4.0,object-56,temp_dist_trial,19.0,s_sh_21_1,student_shared,file holder,8.0,competing,paired,s_sh_21_1.jpg,Student,$${counterbalance_group},,sub-81
Desktop or Laptop,Windows 10,Chrome 138.0.0.0,1536x864,1536x864,Temporal Distance Task,cb_08,68.0,temp_dist_trial,num_items,zn7si1,1.0,response,2_ITEM,916.1999999999533,899.2999999999884,916.1999999999533,916.1999999999533,899.2999999999884,916.1999999999533,1.0,0.0,0.0,,Click Response,2_count,5.0,object-49,temp_dist_trial,20.0,s_sh_01_1,student_shared,notebook,8.0,competing,paired,s_sh_01_1.jpg,Student,$${counterbalance_group},,sub-81
Desktop or Laptop,Windows 10,Chrome 138.0.0.0,1536x864,1536x864,Temporal Distance Task,cb_08,68.0,temp_dist_trial,dist_items,qkpkxw,2.0,info,,13.799999999988358,0.0,13.799999999988358,13.799999999988358,0.0,13.799999999988358,1.0,0.0,0.0,,Slider,Slider,4.0,object-56,temp_dist_trial,20.0,s_sh_01_1,student_shared,notebook,8.0,competing,paired,s_sh_01_1.jpg,Student,$${counterbalance_group},,sub-81
Desktop or Laptop,Windows 10,Chrome 138.0.0.0,1536x864,1536x864,Temporal Distance Task,cb_08,68.0,temp_dist_trial,dist_items,qkpkxw,2.0,continue,,1137.400000381458,1132.7000000000114,1137.400000381458,1137.400000381458,1132.7000000000114,1137.400000381458,1.0,0.0,0.0,,Click To Continue,Next button,7.0,object-60,temp_dist_trial,20.0,s_sh_01_1,student_shared,notebook,8.0,competing,paired,s_sh_01_1.jpg,Student,$${counterbalance_group},,sub-81
Desktop or Laptop,Windows 10,Chrome 138.0.0.0,1536x864,1536x864,Temporal Distance Task,cb_08,68.0,temp_dist_trial,dist_items,qkpkxw,2.0,response,41,616.2999999999884,1132.7000000000114,1138.1000001907232,616.2999999999884,1132.7000000000114,1138.1000001907232,1.0,521.8000001907349,0.0,,Slider,Slider,4.0,object-56,temp_dist_trial,20.0,s_sh_01_1,student_shared,notebook,8.0,competing,paired,s_sh_01_1.jpg,Student,$${counterbalance_group},,sub-81
Desktop or Laptop,Windows 10,Chrome 138.0.0.0,1536x864,1536x864,Temporal Distance Task,cb_08,69.0,temp_dist_trial,num_items,zn7si1,1.0,response,1_ITEM,1194.0000005721813,1182.0,1194.0000005721813,1194.0000005721813,1182.0,1194.0000005721813,1.0,0.0,0.0,,Click Response,1_count,3.0,object-46,temp_dist_trial,21.0,s_s_13_1,student_stem,telescope,8.0,unique,single,s_s_13_1.jpg,Student,$${counterbalance_group},,sub-81
Desktop or Laptop,Windows 10,Chrome 138.0.0.0,1536x864,1536x864,Temporal Distance Task,cb_08,70.0,temp_dist_trial,num_items,zn7si1,1.0,response,2_ITEM,1788.9000001907114,1781.7999999999884,1788.9000001907114,1788.9000001907114,1781.7999999999884,1788.9000001907114,1.0,0.0,0.0,,Click Response,2_count,5.0,object-49,temp_dist_trial,22.0,s_sh_19_1,student_shared,portable plastic drawer,8.0,competing,paired,s_sh_19_1.jpg,Student,$${counterbalance_group},,sub-81
Desktop or Laptop,Windows 10,Chrome 138.0.0.0,1536x864,1536x864,Temporal Distance Task,cb_08,70.0,temp_dist_trial,dist_items,qkpkxw,2.0,info,,13.500000572181303,0.0,13.500000572181303,13.500000572181303,0.0,13.500000572181303,1.0,0.0,0.0,,Slider,Slider,4.0,object-56,temp_dist_trial,22.0,s_sh_19_1,student_shared,portable plastic drawer,8.0,competing,paired,s_sh_19_1.jpg,Student,$${counterbalance_group},,sub-81
Desktop or Laptop,Windows 10,Chrome 138.0.0.0,1536x864,1536x864,Temporal Distance Task,cb_08,70.0,temp_dist_trial,dist_items,qkpkxw,2.0,continue,,1186.0000005721813,1182.0,1186.0000005721813,1186.0000005721813,1182.0,1186.0000005721813,1.0,0.0,0.0,,Click To Continue,Next button,7.0,object-60,temp_dist_trial,22.0,s_sh_19_1,student_shared,portable plastic drawer,8.0,competing,paired,s_sh_19_1.jpg,Student,$${counterbalance_group},,sub-81
Desktop or Laptop,Windows 10,Chrome 138.0.0.0,1536x864,1536x864,Temporal Distance Task,cb_08,70.0,temp_dist_trial,dist_items,qkpkxw,2.0,response,63,665.7999999999884,1182.0,1186.2999998092419,665.7999999999884,1182.0,1186.2999998092419,1.0,520.4999998092535,0.0,,Slider,Slider,4.0,object-56,temp_dist_trial,22.0,s_sh_19_1,student_shared,portable plastic drawer,8.0,competing,paired,s_sh_19_1.jpg,Student,$${counterbalance_group},,sub-81
Desktop or Laptop,Windows 10,Chrome 138.0.0.0,1536x864,1536x864,Temporal Distance Task,cb_08,71.0,temp_dist_trial,num_items,zn7si1,1.0,response,1_ITEM,1145.7000003814464,1132.399999999965,1145.7000003814464,1145.7000003814464,1132.399999999965,1145.7000003814464,1.0,0.0,0.0,,Click Response,1_count,3.0,object-46,temp_dist_trial,23.0,s_sh_10_1,student_shared,scissors,8.0,competing,single,s_sh_10_1.jpg,Student,$${counterbalance_group},,sub-81
Desktop or Laptop,Windows 10,Chrome 138.0.0.0,1536x864,1536x864,Temporal Distance Task,cb_08,72.0,temp_dist_trial,num_items,zn7si1,1.0,response,2_ITEM,1181.3000003814814,1165.7999999999886,1181.3000003814814,1181.3000003814814,1165.7999999999886,1181.3000003814814,1.0,0.0,0.0,,Click Response,2_count,5.0,object-49,temp_dist_trial,24.0,s_a_09_1,student_art,picture frame,8.0,unique,single,s_a_09_1.jpg,Student,$${counterbalance_group},,sub-81
Desktop or Laptop,Windows 10,Chrome 138.0.0.0,1536x864,1536x864,Temporal Distance Task,cb_08,72.0,temp_dist_trial,dist_items,qkpkxw,2.0,info,,14.000000190746505,0.0,14.000000190746505,14.000000190746505,0.0,14.000000190746505,1.0,0.0,0.0,,Slider,Slider,4.0,object-56,temp_dist_trial,24.0,s_a_09_1,student_art,picture frame,8.0,unique,single,s_a_09_1.jpg,Student,$${counterbalance_group},,sub-81
Desktop or Laptop,Windows 10,Chrome 138.0.0.0,1536x864,1536x864,Temporal Distance Task,cb_08,72.0,temp_dist_trial,dist_items,qkpkxw,2.0,continue,,1858.7000000000119,1848.2000000000119,1858.7000000000119,1858.7000000000119,1848.2000000000119,1858.7000000000119,1.0,0.0,0.0,,Click To Continue,Next button,7.0,object-60,temp_dist_trial,24.0,s_a_09_1,student_art,picture frame,8.0,unique,single,s_a_09_1.jpg,Student,$${counterbalance_group},,sub-81
Desktop or Laptop,Windows 10,Chrome 138.0.0.0,1536x864,1536x864,Temporal Distance Task,cb_08,72.0,temp_dist_trial,dist_items,qkpkxw,2.0,response,38,1148.7999999999886,1848.2000000000119,1859.3999998092768,1148.7999999999886,1848.2000000000119,1859.3999998092768,1.0,710.5999998092882,0.0,,Slider,Slider,4.0,object-56,temp_dist_trial,24.0,s_a_09_1,student_art,picture frame,8.0,unique,single,s_a_09_1.jpg,Student,$${counterbalance_group},,sub-81
Desktop or Laptop,Windows 10,Chrome 138.0.0.0,1536x864,1536x864,Temporal Distance Task,cb_08,73.0,temp_dist_trial,num_items,zn7si1,1.0,response,2_ITEM,1570.3000001907349,1565.7000000000116,1570.3000001907349,1570.3000001907349,1565.7000000000116,1570.3000001907349,1.0,0.0,0.0,,Click Response,2_count,5.0,object-49,temp_dist_trial,25.0,s_a_13_1,student_art,violin,8.0,unique,single,s_a_13_1.jpg,Student,$${counterbalance_group},,sub-81
Desktop or Laptop,Windows 10,Chrome 138.0.0.0,1536x864,1536x864,Temporal Distance Task,cb_08,73.0,temp_dist_trial,dist_items,qkpkxw,2.0,info,,15.600000190723224,0.0,15.600000190723224,15.600000190723224,0.0,15.600000190723224,1.0,0.0,0.0,,Slider,Slider,4.0,object-56,temp_dist_trial,25.0,s_a_13_1,student_art,violin,8.0,unique,single,s_a_13_1.jpg,Student,$${counterbalance_group},,sub-81
Desktop or Laptop,Windows 10,Chrome 138.0.0.0,1536x864,1536x864,Temporal Distance Task,cb_08,73.0,temp_dist_trial,dist_items,qkpkxw,2.0,continue,,1725.9999998092535,1715.2999999999884,1725.9999998092535,1725.9999998092535,1715.2999999999884,1725.9999998092535,1.0,0.0,0.0,,Click To Continue,Next button,7.0,object-60,temp_dist_trial,25.0,s_a_13_1,student_art,violin,8.0,unique,single,s_a_13_1.jpg,Student,$${counterbalance_group},,sub-81
Desktop or Laptop,Windows 10,Chrome 138.0.0.0,1536x864,1536x864,Temporal Distance Task,cb_08,73.0,temp_dist_trial,dist_items,qkpkxw,2.0,response,58,1232.2000000000114,1715.2999999999884,1731.7999999999884,1232.2000000000114,1715.2999999999884,1731.7999999999884,1.0,499.5999999999767,0.0,,Slider,Slider,4.0,object-56,temp_dist_trial,25.0,s_a_13_1,student_art,violin,8.0,unique,single,s_a_13_1.jpg,Student,$${counterbalance_group},,sub-81
Desktop or Laptop,Windows 10,Chrome 138.0.0.0,1536x864,1536x864,Temporal Distance Task,cb_08,74.0,temp_dist_trial,num_items,zn7si1,1.0,response,1_ITEM,1571.1999998092651,1565.7000000000116,1571.1999998092651,1571.1999998092651,1565.7000000000116,1571.1999998092651,1.0,0.0,0.0,,Click Response,1_count,3.0,object-46,temp_dist_trial,26.0,s_sh_13_1,student_shared,index cards,8.0,competing,single,s_sh_13_1.jpg,Student,$${counterbalance_group},,sub-81
Desktop or Laptop,Windows 10,Chrome 138.0.0.0,1536x864,1536x864,Temporal Distance Task,cb_08,75.0,temp_dist_trial,num_items,zn7si1,1.0,response,1_ITEM,1048.4999999999418,1032.1999999999532,1048.4999999999418,1048.4999999999418,1032.1999999999532,1048.4999999999418,1.0,0.0,0.0,,Click Response,1_count,3.0,object-46,temp_dist_trial,27.0,s_sh_15_1,student_shared,usb drive,8.0,competing,single,s_sh_15_1.jpg,Student,$${counterbalance_group},,sub-81
Desktop or Laptop,Windows 10,Chrome 138.0.0.0,1536x864,1536x864,Temporal Distance Task,cb_08,76.0,temp_dist_trial,num_items,zn7si1,1.0,response,1_ITEM,1747.1000001907232,1731.8999999999646,1747.1000001907232,1747.1000001907232,1731.8999999999646,1747.1000001907232,1.0,0.0,0.0,,Click Response,1_count,3.0,object-46,temp_dist_trial,28.0,s_sh_12_1,student_shared,binder,8.0,competing,single,s_sh_12_1.jpg,Student,$${counterbalance_group},,sub-81
Desktop or Laptop,Windows 10,Chrome 138.0.0.0,1536x864,1536x864,Temporal Distance Task,cb_08,77.0,temp_dist_trial,num_items,zn7si1,1.0,response,2_ITEM,1544.4000005722046,1531.7000000000116,1544.4000005722046,1544.4000005722046,1531.7000000000116,1544.4000005722046,1.0,0.0,0.0,,Click Response,2_count,5.0,object-49,temp_dist_trial,29.0,s_a_15_1,student_art,drum kit,8.0,unique,paired,s_a_15_1.jpg,Student,$${counterbalance_group},,sub-81
Desktop or Laptop,Windows 10,Chrome 138.0.0.0,1536x864,1536x864,Temporal Distance Task,cb_08,77.0,temp_dist_trial,dist_items,qkpkxw,2.0,info,,14.800000381481366,0.0,14.800000381481366,14.800000381481366,0.0,14.800000381481366,1.0,0.0,0.0,,Slider,Slider,4.0,object-56,temp_dist_trial,29.0,s_a_15_1,student_art,drum kit,8.0,unique,paired,s_a_15_1.jpg,Student,$${counterbalance_group},,sub-81
Desktop or Laptop,Windows 10,Chrome 138.0.0.0,1536x864,1536x864,Temporal Distance Task,cb_08,77.0,temp_dist_trial,dist_items,qkpkxw,2.0,continue,,1779.3999998092768,1765.0,1779.3999998092768,1779.3999998092768,1765.0,1779.3999998092768,1.0,0.0,0.0,,Click To Continue,Next button,7.0,object-60,temp_dist_trial,29.0,s_a_15_1,student_art,drum kit,8.0,unique,paired,s_a_15_1.jpg,Student,$${counterbalance_group},,sub-81
Desktop or Laptop,Windows 10,Chrome 138.0.0.0,1536x864,1536x864,Temporal Distance Task,cb_08,77.0,temp_dist_trial,dist_items,qkpkxw,2.0,response,58,1265.2000000000114,1765.0,1780.2000000000116,1265.2000000000114,1765.0,1780.2000000000116,1.0,515.0,0.0,,Slider,Slider,4.0,object-56,temp_dist_trial,29.0,s_a_15_1,student_art,drum kit,8.0,unique,paired,s_a_15_1.jpg,Student,$${counterbalance_group},,sub-81
Desktop or Laptop,Windows 10,Chrome 138.0.0.0,1536x864,1536x864,Temporal Distance Task,cb_08,78.0,temp_dist_trial,num_items,zn7si1,1.0,response,1_ITEM,2042.7000000000119,2031.6000000000354,2042.7000000000119,2042.7000000000119,2031.6000000000354,2042.7000000000119,1.0,0.0,0.0,,Click Response,1_count,3.0,object-46,temp_dist_trial,30.0,s_s_15_1,student_stem,jumper cables,8.0,unique,paired,s_s_15_1.jpg,Student,$${counterbalance_group},,sub-81
Desktop or Laptop,Windows 10,Chrome 138.0.0.0,1536x864,1536x864,Temporal Distance Task,cb_08,79.0,temp_dist_trial,num_items,zn7si1,1.0,response,1_ITEM,1281.6999999999534,1265.2999999999886,1281.6999999999534,1281.6999999999534,1265.2999999999886,1281.6999999999534,1.0,0.0,0.0,,Click Response,1_count,3.0,object-46,temp_dist_trial,31.0,s_sh_17_1,student_shared,wireless mouse,8.0,competing,paired,s_sh_17_1.jpg,Student,$${counterbalance_group},,sub-81
Desktop or Laptop,Windows 10,Chrome 138.0.0.0,1536x864,1536x864,Temporal Distance Task,cb_08,80.0,temp_dist_trial,num_items,zn7si1,1.0,response,2_ITEM,1223.1000001907232,1215.7999999999886,1223.1000001907232,1223.1000001907232,1215.7999999999886,1223.1000001907232,1.0,0.0,0.0,,Click Response,2_count,5.0,object-49,temp_dist_trial,32.0,s_s_10_1,student_stem,3d molecule,8.0,unique,paired,s_s_10_1.jpg,Student,$${counterbalance_group},,sub-81
Desktop or Laptop,Windows 10,Chrome 138.0.0.0,1536x864,1536x864,Temporal Distance Task,cb_08,80.0,temp_dist_trial,dist_items,qkpkxw,2.0,info,,14.799999999988358,0.0,14.799999999988358,14.799999999988358,0.0,14.799999999988358,1.0,0.0,0.0,,Slider,Slider,4.0,object-56,temp_dist_trial,32.0,s_s_10_1,student_stem,3d molecule,8.0,unique,paired,s_s_10_1.jpg,Student,$${counterbalance_group},,sub-81
Desktop or Laptop,Windows 10,Chrome 138.0.0.0,1536x864,1536x864,Temporal Distance Task,cb_08,80.0,temp_dist_trial,dist_items,qkpkxw,2.0,continue,,1270.900000381458,1265.5999999999767,1270.900000381458,1270.900000381458,1265.5999999999767,1270.900000381458,1.0,0.0,0.0,,Click To Continue,Next button,7.0,object-60,temp_dist_trial,32.0,s_s_10_1,student_stem,3d molecule,8.0,unique,paired,s_s_10_1.jpg,Student,$${counterbalance_group},,sub-81
Desktop or Laptop,Windows 10,Chrome 138.0.0.0,1536x864,1536x864,Temporal Distance Task,cb_08,80.0,temp_dist_trial,dist_items,qkpkxw,2.0,response,54,632.5,1265.5999999999767,1271.2999999999886,632.5,1265.5999999999767,1271.2999999999886,1.0,638.7999999999884,0.0,,Slider,Slider,4.0,object-56,temp_dist_trial,32.0,s_s_10_1,student_stem,3d molecule,8.0,unique,paired,s_s_10_1.jpg,Student,$${counterbalance_group},,sub-81
Desktop or Laptop,Windows 10,Chrome 138.0.0.0,1536x864,1536x864,Temporal Distance Task,cb_08,81.0,temp_dist_trial,num_items,zn7si1,1.0,response,2_ITEM,1108.7000000000116,1098.9000000000233,1108.7000000000116,1108.7000000000116,1098.9000000000233,1108.7000000000116,1.0,0.0,0.0,,Click Response,2_count,5.0,object-49,temp_dist_trial,33.0,s_sh_08_1,student_shared,post-its,8.0,competing,paired,s_sh_08_1.jpg,Student,$${counterbalance_group},,sub-81
Desktop or Laptop,Windows 10,Chrome 138.0.0.0,1536x864,1536x864,Temporal Distance Task,cb_08,81.0,temp_dist_trial,dist_items,qkpkxw,2.0,info,,12.299999999988358,0.0,12.299999999988358,12.299999999988358,0.0,12.299999999988358,1.0,0.0,0.0,,Slider,Slider,4.0,object-56,temp_dist_trial,33.0,s_sh_08_1,student_shared,post-its,8.0,competing,paired,s_sh_08_1.jpg,Student,$${counterbalance_group},,sub-81
Desktop or Laptop,Windows 10,Chrome 138.0.0.0,1536x864,1536x864,Temporal Distance Task,cb_08,81.0,temp_dist_trial,dist_items,qkpkxw,2.0,continue,,1108.2999999999884,1099.0,1108.2999999999884,1108.2999999999884,1099.0,1108.2999999999884,1.0,0.0,0.0,,Click To Continue,Next button,7.0,object-60,temp_dist_trial,33.0,s_sh_08_1,student_shared,post-its,8.0,competing,paired,s_sh_08_1.jpg,Student,$${counterbalance_group},,sub-81
Desktop or Laptop,Windows 10,Chrome 138.0.0.0,1536x864,1536x864,Temporal Distance Task,cb_08,81.0,temp_dist_trial,dist_items,qkpkxw,2.0,response,58,632.8999999999653,1099.0,1109.1000001907232,632.8999999999653,1099.0,1109.1000001907232,1.0,476.2000001907582,0.0,,Slider,Slider,4.0,object-56,temp_dist_trial,33.0,s_sh_08_1,student_shared,post-its,8.0,competing,paired,s_sh_08_1.jpg,Student,$${counterbalance_group},,sub-81
Desktop or Laptop,Windows 10,Chrome 138.0.0.0,1536x864,1536x864,Temporal Distance Task,cb_08,82.0,temp_dist_trial,num_items,zn7si1,1.0,response,1_ITEM,1231.1000001907232,1216.0,1231.1000001907232,1231.1000001907232,1216.0,1231.1000001907232,1.0,0.0,0.0,,Click Response,1_count,3.0,object-46,temp_dist_trial,34.0,s_s_17_1,student_stem,ring stand,8.0,unique,single,s_s_17_1.jpg,Student,$${counterbalance_group},,sub-81
Desktop or Laptop,Windows 10,Chrome 138.0.0.0,1536x864,1536x864,Temporal Distance Task,cb_08,83.0,temp_dist_trial,num_items,zn7si1,1.0,response,2_ITEM,1211.0000005721813,1198.7999999999886,1211.0000005721813,1211.0000005721813,1198.7999999999886,1211.0000005721813,1.0,0.0,0.0,,Click Response,2_count,5.0,object-49,temp_dist_trial,35.0,s_s_06_1,student_stem,calculator,8.0,unique,paired,s_s_06_1.jpg,Student,$${counterbalance_group},,sub-81
