Participant Device,Participant OS,Participant Browser,Participant Monitor Size,Participant Viewport Size,Task Name,Current Spreadsheet,Trial Number,Display,Screen,Screen ID,Screen Counter,Response Type,Response,Onset Time,Clock Time,Reaction Time,Absolute Onset Time,Absolute Clock Time,Absolute Reaction Time,Correct,Response Duration,Proportion,Tag,Component Name,Object Name,Object Number,Object ID,Spreadsheet: display,Spreadsheet: trial,Spreadsheet: stimulus_id,Spreadsheet: expected_goal,Spreadsheet: stimulus_name,Spreadsheet: c_group,Spreadsheet: condition,Spreadsheet: paired_status,Spreadsheet: stimulus_path,Spreadsheet: block_type,Manipulation: Spreadsheet,Store: enc_test_acc,sub_label
Desktop or Laptop,Windows 10,Chrome 138.0.0.0,1920x1080,1920x919,Temporal Distance Task,$${counterbalance_group},,,,,,info,BEGIN,,,,,,,0.0,,,,,,,,,,,,,,,,,,,,sub-23
Desktop or Laptop,Windows 10,Chrome 138.0.0.0,1920x1080,1920x919,Temporal Distance Task,cb_05,1.0,temp_instructions,intro_screen,3tnme7,1.0,continue,,10344.300000023844,10333.5,10344.300000023844,10344.300000023844,10333.5,10344.300000023844,1.0,0.0,0.0,,Click To Continue,Continue Button,4.0,object-29,temp_instructions,,,Student,,,,,,,,,sub-23
Desktop or Laptop,Windows 10,Chrome 138.0.0.0,1920x1080,1920x919,Temporal Distance Task,cb_05,1.0,temp_instructions,intro_screen_2,52v7ur,2.0,continue,,4149.9000000000015,4133.4000000000015,4149.9000000000015,4149.9000000000015,4133.4000000000015,4149.9000000000015,1.0,0.0,0.0,,Click To Continue,Continue Button,4.0,object-39,temp_instructions,,,Student,,,,,,,,,sub-23
Desktop or Laptop,Windows 10,Chrome 138.0.0.0,1920x1080,1920x919,Temporal Distance Task,cb_05,1.0,temp_instructions,intro_screen_3,i7lvwx,3.0,continue,,5802.000000047683,5800.0999999999985,5802.000000047683,5802.000000047683,5800.0999999999985,5802.000000047683,1.0,0.0,0.0,,Click To Continue,Continue Button,4.0,object-67,temp_instructions,,,Student,,,,,,,,,sub-23
Desktop or Laptop,Windows 10,Chrome 138.0.0.0,1920x1080,1920x919,Temporal Distance Task,cb_05,1.0,temp_instructions,test_q1,5ieqx1,4.0,response,choice_3,4828.300000023843,4816.799999999998,4828.300000023843,4828.300000023843,4816.799999999998,4828.300000023843,1.0,0.0,0.0,,Click Response,choice_3,5.0,object-345,temp_instructions,,,Student,,,,,,,,,sub-23
Desktop or Laptop,Windows 10,Chrome 138.0.0.0,1920x1080,1920x919,Temporal Distance Task,cb_05,1.0,temp_instructions,score_corr,7ilvjr,5.0,continue,,838.9000000000017,833.2000000000007,838.9000000000017,838.9000000000017,833.2000000000007,838.9000000000017,1.0,0.0,0.0,,Click To Continue,Continue Button,3.0,object-23,temp_instructions,,,Student,,,,,,,,,sub-23
Desktop or Laptop,Windows 10,Chrome 138.0.0.0,1920x1080,1920x919,Temporal Distance Task,cb_05,1.0,temp_eventStart,Screen 1,dgtyxe,1.0,continue,,3366.4000000476844,3350.2999999999993,3366.4000000476844,3366.4000000476844,3350.2999999999993,3366.4000000476844,1.0,0.0,0.0,,Click To Continue,Next Button,3.0,object-43,temp_eventStart,,,Student,,,,,,,,,sub-23
Desktop or Laptop,Windows 10,Chrome 138.0.0.0,1920x1080,1920x919,Temporal Distance Task,cb_05,1.0,temp_dist_trial,num_items,zn7si1,1.0,response,2_ITEM,1816.1000000476847,1799.9000000000015,1816.1000000476847,1816.1000000476847,1799.9000000000015,1816.1000000476847,1.0,0.0,0.0,,Click Response,2_count,5.0,object-49,temp_dist_trial,1.0,s_a_08_1,student_art,sewing machine,5.0,unique,paired,s_a_08_1.jpg,Student,,,sub-23
Desktop or Laptop,Windows 10,Chrome 138.0.0.0,1920x1080,1920x919,Temporal Distance Task,cb_05,1.0,temp_dist_trial,dist_items,qkpkxw,2.0,info,,9.19999999999709,0.0,9.19999999999709,9.19999999999709,0.0,9.19999999999709,1.0,0.0,0.0,,Slider,Slider,4.0,object-56,temp_dist_trial,1.0,s_a_08_1,student_art,sewing machine,5.0,unique,paired,s_a_08_1.jpg,Student,,,sub-23
Desktop or Laptop,Windows 10,Chrome 138.0.0.0,1920x1080,1920x919,Temporal Distance Task,cb_05,1.0,temp_dist_trial,dist_items,qkpkxw,2.0,continue,,5254.699999999997,5249.799999999996,5254.699999999997,5254.699999999997,5249.799999999996,5254.699999999997,1.0,0.0,0.0,,Click To Continue,Next button,7.0,object-60,temp_dist_trial,1.0,s_a_08_1,student_art,sewing machine,5.0,unique,paired,s_a_08_1.jpg,Student,,,sub-23
Desktop or Laptop,Windows 10,Chrome 138.0.0.0,1920x1080,1920x919,Temporal Distance Task,cb_05,1.0,temp_dist_trial,dist_items,qkpkxw,2.0,response,30,2383.0999999999985,5249.799999999996,5257.900000047682,2383.0999999999985,5249.799999999996,5257.900000047682,1.0,2874.800000047683,0.0,,Slider,Slider,4.0,object-56,temp_dist_trial,1.0,s_a_08_1,student_art,sewing machine,5.0,unique,paired,s_a_08_1.jpg,Student,,,sub-23
Desktop or Laptop,Windows 10,Chrome 138.0.0.0,1920x1080,1920x919,Temporal Distance Task,cb_05,2.0,temp_dist_trial,num_items,zn7si1,1.0,response,num_miss,3000.0,3000.0,3000.0,3000.0,3000.0,3000.0,1.0,0.0,0.0,num_miss_tag,Time Limit,screen,0.0,screen,temp_dist_trial,2.0,s_s_03_1,student_stem,petri dish,5.0,unique,paired,s_s_03_1.jpg,Student,,,sub-23
Desktop or Laptop,Windows 10,Chrome 138.0.0.0,1920x1080,1920x919,Temporal Distance Task,cb_05,3.0,temp_dist_trial,num_items,zn7si1,1.0,response,1_ITEM,395.4000000476808,383.59999999999854,395.4000000476808,395.4000000476808,383.59999999999854,395.4000000476808,1.0,0.0,0.0,,Click Response,1_count,3.0,object-46,temp_dist_trial,3.0,s_sh_02_1,student_shared,eraser,5.0,competing,paired,s_sh_02_1.jpg,Student,,,sub-23
Desktop or Laptop,Windows 10,Chrome 138.0.0.0,1920x1080,1920x919,Temporal Distance Task,cb_05,4.0,temp_dist_trial,num_items,zn7si1,1.0,response,2_ITEM,1627.6999999761608,1616.3000000000034,1627.6999999761608,1627.6999999761608,1616.3000000000034,1627.6999999761608,1.0,0.0,0.0,,Click Response,2_count,5.0,object-49,temp_dist_trial,4.0,s_a_01_1,student_art,paintbrush,5.0,unique,paired,s_a_01_1.jpg,Student,,,sub-23
Desktop or Laptop,Windows 10,Chrome 138.0.0.0,1920x1080,1920x919,Temporal Distance Task,cb_05,4.0,temp_dist_trial,dist_items,qkpkxw,2.0,info,,8.700000071527029,0.0,8.700000071527029,8.700000071527029,0.0,8.700000071527029,1.0,0.0,0.0,,Slider,Slider,4.0,object-56,temp_dist_trial,4.0,s_a_01_1,student_art,paintbrush,5.0,unique,paired,s_a_01_1.jpg,Student,,,sub-23
Desktop or Laptop,Windows 10,Chrome 138.0.0.0,1920x1080,1920x919,Temporal Distance Task,cb_05,4.0,temp_dist_trial,dist_items,qkpkxw,2.0,continue,,3802.1000000476847,3799.900000000001,3802.1000000476847,3802.1000000476847,3799.900000000001,3802.1000000476847,1.0,0.0,0.0,,Click To Continue,Next button,7.0,object-60,temp_dist_trial,4.0,s_a_01_1,student_art,paintbrush,5.0,unique,paired,s_a_01_1.jpg,Student,,,sub-23
Desktop or Laptop,Windows 10,Chrome 138.0.0.0,1920x1080,1920x919,Temporal Distance Task,cb_05,4.0,temp_dist_trial,dist_items,qkpkxw,2.0,response,32,1383.2000000000046,3799.900000000001,3802.79999997616,1383.2000000000046,3799.900000000001,3802.79999997616,1.0,2419.5999999761552,0.0,,Slider,Slider,4.0,object-56,temp_dist_trial,4.0,s_a_01_1,student_art,paintbrush,5.0,unique,paired,s_a_01_1.jpg,Student,,,sub-23
Desktop or Laptop,Windows 10,Chrome 138.0.0.0,1920x1080,1920x919,Temporal Distance Task,cb_05,5.0,temp_dist_trial,num_items,zn7si1,1.0,response,1_ITEM,1698.6000000238419,1683.4000000000015,1698.6000000238419,1698.6000000238419,1683.4000000000015,1698.6000000238419,1.0,0.0,0.0,,Click Response,1_count,3.0,object-46,temp_dist_trial,5.0,s_s_17_1,student_stem,ring stand,5.0,unique,paired,s_s_17_1.jpg,Student,,,sub-23
Desktop or Laptop,Windows 10,Chrome 138.0.0.0,1920x1080,1920x919,Temporal Distance Task,cb_05,6.0,temp_dist_trial,num_items,zn7si1,1.0,response,1_ITEM,1874.5999999761555,1866.6999999999966,1874.5999999761555,1874.5999999761555,1866.6999999999966,1874.5999999761555,1.0,0.0,0.0,,Click Response,1_count,3.0,object-46,temp_dist_trial,6.0,s_sh_11_1,student_shared,pencil case,5.0,competing,single,s_sh_11_1.jpg,Student,,,sub-23
Desktop or Laptop,Windows 10,Chrome 138.0.0.0,1920x1080,1920x919,Temporal Distance Task,cb_05,7.0,temp_dist_trial,num_items,zn7si1,1.0,response,2_ITEM,962.0999999761552,949.7999999999955,962.0999999761552,962.0999999761552,949.7999999999955,962.0999999761552,1.0,0.0,0.0,,Click Response,2_count,5.0,object-49,temp_dist_trial,7.0,s_a_07_1,student_art,yarn,5.0,unique,paired,s_a_07_1.jpg,Student,,,sub-23
Desktop or Laptop,Windows 10,Chrome 138.0.0.0,1920x1080,1920x919,Temporal Distance Task,cb_05,7.0,temp_dist_trial,dist_items,qkpkxw,2.0,info,,6.8000000476822615,0.0,6.8000000476822615,6.8000000476822615,0.0,6.8000000476822615,1.0,0.0,0.0,,Slider,Slider,4.0,object-56,temp_dist_trial,7.0,s_a_07_1,student_art,yarn,5.0,unique,paired,s_a_07_1.jpg,Student,,,sub-23
Desktop or Laptop,Windows 10,Chrome 138.0.0.0,1920x1080,1920x919,Temporal Distance Task,cb_05,7.0,temp_dist_trial,dist_items,qkpkxw,2.0,continue,,2631.999999976157,2616.400000000001,2631.999999976157,2631.999999976157,2616.400000000001,2631.999999976157,1.0,0.0,0.0,,Click To Continue,Next button,7.0,object-60,temp_dist_trial,7.0,s_a_07_1,student_art,yarn,5.0,unique,paired,s_a_07_1.jpg,Student,,,sub-23
Desktop or Laptop,Windows 10,Chrome 138.0.0.0,1920x1080,1920x919,Temporal Distance Task,cb_05,7.0,temp_dist_trial,dist_items,qkpkxw,2.0,response,23,1916.299999999996,2616.400000000001,2632.5999999999985,1916.299999999996,2616.400000000001,2632.5999999999985,1.0,716.3000000000029,0.0,,Slider,Slider,4.0,object-56,temp_dist_trial,7.0,s_a_07_1,student_art,yarn,5.0,unique,paired,s_a_07_1.jpg,Student,,,sub-23
Desktop or Laptop,Windows 10,Chrome 138.0.0.0,1920x1080,1920x919,Temporal Distance Task,cb_05,8.0,temp_dist_trial,num_items,zn7si1,1.0,response,2_ITEM,1658.0000000715231,1649.8999999999942,1658.0000000715231,1658.0000000715231,1649.8999999999942,1658.0000000715231,1.0,0.0,0.0,,Click Response,2_count,5.0,object-49,temp_dist_trial,8.0,s_a_13_1,student_art,violin,5.0,unique,paired,s_a_13_1.jpg,Student,,,sub-23
Desktop or Laptop,Windows 10,Chrome 138.0.0.0,1920x1080,1920x919,Temporal Distance Task,cb_05,8.0,temp_dist_trial,dist_items,qkpkxw,2.0,info,,6.800000071525574,0.0,6.800000071525574,6.800000071525574,0.0,6.800000071525574,1.0,0.0,0.0,,Slider,Slider,4.0,object-56,temp_dist_trial,8.0,s_a_13_1,student_art,violin,5.0,unique,paired,s_a_13_1.jpg,Student,,,sub-23
Desktop or Laptop,Windows 10,Chrome 138.0.0.0,1920x1080,1920x919,Temporal Distance Task,cb_05,8.0,temp_dist_trial,dist_items,qkpkxw,2.0,continue,,2112.200000047684,2099.900000000001,2112.200000047684,2112.200000047684,2099.900000000001,2112.200000047684,1.0,0.0,0.0,,Click To Continue,Next button,7.0,object-60,temp_dist_trial,8.0,s_a_13_1,student_art,violin,5.0,unique,paired,s_a_13_1.jpg,Student,,,sub-23
Desktop or Laptop,Windows 10,Chrome 138.0.0.0,1920x1080,1920x919,Temporal Distance Task,cb_05,8.0,temp_dist_trial,dist_items,qkpkxw,2.0,response,78,1266.3000000000031,2099.900000000001,2116.6000000000063,1266.3000000000031,2099.900000000001,2116.6000000000063,1.0,850.3000000000029,0.0,,Slider,Slider,4.0,object-56,temp_dist_trial,8.0,s_a_13_1,student_art,violin,5.0,unique,paired,s_a_13_1.jpg,Student,,,sub-23
Desktop or Laptop,Windows 10,Chrome 138.0.0.0,1920x1080,1920x919,Temporal Distance Task,cb_05,9.0,temp_dist_trial,num_items,zn7si1,1.0,response,2_ITEM,1711.3000000476825,1699.7999999999954,1711.3000000476825,1711.3000000476825,1699.7999999999954,1711.3000000476825,1.0,0.0,0.0,,Click Response,2_count,5.0,object-49,temp_dist_trial,9.0,s_sh_17_1,student_shared,wireless mouse,5.0,competing,paired,s_sh_17_1.jpg,Student,,,sub-23
Desktop or Laptop,Windows 10,Chrome 138.0.0.0,1920x1080,1920x919,Temporal Distance Task,cb_05,9.0,temp_dist_trial,dist_items,qkpkxw,2.0,info,,4.800000071525575,0.0,4.800000071525575,4.800000071525575,0.0,4.800000071525575,1.0,0.0,0.0,,Slider,Slider,4.0,object-56,temp_dist_trial,9.0,s_sh_17_1,student_shared,wireless mouse,5.0,competing,paired,s_sh_17_1.jpg,Student,,,sub-23
Desktop or Laptop,Windows 10,Chrome 138.0.0.0,1920x1080,1920x919,Temporal Distance Task,cb_05,9.0,temp_dist_trial,dist_items,qkpkxw,2.0,continue,,2116.5,2100.0,2116.5,2116.5,2100.0,2116.5,1.0,0.0,0.0,,Click To Continue,Next button,7.0,object-60,temp_dist_trial,9.0,s_sh_17_1,student_shared,wireless mouse,5.0,competing,paired,s_sh_17_1.jpg,Student,,,sub-23
Desktop or Laptop,Windows 10,Chrome 138.0.0.0,1920x1080,1920x919,Temporal Distance Task,cb_05,9.0,temp_dist_trial,dist_items,qkpkxw,2.0,response,60,1216.5,2100.0,2116.800000000003,1216.5,2100.0,2116.800000000003,1.0,900.3000000000029,0.0,,Slider,Slider,4.0,object-56,temp_dist_trial,9.0,s_sh_17_1,student_shared,wireless mouse,5.0,competing,paired,s_sh_17_1.jpg,Student,,,sub-23
Desktop or Laptop,Windows 10,Chrome 138.0.0.0,1920x1080,1920x919,Temporal Distance Task,cb_05,10.0,temp_dist_trial,num_items,zn7si1,1.0,response,1_ITEM,1576.8000000715256,1566.8999999999942,1576.8000000715256,1576.8000000715256,1566.8999999999942,1576.8000000715256,1.0,0.0,0.0,,Click Response,1_count,3.0,object-46,temp_dist_trial,10.0,s_s_05_1,student_stem,lab goggles,5.0,unique,single,s_s_05_1.jpg,Student,,,sub-23
Desktop or Laptop,Windows 10,Chrome 138.0.0.0,1920x1080,1920x919,Temporal Distance Task,cb_05,11.0,temp_dist_trial,num_items,zn7si1,1.0,response,2_ITEM,1178.500000023836,1166.5,1178.500000023836,1178.500000023836,1166.5,1178.500000023836,1.0,0.0,0.0,,Click Response,2_count,5.0,object-49,temp_dist_trial,11.0,s_s_16_1,student_stem,toolbox,5.0,unique,paired,s_s_16_1.jpg,Student,,,sub-23
Desktop or Laptop,Windows 10,Chrome 138.0.0.0,1920x1080,1920x919,Temporal Distance Task,cb_05,11.0,temp_dist_trial,dist_items,qkpkxw,2.0,info,,6.9000000476808045,0.0,6.9000000476808045,6.9000000476808045,0.0,6.9000000476808045,1.0,0.0,0.0,,Slider,Slider,4.0,object-56,temp_dist_trial,11.0,s_s_16_1,student_stem,toolbox,5.0,unique,paired,s_s_16_1.jpg,Student,,,sub-23
Desktop or Laptop,Windows 10,Chrome 138.0.0.0,1920x1080,1920x919,Temporal Distance Task,cb_05,11.0,temp_dist_trial,dist_items,qkpkxw,2.0,continue,,1601.4000000476804,1599.8999999999942,1601.4000000476804,1601.4000000476804,1599.8999999999942,1601.4000000476804,1.0,0.0,0.0,,Click To Continue,Next button,7.0,object-60,temp_dist_trial,11.0,s_s_16_1,student_stem,toolbox,5.0,unique,paired,s_s_16_1.jpg,Student,,,sub-23
Desktop or Laptop,Windows 10,Chrome 138.0.0.0,1920x1080,1920x919,Temporal Distance Task,cb_05,11.0,temp_dist_trial,dist_items,qkpkxw,2.0,response,30,850.0,1599.8999999999942,1602.0000000715231,850.0,1599.8999999999942,1602.0000000715231,1.0,752.0000000715227,0.0,,Slider,Slider,4.0,object-56,temp_dist_trial,11.0,s_s_16_1,student_stem,toolbox,5.0,unique,paired,s_s_16_1.jpg,Student,,,sub-23
Desktop or Laptop,Windows 10,Chrome 138.0.0.0,1920x1080,1920x919,Temporal Distance Task,cb_05,12.0,temp_dist_trial,num_items,zn7si1,1.0,response,2_ITEM,1611.8000000000034,1600.1000000000058,1611.8000000000034,1611.8000000000034,1600.1000000000058,1611.8000000000034,1.0,0.0,0.0,,Click Response,2_count,5.0,object-49,temp_dist_trial,12.0,s_sh_24_1,student_shared,desk organizer,5.0,competing,single,s_sh_24_1.jpg,Student,,,sub-23
Desktop or Laptop,Windows 10,Chrome 138.0.0.0,1920x1080,1920x919,Temporal Distance Task,cb_05,12.0,temp_dist_trial,dist_items,qkpkxw,2.0,info,,6.599999976155233,0.0,6.599999976155233,6.599999976155233,0.0,6.599999976155233,1.0,0.0,0.0,,Slider,Slider,4.0,object-56,temp_dist_trial,12.0,s_sh_24_1,student_shared,desk organizer,5.0,competing,single,s_sh_24_1.jpg,Student,,,sub-23
Desktop or Laptop,Windows 10,Chrome 138.0.0.0,1920x1080,1920x919,Temporal Distance Task,cb_05,12.0,temp_dist_trial,dist_items,qkpkxw,2.0,continue,,1837.5000000715231,1833.1999999999966,1837.5000000715231,1837.5000000715231,1833.1999999999966,1837.5000000715231,1.0,0.0,0.0,,Click To Continue,Next button,7.0,object-60,temp_dist_trial,12.0,s_sh_24_1,student_shared,desk organizer,5.0,competing,single,s_sh_24_1.jpg,Student,,,sub-23
Desktop or Laptop,Windows 10,Chrome 138.0.0.0,1920x1080,1920x919,Temporal Distance Task,cb_05,12.0,temp_dist_trial,dist_items,qkpkxw,2.0,response,62,950.0999999999913,1833.1999999999966,1837.9000000476806,950.0999999999913,1833.1999999999966,1837.9000000476806,1.0,887.8000000476895,0.0,,Slider,Slider,4.0,object-56,temp_dist_trial,12.0,s_sh_24_1,student_shared,desk organizer,5.0,competing,single,s_sh_24_1.jpg,Student,,,sub-23
Desktop or Laptop,Windows 10,Chrome 138.0.0.0,1920x1080,1920x919,Temporal Distance Task,cb_05,13.0,temp_dist_trial,num_items,zn7si1,1.0,response,2_ITEM,1130.600000023842,1116.8999999999942,1130.600000023842,1130.600000023842,1116.8999999999942,1130.600000023842,1.0,0.0,0.0,,Click Response,2_count,5.0,object-49,temp_dist_trial,13.0,s_a_15_1,student_art,drum kit,5.0,unique,paired,s_a_15_1.jpg,Student,,,sub-23
Desktop or Laptop,Windows 10,Chrome 138.0.0.0,1920x1080,1920x919,Temporal Distance Task,cb_05,13.0,temp_dist_trial,dist_items,qkpkxw,2.0,info,,5.700000023847679,0.0,5.700000023847679,5.700000023847679,0.0,5.700000023847679,1.0,0.0,0.0,,Slider,Slider,4.0,object-56,temp_dist_trial,13.0,s_a_15_1,student_art,drum kit,5.0,unique,paired,s_a_15_1.jpg,Student,,,sub-23
Desktop or Laptop,Windows 10,Chrome 138.0.0.0,1920x1080,1920x919,Temporal Distance Task,cb_05,13.0,temp_dist_trial,dist_items,qkpkxw,2.0,continue,,1309.8000000476895,1299.9000000000087,1309.8000000476895,1309.8000000476895,1299.9000000000087,1309.8000000476895,1.0,0.0,0.0,,Click To Continue,Next button,7.0,object-60,temp_dist_trial,13.0,s_a_15_1,student_art,drum kit,5.0,unique,paired,s_a_15_1.jpg,Student,,,sub-23
Desktop or Laptop,Windows 10,Chrome 138.0.0.0,1920x1080,1920x919,Temporal Distance Task,cb_05,13.0,temp_dist_trial,dist_items,qkpkxw,2.0,response,86,600.0,1299.9000000000087,1310.4000000715316,600.0,1299.9000000000087,1310.4000000715316,1.0,710.4000000715314,0.0,,Slider,Slider,4.0,object-56,temp_dist_trial,13.0,s_a_15_1,student_art,drum kit,5.0,unique,paired,s_a_15_1.jpg,Student,,,sub-23
Desktop or Laptop,Windows 10,Chrome 138.0.0.0,1920x1080,1920x919,Temporal Distance Task,cb_05,14.0,temp_dist_trial,num_items,zn7si1,1.0,response,1_ITEM,1416.0999999761555,1400.099999999991,1416.0999999761555,1416.0999999761555,1400.099999999991,1416.0999999761555,1.0,0.0,0.0,,Click Response,1_count,3.0,object-46,temp_dist_trial,14.0,s_a_06_1,student_art,pastels,5.0,unique,paired,s_a_06_1.jpg,Student,,,sub-23
Desktop or Laptop,Windows 10,Chrome 138.0.0.0,1920x1080,1920x919,Temporal Distance Task,cb_05,15.0,temp_dist_trial,num_items,zn7si1,1.0,response,2_ITEM,962.1000000000058,950.0,962.1000000000058,962.1000000000058,950.0,962.1000000000058,1.0,0.0,0.0,,Click Response,2_count,5.0,object-49,temp_dist_trial,15.0,s_sh_20_1,student_shared,tape,5.0,competing,paired,s_sh_20_1.jpg,Student,,,sub-23
Desktop or Laptop,Windows 10,Chrome 138.0.0.0,1920x1080,1920x919,Temporal Distance Task,cb_05,15.0,temp_dist_trial,dist_items,qkpkxw,2.0,info,,6.8000000000029095,0.0,6.8000000000029095,6.8000000000029095,0.0,6.8000000000029095,1.0,0.0,0.0,,Slider,Slider,4.0,object-56,temp_dist_trial,15.0,s_sh_20_1,student_shared,tape,5.0,competing,paired,s_sh_20_1.jpg,Student,,,sub-23
Desktop or Laptop,Windows 10,Chrome 138.0.0.0,1920x1080,1920x919,Temporal Distance Task,cb_05,15.0,temp_dist_trial,dist_items,qkpkxw,2.0,continue,,2252.0000000476866,2249.6000000000063,2252.0000000476866,2252.0000000476866,2249.6000000000063,2252.0000000476866,1.0,0.0,0.0,,Click To Continue,Next button,7.0,object-60,temp_dist_trial,15.0,s_sh_20_1,student_shared,tape,5.0,competing,paired,s_sh_20_1.jpg,Student,,,sub-23
Desktop or Laptop,Windows 10,Chrome 138.0.0.0,1920x1080,1920x919,Temporal Distance Task,cb_05,15.0,temp_dist_trial,dist_items,qkpkxw,2.0,response,46,1566.5,2249.6000000000063,2252.800000000003,1566.5,2249.6000000000063,2252.800000000003,1.0,686.3000000000029,0.0,,Slider,Slider,4.0,object-56,temp_dist_trial,15.0,s_sh_20_1,student_shared,tape,5.0,competing,paired,s_sh_20_1.jpg,Student,,,sub-23
Desktop or Laptop,Windows 10,Chrome 138.0.0.0,1920x1080,1920x919,Temporal Distance Task,cb_05,16.0,temp_dist_trial,num_items,zn7si1,1.0,response,2_ITEM,1091.300000023839,1083.5,1091.300000023839,1091.300000023839,1083.5,1091.300000023839,1.0,0.0,0.0,,Click Response,2_count,5.0,object-49,temp_dist_trial,16.0,s_a_03_1,student_art,palette,5.0,unique,paired,s_a_03_1.jpg,Student,,,sub-23
Desktop or Laptop,Windows 10,Chrome 138.0.0.0,1920x1080,1920x919,Temporal Distance Task,cb_05,16.0,temp_dist_trial,dist_items,qkpkxw,2.0,info,,7.1999999999970905,0.0,7.1999999999970905,7.1999999999970905,0.0,7.1999999999970905,1.0,0.0,0.0,,Slider,Slider,4.0,object-56,temp_dist_trial,16.0,s_a_03_1,student_art,palette,5.0,unique,paired,s_a_03_1.jpg,Student,,,sub-23
Desktop or Laptop,Windows 10,Chrome 138.0.0.0,1920x1080,1920x919,Temporal Distance Task,cb_05,16.0,temp_dist_trial,dist_items,qkpkxw,2.0,continue,,1866.3999999999944,1849.8999999999944,1866.3999999999944,1866.3999999999944,1849.8999999999944,1866.3999999999944,1.0,0.0,0.0,,Click To Continue,Next button,7.0,object-60,temp_dist_trial,16.0,s_a_03_1,student_art,palette,5.0,unique,paired,s_a_03_1.jpg,Student,,,sub-23
Desktop or Laptop,Windows 10,Chrome 138.0.0.0,1920x1080,1920x919,Temporal Distance Task,cb_05,16.0,temp_dist_trial,dist_items,qkpkxw,2.0,response,69,1316.6999999999969,1849.8999999999944,1866.3999999999944,1316.6999999999969,1849.8999999999944,1866.3999999999944,1.0,549.6999999999971,0.0,,Slider,Slider,4.0,object-56,temp_dist_trial,16.0,s_a_03_1,student_art,palette,5.0,unique,paired,s_a_03_1.jpg,Student,,,sub-23
Desktop or Laptop,Windows 10,Chrome 138.0.0.0,1920x1080,1920x919,Temporal Distance Task,cb_05,17.0,temp_dist_trial,num_items,zn7si1,1.0,response,2_ITEM,1912.0000000476864,1899.900000000009,1912.0000000476864,1912.0000000476864,1899.900000000009,1912.0000000476864,1.0,0.0,0.0,,Click Response,2_count,5.0,object-49,temp_dist_trial,17.0,s_sh_16_1,student_shared,stapler,5.0,competing,paired,s_sh_16_1.jpg,Student,,,sub-23
Desktop or Laptop,Windows 10,Chrome 138.0.0.0,1920x1080,1920x919,Temporal Distance Task,cb_05,17.0,temp_dist_trial,dist_items,qkpkxw,2.0,info,,3.900000023844768,0.0,3.900000023844768,3.900000023844768,0.0,3.900000023844768,1.0,0.0,0.0,,Slider,Slider,4.0,object-56,temp_dist_trial,17.0,s_sh_16_1,student_shared,stapler,5.0,competing,paired,s_sh_16_1.jpg,Student,,,sub-23
Desktop or Laptop,Windows 10,Chrome 138.0.0.0,1920x1080,1920x919,Temporal Distance Task,cb_05,17.0,temp_dist_trial,dist_items,qkpkxw,2.0,continue,,1865.9000000238445,1850.0,1865.9000000238445,1865.9000000238445,1850.0,1865.9000000238445,1.0,0.0,0.0,,Click To Continue,Next button,7.0,object-60,temp_dist_trial,17.0,s_sh_16_1,student_shared,stapler,5.0,competing,paired,s_sh_16_1.jpg,Student,,,sub-23
Desktop or Laptop,Windows 10,Chrome 138.0.0.0,1920x1080,1920x919,Temporal Distance Task,cb_05,17.0,temp_dist_trial,dist_items,qkpkxw,2.0,response,71,900.1999999999971,1850.0,1866.4000000238445,900.1999999999971,1850.0,1866.4000000238445,1.0,966.2000000238477,0.0,,Slider,Slider,4.0,object-56,temp_dist_trial,17.0,s_sh_16_1,student_shared,stapler,5.0,competing,paired,s_sh_16_1.jpg,Student,,,sub-23
Desktop or Laptop,Windows 10,Chrome 138.0.0.0,1920x1080,1920x919,Temporal Distance Task,cb_05,18.0,temp_dist_trial,num_items,zn7si1,1.0,response,1_ITEM,1067.699999976161,1066.6000000000058,1067.699999976161,1067.699999976161,1066.6000000000058,1067.699999976161,1.0,0.0,0.0,,Click Response,1_count,3.0,object-46,temp_dist_trial,18.0,s_sh_14_1,student_shared,printer,5.0,competing,single,s_sh_14_1.jpg,Student,,,sub-23
Desktop or Laptop,Windows 10,Chrome 138.0.0.0,1920x1080,1920x919,Temporal Distance Task,cb_05,19.0,temp_dist_trial,num_items,zn7si1,1.0,response,1_ITEM,1359.3999999999942,1350.1999999999969,1359.3999999999942,1359.3999999999942,1350.1999999999969,1359.3999999999942,1.0,0.0,0.0,,Click Response,1_count,3.0,object-46,temp_dist_trial,19.0,s_sh_19_1,student_shared,portable plastic drawer,5.0,competing,paired,s_sh_19_1.jpg,Student,,,sub-23
Desktop or Laptop,Windows 10,Chrome 138.0.0.0,1920x1080,1920x919,Temporal Distance Task,cb_05,20.0,temp_dist_trial,num_items,zn7si1,1.0,response,1_ITEM,1289.999999976164,1283.5,1289.999999976164,1289.999999976164,1283.5,1289.999999976164,1.0,0.0,0.0,,Click Response,1_count,3.0,object-46,temp_dist_trial,20.0,s_s_04_1,student_stem,bunsen burner,5.0,unique,single,s_s_04_1.jpg,Student,,,sub-23
Desktop or Laptop,Windows 10,Chrome 138.0.0.0,1920x1080,1920x919,Temporal Distance Task,cb_05,21.0,temp_dist_trial,num_items,zn7si1,1.0,response,2_ITEM,1088.5999999761552,1083.5,1088.5999999761552,1088.5999999761552,1083.5,1088.5999999761552,1.0,0.0,0.0,,Click Response,2_count,5.0,object-49,temp_dist_trial,21.0,s_s_14_1,student_stem,funnel,5.0,unique,paired,s_s_14_1.jpg,Student,,,sub-23
Desktop or Laptop,Windows 10,Chrome 138.0.0.0,1920x1080,1920x919,Temporal Distance Task,cb_05,21.0,temp_dist_trial,dist_items,qkpkxw,2.0,info,,7.099999976155233,0.0,7.099999976155233,7.099999976155233,0.0,7.099999976155233,1.0,0.0,0.0,,Slider,Slider,4.0,object-56,temp_dist_trial,21.0,s_s_14_1,student_stem,funnel,5.0,unique,paired,s_s_14_1.jpg,Student,,,sub-23
Desktop or Laptop,Windows 10,Chrome 138.0.0.0,1920x1080,1920x919,Temporal Distance Task,cb_05,21.0,temp_dist_trial,dist_items,qkpkxw,2.0,continue,,2568.900000047681,2566.5999999999913,2568.900000047681,2568.900000047681,2566.5999999999913,2568.900000047681,1.0,0.0,0.0,,Click To Continue,Next button,7.0,object-60,temp_dist_trial,21.0,s_s_14_1,student_stem,funnel,5.0,unique,paired,s_s_14_1.jpg,Student,,,sub-23
Desktop or Laptop,Windows 10,Chrome 138.0.0.0,1920x1080,1920x919,Temporal Distance Task,cb_05,21.0,temp_dist_trial,dist_items,qkpkxw,2.0,response,38,2033.5999999999915,2566.5999999999913,2569.300000023839,2033.5999999999915,2566.5999999999913,2569.300000023839,1.0,535.7000000238477,0.0,,Slider,Slider,4.0,object-56,temp_dist_trial,21.0,s_s_14_1,student_stem,funnel,5.0,unique,paired,s_s_14_1.jpg,Student,,,sub-23
Desktop or Laptop,Windows 10,Chrome 138.0.0.0,1920x1080,1920x919,Temporal Distance Task,cb_05,22.0,temp_dist_trial,num_items,zn7si1,1.0,response,1_ITEM,1172.4000000715316,1166.7000000000114,1172.4000000715316,1172.4000000715316,1166.7000000000114,1172.4000000715316,1.0,0.0,0.0,,Click Response,1_count,3.0,object-46,temp_dist_trial,22.0,s_sh_15_1,student_shared,usb drive,5.0,competing,single,s_sh_15_1.jpg,Student,,,sub-23
Desktop or Laptop,Windows 10,Chrome 138.0.0.0,1920x1080,1920x919,Temporal Distance Task,cb_05,23.0,temp_dist_trial,num_items,zn7si1,1.0,response,1_ITEM,1254.2000000476835,1250.1999999999969,1254.2000000476835,1254.2000000476835,1250.1999999999969,1254.2000000476835,1.0,0.0,0.0,,Click Response,1_count,3.0,object-46,temp_dist_trial,23.0,s_sh_10_1,student_shared,scissors,5.0,competing,single,s_sh_10_1.jpg,Student,,,sub-23
Desktop or Laptop,Windows 10,Chrome 138.0.0.0,1920x1080,1920x919,Temporal Distance Task,cb_05,24.0,temp_dist_trial,num_items,zn7si1,1.0,response,1_ITEM,1330.4000000238448,1317.0,1330.4000000238448,1330.4000000238448,1317.0,1330.4000000238448,1.0,0.0,0.0,,Click Response,1_count,3.0,object-46,temp_dist_trial,24.0,s_s_12_1,student_stem,robotic arm,5.0,unique,single,s_s_12_1.jpg,Student,,,sub-23
Desktop or Laptop,Windows 10,Chrome 138.0.0.0,1920x1080,1920x919,Temporal Distance Task,cb_05,25.0,temp_dist_trial,num_items,zn7si1,1.0,response,2_ITEM,1015.2999999761523,1000.0,1015.2999999761523,1015.2999999761523,1000.0,1015.2999999761523,1.0,0.0,0.0,,Click Response,2_count,5.0,object-49,temp_dist_trial,25.0,s_sh_23_1,student_shared,ballpoint pen,5.0,competing,paired,s_sh_23_1.jpg,Student,,,sub-23
Desktop or Laptop,Windows 10,Chrome 138.0.0.0,1920x1080,1920x919,Temporal Distance Task,cb_05,25.0,temp_dist_trial,dist_items,qkpkxw,2.0,info,,5.600000000005821,0.0,5.600000000005821,5.600000000005821,0.0,5.600000000005821,1.0,0.0,0.0,,Slider,Slider,4.0,object-56,temp_dist_trial,25.0,s_sh_23_1,student_shared,ballpoint pen,5.0,competing,paired,s_sh_23_1.jpg,Student,,,sub-23
Desktop or Laptop,Windows 10,Chrome 138.0.0.0,1920x1080,1920x919,Temporal Distance Task,cb_05,25.0,temp_dist_trial,dist_items,qkpkxw,2.0,continue,,3307.6000000000067,3299.900000000009,3307.6000000000067,3307.6000000000067,3299.900000000009,3307.6000000000067,1.0,0.0,0.0,,Click To Continue,Next button,7.0,object-60,temp_dist_trial,25.0,s_sh_23_1,student_shared,ballpoint pen,5.0,competing,paired,s_sh_23_1.jpg,Student,,,sub-23
Desktop or Laptop,Windows 10,Chrome 138.0.0.0,1920x1080,1920x919,Temporal Distance Task,cb_05,25.0,temp_dist_trial,dist_items,qkpkxw,2.0,response,41,2666.5,3299.900000000009,3312.700000023848,2666.5,3299.900000000009,3312.700000023848,1.0,646.2000000238477,0.0,,Slider,Slider,4.0,object-56,temp_dist_trial,25.0,s_sh_23_1,student_shared,ballpoint pen,5.0,competing,paired,s_sh_23_1.jpg,Student,,,sub-23
Desktop or Laptop,Windows 10,Chrome 138.0.0.0,1920x1080,1920x919,Temporal Distance Task,cb_05,26.0,temp_dist_trial,num_items,zn7si1,1.0,response,1_ITEM,1592.5000000715231,1583.3999999999942,1592.5000000715231,1592.5000000715231,1583.3999999999942,1592.5000000715231,1.0,0.0,0.0,,Click Response,1_count,3.0,object-46,temp_dist_trial,26.0,s_sh_06_1,student_shared,clipboard,5.0,competing,single,s_sh_06_1.jpg,Student,,,sub-23
Desktop or Laptop,Windows 10,Chrome 138.0.0.0,1920x1080,1920x919,Temporal Distance Task,cb_05,27.0,temp_dist_trial,num_items,zn7si1,1.0,response,1_ITEM,1122.699999976161,1116.5,1122.699999976161,1122.699999976161,1116.5,1122.699999976161,1.0,0.0,0.0,,Click Response,1_count,3.0,object-46,temp_dist_trial,27.0,s_s_18_1,student_stem,brain model,5.0,unique,single,s_s_18_1.jpg,Student,,,sub-23
Desktop or Laptop,Windows 10,Chrome 138.0.0.0,1920x1080,1920x919,Temporal Distance Task,cb_05,28.0,temp_dist_trial,num_items,zn7si1,1.0,response,2_ITEM,1076.0,1066.6000000000058,1076.0,1076.0,1066.6000000000058,1076.0,1.0,0.0,0.0,,Click Response,2_count,5.0,object-49,temp_dist_trial,28.0,s_sh_08_1,student_shared,post-its,5.0,competing,paired,s_sh_08_1.jpg,Student,,,sub-23
Desktop or Laptop,Windows 10,Chrome 138.0.0.0,1920x1080,1920x919,Temporal Distance Task,cb_05,28.0,temp_dist_trial,dist_items,qkpkxw,2.0,info,,5.799999976152321,0.0,5.799999976152321,5.799999976152321,0.0,5.799999976152321,1.0,0.0,0.0,,Slider,Slider,4.0,object-56,temp_dist_trial,28.0,s_sh_08_1,student_shared,post-its,5.0,competing,paired,s_sh_08_1.jpg,Student,,,sub-23
Desktop or Laptop,Windows 10,Chrome 138.0.0.0,1920x1080,1920x919,Temporal Distance Task,cb_05,28.0,temp_dist_trial,dist_items,qkpkxw,2.0,continue,,3721.7000000715198,3716.699999999997,3721.7000000715198,3721.7000000715198,3716.699999999997,3721.7000000715198,1.0,0.0,0.0,,Click To Continue,Next button,7.0,object-60,temp_dist_trial,28.0,s_sh_08_1,student_shared,post-its,5.0,competing,paired,s_sh_08_1.jpg,Student,,,sub-23
Desktop or Laptop,Windows 10,Chrome 138.0.0.0,1920x1080,1920x919,Temporal Distance Task,cb_05,28.0,temp_dist_trial,dist_items,qkpkxw,2.0,response,16,2599.8999999999937,3716.699999999997,3722.2000000715198,2599.8999999999937,3716.699999999997,3722.2000000715198,1.0,1122.3000000715256,0.0,,Slider,Slider,4.0,object-56,temp_dist_trial,28.0,s_sh_08_1,student_shared,post-its,5.0,competing,paired,s_sh_08_1.jpg,Student,,,sub-23
Desktop or Laptop,Windows 10,Chrome 138.0.0.0,1920x1080,1920x919,Temporal Distance Task,cb_05,29.0,temp_dist_trial,num_items,zn7si1,1.0,response,1_ITEM,1395.6999999999966,1383.3999999999942,1395.6999999999966,1395.6999999999966,1383.3999999999942,1395.6999999999966,1.0,0.0,0.0,,Click Response,1_count,3.0,object-46,temp_dist_trial,29.0,s_a_20_1,student_art,pin cushion,5.0,unique,single,s_a_20_1.jpg,Student,,,sub-23
Desktop or Laptop,Windows 10,Chrome 138.0.0.0,1920x1080,1920x919,Temporal Distance Task,cb_05,30.0,temp_dist_trial,num_items,zn7si1,1.0,response,1_ITEM,981.899999976158,966.8000000000028,981.899999976158,981.899999976158,966.8000000000028,981.899999976158,1.0,0.0,0.0,,Click Response,1_count,3.0,object-46,temp_dist_trial,30.0,s_s_13_1,student_stem,telescope,5.0,unique,paired,s_s_13_1.jpg,Student,,,sub-23
Desktop or Laptop,Windows 10,Chrome 138.0.0.0,1920x1080,1920x919,Temporal Distance Task,cb_05,31.0,temp_dist_trial,num_items,zn7si1,1.0,response,1_ITEM,1205.1999999999969,1200.0999999999913,1205.1999999999969,1205.1999999999969,1200.0999999999913,1205.1999999999969,1.0,0.0,0.0,,Click Response,1_count,3.0,object-46,temp_dist_trial,31.0,s_sh_13_1,student_shared,index cards,5.0,competing,single,s_sh_13_1.jpg,Student,,,sub-23
Desktop or Laptop,Windows 10,Chrome 138.0.0.0,1920x1080,1920x919,Temporal Distance Task,cb_05,32.0,temp_dist_trial,num_items,zn7si1,1.0,response,2_ITEM,1029.5000000476866,1016.8000000000028,1029.5000000476866,1029.5000000476866,1016.8000000000028,1029.5000000476866,1.0,0.0,0.0,,Click Response,2_count,5.0,object-49,temp_dist_trial,32.0,s_sh_05_1,student_shared,laptop,5.0,competing,paired,s_sh_05_1.jpg,Student,,,sub-23
Desktop or Laptop,Windows 10,Chrome 138.0.0.0,1920x1080,1920x919,Temporal Distance Task,cb_05,32.0,temp_dist_trial,dist_items,qkpkxw,2.0,info,,5.999999976163963,0.0,5.999999976163963,5.999999976163963,0.0,5.999999976163963,1.0,0.0,0.0,,Slider,Slider,4.0,object-56,temp_dist_trial,32.0,s_sh_05_1,student_shared,laptop,5.0,competing,paired,s_sh_05_1.jpg,Student,,,sub-23
Desktop or Laptop,Windows 10,Chrome 138.0.0.0,1920x1080,1920x919,Temporal Distance Task,cb_05,32.0,temp_dist_trial,dist_items,qkpkxw,2.0,continue,,2352.800000047689,2350.0,2352.800000047689,2352.800000047689,2350.0,2352.800000047689,1.0,0.0,0.0,,Click To Continue,Next button,7.0,object-60,temp_dist_trial,32.0,s_sh_05_1,student_shared,laptop,5.0,competing,paired,s_sh_05_1.jpg,Student,,,sub-23
Desktop or Laptop,Windows 10,Chrome 138.0.0.0,1920x1080,1920x919,Temporal Distance Task,cb_05,32.0,temp_dist_trial,dist_items,qkpkxw,2.0,response,58,1700.2000000000116,2350.0,2353.4000000715314,1700.2000000000116,2350.0,2353.4000000715314,1.0,653.2000000715198,0.0,,Slider,Slider,4.0,object-56,temp_dist_trial,32.0,s_sh_05_1,student_shared,laptop,5.0,competing,paired,s_sh_05_1.jpg,Student,,,sub-23
Desktop or Laptop,Windows 10,Chrome 138.0.0.0,1920x1080,1920x919,Temporal Distance Task,cb_05,33.0,temp_dist_trial,num_items,zn7si1,1.0,response,1_ITEM,1889.700000023848,1883.8000000000034,1889.700000023848,1889.700000023848,1883.8000000000034,1889.700000023848,1.0,0.0,0.0,,Click Response,1_count,3.0,object-46,temp_dist_trial,33.0,s_sh_21_1,student_shared,file holder,5.0,competing,paired,s_sh_21_1.jpg,Student,,,sub-23
Desktop or Laptop,Windows 10,Chrome 138.0.0.0,1920x1080,1920x919,Temporal Distance Task,cb_05,34.0,temp_dist_trial,num_items,zn7si1,1.0,response,2_ITEM,1803.8000000000034,1799.8000000000034,1803.8000000000034,1803.8000000000034,1799.8000000000034,1803.8000000000034,1.0,0.0,0.0,,Click Response,2_count,5.0,object-49,temp_dist_trial,34.0,s_sh_03_1,student_shared,highlighter,5.0,competing,paired,s_sh_03_1.jpg,Student,,,sub-23
Desktop or Laptop,Windows 10,Chrome 138.0.0.0,1920x1080,1920x919,Temporal Distance Task,cb_05,34.0,temp_dist_trial,dist_items,qkpkxw,2.0,info,,5.800000071525574,0.0,5.800000071525574,5.800000071525574,0.0,5.800000071525574,1.0,0.0,0.0,,Slider,Slider,4.0,object-56,temp_dist_trial,34.0,s_sh_03_1,student_shared,highlighter,5.0,competing,paired,s_sh_03_1.jpg,Student,,,sub-23
Desktop or Laptop,Windows 10,Chrome 138.0.0.0,1920x1080,1920x919,Temporal Distance Task,cb_05,34.0,temp_dist_trial,dist_items,qkpkxw,2.0,continue,,2036.0,2033.3000000000034,2036.0,2036.0,2033.3000000000034,2036.0,1.0,0.0,0.0,,Click To Continue,Next button,7.0,object-60,temp_dist_trial,34.0,s_sh_03_1,student_shared,highlighter,5.0,competing,paired,s_sh_03_1.jpg,Student,,,sub-23
Desktop or Laptop,Windows 10,Chrome 138.0.0.0,1920x1080,1920x919,Temporal Distance Task,cb_05,34.0,temp_dist_trial,dist_items,qkpkxw,2.0,response,29,999.8999999999942,2033.3000000000034,2040.700000047684,999.8999999999942,2033.3000000000034,2040.700000047684,1.0,1040.8000000476898,0.0,,Slider,Slider,4.0,object-56,temp_dist_trial,34.0,s_sh_03_1,student_shared,highlighter,5.0,competing,paired,s_sh_03_1.jpg,Student,,,sub-23
Desktop or Laptop,Windows 10,Chrome 138.0.0.0,1920x1080,1920x919,Temporal Distance Task,cb_05,35.0,temp_dist_trial,num_items,zn7si1,1.0,response,1_ITEM,897.0000000715227,883.3999999999942,897.0000000715227,897.0000000715227,883.3999999999942,897.0000000715227,1.0,0.0,0.0,,Click Response,1_count,3.0,object-46,temp_dist_trial,35.0,s_s_20_1,student_stem,dna model,5.0,unique,paired,s_s_20_1.jpg,Student,,,sub-23
Desktop or Laptop,Windows 10,Chrome 138.0.0.0,1920x1080,1920x919,Temporal Distance Task,cb_05,36.0,temp_dist_trial,num_items,zn7si1,1.0,response,1_ITEM,979.3000000476897,966.4000000000087,979.3000000476897,979.3000000476897,966.4000000000087,979.3000000476897,1.0,0.0,0.0,,Click Response,1_count,3.0,object-46,temp_dist_trial,36.0,s_a_10_1,student_art,tripod,5.0,unique,single,s_a_10_1.jpg,Student,,,sub-23
Desktop or Laptop,Windows 10,Chrome 138.0.0.0,1920x1080,1920x919,Temporal Distance Task,cb_05,37.0,temp_dist_trial,num_items,zn7si1,1.0,response,2_ITEM,1115.5000000715227,1099.9999999999854,1115.5000000715227,1115.5000000715227,1099.9999999999854,1115.5000000715227,1.0,0.0,0.0,,Click Response,2_count,5.0,object-49,temp_dist_trial,37.0,s_a_09_1,student_art,picture frame,5.0,unique,paired,s_a_09_1.jpg,Student,,,sub-23
Desktop or Laptop,Windows 10,Chrome 138.0.0.0,1920x1080,1920x919,Temporal Distance Task,cb_05,37.0,temp_dist_trial,dist_items,qkpkxw,2.0,info,,5.700000023847679,0.0,5.700000023847679,5.700000023847679,0.0,5.700000023847679,1.0,0.0,0.0,,Slider,Slider,4.0,object-56,temp_dist_trial,37.0,s_a_09_1,student_art,picture frame,5.0,unique,paired,s_a_09_1.jpg,Student,,,sub-23
Desktop or Laptop,Windows 10,Chrome 138.0.0.0,1920x1080,1920x919,Temporal Distance Task,cb_05,37.0,temp_dist_trial,dist_items,qkpkxw,2.0,continue,,1966.8999999999944,1950.0,1966.8999999999944,1966.8999999999944,1950.0,1966.8999999999944,1.0,0.0,0.0,,Click To Continue,Next button,7.0,object-60,temp_dist_trial,37.0,s_a_09_1,student_art,picture frame,5.0,unique,paired,s_a_09_1.jpg,Student,,,sub-23
Desktop or Laptop,Windows 10,Chrome 138.0.0.0,1920x1080,1920x919,Temporal Distance Task,cb_05,37.0,temp_dist_trial,dist_items,qkpkxw,2.0,response,62,1133.3000000000175,1950.0,1966.8999999999944,1133.3000000000175,1950.0,1966.8999999999944,1.0,833.5999999999768,0.0,,Slider,Slider,4.0,object-56,temp_dist_trial,37.0,s_a_09_1,student_art,picture frame,5.0,unique,paired,s_a_09_1.jpg,Student,,,sub-23
Desktop or Laptop,Windows 10,Chrome 138.0.0.0,1920x1080,1920x919,Temporal Distance Task,cb_05,38.0,temp_dist_trial,num_items,zn7si1,1.0,response,1_ITEM,1407.2000000238475,1400.0,1407.2000000238475,1407.2000000238475,1400.0,1407.2000000238475,1.0,0.0,0.0,,Click Response,1_count,3.0,object-46,temp_dist_trial,38.0,s_a_11_1,student_art,clapperboard,5.0,unique,single,s_a_11_1.jpg,Student,,,sub-23
Desktop or Laptop,Windows 10,Chrome 138.0.0.0,1920x1080,1920x919,Temporal Distance Task,cb_05,39.0,temp_dist_trial,num_items,zn7si1,1.0,response,1_ITEM,1350.8000000238535,1333.8000000000175,1350.8000000238535,1350.8000000238535,1333.8000000000175,1350.8000000238535,1.0,0.0,0.0,,Click Response,1_count,3.0,object-46,temp_dist_trial,39.0,s_sh_04_1,student_shared,laptop stand,5.0,competing,paired,s_sh_04_1.jpg,Student,,,sub-23
Desktop or Laptop,Windows 10,Chrome 138.0.0.0,1920x1080,1920x919,Temporal Distance Task,cb_05,40.0,temp_dist_trial,num_items,zn7si1,1.0,response,2_ITEM,994.7000000715198,983.5,994.7000000715198,994.7000000715198,983.5,994.7000000715198,1.0,0.0,0.0,,Click Response,2_count,5.0,object-49,temp_dist_trial,40.0,s_sh_09_1,student_shared,paper clips,5.0,competing,paired,s_sh_09_1.jpg,Student,,,sub-23
Desktop or Laptop,Windows 10,Chrome 138.0.0.0,1920x1080,1920x919,Temporal Distance Task,cb_05,40.0,temp_dist_trial,dist_items,qkpkxw,2.0,info,,5.799999976152321,0.0,5.799999976152321,5.799999976152321,0.0,5.799999976152321,1.0,0.0,0.0,,Slider,Slider,4.0,object-56,temp_dist_trial,40.0,s_sh_09_1,student_shared,paper clips,5.0,competing,paired,s_sh_09_1.jpg,Student,,,sub-23
Desktop or Laptop,Windows 10,Chrome 138.0.0.0,1920x1080,1920x919,Temporal Distance Task,cb_05,40.0,temp_dist_trial,dist_items,qkpkxw,2.0,continue,,3249.2000000715198,3233.3999999999933,3249.2000000715198,3249.2000000715198,3233.3999999999933,3249.2000000715198,1.0,0.0,0.0,,Click To Continue,Next button,7.0,object-60,temp_dist_trial,40.0,s_sh_09_1,student_shared,paper clips,5.0,competing,paired,s_sh_09_1.jpg,Student,,,sub-23
Desktop or Laptop,Windows 10,Chrome 138.0.0.0,1920x1080,1920x919,Temporal Distance Task,cb_05,40.0,temp_dist_trial,dist_items,qkpkxw,2.0,response,25,2533.2999999999884,3233.3999999999933,3249.6000000476783,2533.2999999999884,3233.3999999999933,3249.6000000476783,1.0,716.3000000476895,0.0,,Slider,Slider,4.0,object-56,temp_dist_trial,40.0,s_sh_09_1,student_shared,paper clips,5.0,competing,paired,s_sh_09_1.jpg,Student,,,sub-23
Desktop or Laptop,Windows 10,Chrome 138.0.0.0,1920x1080,1920x919,Temporal Distance Task,cb_05,41.0,temp_dist_trial,num_items,zn7si1,1.0,response,1_ITEM,2606.200000047684,2599.8999999999937,2606.200000047684,2606.200000047684,2599.8999999999937,2606.200000047684,1.0,0.0,0.0,,Click Response,1_count,3.0,object-46,temp_dist_trial,41.0,s_sh_22_1,student_shared,hole puncher,5.0,competing,paired,s_sh_22_1.jpg,Student,,,sub-23
Desktop or Laptop,Windows 10,Chrome 138.0.0.0,1920x1080,1920x919,Temporal Distance Task,cb_05,42.0,temp_dist_trial,num_items,zn7si1,1.0,response,2_ITEM,1256.4000000715316,1250.1000000000058,1256.4000000715316,1256.4000000715316,1250.1000000000058,1256.4000000715316,1.0,0.0,0.0,,Click Response,2_count,5.0,object-49,temp_dist_trial,42.0,s_sh_01_1,student_shared,notebook,5.0,competing,paired,s_sh_01_1.jpg,Student,,,sub-23
Desktop or Laptop,Windows 10,Chrome 138.0.0.0,1920x1080,1920x919,Temporal Distance Task,cb_05,42.0,temp_dist_trial,dist_items,qkpkxw,2.0,info,,5.200000047683716,0.0,5.200000047683716,5.200000047683716,0.0,5.200000047683716,1.0,0.0,0.0,,Slider,Slider,4.0,object-56,temp_dist_trial,42.0,s_sh_01_1,student_shared,notebook,5.0,competing,paired,s_sh_01_1.jpg,Student,,,sub-23
Desktop or Laptop,Windows 10,Chrome 138.0.0.0,1920x1080,1920x919,Temporal Distance Task,cb_05,42.0,temp_dist_trial,dist_items,qkpkxw,2.0,continue,,1873.700000047684,1866.5,1873.700000047684,1873.700000047684,1866.5,1873.700000047684,1.0,0.0,0.0,,Click To Continue,Next button,7.0,object-60,temp_dist_trial,42.0,s_sh_01_1,student_shared,notebook,5.0,competing,paired,s_sh_01_1.jpg,Student,,,sub-23
Desktop or Laptop,Windows 10,Chrome 138.0.0.0,1920x1080,1920x919,Temporal Distance Task,cb_05,42.0,temp_dist_trial,dist_items,qkpkxw,2.0,response,58,1283.2000000000114,1866.5,1874.0,1283.2000000000114,1866.5,1874.0,1.0,590.7999999999884,0.0,,Slider,Slider,4.0,object-56,temp_dist_trial,42.0,s_sh_01_1,student_shared,notebook,5.0,competing,paired,s_sh_01_1.jpg,Student,,,sub-23
Desktop or Laptop,Windows 10,Chrome 138.0.0.0,1920x1080,1920x919,Temporal Distance Task,cb_05,43.0,temp_dist_trial,num_items,zn7si1,1.0,response,1_ITEM,1173.399999976158,1167.1000000000058,1173.399999976158,1173.399999976158,1167.1000000000058,1173.399999976158,1.0,0.0,0.0,,Click Response,1_count,3.0,object-46,temp_dist_trial,43.0,s_s_11_1,student_stem,scientific scale,5.0,unique,paired,s_s_11_1.jpg,Student,,,sub-23
Desktop or Laptop,Windows 10,Chrome 138.0.0.0,1920x1080,1920x919,Temporal Distance Task,cb_05,44.0,temp_dist_trial,num_items,zn7si1,1.0,response,2_ITEM,863.1999999761465,850.1999999999823,863.1999999761465,863.1999999761465,850.1999999999823,863.1999999761465,1.0,0.0,0.0,,Click Response,2_count,5.0,object-49,temp_dist_trial,44.0,s_sh_07_1,student_shared,ruler,5.0,competing,paired,s_sh_07_1.jpg,Student,,,sub-23
Desktop or Laptop,Windows 10,Chrome 138.0.0.0,1920x1080,1920x919,Temporal Distance Task,cb_05,44.0,temp_dist_trial,dist_items,qkpkxw,2.0,info,,5.999999976163963,0.0,5.999999976163963,5.999999976163963,0.0,5.999999976163963,1.0,0.0,0.0,,Slider,Slider,4.0,object-56,temp_dist_trial,44.0,s_sh_07_1,student_shared,ruler,5.0,competing,paired,s_sh_07_1.jpg,Student,,,sub-23
Desktop or Laptop,Windows 10,Chrome 138.0.0.0,1920x1080,1920x919,Temporal Distance Task,cb_05,44.0,temp_dist_trial,dist_items,qkpkxw,2.0,continue,,1935.3000000476893,1933.3000000000175,1935.3000000476893,1935.3000000476893,1933.3000000000175,1935.3000000476893,1.0,0.0,0.0,,Click To Continue,Next button,7.0,object-60,temp_dist_trial,44.0,s_sh_07_1,student_shared,ruler,5.0,competing,paired,s_sh_07_1.jpg,Student,,,sub-23
Desktop or Laptop,Windows 10,Chrome 138.0.0.0,1920x1080,1920x919,Temporal Distance Task,cb_05,44.0,temp_dist_trial,dist_items,qkpkxw,2.0,response,38,1083.3999999999942,1933.3000000000175,1935.8000000476893,1083.3999999999942,1933.3000000000175,1935.8000000476893,1.0,852.4000000476954,0.0,,Slider,Slider,4.0,object-56,temp_dist_trial,44.0,s_sh_07_1,student_shared,ruler,5.0,competing,paired,s_sh_07_1.jpg,Student,,,sub-23
Desktop or Laptop,Windows 10,Chrome 138.0.0.0,1920x1080,1920x919,Temporal Distance Task,cb_05,45.0,temp_dist_trial,num_items,zn7si1,1.0,response,1_ITEM,1033.100000071514,1016.5999999999768,1033.100000071514,1033.100000071514,1016.5999999999768,1033.100000071514,1.0,0.0,0.0,,Click Response,1_count,3.0,object-46,temp_dist_trial,45.0,s_a_04_1,student_art,easel,5.0,unique,single,s_a_04_1.jpg,Student,,,sub-23
Desktop or Laptop,Windows 10,Chrome 138.0.0.0,1920x1080,1920x919,Temporal Distance Task,cb_05,46.0,temp_dist_trial,num_items,zn7si1,1.0,response,1_ITEM,1110.0999999761698,1100.0,1110.0999999761698,1110.0999999761698,1100.0,1110.0999999761698,1.0,0.0,0.0,,Click Response,1_count,3.0,object-46,temp_dist_trial,46.0,s_s_06_1,student_stem,calculator,5.0,unique,paired,s_s_06_1.jpg,Student,,,sub-23
Desktop or Laptop,Windows 10,Chrome 138.0.0.0,1920x1080,1920x919,Temporal Distance Task,cb_05,47.0,temp_dist_trial,num_items,zn7si1,1.0,response,1_ITEM,1274.4000000476954,1267.1000000000058,1274.4000000476954,1274.4000000476954,1267.1000000000058,1274.4000000476954,1.0,0.0,0.0,,Click Response,1_count,3.0,object-46,temp_dist_trial,47.0,s_sh_12_1,student_shared,binder,5.0,competing,single,s_sh_12_1.jpg,Student,,,sub-23
Desktop or Laptop,Windows 10,Chrome 138.0.0.0,1920x1080,1920x919,Temporal Distance Task,cb_05,48.0,temp_dist_trial,num_items,zn7si1,1.0,response,2_ITEM,977.7000000238477,966.8999999999942,977.7000000238477,977.7000000238477,966.8999999999942,977.7000000238477,1.0,0.0,0.0,,Click Response,2_count,5.0,object-49,temp_dist_trial,48.0,s_sh_18_1,student_shared,wall calendar,5.0,competing,paired,s_sh_18_1.jpg,Student,,,sub-23
Desktop or Laptop,Windows 10,Chrome 138.0.0.0,1920x1080,1920x919,Temporal Distance Task,cb_05,48.0,temp_dist_trial,dist_items,qkpkxw,2.0,info,,6.000000023836037,0.0,6.000000023836037,6.000000023836037,0.0,6.000000023836037,1.0,0.0,0.0,,Slider,Slider,4.0,object-56,temp_dist_trial,48.0,s_sh_18_1,student_shared,wall calendar,5.0,competing,paired,s_sh_18_1.jpg,Student,,,sub-23
Desktop or Laptop,Windows 10,Chrome 138.0.0.0,1920x1080,1920x919,Temporal Distance Task,cb_05,48.0,temp_dist_trial,dist_items,qkpkxw,2.0,continue,,1492.7999999761525,1483.6000000000058,1492.7999999761525,1492.7999999761525,1483.6000000000058,1492.7999999761525,1.0,0.0,0.0,,Click To Continue,Next button,7.0,object-60,temp_dist_trial,48.0,s_sh_18_1,student_shared,wall calendar,5.0,competing,paired,s_sh_18_1.jpg,Student,,,sub-23
Desktop or Laptop,Windows 10,Chrome 138.0.0.0,1920x1080,1920x919,Temporal Distance Task,cb_05,48.0,temp_dist_trial,dist_items,qkpkxw,2.0,response,24,883.8999999999942,1483.6000000000058,1498.2999999761525,883.8999999999942,1483.6000000000058,1498.2999999761525,1.0,614.3999999761581,0.0,,Slider,Slider,4.0,object-56,temp_dist_trial,48.0,s_sh_18_1,student_shared,wall calendar,5.0,competing,paired,s_sh_18_1.jpg,Student,,,sub-23
Desktop or Laptop,Windows 10,Chrome 138.0.0.0,1920x1080,1920x919,Temporal Distance Task,cb_05,2.0,temp_eventStart,Screen 1,dgtyxe,1.0,continue,,1211.6999999761465,1200.0,1211.6999999761465,1211.6999999761465,1200.0,1211.6999999761465,1.0,0.0,0.0,,Click To Continue,Next Button,3.0,object-43,temp_eventStart,,,Travel,,,,,,,,,sub-23
Desktop or Laptop,Windows 10,Chrome 138.0.0.0,1920x1080,1920x919,Temporal Distance Task,cb_05,49.0,temp_dist_trial,num_items,zn7si1,1.0,response,1_ITEM,2529.6999999761465,2516.6999999999825,2529.6999999761465,2529.6999999761465,2516.6999999999825,2529.6999999761465,1.0,0.0,0.0,,Click Response,1_count,3.0,object-46,temp_dist_trial,1.0,t_m_20_1,travel_Miami,inflatable beachball,5.0,unique,paired,t_m_20_1.jpg,Travel,,,sub-23
Desktop or Laptop,Windows 10,Chrome 138.0.0.0,1920x1080,1920x919,Temporal Distance Task,cb_05,50.0,temp_dist_trial,num_items,zn7si1,1.0,response,2_ITEM,1156.8000000238535,1150.1000000000058,1156.8000000238535,1156.8000000238535,1150.1000000000058,1156.8000000238535,1.0,0.0,0.0,,Click Response,2_count,5.0,object-49,temp_dist_trial,2.0,t_i_13_1,travel_Iceland,sleeping bag,5.0,unique,single,t_i_13_1.jpg,Travel,,,sub-23
Desktop or Laptop,Windows 10,Chrome 138.0.0.0,1920x1080,1920x919,Temporal Distance Task,cb_05,50.0,temp_dist_trial,dist_items,qkpkxw,2.0,info,,6.7000000000116415,0.0,6.7000000000116415,6.7000000000116415,0.0,6.7000000000116415,1.0,0.0,0.0,,Slider,Slider,4.0,object-56,temp_dist_trial,2.0,t_i_13_1,travel_Iceland,sleeping bag,5.0,unique,single,t_i_13_1.jpg,Travel,,,sub-23
Desktop or Laptop,Windows 10,Chrome 138.0.0.0,1920x1080,1920x919,Temporal Distance Task,cb_05,50.0,temp_dist_trial,dist_items,qkpkxw,2.0,continue,,2355.300000023853,2350.1000000000063,2355.300000023853,2355.300000023853,2350.1000000000063,2355.300000023853,1.0,0.0,0.0,,Click To Continue,Next button,7.0,object-60,temp_dist_trial,2.0,t_i_13_1,travel_Iceland,sleeping bag,5.0,unique,single,t_i_13_1.jpg,Travel,,,sub-23
Desktop or Laptop,Windows 10,Chrome 138.0.0.0,1920x1080,1920x919,Temporal Distance Task,cb_05,50.0,temp_dist_trial,dist_items,qkpkxw,2.0,response,56,1750.0,2350.1000000000063,2355.900000047696,1750.0,2350.1000000000063,2355.900000047696,1.0,605.9000000476954,0.0,,Slider,Slider,4.0,object-56,temp_dist_trial,2.0,t_i_13_1,travel_Iceland,sleeping bag,5.0,unique,single,t_i_13_1.jpg,Travel,,,sub-23
Desktop or Laptop,Windows 10,Chrome 138.0.0.0,1920x1080,1920x919,Temporal Distance Task,cb_05,51.0,temp_dist_trial,num_items,zn7si1,1.0,response,2_ITEM,1696.1000000000058,1683.6000000000058,1696.1000000000058,1696.1000000000058,1683.6000000000058,1696.1000000000058,1.0,0.0,0.0,,Click Response,2_count,5.0,object-49,temp_dist_trial,3.0,t_s_05_1,travel_shared,neck pillow,5.0,competing,paired,t_s_05_1.jpg,Travel,,,sub-23
Desktop or Laptop,Windows 10,Chrome 138.0.0.0,1920x1080,1920x919,Temporal Distance Task,cb_05,51.0,temp_dist_trial,dist_items,qkpkxw,2.0,info,,5.5000000715372135,0.0,5.5000000715372135,5.5000000715372135,0.0,5.5000000715372135,1.0,0.0,0.0,,Slider,Slider,4.0,object-56,temp_dist_trial,3.0,t_s_05_1,travel_shared,neck pillow,5.0,competing,paired,t_s_05_1.jpg,Travel,,,sub-23
Desktop or Laptop,Windows 10,Chrome 138.0.0.0,1920x1080,1920x919,Temporal Distance Task,cb_05,51.0,temp_dist_trial,dist_items,qkpkxw,2.0,continue,,3070.0999999761707,3066.5,3070.0999999761707,3070.0999999761707,3066.5,3070.0999999761707,1.0,0.0,0.0,,Click To Continue,Next button,7.0,object-60,temp_dist_trial,3.0,t_s_05_1,travel_shared,neck pillow,5.0,competing,paired,t_s_05_1.jpg,Travel,,,sub-23
Desktop or Laptop,Windows 10,Chrome 138.0.0.0,1920x1080,1920x919,Temporal Distance Task,cb_05,51.0,temp_dist_trial,dist_items,qkpkxw,2.0,response,36,1117.0,3066.5,3074.300000023853,1117.0,3066.5,3074.300000023853,1.0,1957.300000023853,0.0,,Slider,Slider,4.0,object-56,temp_dist_trial,3.0,t_s_05_1,travel_shared,neck pillow,5.0,competing,paired,t_s_05_1.jpg,Travel,,,sub-23
Desktop or Laptop,Windows 10,Chrome 138.0.0.0,1920x1080,1920x919,Temporal Distance Task,cb_05,52.0,temp_dist_trial,num_items,zn7si1,1.0,response,1_ITEM,1926.099999976169,1916.9000000000235,1926.099999976169,1926.099999976169,1916.9000000000235,1926.099999976169,1.0,0.0,0.0,,Click Response,1_count,3.0,object-46,temp_dist_trial,4.0,t_s_07_1,travel_shared,phone charger cable,5.0,competing,paired,t_s_07_1.jpg,Travel,,,sub-23
Desktop or Laptop,Windows 10,Chrome 138.0.0.0,1920x1080,1920x919,Temporal Distance Task,cb_05,53.0,temp_dist_trial,num_items,zn7si1,1.0,response,1_ITEM,1017.3000000715256,1016.6000000000058,1017.3000000715256,1017.3000000715256,1016.6000000000058,1017.3000000715256,1.0,0.0,0.0,,Click Response,1_count,3.0,object-46,temp_dist_trial,5.0,t_i_03_1,travel_Iceland,winter jacket,5.0,unique,paired,t_i_03_1.jpg,Travel,,,sub-23
Desktop or Laptop,Windows 10,Chrome 138.0.0.0,1920x1080,1920x919,Temporal Distance Task,cb_05,54.0,temp_dist_trial,num_items,zn7si1,1.0,response,2_ITEM,852.7000000000116,850.0,852.7000000000116,852.7000000000116,850.0,852.7000000000116,1.0,0.0,0.0,,Click Response,2_count,5.0,object-49,temp_dist_trial,6.0,t_m_10_1,travel_Miami,tanktop,5.0,unique,paired,t_m_10_1.jpg,Travel,,,sub-23
Desktop or Laptop,Windows 10,Chrome 138.0.0.0,1920x1080,1920x919,Temporal Distance Task,cb_05,54.0,temp_dist_trial,dist_items,qkpkxw,2.0,info,,5.700000023847679,0.0,5.700000023847679,5.700000023847679,0.0,5.700000023847679,1.0,0.0,0.0,,Slider,Slider,4.0,object-56,temp_dist_trial,6.0,t_m_10_1,travel_Miami,tanktop,5.0,unique,paired,t_m_10_1.jpg,Travel,,,sub-23
Desktop or Laptop,Windows 10,Chrome 138.0.0.0,1920x1080,1920x919,Temporal Distance Task,cb_05,54.0,temp_dist_trial,dist_items,qkpkxw,2.0,continue,,2287.1000000000063,2283.5,2287.1000000000063,2287.1000000000063,2283.5,2287.1000000000063,1.0,0.0,0.0,,Click To Continue,Next button,7.0,object-60,temp_dist_trial,6.0,t_m_10_1,travel_Miami,tanktop,5.0,unique,paired,t_m_10_1.jpg,Travel,,,sub-23
Desktop or Laptop,Windows 10,Chrome 138.0.0.0,1920x1080,1920x919,Temporal Distance Task,cb_05,54.0,temp_dist_trial,dist_items,qkpkxw,2.0,response,63,1666.6000000000058,2283.5,2287.700000023848,1666.6000000000058,2283.5,2287.700000023848,1.0,621.1000000238419,0.0,,Slider,Slider,4.0,object-56,temp_dist_trial,6.0,t_m_10_1,travel_Miami,tanktop,5.0,unique,paired,t_m_10_1.jpg,Travel,,,sub-23
Desktop or Laptop,Windows 10,Chrome 138.0.0.0,1920x1080,1920x919,Temporal Distance Task,cb_05,55.0,temp_dist_trial,num_items,zn7si1,1.0,response,1_ITEM,1287.3000000476895,1283.0,1287.3000000476895,1287.3000000476895,1283.0,1287.3000000476895,1.0,0.0,0.0,,Click Response,1_count,3.0,object-46,temp_dist_trial,7.0,t_s_01_1,travel_shared,fanny pack,5.0,competing,paired,t_s_01_1.jpg,Travel,,,sub-23
Desktop or Laptop,Windows 10,Chrome 138.0.0.0,1920x1080,1920x919,Temporal Distance Task,cb_05,56.0,temp_dist_trial,num_items,zn7si1,1.0,response,1_ITEM,890.2999999999884,883.0,890.2999999999884,890.2999999999884,883.0,890.2999999999884,1.0,0.0,0.0,,Click Response,1_count,3.0,object-46,temp_dist_trial,8.0,t_i_02_1,travel_Iceland,scarf,5.0,unique,paired,t_i_02_1.jpg,Travel,,,sub-23
Desktop or Laptop,Windows 10,Chrome 138.0.0.0,1920x1080,1920x919,Temporal Distance Task,cb_05,57.0,temp_dist_trial,num_items,zn7si1,1.0,response,1_ITEM,1223.600000071514,1216.6999999999825,1223.600000071514,1223.600000071514,1216.6999999999825,1223.600000071514,1.0,0.0,0.0,,Click Response,1_count,3.0,object-46,temp_dist_trial,9.0,t_m_12_1,travel_Miami,foldable pail and shovel,5.0,unique,single,t_m_12_1.jpg,Travel,,,sub-23
Desktop or Laptop,Windows 10,Chrome 138.0.0.0,1920x1080,1920x919,Temporal Distance Task,cb_05,58.0,temp_dist_trial,num_items,zn7si1,1.0,response,2_ITEM,830.7000000238478,816.8999999999942,830.7000000238478,830.7000000238478,816.8999999999942,830.7000000238478,1.0,0.0,0.0,,Click Response,2_count,5.0,object-49,temp_dist_trial,10.0,t_s_19_1,travel_shared,pajamas,5.0,competing,paired,t_s_19_1.jpg,Travel,,,sub-23
Desktop or Laptop,Windows 10,Chrome 138.0.0.0,1920x1080,1920x919,Temporal Distance Task,cb_05,58.0,temp_dist_trial,dist_items,qkpkxw,2.0,info,,5.899999976158142,0.0,5.899999976158142,5.899999976158142,0.0,5.899999976158142,1.0,0.0,0.0,,Slider,Slider,4.0,object-56,temp_dist_trial,10.0,t_s_19_1,travel_shared,pajamas,5.0,competing,paired,t_s_19_1.jpg,Travel,,,sub-23
Desktop or Laptop,Windows 10,Chrome 138.0.0.0,1920x1080,1920x919,Temporal Distance Task,cb_05,58.0,temp_dist_trial,dist_items,qkpkxw,2.0,continue,,1477.8000000715256,1466.2000000000116,1477.8000000715256,1477.8000000715256,1466.2000000000116,1477.8000000715256,1.0,0.0,0.0,,Click To Continue,Next button,7.0,object-60,temp_dist_trial,10.0,t_s_19_1,travel_shared,pajamas,5.0,competing,paired,t_s_19_1.jpg,Travel,,,sub-23
Desktop or Laptop,Windows 10,Chrome 138.0.0.0,1920x1080,1920x919,Temporal Distance Task,cb_05,58.0,temp_dist_trial,dist_items,qkpkxw,2.0,response,36,949.6000000000058,1466.2000000000116,1478.2000000476835,949.6000000000058,1466.2000000000116,1478.2000000476835,1.0,528.6000000476779,0.0,,Slider,Slider,4.0,object-56,temp_dist_trial,10.0,t_s_19_1,travel_shared,pajamas,5.0,competing,paired,t_s_19_1.jpg,Travel,,,sub-23
Desktop or Laptop,Windows 10,Chrome 138.0.0.0,1920x1080,1920x919,Temporal Distance Task,cb_05,59.0,temp_dist_trial,num_items,zn7si1,1.0,response,1_ITEM,1091.600000071514,1083.5999999999767,1091.600000071514,1091.600000071514,1083.5999999999767,1091.600000071514,1.0,0.0,0.0,,Click Response,1_count,3.0,object-46,temp_dist_trial,11.0,t_s_12_1,travel_shared,clear toiletry bag,5.0,competing,single,t_s_12_1.jpg,Travel,,,sub-23
Desktop or Laptop,Windows 10,Chrome 138.0.0.0,1920x1080,1920x919,Temporal Distance Task,cb_05,60.0,temp_dist_trial,num_items,zn7si1,1.0,response,2_ITEM,1254.2999999999886,1250.1999999999825,1254.2999999999886,1254.2999999999886,1250.1999999999825,1254.2999999999886,1.0,0.0,0.0,,Click Response,2_count,5.0,object-49,temp_dist_trial,12.0,t_s_20_1,travel_shared,travel pill case,5.0,competing,paired,t_s_20_1.jpg,Travel,,,sub-23
Desktop or Laptop,Windows 10,Chrome 138.0.0.0,1920x1080,1920x919,Temporal Distance Task,cb_05,60.0,temp_dist_trial,dist_items,qkpkxw,2.0,info,,5.799999999988358,0.0,5.799999999988358,5.799999999988358,0.0,5.799999999988358,1.0,0.0,0.0,,Slider,Slider,4.0,object-56,temp_dist_trial,12.0,t_s_20_1,travel_shared,travel pill case,5.0,competing,paired,t_s_20_1.jpg,Travel,,,sub-23
Desktop or Laptop,Windows 10,Chrome 138.0.0.0,1920x1080,1920x919,Temporal Distance Task,cb_05,60.0,temp_dist_trial,dist_items,qkpkxw,2.0,continue,,2376.6999999761465,2366.7999999999884,2376.6999999761465,2376.6999999761465,2366.7999999999884,2376.6999999761465,1.0,0.0,0.0,,Click To Continue,Next button,7.0,object-60,temp_dist_trial,12.0,t_s_20_1,travel_shared,travel pill case,5.0,competing,paired,t_s_20_1.jpg,Travel,,,sub-23
Desktop or Laptop,Windows 10,Chrome 138.0.0.0,1920x1080,1920x919,Temporal Distance Task,cb_05,60.0,temp_dist_trial,dist_items,qkpkxw,2.0,response,63,1750.0999999999767,2366.7999999999884,2377.4000000238298,1750.0999999999767,2366.7999999999884,2377.4000000238298,1.0,627.3000000238535,0.0,,Slider,Slider,4.0,object-56,temp_dist_trial,12.0,t_s_20_1,travel_shared,travel pill case,5.0,competing,paired,t_s_20_1.jpg,Travel,,,sub-23
Desktop or Laptop,Windows 10,Chrome 138.0.0.0,1920x1080,1920x919,Temporal Distance Task,cb_05,61.0,temp_dist_trial,num_items,zn7si1,1.0,response,1_ITEM,1197.5,1183.2000000000114,1197.5,1197.5,1183.2000000000114,1197.5,1.0,0.0,0.0,,Click Response,1_count,3.0,object-46,temp_dist_trial,13.0,t_s_21_1,travel_shared,umbrella,5.0,competing,single,t_s_21_1.jpg,Travel,,,sub-23
Desktop or Laptop,Windows 10,Chrome 138.0.0.0,1920x1080,1920x919,Temporal Distance Task,cb_05,62.0,temp_dist_trial,num_items,zn7si1,1.0,response,1_ITEM,1352.6999999761465,1350.1999999999825,1352.6999999761465,1352.6999999761465,1350.1999999999825,1352.6999999761465,1.0,0.0,0.0,,Click Response,1_count,3.0,object-46,temp_dist_trial,14.0,t_m_04_1,travel_Miami,UV jacket,5.0,unique,paired,t_m_04_1.jpg,Travel,,,sub-23
Desktop or Laptop,Windows 10,Chrome 138.0.0.0,1920x1080,1920x919,Temporal Distance Task,cb_05,63.0,temp_dist_trial,num_items,zn7si1,1.0,response,2_ITEM,1077.1000000000058,1066.7000000000116,1077.1000000000058,1077.1000000000058,1066.7000000000116,1077.1000000000058,1.0,0.0,0.0,,Click Response,2_count,5.0,object-49,temp_dist_trial,15.0,t_m_14_1,travel_Miami,swim goggles,5.0,unique,paired,t_m_14_1.jpg,Travel,,,sub-23
Desktop or Laptop,Windows 10,Chrome 138.0.0.0,1920x1080,1920x919,Temporal Distance Task,cb_05,63.0,temp_dist_trial,dist_items,qkpkxw,2.0,info,,5.800000071525574,0.0,5.800000071525574,5.800000071525574,0.0,5.800000071525574,1.0,0.0,0.0,,Slider,Slider,4.0,object-56,temp_dist_trial,15.0,t_m_14_1,travel_Miami,swim goggles,5.0,unique,paired,t_m_14_1.jpg,Travel,,,sub-23
Desktop or Laptop,Windows 10,Chrome 138.0.0.0,1920x1080,1920x919,Temporal Distance Task,cb_05,63.0,temp_dist_trial,dist_items,qkpkxw,2.0,continue,,1580.6000000238419,1566.7000000000116,1580.6000000238419,1580.6000000238419,1566.7000000000116,1580.6000000238419,1.0,0.0,0.0,,Click To Continue,Next button,7.0,object-60,temp_dist_trial,15.0,t_m_14_1,travel_Miami,swim goggles,5.0,unique,paired,t_m_14_1.jpg,Travel,,,sub-23
Desktop or Laptop,Windows 10,Chrome 138.0.0.0,1920x1080,1920x919,Temporal Distance Task,cb_05,63.0,temp_dist_trial,dist_items,qkpkxw,2.0,response,67,700.0,1566.7000000000116,1581.1000000238419,700.0,1566.7000000000116,1581.1000000238419,1.0,881.1000000238419,0.0,,Slider,Slider,4.0,object-56,temp_dist_trial,15.0,t_m_14_1,travel_Miami,swim goggles,5.0,unique,paired,t_m_14_1.jpg,Travel,,,sub-23
Desktop or Laptop,Windows 10,Chrome 138.0.0.0,1920x1080,1920x919,Temporal Distance Task,cb_05,64.0,temp_dist_trial,num_items,zn7si1,1.0,response,2_ITEM,1085.6999999761465,1083.3999999999942,1085.6999999761465,1085.6999999761465,1083.3999999999942,1085.6999999761465,1.0,0.0,0.0,,Click Response,2_count,5.0,object-49,temp_dist_trial,16.0,t_i_17_1,travel_Iceland,binoculars,5.0,unique,paired,t_i_17_1.jpg,Travel,,,sub-23
Desktop or Laptop,Windows 10,Chrome 138.0.0.0,1920x1080,1920x919,Temporal Distance Task,cb_05,64.0,temp_dist_trial,dist_items,qkpkxw,2.0,info,,3.4000000715313945,0.0,3.4000000715313945,3.4000000715313945,0.0,3.4000000715313945,1.0,0.0,0.0,,Slider,Slider,4.0,object-56,temp_dist_trial,16.0,t_i_17_1,travel_Iceland,binoculars,5.0,unique,paired,t_i_17_1.jpg,Travel,,,sub-23
Desktop or Laptop,Windows 10,Chrome 138.0.0.0,1920x1080,1920x919,Temporal Distance Task,cb_05,64.0,temp_dist_trial,dist_items,qkpkxw,2.0,continue,,3677.1000000000067,3666.8999999999933,3677.1000000000067,3677.1000000000067,3666.8999999999933,3677.1000000000067,1.0,0.0,0.0,,Click To Continue,Next button,7.0,object-60,temp_dist_trial,16.0,t_i_17_1,travel_Iceland,binoculars,5.0,unique,paired,t_i_17_1.jpg,Travel,,,sub-23
Desktop or Laptop,Windows 10,Chrome 138.0.0.0,1920x1080,1920x919,Temporal Distance Task,cb_05,64.0,temp_dist_trial,dist_items,qkpkxw,2.0,response,57,1666.8999999999942,3666.8999999999933,3677.700000023848,1666.8999999999942,3666.8999999999933,3677.700000023848,1.0,2010.800000023853,0.0,,Slider,Slider,4.0,object-56,temp_dist_trial,16.0,t_i_17_1,travel_Iceland,binoculars,5.0,unique,paired,t_i_17_1.jpg,Travel,,,sub-23
Desktop or Laptop,Windows 10,Chrome 138.0.0.0,1920x1080,1920x919,Temporal Distance Task,cb_05,65.0,temp_dist_trial,num_items,zn7si1,1.0,response,1_ITEM,1174.9000000476954,1167.0,1174.9000000476954,1174.9000000476954,1167.0,1174.9000000476954,1.0,0.0,0.0,,Click Response,1_count,3.0,object-46,temp_dist_trial,17.0,t_s_18_1,travel_shared,first aid kit,5.0,competing,paired,t_s_18_1.jpg,Travel,,,sub-23
Desktop or Laptop,Windows 10,Chrome 138.0.0.0,1920x1080,1920x919,Temporal Distance Task,cb_05,66.0,temp_dist_trial,num_items,zn7si1,1.0,response,1_ITEM,919.5,916.6000000000058,919.5,919.5,916.6000000000058,919.5,1.0,0.0,0.0,,Click Response,1_count,3.0,object-46,temp_dist_trial,18.0,t_i_11_1,travel_Iceland,headlamp,5.0,unique,paired,t_i_11_1.jpg,Travel,,,sub-23
Desktop or Laptop,Windows 10,Chrome 138.0.0.0,1920x1080,1920x919,Temporal Distance Task,cb_05,67.0,temp_dist_trial,num_items,zn7si1,1.0,response,1_ITEM,965.7000000476836,950.1000000000058,965.7000000476836,965.7000000476836,950.1000000000058,965.7000000476836,1.0,0.0,0.0,,Click Response,1_count,3.0,object-46,temp_dist_trial,19.0,t_s_04_1,travel_shared,instant camera,5.0,competing,paired,t_s_04_1.jpg,Travel,,,sub-23
Desktop or Laptop,Windows 10,Chrome 138.0.0.0,1920x1080,1920x919,Temporal Distance Task,cb_05,68.0,temp_dist_trial,num_items,zn7si1,1.0,response,1_ITEM,1639.7999999761525,1634.1000000000058,1639.7999999761525,1639.7999999761525,1634.1000000000058,1639.7999999761525,1.0,0.0,0.0,,Click Response,1_count,3.0,object-46,temp_dist_trial,20.0,t_i_12_1,travel_Iceland,tent,5.0,unique,paired,t_i_12_1.jpg,Travel,,,sub-23
Desktop or Laptop,Windows 10,Chrome 138.0.0.0,1920x1080,1920x919,Temporal Distance Task,cb_05,69.0,temp_dist_trial,num_items,zn7si1,1.0,response,1_ITEM,1207.9000000715316,1200.1000000000058,1207.9000000715316,1207.9000000715316,1200.1000000000058,1207.9000000715316,1.0,0.0,0.0,,Click Response,1_count,3.0,object-46,temp_dist_trial,21.0,t_i_07_1,travel_Iceland,hiking backpack,5.0,unique,paired,t_i_07_1.jpg,Travel,,,sub-23
Desktop or Laptop,Windows 10,Chrome 138.0.0.0,1920x1080,1920x919,Temporal Distance Task,cb_05,70.0,temp_dist_trial,num_items,zn7si1,1.0,response,2_ITEM,1197.9000000238302,1183.1999999999825,1197.9000000238302,1197.9000000238302,1183.1999999999825,1197.9000000238302,1.0,0.0,0.0,,Click Response,2_count,5.0,object-49,temp_dist_trial,22.0,t_m_05_1,travel_Miami,sunscreen,5.0,unique,paired,t_m_05_1.jpg,Travel,,,sub-23
Desktop or Laptop,Windows 10,Chrome 138.0.0.0,1920x1080,1920x919,Temporal Distance Task,cb_05,70.0,temp_dist_trial,dist_items,qkpkxw,2.0,info,,4.100000000005822,0.0,4.100000000005822,4.100000000005822,0.0,4.100000000005822,1.0,0.0,0.0,,Slider,Slider,4.0,object-56,temp_dist_trial,22.0,t_m_05_1,travel_Miami,sunscreen,5.0,unique,paired,t_m_05_1.jpg,Travel,,,sub-23
Desktop or Laptop,Windows 10,Chrome 138.0.0.0,1920x1080,1920x919,Temporal Distance Task,cb_05,70.0,temp_dist_trial,dist_items,qkpkxw,2.0,continue,,1512.8000000476895,1499.8999999999942,1512.8000000476895,1512.8000000476895,1499.8999999999942,1512.8000000476895,1.0,0.0,0.0,,Click To Continue,Next button,7.0,object-60,temp_dist_trial,22.0,t_m_05_1,travel_Miami,sunscreen,5.0,unique,paired,t_m_05_1.jpg,Travel,,,sub-23
Desktop or Laptop,Windows 10,Chrome 138.0.0.0,1920x1080,1920x919,Temporal Distance Task,cb_05,70.0,temp_dist_trial,dist_items,qkpkxw,2.0,response,64,900.1000000000058,1499.8999999999942,1513.499999976164,900.1000000000058,1499.8999999999942,1513.499999976164,1.0,613.3999999761581,0.0,,Slider,Slider,4.0,object-56,temp_dist_trial,22.0,t_m_05_1,travel_Miami,sunscreen,5.0,unique,paired,t_m_05_1.jpg,Travel,,,sub-23
Desktop or Laptop,Windows 10,Chrome 138.0.0.0,1920x1080,1920x919,Temporal Distance Task,cb_05,71.0,temp_dist_trial,num_items,zn7si1,1.0,response,1_ITEM,1465.2000000000116,1450.2000000000116,1465.2000000000116,1465.2000000000116,1450.2000000000116,1465.2000000000116,1.0,0.0,0.0,,Click Response,1_count,3.0,object-46,temp_dist_trial,23.0,t_i_01_1,travel_Iceland,gloves,5.0,unique,paired,t_i_01_1.jpg,Travel,,,sub-23
Desktop or Laptop,Windows 10,Chrome 138.0.0.0,1920x1080,1920x919,Temporal Distance Task,cb_05,72.0,temp_dist_trial,num_items,zn7si1,1.0,response,1_ITEM,1414.999999976164,1400.0,1414.999999976164,1414.999999976164,1400.0,1414.999999976164,1.0,0.0,0.0,,Click Response,1_count,3.0,object-46,temp_dist_trial,24.0,t_m_17_1,travel_Miami,water gun,5.0,unique,single,t_m_17_1.jpg,Travel,,,sub-23
Desktop or Laptop,Windows 10,Chrome 138.0.0.0,1920x1080,1920x919,Temporal Distance Task,cb_05,73.0,temp_dist_trial,num_items,zn7si1,1.0,response,2_ITEM,925.7999999999884,916.8999999999942,925.7999999999884,925.7999999999884,916.8999999999942,925.7999999999884,1.0,0.0,0.0,,Click Response,2_count,5.0,object-49,temp_dist_trial,25.0,t_s_03_1,travel_shared,portable charger,5.0,competing,single,t_s_03_1.jpg,Travel,,,sub-23
Desktop or Laptop,Windows 10,Chrome 138.0.0.0,1920x1080,1920x919,Temporal Distance Task,cb_05,73.0,temp_dist_trial,dist_items,qkpkxw,2.0,info,,5.799999976152321,0.0,5.799999976152321,5.799999976152321,0.0,5.799999976152321,1.0,0.0,0.0,,Slider,Slider,4.0,object-56,temp_dist_trial,25.0,t_s_03_1,travel_shared,portable charger,5.0,competing,single,t_s_03_1.jpg,Travel,,,sub-23
Desktop or Laptop,Windows 10,Chrome 138.0.0.0,1920x1080,1920x919,Temporal Distance Task,cb_05,73.0,temp_dist_trial,dist_items,qkpkxw,2.0,continue,,3129.000000023836,3116.7999999999884,3129.000000023836,3129.000000023836,3116.7999999999884,3129.000000023836,1.0,0.0,0.0,,Click To Continue,Next button,7.0,object-60,temp_dist_trial,25.0,t_s_03_1,travel_shared,portable charger,5.0,competing,single,t_s_03_1.jpg,Travel,,,sub-23
Desktop or Laptop,Windows 10,Chrome 138.0.0.0,1920x1080,1920x919,Temporal Distance Task,cb_05,73.0,temp_dist_trial,dist_items,qkpkxw,2.0,response,57,2316.6000000000063,3116.7999999999884,3129.500000023836,2316.6000000000063,3116.7999999999884,3129.500000023836,1.0,812.9000000238302,0.0,,Slider,Slider,4.0,object-56,temp_dist_trial,25.0,t_s_03_1,travel_shared,portable charger,5.0,competing,single,t_s_03_1.jpg,Travel,,,sub-23
Desktop or Laptop,Windows 10,Chrome 138.0.0.0,1920x1080,1920x919,Temporal Distance Task,cb_05,74.0,temp_dist_trial,num_items,zn7si1,1.0,response,1_ITEM,1033.3000000000177,1016.6000000000058,1033.3000000000177,1033.3000000000177,1016.6000000000058,1033.3000000000177,1.0,0.0,0.0,,Click Response,1_count,3.0,object-46,temp_dist_trial,26.0,t_i_06_1,travel_Iceland,knit hat,5.0,unique,paired,t_i_06_1.jpg,Travel,,,sub-23
Desktop or Laptop,Windows 10,Chrome 138.0.0.0,1920x1080,1920x919,Temporal Distance Task,cb_05,75.0,temp_dist_trial,num_items,zn7si1,1.0,response,1_ITEM,1010.5000000715373,1000.1000000000058,1010.5000000715373,1010.5000000715373,1000.1000000000058,1010.5000000715373,1.0,0.0,0.0,,Click Response,1_count,3.0,object-46,temp_dist_trial,27.0,t_m_01_1,travel_Miami,sandals,5.0,unique,single,t_m_01_1.jpg,Travel,,,sub-23
Desktop or Laptop,Windows 10,Chrome 138.0.0.0,1920x1080,1920x919,Temporal Distance Task,cb_05,76.0,temp_dist_trial,num_items,zn7si1,1.0,response,2_ITEM,1219.6000000000058,1216.8999999999942,1219.6000000000058,1219.6000000000058,1216.8999999999942,1219.6000000000058,1.0,0.0,0.0,,Click Response,2_count,5.0,object-49,temp_dist_trial,28.0,t_s_15_1,travel_shared,luggage tag,5.0,competing,paired,t_s_15_1.jpg,Travel,,,sub-23
Desktop or Laptop,Windows 10,Chrome 138.0.0.0,1920x1080,1920x919,Temporal Distance Task,cb_05,76.0,temp_dist_trial,dist_items,qkpkxw,2.0,info,,5.600000023841858,0.0,5.600000023841858,5.600000023841858,0.0,5.600000023841858,1.0,0.0,0.0,,Slider,Slider,4.0,object-56,temp_dist_trial,28.0,t_s_15_1,travel_shared,luggage tag,5.0,competing,paired,t_s_15_1.jpg,Travel,,,sub-23
Desktop or Laptop,Windows 10,Chrome 138.0.0.0,1920x1080,1920x919,Temporal Distance Task,cb_05,76.0,temp_dist_trial,dist_items,qkpkxw,2.0,continue,,3109.800000071525,3100.2999999999884,3109.800000071525,3109.800000071525,3100.2999999999884,3109.800000071525,1.0,0.0,0.0,,Click To Continue,Next button,7.0,object-60,temp_dist_trial,28.0,t_s_15_1,travel_shared,luggage tag,5.0,competing,paired,t_s_15_1.jpg,Travel,,,sub-23
Desktop or Laptop,Windows 10,Chrome 138.0.0.0,1920x1080,1920x919,Temporal Distance Task,cb_05,76.0,temp_dist_trial,dist_items,qkpkxw,2.0,response,37,2383.6000000000063,3100.2999999999884,3114.7000000476837,2383.6000000000063,3100.2999999999884,3114.7000000476837,1.0,731.1000000476779,0.0,,Slider,Slider,4.0,object-56,temp_dist_trial,28.0,t_s_15_1,travel_shared,luggage tag,5.0,competing,paired,t_s_15_1.jpg,Travel,,,sub-23
Desktop or Laptop,Windows 10,Chrome 138.0.0.0,1920x1080,1920x919,Temporal Distance Task,cb_05,77.0,temp_dist_trial,num_items,zn7si1,1.0,response,2_ITEM,2155.400000047696,2149.8000000000175,2155.400000047696,2155.400000047696,2149.8000000000175,2155.400000047696,1.0,0.0,0.0,,Click Response,2_count,5.0,object-49,temp_dist_trial,29.0,t_s_02_1,travel_shared,water bottle,5.0,competing,single,t_s_02_1.jpg,Travel,,,sub-23
Desktop or Laptop,Windows 10,Chrome 138.0.0.0,1920x1080,1920x919,Temporal Distance Task,cb_05,77.0,temp_dist_trial,dist_items,qkpkxw,2.0,info,,5.700000071519753,0.0,5.700000071519753,5.700000071519753,0.0,5.700000071519753,1.0,0.0,0.0,,Slider,Slider,4.0,object-56,temp_dist_trial,29.0,t_s_02_1,travel_shared,water bottle,5.0,competing,single,t_s_02_1.jpg,Travel,,,sub-23
Desktop or Laptop,Windows 10,Chrome 138.0.0.0,1920x1080,1920x919,Temporal Distance Task,cb_05,77.0,temp_dist_trial,dist_items,qkpkxw,2.0,continue,,1335.7999999761525,1333.5,1335.7999999761525,1335.7999999761525,1333.5,1335.7999999761525,1.0,0.0,0.0,,Click To Continue,Next button,7.0,object-60,temp_dist_trial,29.0,t_s_02_1,travel_shared,water bottle,5.0,competing,single,t_s_02_1.jpg,Travel,,,sub-23
Desktop or Laptop,Windows 10,Chrome 138.0.0.0,1920x1080,1920x919,Temporal Distance Task,cb_05,77.0,temp_dist_trial,dist_items,qkpkxw,2.0,response,59,750.5,1333.5,1336.2999999761525,750.5,1333.5,1336.2999999761525,1.0,585.7999999761523,0.0,,Slider,Slider,4.0,object-56,temp_dist_trial,29.0,t_s_02_1,travel_shared,water bottle,5.0,competing,single,t_s_02_1.jpg,Travel,,,sub-23
Desktop or Laptop,Windows 10,Chrome 138.0.0.0,1920x1080,1920x919,Temporal Distance Task,cb_05,78.0,temp_dist_trial,num_items,zn7si1,1.0,response,1_ITEM,1426.500000023836,1416.7999999999884,1426.500000023836,1426.500000023836,1416.7999999999884,1426.500000023836,1.0,0.0,0.0,,Click Response,1_count,3.0,object-46,temp_dist_trial,30.0,t_m_11_1,travel_Miami,collapsible beach chair,5.0,unique,paired,t_m_11_1.jpg,Travel,,,sub-23
Desktop or Laptop,Windows 10,Chrome 138.0.0.0,1920x1080,1920x919,Temporal Distance Task,cb_05,79.0,temp_dist_trial,num_items,zn7si1,1.0,response,1_ITEM,1187.9000000476954,1183.4000000000233,1187.9000000476954,1187.9000000476954,1183.4000000000233,1187.9000000476954,1.0,0.0,0.0,,Click Response,1_count,3.0,object-46,temp_dist_trial,31.0,t_s_22_1,travel_shared,belt,5.0,competing,paired,t_s_22_1.jpg,Travel,,,sub-23
Desktop or Laptop,Windows 10,Chrome 138.0.0.0,1920x1080,1920x919,Temporal Distance Task,cb_05,80.0,temp_dist_trial,num_items,zn7si1,1.0,response,2_ITEM,1954.8999999761581,1950.2000000000119,1954.8999999761581,1954.8999999761581,1950.2000000000119,1954.8999999761581,1.0,0.0,0.0,,Click Response,2_count,5.0,object-49,temp_dist_trial,32.0,t_s_24_1,travel_shared,ear plugs,5.0,competing,paired,t_s_24_1.jpg,Travel,,,sub-23
Desktop or Laptop,Windows 10,Chrome 138.0.0.0,1920x1080,1920x919,Temporal Distance Task,cb_05,80.0,temp_dist_trial,dist_items,qkpkxw,2.0,info,,5.600000071513931,0.0,5.600000071513931,5.600000071513931,0.0,5.600000071513931,1.0,0.0,0.0,,Slider,Slider,4.0,object-56,temp_dist_trial,32.0,t_s_24_1,travel_shared,ear plugs,5.0,competing,paired,t_s_24_1.jpg,Travel,,,sub-23
Desktop or Laptop,Windows 10,Chrome 138.0.0.0,1920x1080,1920x919,Temporal Distance Task,cb_05,80.0,temp_dist_trial,dist_items,qkpkxw,2.0,continue,,4953.100000071514,4950.0,4953.100000071514,4953.100000071514,4950.0,4953.100000071514,1.0,0.0,0.0,,Click To Continue,Next button,7.0,object-60,temp_dist_trial,32.0,t_s_24_1,travel_shared,ear plugs,5.0,competing,paired,t_s_24_1.jpg,Travel,,,sub-23
Desktop or Laptop,Windows 10,Chrome 138.0.0.0,1920x1080,1920x919,Temporal Distance Task,cb_05,80.0,temp_dist_trial,dist_items,qkpkxw,2.0,response,38,1950.0,4950.0,4958.000000047672,1950.0,4950.0,4958.000000047672,1.0,3008.000000047672,0.0,,Slider,Slider,4.0,object-56,temp_dist_trial,32.0,t_s_24_1,travel_shared,ear plugs,5.0,competing,paired,t_s_24_1.jpg,Travel,,,sub-23
Desktop or Laptop,Windows 10,Chrome 138.0.0.0,1920x1080,1920x919,Temporal Distance Task,cb_05,81.0,temp_dist_trial,num_items,zn7si1,1.0,response,1_ITEM,1543.1999999761465,1533.3999999999942,1543.1999999761465,1543.1999999761465,1533.3999999999942,1543.1999999761465,1.0,0.0,0.0,,Click Response,1_count,3.0,object-46,temp_dist_trial,33.0,t_s_09_1,travel_shared,wallet,5.0,competing,single,t_s_09_1.jpg,Travel,,,sub-23
Desktop or Laptop,Windows 10,Chrome 138.0.0.0,1920x1080,1920x919,Temporal Distance Task,cb_05,82.0,temp_dist_trial,num_items,zn7si1,1.0,response,1_ITEM,922.2999999761523,916.6999999999823,922.2999999761523,922.2999999761523,916.6999999999823,922.2999999761523,1.0,0.0,0.0,,Click Response,1_count,3.0,object-46,temp_dist_trial,34.0,t_i_15_1,travel_Iceland,compass,5.0,unique,single,t_i_15_1.jpg,Travel,,,sub-23
Desktop or Laptop,Windows 10,Chrome 138.0.0.0,1920x1080,1920x919,Temporal Distance Task,cb_05,83.0,temp_dist_trial,num_items,zn7si1,1.0,response,1_ITEM,1699.2999999761525,1683.6999999999825,1699.2999999761525,1699.2999999761525,1683.6999999999825,1699.2999999761525,1.0,0.0,0.0,,Click Response,1_count,3.0,object-46,temp_dist_trial,35.0,t_m_13_1,travel_Miami,floatie,5.0,unique,paired,t_m_13_1.jpg,Travel,,,sub-23
Desktop or Laptop,Windows 10,Chrome 138.0.0.0,1920x1080,1920x919,Temporal Distance Task,cb_05,84.0,temp_dist_trial,num_items,zn7si1,1.0,response,1_ITEM,1136.4000000238302,1133.5,1136.4000000238302,1136.4000000238302,1133.5,1136.4000000238302,1.0,0.0,0.0,,Click Response,1_count,3.0,object-46,temp_dist_trial,36.0,t_i_05_1,travel_Iceland,hiking boots,5.0,unique,single,t_i_05_1.jpg,Travel,,,sub-23
Desktop or Laptop,Windows 10,Chrome 138.0.0.0,1920x1080,1920x919,Temporal Distance Task,cb_05,85.0,temp_dist_trial,num_items,zn7si1,1.0,response,1_ITEM,2081.400000047696,2066.9000000000233,2081.400000047696,2081.400000047696,2066.9000000000233,2081.400000047696,1.0,0.0,0.0,,Click Response,1_count,3.0,object-46,temp_dist_trial,37.0,t_i_09_1,travel_Iceland,ear muffs,5.0,unique,single,t_i_09_1.jpg,Travel,,,sub-23
Desktop or Laptop,Windows 10,Chrome 138.0.0.0,1920x1080,1920x919,Temporal Distance Task,cb_05,86.0,temp_dist_trial,num_items,zn7si1,1.0,response,2_ITEM,906.5,900.2000000000116,906.5,906.5,900.2000000000116,906.5,1.0,0.0,0.0,,Click Response,2_count,5.0,object-49,temp_dist_trial,38.0,t_s_08_1,travel_shared,hand lotion,5.0,competing,paired,t_s_08_1.jpg,Travel,,,sub-23
Desktop or Laptop,Windows 10,Chrome 138.0.0.0,1920x1080,1920x919,Temporal Distance Task,cb_05,86.0,temp_dist_trial,dist_items,qkpkxw,2.0,info,,5.600000023841858,0.0,5.600000023841858,5.600000023841858,0.0,5.600000023841858,1.0,0.0,0.0,,Slider,Slider,4.0,object-56,temp_dist_trial,38.0,t_s_08_1,travel_shared,hand lotion,5.0,competing,paired,t_s_08_1.jpg,Travel,,,sub-23
Desktop or Laptop,Windows 10,Chrome 138.0.0.0,1920x1080,1920x919,Temporal Distance Task,cb_05,86.0,temp_dist_trial,dist_items,qkpkxw,2.0,continue,,1437.1000000238419,1433.6000000000058,1437.1000000238419,1437.1000000238419,1433.6000000000058,1437.1000000238419,1.0,0.0,0.0,,Click To Continue,Next button,7.0,object-60,temp_dist_trial,38.0,t_s_08_1,travel_shared,hand lotion,5.0,competing,paired,t_s_08_1.jpg,Travel,,,sub-23
Desktop or Laptop,Windows 10,Chrome 138.0.0.0,1920x1080,1920x919,Temporal Distance Task,cb_05,86.0,temp_dist_trial,dist_items,qkpkxw,2.0,response,71,783.5,1433.6000000000058,1441.3999999761581,783.5,1433.6000000000058,1441.3999999761581,1.0,657.8999999761581,0.0,,Slider,Slider,4.0,object-56,temp_dist_trial,38.0,t_s_08_1,travel_shared,hand lotion,5.0,competing,paired,t_s_08_1.jpg,Travel,,,sub-23
Desktop or Laptop,Windows 10,Chrome 138.0.0.0,1920x1080,1920x919,Temporal Distance Task,cb_05,87.0,temp_dist_trial,num_items,zn7si1,1.0,response,2_ITEM,1537.2000000715198,1533.1999999999825,1537.2000000715198,1537.2000000715198,1533.1999999999825,1537.2000000715198,1.0,0.0,0.0,,Click Response,2_count,5.0,object-49,temp_dist_trial,39.0,t_s_11_1,travel_shared,eye mask,5.0,competing,paired,t_s_11_1.jpg,Travel,,,sub-23
Desktop or Laptop,Windows 10,Chrome 138.0.0.0,1920x1080,1920x919,Temporal Distance Task,cb_05,87.0,temp_dist_trial,dist_items,qkpkxw,2.0,info,,7.100000000005821,0.0,7.100000000005821,7.100000000005821,0.0,7.100000000005821,1.0,0.0,0.0,,Slider,Slider,4.0,object-56,temp_dist_trial,39.0,t_s_11_1,travel_shared,eye mask,5.0,competing,paired,t_s_11_1.jpg,Travel,,,sub-23
Desktop or Laptop,Windows 10,Chrome 138.0.0.0,1920x1080,1920x919,Temporal Distance Task,cb_05,87.0,temp_dist_trial,dist_items,qkpkxw,2.0,continue,,2206.499999976164,2200.0,2206.499999976164,2206.499999976164,2200.0,2206.499999976164,1.0,0.0,0.0,,Click To Continue,Next button,7.0,object-60,temp_dist_trial,39.0,t_s_11_1,travel_shared,eye mask,5.0,competing,paired,t_s_11_1.jpg,Travel,,,sub-23
Desktop or Laptop,Windows 10,Chrome 138.0.0.0,1920x1080,1920x919,Temporal Distance Task,cb_05,87.0,temp_dist_trial,dist_items,qkpkxw,2.0,response,68,1616.5,2200.0,2206.999999976164,1616.5,2200.0,2206.999999976164,1.0,590.499999976164,0.0,,Slider,Slider,4.0,object-56,temp_dist_trial,39.0,t_s_11_1,travel_shared,eye mask,5.0,competing,paired,t_s_11_1.jpg,Travel,,,sub-23
Desktop or Laptop,Windows 10,Chrome 138.0.0.0,1920x1080,1920x919,Temporal Distance Task,cb_05,88.0,temp_dist_trial,num_items,zn7si1,1.0,response,1_ITEM,1286.7000000238475,1283.3999999999942,1286.7000000238475,1286.7000000238475,1283.3999999999942,1286.7000000238475,1.0,0.0,0.0,,Click Response,1_count,3.0,object-46,temp_dist_trial,40.0,t_m_02_1,travel_Miami,t-shirt,5.0,unique,single,t_m_02_1.jpg,Travel,,,sub-23
Desktop or Laptop,Windows 10,Chrome 138.0.0.0,1920x1080,1920x919,Temporal Distance Task,cb_05,89.0,temp_dist_trial,num_items,zn7si1,1.0,response,2_ITEM,1489.8999999999942,1483.8999999999942,1489.8999999999942,1489.8999999999942,1483.8999999999942,1489.8999999999942,1.0,0.0,0.0,,Click Response,2_count,5.0,object-49,temp_dist_trial,41.0,t_s_23_1,travel_shared,ball cap,5.0,competing,paired,t_s_23_1.jpg,Travel,,,sub-23
Desktop or Laptop,Windows 10,Chrome 138.0.0.0,1920x1080,1920x919,Temporal Distance Task,cb_05,89.0,temp_dist_trial,dist_items,qkpkxw,2.0,info,,6.100000047677895,0.0,6.100000047677895,6.100000047677895,0.0,6.100000047677895,1.0,0.0,0.0,,Slider,Slider,4.0,object-56,temp_dist_trial,41.0,t_s_23_1,travel_shared,ball cap,5.0,competing,paired,t_s_23_1.jpg,Travel,,,sub-23
Desktop or Laptop,Windows 10,Chrome 138.0.0.0,1920x1080,1920x919,Temporal Distance Task,cb_05,89.0,temp_dist_trial,dist_items,qkpkxw,2.0,continue,,1524.7000000715198,1516.6000000000058,1524.7000000715198,1524.7000000715198,1516.6000000000058,1524.7000000715198,1.0,0.0,0.0,,Click To Continue,Next button,7.0,object-60,temp_dist_trial,41.0,t_s_23_1,travel_shared,ball cap,5.0,competing,paired,t_s_23_1.jpg,Travel,,,sub-23
Desktop or Laptop,Windows 10,Chrome 138.0.0.0,1920x1080,1920x919,Temporal Distance Task,cb_05,89.0,temp_dist_trial,dist_items,qkpkxw,2.0,response,38,816.7999999999884,1516.6000000000058,1525.2999999761525,816.7999999999884,1516.6000000000058,1525.2999999761525,1.0,708.499999976164,0.0,,Slider,Slider,4.0,object-56,temp_dist_trial,41.0,t_s_23_1,travel_shared,ball cap,5.0,competing,paired,t_s_23_1.jpg,Travel,,,sub-23
Desktop or Laptop,Windows 10,Chrome 138.0.0.0,1920x1080,1920x919,Temporal Distance Task,cb_05,90.0,temp_dist_trial,num_items,zn7si1,1.0,response,1_ITEM,1917.3999999999646,1900.3999999999646,1917.3999999999646,1917.3999999999646,1900.3999999999646,1917.3999999999646,1.0,0.0,0.0,,Click Response,1_count,3.0,object-46,temp_dist_trial,42.0,t_s_13_1,travel_shared,contact lens case,5.0,competing,paired,t_s_13_1.jpg,Travel,,,sub-23
Desktop or Laptop,Windows 10,Chrome 138.0.0.0,1920x1080,1920x919,Temporal Distance Task,cb_05,91.0,temp_dist_trial,num_items,zn7si1,1.0,response,2_ITEM,1377.7000000238183,1366.5999999999767,1377.7000000238183,1377.7000000238183,1366.5999999999767,1377.7000000238183,1.0,0.0,0.0,,Click Response,2_count,5.0,object-49,temp_dist_trial,43.0,t_s_06_1,travel_shared,luggage,5.0,competing,single,t_s_06_1.jpg,Travel,,,sub-23
Desktop or Laptop,Windows 10,Chrome 138.0.0.0,1920x1080,1920x919,Temporal Distance Task,cb_05,91.0,temp_dist_trial,dist_items,qkpkxw,2.0,info,,5.5,0.0,5.5,5.5,0.0,5.5,1.0,0.0,0.0,,Slider,Slider,4.0,object-56,temp_dist_trial,43.0,t_s_06_1,travel_shared,luggage,5.0,competing,single,t_s_06_1.jpg,Travel,,,sub-23
Desktop or Laptop,Windows 10,Chrome 138.0.0.0,1920x1080,1920x919,Temporal Distance Task,cb_05,91.0,temp_dist_trial,dist_items,qkpkxw,2.0,continue,,1750.1000000000354,1733.4000000000233,1750.1000000000354,1750.1000000000354,1733.4000000000233,1750.1000000000354,1.0,0.0,0.0,,Click To Continue,Next button,7.0,object-60,temp_dist_trial,43.0,t_s_06_1,travel_shared,luggage,5.0,competing,single,t_s_06_1.jpg,Travel,,,sub-23
Desktop or Laptop,Windows 10,Chrome 138.0.0.0,1920x1080,1920x919,Temporal Distance Task,cb_05,91.0,temp_dist_trial,dist_items,qkpkxw,2.0,response,61,966.9000000000232,1733.4000000000233,1750.1000000000354,966.9000000000232,1733.4000000000233,1750.1000000000354,1.0,783.2000000000116,0.0,,Slider,Slider,4.0,object-56,temp_dist_trial,43.0,t_s_06_1,travel_shared,luggage,5.0,competing,single,t_s_06_1.jpg,Travel,,,sub-23
Desktop or Laptop,Windows 10,Chrome 138.0.0.0,1920x1080,1920x919,Temporal Distance Task,cb_05,92.0,temp_dist_trial,num_items,zn7si1,1.0,response,1_ITEM,1205.8000000476604,1200.0,1205.8000000476604,1205.8000000476604,1200.0,1205.8000000476604,1.0,0.0,0.0,,Click Response,1_count,3.0,object-46,temp_dist_trial,44.0,t_s_16_1,travel_shared,chapstick,5.0,competing,single,t_s_16_1.jpg,Travel,,,sub-23
Desktop or Laptop,Windows 10,Chrome 138.0.0.0,1920x1080,1920x919,Temporal Distance Task,cb_05,93.0,temp_dist_trial,num_items,zn7si1,1.0,response,1_ITEM,1333.5999999999185,1316.6999999999534,1333.5999999999185,1333.5999999999185,1316.6999999999534,1333.5999999999185,1.0,0.0,0.0,,Click Response,1_count,3.0,object-46,temp_dist_trial,45.0,t_s_17_1,travel_shared,toothbrush,5.0,competing,paired,t_s_17_1.jpg,Travel,,,sub-23
Desktop or Laptop,Windows 10,Chrome 138.0.0.0,1920x1080,1920x919,Temporal Distance Task,cb_05,94.0,temp_dist_trial,num_items,zn7si1,1.0,response,2_ITEM,927.500000047672,916.5999999999768,927.500000047672,927.500000047672,916.5999999999768,927.500000047672,1.0,0.0,0.0,,Click Response,2_count,5.0,object-49,temp_dist_trial,46.0,t_s_10_1,travel_shared,luggage lock,5.0,competing,paired,t_s_10_1.jpg,Travel,,,sub-23
Desktop or Laptop,Windows 10,Chrome 138.0.0.0,1920x1080,1920x919,Temporal Distance Task,cb_05,94.0,temp_dist_trial,dist_items,qkpkxw,2.0,info,,6.3000000238534986,0.0,6.3000000238534986,6.3000000238534986,0.0,6.3000000238534986,1.0,0.0,0.0,,Slider,Slider,4.0,object-56,temp_dist_trial,46.0,t_s_10_1,travel_shared,luggage lock,5.0,competing,paired,t_s_10_1.jpg,Travel,,,sub-23
Desktop or Laptop,Windows 10,Chrome 138.0.0.0,1920x1080,1920x919,Temporal Distance Task,cb_05,94.0,temp_dist_trial,dist_items,qkpkxw,2.0,continue,,2681.200000000012,2666.700000000012,2681.200000000012,2681.200000000012,2666.700000000012,2681.200000000012,1.0,0.0,0.0,,Click To Continue,Next button,7.0,object-60,temp_dist_trial,46.0,t_s_10_1,travel_shared,luggage lock,5.0,competing,paired,t_s_10_1.jpg,Travel,,,sub-23
Desktop or Laptop,Windows 10,Chrome 138.0.0.0,1920x1080,1920x919,Temporal Distance Task,cb_05,94.0,temp_dist_trial,dist_items,qkpkxw,2.0,response,39,1816.6000000000354,2666.700000000012,2683.4000000000233,1816.6000000000354,2666.700000000012,2683.4000000000233,1.0,866.7999999999884,0.0,,Slider,Slider,4.0,object-56,temp_dist_trial,46.0,t_s_10_1,travel_shared,luggage lock,5.0,competing,paired,t_s_10_1.jpg,Travel,,,sub-23
Desktop or Laptop,Windows 10,Chrome 138.0.0.0,1920x1080,1920x919,Temporal Distance Task,cb_05,95.0,temp_dist_trial,num_items,zn7si1,1.0,response,1_ITEM,1254.399999976158,1249.9000000000233,1254.399999976158,1254.399999976158,1249.9000000000233,1254.399999976158,1.0,0.0,0.0,,Click Response,1_count,3.0,object-46,temp_dist_trial,47.0,t_s_14_1,travel_shared,hand sanitizer,5.0,competing,single,t_s_14_1.jpg,Travel,,,sub-23
Desktop or Laptop,Windows 10,Chrome 138.0.0.0,1920x1080,1920x919,Temporal Distance Task,cb_05,96.0,temp_dist_trial,num_items,zn7si1,1.0,response,1_ITEM,1092.9000000476954,1083.5,1092.9000000476954,1092.9000000476954,1083.5,1092.9000000476954,1.0,0.0,0.0,,Click Response,1_count,3.0,object-46,temp_dist_trial,48.0,t_m_09_1,travel_Miami,beach towel,5.0,unique,paired,t_m_09_1.jpg,Travel,,,sub-23
Desktop or Laptop,Windows 10,Chrome 138.0.0.0,1920x1080,1920x919,Temporal Distance Task,$${counterbalance_group},,,,,,info,END,,,272340.0,,,,0.0,,,,,,,,,,,,,,,,,,,,sub-23
