Participant Device,Participant OS,Participant Browser,Participant Monitor Size,Participant Viewport Size,Task Name,Current Spreadsheet,Trial Number,Display,Screen,Screen ID,Screen Counter,Response Type,Response,Onset Time,Clock Time,Reaction Time,Absolute Onset Time,Absolute Clock Time,Absolute Reaction Time,Correct,Response Duration,Proportion,Tag,Component Name,Object Name,Object Number,Object ID,Spreadsheet: display,Spreadsheet: trial,Spreadsheet: stimulus_id,Spreadsheet: expected_goal,Spreadsheet: stimulus_name,Spreadsheet: c_group,Spreadsheet: condition,Spreadsheet: paired_status,Spreadsheet: stimulus_path,Spreadsheet: block_type,Manipulation: Spreadsheet,Store: enc_test_acc,sub_label
Desktop or Laptop,Windows 10,Chrome 131.0.0.0,1366x768,1366x641,Temporal Distance Task,$${counterbalance_group},,,,,,info,BEGIN,,,,,,,0.0,,,,,,,,,,,,,,,,,,,,sub-63
Desktop or Laptop,Windows 10,Chrome 131.0.0.0,1366x768,1366x641,Temporal Distance Task,cb_04,1.0,temp_instructions,intro_screen,3tnme7,1.0,continue,,10712.9,10695.2,10712.9,10712.9,10695.2,10712.9,1.0,0.0,0.0,,Click To Continue,Continue Button,4.0,object-29,temp_instructions,,,Travel,,,,,,,,,sub-63
Desktop or Laptop,Windows 10,Chrome 131.0.0.0,1366x768,1366x641,Temporal Distance Task,cb_04,1.0,temp_instructions,intro_screen_2,52v7ur,2.0,continue,,156386.39999999985,156372.0,156386.39999999985,156386.39999999985,156372.0,156386.39999999985,1.0,0.0,0.0,,Click To Continue,Continue Button,4.0,object-39,temp_instructions,,,Travel,,,,,,,,,sub-63
Desktop or Laptop,Windows 10,Chrome 131.0.0.0,1366x768,1366x641,Temporal Distance Task,cb_04,1.0,temp_instructions,intro_screen_3,i7lvwx,3.0,continue,,4086.600000000035,4070.3999999999933,4086.600000000035,4086.600000000035,4070.3999999999933,4086.600000000035,1.0,0.0,0.0,,Click To Continue,Continue Button,4.0,object-67,temp_instructions,,,Travel,,,,,,,,,sub-63
Desktop or Laptop,Windows 10,Chrome 131.0.0.0,1366x768,1366x641,Temporal Distance Task,cb_04,1.0,temp_instructions,test_q1,5ieqx1,4.0,response,choice_3,9667.7999999999,9659.600000000006,9667.7999999999,9667.7999999999,9659.600000000006,9667.7999999999,1.0,0.0,0.0,,Click Response,choice_3,5.0,object-345,temp_instructions,,,Travel,,,,,,,,,sub-63
Desktop or Laptop,Windows 10,Chrome 131.0.0.0,1366x768,1366x641,Temporal Distance Task,cb_04,1.0,temp_instructions,score_corr,7ilvjr,5.0,continue,,1045.1999999998952,1034.3999999999942,1045.1999999998952,1045.1999999998952,1034.3999999999942,1045.1999999998952,1.0,0.0,0.0,,Click To Continue,Continue Button,3.0,object-23,temp_instructions,,,Travel,,,,,,,,,sub-63
Desktop or Laptop,Windows 10,Chrome 131.0.0.0,1366x768,1366x641,Temporal Distance Task,cb_04,1.0,temp_eventStart,Screen 1,dgtyxe,1.0,continue,,2201.299999999901,2185.5,2201.299999999901,2201.299999999901,2185.5,2201.299999999901,1.0,0.0,0.0,,Click To Continue,Next Button,3.0,object-43,temp_eventStart,,,Travel,,,,,,,,,sub-63
Desktop or Laptop,Windows 10,Chrome 131.0.0.0,1366x768,1366x641,Temporal Distance Task,cb_04,1.0,temp_dist_trial,num_items,zn7si1,1.0,response,num_miss,3003.0,3003.0,3003.0,3003.0,3003.0,3003.0,1.0,0.0,0.0,num_miss_tag,Time Limit,screen,0.0,screen,temp_dist_trial,1.0,t_s_13_1,travel_shared,contact lens case,4.0,competing,single,t_s_13_1.jpg,Travel,,,sub-63
Desktop or Laptop,Windows 10,Chrome 131.0.0.0,1366x768,1366x641,Temporal Distance Task,cb_04,2.0,temp_dist_trial,num_items,zn7si1,1.0,response,1_ITEM,2683.899999999849,2670.1999999999825,2683.899999999849,2683.899999999849,2670.1999999999825,2683.899999999849,1.0,0.0,0.0,,Click Response,1_count,3.0,object-46,temp_dist_trial,2.0,t_i_05_1,travel_Iceland,hiking boots,4.0,unique,paired,t_i_05_1.jpg,Travel,,,sub-63
Desktop or Laptop,Windows 10,Chrome 131.0.0.0,1366x768,1366x641,Temporal Distance Task,cb_04,3.0,temp_dist_trial,num_items,zn7si1,1.0,response,1_ITEM,2592.999999999913,2584.800000000017,2592.999999999913,2592.999999999913,2584.800000000017,2592.999999999913,1.0,0.0,0.0,,Click Response,1_count,3.0,object-46,temp_dist_trial,3.0,t_s_07_1,travel_shared,phone charger cable,4.0,competing,paired,t_s_07_1.jpg,Travel,,,sub-63
Desktop or Laptop,Windows 10,Chrome 131.0.0.0,1366x768,1366x641,Temporal Distance Task,cb_04,4.0,temp_dist_trial,num_items,zn7si1,1.0,response,1_ITEM,2325.8000000000466,2318.8999999999937,2325.8000000000466,2325.8000000000466,2318.8999999999937,2325.8000000000466,1.0,0.0,0.0,,Click Response,1_count,3.0,object-46,temp_dist_trial,4.0,t_m_12_1,travel_Miami,foldable pail and shovel,4.0,unique,paired,t_m_12_1.jpg,Travel,,,sub-63
Desktop or Laptop,Windows 10,Chrome 131.0.0.0,1366x768,1366x641,Temporal Distance Task,cb_04,5.0,temp_dist_trial,num_items,zn7si1,1.0,response,2_ITEM,2332.499999999913,2318.700000000012,2332.499999999913,2332.499999999913,2318.700000000012,2332.499999999913,1.0,0.0,0.0,,Click Response,2_count,5.0,object-49,temp_dist_trial,5.0,t_s_04_1,travel_shared,instant camera,4.0,competing,single,t_s_04_1.jpg,Travel,,,sub-63
Desktop or Laptop,Windows 10,Chrome 131.0.0.0,1366x768,1366x641,Temporal Distance Task,cb_04,5.0,temp_dist_trial,dist_items,qkpkxw,2.0,info,,16.699999999982538,0.0,16.699999999982538,16.699999999982538,0.0,16.699999999982538,1.0,0.0,0.0,,Slider,Slider,4.0,object-56,temp_dist_trial,5.0,t_s_04_1,travel_shared,instant camera,4.0,competing,single,t_s_04_1.jpg,Travel,,,sub-63
Desktop or Laptop,Windows 10,Chrome 131.0.0.0,1366x768,1366x641,Temporal Distance Task,cb_04,5.0,temp_dist_trial,dist_items,qkpkxw,2.0,continue,,5405.700000000041,5388.8000000000175,5405.700000000041,5405.700000000041,5388.8000000000175,5405.700000000041,1.0,0.0,0.0,,Click To Continue,Next button,7.0,object-60,temp_dist_trial,5.0,t_s_04_1,travel_shared,instant camera,4.0,competing,single,t_s_04_1.jpg,Travel,,,sub-63
Desktop or Laptop,Windows 10,Chrome 131.0.0.0,1366x768,1366x641,Temporal Distance Task,cb_04,5.0,temp_dist_trial,dist_items,qkpkxw,2.0,response,89,2836.8999999999933,5388.8000000000175,5405.700000000041,2836.8999999999933,5388.8000000000175,5405.700000000041,1.0,2568.8000000000466,0.0,,Slider,Slider,4.0,object-56,temp_dist_trial,5.0,t_s_04_1,travel_shared,instant camera,4.0,competing,single,t_s_04_1.jpg,Travel,,,sub-63
Desktop or Laptop,Windows 10,Chrome 131.0.0.0,1366x768,1366x641,Temporal Distance Task,cb_04,6.0,temp_dist_trial,num_items,zn7si1,1.0,response,num_miss,3003.5,3003.5,3003.5,3003.5,3003.5,3003.5,1.0,0.0,0.0,num_miss_tag,Time Limit,screen,0.0,screen,temp_dist_trial,6.0,t_s_12_1,travel_shared,clear toiletry bag,4.0,competing,paired,t_s_12_1.jpg,Travel,,,sub-63
Desktop or Laptop,Windows 10,Chrome 131.0.0.0,1366x768,1366x641,Temporal Distance Task,cb_04,7.0,temp_dist_trial,num_items,zn7si1,1.0,response,1_ITEM,1713.6000000000354,1701.6999999999825,1713.6000000000354,1713.6000000000354,1701.6999999999825,1713.6000000000354,1.0,0.0,0.0,,Click Response,1_count,3.0,object-46,temp_dist_trial,7.0,t_s_16_1,travel_shared,chapstick,4.0,competing,paired,t_s_16_1.jpg,Travel,,,sub-63
Desktop or Laptop,Windows 10,Chrome 131.0.0.0,1366x768,1366x641,Temporal Distance Task,cb_04,8.0,temp_dist_trial,num_items,zn7si1,1.0,response,2_ITEM,1983.7999999999595,1968.6999999999825,1983.7999999999595,1983.7999999999595,1968.6999999999825,1983.7999999999595,1.0,0.0,0.0,,Click Response,2_count,5.0,object-49,temp_dist_trial,8.0,t_s_21_1,travel_shared,umbrella,4.0,competing,paired,t_s_21_1.jpg,Travel,,,sub-63
Desktop or Laptop,Windows 10,Chrome 131.0.0.0,1366x768,1366x641,Temporal Distance Task,cb_04,8.0,temp_dist_trial,dist_items,qkpkxw,2.0,info,,14.799999999901047,0.0,14.799999999901047,14.799999999901047,0.0,14.799999999901047,1.0,0.0,0.0,,Slider,Slider,4.0,object-56,temp_dist_trial,8.0,t_s_21_1,travel_shared,umbrella,4.0,competing,paired,t_s_21_1.jpg,Travel,,,sub-63
Desktop or Laptop,Windows 10,Chrome 131.0.0.0,1366x768,1366x641,Temporal Distance Task,cb_04,8.0,temp_dist_trial,dist_items,qkpkxw,2.0,response,dist_miss,7006.7999999999865,7006.7999999999865,7006.7999999999865,7006.7999999999865,7006.7999999999865,7006.7999999999865,1.0,0.0,0.0,dist_miss_tag,Time Limit,screen,0.0,screen,temp_dist_trial,8.0,t_s_21_1,travel_shared,umbrella,4.0,competing,paired,t_s_21_1.jpg,Travel,,,sub-63
Desktop or Laptop,Windows 10,Chrome 131.0.0.0,1366x768,1366x641,Temporal Distance Task,cb_04,8.0,temp_dist_trial,dist_items,qkpkxw,2.0,response,44,6473.1999999999825,7006.7999999999865,7021.099999999948,6473.1999999999825,7006.7999999999865,7021.099999999948,1.0,547.8999999999652,0.0,,Slider,Slider,4.0,object-56,temp_dist_trial,8.0,t_s_21_1,travel_shared,umbrella,4.0,competing,paired,t_s_21_1.jpg,Travel,,,sub-63
Desktop or Laptop,Windows 10,Chrome 131.0.0.0,1366x768,1366x641,Temporal Distance Task,cb_04,9.0,temp_dist_trial,num_items,zn7si1,1.0,response,num_miss,3003.200000000012,3003.200000000012,3003.200000000012,3003.200000000012,3003.200000000012,3003.200000000012,1.0,0.0,0.0,num_miss_tag,Time Limit,screen,0.0,screen,temp_dist_trial,9.0,t_s_03_1,travel_shared,portable charger,4.0,competing,paired,t_s_03_1.jpg,Travel,,,sub-63
Desktop or Laptop,Windows 10,Chrome 131.0.0.0,1366x768,1366x641,Temporal Distance Task,cb_04,10.0,temp_dist_trial,num_items,zn7si1,1.0,response,1_ITEM,1735.0,1718.3999999999942,1735.0,1735.0,1718.3999999999942,1735.0,1.0,0.0,0.0,,Click Response,1_count,3.0,object-46,temp_dist_trial,10.0,t_i_19_1,travel_Iceland,rope,4.0,unique,single,t_i_19_1.jpg,Travel,,,sub-63
Desktop or Laptop,Windows 10,Chrome 131.0.0.0,1366x768,1366x641,Temporal Distance Task,cb_04,11.0,temp_dist_trial,num_items,zn7si1,1.0,response,2_ITEM,1398.8999999999066,1384.5,1398.8999999999066,1398.8999999999066,1384.5,1398.8999999999066,1.0,0.0,0.0,,Click Response,2_count,5.0,object-49,temp_dist_trial,11.0,t_s_15_1,travel_shared,luggage tag,4.0,competing,single,t_s_15_1.jpg,Travel,,,sub-63
Desktop or Laptop,Windows 10,Chrome 131.0.0.0,1366x768,1366x641,Temporal Distance Task,cb_04,11.0,temp_dist_trial,dist_items,qkpkxw,2.0,info,,17.10000000000582,0.0,17.10000000000582,17.10000000000582,0.0,17.10000000000582,1.0,0.0,0.0,,Slider,Slider,4.0,object-56,temp_dist_trial,11.0,t_s_15_1,travel_shared,luggage tag,4.0,competing,single,t_s_15_1.jpg,Travel,,,sub-63
Desktop or Laptop,Windows 10,Chrome 131.0.0.0,1366x768,1366x641,Temporal Distance Task,cb_04,11.0,temp_dist_trial,dist_items,qkpkxw,2.0,continue,,3229.499999999942,3219.2999999999884,3229.499999999942,3229.499999999942,3219.2999999999884,3229.499999999942,1.0,0.0,0.0,,Click To Continue,Next button,7.0,object-60,temp_dist_trial,11.0,t_s_15_1,travel_shared,luggage tag,4.0,competing,single,t_s_15_1.jpg,Travel,,,sub-63
Desktop or Laptop,Windows 10,Chrome 131.0.0.0,1366x768,1366x641,Temporal Distance Task,cb_04,11.0,temp_dist_trial,dist_items,qkpkxw,2.0,response,31,1735.0,3219.2999999999884,3234.7999999999884,1735.0,3219.2999999999884,3234.7999999999884,1.0,1499.7999999999884,0.0,,Slider,Slider,4.0,object-56,temp_dist_trial,11.0,t_s_15_1,travel_shared,luggage tag,4.0,competing,single,t_s_15_1.jpg,Travel,,,sub-63
Desktop or Laptop,Windows 10,Chrome 131.0.0.0,1366x768,1366x641,Temporal Distance Task,cb_04,12.0,temp_dist_trial,num_items,zn7si1,1.0,response,2_ITEM,2135.5999999999767,2118.8999999999937,2135.5999999999767,2135.5999999999767,2118.8999999999937,2135.5999999999767,1.0,0.0,0.0,,Click Response,2_count,5.0,object-49,temp_dist_trial,12.0,t_i_07_1,travel_Iceland,hiking backpack,4.0,unique,paired,t_i_07_1.jpg,Travel,,,sub-63
Desktop or Laptop,Windows 10,Chrome 131.0.0.0,1366x768,1366x641,Temporal Distance Task,cb_04,12.0,temp_dist_trial,dist_items,qkpkxw,2.0,info,,18.89999999999418,0.0,18.89999999999418,18.89999999999418,0.0,18.89999999999418,1.0,0.0,0.0,,Slider,Slider,4.0,object-56,temp_dist_trial,12.0,t_i_07_1,travel_Iceland,hiking backpack,4.0,unique,paired,t_i_07_1.jpg,Travel,,,sub-63
Desktop or Laptop,Windows 10,Chrome 131.0.0.0,1366x768,1366x641,Temporal Distance Task,cb_04,12.0,temp_dist_trial,dist_items,qkpkxw,2.0,continue,,2781.1000000000067,2767.8999999999933,2781.1000000000067,2781.1000000000067,2767.8999999999933,2781.1000000000067,1.0,0.0,0.0,,Click To Continue,Next button,7.0,object-60,temp_dist_trial,12.0,t_i_07_1,travel_Iceland,hiking backpack,4.0,unique,paired,t_i_07_1.jpg,Travel,,,sub-63
Desktop or Laptop,Windows 10,Chrome 131.0.0.0,1366x768,1366x641,Temporal Distance Task,cb_04,12.0,temp_dist_trial,dist_items,qkpkxw,2.0,response,14,1082.0,2767.8999999999933,2782.2999999999597,1082.0,2767.8999999999933,2782.2999999999597,1.0,1700.299999999959,0.0,,Slider,Slider,4.0,object-56,temp_dist_trial,12.0,t_i_07_1,travel_Iceland,hiking backpack,4.0,unique,paired,t_i_07_1.jpg,Travel,,,sub-63
Desktop or Laptop,Windows 10,Chrome 131.0.0.0,1366x768,1366x641,Temporal Distance Task,cb_04,13.0,temp_dist_trial,num_items,zn7si1,1.0,response,1_ITEM,2451.6999999999825,2435.0,2451.6999999999825,2451.6999999999825,2435.0,2451.6999999999825,1.0,0.0,0.0,,Click Response,1_count,3.0,object-46,temp_dist_trial,13.0,t_s_11_1,travel_shared,eye mask,4.0,competing,paired,t_s_11_1.jpg,Travel,,,sub-63
Desktop or Laptop,Windows 10,Chrome 131.0.0.0,1366x768,1366x641,Temporal Distance Task,cb_04,14.0,temp_dist_trial,num_items,zn7si1,1.0,response,2_ITEM,1008.6000000000058,1003.7000000000116,1008.6000000000058,1008.6000000000058,1003.7000000000116,1008.6000000000058,1.0,0.0,0.0,,Click Response,2_count,5.0,object-49,temp_dist_trial,14.0,t_m_19_1,travel_Miami,surfboard,4.0,unique,single,t_m_19_1.jpg,Travel,,,sub-63
Desktop or Laptop,Windows 10,Chrome 131.0.0.0,1366x768,1366x641,Temporal Distance Task,cb_04,14.0,temp_dist_trial,dist_items,qkpkxw,2.0,info,,17.199999999982538,0.0,17.199999999982538,17.199999999982538,0.0,17.199999999982538,1.0,0.0,0.0,,Slider,Slider,4.0,object-56,temp_dist_trial,14.0,t_m_19_1,travel_Miami,surfboard,4.0,unique,single,t_m_19_1.jpg,Travel,,,sub-63
Desktop or Laptop,Windows 10,Chrome 131.0.0.0,1366x768,1366x641,Temporal Distance Task,cb_04,14.0,temp_dist_trial,dist_items,qkpkxw,2.0,continue,,2549.7999999999593,2535.200000000012,2549.7999999999593,2549.7999999999593,2535.200000000012,2549.7999999999593,1.0,0.0,0.0,,Click To Continue,Next button,7.0,object-60,temp_dist_trial,14.0,t_m_19_1,travel_Miami,surfboard,4.0,unique,single,t_m_19_1.jpg,Travel,,,sub-63
Desktop or Laptop,Windows 10,Chrome 131.0.0.0,1366x768,1366x641,Temporal Distance Task,cb_04,14.0,temp_dist_trial,dist_items,qkpkxw,2.0,response,43,1217.3999999999942,2535.200000000012,2551.9000000000233,1217.3999999999942,2535.200000000012,2551.9000000000233,1.0,1334.500000000029,0.0,,Slider,Slider,4.0,object-56,temp_dist_trial,14.0,t_m_19_1,travel_Miami,surfboard,4.0,unique,single,t_m_19_1.jpg,Travel,,,sub-63
Desktop or Laptop,Windows 10,Chrome 131.0.0.0,1366x768,1366x641,Temporal Distance Task,cb_04,15.0,temp_dist_trial,num_items,zn7si1,1.0,response,2_ITEM,1173.4999999998545,1167.7999999999886,1173.4999999998545,1173.4999999998545,1167.7999999999886,1173.4999999998545,1.0,0.0,0.0,,Click Response,2_count,5.0,object-49,temp_dist_trial,15.0,t_m_16_1,travel_Miami,flippers,4.0,unique,single,t_m_16_1.jpg,Travel,,,sub-63
Desktop or Laptop,Windows 10,Chrome 131.0.0.0,1366x768,1366x641,Temporal Distance Task,cb_04,15.0,temp_dist_trial,dist_items,qkpkxw,2.0,info,,12.399999999965074,0.0,12.399999999965074,12.399999999965074,0.0,12.399999999965074,1.0,0.0,0.0,,Slider,Slider,4.0,object-56,temp_dist_trial,15.0,t_m_16_1,travel_Miami,flippers,4.0,unique,single,t_m_16_1.jpg,Travel,,,sub-63
Desktop or Laptop,Windows 10,Chrome 131.0.0.0,1366x768,1366x641,Temporal Distance Task,cb_04,15.0,temp_dist_trial,dist_items,qkpkxw,2.0,continue,,2844.799999999872,2836.300000000017,2844.799999999872,2844.799999999872,2836.300000000017,2844.799999999872,1.0,0.0,0.0,,Click To Continue,Next button,7.0,object-60,temp_dist_trial,15.0,t_m_16_1,travel_Miami,flippers,4.0,unique,single,t_m_16_1.jpg,Travel,,,sub-63
Desktop or Laptop,Windows 10,Chrome 131.0.0.0,1366x768,1366x641,Temporal Distance Task,cb_04,15.0,temp_dist_trial,dist_items,qkpkxw,2.0,response,65,1451.4000000000233,2836.300000000017,2846.700000000012,1451.4000000000233,2836.300000000017,2846.700000000012,1.0,1395.2999999999884,0.0,,Slider,Slider,4.0,object-56,temp_dist_trial,15.0,t_m_16_1,travel_Miami,flippers,4.0,unique,single,t_m_16_1.jpg,Travel,,,sub-63
Desktop or Laptop,Windows 10,Chrome 131.0.0.0,1366x768,1366x641,Temporal Distance Task,cb_04,16.0,temp_dist_trial,num_items,zn7si1,1.0,response,2_ITEM,2059.7000000000407,2051.8999999999937,2059.7000000000407,2059.7000000000407,2051.8999999999937,2059.7000000000407,1.0,0.0,0.0,,Click Response,2_count,5.0,object-49,temp_dist_trial,16.0,t_m_01_1,travel_Miami,sandals,4.0,unique,paired,t_m_01_1.jpg,Travel,,,sub-63
Desktop or Laptop,Windows 10,Chrome 131.0.0.0,1366x768,1366x641,Temporal Distance Task,cb_04,16.0,temp_dist_trial,dist_items,qkpkxw,2.0,info,,14.899999999848658,0.0,14.899999999848658,14.899999999848658,0.0,14.899999999848658,1.0,0.0,0.0,,Slider,Slider,4.0,object-56,temp_dist_trial,16.0,t_m_01_1,travel_Miami,sandals,4.0,unique,paired,t_m_01_1.jpg,Travel,,,sub-63
Desktop or Laptop,Windows 10,Chrome 131.0.0.0,1366x768,1366x641,Temporal Distance Task,cb_04,16.0,temp_dist_trial,dist_items,qkpkxw,2.0,continue,,1818.2999999999884,1801.6999999999825,1818.2999999999884,1818.2999999999884,1801.6999999999825,1818.2999999999884,1.0,0.0,0.0,,Click To Continue,Next button,7.0,object-60,temp_dist_trial,16.0,t_m_01_1,travel_Miami,sandals,4.0,unique,paired,t_m_01_1.jpg,Travel,,,sub-63
Desktop or Laptop,Windows 10,Chrome 131.0.0.0,1366x768,1366x641,Temporal Distance Task,cb_04,16.0,temp_dist_trial,dist_items,qkpkxw,2.0,response,63,717.3999999999942,1801.6999999999825,1818.2999999999884,717.3999999999942,1801.6999999999825,1818.2999999999884,1.0,1100.8999999999942,0.0,,Slider,Slider,4.0,object-56,temp_dist_trial,16.0,t_m_01_1,travel_Miami,sandals,4.0,unique,paired,t_m_01_1.jpg,Travel,,,sub-63
Desktop or Laptop,Windows 10,Chrome 131.0.0.0,1366x768,1366x641,Temporal Distance Task,cb_04,17.0,temp_dist_trial,num_items,zn7si1,1.0,response,1_ITEM,1272.9000000000524,1268.1000000000058,1272.9000000000524,1272.9000000000524,1268.1000000000058,1272.9000000000524,1.0,0.0,0.0,,Click Response,1_count,3.0,object-46,temp_dist_trial,17.0,t_s_22_1,travel_shared,belt,4.0,competing,paired,t_s_22_1.jpg,Travel,,,sub-63
Desktop or Laptop,Windows 10,Chrome 131.0.0.0,1366x768,1366x641,Temporal Distance Task,cb_04,18.0,temp_dist_trial,num_items,zn7si1,1.0,response,num_miss,3003.199999999982,3003.199999999982,3003.199999999982,3003.199999999982,3003.199999999982,3003.199999999982,1.0,0.0,0.0,num_miss_tag,Time Limit,screen,0.0,screen,temp_dist_trial,18.0,t_s_24_1,travel_shared,ear plugs,4.0,competing,single,t_s_24_1.jpg,Travel,,,sub-63
Desktop or Laptop,Windows 10,Chrome 131.0.0.0,1366x768,1366x641,Temporal Distance Task,cb_04,19.0,temp_dist_trial,num_items,zn7si1,1.0,response,1_ITEM,1996.6000000000354,1985.2999999999884,1996.6000000000354,1996.6000000000354,1985.2999999999884,1996.6000000000354,1.0,0.0,0.0,,Click Response,1_count,3.0,object-46,temp_dist_trial,19.0,t_i_08_1,travel_Iceland,thick socks,4.0,unique,single,t_i_08_1.jpg,Travel,,,sub-63
Desktop or Laptop,Windows 10,Chrome 131.0.0.0,1366x768,1366x641,Temporal Distance Task,cb_04,20.0,temp_dist_trial,num_items,zn7si1,1.0,response,2_ITEM,1818.499999999941,1801.7999999999884,1818.499999999941,1818.499999999941,1801.7999999999884,1818.499999999941,1.0,0.0,0.0,,Click Response,2_count,5.0,object-49,temp_dist_trial,20.0,t_i_03_1,travel_Iceland,winter jacket,4.0,unique,paired,t_i_03_1.jpg,Travel,,,sub-63
Desktop or Laptop,Windows 10,Chrome 131.0.0.0,1366x768,1366x641,Temporal Distance Task,cb_04,20.0,temp_dist_trial,dist_items,qkpkxw,2.0,info,,17.099999999976713,0.0,17.099999999976713,17.099999999976713,0.0,17.099999999976713,1.0,0.0,0.0,,Slider,Slider,4.0,object-56,temp_dist_trial,20.0,t_i_03_1,travel_Iceland,winter jacket,4.0,unique,paired,t_i_03_1.jpg,Travel,,,sub-63
Desktop or Laptop,Windows 10,Chrome 131.0.0.0,1366x768,1366x641,Temporal Distance Task,cb_04,20.0,temp_dist_trial,dist_items,qkpkxw,2.0,continue,,3665.1999999999534,3653.0999999999767,3665.1999999999534,3665.1999999999534,3653.0999999999767,3665.1999999999534,1.0,0.0,0.0,,Click To Continue,Next button,7.0,object-60,temp_dist_trial,20.0,t_i_03_1,travel_Iceland,winter jacket,4.0,unique,paired,t_i_03_1.jpg,Travel,,,sub-63
Desktop or Laptop,Windows 10,Chrome 131.0.0.0,1366x768,1366x641,Temporal Distance Task,cb_04,20.0,temp_dist_trial,dist_items,qkpkxw,2.0,response,39,2034.5999999999767,3653.0999999999767,3665.5999999998603,2034.5999999999767,3653.0999999999767,3665.5999999998603,1.0,1630.9999999998834,0.0,,Slider,Slider,4.0,object-56,temp_dist_trial,20.0,t_i_03_1,travel_Iceland,winter jacket,4.0,unique,paired,t_i_03_1.jpg,Travel,,,sub-63
Desktop or Laptop,Windows 10,Chrome 131.0.0.0,1366x768,1366x641,Temporal Distance Task,cb_04,21.0,temp_dist_trial,num_items,zn7si1,1.0,response,1_ITEM,1289.9999999998836,1284.5,1289.9999999998836,1289.9999999998836,1284.5,1289.9999999998836,1.0,0.0,0.0,,Click Response,1_count,3.0,object-46,temp_dist_trial,21.0,t_s_09_1,travel_shared,wallet,4.0,competing,paired,t_s_09_1.jpg,Travel,,,sub-63
Desktop or Laptop,Windows 10,Chrome 131.0.0.0,1366x768,1366x641,Temporal Distance Task,cb_04,22.0,temp_dist_trial,num_items,zn7si1,1.0,response,1_ITEM,2268.699999999837,2252.399999999965,2268.699999999837,2268.699999999837,2252.399999999965,2268.699999999837,1.0,0.0,0.0,,Click Response,1_count,3.0,object-46,temp_dist_trial,22.0,t_s_20_1,travel_shared,travel pill case,4.0,competing,paired,t_s_20_1.jpg,Travel,,,sub-63
Desktop or Laptop,Windows 10,Chrome 131.0.0.0,1366x768,1366x641,Temporal Distance Task,cb_04,23.0,temp_dist_trial,num_items,zn7si1,1.0,response,2_ITEM,1549.4999999998834,1534.8999999999646,1549.4999999998834,1549.4999999998834,1534.8999999999646,1549.4999999998834,1.0,0.0,0.0,,Click Response,2_count,5.0,object-49,temp_dist_trial,23.0,t_s_08_1,travel_shared,hand lotion,4.0,competing,paired,t_s_08_1.jpg,Travel,,,sub-63
Desktop or Laptop,Windows 10,Chrome 131.0.0.0,1366x768,1366x641,Temporal Distance Task,cb_04,23.0,temp_dist_trial,dist_items,qkpkxw,2.0,info,,16.599999999976713,0.0,16.599999999976713,16.599999999976713,0.0,16.599999999976713,1.0,0.0,0.0,,Slider,Slider,4.0,object-56,temp_dist_trial,23.0,t_s_08_1,travel_shared,hand lotion,4.0,competing,paired,t_s_08_1.jpg,Travel,,,sub-63
Desktop or Laptop,Windows 10,Chrome 131.0.0.0,1366x768,1366x641,Temporal Distance Task,cb_04,23.0,temp_dist_trial,dist_items,qkpkxw,2.0,continue,,2539.399999999907,2535.700000000012,2539.399999999907,2539.399999999907,2535.700000000012,2539.399999999907,1.0,0.0,0.0,,Click To Continue,Next button,7.0,object-60,temp_dist_trial,23.0,t_s_08_1,travel_shared,hand lotion,4.0,competing,paired,t_s_08_1.jpg,Travel,,,sub-63
Desktop or Laptop,Windows 10,Chrome 131.0.0.0,1366x768,1366x641,Temporal Distance Task,cb_04,23.0,temp_dist_trial,dist_items,qkpkxw,2.0,response,29,1468.4000000000233,2535.700000000012,2540.0,1468.4000000000233,2535.700000000012,2540.0,1.0,1071.5999999999767,0.0,,Slider,Slider,4.0,object-56,temp_dist_trial,23.0,t_s_08_1,travel_shared,hand lotion,4.0,competing,paired,t_s_08_1.jpg,Travel,,,sub-63
Desktop or Laptop,Windows 10,Chrome 131.0.0.0,1366x768,1366x641,Temporal Distance Task,cb_04,24.0,temp_dist_trial,num_items,zn7si1,1.0,response,1_ITEM,1697.8999999998487,1685.0999999999767,1697.8999999998487,1697.8999999998487,1685.0999999999767,1697.8999999998487,1.0,0.0,0.0,,Click Response,1_count,3.0,object-46,temp_dist_trial,24.0,t_m_18_1,travel_Miami,waterproof tote,4.0,unique,single,t_m_18_1.jpg,Travel,,,sub-63
Desktop or Laptop,Windows 10,Chrome 131.0.0.0,1366x768,1366x641,Temporal Distance Task,cb_04,25.0,temp_dist_trial,num_items,zn7si1,1.0,response,2_ITEM,1223.7000000000694,1217.9000000000233,1223.7000000000694,1223.7000000000694,1217.9000000000233,1223.7000000000694,1.0,0.0,0.0,,Click Response,2_count,5.0,object-49,temp_dist_trial,25.0,t_s_05_1,travel_shared,neck pillow,4.0,competing,paired,t_s_05_1.jpg,Travel,,,sub-63
Desktop or Laptop,Windows 10,Chrome 131.0.0.0,1366x768,1366x641,Temporal Distance Task,cb_04,25.0,temp_dist_trial,dist_items,qkpkxw,2.0,info,,15.900000000023287,0.0,15.900000000023287,15.900000000023287,0.0,15.900000000023287,1.0,0.0,0.0,,Slider,Slider,4.0,object-56,temp_dist_trial,25.0,t_s_05_1,travel_shared,neck pillow,4.0,competing,paired,t_s_05_1.jpg,Travel,,,sub-63
Desktop or Laptop,Windows 10,Chrome 131.0.0.0,1366x768,1366x641,Temporal Distance Task,cb_04,25.0,temp_dist_trial,dist_items,qkpkxw,2.0,continue,,1818.7999999999884,1802.0,1818.7999999999884,1818.7999999999884,1802.0,1818.7999999999884,1.0,0.0,0.0,,Click To Continue,Next button,7.0,object-60,temp_dist_trial,25.0,t_s_05_1,travel_shared,neck pillow,4.0,competing,paired,t_s_05_1.jpg,Travel,,,sub-63
Desktop or Laptop,Windows 10,Chrome 131.0.0.0,1366x768,1366x641,Temporal Distance Task,cb_04,25.0,temp_dist_trial,dist_items,qkpkxw,2.0,response,36,817.7000000000116,1802.0,1818.7999999999884,817.7000000000116,1802.0,1818.7999999999884,1.0,1001.0999999999768,0.0,,Slider,Slider,4.0,object-56,temp_dist_trial,25.0,t_s_05_1,travel_shared,neck pillow,4.0,competing,paired,t_s_05_1.jpg,Travel,,,sub-63
Desktop or Laptop,Windows 10,Chrome 131.0.0.0,1366x768,1366x641,Temporal Distance Task,cb_04,26.0,temp_dist_trial,num_items,zn7si1,1.0,response,1_ITEM,1701.2999999999302,1686.3000000000463,1701.2999999999302,1701.2999999999302,1686.3000000000463,1701.2999999999302,1.0,0.0,0.0,,Click Response,1_count,3.0,object-46,temp_dist_trial,26.0,t_s_23_1,travel_shared,ball cap,4.0,competing,single,t_s_23_1.jpg,Travel,,,sub-63
Desktop or Laptop,Windows 10,Chrome 131.0.0.0,1366x768,1366x641,Temporal Distance Task,cb_04,27.0,temp_dist_trial,num_items,zn7si1,1.0,response,1_ITEM,1774.9999999999418,1768.5,1774.9999999999418,1774.9999999999418,1768.5,1774.9999999999418,1.0,0.0,0.0,,Click Response,1_count,3.0,object-46,temp_dist_trial,27.0,t_i_20_1,travel_Iceland,lantern,4.0,unique,single,t_i_20_1.jpg,Travel,,,sub-63
Desktop or Laptop,Windows 10,Chrome 131.0.0.0,1366x768,1366x641,Temporal Distance Task,cb_04,28.0,temp_dist_trial,num_items,zn7si1,1.0,response,2_ITEM,2283.8000000000466,2267.200000000012,2283.8000000000466,2283.8000000000466,2267.200000000012,2283.8000000000466,1.0,0.0,0.0,,Click Response,2_count,5.0,object-49,temp_dist_trial,28.0,t_i_02_1,travel_Iceland,scarf,4.0,unique,paired,t_i_02_1.jpg,Travel,,,sub-63
Desktop or Laptop,Windows 10,Chrome 131.0.0.0,1366x768,1366x641,Temporal Distance Task,cb_04,28.0,temp_dist_trial,dist_items,qkpkxw,2.0,info,,16.600000000034925,0.0,16.600000000034925,16.600000000034925,0.0,16.600000000034925,1.0,0.0,0.0,,Slider,Slider,4.0,object-56,temp_dist_trial,28.0,t_i_02_1,travel_Iceland,scarf,4.0,unique,paired,t_i_02_1.jpg,Travel,,,sub-63
Desktop or Laptop,Windows 10,Chrome 131.0.0.0,1366x768,1366x641,Temporal Distance Task,cb_04,28.0,temp_dist_trial,dist_items,qkpkxw,2.0,continue,,2835.899999999965,2819.399999999965,2835.899999999965,2835.899999999965,2819.399999999965,2835.899999999965,1.0,0.0,0.0,,Click To Continue,Next button,7.0,object-60,temp_dist_trial,28.0,t_i_02_1,travel_Iceland,scarf,4.0,unique,paired,t_i_02_1.jpg,Travel,,,sub-63
Desktop or Laptop,Windows 10,Chrome 131.0.0.0,1366x768,1366x641,Temporal Distance Task,cb_04,28.0,temp_dist_trial,dist_items,qkpkxw,2.0,response,26,1501.3999999999646,2819.399999999965,2835.899999999965,1501.3999999999646,2819.399999999965,2835.899999999965,1.0,1334.5,0.0,,Slider,Slider,4.0,object-56,temp_dist_trial,28.0,t_i_02_1,travel_Iceland,scarf,4.0,unique,paired,t_i_02_1.jpg,Travel,,,sub-63
Desktop or Laptop,Windows 10,Chrome 131.0.0.0,1366x768,1366x641,Temporal Distance Task,cb_04,29.0,temp_dist_trial,num_items,zn7si1,1.0,response,1_ITEM,1611.4000000000233,1601.6000000000354,1611.4000000000233,1611.4000000000233,1601.6000000000354,1611.4000000000233,1.0,0.0,0.0,,Click Response,1_count,3.0,object-46,temp_dist_trial,29.0,t_s_10_1,travel_shared,luggage lock,4.0,competing,single,t_s_10_1.jpg,Travel,,,sub-63
Desktop or Laptop,Windows 10,Chrome 131.0.0.0,1366x768,1366x641,Temporal Distance Task,cb_04,30.0,temp_dist_trial,num_items,zn7si1,1.0,response,1_ITEM,2036.4000000000235,2019.4000000000235,2036.4000000000235,2036.4000000000235,2019.4000000000235,2036.4000000000235,1.0,0.0,0.0,,Click Response,1_count,3.0,object-46,temp_dist_trial,30.0,t_m_10_1,travel_Miami,tanktop,4.0,unique,paired,t_m_10_1.jpg,Travel,,,sub-63
Desktop or Laptop,Windows 10,Chrome 131.0.0.0,1366x768,1366x641,Temporal Distance Task,cb_04,31.0,temp_dist_trial,num_items,zn7si1,1.0,response,2_ITEM,1278.4000000000233,1268.0,1278.4000000000233,1278.4000000000233,1268.0,1278.4000000000233,1.0,0.0,0.0,,Click Response,2_count,5.0,object-49,temp_dist_trial,31.0,t_i_13_1,travel_Iceland,sleeping bag,4.0,unique,paired,t_i_13_1.jpg,Travel,,,sub-63
Desktop or Laptop,Windows 10,Chrome 131.0.0.0,1366x768,1366x641,Temporal Distance Task,cb_04,31.0,temp_dist_trial,dist_items,qkpkxw,2.0,info,,11.299999999988358,0.0,11.299999999988358,11.299999999988358,0.0,11.299999999988358,1.0,0.0,0.0,,Slider,Slider,4.0,object-56,temp_dist_trial,31.0,t_i_13_1,travel_Iceland,sleeping bag,4.0,unique,paired,t_i_13_1.jpg,Travel,,,sub-63
Desktop or Laptop,Windows 10,Chrome 131.0.0.0,1366x768,1366x641,Temporal Distance Task,cb_04,31.0,temp_dist_trial,dist_items,qkpkxw,2.0,continue,,2240.499999999942,2237.0,2240.499999999942,2240.499999999942,2237.0,2240.499999999942,1.0,0.0,0.0,,Click To Continue,Next button,7.0,object-60,temp_dist_trial,31.0,t_i_13_1,travel_Iceland,sleeping bag,4.0,unique,paired,t_i_13_1.jpg,Travel,,,sub-63
Desktop or Laptop,Windows 10,Chrome 131.0.0.0,1366x768,1366x641,Temporal Distance Task,cb_04,31.0,temp_dist_trial,dist_items,qkpkxw,2.0,response,14,1101.0,2237.0,2241.8999999998487,1101.0,2237.0,2241.8999999998487,1.0,1140.899999999849,0.0,,Slider,Slider,4.0,object-56,temp_dist_trial,31.0,t_i_13_1,travel_Iceland,sleeping bag,4.0,unique,paired,t_i_13_1.jpg,Travel,,,sub-63
Desktop or Laptop,Windows 10,Chrome 131.0.0.0,1366x768,1366x641,Temporal Distance Task,cb_04,32.0,temp_dist_trial,num_items,zn7si1,1.0,response,1_ITEM,2044.1000000000354,2034.2000000000119,2044.1000000000354,2044.1000000000354,2034.2000000000119,2044.1000000000354,1.0,0.0,0.0,,Click Response,1_count,3.0,object-46,temp_dist_trial,32.0,t_i_10_1,travel_Iceland,trekking poles,4.0,unique,single,t_i_10_1.jpg,Travel,,,sub-63
Desktop or Laptop,Windows 10,Chrome 131.0.0.0,1366x768,1366x641,Temporal Distance Task,cb_04,33.0,temp_dist_trial,num_items,zn7si1,1.0,response,2_ITEM,1785.2999999999884,1768.5,1785.2999999999884,1785.2999999999884,1768.5,1785.2999999999884,1.0,0.0,0.0,,Click Response,2_count,5.0,object-49,temp_dist_trial,33.0,t_i_17_1,travel_Iceland,binoculars,4.0,unique,paired,t_i_17_1.jpg,Travel,,,sub-63
Desktop or Laptop,Windows 10,Chrome 131.0.0.0,1366x768,1366x641,Temporal Distance Task,cb_04,33.0,temp_dist_trial,dist_items,qkpkxw,2.0,info,,16.700000000011638,0.0,16.700000000011638,16.700000000011638,0.0,16.700000000011638,1.0,0.0,0.0,,Slider,Slider,4.0,object-56,temp_dist_trial,33.0,t_i_17_1,travel_Iceland,binoculars,4.0,unique,paired,t_i_17_1.jpg,Travel,,,sub-63
Desktop or Laptop,Windows 10,Chrome 131.0.0.0,1366x768,1366x641,Temporal Distance Task,cb_04,33.0,temp_dist_trial,dist_items,qkpkxw,2.0,continue,,3669.6999999999534,3656.299999999989,3669.6999999999534,3669.6999999999534,3656.299999999989,3669.6999999999534,1.0,0.0,0.0,,Click To Continue,Next button,7.0,object-60,temp_dist_trial,33.0,t_i_17_1,travel_Iceland,binoculars,4.0,unique,paired,t_i_17_1.jpg,Travel,,,sub-63
Desktop or Laptop,Windows 10,Chrome 131.0.0.0,1366x768,1366x641,Temporal Distance Task,cb_04,33.0,temp_dist_trial,dist_items,qkpkxw,2.0,response,46,1735.0999999999767,3656.299999999989,3675.5999999999767,1735.0999999999767,3656.299999999989,3675.5999999999767,1.0,1940.5,0.0,,Slider,Slider,4.0,object-56,temp_dist_trial,33.0,t_i_17_1,travel_Iceland,binoculars,4.0,unique,paired,t_i_17_1.jpg,Travel,,,sub-63
Desktop or Laptop,Windows 10,Chrome 131.0.0.0,1366x768,1366x641,Temporal Distance Task,cb_04,34.0,temp_dist_trial,num_items,zn7si1,1.0,response,2_ITEM,2967.3000000000466,2950.4000000000237,2967.3000000000466,2967.3000000000466,2950.4000000000237,2967.3000000000466,1.0,0.0,0.0,,Click Response,2_count,5.0,object-49,temp_dist_trial,34.0,t_s_18_1,travel_shared,first aid kit,4.0,competing,paired,t_s_18_1.jpg,Travel,,,sub-63
Desktop or Laptop,Windows 10,Chrome 131.0.0.0,1366x768,1366x641,Temporal Distance Task,cb_04,34.0,temp_dist_trial,dist_items,qkpkxw,2.0,info,,15.700000000011642,0.0,15.700000000011642,15.700000000011642,0.0,15.700000000011642,1.0,0.0,0.0,,Slider,Slider,4.0,object-56,temp_dist_trial,34.0,t_s_18_1,travel_shared,first aid kit,4.0,competing,paired,t_s_18_1.jpg,Travel,,,sub-63
Desktop or Laptop,Windows 10,Chrome 131.0.0.0,1366x768,1366x641,Temporal Distance Task,cb_04,34.0,temp_dist_trial,dist_items,qkpkxw,2.0,continue,,3734.099999999919,3720.600000000035,3734.099999999919,3734.099999999919,3720.600000000035,3734.099999999919,1.0,0.0,0.0,,Click To Continue,Next button,7.0,object-60,temp_dist_trial,34.0,t_s_18_1,travel_shared,first aid kit,4.0,competing,paired,t_s_18_1.jpg,Travel,,,sub-63
Desktop or Laptop,Windows 10,Chrome 131.0.0.0,1366x768,1366x641,Temporal Distance Task,cb_04,34.0,temp_dist_trial,dist_items,qkpkxw,2.0,response,30,1168.7999999999886,3720.600000000035,3734.399999999965,1168.7999999999886,3720.600000000035,3734.399999999965,1.0,2565.599999999977,0.0,,Slider,Slider,4.0,object-56,temp_dist_trial,34.0,t_s_18_1,travel_shared,first aid kit,4.0,competing,paired,t_s_18_1.jpg,Travel,,,sub-63
Desktop or Laptop,Windows 10,Chrome 131.0.0.0,1366x768,1366x641,Temporal Distance Task,cb_04,35.0,temp_dist_trial,num_items,zn7si1,1.0,response,num_miss,3003.0999999999767,3003.0999999999767,3003.0999999999767,3003.0999999999767,3003.0999999999767,3003.0999999999767,1.0,0.0,0.0,num_miss_tag,Time Limit,screen,0.0,screen,temp_dist_trial,35.0,t_s_06_1,travel_shared,luggage,4.0,competing,paired,t_s_06_1.jpg,Travel,,,sub-63
Desktop or Laptop,Windows 10,Chrome 131.0.0.0,1366x768,1366x641,Temporal Distance Task,cb_04,36.0,temp_dist_trial,num_items,zn7si1,1.0,response,2_ITEM,2133.0999999999767,2117.5999999999767,2133.0999999999767,2133.0999999999767,2117.5999999999767,2133.0999999999767,1.0,0.0,0.0,,Click Response,2_count,5.0,object-49,temp_dist_trial,36.0,t_m_02_1,travel_Miami,t-shirt,4.0,unique,paired,t_m_02_1.jpg,Travel,,,sub-63
Desktop or Laptop,Windows 10,Chrome 131.0.0.0,1366x768,1366x641,Temporal Distance Task,cb_04,36.0,temp_dist_trial,dist_items,qkpkxw,2.0,info,,16.09999999991851,0.0,16.09999999991851,16.09999999991851,0.0,16.09999999991851,1.0,0.0,0.0,,Slider,Slider,4.0,object-56,temp_dist_trial,36.0,t_m_02_1,travel_Miami,t-shirt,4.0,unique,paired,t_m_02_1.jpg,Travel,,,sub-63
Desktop or Laptop,Windows 10,Chrome 131.0.0.0,1366x768,1366x641,Temporal Distance Task,cb_04,36.0,temp_dist_trial,dist_items,qkpkxw,2.0,continue,,5887.000000000058,5872.600000000036,5887.000000000058,5887.000000000058,5872.600000000036,5887.000000000058,1.0,0.0,0.0,,Click To Continue,Next button,7.0,object-60,temp_dist_trial,36.0,t_m_02_1,travel_Miami,t-shirt,4.0,unique,paired,t_m_02_1.jpg,Travel,,,sub-63
Desktop or Laptop,Windows 10,Chrome 131.0.0.0,1366x768,1366x641,Temporal Distance Task,cb_04,36.0,temp_dist_trial,dist_items,qkpkxw,2.0,response,59,1251.2000000000114,5872.600000000036,5888.899999999964,1251.2000000000114,5872.600000000036,5888.899999999964,1.0,4637.699999999953,0.0,,Slider,Slider,4.0,object-56,temp_dist_trial,36.0,t_m_02_1,travel_Miami,t-shirt,4.0,unique,paired,t_m_02_1.jpg,Travel,,,sub-63
Desktop or Laptop,Windows 10,Chrome 131.0.0.0,1366x768,1366x641,Temporal Distance Task,cb_04,37.0,temp_dist_trial,num_items,zn7si1,1.0,response,2_ITEM,2335.0999999999185,2319.199999999953,2335.0999999999185,2335.0999999999185,2319.199999999953,2335.0999999999185,1.0,0.0,0.0,,Click Response,2_count,5.0,object-49,temp_dist_trial,37.0,t_m_04_1,travel_Miami,UV jacket,4.0,unique,paired,t_m_04_1.jpg,Travel,,,sub-63
Desktop or Laptop,Windows 10,Chrome 131.0.0.0,1366x768,1366x641,Temporal Distance Task,cb_04,37.0,temp_dist_trial,dist_items,qkpkxw,2.0,info,,15.399999999906864,0.0,15.399999999906864,15.399999999906864,0.0,15.399999999906864,1.0,0.0,0.0,,Slider,Slider,4.0,object-56,temp_dist_trial,37.0,t_m_04_1,travel_Miami,UV jacket,4.0,unique,paired,t_m_04_1.jpg,Travel,,,sub-63
Desktop or Laptop,Windows 10,Chrome 131.0.0.0,1366x768,1366x641,Temporal Distance Task,cb_04,37.0,temp_dist_trial,dist_items,qkpkxw,2.0,continue,,2251.1999999999534,2235.5999999999767,2251.1999999999534,2251.1999999999534,2235.5999999999767,2251.1999999999534,1.0,0.0,0.0,,Click To Continue,Next button,7.0,object-60,temp_dist_trial,37.0,t_m_04_1,travel_Miami,UV jacket,4.0,unique,paired,t_m_04_1.jpg,Travel,,,sub-63
Desktop or Laptop,Windows 10,Chrome 131.0.0.0,1366x768,1366x641,Temporal Distance Task,cb_04,37.0,temp_dist_trial,dist_items,qkpkxw,2.0,response,62,1201.2000000000114,2235.5999999999767,2252.199999999953,1201.2000000000114,2235.5999999999767,2252.199999999953,1.0,1050.9999999999418,0.0,,Slider,Slider,4.0,object-56,temp_dist_trial,37.0,t_m_04_1,travel_Miami,UV jacket,4.0,unique,paired,t_m_04_1.jpg,Travel,,,sub-63
Desktop or Laptop,Windows 10,Chrome 131.0.0.0,1366x768,1366x641,Temporal Distance Task,cb_04,38.0,temp_dist_trial,num_items,zn7si1,1.0,response,1_ITEM,1968.5999999999767,1952.0,1968.5999999999767,1968.5999999999767,1952.0,1968.5999999999767,1.0,0.0,0.0,,Click Response,1_count,3.0,object-46,temp_dist_trial,38.0,t_s_19_1,travel_shared,pajamas,4.0,competing,single,t_s_19_1.jpg,Travel,,,sub-63
Desktop or Laptop,Windows 10,Chrome 131.0.0.0,1366x768,1366x641,Temporal Distance Task,cb_04,39.0,temp_dist_trial,num_items,zn7si1,1.0,response,2_ITEM,1310.4999999998836,1301.1999999999534,1310.4999999998836,1310.4999999998836,1301.1999999999534,1310.4999999998836,1.0,0.0,0.0,,Click Response,2_count,5.0,object-49,temp_dist_trial,39.0,t_s_02_1,travel_shared,water bottle,4.0,competing,paired,t_s_02_1.jpg,Travel,,,sub-63
Desktop or Laptop,Windows 10,Chrome 131.0.0.0,1366x768,1366x641,Temporal Distance Task,cb_04,39.0,temp_dist_trial,dist_items,qkpkxw,2.0,info,,14.499999999883585,0.0,14.499999999883585,14.499999999883585,0.0,14.499999999883585,1.0,0.0,0.0,,Slider,Slider,4.0,object-56,temp_dist_trial,39.0,t_s_02_1,travel_shared,water bottle,4.0,competing,paired,t_s_02_1.jpg,Travel,,,sub-63
Desktop or Laptop,Windows 10,Chrome 131.0.0.0,1366x768,1366x641,Temporal Distance Task,cb_04,39.0,temp_dist_trial,dist_items,qkpkxw,2.0,continue,,2364.79999999993,2352.2999999999884,2364.79999999993,2364.79999999993,2352.2999999999884,2364.79999999993,1.0,0.0,0.0,,Click To Continue,Next button,7.0,object-60,temp_dist_trial,39.0,t_s_02_1,travel_shared,water bottle,4.0,competing,paired,t_s_02_1.jpg,Travel,,,sub-63
Desktop or Laptop,Windows 10,Chrome 131.0.0.0,1366x768,1366x641,Temporal Distance Task,cb_04,39.0,temp_dist_trial,dist_items,qkpkxw,2.0,response,23,1034.5999999999767,2352.2999999999884,2366.599999999977,1034.5999999999767,2352.2999999999884,2366.599999999977,1.0,1332.0,0.0,,Slider,Slider,4.0,object-56,temp_dist_trial,39.0,t_s_02_1,travel_shared,water bottle,4.0,competing,paired,t_s_02_1.jpg,Travel,,,sub-63
Desktop or Laptop,Windows 10,Chrome 131.0.0.0,1366x768,1366x641,Temporal Distance Task,cb_04,40.0,temp_dist_trial,num_items,zn7si1,1.0,response,num_miss,3003.0999999999767,3003.0999999999767,3003.0999999999767,3003.0999999999767,3003.0999999999767,3003.0999999999767,1.0,0.0,0.0,num_miss_tag,Time Limit,screen,0.0,screen,temp_dist_trial,40.0,t_m_17_1,travel_Miami,water gun,4.0,unique,paired,t_m_17_1.jpg,Travel,,,sub-63
Desktop or Laptop,Windows 10,Chrome 131.0.0.0,1366x768,1366x641,Temporal Distance Task,cb_04,41.0,temp_dist_trial,num_items,zn7si1,1.0,response,1_ITEM,2564.899999999965,2552.5,2564.899999999965,2564.899999999965,2552.5,2564.899999999965,1.0,0.0,0.0,,Click Response,1_count,3.0,object-46,temp_dist_trial,41.0,t_s_01_1,travel_shared,fanny pack,4.0,competing,single,t_s_01_1.jpg,Travel,,,sub-63
Desktop or Laptop,Windows 10,Chrome 131.0.0.0,1366x768,1366x641,Temporal Distance Task,cb_04,42.0,temp_dist_trial,num_items,zn7si1,1.0,response,2_ITEM,1798.8999999998487,1785.0,1798.8999999998487,1798.8999999998487,1785.0,1798.8999999998487,1.0,0.0,0.0,,Click Response,2_count,5.0,object-49,temp_dist_trial,42.0,t_m_14_1,travel_Miami,swim goggles,4.0,unique,paired,t_m_14_1.jpg,Travel,,,sub-63
Desktop or Laptop,Windows 10,Chrome 131.0.0.0,1366x768,1366x641,Temporal Distance Task,cb_04,42.0,temp_dist_trial,dist_items,qkpkxw,2.0,info,,15.099999999976713,0.0,15.099999999976713,15.099999999976713,0.0,15.099999999976713,1.0,0.0,0.0,,Slider,Slider,4.0,object-56,temp_dist_trial,42.0,t_m_14_1,travel_Miami,swim goggles,4.0,unique,paired,t_m_14_1.jpg,Travel,,,sub-63
Desktop or Laptop,Windows 10,Chrome 131.0.0.0,1366x768,1366x641,Temporal Distance Task,cb_04,42.0,temp_dist_trial,dist_items,qkpkxw,2.0,continue,,2551.29999999993,2535.899999999965,2551.29999999993,2551.29999999993,2535.899999999965,2551.29999999993,1.0,0.0,0.0,,Click To Continue,Next button,7.0,object-60,temp_dist_trial,42.0,t_m_14_1,travel_Miami,swim goggles,4.0,unique,paired,t_m_14_1.jpg,Travel,,,sub-63
Desktop or Laptop,Windows 10,Chrome 131.0.0.0,1366x768,1366x641,Temporal Distance Task,cb_04,42.0,temp_dist_trial,dist_items,qkpkxw,2.0,response,32,1534.8999999999646,2535.899999999965,2551.699999999837,1534.8999999999646,2535.899999999965,2551.699999999837,1.0,1016.7999999998719,0.0,,Slider,Slider,4.0,object-56,temp_dist_trial,42.0,t_m_14_1,travel_Miami,swim goggles,4.0,unique,paired,t_m_14_1.jpg,Travel,,,sub-63
Desktop or Laptop,Windows 10,Chrome 131.0.0.0,1366x768,1366x641,Temporal Distance Task,cb_04,43.0,temp_dist_trial,num_items,zn7si1,1.0,response,1_ITEM,1591.7000000000116,1584.9000000000233,1591.7000000000116,1591.7000000000116,1584.9000000000233,1591.7000000000116,1.0,0.0,0.0,,Click Response,1_count,3.0,object-46,temp_dist_trial,43.0,t_s_17_1,travel_shared,toothbrush,4.0,competing,paired,t_s_17_1.jpg,Travel,,,sub-63
Desktop or Laptop,Windows 10,Chrome 131.0.0.0,1366x768,1366x641,Temporal Distance Task,cb_04,44.0,temp_dist_trial,num_items,zn7si1,1.0,response,2_ITEM,2568.599999999977,2552.7999999999884,2568.599999999977,2568.599999999977,2552.7999999999884,2568.599999999977,1.0,0.0,0.0,,Click Response,2_count,5.0,object-49,temp_dist_trial,44.0,t_m_20_1,travel_Miami,inflatable beachball,4.0,unique,paired,t_m_20_1.jpg,Travel,,,sub-63
Desktop or Laptop,Windows 10,Chrome 131.0.0.0,1366x768,1366x641,Temporal Distance Task,cb_04,44.0,temp_dist_trial,dist_items,qkpkxw,2.0,info,,16.5,0.0,16.5,16.5,0.0,16.5,1.0,0.0,0.0,,Slider,Slider,4.0,object-56,temp_dist_trial,44.0,t_m_20_1,travel_Miami,inflatable beachball,4.0,unique,paired,t_m_20_1.jpg,Travel,,,sub-63
Desktop or Laptop,Windows 10,Chrome 131.0.0.0,1366x768,1366x641,Temporal Distance Task,cb_04,44.0,temp_dist_trial,dist_items,qkpkxw,2.0,continue,,2302.099999999977,2285.5,2302.099999999977,2302.099999999977,2285.5,2302.099999999977,1.0,0.0,0.0,,Click To Continue,Next button,7.0,object-60,temp_dist_trial,44.0,t_m_20_1,travel_Miami,inflatable beachball,4.0,unique,paired,t_m_20_1.jpg,Travel,,,sub-63
Desktop or Laptop,Windows 10,Chrome 131.0.0.0,1366x768,1366x641,Temporal Distance Task,cb_04,44.0,temp_dist_trial,dist_items,qkpkxw,2.0,response,67,1201.2999999999886,2285.5,2302.099999999977,1201.2999999999886,2285.5,2302.099999999977,1.0,1100.7999999999884,0.0,,Slider,Slider,4.0,object-56,temp_dist_trial,44.0,t_m_20_1,travel_Miami,inflatable beachball,4.0,unique,paired,t_m_20_1.jpg,Travel,,,sub-63
Desktop or Laptop,Windows 10,Chrome 131.0.0.0,1366x768,1366x641,Temporal Distance Task,cb_04,45.0,temp_dist_trial,num_items,zn7si1,1.0,response,2_ITEM,2204.200000000012,2187.2999999999884,2204.200000000012,2204.200000000012,2187.2999999999884,2204.200000000012,1.0,0.0,0.0,,Click Response,2_count,5.0,object-49,temp_dist_trial,45.0,t_s_14_1,travel_shared,hand sanitizer,4.0,competing,paired,t_s_14_1.jpg,Travel,,,sub-63
Desktop or Laptop,Windows 10,Chrome 131.0.0.0,1366x768,1366x641,Temporal Distance Task,cb_04,45.0,temp_dist_trial,dist_items,qkpkxw,2.0,info,,16.700000000011638,0.0,16.700000000011638,16.700000000011638,0.0,16.700000000011638,1.0,0.0,0.0,,Slider,Slider,4.0,object-56,temp_dist_trial,45.0,t_s_14_1,travel_shared,hand sanitizer,4.0,competing,paired,t_s_14_1.jpg,Travel,,,sub-63
Desktop or Laptop,Windows 10,Chrome 131.0.0.0,1366x768,1366x641,Temporal Distance Task,cb_04,45.0,temp_dist_trial,dist_items,qkpkxw,2.0,continue,,2201.699999999895,2185.5,2201.699999999895,2201.699999999895,2185.5,2201.699999999895,1.0,0.0,0.0,,Click To Continue,Next button,7.0,object-60,temp_dist_trial,45.0,t_s_14_1,travel_shared,hand sanitizer,4.0,competing,paired,t_s_14_1.jpg,Travel,,,sub-63
Desktop or Laptop,Windows 10,Chrome 131.0.0.0,1366x768,1366x641,Temporal Distance Task,cb_04,45.0,temp_dist_trial,dist_items,qkpkxw,2.0,response,68,1202.399999999965,2185.5,2202.200000000012,1202.399999999965,2185.5,2202.200000000012,1.0,999.8000000000467,0.0,,Slider,Slider,4.0,object-56,temp_dist_trial,45.0,t_s_14_1,travel_shared,hand sanitizer,4.0,competing,paired,t_s_14_1.jpg,Travel,,,sub-63
Desktop or Laptop,Windows 10,Chrome 131.0.0.0,1366x768,1366x641,Temporal Distance Task,cb_04,46.0,temp_dist_trial,num_items,zn7si1,1.0,response,1_ITEM,1334.2999999999306,1317.899999999965,1334.2999999999306,1334.2999999999306,1317.899999999965,1334.2999999999306,1.0,0.0,0.0,,Click Response,1_count,3.0,object-46,temp_dist_trial,46.0,t_m_15_1,travel_Miami,shorts,4.0,unique,single,t_m_15_1.jpg,Travel,,,sub-63
Desktop or Laptop,Windows 10,Chrome 131.0.0.0,1366x768,1366x641,Temporal Distance Task,cb_04,47.0,temp_dist_trial,num_items,zn7si1,1.0,response,1_ITEM,1992.7000000000696,1985.1000000000354,1992.7000000000696,1992.7000000000696,1985.1000000000354,1992.7000000000696,1.0,0.0,0.0,,Click Response,1_count,3.0,object-46,temp_dist_trial,47.0,t_i_09_1,travel_Iceland,ear muffs,4.0,unique,paired,t_i_09_1.jpg,Travel,,,sub-63
Desktop or Laptop,Windows 10,Chrome 131.0.0.0,1366x768,1366x641,Temporal Distance Task,cb_04,48.0,temp_dist_trial,num_items,zn7si1,1.0,response,2_ITEM,1282.5,1267.0,1282.5,1282.5,1267.0,1282.5,1.0,0.0,0.0,,Click Response,2_count,5.0,object-49,temp_dist_trial,48.0,t_i_15_1,travel_Iceland,compass,4.0,unique,paired,t_i_15_1.jpg,Travel,,,sub-63
Desktop or Laptop,Windows 10,Chrome 131.0.0.0,1366x768,1366x641,Temporal Distance Task,cb_04,48.0,temp_dist_trial,dist_items,qkpkxw,2.0,info,,16.599999999976713,0.0,16.599999999976713,16.599999999976713,0.0,16.599999999976713,1.0,0.0,0.0,,Slider,Slider,4.0,object-56,temp_dist_trial,48.0,t_i_15_1,travel_Iceland,compass,4.0,unique,paired,t_i_15_1.jpg,Travel,,,sub-63
Desktop or Laptop,Windows 10,Chrome 131.0.0.0,1366x768,1366x641,Temporal Distance Task,cb_04,48.0,temp_dist_trial,dist_items,qkpkxw,2.0,continue,,2174.999999999884,2168.8000000000466,2174.999999999884,2174.999999999884,2168.8000000000466,2174.999999999884,1.0,0.0,0.0,,Click To Continue,Next button,7.0,object-60,temp_dist_trial,48.0,t_i_15_1,travel_Iceland,compass,4.0,unique,paired,t_i_15_1.jpg,Travel,,,sub-63
Desktop or Laptop,Windows 10,Chrome 131.0.0.0,1366x768,1366x641,Temporal Distance Task,cb_04,48.0,temp_dist_trial,dist_items,qkpkxw,2.0,response,52,1268.0,2168.8000000000466,2185.400000000081,1268.0,2168.8000000000466,2185.400000000081,1.0,917.4000000000816,0.0,,Slider,Slider,4.0,object-56,temp_dist_trial,48.0,t_i_15_1,travel_Iceland,compass,4.0,unique,paired,t_i_15_1.jpg,Travel,,,sub-63
Desktop or Laptop,Windows 10,Chrome 131.0.0.0,1366x768,1366x641,Temporal Distance Task,cb_04,2.0,temp_eventStart,Screen 1,dgtyxe,1.0,continue,,3410.5999999999767,3403.5,3410.5999999999767,3410.5999999999767,3403.5,3410.5999999999767,1.0,0.0,0.0,,Click To Continue,Next Button,3.0,object-43,temp_eventStart,,,Student,,,,,,,,,sub-63
Desktop or Laptop,Windows 10,Chrome 131.0.0.0,1366x768,1366x641,Temporal Distance Task,cb_04,49.0,temp_dist_trial,num_items,zn7si1,1.0,response,1_ITEM,2472.999999999884,2469.699999999953,2472.999999999884,2472.999999999884,2469.699999999953,2472.999999999884,1.0,0.0,0.0,,Click Response,1_count,3.0,object-46,temp_dist_trial,1.0,s_a_08_1,student_art,sewing machine,4.0,unique,paired,s_a_08_1.jpg,Student,,,sub-63
Desktop or Laptop,Windows 10,Chrome 131.0.0.0,1366x768,1366x641,Temporal Distance Task,cb_04,50.0,temp_dist_trial,num_items,zn7si1,1.0,response,2_ITEM,1333.5,1318.0,1333.5,1333.5,1318.0,1333.5,1.0,0.0,0.0,,Click Response,2_count,5.0,object-49,temp_dist_trial,2.0,s_sh_10_1,student_shared,scissors,4.0,competing,paired,s_sh_10_1.jpg,Student,,,sub-63
Desktop or Laptop,Windows 10,Chrome 131.0.0.0,1366x768,1366x641,Temporal Distance Task,cb_04,50.0,temp_dist_trial,dist_items,qkpkxw,2.0,info,,15.800000000046566,0.0,15.800000000046566,15.800000000046566,0.0,15.800000000046566,1.0,0.0,0.0,,Slider,Slider,4.0,object-56,temp_dist_trial,2.0,s_sh_10_1,student_shared,scissors,4.0,competing,paired,s_sh_10_1.jpg,Student,,,sub-63
Desktop or Laptop,Windows 10,Chrome 131.0.0.0,1366x768,1366x641,Temporal Distance Task,cb_04,50.0,temp_dist_trial,dist_items,qkpkxw,2.0,continue,,3284.7999999999884,3270.0,3284.7999999999884,3284.7999999999884,3270.0,3284.7999999999884,1.0,0.0,0.0,,Click To Continue,Next button,7.0,object-60,temp_dist_trial,2.0,s_sh_10_1,student_shared,scissors,4.0,competing,paired,s_sh_10_1.jpg,Student,,,sub-63
Desktop or Laptop,Windows 10,Chrome 131.0.0.0,1366x768,1366x641,Temporal Distance Task,cb_04,50.0,temp_dist_trial,dist_items,qkpkxw,2.0,response,39,1551.5999999999767,3270.0,3284.7999999999884,1551.5999999999767,3270.0,3284.7999999999884,1.0,1733.2000000000116,0.0,,Slider,Slider,4.0,object-56,temp_dist_trial,2.0,s_sh_10_1,student_shared,scissors,4.0,competing,paired,s_sh_10_1.jpg,Student,,,sub-63
Desktop or Laptop,Windows 10,Chrome 131.0.0.0,1366x768,1366x641,Temporal Distance Task,cb_04,51.0,temp_dist_trial,num_items,zn7si1,1.0,response,2_ITEM,979.8999999999068,967.7999999999884,979.8999999999068,979.8999999999068,967.7999999999884,979.8999999999068,1.0,0.0,0.0,,Click Response,2_count,5.0,object-49,temp_dist_trial,3.0,s_a_16_1,student_art,piano,4.0,unique,single,s_a_16_1.jpg,Student,,,sub-63
Desktop or Laptop,Windows 10,Chrome 131.0.0.0,1366x768,1366x641,Temporal Distance Task,cb_04,51.0,temp_dist_trial,dist_items,qkpkxw,2.0,info,,15.599999999976713,0.0,15.599999999976713,15.599999999976713,0.0,15.599999999976713,1.0,0.0,0.0,,Slider,Slider,4.0,object-56,temp_dist_trial,3.0,s_a_16_1,student_art,piano,4.0,unique,single,s_a_16_1.jpg,Student,,,sub-63
Desktop or Laptop,Windows 10,Chrome 131.0.0.0,1366x768,1366x641,Temporal Distance Task,cb_04,51.0,temp_dist_trial,dist_items,qkpkxw,2.0,continue,,2759.0999999999767,2754.8000000000466,2759.0999999999767,2759.0999999999767,2754.8000000000466,2759.0999999999767,1.0,0.0,0.0,,Click To Continue,Next button,7.0,object-60,temp_dist_trial,3.0,s_a_16_1,student_art,piano,4.0,unique,single,s_a_16_1.jpg,Student,,,sub-63
Desktop or Laptop,Windows 10,Chrome 131.0.0.0,1366x768,1366x641,Temporal Distance Task,cb_04,51.0,temp_dist_trial,dist_items,qkpkxw,2.0,response,77,1436.8000000000463,2754.8000000000466,2760.4000000000237,1436.8000000000463,2754.8000000000466,2760.4000000000237,1.0,1323.5999999999767,0.0,,Slider,Slider,4.0,object-56,temp_dist_trial,3.0,s_a_16_1,student_art,piano,4.0,unique,single,s_a_16_1.jpg,Student,,,sub-63
Desktop or Laptop,Windows 10,Chrome 131.0.0.0,1366x768,1366x641,Temporal Distance Task,cb_04,52.0,temp_dist_trial,num_items,zn7si1,1.0,response,1_ITEM,1365.399999999965,1348.899999999965,1365.399999999965,1365.399999999965,1348.899999999965,1365.399999999965,1.0,0.0,0.0,,Click Response,1_count,3.0,object-46,temp_dist_trial,4.0,s_a_02_1,student_art,canvas,4.0,unique,single,s_a_02_1.jpg,Student,,,sub-63
Desktop or Laptop,Windows 10,Chrome 131.0.0.0,1366x768,1366x641,Temporal Distance Task,cb_04,53.0,temp_dist_trial,num_items,zn7si1,1.0,response,2_ITEM,1218.1000000000931,1201.3000000000466,1218.1000000000931,1218.1000000000931,1201.3000000000466,1218.1000000000931,1.0,0.0,0.0,,Click Response,2_count,5.0,object-49,temp_dist_trial,5.0,s_s_01_1,student_stem,microscope,4.0,unique,single,s_s_01_1.jpg,Student,,,sub-63
Desktop or Laptop,Windows 10,Chrome 131.0.0.0,1366x768,1366x641,Temporal Distance Task,cb_04,53.0,temp_dist_trial,dist_items,qkpkxw,2.0,info,,16.699999999953434,0.0,16.699999999953434,16.699999999953434,0.0,16.699999999953434,1.0,0.0,0.0,,Slider,Slider,4.0,object-56,temp_dist_trial,5.0,s_s_01_1,student_stem,microscope,4.0,unique,single,s_s_01_1.jpg,Student,,,sub-63
Desktop or Laptop,Windows 10,Chrome 131.0.0.0,1366x768,1366x641,Temporal Distance Task,cb_04,53.0,temp_dist_trial,dist_items,qkpkxw,2.0,continue,,2068.5,2051.9000000000233,2068.5,2068.5,2051.9000000000233,2068.5,1.0,0.0,0.0,,Click To Continue,Next button,7.0,object-60,temp_dist_trial,5.0,s_s_01_1,student_stem,microscope,4.0,unique,single,s_s_01_1.jpg,Student,,,sub-63
Desktop or Laptop,Windows 10,Chrome 131.0.0.0,1366x768,1366x641,Temporal Distance Task,cb_04,53.0,temp_dist_trial,dist_items,qkpkxw,2.0,response,32,1002.3000000000467,2051.9000000000233,2068.5,1002.3000000000467,2051.9000000000233,2068.5,1.0,1066.1999999999532,0.0,,Slider,Slider,4.0,object-56,temp_dist_trial,5.0,s_s_01_1,student_stem,microscope,4.0,unique,single,s_s_01_1.jpg,Student,,,sub-63
Desktop or Laptop,Windows 10,Chrome 131.0.0.0,1366x768,1366x641,Temporal Distance Task,cb_04,54.0,temp_dist_trial,num_items,zn7si1,1.0,response,2_ITEM,2791.0999999998603,2786.200000000012,2791.0999999998603,2791.0999999998603,2786.200000000012,2791.0999999998603,1.0,0.0,0.0,,Click Response,2_count,5.0,object-49,temp_dist_trial,6.0,s_sh_19_1,student_shared,portable plastic drawer,4.0,competing,paired,s_sh_19_1.jpg,Student,,,sub-63
Desktop or Laptop,Windows 10,Chrome 131.0.0.0,1366x768,1366x641,Temporal Distance Task,cb_04,54.0,temp_dist_trial,dist_items,qkpkxw,2.0,info,,14.79999999993015,0.0,14.79999999993015,14.79999999993015,0.0,14.79999999993015,1.0,0.0,0.0,,Slider,Slider,4.0,object-56,temp_dist_trial,6.0,s_sh_19_1,student_shared,portable plastic drawer,4.0,competing,paired,s_sh_19_1.jpg,Student,,,sub-63
Desktop or Laptop,Windows 10,Chrome 131.0.0.0,1366x768,1366x641,Temporal Distance Task,cb_04,54.0,temp_dist_trial,dist_items,qkpkxw,2.0,continue,,2247.499999999884,2235.5,2247.499999999884,2247.499999999884,2235.5,2247.499999999884,1.0,0.0,0.0,,Click To Continue,Next button,7.0,object-60,temp_dist_trial,6.0,s_sh_19_1,student_shared,portable plastic drawer,4.0,competing,paired,s_sh_19_1.jpg,Student,,,sub-63
Desktop or Laptop,Windows 10,Chrome 131.0.0.0,1366x768,1366x641,Temporal Distance Task,cb_04,54.0,temp_dist_trial,dist_items,qkpkxw,2.0,response,37,1434.8000000000463,2235.5,2248.499999999884,1434.8000000000463,2235.5,2248.499999999884,1.0,813.699999999837,0.0,,Slider,Slider,4.0,object-56,temp_dist_trial,6.0,s_sh_19_1,student_shared,portable plastic drawer,4.0,competing,paired,s_sh_19_1.jpg,Student,,,sub-63
Desktop or Laptop,Windows 10,Chrome 131.0.0.0,1366x768,1366x641,Temporal Distance Task,cb_04,55.0,temp_dist_trial,num_items,zn7si1,1.0,response,2_ITEM,2235.600000000035,2218.9000000000233,2235.600000000035,2235.600000000035,2218.9000000000233,2235.600000000035,1.0,0.0,0.0,,Click Response,2_count,5.0,object-49,temp_dist_trial,7.0,s_sh_15_1,student_shared,usb drive,4.0,competing,paired,s_sh_15_1.jpg,Student,,,sub-63
Desktop or Laptop,Windows 10,Chrome 131.0.0.0,1366x768,1366x641,Temporal Distance Task,cb_04,55.0,temp_dist_trial,dist_items,qkpkxw,2.0,info,,15.600000000034926,0.0,15.600000000034926,15.600000000034926,0.0,15.600000000034926,1.0,0.0,0.0,,Slider,Slider,4.0,object-56,temp_dist_trial,7.0,s_sh_15_1,student_shared,usb drive,4.0,competing,paired,s_sh_15_1.jpg,Student,,,sub-63
Desktop or Laptop,Windows 10,Chrome 131.0.0.0,1366x768,1366x641,Temporal Distance Task,cb_04,55.0,temp_dist_trial,dist_items,qkpkxw,2.0,continue,,3300.399999999849,3288.0999999999767,3300.399999999849,3300.399999999849,3288.0999999999767,3300.399999999849,1.0,0.0,0.0,,Click To Continue,Next button,7.0,object-60,temp_dist_trial,7.0,s_sh_15_1,student_shared,usb drive,4.0,competing,paired,s_sh_15_1.jpg,Student,,,sub-63
Desktop or Laptop,Windows 10,Chrome 131.0.0.0,1366x768,1366x641,Temporal Distance Task,cb_04,55.0,temp_dist_trial,dist_items,qkpkxw,2.0,response,41,1634.8999999999646,3288.0999999999767,3301.199999999895,1634.8999999999646,3288.0999999999767,3301.199999999895,1.0,1666.2999999999302,0.0,,Slider,Slider,4.0,object-56,temp_dist_trial,7.0,s_sh_15_1,student_shared,usb drive,4.0,competing,paired,s_sh_15_1.jpg,Student,,,sub-63
Desktop or Laptop,Windows 10,Chrome 131.0.0.0,1366x768,1366x641,Temporal Distance Task,cb_04,56.0,temp_dist_trial,num_items,zn7si1,1.0,response,2_ITEM,1850.2999999999884,1833.7000000000119,1850.2999999999884,1850.2999999999884,1833.7000000000119,1850.2999999999884,1.0,0.0,0.0,,Click Response,2_count,5.0,object-49,temp_dist_trial,8.0,s_sh_06_1,student_shared,clipboard,4.0,competing,paired,s_sh_06_1.jpg,Student,,,sub-63
Desktop or Laptop,Windows 10,Chrome 131.0.0.0,1366x768,1366x641,Temporal Distance Task,cb_04,56.0,temp_dist_trial,dist_items,qkpkxw,2.0,info,,16.599999999976713,0.0,16.599999999976713,16.599999999976713,0.0,16.599999999976713,1.0,0.0,0.0,,Slider,Slider,4.0,object-56,temp_dist_trial,8.0,s_sh_06_1,student_shared,clipboard,4.0,competing,paired,s_sh_06_1.jpg,Student,,,sub-63
Desktop or Laptop,Windows 10,Chrome 131.0.0.0,1366x768,1366x641,Temporal Distance Task,cb_04,56.0,temp_dist_trial,dist_items,qkpkxw,2.0,continue,,1835.2000000000119,1818.5,1835.2000000000119,1835.2000000000119,1818.5,1835.2000000000119,1.0,0.0,0.0,,Click To Continue,Next button,7.0,object-60,temp_dist_trial,8.0,s_sh_06_1,student_shared,clipboard,4.0,competing,paired,s_sh_06_1.jpg,Student,,,sub-63
Desktop or Laptop,Windows 10,Chrome 131.0.0.0,1366x768,1366x641,Temporal Distance Task,cb_04,56.0,temp_dist_trial,dist_items,qkpkxw,2.0,response,44,1151.100000000035,1818.5,1835.2000000000119,1151.100000000035,1818.5,1835.2000000000119,1.0,684.0999999999767,0.0,,Slider,Slider,4.0,object-56,temp_dist_trial,8.0,s_sh_06_1,student_shared,clipboard,4.0,competing,paired,s_sh_06_1.jpg,Student,,,sub-63
Desktop or Laptop,Windows 10,Chrome 131.0.0.0,1366x768,1366x641,Temporal Distance Task,cb_04,57.0,temp_dist_trial,num_items,zn7si1,1.0,response,1_ITEM,2093.899999999965,2085.2999999999884,2093.899999999965,2093.899999999965,2085.2999999999884,2093.899999999965,1.0,0.0,0.0,,Click Response,1_count,3.0,object-46,temp_dist_trial,9.0,s_sh_03_1,student_shared,highlighter,4.0,competing,paired,s_sh_03_1.jpg,Student,,,sub-63
Desktop or Laptop,Windows 10,Chrome 131.0.0.0,1366x768,1366x641,Temporal Distance Task,cb_04,58.0,temp_dist_trial,num_items,zn7si1,1.0,response,2_ITEM,1666.7999999999302,1651.6999999999537,1666.7999999999302,1666.7999999999302,1651.6999999999537,1666.7999999999302,1.0,0.0,0.0,,Click Response,2_count,5.0,object-49,temp_dist_trial,10.0,s_sh_02_1,student_shared,eraser,4.0,competing,paired,s_sh_02_1.jpg,Student,,,sub-63
Desktop or Laptop,Windows 10,Chrome 131.0.0.0,1366x768,1366x641,Temporal Distance Task,cb_04,58.0,temp_dist_trial,dist_items,qkpkxw,2.0,info,,15.500000000058208,0.0,15.500000000058208,15.500000000058208,0.0,15.500000000058208,1.0,0.0,0.0,,Slider,Slider,4.0,object-56,temp_dist_trial,10.0,s_sh_02_1,student_shared,eraser,4.0,competing,paired,s_sh_02_1.jpg,Student,,,sub-63
Desktop or Laptop,Windows 10,Chrome 131.0.0.0,1366x768,1366x641,Temporal Distance Task,cb_04,58.0,temp_dist_trial,dist_items,qkpkxw,2.0,continue,,2590.5999999999185,2585.7999999999884,2590.5999999999185,2590.5999999999185,2585.7999999999884,2590.5999999999185,1.0,0.0,0.0,,Click To Continue,Next button,7.0,object-60,temp_dist_trial,10.0,s_sh_02_1,student_shared,eraser,4.0,competing,paired,s_sh_02_1.jpg,Student,,,sub-63
Desktop or Laptop,Windows 10,Chrome 131.0.0.0,1366x768,1366x641,Temporal Distance Task,cb_04,58.0,temp_dist_trial,dist_items,qkpkxw,2.0,response,29,1785.2000000000116,2585.7999999999884,2591.399999999965,1785.2000000000116,2585.7999999999884,2591.399999999965,1.0,806.1999999999533,0.0,,Slider,Slider,4.0,object-56,temp_dist_trial,10.0,s_sh_02_1,student_shared,eraser,4.0,competing,paired,s_sh_02_1.jpg,Student,,,sub-63
Desktop or Laptop,Windows 10,Chrome 131.0.0.0,1366x768,1366x641,Temporal Distance Task,cb_04,59.0,temp_dist_trial,num_items,zn7si1,1.0,response,2_ITEM,1122.4000000000233,1118.0,1122.4000000000233,1122.4000000000233,1118.0,1122.4000000000233,1.0,0.0,0.0,,Click Response,2_count,5.0,object-49,temp_dist_trial,11.0,s_sh_07_1,student_shared,ruler,4.0,competing,paired,s_sh_07_1.jpg,Student,,,sub-63
Desktop or Laptop,Windows 10,Chrome 131.0.0.0,1366x768,1366x641,Temporal Distance Task,cb_04,59.0,temp_dist_trial,dist_items,qkpkxw,2.0,info,,9.500000000058208,0.0,9.500000000058208,9.500000000058208,0.0,9.500000000058208,1.0,0.0,0.0,,Slider,Slider,4.0,object-56,temp_dist_trial,11.0,s_sh_07_1,student_shared,ruler,4.0,competing,paired,s_sh_07_1.jpg,Student,,,sub-63
Desktop or Laptop,Windows 10,Chrome 131.0.0.0,1366x768,1366x641,Temporal Distance Task,cb_04,59.0,temp_dist_trial,dist_items,qkpkxw,2.0,continue,,2569.000000000058,2552.100000000035,2569.000000000058,2569.000000000058,2552.100000000035,2569.000000000058,1.0,0.0,0.0,,Click To Continue,Next button,7.0,object-60,temp_dist_trial,11.0,s_sh_07_1,student_shared,ruler,4.0,competing,paired,s_sh_07_1.jpg,Student,,,sub-63
Desktop or Laptop,Windows 10,Chrome 131.0.0.0,1366x768,1366x641,Temporal Distance Task,cb_04,59.0,temp_dist_trial,dist_items,qkpkxw,2.0,response,24,1617.6000000000354,2552.100000000035,2569.000000000058,1617.6000000000354,2552.100000000035,2569.000000000058,1.0,951.4000000000232,0.0,,Slider,Slider,4.0,object-56,temp_dist_trial,11.0,s_sh_07_1,student_shared,ruler,4.0,competing,paired,s_sh_07_1.jpg,Student,,,sub-63
Desktop or Laptop,Windows 10,Chrome 131.0.0.0,1366x768,1366x641,Temporal Distance Task,cb_04,60.0,temp_dist_trial,num_items,zn7si1,1.0,response,1_ITEM,2116.199999999837,2101.899999999965,2116.199999999837,2116.199999999837,2101.899999999965,2116.199999999837,1.0,0.0,0.0,,Click Response,1_count,3.0,object-46,temp_dist_trial,12.0,s_sh_22_1,student_shared,hole puncher,4.0,competing,single,s_sh_22_1.jpg,Student,,,sub-63
Desktop or Laptop,Windows 10,Chrome 131.0.0.0,1366x768,1366x641,Temporal Distance Task,cb_04,61.0,temp_dist_trial,num_items,zn7si1,1.0,response,1_ITEM,2347.899999999965,2336.700000000012,2347.899999999965,2347.899999999965,2336.700000000012,2347.899999999965,1.0,0.0,0.0,,Click Response,1_count,3.0,object-46,temp_dist_trial,13.0,s_s_03_1,student_stem,petri dish,4.0,unique,paired,s_s_03_1.jpg,Student,,,sub-63
Desktop or Laptop,Windows 10,Chrome 131.0.0.0,1366x768,1366x641,Temporal Distance Task,cb_04,62.0,temp_dist_trial,num_items,zn7si1,1.0,response,num_miss,3003.200000000012,3003.200000000012,3003.200000000012,3003.200000000012,3003.200000000012,3003.200000000012,1.0,0.0,0.0,num_miss_tag,Time Limit,screen,0.0,screen,temp_dist_trial,14.0,s_s_12_1,student_stem,robotic arm,4.0,unique,paired,s_s_12_1.jpg,Student,,,sub-63
Desktop or Laptop,Windows 10,Chrome 131.0.0.0,1366x768,1366x641,Temporal Distance Task,cb_04,63.0,temp_dist_trial,num_items,zn7si1,1.0,response,num_miss,3003.100000000035,3003.100000000035,3003.100000000035,3003.100000000035,3003.100000000035,3003.100000000035,1.0,0.0,0.0,num_miss_tag,Time Limit,screen,0.0,screen,temp_dist_trial,15.0,s_s_09_1,student_stem,multimeter,4.0,unique,single,s_s_09_1.jpg,Student,,,sub-63
Desktop or Laptop,Windows 10,Chrome 131.0.0.0,1366x768,1366x641,Temporal Distance Task,cb_04,64.0,temp_dist_trial,num_items,zn7si1,1.0,response,1_ITEM,1206.9000000000233,1201.0,1206.9000000000233,1206.9000000000233,1201.0,1206.9000000000233,1.0,0.0,0.0,,Click Response,1_count,3.0,object-46,temp_dist_trial,16.0,s_a_10_1,student_art,tripod,4.0,unique,paired,s_a_10_1.jpg,Student,,,sub-63
Desktop or Laptop,Windows 10,Chrome 131.0.0.0,1366x768,1366x641,Temporal Distance Task,cb_04,65.0,temp_dist_trial,num_items,zn7si1,1.0,response,2_ITEM,1845.6000000000354,1838.0,1845.6000000000354,1845.6000000000354,1838.0,1845.6000000000354,1.0,0.0,0.0,,Click Response,2_count,5.0,object-49,temp_dist_trial,17.0,s_s_14_1,student_stem,funnel,4.0,unique,paired,s_s_14_1.jpg,Student,,,sub-63
Desktop or Laptop,Windows 10,Chrome 131.0.0.0,1366x768,1366x641,Temporal Distance Task,cb_04,65.0,temp_dist_trial,dist_items,qkpkxw,2.0,info,,17.100000000034925,0.0,17.100000000034925,17.100000000034925,0.0,17.100000000034925,1.0,0.0,0.0,,Slider,Slider,4.0,object-56,temp_dist_trial,17.0,s_s_14_1,student_stem,funnel,4.0,unique,paired,s_s_14_1.jpg,Student,,,sub-63
Desktop or Laptop,Windows 10,Chrome 131.0.0.0,1366x768,1366x641,Temporal Distance Task,cb_04,65.0,temp_dist_trial,dist_items,qkpkxw,2.0,continue,,2814.2999999999292,2802.5,2814.2999999999292,2814.2999999999292,2802.5,2814.2999999999292,1.0,0.0,0.0,,Click To Continue,Next button,7.0,object-60,temp_dist_trial,17.0,s_s_14_1,student_stem,funnel,4.0,unique,paired,s_s_14_1.jpg,Student,,,sub-63
Desktop or Laptop,Windows 10,Chrome 131.0.0.0,1366x768,1366x641,Temporal Distance Task,cb_04,65.0,temp_dist_trial,dist_items,qkpkxw,2.0,response,32,1751.5,2802.5,2814.7999999999292,1751.5,2802.5,2814.7999999999292,1.0,1063.2999999999304,0.0,,Slider,Slider,4.0,object-56,temp_dist_trial,17.0,s_s_14_1,student_stem,funnel,4.0,unique,paired,s_s_14_1.jpg,Student,,,sub-63
Desktop or Laptop,Windows 10,Chrome 131.0.0.0,1366x768,1366x641,Temporal Distance Task,cb_04,66.0,temp_dist_trial,num_items,zn7si1,1.0,response,1_ITEM,1650.699999999837,1634.8999999999646,1650.699999999837,1650.699999999837,1634.8999999999646,1650.699999999837,1.0,0.0,0.0,,Click Response,1_count,3.0,object-46,temp_dist_trial,18.0,s_s_07_1,student_stem,periodic table,4.0,unique,single,s_s_07_1.jpg,Student,,,sub-63
Desktop or Laptop,Windows 10,Chrome 131.0.0.0,1366x768,1366x641,Temporal Distance Task,cb_04,67.0,temp_dist_trial,num_items,zn7si1,1.0,response,1_ITEM,1763.5,1751.2999999999884,1763.5,1763.5,1751.2999999999884,1763.5,1.0,0.0,0.0,,Click Response,1_count,3.0,object-46,temp_dist_trial,19.0,s_a_13_1,student_art,violin,4.0,unique,paired,s_a_13_1.jpg,Student,,,sub-63
Desktop or Laptop,Windows 10,Chrome 131.0.0.0,1366x768,1366x641,Temporal Distance Task,cb_04,68.0,temp_dist_trial,num_items,zn7si1,1.0,response,1_ITEM,2406.4000000000233,2402.3000000000466,2406.4000000000233,2406.4000000000233,2402.3000000000466,2406.4000000000233,1.0,0.0,0.0,,Click Response,1_count,3.0,object-46,temp_dist_trial,20.0,s_sh_24_1,student_shared,desk organizer,4.0,competing,paired,s_sh_24_1.jpg,Student,,,sub-63
Desktop or Laptop,Windows 10,Chrome 131.0.0.0,1366x768,1366x641,Temporal Distance Task,cb_04,69.0,temp_dist_trial,num_items,zn7si1,1.0,response,1_ITEM,1797.2000000000698,1785.1000000000354,1797.2000000000698,1797.2000000000698,1785.1000000000354,1797.2000000000698,1.0,0.0,0.0,,Click Response,1_count,3.0,object-46,temp_dist_trial,21.0,s_sh_08_1,student_shared,post-its,4.0,competing,single,s_sh_08_1.jpg,Student,,,sub-63
Desktop or Laptop,Windows 10,Chrome 131.0.0.0,1366x768,1366x641,Temporal Distance Task,cb_04,70.0,temp_dist_trial,num_items,zn7si1,1.0,response,2_ITEM,2913.3999999999073,2902.9000000000237,2913.3999999999073,2913.3999999999073,2902.9000000000237,2913.3999999999073,1.0,0.0,0.0,,Click Response,2_count,5.0,object-49,temp_dist_trial,22.0,s_a_11_1,student_art,clapperboard,4.0,unique,paired,s_a_11_1.jpg,Student,,,sub-63
Desktop or Laptop,Windows 10,Chrome 131.0.0.0,1366x768,1366x641,Temporal Distance Task,cb_04,70.0,temp_dist_trial,dist_items,qkpkxw,2.0,info,,17.800000000046566,0.0,17.800000000046566,17.800000000046566,0.0,17.800000000046566,1.0,0.0,0.0,,Slider,Slider,4.0,object-56,temp_dist_trial,22.0,s_a_11_1,student_art,clapperboard,4.0,unique,paired,s_a_11_1.jpg,Student,,,sub-63
Desktop or Laptop,Windows 10,Chrome 131.0.0.0,1366x768,1366x641,Temporal Distance Task,cb_04,70.0,temp_dist_trial,dist_items,qkpkxw,2.0,continue,,6133.299999999929,6123.5,6133.299999999929,6133.299999999929,6123.5,6133.299999999929,1.0,0.0,0.0,,Click To Continue,Next button,7.0,object-60,temp_dist_trial,22.0,s_a_11_1,student_art,clapperboard,4.0,unique,paired,s_a_11_1.jpg,Student,,,sub-63
Desktop or Laptop,Windows 10,Chrome 131.0.0.0,1366x768,1366x641,Temporal Distance Task,cb_04,70.0,temp_dist_trial,dist_items,qkpkxw,2.0,response,49,2151.1999999999534,6123.5,6134.499999999884,2151.1999999999534,6123.5,6134.499999999884,1.0,3983.2999999999292,0.0,,Slider,Slider,4.0,object-56,temp_dist_trial,22.0,s_a_11_1,student_art,clapperboard,4.0,unique,paired,s_a_11_1.jpg,Student,,,sub-63
Desktop or Laptop,Windows 10,Chrome 131.0.0.0,1366x768,1366x641,Temporal Distance Task,cb_04,71.0,temp_dist_trial,num_items,zn7si1,1.0,response,1_ITEM,1578.4999999998834,1566.3999999999646,1578.4999999998834,1578.4999999998834,1566.3999999999646,1578.4999999998834,1.0,0.0,0.0,,Click Response,1_count,3.0,object-46,temp_dist_trial,23.0,s_a_20_1,student_art,pin cushion,4.0,unique,paired,s_a_20_1.jpg,Student,,,sub-63
Desktop or Laptop,Windows 10,Chrome 131.0.0.0,1366x768,1366x641,Temporal Distance Task,cb_04,72.0,temp_dist_trial,num_items,zn7si1,1.0,response,num_miss,3002.600000000035,3002.600000000035,3002.600000000035,3002.600000000035,3002.600000000035,3002.600000000035,1.0,0.0,0.0,num_miss_tag,Time Limit,screen,0.0,screen,temp_dist_trial,24.0,s_sh_04_1,student_shared,laptop stand,4.0,competing,single,s_sh_04_1.jpg,Student,,,sub-63
Desktop or Laptop,Windows 10,Chrome 131.0.0.0,1366x768,1366x641,Temporal Distance Task,cb_04,73.0,temp_dist_trial,num_items,zn7si1,1.0,response,1_ITEM,363.90000000002334,350.30000000004657,363.90000000002334,363.90000000002334,350.30000000004657,363.90000000002334,1.0,0.0,0.0,,Click Response,1_count,3.0,object-46,temp_dist_trial,25.0,s_a_03_1,student_art,palette,4.0,unique,paired,s_a_03_1.jpg,Student,,,sub-63
Desktop or Laptop,Windows 10,Chrome 131.0.0.0,1366x768,1366x641,Temporal Distance Task,cb_04,74.0,temp_dist_trial,num_items,zn7si1,1.0,response,num_miss,3001.5,3001.5,3001.5,3001.5,3001.5,3001.5,1.0,0.0,0.0,num_miss_tag,Time Limit,screen,0.0,screen,temp_dist_trial,26.0,s_s_02_1,student_stem,flask,4.0,unique,single,s_s_02_1.jpg,Student,,,sub-63
Desktop or Laptop,Windows 10,Chrome 131.0.0.0,1366x768,1366x641,Temporal Distance Task,cb_04,75.0,temp_dist_trial,num_items,zn7si1,1.0,response,1_ITEM,2202.0999999999767,2185.700000000012,2202.0999999999767,2202.0999999999767,2185.700000000012,2202.0999999999767,1.0,0.0,0.0,,Click Response,1_count,3.0,object-46,temp_dist_trial,27.0,s_a_17_1,student_art,microphone,4.0,unique,single,s_a_17_1.jpg,Student,,,sub-63
Desktop or Laptop,Windows 10,Chrome 131.0.0.0,1366x768,1366x641,Temporal Distance Task,cb_04,76.0,temp_dist_trial,num_items,zn7si1,1.0,response,1_ITEM,2316.5,2302.4000000000233,2316.5,2316.5,2302.4000000000233,2316.5,1.0,0.0,0.0,,Click Response,1_count,3.0,object-46,temp_dist_trial,28.0,s_sh_21_1,student_shared,file holder,4.0,competing,paired,s_sh_21_1.jpg,Student,,,sub-63
Desktop or Laptop,Windows 10,Chrome 131.0.0.0,1366x768,1366x641,Temporal Distance Task,cb_04,77.0,temp_dist_trial,num_items,zn7si1,1.0,response,2_ITEM,1348.6999999999534,1334.7000000000114,1348.6999999999534,1348.6999999999534,1334.7000000000114,1348.6999999999534,1.0,0.0,0.0,,Click Response,2_count,5.0,object-49,temp_dist_trial,29.0,s_sh_05_1,student_shared,laptop,4.0,competing,paired,s_sh_05_1.jpg,Student,,,sub-63
Desktop or Laptop,Windows 10,Chrome 131.0.0.0,1366x768,1366x641,Temporal Distance Task,cb_04,77.0,temp_dist_trial,dist_items,qkpkxw,2.0,info,,17.200000000011638,0.0,17.200000000011638,17.200000000011638,0.0,17.200000000011638,1.0,0.0,0.0,,Slider,Slider,4.0,object-56,temp_dist_trial,29.0,s_sh_05_1,student_shared,laptop,4.0,competing,paired,s_sh_05_1.jpg,Student,,,sub-63
Desktop or Laptop,Windows 10,Chrome 131.0.0.0,1366x768,1366x641,Temporal Distance Task,cb_04,77.0,temp_dist_trial,dist_items,qkpkxw,2.0,continue,,2048.5999999998608,2034.7000000000119,2048.5999999998608,2048.5999999998608,2034.7000000000119,2048.5999999998608,1.0,0.0,0.0,,Click To Continue,Next button,7.0,object-60,temp_dist_trial,29.0,s_sh_05_1,student_shared,laptop,4.0,competing,paired,s_sh_05_1.jpg,Student,,,sub-63
Desktop or Laptop,Windows 10,Chrome 131.0.0.0,1366x768,1366x641,Temporal Distance Task,cb_04,77.0,temp_dist_trial,dist_items,qkpkxw,2.0,response,15,967.0999999999768,2034.7000000000119,2049.0,967.0999999999768,2034.7000000000119,2049.0,1.0,1081.9000000000233,0.0,,Slider,Slider,4.0,object-56,temp_dist_trial,29.0,s_sh_05_1,student_shared,laptop,4.0,competing,paired,s_sh_05_1.jpg,Student,,,sub-63
Desktop or Laptop,Windows 10,Chrome 131.0.0.0,1366x768,1366x641,Temporal Distance Task,cb_04,78.0,temp_dist_trial,num_items,zn7si1,1.0,response,1_ITEM,2123.7999999999884,2118.7999999999884,2123.7999999999884,2123.7999999999884,2118.7999999999884,2123.7999999999884,1.0,0.0,0.0,,Click Response,1_count,3.0,object-46,temp_dist_trial,30.0,s_sh_01_1,student_shared,notebook,4.0,competing,single,s_sh_01_1.jpg,Student,,,sub-63
Desktop or Laptop,Windows 10,Chrome 131.0.0.0,1366x768,1366x641,Temporal Distance Task,cb_04,79.0,temp_dist_trial,num_items,zn7si1,1.0,response,1_ITEM,1817.5999999999185,1801.6999999999528,1817.5999999999185,1817.5999999999185,1801.6999999999528,1817.5999999999185,1.0,0.0,0.0,,Click Response,1_count,3.0,object-46,temp_dist_trial,31.0,s_s_17_1,student_stem,ring stand,4.0,unique,paired,s_s_17_1.jpg,Student,,,sub-63
Desktop or Laptop,Windows 10,Chrome 131.0.0.0,1366x768,1366x641,Temporal Distance Task,cb_04,80.0,temp_dist_trial,num_items,zn7si1,1.0,response,1_ITEM,1576.2999999999302,1572.3999999999646,1576.2999999999302,1576.2999999999302,1572.3999999999646,1576.2999999999302,1.0,0.0,0.0,,Click Response,1_count,3.0,object-46,temp_dist_trial,32.0,s_s_04_1,student_stem,bunsen burner,4.0,unique,paired,s_s_04_1.jpg,Student,,,sub-63
Desktop or Laptop,Windows 10,Chrome 131.0.0.0,1366x768,1366x641,Temporal Distance Task,cb_04,81.0,temp_dist_trial,num_items,zn7si1,1.0,response,2_ITEM,1994.8999999999646,1986.1000000000354,1994.8999999999646,1994.8999999999646,1986.1000000000354,1994.8999999999646,1.0,0.0,0.0,,Click Response,2_count,5.0,object-49,temp_dist_trial,33.0,s_sh_13_1,student_shared,index cards,4.0,competing,paired,s_sh_13_1.jpg,Student,,,sub-63
Desktop or Laptop,Windows 10,Chrome 131.0.0.0,1366x768,1366x641,Temporal Distance Task,cb_04,81.0,temp_dist_trial,dist_items,qkpkxw,2.0,info,,16.700000000011638,0.0,16.700000000011638,16.700000000011638,0.0,16.700000000011638,1.0,0.0,0.0,,Slider,Slider,4.0,object-56,temp_dist_trial,33.0,s_sh_13_1,student_shared,index cards,4.0,competing,paired,s_sh_13_1.jpg,Student,,,sub-63
Desktop or Laptop,Windows 10,Chrome 131.0.0.0,1366x768,1366x641,Temporal Distance Task,cb_04,81.0,temp_dist_trial,dist_items,qkpkxw,2.0,continue,,1958.5999999999185,1954.7000000000119,1958.5999999999185,1958.5999999999185,1954.7000000000119,1958.5999999999185,1.0,0.0,0.0,,Click To Continue,Next button,7.0,object-60,temp_dist_trial,33.0,s_sh_13_1,student_shared,index cards,4.0,competing,paired,s_sh_13_1.jpg,Student,,,sub-63
Desktop or Laptop,Windows 10,Chrome 131.0.0.0,1366x768,1366x641,Temporal Distance Task,cb_04,81.0,temp_dist_trial,dist_items,qkpkxw,2.0,response,43,985.5,1954.7000000000119,1959.500000000059,985.5,1954.7000000000119,1959.500000000059,1.0,974.0000000000584,0.0,,Slider,Slider,4.0,object-56,temp_dist_trial,33.0,s_sh_13_1,student_shared,index cards,4.0,competing,paired,s_sh_13_1.jpg,Student,,,sub-63
Desktop or Laptop,Windows 10,Chrome 131.0.0.0,1366x768,1366x641,Temporal Distance Task,cb_04,82.0,temp_dist_trial,num_items,zn7si1,1.0,response,1_ITEM,1198.600000000035,1181.9000000000233,1198.600000000035,1198.600000000035,1181.9000000000233,1198.600000000035,1.0,0.0,0.0,,Click Response,1_count,3.0,object-46,temp_dist_trial,34.0,s_a_04_1,student_art,easel,4.0,unique,paired,s_a_04_1.jpg,Student,,,sub-63
Desktop or Laptop,Windows 10,Chrome 131.0.0.0,1366x768,1366x641,Temporal Distance Task,cb_04,83.0,temp_dist_trial,num_items,zn7si1,1.0,response,1_ITEM,1609.4999999999418,1601.5999999999767,1609.4999999999418,1609.4999999999418,1601.5999999999767,1609.4999999999418,1.0,0.0,0.0,,Click Response,1_count,3.0,object-46,temp_dist_trial,35.0,s_s_18_1,student_stem,brain model,4.0,unique,paired,s_s_18_1.jpg,Student,,,sub-63
Desktop or Laptop,Windows 10,Chrome 131.0.0.0,1366x768,1366x641,Temporal Distance Task,cb_04,84.0,temp_dist_trial,num_items,zn7si1,1.0,response,1_ITEM,1508.8000000000463,1501.5,1508.8000000000463,1508.8000000000463,1501.5,1508.8000000000463,1.0,0.0,0.0,,Click Response,1_count,3.0,object-46,temp_dist_trial,36.0,s_sh_09_1,student_shared,paper clips,4.0,competing,single,s_sh_09_1.jpg,Student,,,sub-63
Desktop or Laptop,Windows 10,Chrome 131.0.0.0,1366x768,1366x641,Temporal Distance Task,cb_04,85.0,temp_dist_trial,num_items,zn7si1,1.0,response,num_miss,3003.0,3003.0,3003.0,3003.0,3003.0,3003.0,1.0,0.0,0.0,num_miss_tag,Time Limit,screen,0.0,screen,temp_dist_trial,37.0,s_s_05_1,student_stem,lab goggles,4.0,unique,paired,s_s_05_1.jpg,Student,,,sub-63
Desktop or Laptop,Windows 10,Chrome 131.0.0.0,1366x768,1366x641,Temporal Distance Task,cb_04,86.0,temp_dist_trial,num_items,zn7si1,1.0,response,num_miss,3003.0,3003.0,3003.0,3003.0,3003.0,3003.0,1.0,0.0,0.0,num_miss_tag,Time Limit,screen,0.0,screen,temp_dist_trial,38.0,s_a_09_1,student_art,picture frame,4.0,unique,paired,s_a_09_1.jpg,Student,,,sub-63
Desktop or Laptop,Windows 10,Chrome 131.0.0.0,1366x768,1366x641,Temporal Distance Task,cb_04,87.0,temp_dist_trial,num_items,zn7si1,1.0,response,num_miss,3003.4000000000237,3003.4000000000237,3003.4000000000237,3003.4000000000237,3003.4000000000237,3003.4000000000237,1.0,0.0,0.0,num_miss_tag,Time Limit,screen,0.0,screen,temp_dist_trial,39.0,s_sh_23_1,student_shared,ballpoint pen,4.0,competing,paired,s_sh_23_1.jpg,Student,,,sub-63
Desktop or Laptop,Windows 10,Chrome 131.0.0.0,1366x768,1366x641,Temporal Distance Task,cb_04,88.0,temp_dist_trial,num_items,zn7si1,1.0,response,num_miss,3003.0,3003.0,3003.0,3003.0,3003.0,3003.0,1.0,0.0,0.0,num_miss_tag,Time Limit,screen,0.0,screen,temp_dist_trial,40.0,s_sh_17_1,student_shared,wireless mouse,4.0,competing,single,s_sh_17_1.jpg,Student,,,sub-63
Desktop or Laptop,Windows 10,Chrome 131.0.0.0,1366x768,1366x641,Temporal Distance Task,cb_04,89.0,temp_dist_trial,num_items,zn7si1,1.0,response,num_miss,3002.9000000000237,3002.9000000000237,3002.9000000000237,3002.9000000000237,3002.9000000000237,3002.9000000000237,1.0,0.0,0.0,num_miss_tag,Time Limit,screen,0.0,screen,temp_dist_trial,41.0,s_sh_11_1,student_shared,pencil case,4.0,competing,paired,s_sh_11_1.jpg,Student,,,sub-63
Desktop or Laptop,Windows 10,Chrome 131.0.0.0,1366x768,1366x641,Temporal Distance Task,cb_04,90.0,temp_dist_trial,num_items,zn7si1,1.0,response,1_ITEM,1897.5999999999767,1885.1000000000354,1897.5999999999767,1897.5999999999767,1885.1000000000354,1897.5999999999767,1.0,0.0,0.0,,Click Response,1_count,3.0,object-46,temp_dist_trial,42.0,s_sh_14_1,student_shared,printer,4.0,competing,paired,s_sh_14_1.jpg,Student,,,sub-63
Desktop or Laptop,Windows 10,Chrome 131.0.0.0,1366x768,1366x641,Temporal Distance Task,cb_04,91.0,temp_dist_trial,num_items,zn7si1,1.0,response,num_miss,3002.9000000000237,3002.9000000000237,3002.9000000000237,3002.9000000000237,3002.9000000000237,3002.9000000000237,1.0,0.0,0.0,num_miss_tag,Time Limit,screen,0.0,screen,temp_dist_trial,43.0,s_sh_12_1,student_shared,binder,4.0,competing,paired,s_sh_12_1.jpg,Student,,,sub-63
Desktop or Laptop,Windows 10,Chrome 131.0.0.0,1366x768,1366x641,Temporal Distance Task,cb_04,92.0,temp_dist_trial,num_items,zn7si1,1.0,response,1_ITEM,583.0999999999767,567.4000000000233,583.0999999999767,583.0999999999767,567.4000000000233,583.0999999999767,1.0,0.0,0.0,,Click Response,1_count,3.0,object-46,temp_dist_trial,44.0,s_sh_16_1,student_shared,stapler,4.0,competing,paired,s_sh_16_1.jpg,Student,,,sub-63
Desktop or Laptop,Windows 10,Chrome 131.0.0.0,1366x768,1366x641,Temporal Distance Task,cb_04,93.0,temp_dist_trial,num_items,zn7si1,1.0,response,1_ITEM,1590.0999999998605,1584.9000000000233,1590.0999999998605,1590.0999999998605,1584.9000000000233,1590.0999999998605,1.0,0.0,0.0,,Click Response,1_count,3.0,object-46,temp_dist_trial,45.0,s_a_19_1,student_art,ballet shoes,4.0,unique,single,s_a_19_1.jpg,Student,,,sub-63
Desktop or Laptop,Windows 10,Chrome 131.0.0.0,1366x768,1366x641,Temporal Distance Task,cb_04,94.0,temp_dist_trial,num_items,zn7si1,1.0,response,2_ITEM,1624.7999999999884,1621.2000000000116,1624.7999999999884,1624.7999999999884,1621.2000000000116,1624.7999999999884,1.0,0.0,0.0,,Click Response,2_count,5.0,object-49,temp_dist_trial,46.0,s_s_13_1,student_stem,telescope,4.0,unique,paired,s_s_13_1.jpg,Student,,,sub-63
Desktop or Laptop,Windows 10,Chrome 131.0.0.0,1366x768,1366x641,Temporal Distance Task,cb_04,94.0,temp_dist_trial,dist_items,qkpkxw,2.0,info,,14.399999999848658,0.0,14.399999999848658,14.399999999848658,0.0,14.399999999848658,1.0,0.0,0.0,,Slider,Slider,4.0,object-56,temp_dist_trial,46.0,s_s_13_1,student_stem,telescope,4.0,unique,paired,s_s_13_1.jpg,Student,,,sub-63
Desktop or Laptop,Windows 10,Chrome 131.0.0.0,1366x768,1366x641,Temporal Distance Task,cb_04,94.0,temp_dist_trial,dist_items,qkpkxw,2.0,continue,,4017.999999999942,4004.299999999989,4017.999999999942,4017.999999999942,4004.299999999989,4017.999999999942,1.0,0.0,0.0,,Click To Continue,Next button,7.0,object-60,temp_dist_trial,46.0,s_s_13_1,student_stem,telescope,4.0,unique,paired,s_s_13_1.jpg,Student,,,sub-63
Desktop or Laptop,Windows 10,Chrome 131.0.0.0,1366x768,1366x641,Temporal Distance Task,cb_04,94.0,temp_dist_trial,dist_items,qkpkxw,2.0,response,34,2686.200000000012,4004.299999999989,4018.299999999989,2686.200000000012,4004.299999999989,4018.299999999989,1.0,1332.0999999999767,0.0,,Slider,Slider,4.0,object-56,temp_dist_trial,46.0,s_s_13_1,student_stem,telescope,4.0,unique,paired,s_s_13_1.jpg,Student,,,sub-63
Desktop or Laptop,Windows 10,Chrome 131.0.0.0,1366x768,1366x641,Temporal Distance Task,cb_04,95.0,temp_dist_trial,num_items,zn7si1,1.0,response,1_ITEM,1416.8999999999066,1401.2000000000116,1416.8999999999066,1416.8999999999066,1401.2000000000116,1416.8999999999066,1.0,0.0,0.0,,Click Response,1_count,3.0,object-46,temp_dist_trial,47.0,s_sh_20_1,student_shared,tape,4.0,competing,single,s_sh_20_1.jpg,Student,,,sub-63
Desktop or Laptop,Windows 10,Chrome 131.0.0.0,1366x768,1366x641,Temporal Distance Task,cb_04,96.0,temp_dist_trial,num_items,zn7si1,1.0,response,1_ITEM,1533.7999999999302,1518.1999999999537,1533.7999999999302,1533.7999999999302,1518.1999999999537,1533.7999999999302,1.0,0.0,0.0,,Click Response,1_count,3.0,object-46,temp_dist_trial,48.0,s_sh_18_1,student_shared,wall calendar,4.0,competing,single,s_sh_18_1.jpg,Student,,,sub-63
Desktop or Laptop,Windows 10,Chrome 131.0.0.0,1366x768,1366x641,Temporal Distance Task,$${counterbalance_group},,,,,,info,END,,,506716.0,,,,0.0,,,,,,,,,,,,,,,,,,,,sub-63
