Participant Device,Participant OS,Participant Browser,Participant Monitor Size,Participant Viewport Size,Task Name,Current Spreadsheet,Trial Number,Display,Screen,Screen ID,Screen Counter,Response Type,Response,Onset Time,Clock Time,Reaction Time,Absolute Onset Time,Absolute Clock Time,Absolute Reaction Time,Correct,Response Duration,Proportion,Tag,Component Name,Object Name,Object Number,Object ID,Spreadsheet: display,Spreadsheet: trial,Spreadsheet: stimulus_id,Spreadsheet: expected_goal,Spreadsheet: stimulus_name,Spreadsheet: c_group,Spreadsheet: condition,Spreadsheet: paired_status,Spreadsheet: stimulus_path,Spreadsheet: block_type,Manipulation: Spreadsheet,Store: enc_test_acc,sub_label
Desktop or Laptop,Windows 10,Chrome 138.0.0.0,2560x1440,2560x1313,Temporal Distance Task,$${counterbalance_group},,,,,,info,BEGIN,,,,,,,0.0,,,,,,,,,,,,,,,,,,,,sub-58
Desktop or Laptop,Windows 10,Chrome 138.0.0.0,2560x1440,2560x1313,Temporal Distance Task,cb_06,1.0,temp_instructions,intro_screen,3tnme7,1.0,continue,,6669.1,6655.4,6669.1,6669.1,6655.4,6669.1,1.0,0.0,0.0,,Click To Continue,Continue Button,4.0,object-29,temp_instructions,,,Travel,,,,,,,,,sub-58
Desktop or Laptop,Windows 10,Chrome 138.0.0.0,2560x1440,2560x1313,Temporal Distance Task,cb_06,1.0,temp_instructions,intro_screen_2,52v7ur,2.0,continue,,7964.5000001907365,7956.400000000002,7964.5000001907365,7964.5000001907365,7956.400000000002,7964.5000001907365,1.0,0.0,0.0,,Click To Continue,Continue Button,4.0,object-39,temp_instructions,,,Travel,,,,,,,,,sub-58
Desktop or Laptop,Windows 10,Chrome 138.0.0.0,2560x1440,2560x1313,Temporal Distance Task,cb_06,1.0,temp_instructions,intro_screen_3,i7lvwx,3.0,continue,,9030.100000190734,9024.0,9030.100000190734,9030.100000190734,9024.0,9030.100000190734,1.0,0.0,0.0,,Click To Continue,Continue Button,4.0,object-67,temp_instructions,,,Travel,,,,,,,,,sub-58
Desktop or Laptop,Windows 10,Chrome 138.0.0.0,2560x1440,2560x1313,Temporal Distance Task,cb_06,1.0,temp_instructions,test_q1,5ieqx1,4.0,response,choice_3,7864.90000014305,7856.499999999996,7864.90000014305,7864.90000014305,7856.499999999996,7864.90000014305,1.0,0.0,0.0,,Click Response,choice_3,5.0,object-345,temp_instructions,,,Travel,,,,,,,,,sub-58
Desktop or Laptop,Windows 10,Chrome 138.0.0.0,2560x1440,2560x1313,Temporal Distance Task,cb_06,1.0,temp_instructions,score_corr,7ilvjr,5.0,continue,,807.4000001430542,800.6000000000058,807.4000001430542,807.4000001430542,800.6000000000058,807.4000001430542,1.0,0.0,0.0,,Click To Continue,Continue Button,3.0,object-23,temp_instructions,,,Travel,,,,,,,,,sub-58
Desktop or Laptop,Windows 10,Chrome 138.0.0.0,2560x1440,2560x1313,Temporal Distance Task,cb_06,1.0,temp_eventStart,Screen 1,dgtyxe,1.0,continue,,1613.8000001430485,1601.2999999999954,1613.8000001430485,1613.8000001430485,1601.2999999999954,1613.8000001430485,1.0,0.0,0.0,,Click To Continue,Next Button,3.0,object-43,temp_eventStart,,,Travel,,,,,,,,,sub-58
Desktop or Laptop,Windows 10,Chrome 138.0.0.0,2560x1440,2560x1313,Temporal Distance Task,cb_06,1.0,temp_dist_trial,num_items,zn7si1,1.0,response,1_ITEM,2116.300000095369,2101.7000000000044,2116.300000095369,2116.300000095369,2101.7000000000044,2116.300000095369,1.0,0.0,0.0,,Click Response,1_count,3.0,object-46,temp_dist_trial,1.0,t_i_05_1,travel_Iceland,hiking boots,6.0,unique,single,t_i_05_1.jpg,Travel,,,sub-58
Desktop or Laptop,Windows 10,Chrome 138.0.0.0,2560x1440,2560x1313,Temporal Distance Task,cb_06,2.0,temp_dist_trial,num_items,zn7si1,1.0,response,1_ITEM,2035.700000047684,2035.0,2035.700000047684,2035.700000047684,2035.0,2035.700000047684,1.0,0.0,0.0,,Click Response,1_count,3.0,object-46,temp_dist_trial,2.0,t_s_18_1,travel_shared,first aid kit,6.0,competing,single,t_s_18_1.jpg,Travel,,,sub-58
Desktop or Laptop,Windows 10,Chrome 138.0.0.0,2560x1440,2560x1313,Temporal Distance Task,cb_06,3.0,temp_dist_trial,num_items,zn7si1,1.0,response,2_ITEM,1596.2000000953706,1584.6000000000058,1596.2000000953706,1596.2000000953706,1584.6000000000058,1596.2000000953706,1.0,0.0,0.0,,Click Response,2_count,5.0,object-49,temp_dist_trial,3.0,t_s_13_1,travel_shared,contact lens case,6.0,competing,paired,t_s_13_1.jpg,Travel,,,sub-58
Desktop or Laptop,Windows 10,Chrome 138.0.0.0,2560x1440,2560x1313,Temporal Distance Task,cb_06,3.0,temp_dist_trial,dist_items,qkpkxw,2.0,info,,3.2000000476837163,0.0,3.2000000476837163,3.2000000476837163,0.0,3.2000000476837163,1.0,0.0,0.0,,Slider,Slider,4.0,object-56,temp_dist_trial,3.0,t_s_13_1,travel_shared,contact lens case,6.0,competing,paired,t_s_13_1.jpg,Travel,,,sub-58
Desktop or Laptop,Windows 10,Chrome 138.0.0.0,2560x1440,2560x1313,Temporal Distance Task,cb_06,3.0,temp_dist_trial,dist_items,qkpkxw,2.0,continue,,5842.2000000476855,5838.0999999999985,5842.2000000476855,5842.2000000476855,5838.0999999999985,5842.2000000476855,1.0,0.0,0.0,,Click To Continue,Next button,7.0,object-60,temp_dist_trial,3.0,t_s_13_1,travel_shared,contact lens case,6.0,competing,paired,t_s_13_1.jpg,Travel,,,sub-58
Desktop or Laptop,Windows 10,Chrome 138.0.0.0,2560x1440,2560x1313,Temporal Distance Task,cb_06,3.0,temp_dist_trial,dist_items,qkpkxw,2.0,response,14,1451.1999999999966,5838.0999999999985,5843.900000095367,1451.1999999999966,5838.0999999999985,5843.900000095367,1.0,4392.70000009537,0.0,,Slider,Slider,4.0,object-56,temp_dist_trial,3.0,t_s_13_1,travel_shared,contact lens case,6.0,competing,paired,t_s_13_1.jpg,Travel,,,sub-58
Desktop or Laptop,Windows 10,Chrome 138.0.0.0,2560x1440,2560x1313,Temporal Distance Task,cb_06,4.0,temp_dist_trial,num_items,zn7si1,1.0,response,2_ITEM,2247.1000000476847,2235.2000000000044,2247.1000000476847,2247.1000000476847,2235.2000000000044,2247.1000000476847,1.0,0.0,0.0,,Click Response,2_count,5.0,object-49,temp_dist_trial,4.0,t_i_11_1,travel_Iceland,headlamp,6.0,unique,paired,t_i_11_1.jpg,Travel,,,sub-58
Desktop or Laptop,Windows 10,Chrome 138.0.0.0,2560x1440,2560x1313,Temporal Distance Task,cb_06,4.0,temp_dist_trial,dist_items,qkpkxw,2.0,info,,3.6000001430511475,0.0,3.6000001430511475,3.6000001430511475,0.0,3.6000001430511475,1.0,0.0,0.0,,Slider,Slider,4.0,object-56,temp_dist_trial,4.0,t_i_11_1,travel_Iceland,headlamp,6.0,unique,paired,t_i_11_1.jpg,Travel,,,sub-58
Desktop or Laptop,Windows 10,Chrome 138.0.0.0,2560x1440,2560x1313,Temporal Distance Task,cb_06,4.0,temp_dist_trial,dist_items,qkpkxw,2.0,continue,,2204.9000000953674,2201.800000000003,2204.9000000953674,2204.9000000953674,2201.800000000003,2204.9000000953674,1.0,0.0,0.0,,Click To Continue,Next button,7.0,object-60,temp_dist_trial,4.0,t_i_11_1,travel_Iceland,headlamp,6.0,unique,paired,t_i_11_1.jpg,Travel,,,sub-58
Desktop or Laptop,Windows 10,Chrome 138.0.0.0,2560x1440,2560x1313,Temporal Distance Task,cb_06,4.0,temp_dist_trial,dist_items,qkpkxw,2.0,response,36,1067.5,2201.800000000003,2205.200000047684,1067.5,2201.800000000003,2205.200000047684,1.0,1137.7000000476835,0.0,,Slider,Slider,4.0,object-56,temp_dist_trial,4.0,t_i_11_1,travel_Iceland,headlamp,6.0,unique,paired,t_i_11_1.jpg,Travel,,,sub-58
Desktop or Laptop,Windows 10,Chrome 138.0.0.0,2560x1440,2560x1313,Temporal Distance Task,cb_06,5.0,temp_dist_trial,num_items,zn7si1,1.0,response,1_ITEM,1748.1999999999966,1734.6999999999966,1748.1999999999966,1748.1999999999966,1734.6999999999966,1748.1999999999966,1.0,0.0,0.0,,Click Response,1_count,3.0,object-46,temp_dist_trial,5.0,t_s_07_1,travel_shared,phone charger cable,6.0,competing,single,t_s_07_1.jpg,Travel,,,sub-58
Desktop or Laptop,Windows 10,Chrome 138.0.0.0,2560x1440,2560x1313,Temporal Distance Task,cb_06,6.0,temp_dist_trial,num_items,zn7si1,1.0,response,2_ITEM,1269.1000000953645,1267.5999999999985,1269.1000000953645,1269.1000000953645,1267.5999999999985,1269.1000000953645,1.0,0.0,0.0,,Click Response,2_count,5.0,object-49,temp_dist_trial,6.0,t_i_12_1,travel_Iceland,tent,6.0,unique,paired,t_i_12_1.jpg,Travel,,,sub-58
Desktop or Laptop,Windows 10,Chrome 138.0.0.0,2560x1440,2560x1313,Temporal Distance Task,cb_06,6.0,temp_dist_trial,dist_items,qkpkxw,2.0,info,,3.2000001907363185,0.0,3.2000001907363185,3.2000001907363185,0.0,3.2000001907363185,1.0,0.0,0.0,,Slider,Slider,4.0,object-56,temp_dist_trial,6.0,t_i_12_1,travel_Iceland,tent,6.0,unique,paired,t_i_12_1.jpg,Travel,,,sub-58
Desktop or Laptop,Windows 10,Chrome 138.0.0.0,2560x1440,2560x1313,Temporal Distance Task,cb_06,6.0,temp_dist_trial,dist_items,qkpkxw,2.0,continue,,6082.100000047685,6071.5999999999985,6082.100000047685,6082.100000047685,6071.5999999999985,6082.100000047685,1.0,0.0,0.0,,Click To Continue,Next button,7.0,object-60,temp_dist_trial,6.0,t_i_12_1,travel_Iceland,tent,6.0,unique,paired,t_i_12_1.jpg,Travel,,,sub-58
Desktop or Laptop,Windows 10,Chrome 138.0.0.0,2560x1440,2560x1313,Temporal Distance Task,cb_06,6.0,temp_dist_trial,dist_items,qkpkxw,2.0,response,65,1267.7000000000044,6071.5999999999985,6083.900000000002,1267.7000000000044,6071.5999999999985,6083.900000000002,1.0,4816.199999999997,0.0,,Slider,Slider,4.0,object-56,temp_dist_trial,6.0,t_i_12_1,travel_Iceland,tent,6.0,unique,paired,t_i_12_1.jpg,Travel,,,sub-58
Desktop or Laptop,Windows 10,Chrome 138.0.0.0,2560x1440,2560x1313,Temporal Distance Task,cb_06,7.0,temp_dist_trial,num_items,zn7si1,1.0,response,1_ITEM,1255.6000001907378,1251.0,1255.6000001907378,1255.6000001907378,1251.0,1255.6000001907378,1.0,0.0,0.0,,Click Response,1_count,3.0,object-46,temp_dist_trial,7.0,t_m_02_1,travel_Miami,t-shirt,6.0,unique,single,t_m_02_1.jpg,Travel,,,sub-58
Desktop or Laptop,Windows 10,Chrome 138.0.0.0,2560x1440,2560x1313,Temporal Distance Task,cb_06,8.0,temp_dist_trial,num_items,zn7si1,1.0,response,2_ITEM,1067.3000001907346,1050.8000000000031,1067.3000001907346,1067.3000001907346,1050.8000000000031,1067.3000001907346,1.0,0.0,0.0,,Click Response,2_count,5.0,object-49,temp_dist_trial,8.0,t_s_19_1,travel_shared,pajamas,6.0,competing,paired,t_s_19_1.jpg,Travel,,,sub-58
Desktop or Laptop,Windows 10,Chrome 138.0.0.0,2560x1440,2560x1313,Temporal Distance Task,cb_06,8.0,temp_dist_trial,dist_items,qkpkxw,2.0,info,,3.1000001430511475,0.0,3.1000001430511475,3.1000001430511475,0.0,3.1000001430511475,1.0,0.0,0.0,,Slider,Slider,4.0,object-56,temp_dist_trial,8.0,t_s_19_1,travel_shared,pajamas,6.0,competing,paired,t_s_19_1.jpg,Travel,,,sub-58
Desktop or Laptop,Windows 10,Chrome 138.0.0.0,2560x1440,2560x1313,Temporal Distance Task,cb_06,8.0,temp_dist_trial,dist_items,qkpkxw,2.0,continue,,3410.300000190735,3402.800000000003,3410.300000190735,3410.300000190735,3402.800000000003,3410.300000190735,1.0,0.0,0.0,,Click To Continue,Next button,7.0,object-60,temp_dist_trial,8.0,t_s_19_1,travel_shared,pajamas,6.0,competing,paired,t_s_19_1.jpg,Travel,,,sub-58
Desktop or Laptop,Windows 10,Chrome 138.0.0.0,2560x1440,2560x1313,Temporal Distance Task,cb_06,8.0,temp_dist_trial,dist_items,qkpkxw,2.0,response,35,1100.8999999999942,3402.800000000003,3410.5,1100.8999999999942,3402.800000000003,3410.5,1.0,2309.6000000000063,0.0,,Slider,Slider,4.0,object-56,temp_dist_trial,8.0,t_s_19_1,travel_shared,pajamas,6.0,competing,paired,t_s_19_1.jpg,Travel,,,sub-58
Desktop or Laptop,Windows 10,Chrome 138.0.0.0,2560x1440,2560x1313,Temporal Distance Task,cb_06,9.0,temp_dist_trial,num_items,zn7si1,1.0,response,1_ITEM,1737.3000001430485,1734.6999999999966,1737.3000001430485,1737.3000001430485,1734.6999999999966,1737.3000001430485,1.0,0.0,0.0,,Click Response,1_count,3.0,object-46,temp_dist_trial,9.0,t_s_11_1,travel_shared,eye mask,6.0,competing,single,t_s_11_1.jpg,Travel,,,sub-58
Desktop or Laptop,Windows 10,Chrome 138.0.0.0,2560x1440,2560x1313,Temporal Distance Task,cb_06,10.0,temp_dist_trial,num_items,zn7si1,1.0,response,2_ITEM,1415.5000000476864,1401.1999999999966,1415.5000000476864,1415.5000000476864,1401.1999999999966,1415.5000000476864,1.0,0.0,0.0,,Click Response,2_count,5.0,object-49,temp_dist_trial,10.0,t_s_04_1,travel_shared,instant camera,6.0,competing,paired,t_s_04_1.jpg,Travel,,,sub-58
Desktop or Laptop,Windows 10,Chrome 138.0.0.0,2560x1440,2560x1313,Temporal Distance Task,cb_06,10.0,temp_dist_trial,dist_items,qkpkxw,2.0,info,,3.0000001430453267,0.0,3.0000001430453267,3.0000001430453267,0.0,3.0000001430453267,1.0,0.0,0.0,,Slider,Slider,4.0,object-56,temp_dist_trial,10.0,t_s_04_1,travel_shared,instant camera,6.0,competing,paired,t_s_04_1.jpg,Travel,,,sub-58
Desktop or Laptop,Windows 10,Chrome 138.0.0.0,2560x1440,2560x1313,Temporal Distance Task,cb_06,10.0,temp_dist_trial,dist_items,qkpkxw,2.0,continue,,5256.000000143045,5254.299999999987,5256.000000143045,5256.000000143045,5254.299999999987,5256.000000143045,1.0,0.0,0.0,,Click To Continue,Next button,7.0,object-60,temp_dist_trial,10.0,t_s_04_1,travel_shared,instant camera,6.0,competing,paired,t_s_04_1.jpg,Travel,,,sub-58
Desktop or Laptop,Windows 10,Chrome 138.0.0.0,2560x1440,2560x1313,Temporal Distance Task,cb_06,10.0,temp_dist_trial,dist_items,qkpkxw,2.0,response,31,1000.7999999999884,5254.299999999987,5258.300000095362,1000.7999999999884,5254.299999999987,5258.300000095362,1.0,4257.500000095373,0.0,,Slider,Slider,4.0,object-56,temp_dist_trial,10.0,t_s_04_1,travel_shared,instant camera,6.0,competing,paired,t_s_04_1.jpg,Travel,,,sub-58
Desktop or Laptop,Windows 10,Chrome 138.0.0.0,2560x1440,2560x1313,Temporal Distance Task,cb_06,11.0,temp_dist_trial,num_items,zn7si1,1.0,response,1_ITEM,1921.5000000953733,1918.2000000000119,1921.5000000953733,1921.5000000953733,1918.2000000000119,1921.5000000953733,1.0,0.0,0.0,,Click Response,1_count,3.0,object-46,temp_dist_trial,11.0,t_m_20_1,travel_Miami,inflatable beachball,6.0,unique,paired,t_m_20_1.jpg,Travel,,,sub-58
Desktop or Laptop,Windows 10,Chrome 138.0.0.0,2560x1440,2560x1313,Temporal Distance Task,cb_06,12.0,temp_dist_trial,num_items,zn7si1,1.0,response,2_ITEM,1348.1999999999969,1334.3999999999942,1348.1999999999969,1348.1999999999969,1334.3999999999942,1348.1999999999969,1.0,0.0,0.0,,Click Response,2_count,5.0,object-49,temp_dist_trial,12.0,t_m_11_1,travel_Miami,collapsible beach chair,6.0,unique,paired,t_m_11_1.jpg,Travel,,,sub-58
Desktop or Laptop,Windows 10,Chrome 138.0.0.0,2560x1440,2560x1313,Temporal Distance Task,cb_06,12.0,temp_dist_trial,dist_items,qkpkxw,2.0,info,,2.8000000476895366,0.0,2.8000000476895366,2.8000000476895366,0.0,2.8000000476895366,1.0,0.0,0.0,,Slider,Slider,4.0,object-56,temp_dist_trial,12.0,t_m_11_1,travel_Miami,collapsible beach chair,6.0,unique,paired,t_m_11_1.jpg,Travel,,,sub-58
Desktop or Laptop,Windows 10,Chrome 138.0.0.0,2560x1440,2560x1313,Temporal Distance Task,cb_06,12.0,temp_dist_trial,dist_items,qkpkxw,2.0,continue,,2823.7000001430574,2819.0,2823.7000001430574,2823.7000001430574,2819.0,2823.7000001430574,1.0,0.0,0.0,,Click To Continue,Next button,7.0,object-60,temp_dist_trial,12.0,t_m_11_1,travel_Miami,collapsible beach chair,6.0,unique,paired,t_m_11_1.jpg,Travel,,,sub-58
Desktop or Laptop,Windows 10,Chrome 138.0.0.0,2560x1440,2560x1313,Temporal Distance Task,cb_06,12.0,temp_dist_trial,dist_items,qkpkxw,2.0,response,42,1567.900000000009,2819.0,2824.000000095373,1567.900000000009,2819.0,2824.000000095373,1.0,1256.1000000953645,0.0,,Slider,Slider,4.0,object-56,temp_dist_trial,12.0,t_m_11_1,travel_Miami,collapsible beach chair,6.0,unique,paired,t_m_11_1.jpg,Travel,,,sub-58
Desktop or Laptop,Windows 10,Chrome 138.0.0.0,2560x1440,2560x1313,Temporal Distance Task,cb_06,13.0,temp_dist_trial,num_items,zn7si1,1.0,response,1_ITEM,1164.700000143057,1150.9000000000087,1164.700000143057,1164.700000143057,1150.9000000000087,1164.700000143057,1.0,0.0,0.0,,Click Response,1_count,3.0,object-46,temp_dist_trial,13.0,t_s_22_1,travel_shared,belt,6.0,competing,single,t_s_22_1.jpg,Travel,,,sub-58
Desktop or Laptop,Windows 10,Chrome 138.0.0.0,2560x1440,2560x1313,Temporal Distance Task,cb_06,14.0,temp_dist_trial,num_items,zn7si1,1.0,response,1_ITEM,1325.4000000953674,1317.6999999999969,1325.4000000953674,1325.4000000953674,1317.6999999999969,1325.4000000953674,1.0,0.0,0.0,,Click Response,1_count,3.0,object-46,temp_dist_trial,14.0,t_i_13_1,travel_Iceland,sleeping bag,6.0,unique,single,t_i_13_1.jpg,Travel,,,sub-58
Desktop or Laptop,Windows 10,Chrome 138.0.0.0,2560x1440,2560x1313,Temporal Distance Task,cb_06,15.0,temp_dist_trial,num_items,zn7si1,1.0,response,2_ITEM,1353.7000000476835,1351.1000000000058,1353.7000000476835,1353.7000000476835,1351.1000000000058,1353.7000000476835,1.0,0.0,0.0,,Click Response,2_count,5.0,object-49,temp_dist_trial,15.0,t_s_06_1,travel_shared,luggage,6.0,competing,paired,t_s_06_1.jpg,Travel,,,sub-58
Desktop or Laptop,Windows 10,Chrome 138.0.0.0,2560x1440,2560x1313,Temporal Distance Task,cb_06,15.0,temp_dist_trial,dist_items,qkpkxw,2.0,info,,2.7000000953703416,0.0,2.7000000953703416,2.7000000953703416,0.0,2.7000000953703416,1.0,0.0,0.0,,Slider,Slider,4.0,object-56,temp_dist_trial,15.0,t_s_06_1,travel_shared,luggage,6.0,competing,paired,t_s_06_1.jpg,Travel,,,sub-58
Desktop or Laptop,Windows 10,Chrome 138.0.0.0,2560x1440,2560x1313,Temporal Distance Task,cb_06,15.0,temp_dist_trial,dist_items,qkpkxw,2.0,continue,,2614.300000000003,2602.1000000000063,2614.300000000003,2614.300000000003,2602.1000000000063,2614.300000000003,1.0,0.0,0.0,,Click To Continue,Next button,7.0,object-60,temp_dist_trial,15.0,t_s_06_1,travel_shared,luggage,6.0,competing,paired,t_s_06_1.jpg,Travel,,,sub-58
Desktop or Laptop,Windows 10,Chrome 138.0.0.0,2560x1440,2560x1313,Temporal Distance Task,cb_06,15.0,temp_dist_trial,dist_items,qkpkxw,2.0,response,64,1101.0,2602.1000000000063,2614.400000143054,1101.0,2602.1000000000063,2614.400000143054,1.0,1513.4000001430538,0.0,,Slider,Slider,4.0,object-56,temp_dist_trial,15.0,t_s_06_1,travel_shared,luggage,6.0,competing,paired,t_s_06_1.jpg,Travel,,,sub-58
Desktop or Laptop,Windows 10,Chrome 138.0.0.0,2560x1440,2560x1313,Temporal Distance Task,cb_06,16.0,temp_dist_trial,num_items,zn7si1,1.0,response,1_ITEM,1630.1000000953643,1618.0,1630.1000000953643,1630.1000000953643,1618.0,1630.1000000953643,1.0,0.0,0.0,,Click Response,1_count,3.0,object-46,temp_dist_trial,16.0,t_i_09_1,travel_Iceland,ear muffs,6.0,unique,single,t_i_09_1.jpg,Travel,,,sub-58
Desktop or Laptop,Windows 10,Chrome 138.0.0.0,2560x1440,2560x1313,Temporal Distance Task,cb_06,17.0,temp_dist_trial,num_items,zn7si1,1.0,response,num_miss,3002.3999999999933,3002.3999999999933,3002.3999999999933,3002.3999999999933,3002.3999999999933,3002.3999999999933,1.0,0.0,0.0,num_miss_tag,Time Limit,screen,0.0,screen,temp_dist_trial,17.0,t_i_03_1,travel_Iceland,winter jacket,6.0,unique,paired,t_i_03_1.jpg,Travel,,,sub-58
Desktop or Laptop,Windows 10,Chrome 138.0.0.0,2560x1440,2560x1313,Temporal Distance Task,cb_06,18.0,temp_dist_trial,num_items,zn7si1,1.0,response,1_ITEM,950.7000000000116,934.1000000000058,950.7000000000116,950.7000000000116,934.1000000000058,950.7000000000116,1.0,0.0,0.0,,Click Response,1_count,3.0,object-46,temp_dist_trial,18.0,t_i_15_1,travel_Iceland,compass,6.0,unique,single,t_i_15_1.jpg,Travel,,,sub-58
Desktop or Laptop,Windows 10,Chrome 138.0.0.0,2560x1440,2560x1313,Temporal Distance Task,cb_06,19.0,temp_dist_trial,num_items,zn7si1,1.0,response,2_ITEM,1143.8000001430482,1134.3000000000031,1143.8000001430482,1143.8000001430482,1134.3000000000031,1143.8000001430482,1.0,0.0,0.0,,Click Response,2_count,5.0,object-49,temp_dist_trial,19.0,t_i_06_1,travel_Iceland,knit hat,6.0,unique,paired,t_i_06_1.jpg,Travel,,,sub-58
Desktop or Laptop,Windows 10,Chrome 138.0.0.0,2560x1440,2560x1313,Temporal Distance Task,cb_06,19.0,temp_dist_trial,dist_items,qkpkxw,2.0,info,,3.1000000953645213,0.0,3.1000000953645213,3.1000000953645213,0.0,3.1000000953645213,1.0,0.0,0.0,,Slider,Slider,4.0,object-56,temp_dist_trial,19.0,t_i_06_1,travel_Iceland,knit hat,6.0,unique,paired,t_i_06_1.jpg,Travel,,,sub-58
Desktop or Laptop,Windows 10,Chrome 138.0.0.0,2560x1440,2560x1313,Temporal Distance Task,cb_06,19.0,temp_dist_trial,dist_items,qkpkxw,2.0,continue,,2380.000000190732,2368.5999999999913,2380.000000190732,2380.000000190732,2368.5999999999913,2380.000000190732,1.0,0.0,0.0,,Click To Continue,Next button,7.0,object-60,temp_dist_trial,19.0,t_i_06_1,travel_Iceland,knit hat,6.0,unique,paired,t_i_06_1.jpg,Travel,,,sub-58
Desktop or Laptop,Windows 10,Chrome 138.0.0.0,2560x1440,2560x1313,Temporal Distance Task,cb_06,19.0,temp_dist_trial,dist_items,qkpkxw,2.0,response,27,884.0,2368.5999999999913,2380.3000001430482,884.0,2368.5999999999913,2380.3000001430482,1.0,1496.3000001430485,0.0,,Slider,Slider,4.0,object-56,temp_dist_trial,19.0,t_i_06_1,travel_Iceland,knit hat,6.0,unique,paired,t_i_06_1.jpg,Travel,,,sub-58
Desktop or Laptop,Windows 10,Chrome 138.0.0.0,2560x1440,2560x1313,Temporal Distance Task,cb_06,20.0,temp_dist_trial,num_items,zn7si1,1.0,response,2_ITEM,1859.3000000476893,1851.400000000009,1859.3000000476893,1859.3000000476893,1851.400000000009,1859.3000000476893,1.0,0.0,0.0,,Click Response,2_count,5.0,object-49,temp_dist_trial,20.0,t_s_03_1,travel_shared,portable charger,6.0,competing,paired,t_s_03_1.jpg,Travel,,,sub-58
Desktop or Laptop,Windows 10,Chrome 138.0.0.0,2560x1440,2560x1313,Temporal Distance Task,cb_06,20.0,temp_dist_trial,dist_items,qkpkxw,2.0,info,,2.700000047683716,0.0,2.700000047683716,2.700000047683716,0.0,2.700000047683716,1.0,0.0,0.0,,Slider,Slider,4.0,object-56,temp_dist_trial,20.0,t_s_03_1,travel_shared,portable charger,6.0,competing,paired,t_s_03_1.jpg,Travel,,,sub-58
Desktop or Laptop,Windows 10,Chrome 138.0.0.0,2560x1440,2560x1313,Temporal Distance Task,cb_06,20.0,temp_dist_trial,dist_items,qkpkxw,2.0,continue,,3377.800000190735,3369.5,3377.800000190735,3377.800000190735,3369.5,3377.800000190735,1.0,0.0,0.0,,Click To Continue,Next button,7.0,object-60,temp_dist_trial,20.0,t_s_03_1,travel_shared,portable charger,6.0,competing,paired,t_s_03_1.jpg,Travel,,,sub-58
Desktop or Laptop,Windows 10,Chrome 138.0.0.0,2560x1440,2560x1313,Temporal Distance Task,cb_06,20.0,temp_dist_trial,dist_items,qkpkxw,2.0,response,62,784.0,3369.5,3378.100000143051,784.0,3369.5,3378.100000143051,1.0,2594.100000143051,0.0,,Slider,Slider,4.0,object-56,temp_dist_trial,20.0,t_s_03_1,travel_shared,portable charger,6.0,competing,paired,t_s_03_1.jpg,Travel,,,sub-58
Desktop or Laptop,Windows 10,Chrome 138.0.0.0,2560x1440,2560x1313,Temporal Distance Task,cb_06,21.0,temp_dist_trial,num_items,zn7si1,1.0,response,2_ITEM,1609.1000001430511,1601.3000000000034,1609.1000001430511,1609.1000001430511,1601.3000000000034,1609.1000001430511,1.0,0.0,0.0,,Click Response,2_count,5.0,object-49,temp_dist_trial,21.0,t_s_24_1,travel_shared,ear plugs,6.0,competing,paired,t_s_24_1.jpg,Travel,,,sub-58
Desktop or Laptop,Windows 10,Chrome 138.0.0.0,2560x1440,2560x1313,Temporal Distance Task,cb_06,21.0,temp_dist_trial,dist_items,qkpkxw,2.0,info,,3.1000001430511475,0.0,3.1000001430511475,3.1000001430511475,0.0,3.1000001430511475,1.0,0.0,0.0,,Slider,Slider,4.0,object-56,temp_dist_trial,21.0,t_s_24_1,travel_shared,ear plugs,6.0,competing,paired,t_s_24_1.jpg,Travel,,,sub-58
Desktop or Laptop,Windows 10,Chrome 138.0.0.0,2560x1440,2560x1313,Temporal Distance Task,cb_06,21.0,temp_dist_trial,dist_items,qkpkxw,2.0,continue,,2049.700000047684,2035.0,2049.700000047684,2049.700000047684,2035.0,2049.700000047684,1.0,0.0,0.0,,Click To Continue,Next button,7.0,object-60,temp_dist_trial,21.0,t_s_24_1,travel_shared,ear plugs,6.0,competing,paired,t_s_24_1.jpg,Travel,,,sub-58
Desktop or Laptop,Windows 10,Chrome 138.0.0.0,2560x1440,2560x1313,Temporal Distance Task,cb_06,21.0,temp_dist_trial,dist_items,qkpkxw,2.0,response,55,1100.8999999999942,2035.0,2051.699999999997,1100.8999999999942,2035.0,2051.699999999997,1.0,950.8000000000028,0.0,,Slider,Slider,4.0,object-56,temp_dist_trial,21.0,t_s_24_1,travel_shared,ear plugs,6.0,competing,paired,t_s_24_1.jpg,Travel,,,sub-58
Desktop or Laptop,Windows 10,Chrome 138.0.0.0,2560x1440,2560x1313,Temporal Distance Task,cb_06,22.0,temp_dist_trial,num_items,zn7si1,1.0,response,1_ITEM,2627.700000047684,2618.800000000003,2627.700000047684,2627.700000047684,2618.800000000003,2627.700000047684,1.0,0.0,0.0,,Click Response,1_count,3.0,object-46,temp_dist_trial,22.0,t_m_09_1,travel_Miami,beach towel,6.0,unique,paired,t_m_09_1.jpg,Travel,,,sub-58
Desktop or Laptop,Windows 10,Chrome 138.0.0.0,2560x1440,2560x1313,Temporal Distance Task,cb_06,23.0,temp_dist_trial,num_items,zn7si1,1.0,response,1_ITEM,1694.6000001430511,1684.6999999999966,1694.6000001430511,1694.6000001430511,1684.6999999999966,1694.6000001430511,1.0,0.0,0.0,,Click Response,1_count,3.0,object-46,temp_dist_trial,23.0,t_s_20_1,travel_shared,travel pill case,6.0,competing,single,t_s_20_1.jpg,Travel,,,sub-58
Desktop or Laptop,Windows 10,Chrome 138.0.0.0,2560x1440,2560x1313,Temporal Distance Task,cb_06,24.0,temp_dist_trial,num_items,zn7si1,1.0,response,num_miss,3002.400000000009,3002.400000000009,3002.400000000009,3002.400000000009,3002.400000000009,3002.400000000009,1.0,0.0,0.0,num_miss_tag,Time Limit,screen,0.0,screen,temp_dist_trial,24.0,t_m_12_1,travel_Miami,foldable pail and shovel,6.0,unique,single,t_m_12_1.jpg,Travel,,,sub-58
Desktop or Laptop,Windows 10,Chrome 138.0.0.0,2560x1440,2560x1313,Temporal Distance Task,cb_06,25.0,temp_dist_trial,num_items,zn7si1,1.0,response,2_ITEM,1443.1000000000058,1434.400000000009,1443.1000000000058,1443.1000000000058,1434.400000000009,1443.1000000000058,1.0,0.0,0.0,,Click Response,2_count,5.0,object-49,temp_dist_trial,25.0,t_i_07_1,travel_Iceland,hiking backpack,6.0,unique,paired,t_i_07_1.jpg,Travel,,,sub-58
Desktop or Laptop,Windows 10,Chrome 138.0.0.0,2560x1440,2560x1313,Temporal Distance Task,cb_06,25.0,temp_dist_trial,dist_items,qkpkxw,2.0,info,,2.8000000953616104,0.0,2.8000000953616104,2.8000000953616104,0.0,2.8000000953616104,1.0,0.0,0.0,,Slider,Slider,4.0,object-56,temp_dist_trial,25.0,t_i_07_1,travel_Iceland,hiking backpack,6.0,unique,paired,t_i_07_1.jpg,Travel,,,sub-58
Desktop or Laptop,Windows 10,Chrome 138.0.0.0,2560x1440,2560x1313,Temporal Distance Task,cb_06,25.0,temp_dist_trial,dist_items,qkpkxw,2.0,continue,,1840.100000047678,1834.7999999999884,1840.100000047678,1840.100000047678,1834.7999999999884,1840.100000047678,1.0,0.0,0.0,,Click To Continue,Next button,7.0,object-60,temp_dist_trial,25.0,t_i_07_1,travel_Iceland,hiking backpack,6.0,unique,paired,t_i_07_1.jpg,Travel,,,sub-58
Desktop or Laptop,Windows 10,Chrome 138.0.0.0,2560x1440,2560x1313,Temporal Distance Task,cb_06,25.0,temp_dist_trial,dist_items,qkpkxw,2.0,response,34,717.1999999999971,1834.7999999999884,1841.8000000953616,717.1999999999971,1834.7999999999884,1841.8000000953616,1.0,1124.6000000953643,0.0,,Slider,Slider,4.0,object-56,temp_dist_trial,25.0,t_i_07_1,travel_Iceland,hiking backpack,6.0,unique,paired,t_i_07_1.jpg,Travel,,,sub-58
Desktop or Laptop,Windows 10,Chrome 138.0.0.0,2560x1440,2560x1313,Temporal Distance Task,cb_06,26.0,temp_dist_trial,num_items,zn7si1,1.0,response,2_ITEM,1133.1000000000058,1117.6000000000058,1133.1000000000058,1133.1000000000058,1117.6000000000058,1133.1000000000058,1.0,0.0,0.0,,Click Response,2_count,5.0,object-49,temp_dist_trial,26.0,t_m_04_1,travel_Miami,UV jacket,6.0,unique,paired,t_m_04_1.jpg,Travel,,,sub-58
Desktop or Laptop,Windows 10,Chrome 138.0.0.0,2560x1440,2560x1313,Temporal Distance Task,cb_06,26.0,temp_dist_trial,dist_items,qkpkxw,2.0,info,,2.7000001907290425,0.0,2.7000001907290425,2.7000001907290425,0.0,2.7000001907290425,1.0,0.0,0.0,,Slider,Slider,4.0,object-56,temp_dist_trial,26.0,t_m_04_1,travel_Miami,UV jacket,6.0,unique,paired,t_m_04_1.jpg,Travel,,,sub-58
Desktop or Laptop,Windows 10,Chrome 138.0.0.0,2560x1440,2560x1313,Temporal Distance Task,cb_06,26.0,temp_dist_trial,dist_items,qkpkxw,2.0,continue,,1730.5000001430453,1718.1999999999966,1730.5000001430453,1730.5000001430453,1718.1999999999966,1730.5000001430453,1.0,0.0,0.0,,Click To Continue,Next button,7.0,object-60,temp_dist_trial,26.0,t_m_04_1,travel_Miami,UV jacket,6.0,unique,paired,t_m_04_1.jpg,Travel,,,sub-58
Desktop or Laptop,Windows 10,Chrome 138.0.0.0,2560x1440,2560x1313,Temporal Distance Task,cb_06,26.0,temp_dist_trial,dist_items,qkpkxw,2.0,response,37,617.1999999999971,1718.1999999999966,1730.700000190729,617.1999999999971,1718.1999999999966,1730.700000190729,1.0,1113.500000190732,0.0,,Slider,Slider,4.0,object-56,temp_dist_trial,26.0,t_m_04_1,travel_Miami,UV jacket,6.0,unique,paired,t_m_04_1.jpg,Travel,,,sub-58
Desktop or Laptop,Windows 10,Chrome 138.0.0.0,2560x1440,2560x1313,Temporal Distance Task,cb_06,27.0,temp_dist_trial,num_items,zn7si1,1.0,response,2_ITEM,1472.3000001430485,1467.8000000000034,1472.3000001430485,1472.3000001430485,1467.8000000000034,1472.3000001430485,1.0,0.0,0.0,,Click Response,2_count,5.0,object-49,temp_dist_trial,27.0,t_i_02_1,travel_Iceland,scarf,6.0,unique,paired,t_i_02_1.jpg,Travel,,,sub-58
Desktop or Laptop,Windows 10,Chrome 138.0.0.0,2560x1440,2560x1313,Temporal Distance Task,cb_06,27.0,temp_dist_trial,dist_items,qkpkxw,2.0,info,,2.6000000953645213,0.0,2.6000000953645213,2.6000000953645213,0.0,2.6000000953645213,1.0,0.0,0.0,,Slider,Slider,4.0,object-56,temp_dist_trial,27.0,t_i_02_1,travel_Iceland,scarf,6.0,unique,paired,t_i_02_1.jpg,Travel,,,sub-58
Desktop or Laptop,Windows 10,Chrome 138.0.0.0,2560x1440,2560x1313,Temporal Distance Task,cb_06,27.0,temp_dist_trial,dist_items,qkpkxw,2.0,continue,,3357.3000001430482,3352.699999999997,3357.3000001430482,3357.3000001430482,3352.699999999997,3357.3000001430482,1.0,0.0,0.0,,Click To Continue,Next button,7.0,object-60,temp_dist_trial,27.0,t_i_02_1,travel_Iceland,scarf,6.0,unique,paired,t_i_02_1.jpg,Travel,,,sub-58
Desktop or Laptop,Windows 10,Chrome 138.0.0.0,2560x1440,2560x1313,Temporal Distance Task,cb_06,27.0,temp_dist_trial,dist_items,qkpkxw,2.0,response,25,950.8000000000028,3352.699999999997,3357.6000000953645,950.8000000000028,3352.699999999997,3357.6000000953645,1.0,2406.8000000953616,0.0,,Slider,Slider,4.0,object-56,temp_dist_trial,27.0,t_i_02_1,travel_Iceland,scarf,6.0,unique,paired,t_i_02_1.jpg,Travel,,,sub-58
Desktop or Laptop,Windows 10,Chrome 138.0.0.0,2560x1440,2560x1313,Temporal Distance Task,cb_06,28.0,temp_dist_trial,num_items,zn7si1,1.0,response,2_ITEM,1664.5,1651.2999999999884,1664.5,1664.5,1651.2999999999884,1664.5,1.0,0.0,0.0,,Click Response,2_count,5.0,object-49,temp_dist_trial,28.0,t_s_01_1,travel_shared,fanny pack,6.0,competing,paired,t_s_01_1.jpg,Travel,,,sub-58
Desktop or Laptop,Windows 10,Chrome 138.0.0.0,2560x1440,2560x1313,Temporal Distance Task,cb_06,28.0,temp_dist_trial,dist_items,qkpkxw,2.0,info,,2.5000001430453267,0.0,2.5000001430453267,2.5000001430453267,0.0,2.5000001430453267,1.0,0.0,0.0,,Slider,Slider,4.0,object-56,temp_dist_trial,28.0,t_s_01_1,travel_shared,fanny pack,6.0,competing,paired,t_s_01_1.jpg,Travel,,,sub-58
Desktop or Laptop,Windows 10,Chrome 138.0.0.0,2560x1440,2560x1313,Temporal Distance Task,cb_06,28.0,temp_dist_trial,dist_items,qkpkxw,2.0,continue,,3571.1000000476783,3569.5,3571.1000000476783,3571.1000000476783,3569.5,3571.1000000476783,1.0,0.0,0.0,,Click To Continue,Next button,7.0,object-60,temp_dist_trial,28.0,t_s_01_1,travel_shared,fanny pack,6.0,competing,paired,t_s_01_1.jpg,Travel,,,sub-58
Desktop or Laptop,Windows 10,Chrome 138.0.0.0,2560x1440,2560x1313,Temporal Distance Task,cb_06,28.0,temp_dist_trial,dist_items,qkpkxw,2.0,response,14,917.3999999999942,3569.5,3571.3000000953607,917.3999999999942,3569.5,3571.3000000953607,1.0,2653.9000000953674,0.0,,Slider,Slider,4.0,object-56,temp_dist_trial,28.0,t_s_01_1,travel_shared,fanny pack,6.0,competing,paired,t_s_01_1.jpg,Travel,,,sub-58
Desktop or Laptop,Windows 10,Chrome 138.0.0.0,2560x1440,2560x1313,Temporal Distance Task,cb_06,29.0,temp_dist_trial,num_items,zn7si1,1.0,response,2_ITEM,1662.200000190729,1651.3999999999942,1662.200000190729,1662.200000190729,1651.3999999999942,1662.200000190729,1.0,0.0,0.0,,Click Response,2_count,5.0,object-49,temp_dist_trial,29.0,t_s_21_1,travel_shared,umbrella,6.0,competing,paired,t_s_21_1.jpg,Travel,,,sub-58
Desktop or Laptop,Windows 10,Chrome 138.0.0.0,2560x1440,2560x1313,Temporal Distance Task,cb_06,29.0,temp_dist_trial,dist_items,qkpkxw,2.0,info,,2.6000001907232217,0.0,2.6000001907232217,2.6000001907232217,0.0,2.6000001907232217,1.0,0.0,0.0,,Slider,Slider,4.0,object-56,temp_dist_trial,29.0,t_s_21_1,travel_shared,umbrella,6.0,competing,paired,t_s_21_1.jpg,Travel,,,sub-58
Desktop or Laptop,Windows 10,Chrome 138.0.0.0,2560x1440,2560x1313,Temporal Distance Task,cb_06,29.0,temp_dist_trial,dist_items,qkpkxw,2.0,continue,,3905.799999999989,3903.199999999983,3905.799999999989,3905.799999999989,3903.199999999983,3905.799999999989,1.0,0.0,0.0,,Click To Continue,Next button,7.0,object-60,temp_dist_trial,29.0,t_s_21_1,travel_shared,umbrella,6.0,competing,paired,t_s_21_1.jpg,Travel,,,sub-58
Desktop or Laptop,Windows 10,Chrome 138.0.0.0,2560x1440,2560x1313,Temporal Distance Task,cb_06,29.0,temp_dist_trial,dist_items,qkpkxw,2.0,response,64,1167.5999999999767,3903.199999999983,3906.000000047672,1167.5999999999767,3903.199999999983,3906.000000047672,1.0,2738.400000047696,0.0,,Slider,Slider,4.0,object-56,temp_dist_trial,29.0,t_s_21_1,travel_shared,umbrella,6.0,competing,paired,t_s_21_1.jpg,Travel,,,sub-58
Desktop or Laptop,Windows 10,Chrome 138.0.0.0,2560x1440,2560x1313,Temporal Distance Task,cb_06,30.0,temp_dist_trial,num_items,zn7si1,1.0,response,1_ITEM,1106.5000000953733,1100.8000000000177,1106.5000000953733,1106.5000000953733,1100.8000000000177,1106.5000000953733,1.0,0.0,0.0,,Click Response,1_count,3.0,object-46,temp_dist_trial,30.0,t_m_01_1,travel_Miami,sandals,6.0,unique,single,t_m_01_1.jpg,Travel,,,sub-58
Desktop or Laptop,Windows 10,Chrome 138.0.0.0,2560x1440,2560x1313,Temporal Distance Task,cb_06,31.0,temp_dist_trial,num_items,zn7si1,1.0,response,2_ITEM,1227.3000001907346,1217.7000000000114,1227.3000001907346,1227.3000001907346,1217.7000000000114,1227.3000001907346,1.0,0.0,0.0,,Click Response,2_count,5.0,object-49,temp_dist_trial,31.0,t_s_10_1,travel_shared,luggage lock,6.0,competing,paired,t_s_10_1.jpg,Travel,,,sub-58
Desktop or Laptop,Windows 10,Chrome 138.0.0.0,2560x1440,2560x1313,Temporal Distance Task,cb_06,31.0,temp_dist_trial,dist_items,qkpkxw,2.0,info,,2.7000000000116415,0.0,2.7000000000116415,2.7000000000116415,0.0,2.7000000000116415,1.0,0.0,0.0,,Slider,Slider,4.0,object-56,temp_dist_trial,31.0,t_s_10_1,travel_shared,luggage lock,6.0,competing,paired,t_s_10_1.jpg,Travel,,,sub-58
Desktop or Laptop,Windows 10,Chrome 138.0.0.0,2560x1440,2560x1313,Temporal Distance Task,cb_06,31.0,temp_dist_trial,dist_items,qkpkxw,2.0,continue,,3068.600000095379,3052.5,3068.600000095379,3068.600000095379,3052.5,3068.600000095379,1.0,0.0,0.0,,Click To Continue,Next button,7.0,object-60,temp_dist_trial,31.0,t_s_10_1,travel_shared,luggage lock,6.0,competing,paired,t_s_10_1.jpg,Travel,,,sub-58
Desktop or Laptop,Windows 10,Chrome 138.0.0.0,2560x1440,2560x1313,Temporal Distance Task,cb_06,31.0,temp_dist_trial,dist_items,qkpkxw,2.0,response,,3068.800000143063,3052.5,3068.800000143063,3068.800000143063,3052.5,3068.800000143063,1.0,0.0,0.0,,Slider,Slider,4.0,object-56,temp_dist_trial,31.0,t_s_10_1,travel_shared,luggage lock,6.0,competing,paired,t_s_10_1.jpg,Travel,,,sub-58
Desktop or Laptop,Windows 10,Chrome 138.0.0.0,2560x1440,2560x1313,Temporal Distance Task,cb_06,32.0,temp_dist_trial,num_items,zn7si1,1.0,response,num_miss,3002.4000000000237,3002.4000000000237,3002.4000000000237,3002.4000000000237,3002.4000000000237,3002.4000000000237,1.0,0.0,0.0,num_miss_tag,Time Limit,screen,0.0,screen,temp_dist_trial,32.0,t_s_12_1,travel_shared,clear toiletry bag,6.0,competing,paired,t_s_12_1.jpg,Travel,,,sub-58
Desktop or Laptop,Windows 10,Chrome 138.0.0.0,2560x1440,2560x1313,Temporal Distance Task,cb_06,33.0,temp_dist_trial,num_items,zn7si1,1.0,response,1_ITEM,79.10000009537907,66.70000000001164,79.10000009537907,79.10000009537907,66.70000000001164,79.10000009537907,1.0,0.0,0.0,,Click Response,1_count,3.0,object-46,temp_dist_trial,33.0,t_s_02_1,travel_shared,water bottle,6.0,competing,paired,t_s_02_1.jpg,Travel,,,sub-58
Desktop or Laptop,Windows 10,Chrome 138.0.0.0,2560x1440,2560x1313,Temporal Distance Task,cb_06,34.0,temp_dist_trial,num_items,zn7si1,1.0,response,1_ITEM,2329.2000000953562,2318.5,2329.2000000953562,2329.2000000953562,2318.5,2329.2000000953562,1.0,0.0,0.0,,Click Response,1_count,3.0,object-46,temp_dist_trial,34.0,t_s_17_1,travel_shared,toothbrush,6.0,competing,single,t_s_17_1.jpg,Travel,,,sub-58
Desktop or Laptop,Windows 10,Chrome 138.0.0.0,2560x1440,2560x1313,Temporal Distance Task,cb_06,35.0,temp_dist_trial,num_items,zn7si1,1.0,response,2_ITEM,1479.2000000476835,1467.7999999999884,1479.2000000476835,1479.2000000476835,1467.7999999999884,1479.2000000476835,1.0,0.0,0.0,,Click Response,2_count,5.0,object-49,temp_dist_trial,35.0,t_m_10_1,travel_Miami,tanktop,6.0,unique,paired,t_m_10_1.jpg,Travel,,,sub-58
Desktop or Laptop,Windows 10,Chrome 138.0.0.0,2560x1440,2560x1313,Temporal Distance Task,cb_06,35.0,temp_dist_trial,dist_items,qkpkxw,2.0,info,,2.400000190740684,0.0,2.400000190740684,2.400000190740684,0.0,2.400000190740684,1.0,0.0,0.0,,Slider,Slider,4.0,object-56,temp_dist_trial,35.0,t_m_10_1,travel_Miami,tanktop,6.0,unique,paired,t_m_10_1.jpg,Travel,,,sub-58
Desktop or Laptop,Windows 10,Chrome 138.0.0.0,2560x1440,2560x1313,Temporal Distance Task,cb_06,35.0,temp_dist_trial,dist_items,qkpkxw,2.0,continue,,3936.400000190741,3919.8999999999933,3936.400000190741,3936.400000190741,3919.8999999999933,3936.400000190741,1.0,0.0,0.0,,Click To Continue,Next button,7.0,object-60,temp_dist_trial,35.0,t_m_10_1,travel_Miami,tanktop,6.0,unique,paired,t_m_10_1.jpg,Travel,,,sub-58
Desktop or Laptop,Windows 10,Chrome 138.0.0.0,2560x1440,2560x1313,Temporal Distance Task,cb_06,35.0,temp_dist_trial,dist_items,qkpkxw,2.0,response,29,683.8999999999943,3919.8999999999933,3936.5999999999767,683.8999999999943,3919.8999999999933,3936.5999999999767,1.0,3252.699999999982,0.0,,Slider,Slider,4.0,object-56,temp_dist_trial,35.0,t_m_10_1,travel_Miami,tanktop,6.0,unique,paired,t_m_10_1.jpg,Travel,,,sub-58
Desktop or Laptop,Windows 10,Chrome 138.0.0.0,2560x1440,2560x1313,Temporal Distance Task,cb_06,36.0,temp_dist_trial,num_items,zn7si1,1.0,response,2_ITEM,1793.7000000000116,1784.8000000000175,1793.7000000000116,1793.7000000000116,1784.8000000000175,1793.7000000000116,1.0,0.0,0.0,,Click Response,2_count,5.0,object-49,temp_dist_trial,36.0,t_s_16_1,travel_shared,chapstick,6.0,competing,paired,t_s_16_1.jpg,Travel,,,sub-58
Desktop or Laptop,Windows 10,Chrome 138.0.0.0,2560x1440,2560x1313,Temporal Distance Task,cb_06,36.0,temp_dist_trial,dist_items,qkpkxw,2.0,info,,2.3000000476895366,0.0,2.3000000476895366,2.3000000476895366,0.0,2.3000000476895366,1.0,0.0,0.0,,Slider,Slider,4.0,object-56,temp_dist_trial,36.0,t_s_16_1,travel_shared,chapstick,6.0,competing,paired,t_s_16_1.jpg,Travel,,,sub-58
Desktop or Laptop,Windows 10,Chrome 138.0.0.0,2560x1440,2560x1313,Temporal Distance Task,cb_06,36.0,temp_dist_trial,dist_items,qkpkxw,2.0,continue,,2101.4000001907407,2085.0,2101.4000001907407,2101.4000001907407,2085.0,2101.4000001907407,1.0,0.0,0.0,,Click To Continue,Next button,7.0,object-60,temp_dist_trial,36.0,t_s_16_1,travel_shared,chapstick,6.0,competing,paired,t_s_16_1.jpg,Travel,,,sub-58
Desktop or Laptop,Windows 10,Chrome 138.0.0.0,2560x1440,2560x1313,Temporal Distance Task,cb_06,36.0,temp_dist_trial,dist_items,qkpkxw,2.0,response,71,700.6000000000058,2085.0,2101.6999999999825,700.6000000000058,2085.0,2101.6999999999825,1.0,1401.0999999999767,0.0,,Slider,Slider,4.0,object-56,temp_dist_trial,36.0,t_s_16_1,travel_shared,chapstick,6.0,competing,paired,t_s_16_1.jpg,Travel,,,sub-58
Desktop or Laptop,Windows 10,Chrome 138.0.0.0,2560x1440,2560x1313,Temporal Distance Task,cb_06,37.0,temp_dist_trial,num_items,zn7si1,1.0,response,1_ITEM,1806.4000001907407,1801.3999999999942,1806.4000001907407,1806.4000001907407,1801.3999999999942,1806.4000001907407,1.0,0.0,0.0,,Click Response,1_count,3.0,object-46,temp_dist_trial,37.0,t_s_08_1,travel_shared,hand lotion,6.0,competing,single,t_s_08_1.jpg,Travel,,,sub-58
Desktop or Laptop,Windows 10,Chrome 138.0.0.0,2560x1440,2560x1313,Temporal Distance Task,cb_06,38.0,temp_dist_trial,num_items,zn7si1,1.0,response,1_ITEM,1139.9000000953674,1134.2999999999886,1139.9000000953674,1139.9000000953674,1134.2999999999886,1139.9000000953674,1.0,0.0,0.0,,Click Response,1_count,3.0,object-46,temp_dist_trial,38.0,t_m_17_1,travel_Miami,water gun,6.0,unique,single,t_m_17_1.jpg,Travel,,,sub-58
Desktop or Laptop,Windows 10,Chrome 138.0.0.0,2560x1440,2560x1313,Temporal Distance Task,cb_06,39.0,temp_dist_trial,num_items,zn7si1,1.0,response,2_ITEM,1386.2000000476835,1384.5,1386.2000000476835,1386.2000000476835,1384.5,1386.2000000476835,1.0,0.0,0.0,,Click Response,2_count,5.0,object-49,temp_dist_trial,39.0,t_m_05_1,travel_Miami,sunscreen,6.0,unique,paired,t_m_05_1.jpg,Travel,,,sub-58
Desktop or Laptop,Windows 10,Chrome 138.0.0.0,2560x1440,2560x1313,Temporal Distance Task,cb_06,39.0,temp_dist_trial,dist_items,qkpkxw,2.0,info,,2.7999999999883585,0.0,2.7999999999883585,2.7999999999883585,0.0,2.7999999999883585,1.0,0.0,0.0,,Slider,Slider,4.0,object-56,temp_dist_trial,39.0,t_m_05_1,travel_Miami,sunscreen,6.0,unique,paired,t_m_05_1.jpg,Travel,,,sub-58
Desktop or Laptop,Windows 10,Chrome 138.0.0.0,2560x1440,2560x1313,Temporal Distance Task,cb_06,39.0,temp_dist_trial,dist_items,qkpkxw,2.0,continue,,2078.4000001430395,2068.2999999999884,2078.4000001430395,2078.4000001430395,2068.2999999999884,2078.4000001430395,1.0,0.0,0.0,,Click To Continue,Next button,7.0,object-60,temp_dist_trial,39.0,t_m_05_1,travel_Miami,sunscreen,6.0,unique,paired,t_m_05_1.jpg,Travel,,,sub-58
Desktop or Laptop,Windows 10,Chrome 138.0.0.0,2560x1440,2560x1313,Temporal Distance Task,cb_06,39.0,temp_dist_trial,dist_items,qkpkxw,2.0,response,26,750.5,2068.2999999999884,2078.7000000953562,750.5,2068.2999999999884,2078.7000000953562,1.0,1328.2000000953558,0.0,,Slider,Slider,4.0,object-56,temp_dist_trial,39.0,t_m_05_1,travel_Miami,sunscreen,6.0,unique,paired,t_m_05_1.jpg,Travel,,,sub-58
Desktop or Laptop,Windows 10,Chrome 138.0.0.0,2560x1440,2560x1313,Temporal Distance Task,cb_06,40.0,temp_dist_trial,num_items,zn7si1,1.0,response,2_ITEM,1688.0,1684.7000000000116,1688.0,1688.0,1684.7000000000116,1688.0,1.0,0.0,0.0,,Click Response,2_count,5.0,object-49,temp_dist_trial,40.0,t_i_17_1,travel_Iceland,binoculars,6.0,unique,paired,t_i_17_1.jpg,Travel,,,sub-58
Desktop or Laptop,Windows 10,Chrome 138.0.0.0,2560x1440,2560x1313,Temporal Distance Task,cb_06,40.0,temp_dist_trial,dist_items,qkpkxw,2.0,info,,2.8000000476895366,0.0,2.8000000476895366,2.8000000476895366,0.0,2.8000000476895366,1.0,0.0,0.0,,Slider,Slider,4.0,object-56,temp_dist_trial,40.0,t_i_17_1,travel_Iceland,binoculars,6.0,unique,paired,t_i_17_1.jpg,Travel,,,sub-58
Desktop or Laptop,Windows 10,Chrome 138.0.0.0,2560x1440,2560x1313,Temporal Distance Task,cb_06,40.0,temp_dist_trial,dist_items,qkpkxw,2.0,continue,,2198.300000047689,2185.1000000000063,2198.300000047689,2198.300000047689,2185.1000000000063,2198.300000047689,1.0,0.0,0.0,,Click To Continue,Next button,7.0,object-60,temp_dist_trial,40.0,t_i_17_1,travel_Iceland,binoculars,6.0,unique,paired,t_i_17_1.jpg,Travel,,,sub-58
Desktop or Laptop,Windows 10,Chrome 138.0.0.0,2560x1440,2560x1313,Temporal Distance Task,cb_06,40.0,temp_dist_trial,dist_items,qkpkxw,2.0,response,29,717.3000000000177,2185.1000000000063,2200.6000000000063,717.3000000000177,2185.1000000000063,2200.6000000000063,1.0,1483.2999999999884,0.0,,Slider,Slider,4.0,object-56,temp_dist_trial,40.0,t_i_17_1,travel_Iceland,binoculars,6.0,unique,paired,t_i_17_1.jpg,Travel,,,sub-58
Desktop or Laptop,Windows 10,Chrome 138.0.0.0,2560x1440,2560x1313,Temporal Distance Task,cb_06,41.0,temp_dist_trial,num_items,zn7si1,1.0,response,2_ITEM,2021.1000001430511,2018.3999999999944,2021.1000001430511,2021.1000001430511,2018.3999999999944,2021.1000001430511,1.0,0.0,0.0,,Click Response,2_count,5.0,object-49,temp_dist_trial,41.0,t_i_01_1,travel_Iceland,gloves,6.0,unique,paired,t_i_01_1.jpg,Travel,,,sub-58
Desktop or Laptop,Windows 10,Chrome 138.0.0.0,2560x1440,2560x1313,Temporal Distance Task,cb_06,41.0,temp_dist_trial,dist_items,qkpkxw,2.0,info,,2.6000001430511475,0.0,2.6000001430511475,2.6000001430511475,0.0,2.6000001430511475,1.0,0.0,0.0,,Slider,Slider,4.0,object-56,temp_dist_trial,41.0,t_i_01_1,travel_Iceland,gloves,6.0,unique,paired,t_i_01_1.jpg,Travel,,,sub-58
Desktop or Laptop,Windows 10,Chrome 138.0.0.0,2560x1440,2560x1313,Temporal Distance Task,cb_06,41.0,temp_dist_trial,dist_items,qkpkxw,2.0,continue,,1897.6000001430511,1884.8999999999944,1897.6000001430511,1897.6000001430511,1884.8999999999944,1897.6000001430511,1.0,0.0,0.0,,Click To Continue,Next button,7.0,object-60,temp_dist_trial,41.0,t_i_01_1,travel_Iceland,gloves,6.0,unique,paired,t_i_01_1.jpg,Travel,,,sub-58
Desktop or Laptop,Windows 10,Chrome 138.0.0.0,2560x1440,2560x1313,Temporal Distance Task,cb_06,41.0,temp_dist_trial,dist_items,qkpkxw,2.0,response,74,700.6000000000058,1884.8999999999944,1897.9000000953674,700.6000000000058,1884.8999999999944,1897.9000000953674,1.0,1197.3000000953614,0.0,,Slider,Slider,4.0,object-56,temp_dist_trial,41.0,t_i_01_1,travel_Iceland,gloves,6.0,unique,paired,t_i_01_1.jpg,Travel,,,sub-58
Desktop or Laptop,Windows 10,Chrome 138.0.0.0,2560x1440,2560x1313,Temporal Distance Task,cb_06,42.0,temp_dist_trial,num_items,zn7si1,1.0,response,1_ITEM,1214.6000000000058,1200.8999999999942,1214.6000000000058,1214.6000000000058,1200.8999999999942,1214.6000000000058,1.0,0.0,0.0,,Click Response,1_count,3.0,object-46,temp_dist_trial,42.0,t_s_05_1,travel_shared,neck pillow,6.0,competing,single,t_s_05_1.jpg,Travel,,,sub-58
Desktop or Laptop,Windows 10,Chrome 138.0.0.0,2560x1440,2560x1313,Temporal Distance Task,cb_06,43.0,temp_dist_trial,num_items,zn7si1,1.0,response,2_ITEM,1731.600000047678,1718.0,1731.600000047678,1731.600000047678,1718.0,1731.600000047678,1.0,0.0,0.0,,Click Response,2_count,5.0,object-49,temp_dist_trial,43.0,t_s_23_1,travel_shared,ball cap,6.0,competing,paired,t_s_23_1.jpg,Travel,,,sub-58
Desktop or Laptop,Windows 10,Chrome 138.0.0.0,2560x1440,2560x1313,Temporal Distance Task,cb_06,43.0,temp_dist_trial,dist_items,qkpkxw,2.0,info,,2.4000000476953574,0.0,2.4000000476953574,2.4000000476953574,0.0,2.4000000476953574,1.0,0.0,0.0,,Slider,Slider,4.0,object-56,temp_dist_trial,43.0,t_s_23_1,travel_shared,ball cap,6.0,competing,paired,t_s_23_1.jpg,Travel,,,sub-58
Desktop or Laptop,Windows 10,Chrome 138.0.0.0,2560x1440,2560x1313,Temporal Distance Task,cb_06,43.0,temp_dist_trial,dist_items,qkpkxw,2.0,continue,,2792.300000143063,2785.700000000012,2792.300000143063,2792.300000143063,2785.700000000012,2792.300000143063,1.0,0.0,0.0,,Click To Continue,Next button,7.0,object-60,temp_dist_trial,43.0,t_s_23_1,travel_shared,ball cap,6.0,competing,paired,t_s_23_1.jpg,Travel,,,sub-58
Desktop or Laptop,Windows 10,Chrome 138.0.0.0,2560x1440,2560x1313,Temporal Distance Task,cb_06,43.0,temp_dist_trial,dist_items,qkpkxw,2.0,response,45,1351.2000000000114,2785.700000000012,2794.100000095379,1351.2000000000114,2785.700000000012,2794.100000095379,1.0,1442.9000000953674,0.0,,Slider,Slider,4.0,object-56,temp_dist_trial,43.0,t_s_23_1,travel_shared,ball cap,6.0,competing,paired,t_s_23_1.jpg,Travel,,,sub-58
Desktop or Laptop,Windows 10,Chrome 138.0.0.0,2560x1440,2560x1313,Temporal Distance Task,cb_06,44.0,temp_dist_trial,num_items,zn7si1,1.0,response,2_ITEM,1582.3000001907349,1567.7999999999884,1582.3000001907349,1582.3000001907349,1567.7999999999884,1582.3000001907349,1.0,0.0,0.0,,Click Response,2_count,5.0,object-49,temp_dist_trial,44.0,t_s_15_1,travel_shared,luggage tag,6.0,competing,paired,t_s_15_1.jpg,Travel,,,sub-58
Desktop or Laptop,Windows 10,Chrome 138.0.0.0,2560x1440,2560x1313,Temporal Distance Task,cb_06,44.0,temp_dist_trial,dist_items,qkpkxw,2.0,info,,2.7000001907290425,0.0,2.7000001907290425,2.7000001907290425,0.0,2.7000001907290425,1.0,0.0,0.0,,Slider,Slider,4.0,object-56,temp_dist_trial,44.0,t_s_15_1,travel_shared,luggage tag,6.0,competing,paired,t_s_15_1.jpg,Travel,,,sub-58
Desktop or Laptop,Windows 10,Chrome 138.0.0.0,2560x1440,2560x1313,Temporal Distance Task,cb_06,44.0,temp_dist_trial,dist_items,qkpkxw,2.0,continue,,5019.399999999994,5004.100000000006,5019.399999999994,5019.399999999994,5004.100000000006,5019.399999999994,1.0,0.0,0.0,,Click To Continue,Next button,7.0,object-60,temp_dist_trial,44.0,t_s_15_1,travel_shared,luggage tag,6.0,competing,paired,t_s_15_1.jpg,Travel,,,sub-58
Desktop or Laptop,Windows 10,Chrome 138.0.0.0,2560x1440,2560x1313,Temporal Distance Task,cb_06,44.0,temp_dist_trial,dist_items,qkpkxw,2.0,response,71,1484.6000000000058,5004.100000000006,5019.600000047678,1484.6000000000058,5004.100000000006,5019.600000047678,1.0,3535.000000047672,0.0,,Slider,Slider,4.0,object-56,temp_dist_trial,44.0,t_s_15_1,travel_shared,luggage tag,6.0,competing,paired,t_s_15_1.jpg,Travel,,,sub-58
Desktop or Laptop,Windows 10,Chrome 138.0.0.0,2560x1440,2560x1313,Temporal Distance Task,cb_06,45.0,temp_dist_trial,num_items,zn7si1,1.0,response,2_ITEM,2476.2000000953562,2468.599999999977,2476.2000000953562,2476.2000000953562,2468.599999999977,2476.2000000953562,1.0,0.0,0.0,,Click Response,2_count,5.0,object-49,temp_dist_trial,45.0,t_s_09_1,travel_shared,wallet,6.0,competing,paired,t_s_09_1.jpg,Travel,,,sub-58
Desktop or Laptop,Windows 10,Chrome 138.0.0.0,2560x1440,2560x1313,Temporal Distance Task,cb_06,45.0,temp_dist_trial,dist_items,qkpkxw,2.0,info,,2.7000001907290425,0.0,2.7000001907290425,2.7000001907290425,0.0,2.7000001907290425,1.0,0.0,0.0,,Slider,Slider,4.0,object-56,temp_dist_trial,45.0,t_s_09_1,travel_shared,wallet,6.0,competing,paired,t_s_09_1.jpg,Travel,,,sub-58
Desktop or Laptop,Windows 10,Chrome 138.0.0.0,2560x1440,2560x1313,Temporal Distance Task,cb_06,45.0,temp_dist_trial,dist_items,qkpkxw,2.0,continue,,2503.600000047678,2502.1000000000063,2503.600000047678,2503.600000047678,2502.1000000000063,2503.600000047678,1.0,0.0,0.0,,Click To Continue,Next button,7.0,object-60,temp_dist_trial,45.0,t_s_09_1,travel_shared,wallet,6.0,competing,paired,t_s_09_1.jpg,Travel,,,sub-58
Desktop or Laptop,Windows 10,Chrome 138.0.0.0,2560x1440,2560x1313,Temporal Distance Task,cb_06,45.0,temp_dist_trial,dist_items,qkpkxw,2.0,response,63,984.0,2502.1000000000063,2505.3999999999937,984.0,2502.1000000000063,2505.3999999999937,1.0,1521.3999999999942,0.0,,Slider,Slider,4.0,object-56,temp_dist_trial,45.0,t_s_09_1,travel_shared,wallet,6.0,competing,paired,t_s_09_1.jpg,Travel,,,sub-58
Desktop or Laptop,Windows 10,Chrome 138.0.0.0,2560x1440,2560x1313,Temporal Distance Task,cb_06,46.0,temp_dist_trial,num_items,zn7si1,1.0,response,1_ITEM,1164.1000001907232,1150.7999999999886,1164.1000001907232,1164.1000001907232,1150.7999999999886,1164.1000001907232,1.0,0.0,0.0,,Click Response,1_count,3.0,object-46,temp_dist_trial,46.0,t_m_13_1,travel_Miami,floatie,6.0,unique,paired,t_m_13_1.jpg,Travel,,,sub-58
Desktop or Laptop,Windows 10,Chrome 138.0.0.0,2560x1440,2560x1313,Temporal Distance Task,cb_06,47.0,temp_dist_trial,num_items,zn7si1,1.0,response,2_ITEM,1649.2000000953558,1634.6999999999825,1649.2000000953558,1649.2000000953558,1634.6999999999825,1649.2000000953558,1.0,0.0,0.0,,Click Response,2_count,5.0,object-49,temp_dist_trial,47.0,t_m_14_1,travel_Miami,swim goggles,6.0,unique,paired,t_m_14_1.jpg,Travel,,,sub-58
Desktop or Laptop,Windows 10,Chrome 138.0.0.0,2560x1440,2560x1313,Temporal Distance Task,cb_06,47.0,temp_dist_trial,dist_items,qkpkxw,2.0,info,,3.1000000476778946,0.0,3.1000000476778946,3.1000000476778946,0.0,3.1000000476778946,1.0,0.0,0.0,,Slider,Slider,4.0,object-56,temp_dist_trial,47.0,t_m_14_1,travel_Miami,swim goggles,6.0,unique,paired,t_m_14_1.jpg,Travel,,,sub-58
Desktop or Laptop,Windows 10,Chrome 138.0.0.0,2560x1440,2560x1313,Temporal Distance Task,cb_06,47.0,temp_dist_trial,dist_items,qkpkxw,2.0,continue,,1695.200000190729,1684.6999999999825,1695.200000190729,1695.200000190729,1684.6999999999825,1695.200000190729,1.0,0.0,0.0,,Click To Continue,Next button,7.0,object-60,temp_dist_trial,47.0,t_m_14_1,travel_Miami,swim goggles,6.0,unique,paired,t_m_14_1.jpg,Travel,,,sub-58
Desktop or Laptop,Windows 10,Chrome 138.0.0.0,2560x1440,2560x1313,Temporal Distance Task,cb_06,47.0,temp_dist_trial,dist_items,qkpkxw,2.0,response,14,617.1999999999825,1684.6999999999825,1695.3999999999942,617.1999999999825,1684.6999999999825,1695.3999999999942,1.0,1078.2000000000116,0.0,,Slider,Slider,4.0,object-56,temp_dist_trial,47.0,t_m_14_1,travel_Miami,swim goggles,6.0,unique,paired,t_m_14_1.jpg,Travel,,,sub-58
Desktop or Laptop,Windows 10,Chrome 138.0.0.0,2560x1440,2560x1313,Temporal Distance Task,cb_06,48.0,temp_dist_trial,num_items,zn7si1,1.0,response,2_ITEM,1650.4000000476956,1634.7000000000116,1650.4000000476956,1650.4000000476956,1634.7000000000116,1650.4000000476956,1.0,0.0,0.0,,Click Response,2_count,5.0,object-49,temp_dist_trial,48.0,t_s_14_1,travel_shared,hand sanitizer,6.0,competing,paired,t_s_14_1.jpg,Travel,,,sub-58
Desktop or Laptop,Windows 10,Chrome 138.0.0.0,2560x1440,2560x1313,Temporal Distance Task,cb_06,48.0,temp_dist_trial,dist_items,qkpkxw,2.0,info,,3.0000001430453267,0.0,3.0000001430453267,3.0000001430453267,0.0,3.0000001430453267,1.0,0.0,0.0,,Slider,Slider,4.0,object-56,temp_dist_trial,48.0,t_s_14_1,travel_shared,hand sanitizer,6.0,competing,paired,t_s_14_1.jpg,Travel,,,sub-58
Desktop or Laptop,Windows 10,Chrome 138.0.0.0,2560x1440,2560x1313,Temporal Distance Task,cb_06,48.0,temp_dist_trial,dist_items,qkpkxw,2.0,continue,,1994.0000001430453,1985.0,1994.0000001430453,1994.0000001430453,1985.0,1994.0000001430453,1.0,0.0,0.0,,Click To Continue,Next button,7.0,object-60,temp_dist_trial,48.0,t_s_14_1,travel_shared,hand sanitizer,6.0,competing,paired,t_s_14_1.jpg,Travel,,,sub-58
Desktop or Laptop,Windows 10,Chrome 138.0.0.0,2560x1440,2560x1313,Temporal Distance Task,cb_06,48.0,temp_dist_trial,dist_items,qkpkxw,2.0,response,43,450.3999999999942,1985.0,1994.3999999999944,450.3999999999942,1985.0,1994.3999999999944,1.0,1544.0,0.0,,Slider,Slider,4.0,object-56,temp_dist_trial,48.0,t_s_14_1,travel_shared,hand sanitizer,6.0,competing,paired,t_s_14_1.jpg,Travel,,,sub-58
Desktop or Laptop,Windows 10,Chrome 138.0.0.0,2560x1440,2560x1313,Temporal Distance Task,cb_06,2.0,temp_eventStart,Screen 1,dgtyxe,1.0,continue,,1314.700000190729,1301.0,1314.700000190729,1314.700000190729,1301.0,1314.700000190729,1.0,0.0,0.0,,Click To Continue,Next Button,3.0,object-43,temp_eventStart,,,Student,,,,,,,,,sub-58
Desktop or Laptop,Windows 10,Chrome 138.0.0.0,2560x1440,2560x1313,Temporal Distance Task,cb_06,49.0,temp_dist_trial,num_items,zn7si1,1.0,response,1_ITEM,2129.700000190729,2118.5,2129.700000190729,2129.700000190729,2118.5,2129.700000190729,1.0,0.0,0.0,,Click Response,1_count,3.0,object-46,temp_dist_trial,1.0,s_a_03_1,student_art,palette,6.0,unique,paired,s_a_03_1.jpg,Student,,,sub-58
Desktop or Laptop,Windows 10,Chrome 138.0.0.0,2560x1440,2560x1313,Temporal Distance Task,cb_06,50.0,temp_dist_trial,num_items,zn7si1,1.0,response,1_ITEM,1234.000000047672,1217.6999999999825,1234.000000047672,1234.000000047672,1217.6999999999825,1234.000000047672,1.0,0.0,0.0,,Click Response,1_count,3.0,object-46,temp_dist_trial,2.0,s_sh_03_1,student_shared,highlighter,6.0,competing,single,s_sh_03_1.jpg,Student,,,sub-58
Desktop or Laptop,Windows 10,Chrome 138.0.0.0,2560x1440,2560x1313,Temporal Distance Task,cb_06,51.0,temp_dist_trial,num_items,zn7si1,1.0,response,2_ITEM,1191.200000190729,1184.2999999999886,1191.200000190729,1191.200000190729,1184.2999999999886,1191.200000190729,1.0,0.0,0.0,,Click Response,2_count,5.0,object-49,temp_dist_trial,3.0,s_s_14_1,student_stem,funnel,6.0,unique,paired,s_s_14_1.jpg,Student,,,sub-58
Desktop or Laptop,Windows 10,Chrome 138.0.0.0,2560x1440,2560x1313,Temporal Distance Task,cb_06,51.0,temp_dist_trial,dist_items,qkpkxw,2.0,info,,2.5000001430453267,0.0,2.5000001430453267,2.5000001430453267,0.0,2.5000001430453267,1.0,0.0,0.0,,Slider,Slider,4.0,object-56,temp_dist_trial,3.0,s_s_14_1,student_stem,funnel,6.0,unique,paired,s_s_14_1.jpg,Student,,,sub-58
Desktop or Laptop,Windows 10,Chrome 138.0.0.0,2560x1440,2560x1313,Temporal Distance Task,cb_06,51.0,temp_dist_trial,dist_items,qkpkxw,2.0,continue,,2096.600000047678,2085.1000000000063,2096.600000047678,2096.600000047678,2085.1000000000063,2096.600000047678,1.0,0.0,0.0,,Click To Continue,Next button,7.0,object-60,temp_dist_trial,3.0,s_s_14_1,student_stem,funnel,6.0,unique,paired,s_s_14_1.jpg,Student,,,sub-58
Desktop or Laptop,Windows 10,Chrome 138.0.0.0,2560x1440,2560x1313,Temporal Distance Task,cb_06,51.0,temp_dist_trial,dist_items,qkpkxw,2.0,response,22,717.2999999999884,2085.1000000000063,2096.8000000953616,717.2999999999884,2085.1000000000063,2096.8000000953616,1.0,1379.5000000953733,0.0,,Slider,Slider,4.0,object-56,temp_dist_trial,3.0,s_s_14_1,student_stem,funnel,6.0,unique,paired,s_s_14_1.jpg,Student,,,sub-58
Desktop or Laptop,Windows 10,Chrome 138.0.0.0,2560x1440,2560x1313,Temporal Distance Task,cb_06,52.0,temp_dist_trial,num_items,zn7si1,1.0,response,1_ITEM,1784.7000000953558,1768.0999999999767,1784.7000000953558,1784.7000000953558,1768.0999999999767,1784.7000000953558,1.0,0.0,0.0,,Click Response,1_count,3.0,object-46,temp_dist_trial,4.0,s_sh_07_1,student_shared,ruler,6.0,competing,single,s_sh_07_1.jpg,Student,,,sub-58
Desktop or Laptop,Windows 10,Chrome 138.0.0.0,2560x1440,2560x1313,Temporal Distance Task,cb_06,53.0,temp_dist_trial,num_items,zn7si1,1.0,response,1_ITEM,2198.200000047684,2185.1000000000063,2198.200000047684,2198.200000047684,2185.1000000000063,2198.200000047684,1.0,0.0,0.0,,Click Response,1_count,3.0,object-46,temp_dist_trial,5.0,s_s_11_1,student_stem,scientific scale,6.0,unique,paired,s_s_11_1.jpg,Student,,,sub-58
Desktop or Laptop,Windows 10,Chrome 138.0.0.0,2560x1440,2560x1313,Temporal Distance Task,cb_06,54.0,temp_dist_trial,num_items,zn7si1,1.0,response,2_ITEM,1619.100000095379,1617.9000000000233,1619.100000095379,1619.100000095379,1617.9000000000233,1619.100000095379,1.0,0.0,0.0,,Click Response,2_count,5.0,object-49,temp_dist_trial,6.0,s_sh_09_1,student_shared,paper clips,6.0,competing,paired,s_sh_09_1.jpg,Student,,,sub-58
Desktop or Laptop,Windows 10,Chrome 138.0.0.0,2560x1440,2560x1313,Temporal Distance Task,cb_06,54.0,temp_dist_trial,dist_items,qkpkxw,2.0,info,,2.5000000953732524,0.0,2.5000000953732524,2.5000000953732524,0.0,2.5000000953732524,1.0,0.0,0.0,,Slider,Slider,4.0,object-56,temp_dist_trial,6.0,s_sh_09_1,student_shared,paper clips,6.0,competing,paired,s_sh_09_1.jpg,Student,,,sub-58
Desktop or Laptop,Windows 10,Chrome 138.0.0.0,2560x1440,2560x1313,Temporal Distance Task,cb_06,54.0,temp_dist_trial,dist_items,qkpkxw,2.0,continue,,1788.8000000476895,1784.8000000000175,1788.8000000476895,1788.8000000476895,1784.8000000000175,1788.8000000476895,1.0,0.0,0.0,,Click To Continue,Next button,7.0,object-60,temp_dist_trial,6.0,s_sh_09_1,student_shared,paper clips,6.0,competing,paired,s_sh_09_1.jpg,Student,,,sub-58
Desktop or Laptop,Windows 10,Chrome 138.0.0.0,2560x1440,2560x1313,Temporal Distance Task,cb_06,54.0,temp_dist_trial,dist_items,qkpkxw,2.0,response,63,834.0,1784.8000000000175,1789.1000000000058,834.0,1784.8000000000175,1789.1000000000058,1.0,955.1000000000058,0.0,,Slider,Slider,4.0,object-56,temp_dist_trial,6.0,s_sh_09_1,student_shared,paper clips,6.0,competing,paired,s_sh_09_1.jpg,Student,,,sub-58
Desktop or Laptop,Windows 10,Chrome 138.0.0.0,2560x1440,2560x1313,Temporal Distance Task,cb_06,55.0,temp_dist_trial,num_items,zn7si1,1.0,response,2_ITEM,1088.9000001430395,1084.1999999999823,1088.9000001430395,1088.9000001430395,1084.1999999999823,1088.9000001430395,1.0,0.0,0.0,,Click Response,2_count,5.0,object-49,temp_dist_trial,7.0,s_a_07_1,student_art,yarn,6.0,unique,paired,s_a_07_1.jpg,Student,,,sub-58
Desktop or Laptop,Windows 10,Chrome 138.0.0.0,2560x1440,2560x1313,Temporal Distance Task,cb_06,55.0,temp_dist_trial,dist_items,qkpkxw,2.0,info,,2.8000000953616104,0.0,2.8000000953616104,2.8000000953616104,0.0,2.8000000953616104,1.0,0.0,0.0,,Slider,Slider,4.0,object-56,temp_dist_trial,7.0,s_a_07_1,student_art,yarn,6.0,unique,paired,s_a_07_1.jpg,Student,,,sub-58
Desktop or Laptop,Windows 10,Chrome 138.0.0.0,2560x1440,2560x1313,Temporal Distance Task,cb_06,55.0,temp_dist_trial,dist_items,qkpkxw,2.0,continue,,1861.3999999999944,1851.5,1861.3999999999944,1861.3999999999944,1851.5,1861.3999999999944,1.0,0.0,0.0,,Click To Continue,Next button,7.0,object-60,temp_dist_trial,7.0,s_a_07_1,student_art,yarn,6.0,unique,paired,s_a_07_1.jpg,Student,,,sub-58
Desktop or Laptop,Windows 10,Chrome 138.0.0.0,2560x1440,2560x1313,Temporal Distance Task,cb_06,55.0,temp_dist_trial,dist_items,qkpkxw,2.0,response,34,917.5,1851.5,1861.700000190729,917.5,1851.5,1861.700000190729,1.0,944.200000190729,0.0,,Slider,Slider,4.0,object-56,temp_dist_trial,7.0,s_a_07_1,student_art,yarn,6.0,unique,paired,s_a_07_1.jpg,Student,,,sub-58
Desktop or Laptop,Windows 10,Chrome 138.0.0.0,2560x1440,2560x1313,Temporal Distance Task,cb_06,56.0,temp_dist_trial,num_items,zn7si1,1.0,response,1_ITEM,1613.0000001430453,1601.2999999999884,1613.0000001430453,1613.0000001430453,1601.2999999999884,1613.0000001430453,1.0,0.0,0.0,,Click Response,1_count,3.0,object-46,temp_dist_trial,8.0,s_sh_11_1,student_shared,pencil case,6.0,competing,paired,s_sh_11_1.jpg,Student,,,sub-58
Desktop or Laptop,Windows 10,Chrome 138.0.0.0,2560x1440,2560x1313,Temporal Distance Task,cb_06,57.0,temp_dist_trial,num_items,zn7si1,1.0,response,2_ITEM,2374.6000001907228,2368.599999999977,2374.6000001907228,2374.6000001907228,2368.599999999977,2374.6000001907228,1.0,0.0,0.0,,Click Response,2_count,5.0,object-49,temp_dist_trial,9.0,s_sh_12_1,student_shared,binder,6.0,competing,paired,s_sh_12_1.jpg,Student,,,sub-58
Desktop or Laptop,Windows 10,Chrome 138.0.0.0,2560x1440,2560x1313,Temporal Distance Task,cb_06,57.0,temp_dist_trial,dist_items,qkpkxw,2.0,info,,2.800000190734864,0.0,2.800000190734864,2.800000190734864,0.0,2.800000190734864,1.0,0.0,0.0,,Slider,Slider,4.0,object-56,temp_dist_trial,9.0,s_sh_12_1,student_shared,binder,6.0,competing,paired,s_sh_12_1.jpg,Student,,,sub-58
Desktop or Laptop,Windows 10,Chrome 138.0.0.0,2560x1440,2560x1313,Temporal Distance Task,cb_06,57.0,temp_dist_trial,dist_items,qkpkxw,2.0,continue,,1935.4000000953674,1934.8999999999944,1935.4000000953674,1935.4000000953674,1934.8999999999944,1935.4000000953674,1.0,0.0,0.0,,Click To Continue,Next button,7.0,object-60,temp_dist_trial,9.0,s_sh_12_1,student_shared,binder,6.0,competing,paired,s_sh_12_1.jpg,Student,,,sub-58
Desktop or Laptop,Windows 10,Chrome 138.0.0.0,2560x1440,2560x1313,Temporal Distance Task,cb_06,57.0,temp_dist_trial,dist_items,qkpkxw,2.0,response,72,767.2999999999884,1934.8999999999944,1935.700000047684,767.2999999999884,1934.8999999999944,1935.700000047684,1.0,1168.4000000476954,0.0,,Slider,Slider,4.0,object-56,temp_dist_trial,9.0,s_sh_12_1,student_shared,binder,6.0,competing,paired,s_sh_12_1.jpg,Student,,,sub-58
Desktop or Laptop,Windows 10,Chrome 138.0.0.0,2560x1440,2560x1313,Temporal Distance Task,cb_06,58.0,temp_dist_trial,num_items,zn7si1,1.0,response,2_ITEM,1424.9000001907407,1417.8000000000175,1424.9000001907407,1424.9000001907407,1417.8000000000175,1424.9000001907407,1.0,0.0,0.0,,Click Response,2_count,5.0,object-49,temp_dist_trial,10.0,s_sh_13_1,student_shared,index cards,6.0,competing,paired,s_sh_13_1.jpg,Student,,,sub-58
Desktop or Laptop,Windows 10,Chrome 138.0.0.0,2560x1440,2560x1313,Temporal Distance Task,cb_06,58.0,temp_dist_trial,dist_items,qkpkxw,2.0,info,,2.6000000000058208,0.0,2.6000000000058208,2.6000000000058208,0.0,2.6000000000058208,1.0,0.0,0.0,,Slider,Slider,4.0,object-56,temp_dist_trial,10.0,s_sh_13_1,student_shared,index cards,6.0,competing,paired,s_sh_13_1.jpg,Student,,,sub-58
Desktop or Laptop,Windows 10,Chrome 138.0.0.0,2560x1440,2560x1313,Temporal Distance Task,cb_06,58.0,temp_dist_trial,dist_items,qkpkxw,2.0,continue,,1668.6000000000058,1668.0,1668.6000000000058,1668.6000000000058,1668.0,1668.6000000000058,1.0,0.0,0.0,,Click To Continue,Next button,7.0,object-60,temp_dist_trial,10.0,s_sh_13_1,student_shared,index cards,6.0,competing,paired,s_sh_13_1.jpg,Student,,,sub-58
Desktop or Laptop,Windows 10,Chrome 138.0.0.0,2560x1440,2560x1313,Temporal Distance Task,cb_06,58.0,temp_dist_trial,dist_items,qkpkxw,2.0,response,67,800.7000000000116,1668.0,1668.8000000476895,800.7000000000116,1668.0,1668.8000000476895,1.0,868.1000000476779,0.0,,Slider,Slider,4.0,object-56,temp_dist_trial,10.0,s_sh_13_1,student_shared,index cards,6.0,competing,paired,s_sh_13_1.jpg,Student,,,sub-58
Desktop or Laptop,Windows 10,Chrome 138.0.0.0,2560x1440,2560x1313,Temporal Distance Task,cb_06,59.0,temp_dist_trial,num_items,zn7si1,1.0,response,2_ITEM,2494.800000047689,2485.3999999999937,2494.800000047689,2494.800000047689,2485.3999999999937,2494.800000047689,1.0,0.0,0.0,,Click Response,2_count,5.0,object-49,temp_dist_trial,11.0,s_sh_23_1,student_shared,ballpoint pen,6.0,competing,single,s_sh_23_1.jpg,Student,,,sub-58
Desktop or Laptop,Windows 10,Chrome 138.0.0.0,2560x1440,2560x1313,Temporal Distance Task,cb_06,59.0,temp_dist_trial,dist_items,qkpkxw,2.0,info,,2.4000000953674316,0.0,2.4000000953674316,2.4000000953674316,0.0,2.4000000953674316,1.0,0.0,0.0,,Slider,Slider,4.0,object-56,temp_dist_trial,11.0,s_sh_23_1,student_shared,ballpoint pen,6.0,competing,single,s_sh_23_1.jpg,Student,,,sub-58
Desktop or Laptop,Windows 10,Chrome 138.0.0.0,2560x1440,2560x1313,Temporal Distance Task,cb_06,59.0,temp_dist_trial,dist_items,qkpkxw,2.0,continue,,1611.0,1601.2999999999884,1611.0,1611.0,1601.2999999999884,1611.0,1.0,0.0,0.0,,Click To Continue,Next button,7.0,object-60,temp_dist_trial,11.0,s_sh_23_1,student_shared,ballpoint pen,6.0,competing,single,s_sh_23_1.jpg,Student,,,sub-58
Desktop or Laptop,Windows 10,Chrome 138.0.0.0,2560x1440,2560x1313,Temporal Distance Task,cb_06,59.0,temp_dist_trial,dist_items,qkpkxw,2.0,response,68,750.6000000000058,1601.2999999999884,1611.2000000476835,750.6000000000058,1601.2999999999884,1611.2000000476835,1.0,860.6000000476779,0.0,,Slider,Slider,4.0,object-56,temp_dist_trial,11.0,s_sh_23_1,student_shared,ballpoint pen,6.0,competing,single,s_sh_23_1.jpg,Student,,,sub-58
Desktop or Laptop,Windows 10,Chrome 138.0.0.0,2560x1440,2560x1313,Temporal Distance Task,cb_06,60.0,temp_dist_trial,num_items,zn7si1,1.0,response,2_ITEM,1370.5000001907465,1367.8000000000175,1370.5000001907465,1370.5000001907465,1367.8000000000175,1370.5000001907465,1.0,0.0,0.0,,Click Response,2_count,5.0,object-49,temp_dist_trial,12.0,s_a_09_1,student_art,picture frame,6.0,unique,paired,s_a_09_1.jpg,Student,,,sub-58
Desktop or Laptop,Windows 10,Chrome 138.0.0.0,2560x1440,2560x1313,Temporal Distance Task,cb_06,60.0,temp_dist_trial,dist_items,qkpkxw,2.0,info,,2.500000190746505,0.0,2.500000190746505,2.500000190746505,0.0,2.500000190746505,1.0,0.0,0.0,,Slider,Slider,4.0,object-56,temp_dist_trial,12.0,s_a_09_1,student_art,picture frame,6.0,unique,paired,s_a_09_1.jpg,Student,,,sub-58
Desktop or Laptop,Windows 10,Chrome 138.0.0.0,2560x1440,2560x1313,Temporal Distance Task,cb_06,60.0,temp_dist_trial,dist_items,qkpkxw,2.0,continue,,2029.7000000000119,2018.3000000000175,2029.7000000000119,2029.7000000000119,2018.3000000000175,2029.7000000000119,1.0,0.0,0.0,,Click To Continue,Next button,7.0,object-60,temp_dist_trial,12.0,s_a_09_1,student_art,picture frame,6.0,unique,paired,s_a_09_1.jpg,Student,,,sub-58
Desktop or Laptop,Windows 10,Chrome 138.0.0.0,2560x1440,2560x1313,Temporal Distance Task,cb_06,60.0,temp_dist_trial,dist_items,qkpkxw,2.0,response,29,884.1000000000058,2018.3000000000175,2029.9000000476958,884.1000000000058,2018.3000000000175,2029.9000000476958,1.0,1145.8000000476895,0.0,,Slider,Slider,4.0,object-56,temp_dist_trial,12.0,s_a_09_1,student_art,picture frame,6.0,unique,paired,s_a_09_1.jpg,Student,,,sub-58
Desktop or Laptop,Windows 10,Chrome 138.0.0.0,2560x1440,2560x1313,Temporal Distance Task,cb_06,61.0,temp_dist_trial,num_items,zn7si1,1.0,response,2_ITEM,1128.3000000953614,1117.5,1128.3000000953614,1128.3000000953614,1117.5,1128.3000000953614,1.0,0.0,0.0,,Click Response,2_count,5.0,object-49,temp_dist_trial,13.0,s_s_13_1,student_stem,telescope,6.0,unique,paired,s_s_13_1.jpg,Student,,,sub-58
Desktop or Laptop,Windows 10,Chrome 138.0.0.0,2560x1440,2560x1313,Temporal Distance Task,cb_06,61.0,temp_dist_trial,dist_items,qkpkxw,2.0,info,,2.4000000476953574,0.0,2.4000000476953574,2.4000000476953574,0.0,2.4000000476953574,1.0,0.0,0.0,,Slider,Slider,4.0,object-56,temp_dist_trial,13.0,s_s_13_1,student_stem,telescope,6.0,unique,paired,s_s_13_1.jpg,Student,,,sub-58
Desktop or Laptop,Windows 10,Chrome 138.0.0.0,2560x1440,2560x1313,Temporal Distance Task,cb_06,61.0,temp_dist_trial,dist_items,qkpkxw,2.0,continue,,2298.5000001907465,2285.300000000017,2298.5000001907465,2298.5000001907465,2285.300000000017,2298.5000001907465,1.0,0.0,0.0,,Click To Continue,Next button,7.0,object-60,temp_dist_trial,13.0,s_s_13_1,student_stem,telescope,6.0,unique,paired,s_s_13_1.jpg,Student,,,sub-58
Desktop or Laptop,Windows 10,Chrome 138.0.0.0,2560x1440,2560x1313,Temporal Distance Task,cb_06,61.0,temp_dist_trial,dist_items,qkpkxw,2.0,response,43,583.9000000000233,2285.300000000017,2298.700000000012,583.9000000000233,2285.300000000017,2298.700000000012,1.0,1714.7999999999884,0.0,,Slider,Slider,4.0,object-56,temp_dist_trial,13.0,s_s_13_1,student_stem,telescope,6.0,unique,paired,s_s_13_1.jpg,Student,,,sub-58
Desktop or Laptop,Windows 10,Chrome 138.0.0.0,2560x1440,2560x1313,Temporal Distance Task,cb_06,62.0,temp_dist_trial,num_items,zn7si1,1.0,response,1_ITEM,1984.200000190729,1968.1999999999825,1984.200000190729,1984.200000190729,1968.1999999999825,1984.200000190729,1.0,0.0,0.0,,Click Response,1_count,3.0,object-46,temp_dist_trial,14.0,s_sh_19_1,student_shared,portable plastic drawer,6.0,competing,single,s_sh_19_1.jpg,Student,,,sub-58
Desktop or Laptop,Windows 10,Chrome 138.0.0.0,2560x1440,2560x1313,Temporal Distance Task,cb_06,63.0,temp_dist_trial,num_items,zn7si1,1.0,response,1_ITEM,2524.700000190729,2518.6000000000063,2524.700000190729,2524.700000190729,2518.6000000000063,2524.700000190729,1.0,0.0,0.0,,Click Response,1_count,3.0,object-46,temp_dist_trial,15.0,s_a_11_1,student_art,clapperboard,6.0,unique,single,s_a_11_1.jpg,Student,,,sub-58
Desktop or Laptop,Windows 10,Chrome 138.0.0.0,2560x1440,2560x1313,Temporal Distance Task,cb_06,64.0,temp_dist_trial,num_items,zn7si1,1.0,response,1_ITEM,1742.8000001907349,1734.7000000000116,1742.8000001907349,1742.8000001907349,1734.7000000000116,1742.8000001907349,1.0,0.0,0.0,,Click Response,1_count,3.0,object-46,temp_dist_trial,16.0,s_s_18_1,student_stem,brain model,6.0,unique,single,s_s_18_1.jpg,Student,,,sub-58
Desktop or Laptop,Windows 10,Chrome 138.0.0.0,2560x1440,2560x1313,Temporal Distance Task,cb_06,65.0,temp_dist_trial,num_items,zn7si1,1.0,response,1_ITEM,1136.0000000953733,1134.2000000000114,1136.0000000953733,1136.0000000953733,1134.2000000000114,1136.0000000953733,1.0,0.0,0.0,,Click Response,1_count,3.0,object-46,temp_dist_trial,17.0,s_a_10_1,student_art,tripod,6.0,unique,single,s_a_10_1.jpg,Student,,,sub-58
Desktop or Laptop,Windows 10,Chrome 138.0.0.0,2560x1440,2560x1313,Temporal Distance Task,cb_06,66.0,temp_dist_trial,num_items,zn7si1,1.0,response,2_ITEM,1198.7000000000114,1184.4000000000233,1198.7000000000114,1198.7000000000114,1184.4000000000233,1198.7000000000114,1.0,0.0,0.0,,Click Response,2_count,5.0,object-49,temp_dist_trial,18.0,s_a_13_1,student_art,violin,6.0,unique,paired,s_a_13_1.jpg,Student,,,sub-58
Desktop or Laptop,Windows 10,Chrome 138.0.0.0,2560x1440,2560x1313,Temporal Distance Task,cb_06,66.0,temp_dist_trial,dist_items,qkpkxw,2.0,info,,2.7000001430569687,0.0,2.7000001430569687,2.7000001430569687,0.0,2.7000001430569687,1.0,0.0,0.0,,Slider,Slider,4.0,object-56,temp_dist_trial,18.0,s_a_13_1,student_art,violin,6.0,unique,paired,s_a_13_1.jpg,Student,,,sub-58
Desktop or Laptop,Windows 10,Chrome 138.0.0.0,2560x1440,2560x1313,Temporal Distance Task,cb_06,66.0,temp_dist_trial,dist_items,qkpkxw,2.0,continue,,2038.9000001907407,2035.000000000029,2038.9000001907407,2038.9000001907407,2035.000000000029,2038.9000001907407,1.0,0.0,0.0,,Click To Continue,Next button,7.0,object-60,temp_dist_trial,18.0,s_a_13_1,student_art,violin,6.0,unique,paired,s_a_13_1.jpg,Student,,,sub-58
Desktop or Laptop,Windows 10,Chrome 138.0.0.0,2560x1440,2560x1313,Temporal Distance Task,cb_06,66.0,temp_dist_trial,dist_items,qkpkxw,2.0,response,34,683.8999999999943,2035.000000000029,2039.200000143057,683.8999999999943,2035.000000000029,2039.200000143057,1.0,1355.3000001430628,0.0,,Slider,Slider,4.0,object-56,temp_dist_trial,18.0,s_a_13_1,student_art,violin,6.0,unique,paired,s_a_13_1.jpg,Student,,,sub-58
Desktop or Laptop,Windows 10,Chrome 138.0.0.0,2560x1440,2560x1313,Temporal Distance Task,cb_06,67.0,temp_dist_trial,num_items,zn7si1,1.0,response,2_ITEM,1420.8000000476604,1417.7999999999884,1420.8000000476604,1420.8000000476604,1417.7999999999884,1420.8000000476604,1.0,0.0,0.0,,Click Response,2_count,5.0,object-49,temp_dist_trial,19.0,s_a_15_1,student_art,drum kit,6.0,unique,paired,s_a_15_1.jpg,Student,,,sub-58
Desktop or Laptop,Windows 10,Chrome 138.0.0.0,2560x1440,2560x1313,Temporal Distance Task,cb_06,67.0,temp_dist_trial,dist_items,qkpkxw,2.0,info,,2.500000095344149,0.0,2.500000095344149,2.500000095344149,0.0,2.500000095344149,1.0,0.0,0.0,,Slider,Slider,4.0,object-56,temp_dist_trial,19.0,s_a_15_1,student_art,drum kit,6.0,unique,paired,s_a_15_1.jpg,Student,,,sub-58
Desktop or Laptop,Windows 10,Chrome 138.0.0.0,2560x1440,2560x1313,Temporal Distance Task,cb_06,67.0,temp_dist_trial,dist_items,qkpkxw,2.0,continue,,1951.499999999941,1934.8999999999646,1951.499999999941,1951.499999999941,1934.8999999999646,1951.499999999941,1.0,0.0,0.0,,Click To Continue,Next button,7.0,object-60,temp_dist_trial,19.0,s_a_15_1,student_art,drum kit,6.0,unique,paired,s_a_15_1.jpg,Student,,,sub-58
Desktop or Laptop,Windows 10,Chrome 138.0.0.0,2560x1440,2560x1313,Temporal Distance Task,cb_06,67.0,temp_dist_trial,dist_items,qkpkxw,2.0,response,72,483.69999999995343,1934.8999999999646,1951.499999999941,483.69999999995343,1934.8999999999646,1951.499999999941,1.0,1467.7999999999884,0.0,,Slider,Slider,4.0,object-56,temp_dist_trial,19.0,s_a_15_1,student_art,drum kit,6.0,unique,paired,s_a_15_1.jpg,Student,,,sub-58
Desktop or Laptop,Windows 10,Chrome 138.0.0.0,2560x1440,2560x1313,Temporal Distance Task,cb_06,68.0,temp_dist_trial,num_items,zn7si1,1.0,response,2_ITEM,1182.8000001430628,1167.600000000035,1182.8000001430628,1182.8000001430628,1167.600000000035,1182.8000001430628,1.0,0.0,0.0,,Click Response,2_count,5.0,object-49,temp_dist_trial,20.0,s_sh_22_1,student_shared,hole puncher,6.0,competing,paired,s_sh_22_1.jpg,Student,,,sub-58
Desktop or Laptop,Windows 10,Chrome 138.0.0.0,2560x1440,2560x1313,Temporal Distance Task,cb_06,68.0,temp_dist_trial,dist_items,qkpkxw,2.0,info,,2.400000143039506,0.0,2.400000143039506,2.400000143039506,0.0,2.400000143039506,1.0,0.0,0.0,,Slider,Slider,4.0,object-56,temp_dist_trial,20.0,s_sh_22_1,student_shared,hole puncher,6.0,competing,paired,s_sh_22_1.jpg,Student,,,sub-58
Desktop or Laptop,Windows 10,Chrome 138.0.0.0,2560x1440,2560x1313,Temporal Distance Task,cb_06,68.0,temp_dist_trial,dist_items,qkpkxw,2.0,continue,,1741.000000047672,1734.7000000000116,1741.000000047672,1741.000000047672,1734.7000000000116,1741.000000047672,1.0,0.0,0.0,,Click To Continue,Next button,7.0,object-60,temp_dist_trial,20.0,s_sh_22_1,student_shared,hole puncher,6.0,competing,paired,s_sh_22_1.jpg,Student,,,sub-58
Desktop or Laptop,Windows 10,Chrome 138.0.0.0,2560x1440,2560x1313,Temporal Distance Task,cb_06,68.0,temp_dist_trial,dist_items,qkpkxw,2.0,response,26,667.2000000000116,1734.7000000000116,1741.2000000953558,667.2000000000116,1734.7000000000116,1741.2000000953558,1.0,1074.000000095344,0.0,,Slider,Slider,4.0,object-56,temp_dist_trial,20.0,s_sh_22_1,student_shared,hole puncher,6.0,competing,paired,s_sh_22_1.jpg,Student,,,sub-58
Desktop or Laptop,Windows 10,Chrome 138.0.0.0,2560x1440,2560x1313,Temporal Distance Task,cb_06,69.0,temp_dist_trial,num_items,zn7si1,1.0,response,1_ITEM,1778.500000095344,1768.0,1778.500000095344,1778.500000095344,1768.0,1778.500000095344,1.0,0.0,0.0,,Click Response,1_count,3.0,object-46,temp_dist_trial,21.0,s_s_04_1,student_stem,bunsen burner,6.0,unique,single,s_s_04_1.jpg,Student,,,sub-58
Desktop or Laptop,Windows 10,Chrome 138.0.0.0,2560x1440,2560x1313,Temporal Distance Task,cb_06,70.0,temp_dist_trial,num_items,zn7si1,1.0,response,2_ITEM,1380.100000047707,1367.8000000000466,1380.100000047707,1380.100000047707,1367.8000000000466,1380.100000047707,1.0,0.0,0.0,,Click Response,2_count,5.0,object-49,temp_dist_trial,22.0,s_sh_01_1,student_shared,notebook,6.0,competing,paired,s_sh_01_1.jpg,Student,,,sub-58
Desktop or Laptop,Windows 10,Chrome 138.0.0.0,2560x1440,2560x1313,Temporal Distance Task,cb_06,70.0,temp_dist_trial,dist_items,qkpkxw,2.0,info,,2.600000047706999,0.0,2.600000047706999,2.600000047706999,0.0,2.600000047706999,1.0,0.0,0.0,,Slider,Slider,4.0,object-56,temp_dist_trial,22.0,s_sh_01_1,student_shared,notebook,6.0,competing,paired,s_sh_01_1.jpg,Student,,,sub-58
Desktop or Laptop,Windows 10,Chrome 138.0.0.0,2560x1440,2560x1313,Temporal Distance Task,cb_06,70.0,temp_dist_trial,dist_items,qkpkxw,2.0,continue,,2376.100000047707,2368.600000000035,2376.100000047707,2376.100000047707,2368.600000000035,2376.100000047707,1.0,0.0,0.0,,Click To Continue,Next button,7.0,object-60,temp_dist_trial,22.0,s_sh_01_1,student_shared,notebook,6.0,competing,paired,s_sh_01_1.jpg,Student,,,sub-58
Desktop or Laptop,Windows 10,Chrome 138.0.0.0,2560x1440,2560x1313,Temporal Distance Task,cb_06,70.0,temp_dist_trial,dist_items,qkpkxw,2.0,response,28,1234.4000000000233,2368.600000000035,2376.4000000000233,1234.4000000000233,2368.600000000035,2376.4000000000233,1.0,1142.0,0.0,,Slider,Slider,4.0,object-56,temp_dist_trial,22.0,s_sh_01_1,student_shared,notebook,6.0,competing,paired,s_sh_01_1.jpg,Student,,,sub-58
Desktop or Laptop,Windows 10,Chrome 138.0.0.0,2560x1440,2560x1313,Temporal Distance Task,cb_06,71.0,temp_dist_trial,num_items,zn7si1,1.0,response,1_ITEM,1736.500000047672,1734.7999999999884,1736.500000047672,1736.500000047672,1734.7999999999884,1736.500000047672,1.0,0.0,0.0,,Click Response,1_count,3.0,object-46,temp_dist_trial,23.0,s_sh_21_1,student_shared,file holder,6.0,competing,single,s_sh_21_1.jpg,Student,,,sub-58
Desktop or Laptop,Windows 10,Chrome 138.0.0.0,2560x1440,2560x1313,Temporal Distance Task,cb_06,72.0,temp_dist_trial,num_items,zn7si1,1.0,response,1_ITEM,1292.4000001430395,1284.399999999965,1292.4000001430395,1292.4000001430395,1284.399999999965,1292.4000001430395,1.0,0.0,0.0,,Click Response,1_count,3.0,object-46,temp_dist_trial,24.0,s_sh_02_1,student_shared,eraser,6.0,competing,single,s_sh_02_1.jpg,Student,,,sub-58
Desktop or Laptop,Windows 10,Chrome 138.0.0.0,2560x1440,2560x1313,Temporal Distance Task,cb_06,73.0,temp_dist_trial,num_items,zn7si1,1.0,response,2_ITEM,1363.8000001430628,1351.0,1363.8000001430628,1363.8000001430628,1351.0,1363.8000001430628,1.0,0.0,0.0,,Click Response,2_count,5.0,object-49,temp_dist_trial,25.0,s_s_20_1,student_stem,dna model,6.0,unique,paired,s_s_20_1.jpg,Student,,,sub-58
Desktop or Laptop,Windows 10,Chrome 138.0.0.0,2560x1440,2560x1313,Temporal Distance Task,cb_06,73.0,temp_dist_trial,dist_items,qkpkxw,2.0,info,,2.400000000023283,0.0,2.400000000023283,2.400000000023283,0.0,2.400000000023283,1.0,0.0,0.0,,Slider,Slider,4.0,object-56,temp_dist_trial,25.0,s_s_20_1,student_stem,dna model,6.0,unique,paired,s_s_20_1.jpg,Student,,,sub-58
Desktop or Laptop,Windows 10,Chrome 138.0.0.0,2560x1440,2560x1313,Temporal Distance Task,cb_06,73.0,temp_dist_trial,dist_items,qkpkxw,2.0,continue,,1897.4000000000235,1884.8000000000463,1897.4000000000235,1897.4000000000235,1884.8000000000463,1897.4000000000235,1.0,0.0,0.0,,Click To Continue,Next button,7.0,object-60,temp_dist_trial,25.0,s_s_20_1,student_stem,dna model,6.0,unique,paired,s_s_20_1.jpg,Student,,,sub-58
Desktop or Laptop,Windows 10,Chrome 138.0.0.0,2560x1440,2560x1313,Temporal Distance Task,cb_06,73.0,temp_dist_trial,dist_items,qkpkxw,2.0,response,62,767.2000000000116,1884.8000000000463,1897.600000047707,767.2000000000116,1884.8000000000463,1897.600000047707,1.0,1130.4000000476954,0.0,,Slider,Slider,4.0,object-56,temp_dist_trial,25.0,s_s_20_1,student_stem,dna model,6.0,unique,paired,s_s_20_1.jpg,Student,,,sub-58
Desktop or Laptop,Windows 10,Chrome 138.0.0.0,2560x1440,2560x1313,Temporal Distance Task,cb_06,74.0,temp_dist_trial,num_items,zn7si1,1.0,response,2_ITEM,1603.5999999999767,1601.3999999999646,1603.5999999999767,1603.5999999999767,1601.3999999999646,1603.5999999999767,1.0,0.0,0.0,,Click Response,2_count,5.0,object-49,temp_dist_trial,26.0,s_sh_17_1,student_shared,wireless mouse,6.0,competing,paired,s_sh_17_1.jpg,Student,,,sub-58
Desktop or Laptop,Windows 10,Chrome 138.0.0.0,2560x1440,2560x1313,Temporal Distance Task,cb_06,74.0,temp_dist_trial,dist_items,qkpkxw,2.0,info,,2.4000000953674316,0.0,2.4000000953674316,2.4000000953674316,0.0,2.4000000953674316,1.0,0.0,0.0,,Slider,Slider,4.0,object-56,temp_dist_trial,26.0,s_sh_17_1,student_shared,wireless mouse,6.0,competing,paired,s_sh_17_1.jpg,Student,,,sub-58
Desktop or Laptop,Windows 10,Chrome 138.0.0.0,2560x1440,2560x1313,Temporal Distance Task,cb_06,74.0,temp_dist_trial,dist_items,qkpkxw,2.0,continue,,2205.0,2201.700000000012,2205.0,2205.0,2201.700000000012,2205.0,1.0,0.0,0.0,,Click To Continue,Next button,7.0,object-60,temp_dist_trial,26.0,s_sh_17_1,student_shared,wireless mouse,6.0,competing,paired,s_sh_17_1.jpg,Student,,,sub-58
Desktop or Laptop,Windows 10,Chrome 138.0.0.0,2560x1440,2560x1313,Temporal Distance Task,cb_06,74.0,temp_dist_trial,dist_items,qkpkxw,2.0,response,69,900.7000000000116,2201.700000000012,2205.300000190735,900.7000000000116,2201.700000000012,2205.300000190735,1.0,1304.6000001907232,0.0,,Slider,Slider,4.0,object-56,temp_dist_trial,26.0,s_sh_17_1,student_shared,wireless mouse,6.0,competing,paired,s_sh_17_1.jpg,Student,,,sub-58
Desktop or Laptop,Windows 10,Chrome 138.0.0.0,2560x1440,2560x1313,Temporal Distance Task,cb_06,75.0,temp_dist_trial,num_items,zn7si1,1.0,response,2_ITEM,1832.2000000953562,1818.2000000000119,1832.2000000953562,1832.2000000953562,1818.2000000000119,1832.2000000953562,1.0,0.0,0.0,,Click Response,2_count,5.0,object-49,temp_dist_trial,27.0,s_sh_10_1,student_shared,scissors,6.0,competing,paired,s_sh_10_1.jpg,Student,,,sub-58
Desktop or Laptop,Windows 10,Chrome 138.0.0.0,2560x1440,2560x1313,Temporal Distance Task,cb_06,75.0,temp_dist_trial,dist_items,qkpkxw,2.0,info,,2.600000047706999,0.0,2.600000047706999,2.600000047706999,0.0,2.600000047706999,1.0,0.0,0.0,,Slider,Slider,4.0,object-56,temp_dist_trial,27.0,s_sh_10_1,student_shared,scissors,6.0,competing,paired,s_sh_10_1.jpg,Student,,,sub-58
Desktop or Laptop,Windows 10,Chrome 138.0.0.0,2560x1440,2560x1313,Temporal Distance Task,cb_06,75.0,temp_dist_trial,dist_items,qkpkxw,2.0,continue,,1837.7000001907581,1834.8000000000463,1837.7000001907581,1837.7000001907581,1834.8000000000463,1837.7000001907581,1.0,0.0,0.0,,Click To Continue,Next button,7.0,object-60,temp_dist_trial,27.0,s_sh_10_1,student_shared,scissors,6.0,competing,paired,s_sh_10_1.jpg,Student,,,sub-58
Desktop or Laptop,Windows 10,Chrome 138.0.0.0,2560x1440,2560x1313,Temporal Distance Task,cb_06,75.0,temp_dist_trial,dist_items,qkpkxw,2.0,response,45,1067.600000000035,1834.8000000000463,1837.9000000000235,1067.600000000035,1834.8000000000463,1837.9000000000235,1.0,770.2999999999884,0.0,,Slider,Slider,4.0,object-56,temp_dist_trial,27.0,s_sh_10_1,student_shared,scissors,6.0,competing,paired,s_sh_10_1.jpg,Student,,,sub-58
Desktop or Laptop,Windows 10,Chrome 138.0.0.0,2560x1440,2560x1313,Temporal Distance Task,cb_06,76.0,temp_dist_trial,num_items,zn7si1,1.0,response,2_ITEM,1248.0999999999767,1234.399999999965,1248.0999999999767,1248.0999999999767,1234.399999999965,1248.0999999999767,1.0,0.0,0.0,,Click Response,2_count,5.0,object-49,temp_dist_trial,28.0,s_a_08_1,student_art,sewing machine,6.0,unique,paired,s_a_08_1.jpg,Student,,,sub-58
Desktop or Laptop,Windows 10,Chrome 138.0.0.0,2560x1440,2560x1313,Temporal Distance Task,cb_06,76.0,temp_dist_trial,dist_items,qkpkxw,2.0,info,,2.700000047683716,0.0,2.700000047683716,2.700000047683716,0.0,2.700000047683716,1.0,0.0,0.0,,Slider,Slider,4.0,object-56,temp_dist_trial,28.0,s_a_08_1,student_art,sewing machine,6.0,unique,paired,s_a_08_1.jpg,Student,,,sub-58
Desktop or Laptop,Windows 10,Chrome 138.0.0.0,2560x1440,2560x1313,Temporal Distance Task,cb_06,76.0,temp_dist_trial,dist_items,qkpkxw,2.0,continue,,1585.5,1584.5999999999767,1585.5,1585.5,1584.5999999999767,1585.5,1.0,0.0,0.0,,Click To Continue,Next button,7.0,object-60,temp_dist_trial,28.0,s_a_08_1,student_art,sewing machine,6.0,unique,paired,s_a_08_1.jpg,Student,,,sub-58
Desktop or Laptop,Windows 10,Chrome 138.0.0.0,2560x1440,2560x1313,Temporal Distance Task,cb_06,76.0,temp_dist_trial,dist_items,qkpkxw,2.0,response,37,834.0,1584.5999999999767,1585.7000000476835,834.0,1584.5999999999767,1585.7000000476835,1.0,751.7000000476837,0.0,,Slider,Slider,4.0,object-56,temp_dist_trial,28.0,s_a_08_1,student_art,sewing machine,6.0,unique,paired,s_a_08_1.jpg,Student,,,sub-58
Desktop or Laptop,Windows 10,Chrome 138.0.0.0,2560x1440,2560x1313,Temporal Distance Task,cb_06,77.0,temp_dist_trial,num_items,zn7si1,1.0,response,2_ITEM,1330.9000000000233,1317.7000000000114,1330.9000000000233,1330.9000000000233,1317.7000000000114,1330.9000000000233,1.0,0.0,0.0,,Click Response,2_count,5.0,object-49,temp_dist_trial,29.0,s_sh_15_1,student_shared,usb drive,6.0,competing,paired,s_sh_15_1.jpg,Student,,,sub-58
Desktop or Laptop,Windows 10,Chrome 138.0.0.0,2560x1440,2560x1313,Temporal Distance Task,cb_06,77.0,temp_dist_trial,dist_items,qkpkxw,2.0,info,,2.4000000953674316,0.0,2.4000000953674316,2.4000000953674316,0.0,2.4000000953674316,1.0,0.0,0.0,,Slider,Slider,4.0,object-56,temp_dist_trial,29.0,s_sh_15_1,student_shared,usb drive,6.0,competing,paired,s_sh_15_1.jpg,Student,,,sub-58
Desktop or Laptop,Windows 10,Chrome 138.0.0.0,2560x1440,2560x1313,Temporal Distance Task,cb_06,77.0,temp_dist_trial,dist_items,qkpkxw,2.0,continue,,1972.9000000953674,1968.2999999999884,1972.9000000953674,1972.9000000953674,1968.2999999999884,1972.9000000953674,1.0,0.0,0.0,,Click To Continue,Next button,7.0,object-60,temp_dist_trial,29.0,s_sh_15_1,student_shared,usb drive,6.0,competing,paired,s_sh_15_1.jpg,Student,,,sub-58
Desktop or Laptop,Windows 10,Chrome 138.0.0.0,2560x1440,2560x1313,Temporal Distance Task,cb_06,77.0,temp_dist_trial,dist_items,qkpkxw,2.0,response,65,850.7000000000116,1968.2999999999884,1973.200000047684,850.7000000000116,1968.2999999999884,1973.200000047684,1.0,1122.500000047672,0.0,,Slider,Slider,4.0,object-56,temp_dist_trial,29.0,s_sh_15_1,student_shared,usb drive,6.0,competing,paired,s_sh_15_1.jpg,Student,,,sub-58
Desktop or Laptop,Windows 10,Chrome 138.0.0.0,2560x1440,2560x1313,Temporal Distance Task,cb_06,78.0,temp_dist_trial,num_items,zn7si1,1.0,response,1_ITEM,1478.600000095379,1467.7999999999884,1478.600000095379,1478.600000095379,1467.7999999999884,1478.600000095379,1.0,0.0,0.0,,Click Response,1_count,3.0,object-46,temp_dist_trial,30.0,s_a_06_1,student_art,pastels,6.0,unique,paired,s_a_06_1.jpg,Student,,,sub-58
Desktop or Laptop,Windows 10,Chrome 138.0.0.0,2560x1440,2560x1313,Temporal Distance Task,cb_06,79.0,temp_dist_trial,num_items,zn7si1,1.0,response,1_ITEM,1102.7000000000116,1101.0,1102.7000000000116,1102.7000000000116,1101.0,1102.7000000000116,1.0,0.0,0.0,,Click Response,1_count,3.0,object-46,temp_dist_trial,31.0,s_a_20_1,student_art,pin cushion,6.0,unique,single,s_a_20_1.jpg,Student,,,sub-58
Desktop or Laptop,Windows 10,Chrome 138.0.0.0,2560x1440,2560x1313,Temporal Distance Task,cb_06,80.0,temp_dist_trial,num_items,zn7si1,1.0,response,2_ITEM,1182.3000000476604,1167.5999999999767,1182.3000000476604,1182.3000000476604,1167.5999999999767,1182.3000000476604,1.0,0.0,0.0,,Click Response,2_count,5.0,object-49,temp_dist_trial,32.0,s_sh_18_1,student_shared,wall calendar,6.0,competing,paired,s_sh_18_1.jpg,Student,,,sub-58
Desktop or Laptop,Windows 10,Chrome 138.0.0.0,2560x1440,2560x1313,Temporal Distance Task,cb_06,80.0,temp_dist_trial,dist_items,qkpkxw,2.0,info,,2.500000190746505,0.0,2.500000190746505,2.500000190746505,0.0,2.500000190746505,1.0,0.0,0.0,,Slider,Slider,4.0,object-56,temp_dist_trial,32.0,s_sh_18_1,student_shared,wall calendar,6.0,competing,paired,s_sh_18_1.jpg,Student,,,sub-58
Desktop or Laptop,Windows 10,Chrome 138.0.0.0,2560x1440,2560x1313,Temporal Distance Task,cb_06,80.0,temp_dist_trial,dist_items,qkpkxw,2.0,continue,,1595.5000001907465,1584.6000000000354,1595.5000001907465,1595.5000001907465,1584.6000000000354,1595.5000001907465,1.0,0.0,0.0,,Click To Continue,Next button,7.0,object-60,temp_dist_trial,32.0,s_sh_18_1,student_shared,wall calendar,6.0,competing,paired,s_sh_18_1.jpg,Student,,,sub-58
Desktop or Laptop,Windows 10,Chrome 138.0.0.0,2560x1440,2560x1313,Temporal Distance Task,cb_06,80.0,temp_dist_trial,dist_items,qkpkxw,2.0,response,37,517.1000000000348,1584.6000000000354,1595.7000000000116,517.1000000000348,1584.6000000000354,1595.7000000000116,1.0,1078.5999999999767,0.0,,Slider,Slider,4.0,object-56,temp_dist_trial,32.0,s_sh_18_1,student_shared,wall calendar,6.0,competing,paired,s_sh_18_1.jpg,Student,,,sub-58
Desktop or Laptop,Windows 10,Chrome 138.0.0.0,2560x1440,2560x1313,Temporal Distance Task,cb_06,81.0,temp_dist_trial,num_items,zn7si1,1.0,response,2_ITEM,1394.000000095344,1384.5,1394.000000095344,1394.000000095344,1384.5,1394.000000095344,1.0,0.0,0.0,,Click Response,2_count,5.0,object-49,temp_dist_trial,33.0,s_sh_04_1,student_shared,laptop stand,6.0,competing,paired,s_sh_04_1.jpg,Student,,,sub-58
Desktop or Laptop,Windows 10,Chrome 138.0.0.0,2560x1440,2560x1313,Temporal Distance Task,cb_06,81.0,temp_dist_trial,dist_items,qkpkxw,2.0,info,,2.400000000023283,0.0,2.400000000023283,2.400000000023283,0.0,2.400000000023283,1.0,0.0,0.0,,Slider,Slider,4.0,object-56,temp_dist_trial,33.0,s_sh_04_1,student_shared,laptop stand,6.0,competing,paired,s_sh_04_1.jpg,Student,,,sub-58
Desktop or Laptop,Windows 10,Chrome 138.0.0.0,2560x1440,2560x1313,Temporal Distance Task,cb_06,81.0,temp_dist_trial,dist_items,qkpkxw,2.0,continue,,1706.3000000953907,1701.3000000000463,1706.3000000953907,1706.3000000953907,1701.3000000000463,1706.3000000953907,1.0,0.0,0.0,,Click To Continue,Next button,7.0,object-60,temp_dist_trial,33.0,s_sh_04_1,student_shared,laptop stand,6.0,competing,paired,s_sh_04_1.jpg,Student,,,sub-58
Desktop or Laptop,Windows 10,Chrome 138.0.0.0,2560x1440,2560x1313,Temporal Distance Task,cb_06,81.0,temp_dist_trial,dist_items,qkpkxw,2.0,response,59,733.9000000000232,1701.3000000000463,1706.600000047707,733.9000000000232,1701.3000000000463,1706.600000047707,1.0,972.7000000476836,0.0,,Slider,Slider,4.0,object-56,temp_dist_trial,33.0,s_sh_04_1,student_shared,laptop stand,6.0,competing,paired,s_sh_04_1.jpg,Student,,,sub-58
Desktop or Laptop,Windows 10,Chrome 138.0.0.0,2560x1440,2560x1313,Temporal Distance Task,cb_06,82.0,temp_dist_trial,num_items,zn7si1,1.0,response,2_ITEM,1702.0999999999767,1701.5,1702.0999999999767,1702.0999999999767,1701.5,1702.0999999999767,1.0,0.0,0.0,,Click Response,2_count,5.0,object-49,temp_dist_trial,34.0,s_s_06_1,student_stem,calculator,6.0,unique,paired,s_s_06_1.jpg,Student,,,sub-58
Desktop or Laptop,Windows 10,Chrome 138.0.0.0,2560x1440,2560x1313,Temporal Distance Task,cb_06,82.0,temp_dist_trial,dist_items,qkpkxw,2.0,info,,2.6000001430511475,0.0,2.6000001430511475,2.6000001430511475,0.0,2.6000001430511475,1.0,0.0,0.0,,Slider,Slider,4.0,object-56,temp_dist_trial,34.0,s_s_06_1,student_stem,calculator,6.0,unique,paired,s_s_06_1.jpg,Student,,,sub-58
Desktop or Laptop,Windows 10,Chrome 138.0.0.0,2560x1440,2560x1313,Temporal Distance Task,cb_06,82.0,temp_dist_trial,dist_items,qkpkxw,2.0,continue,,1697.3000001907349,1684.7000000000116,1697.3000001907349,1697.3000001907349,1684.7000000000116,1697.3000001907349,1.0,0.0,0.0,,Click To Continue,Next button,7.0,object-60,temp_dist_trial,34.0,s_s_06_1,student_stem,calculator,6.0,unique,paired,s_s_06_1.jpg,Student,,,sub-58
Desktop or Laptop,Windows 10,Chrome 138.0.0.0,2560x1440,2560x1313,Temporal Distance Task,cb_06,82.0,temp_dist_trial,dist_items,qkpkxw,2.0,response,68,767.2999999999884,1684.7000000000116,1699.7000000476835,767.2999999999884,1684.7000000000116,1699.7000000476835,1.0,932.4000000476954,0.0,,Slider,Slider,4.0,object-56,temp_dist_trial,34.0,s_s_06_1,student_stem,calculator,6.0,unique,paired,s_s_06_1.jpg,Student,,,sub-58
Desktop or Laptop,Windows 10,Chrome 138.0.0.0,2560x1440,2560x1313,Temporal Distance Task,cb_06,83.0,temp_dist_trial,num_items,zn7si1,1.0,response,2_ITEM,1756.500000047672,1751.3999999999646,1756.500000047672,1756.500000047672,1751.3999999999646,1756.500000047672,1.0,0.0,0.0,,Click Response,2_count,5.0,object-49,temp_dist_trial,35.0,s_a_01_1,student_art,paintbrush,6.0,unique,paired,s_a_01_1.jpg,Student,,,sub-58
Desktop or Laptop,Windows 10,Chrome 138.0.0.0,2560x1440,2560x1313,Temporal Distance Task,cb_06,83.0,temp_dist_trial,dist_items,qkpkxw,2.0,info,,2.800000143062789,0.0,2.800000143062789,2.800000143062789,0.0,2.800000143062789,1.0,0.0,0.0,,Slider,Slider,4.0,object-56,temp_dist_trial,35.0,s_a_01_1,student_art,paintbrush,6.0,unique,paired,s_a_01_1.jpg,Student,,,sub-58
Desktop or Laptop,Windows 10,Chrome 138.0.0.0,2560x1440,2560x1313,Temporal Distance Task,cb_06,83.0,temp_dist_trial,dist_items,qkpkxw,2.0,continue,,1794.100000095379,1784.7999999999884,1794.100000095379,1794.100000095379,1784.7999999999884,1794.100000095379,1.0,0.0,0.0,,Click To Continue,Next button,7.0,object-60,temp_dist_trial,35.0,s_a_01_1,student_art,paintbrush,6.0,unique,paired,s_a_01_1.jpg,Student,,,sub-58
Desktop or Laptop,Windows 10,Chrome 138.0.0.0,2560x1440,2560x1313,Temporal Distance Task,cb_06,83.0,temp_dist_trial,dist_items,qkpkxw,2.0,response,32,633.9000000000233,1784.7999999999884,1794.3000001430628,633.9000000000233,1784.7999999999884,1794.3000001430628,1.0,1160.4000001430395,0.0,,Slider,Slider,4.0,object-56,temp_dist_trial,35.0,s_a_01_1,student_art,paintbrush,6.0,unique,paired,s_a_01_1.jpg,Student,,,sub-58
Desktop or Laptop,Windows 10,Chrome 138.0.0.0,2560x1440,2560x1313,Temporal Distance Task,cb_06,84.0,temp_dist_trial,num_items,zn7si1,1.0,response,2_ITEM,1173.100000047707,1167.7000000000114,1173.100000047707,1173.100000047707,1167.7000000000114,1173.100000047707,1.0,0.0,0.0,,Click Response,2_count,5.0,object-49,temp_dist_trial,36.0,s_s_03_1,student_stem,petri dish,6.0,unique,paired,s_s_03_1.jpg,Student,,,sub-58
Desktop or Laptop,Windows 10,Chrome 138.0.0.0,2560x1440,2560x1313,Temporal Distance Task,cb_06,84.0,temp_dist_trial,dist_items,qkpkxw,2.0,info,,2.500000095344149,0.0,2.500000095344149,2.500000095344149,0.0,2.500000095344149,1.0,0.0,0.0,,Slider,Slider,4.0,object-56,temp_dist_trial,36.0,s_s_03_1,student_stem,petri dish,6.0,unique,paired,s_s_03_1.jpg,Student,,,sub-58
Desktop or Laptop,Windows 10,Chrome 138.0.0.0,2560x1440,2560x1313,Temporal Distance Task,cb_06,84.0,temp_dist_trial,dist_items,qkpkxw,2.0,continue,,1511.500000095344,1501.2999999999884,1511.500000095344,1511.500000095344,1501.2999999999884,1511.500000095344,1.0,0.0,0.0,,Click To Continue,Next button,7.0,object-60,temp_dist_trial,36.0,s_s_03_1,student_stem,petri dish,6.0,unique,paired,s_s_03_1.jpg,Student,,,sub-58
Desktop or Laptop,Windows 10,Chrome 138.0.0.0,2560x1440,2560x1313,Temporal Distance Task,cb_06,84.0,temp_dist_trial,dist_items,qkpkxw,2.0,response,28,617.2999999999884,1501.2999999999884,1511.7000001430279,617.2999999999884,1501.2999999999884,1511.7000001430279,1.0,894.4000001430395,0.0,,Slider,Slider,4.0,object-56,temp_dist_trial,36.0,s_s_03_1,student_stem,petri dish,6.0,unique,paired,s_s_03_1.jpg,Student,,,sub-58
Desktop or Laptop,Windows 10,Chrome 138.0.0.0,2560x1440,2560x1313,Temporal Distance Task,cb_06,85.0,temp_dist_trial,num_items,zn7si1,1.0,response,2_ITEM,1288.9000001430395,1284.399999999965,1288.9000001430395,1288.9000001430395,1284.399999999965,1288.9000001430395,1.0,0.0,0.0,,Click Response,2_count,5.0,object-49,temp_dist_trial,37.0,s_sh_08_1,student_shared,post-its,6.0,competing,paired,s_sh_08_1.jpg,Student,,,sub-58
Desktop or Laptop,Windows 10,Chrome 138.0.0.0,2560x1440,2560x1313,Temporal Distance Task,cb_06,85.0,temp_dist_trial,dist_items,qkpkxw,2.0,info,,2.7999999999883585,0.0,2.7999999999883585,2.7999999999883585,0.0,2.7999999999883585,1.0,0.0,0.0,,Slider,Slider,4.0,object-56,temp_dist_trial,37.0,s_sh_08_1,student_shared,post-its,6.0,competing,paired,s_sh_08_1.jpg,Student,,,sub-58
Desktop or Laptop,Windows 10,Chrome 138.0.0.0,2560x1440,2560x1313,Temporal Distance Task,cb_06,85.0,temp_dist_trial,dist_items,qkpkxw,2.0,continue,,1370.6000001907232,1367.899999999965,1370.6000001907232,1370.6000001907232,1367.899999999965,1370.6000001907232,1.0,0.0,0.0,,Click To Continue,Next button,7.0,object-60,temp_dist_trial,37.0,s_sh_08_1,student_shared,post-its,6.0,competing,paired,s_sh_08_1.jpg,Student,,,sub-58
Desktop or Laptop,Windows 10,Chrome 138.0.0.0,2560x1440,2560x1313,Temporal Distance Task,cb_06,85.0,temp_dist_trial,dist_items,qkpkxw,2.0,response,58,550.5,1367.899999999965,1370.9000001430395,550.5,1367.899999999965,1370.9000001430395,1.0,820.4000001430395,0.0,,Slider,Slider,4.0,object-56,temp_dist_trial,37.0,s_sh_08_1,student_shared,post-its,6.0,competing,paired,s_sh_08_1.jpg,Student,,,sub-58
Desktop or Laptop,Windows 10,Chrome 138.0.0.0,2560x1440,2560x1313,Temporal Distance Task,cb_06,86.0,temp_dist_trial,num_items,zn7si1,1.0,response,1_ITEM,1378.600000047707,1367.8000000000466,1378.600000047707,1378.600000047707,1367.8000000000466,1378.600000047707,1.0,0.0,0.0,,Click Response,1_count,3.0,object-46,temp_dist_trial,38.0,s_s_12_1,student_stem,robotic arm,6.0,unique,single,s_s_12_1.jpg,Student,,,sub-58
Desktop or Laptop,Windows 10,Chrome 138.0.0.0,2560x1440,2560x1313,Temporal Distance Task,cb_06,87.0,temp_dist_trial,num_items,zn7si1,1.0,response,2_ITEM,1613.600000047707,1601.2000000000116,1613.600000047707,1613.600000047707,1601.2000000000116,1613.600000047707,1.0,0.0,0.0,,Click Response,2_count,5.0,object-49,temp_dist_trial,39.0,s_sh_06_1,student_shared,clipboard,6.0,competing,paired,s_sh_06_1.jpg,Student,,,sub-58
Desktop or Laptop,Windows 10,Chrome 138.0.0.0,2560x1440,2560x1313,Temporal Distance Task,cb_06,87.0,temp_dist_trial,dist_items,qkpkxw,2.0,info,,2.5,0.0,2.5,2.5,0.0,2.5,1.0,0.0,0.0,,Slider,Slider,4.0,object-56,temp_dist_trial,39.0,s_sh_06_1,student_shared,clipboard,6.0,competing,paired,s_sh_06_1.jpg,Student,,,sub-58
Desktop or Laptop,Windows 10,Chrome 138.0.0.0,2560x1440,2560x1313,Temporal Distance Task,cb_06,87.0,temp_dist_trial,dist_items,qkpkxw,2.0,continue,,2099.200000047684,2085.0999999999767,2099.200000047684,2099.200000047684,2085.0999999999767,2099.200000047684,1.0,0.0,0.0,,Click To Continue,Next button,7.0,object-60,temp_dist_trial,39.0,s_sh_06_1,student_shared,clipboard,6.0,competing,paired,s_sh_06_1.jpg,Student,,,sub-58
Desktop or Laptop,Windows 10,Chrome 138.0.0.0,2560x1440,2560x1313,Temporal Distance Task,cb_06,87.0,temp_dist_trial,dist_items,qkpkxw,2.0,response,65,1151.0,2085.0999999999767,2099.4000000953674,1151.0,2085.0999999999767,2099.4000000953674,1.0,948.4000000953674,0.0,,Slider,Slider,4.0,object-56,temp_dist_trial,39.0,s_sh_06_1,student_shared,clipboard,6.0,competing,paired,s_sh_06_1.jpg,Student,,,sub-58
Desktop or Laptop,Windows 10,Chrome 138.0.0.0,2560x1440,2560x1313,Temporal Distance Task,cb_06,88.0,temp_dist_trial,num_items,zn7si1,1.0,response,1_ITEM,1640.100000047707,1634.6000000000354,1640.100000047707,1640.100000047707,1634.6000000000354,1640.100000047707,1.0,0.0,0.0,,Click Response,1_count,3.0,object-46,temp_dist_trial,40.0,s_sh_05_1,student_shared,laptop,6.0,competing,single,s_sh_05_1.jpg,Student,,,sub-58
Desktop or Laptop,Windows 10,Chrome 138.0.0.0,2560x1440,2560x1313,Temporal Distance Task,cb_06,89.0,temp_dist_trial,num_items,zn7si1,1.0,response,2_ITEM,1236.2000000476835,1234.2000000000114,1236.2000000476835,1236.2000000476835,1234.2000000000114,1236.2000000476835,1.0,0.0,0.0,,Click Response,2_count,5.0,object-49,temp_dist_trial,41.0,s_sh_14_1,student_shared,printer,6.0,competing,paired,s_sh_14_1.jpg,Student,,,sub-58
