Participant Device,Participant OS,Participant Browser,Participant Monitor Size,Participant Viewport Size,Task Name,Current Spreadsheet,Trial Number,Display,Screen,Screen ID,Screen Counter,Response Type,Response,Onset Time,Clock Time,Reaction Time,Absolute Onset Time,Absolute Clock Time,Absolute Reaction Time,Correct,Response Duration,Proportion,Tag,Component Name,Object Name,Object Number,Object ID,Spreadsheet: display,Spreadsheet: trial,Spreadsheet: stimulus_id,Spreadsheet: expected_goal,Spreadsheet: stimulus_name,Spreadsheet: c_group,Spreadsheet: condition,Spreadsheet: paired_status,Spreadsheet: stimulus_path,Spreadsheet: block_type,Manipulation: Spreadsheet,Store: enc_test_acc,sub_label
Desktop or Laptop,Windows 10,Chrome 138.0.0.0,1536x864,1536x864,Temporal Distance Task,$${counterbalance_group},,,,,,info,BEGIN,,,,,,,0.0,,,,,,,,,,,,,,,,,,,,sub-60
Desktop or Laptop,Windows 10,Chrome 138.0.0.0,1536x864,1536x864,Temporal Distance Task,cb_09,1.0,temp_instructions,intro_screen,3tnme7,1.0,continue,,11335.3,11332.2,11335.3,11335.3,11332.2,11335.3,1.0,0.0,0.0,,Click To Continue,Continue Button,4.0,object-29,temp_instructions,,,Student,,,,,,,,,sub-60
Desktop or Laptop,Windows 10,Chrome 138.0.0.0,1536x864,1536x864,Temporal Distance Task,cb_09,1.0,temp_instructions,intro_screen_2,52v7ur,2.0,continue,,10660.399999999814,10658.8,10660.399999999814,10660.399999999814,10658.8,10660.399999999814,1.0,0.0,0.0,,Click To Continue,Continue Button,4.0,object-39,temp_instructions,,,Student,,,,,,,,,sub-60
Desktop or Laptop,Windows 10,Chrome 138.0.0.0,1536x864,1536x864,Temporal Distance Task,cb_09,1.0,temp_instructions,intro_screen_3,i7lvwx,3.0,continue,,6497.0999999999985,6491.0999999999985,6497.0999999999985,6497.0999999999985,6491.0999999999985,6497.0999999999985,1.0,0.0,0.0,,Click To Continue,Continue Button,4.0,object-67,temp_instructions,,,Student,,,,,,,,,sub-60
Desktop or Laptop,Windows 10,Chrome 138.0.0.0,1536x864,1536x864,Temporal Distance Task,cb_09,1.0,temp_instructions,test_q1,5ieqx1,4.0,response,choice_3,4297.099999999442,4295.200000000002,4297.099999999442,4297.099999999442,4295.200000000002,4297.099999999442,1.0,0.0,0.0,,Click Response,choice_3,5.0,object-345,temp_instructions,,,Student,,,,,,,,,sub-60
Desktop or Laptop,Windows 10,Chrome 138.0.0.0,1536x864,1536x864,Temporal Distance Task,cb_09,1.0,temp_instructions,score_corr,7ilvjr,5.0,continue,,886.8999999994412,885.6999999999971,886.8999999994412,886.8999999994412,885.6999999999971,886.8999999994412,1.0,0.0,0.0,,Click To Continue,Continue Button,3.0,object-23,temp_instructions,,,Student,,,,,,,,,sub-60
Desktop or Laptop,Windows 10,Chrome 138.0.0.0,1536x864,1536x864,Temporal Distance Task,cb_09,1.0,temp_eventStart,Screen 1,dgtyxe,1.0,continue,,2568.300000000003,2566.1000000000063,2568.300000000003,2568.300000000003,2566.1000000000063,2568.300000000003,1.0,0.0,0.0,,Click To Continue,Next Button,3.0,object-43,temp_eventStart,,,Student,,,,,,,,,sub-60
Desktop or Laptop,Windows 10,Chrome 138.0.0.0,1536x864,1536x864,Temporal Distance Task,cb_09,1.0,temp_dist_trial,num_items,zn7si1,1.0,response,1_ITEM,2695.9999999998113,2693.5,2695.9999999998113,2695.9999999998113,2693.5,2695.9999999998113,1.0,0.0,0.0,,Click Response,1_count,3.0,object-46,temp_dist_trial,1.0,s_a_05_1,student_art,clay,9.0,unique,paired,s_a_05_1.jpg,Student,,,sub-60
Desktop or Laptop,Windows 10,Chrome 138.0.0.0,1536x864,1536x864,Temporal Distance Task,cb_09,2.0,temp_dist_trial,num_items,zn7si1,1.0,response,num_miss,3002.900000000001,3002.900000000001,3002.900000000001,3002.900000000001,3002.900000000001,3002.900000000001,1.0,0.0,0.0,num_miss_tag,Time Limit,screen,0.0,screen,temp_dist_trial,2.0,s_sh_23_1,student_shared,ballpoint pen,9.0,competing,single,s_sh_23_1.jpg,Student,,,sub-60
Desktop or Laptop,Windows 10,Chrome 138.0.0.0,1536x864,1536x864,Temporal Distance Task,cb_09,3.0,temp_dist_trial,num_items,zn7si1,1.0,response,2_ITEM,393.1999999998152,388.20000000000437,393.1999999998152,393.1999999998152,388.20000000000437,393.1999999998152,1.0,0.0,0.0,,Click Response,2_count,5.0,object-49,temp_dist_trial,3.0,s_s_11_1,student_stem,scientific scale,9.0,unique,single,s_s_11_1.jpg,Student,,,sub-60
Desktop or Laptop,Windows 10,Chrome 138.0.0.0,1536x864,1536x864,Temporal Distance Task,cb_09,3.0,temp_dist_trial,dist_items,qkpkxw,2.0,info,,3.5,0.0,3.5,3.5,0.0,3.5,1.0,0.0,0.0,,Slider,Slider,4.0,object-56,temp_dist_trial,3.0,s_s_11_1,student_stem,scientific scale,9.0,unique,single,s_s_11_1.jpg,Student,,,sub-60
Desktop or Laptop,Windows 10,Chrome 138.0.0.0,1536x864,1536x864,Temporal Distance Task,cb_09,3.0,temp_dist_trial,dist_items,qkpkxw,2.0,response,dist_miss,7000.800000000002,7000.800000000002,7000.800000000002,7000.800000000002,7000.800000000002,7000.800000000002,1.0,0.0,0.0,dist_miss_tag,Time Limit,screen,0.0,screen,temp_dist_trial,3.0,s_s_11_1,student_stem,scientific scale,9.0,unique,single,s_s_11_1.jpg,Student,,,sub-60
Desktop or Laptop,Windows 10,Chrome 138.0.0.0,1536x864,1536x864,Temporal Distance Task,cb_09,3.0,temp_dist_trial,dist_items,qkpkxw,2.0,response,24,4258.800000000003,7000.800000000002,7002.0,4258.800000000003,7000.800000000002,7002.0,1.0,2743.199999999997,0.0,,Slider,Slider,4.0,object-56,temp_dist_trial,3.0,s_s_11_1,student_stem,scientific scale,9.0,unique,single,s_s_11_1.jpg,Student,,,sub-60
Desktop or Laptop,Windows 10,Chrome 138.0.0.0,1536x864,1536x864,Temporal Distance Task,cb_09,4.0,temp_dist_trial,num_items,zn7si1,1.0,response,2_ITEM,2360.5999999994383,2359.8999999999937,2360.5999999994383,2360.5999999994383,2359.8999999999937,2360.5999999994383,1.0,0.0,0.0,,Click Response,2_count,5.0,object-49,temp_dist_trial,4.0,s_sh_16_1,student_shared,stapler,9.0,competing,single,s_sh_16_1.jpg,Student,,,sub-60
Desktop or Laptop,Windows 10,Chrome 138.0.0.0,1536x864,1536x864,Temporal Distance Task,cb_09,4.0,temp_dist_trial,dist_items,qkpkxw,2.0,info,,2.999999999439752,0.0,2.999999999439752,2.999999999439752,0.0,2.999999999439752,1.0,0.0,0.0,,Slider,Slider,4.0,object-56,temp_dist_trial,4.0,s_sh_16_1,student_shared,stapler,9.0,competing,single,s_sh_16_1.jpg,Student,,,sub-60
Desktop or Laptop,Windows 10,Chrome 138.0.0.0,1536x864,1536x864,Temporal Distance Task,cb_09,4.0,temp_dist_trial,dist_items,qkpkxw,2.0,continue,,1954.7999999992533,1953.4000000000005,1954.7999999992533,1954.7999999992533,1953.4000000000005,1954.7999999992533,1.0,0.0,0.0,,Click To Continue,Next button,7.0,object-60,temp_dist_trial,4.0,s_sh_16_1,student_shared,stapler,9.0,competing,single,s_sh_16_1.jpg,Student,,,sub-60
Desktop or Laptop,Windows 10,Chrome 138.0.0.0,1536x864,1536x864,Temporal Distance Task,cb_09,4.0,temp_dist_trial,dist_items,qkpkxw,2.0,response,73,685.5,1953.4000000000005,1956.1999999996256,685.5,1953.4000000000005,1956.1999999996256,1.0,1270.699999999626,0.0,,Slider,Slider,4.0,object-56,temp_dist_trial,4.0,s_sh_16_1,student_shared,stapler,9.0,competing,single,s_sh_16_1.jpg,Student,,,sub-60
Desktop or Laptop,Windows 10,Chrome 138.0.0.0,1536x864,1536x864,Temporal Distance Task,cb_09,5.0,temp_dist_trial,num_items,zn7si1,1.0,response,2_ITEM,2426.5999999994383,2420.5999999999985,2426.5999999994383,2426.5999999994383,2420.5999999999985,2426.5999999994383,1.0,0.0,0.0,,Click Response,2_count,5.0,object-49,temp_dist_trial,5.0,s_sh_01_1,student_shared,notebook,9.0,competing,paired,s_sh_01_1.jpg,Student,,,sub-60
Desktop or Laptop,Windows 10,Chrome 138.0.0.0,1536x864,1536x864,Temporal Distance Task,cb_09,5.0,temp_dist_trial,dist_items,qkpkxw,2.0,info,,2.6999999998151907,0.0,2.6999999998151907,2.6999999998151907,0.0,2.6999999998151907,1.0,0.0,0.0,,Slider,Slider,4.0,object-56,temp_dist_trial,5.0,s_sh_01_1,student_shared,notebook,9.0,competing,paired,s_sh_01_1.jpg,Student,,,sub-60
Desktop or Laptop,Windows 10,Chrome 138.0.0.0,1536x864,1536x864,Temporal Distance Task,cb_09,5.0,temp_dist_trial,dist_items,qkpkxw,2.0,continue,,2496.5999999992564,2493.300000000003,2496.5999999992564,2496.5999999992564,2493.300000000003,2496.5999999992564,1.0,0.0,0.0,,Click To Continue,Next button,7.0,object-60,temp_dist_trial,5.0,s_sh_01_1,student_shared,notebook,9.0,competing,paired,s_sh_01_1.jpg,Student,,,sub-60
Desktop or Laptop,Windows 10,Chrome 138.0.0.0,1536x864,1536x864,Temporal Distance Task,cb_09,5.0,temp_dist_trial,dist_items,qkpkxw,2.0,response,62,746.0999999999983,2493.300000000003,2496.999999999629,746.0999999999983,2493.300000000003,2496.999999999629,1.0,1750.8999999996304,0.0,,Slider,Slider,4.0,object-56,temp_dist_trial,5.0,s_sh_01_1,student_shared,notebook,9.0,competing,paired,s_sh_01_1.jpg,Student,,,sub-60
Desktop or Laptop,Windows 10,Chrome 138.0.0.0,1536x864,1536x864,Temporal Distance Task,cb_09,6.0,temp_dist_trial,num_items,zn7si1,1.0,response,num_miss,3002.900000000001,3002.900000000001,3002.900000000001,3002.900000000001,3002.900000000001,3002.900000000001,1.0,0.0,0.0,num_miss_tag,Time Limit,screen,0.0,screen,temp_dist_trial,6.0,s_sh_19_1,student_shared,portable plastic drawer,9.0,competing,single,s_sh_19_1.jpg,Student,,,sub-60
Desktop or Laptop,Windows 10,Chrome 138.0.0.0,1536x864,1536x864,Temporal Distance Task,cb_09,7.0,temp_dist_trial,num_items,zn7si1,1.0,response,1_ITEM,1456.6000000000058,1456.0,1456.6000000000058,1456.6000000000058,1456.0,1456.6000000000058,1.0,0.0,0.0,,Click Response,1_count,3.0,object-46,temp_dist_trial,7.0,s_sh_21_1,student_shared,file holder,9.0,competing,single,s_sh_21_1.jpg,Student,,,sub-60
Desktop or Laptop,Windows 10,Chrome 138.0.0.0,1536x864,1536x864,Temporal Distance Task,cb_09,8.0,temp_dist_trial,num_items,zn7si1,1.0,response,1_ITEM,1463.1999999998081,1462.099999999991,1463.1999999998081,1463.1999999998081,1462.099999999991,1463.1999999998081,1.0,0.0,0.0,,Click Response,1_count,3.0,object-46,temp_dist_trial,8.0,s_a_18_1,student_art,tutu,9.0,unique,paired,s_a_18_1.jpg,Student,,,sub-60
Desktop or Laptop,Windows 10,Chrome 138.0.0.0,1536x864,1536x864,Temporal Distance Task,cb_09,9.0,temp_dist_trial,num_items,zn7si1,1.0,response,2_ITEM,2297.999999999447,2293.0,2297.999999999447,2297.999999999447,2293.0,2297.999999999447,1.0,0.0,0.0,,Click Response,2_count,5.0,object-49,temp_dist_trial,9.0,s_s_07_1,student_stem,periodic table,9.0,unique,paired,s_s_07_1.jpg,Student,,,sub-60
Desktop or Laptop,Windows 10,Chrome 138.0.0.0,1536x864,1536x864,Temporal Distance Task,cb_09,9.0,temp_dist_trial,dist_items,qkpkxw,2.0,info,,3.3999999996303814,0.0,3.3999999996303814,3.3999999996303814,0.0,3.3999999996303814,1.0,0.0,0.0,,Slider,Slider,4.0,object-56,temp_dist_trial,9.0,s_s_07_1,student_stem,periodic table,9.0,unique,paired,s_s_07_1.jpg,Student,,,sub-60
Desktop or Laptop,Windows 10,Chrome 138.0.0.0,1536x864,1536x864,Temporal Distance Task,cb_09,9.0,temp_dist_trial,dist_items,qkpkxw,2.0,continue,,2506.199999999444,2505.5,2506.199999999444,2506.199999999444,2505.5,2506.199999999444,1.0,0.0,0.0,,Click To Continue,Next button,7.0,object-60,temp_dist_trial,9.0,s_s_07_1,student_stem,periodic table,9.0,unique,paired,s_s_07_1.jpg,Student,,,sub-60
Desktop or Laptop,Windows 10,Chrome 138.0.0.0,1536x864,1536x864,Temporal Distance Task,cb_09,9.0,temp_dist_trial,dist_items,qkpkxw,2.0,response,73,709.8000000000029,2505.5,2506.599999999817,709.8000000000029,2505.5,2506.599999999817,1.0,1796.7999999998135,0.0,,Slider,Slider,4.0,object-56,temp_dist_trial,9.0,s_s_07_1,student_stem,periodic table,9.0,unique,paired,s_s_07_1.jpg,Student,,,sub-60
Desktop or Laptop,Windows 10,Chrome 138.0.0.0,1536x864,1536x864,Temporal Distance Task,cb_09,10.0,temp_dist_trial,num_items,zn7si1,1.0,response,2_ITEM,1134.4000000000087,1128.3000000000031,1134.4000000000087,1134.4000000000087,1128.3000000000031,1134.4000000000087,1.0,0.0,0.0,,Click Response,2_count,5.0,object-49,temp_dist_trial,10.0,s_sh_02_1,student_shared,eraser,9.0,competing,single,s_sh_02_1.jpg,Student,,,sub-60
Desktop or Laptop,Windows 10,Chrome 138.0.0.0,1536x864,1536x864,Temporal Distance Task,cb_09,10.0,temp_dist_trial,dist_items,qkpkxw,2.0,info,,2.999999999810825,0.0,2.999999999810825,2.999999999810825,0.0,2.999999999810825,1.0,0.0,0.0,,Slider,Slider,4.0,object-56,temp_dist_trial,10.0,s_sh_02_1,student_shared,eraser,9.0,competing,single,s_sh_02_1.jpg,Student,,,sub-60
Desktop or Laptop,Windows 10,Chrome 138.0.0.0,1536x864,1536x864,Temporal Distance Task,cb_09,10.0,temp_dist_trial,dist_items,qkpkxw,2.0,continue,,3392.999999999811,3391.0999999999913,3392.999999999811,3392.999999999811,3391.0999999999913,3392.999999999811,1.0,0.0,0.0,,Click To Continue,Next button,7.0,object-60,temp_dist_trial,10.0,s_sh_02_1,student_shared,eraser,9.0,competing,single,s_sh_02_1.jpg,Student,,,sub-60
Desktop or Laptop,Windows 10,Chrome 138.0.0.0,1536x864,1536x864,Temporal Distance Task,cb_09,10.0,temp_dist_trial,dist_items,qkpkxw,2.0,response,34,606.6999999999971,3391.0999999999913,3394.5999999994383,606.6999999999971,3391.0999999999913,3394.5999999994383,1.0,2787.8999999994408,0.0,,Slider,Slider,4.0,object-56,temp_dist_trial,10.0,s_sh_02_1,student_shared,eraser,9.0,competing,single,s_sh_02_1.jpg,Student,,,sub-60
Desktop or Laptop,Windows 10,Chrome 138.0.0.0,1536x864,1536x864,Temporal Distance Task,cb_09,11.0,temp_dist_trial,num_items,zn7si1,1.0,response,2_ITEM,1596.2999999992608,1595.6000000000058,1596.2999999992608,1596.2999999992608,1595.6000000000058,1596.2999999992608,1.0,0.0,0.0,,Click Response,2_count,5.0,object-49,temp_dist_trial,11.0,s_sh_06_1,student_shared,clipboard,9.0,competing,paired,s_sh_06_1.jpg,Student,,,sub-60
Desktop or Laptop,Windows 10,Chrome 138.0.0.0,1536x864,1536x864,Temporal Distance Task,cb_09,11.0,temp_dist_trial,dist_items,qkpkxw,2.0,info,,2.4999999992578523,0.0,2.4999999992578523,2.4999999992578523,0.0,2.4999999992578523,1.0,0.0,0.0,,Slider,Slider,4.0,object-56,temp_dist_trial,11.0,s_sh_06_1,student_shared,clipboard,9.0,competing,paired,s_sh_06_1.jpg,Student,,,sub-60
Desktop or Laptop,Windows 10,Chrome 138.0.0.0,1536x864,1536x864,Temporal Distance Task,cb_09,11.0,temp_dist_trial,dist_items,qkpkxw,2.0,continue,,2621.9999999992583,2620.699999999997,2621.9999999992583,2621.9999999992583,2620.699999999997,2621.9999999992583,1.0,0.0,0.0,,Click To Continue,Next button,7.0,object-60,temp_dist_trial,11.0,s_sh_06_1,student_shared,clipboard,9.0,competing,paired,s_sh_06_1.jpg,Student,,,sub-60
Desktop or Laptop,Windows 10,Chrome 138.0.0.0,1536x864,1536x864,Temporal Distance Task,cb_09,11.0,temp_dist_trial,dist_items,qkpkxw,2.0,response,63,533.9000000000087,2620.699999999997,2622.300000000003,533.9000000000087,2620.699999999997,2622.300000000003,1.0,2088.3999999999937,0.0,,Slider,Slider,4.0,object-56,temp_dist_trial,11.0,s_sh_06_1,student_shared,clipboard,9.0,competing,paired,s_sh_06_1.jpg,Student,,,sub-60
Desktop or Laptop,Windows 10,Chrome 138.0.0.0,1536x864,1536x864,Temporal Distance Task,cb_09,12.0,temp_dist_trial,num_items,zn7si1,1.0,response,1_ITEM,1559.0,1553.0,1559.0,1559.0,1553.0,1559.0,1.0,0.0,0.0,,Click Response,1_count,3.0,object-46,temp_dist_trial,12.0,s_sh_17_1,student_shared,wireless mouse,9.0,competing,paired,s_sh_17_1.jpg,Student,,,sub-60
Desktop or Laptop,Windows 10,Chrome 138.0.0.0,1536x864,1536x864,Temporal Distance Task,cb_09,13.0,temp_dist_trial,num_items,zn7si1,1.0,response,1_ITEM,2163.599999999817,2159.699999999997,2163.599999999817,2163.599999999817,2159.699999999997,2163.599999999817,1.0,0.0,0.0,,Click Response,1_count,3.0,object-46,temp_dist_trial,13.0,s_s_20_1,student_stem,dna model,9.0,unique,single,s_s_20_1.jpg,Student,,,sub-60
Desktop or Laptop,Windows 10,Chrome 138.0.0.0,1536x864,1536x864,Temporal Distance Task,cb_09,14.0,temp_dist_trial,num_items,zn7si1,1.0,response,2_ITEM,1759.1999999999966,1753.1999999999966,1759.1999999999966,1759.1999999999966,1753.1999999999966,1759.1999999999966,1.0,0.0,0.0,,Click Response,2_count,5.0,object-49,temp_dist_trial,14.0,s_s_16_1,student_stem,toolbox,9.0,unique,single,s_s_16_1.jpg,Student,,,sub-60
Desktop or Laptop,Windows 10,Chrome 138.0.0.0,1536x864,1536x864,Temporal Distance Task,cb_09,14.0,temp_dist_trial,dist_items,qkpkxw,2.0,info,,2.5999999996274705,0.0,2.5999999996274705,2.5999999996274705,0.0,2.5999999996274705,1.0,0.0,0.0,,Slider,Slider,4.0,object-56,temp_dist_trial,14.0,s_s_16_1,student_stem,toolbox,9.0,unique,single,s_s_16_1.jpg,Student,,,sub-60
Desktop or Laptop,Windows 10,Chrome 138.0.0.0,1536x864,1536x864,Temporal Distance Task,cb_09,14.0,temp_dist_trial,dist_items,qkpkxw,2.0,continue,,2264.3999999994408,2262.800000000003,2264.3999999994408,2264.3999999994408,2262.800000000003,2264.3999999994408,1.0,0.0,0.0,,Click To Continue,Next button,7.0,object-60,temp_dist_trial,14.0,s_s_16_1,student_stem,toolbox,9.0,unique,single,s_s_16_1.jpg,Student,,,sub-60
Desktop or Laptop,Windows 10,Chrome 138.0.0.0,1536x864,1536x864,Temporal Distance Task,cb_09,14.0,temp_dist_trial,dist_items,qkpkxw,2.0,response,60,539.8000000000029,2262.800000000003,2264.5999999996275,539.8000000000029,2262.800000000003,2264.5999999996275,1.0,1724.7999999996246,0.0,,Slider,Slider,4.0,object-56,temp_dist_trial,14.0,s_s_16_1,student_stem,toolbox,9.0,unique,single,s_s_16_1.jpg,Student,,,sub-60
Desktop or Laptop,Windows 10,Chrome 138.0.0.0,1536x864,1536x864,Temporal Distance Task,cb_09,15.0,temp_dist_trial,num_items,zn7si1,1.0,response,2_ITEM,2364.199999999997,2359.8999999999937,2364.199999999997,2364.199999999997,2359.8999999999937,2364.199999999997,1.0,0.0,0.0,,Click Response,2_count,5.0,object-49,temp_dist_trial,15.0,s_a_07_1,student_art,yarn,9.0,unique,single,s_a_07_1.jpg,Student,,,sub-60
Desktop or Laptop,Windows 10,Chrome 138.0.0.0,1536x864,1536x864,Temporal Distance Task,cb_09,15.0,temp_dist_trial,dist_items,qkpkxw,2.0,info,,3.199999999633292,0.0,3.199999999633292,3.199999999633292,0.0,3.199999999633292,1.0,0.0,0.0,,Slider,Slider,4.0,object-56,temp_dist_trial,15.0,s_a_07_1,student_art,yarn,9.0,unique,single,s_a_07_1.jpg,Student,,,sub-60
Desktop or Laptop,Windows 10,Chrome 138.0.0.0,1536x864,1536x864,Temporal Distance Task,cb_09,15.0,temp_dist_trial,dist_items,qkpkxw,2.0,continue,,3154.6999999996333,3148.6000000000067,3154.6999999996333,3154.6999999996333,3148.6000000000067,3154.6999999996333,1.0,0.0,0.0,,Click To Continue,Next button,7.0,object-60,temp_dist_trial,15.0,s_a_07_1,student_art,yarn,9.0,unique,single,s_a_07_1.jpg,Student,,,sub-60
Desktop or Laptop,Windows 10,Chrome 138.0.0.0,1536x864,1536x864,Temporal Distance Task,cb_09,15.0,temp_dist_trial,dist_items,qkpkxw,2.0,response,85,1067.8000000000031,3148.6000000000067,3154.800000000003,1067.8000000000031,3148.6000000000067,3154.800000000003,1.0,2087.0,0.0,,Slider,Slider,4.0,object-56,temp_dist_trial,15.0,s_a_07_1,student_art,yarn,9.0,unique,single,s_a_07_1.jpg,Student,,,sub-60
Desktop or Laptop,Windows 10,Chrome 138.0.0.0,1536x864,1536x864,Temporal Distance Task,cb_09,16.0,temp_dist_trial,num_items,zn7si1,1.0,response,1_ITEM,2093.3999999994408,2092.800000000003,2093.3999999994408,2093.3999999994408,2092.800000000003,2093.3999999994408,1.0,0.0,0.0,,Click Response,1_count,3.0,object-46,temp_dist_trial,16.0,s_sh_13_1,student_shared,index cards,9.0,competing,paired,s_sh_13_1.jpg,Student,,,sub-60
Desktop or Laptop,Windows 10,Chrome 138.0.0.0,1536x864,1536x864,Temporal Distance Task,cb_09,17.0,temp_dist_trial,num_items,zn7si1,1.0,response,1_ITEM,2422.699999999255,2420.6000000000063,2422.699999999255,2422.699999999255,2420.6000000000063,2422.699999999255,1.0,0.0,0.0,,Click Response,1_count,3.0,object-46,temp_dist_trial,17.0,s_a_17_1,student_art,microphone,9.0,unique,paired,s_a_17_1.jpg,Student,,,sub-60
Desktop or Laptop,Windows 10,Chrome 138.0.0.0,1536x864,1536x864,Temporal Distance Task,cb_09,18.0,temp_dist_trial,num_items,zn7si1,1.0,response,2_ITEM,1853.6999999999966,1850.3000000000034,1853.6999999999966,1853.6999999999966,1850.3000000000034,1853.6999999999966,1.0,0.0,0.0,,Click Response,2_count,5.0,object-49,temp_dist_trial,18.0,s_s_02_1,student_stem,flask,9.0,unique,paired,s_s_02_1.jpg,Student,,,sub-60
Desktop or Laptop,Windows 10,Chrome 138.0.0.0,1536x864,1536x864,Temporal Distance Task,cb_09,18.0,temp_dist_trial,dist_items,qkpkxw,2.0,info,,3.6000000000058208,0.0,3.6000000000058208,3.6000000000058208,0.0,3.6000000000058208,1.0,0.0,0.0,,Slider,Slider,4.0,object-56,temp_dist_trial,18.0,s_s_02_1,student_stem,flask,9.0,unique,paired,s_s_02_1.jpg,Student,,,sub-60
Desktop or Laptop,Windows 10,Chrome 138.0.0.0,1536x864,1536x864,Temporal Distance Task,cb_09,18.0,temp_dist_trial,dist_items,qkpkxw,2.0,continue,,3155.6999999996333,3154.5,3155.6999999996333,3155.6999999996333,3154.5,3155.6999999996333,1.0,0.0,0.0,,Click To Continue,Next button,7.0,object-60,temp_dist_trial,18.0,s_s_02_1,student_stem,flask,9.0,unique,paired,s_s_02_1.jpg,Student,,,sub-60
Desktop or Laptop,Windows 10,Chrome 138.0.0.0,1536x864,1536x864,Temporal Distance Task,cb_09,18.0,temp_dist_trial,dist_items,qkpkxw,2.0,response,33,1128.3000000000031,3154.5,3155.89999999982,1128.3000000000031,3154.5,3155.89999999982,1.0,2027.5999999998169,0.0,,Slider,Slider,4.0,object-56,temp_dist_trial,18.0,s_s_02_1,student_stem,flask,9.0,unique,paired,s_s_02_1.jpg,Student,,,sub-60
Desktop or Laptop,Windows 10,Chrome 138.0.0.0,1536x864,1536x864,Temporal Distance Task,cb_09,19.0,temp_dist_trial,num_items,zn7si1,1.0,response,1_ITEM,1621.7999999992608,1619.8000000000034,1621.7999999992608,1621.7999999992608,1619.8000000000034,1621.7999999992608,1.0,0.0,0.0,,Click Response,1_count,3.0,object-46,temp_dist_trial,19.0,s_a_19_1,student_art,ballet shoes,9.0,unique,paired,s_a_19_1.jpg,Student,,,sub-60
Desktop or Laptop,Windows 10,Chrome 138.0.0.0,1536x864,1536x864,Temporal Distance Task,cb_09,20.0,temp_dist_trial,num_items,zn7si1,1.0,response,2_ITEM,1229.499999999447,1225.4000000000087,1229.499999999447,1229.499999999447,1225.4000000000087,1229.499999999447,1.0,0.0,0.0,,Click Response,2_count,5.0,object-49,temp_dist_trial,20.0,s_sh_12_1,student_shared,binder,9.0,competing,paired,s_sh_12_1.jpg,Student,,,sub-60
Desktop or Laptop,Windows 10,Chrome 138.0.0.0,1536x864,1536x864,Temporal Distance Task,cb_09,20.0,temp_dist_trial,dist_items,qkpkxw,2.0,info,,2.5999999996274705,0.0,2.5999999996274705,2.5999999996274705,0.0,2.5999999996274705,1.0,0.0,0.0,,Slider,Slider,4.0,object-56,temp_dist_trial,20.0,s_sh_12_1,student_shared,binder,9.0,competing,paired,s_sh_12_1.jpg,Student,,,sub-60
Desktop or Laptop,Windows 10,Chrome 138.0.0.0,1536x864,1536x864,Temporal Distance Task,cb_09,20.0,temp_dist_trial,dist_items,qkpkxw,2.0,continue,,2135.300000000003,2129.300000000003,2135.300000000003,2135.300000000003,2129.300000000003,2135.300000000003,1.0,0.0,0.0,,Click To Continue,Next button,7.0,object-60,temp_dist_trial,20.0,s_sh_12_1,student_shared,binder,9.0,competing,paired,s_sh_12_1.jpg,Student,,,sub-60
Desktop or Laptop,Windows 10,Chrome 138.0.0.0,1536x864,1536x864,Temporal Distance Task,cb_09,20.0,temp_dist_trial,dist_items,qkpkxw,2.0,response,70,709.8000000000029,2129.300000000003,2135.300000000003,709.8000000000029,2129.300000000003,2135.300000000003,1.0,1425.5,0.0,,Slider,Slider,4.0,object-56,temp_dist_trial,20.0,s_sh_12_1,student_shared,binder,9.0,competing,paired,s_sh_12_1.jpg,Student,,,sub-60
Desktop or Laptop,Windows 10,Chrome 138.0.0.0,1536x864,1536x864,Temporal Distance Task,cb_09,21.0,temp_dist_trial,num_items,zn7si1,1.0,response,1_ITEM,1312.899999999252,1310.5,1312.899999999252,1312.899999999252,1310.5,1312.899999999252,1.0,0.0,0.0,,Click Response,1_count,3.0,object-46,temp_dist_trial,21.0,s_a_12_1,student_art,saxophone,9.0,unique,paired,s_a_12_1.jpg,Student,,,sub-60
Desktop or Laptop,Windows 10,Chrome 138.0.0.0,1536x864,1536x864,Temporal Distance Task,cb_09,22.0,temp_dist_trial,num_items,zn7si1,1.0,response,1_ITEM,1526.8999999994412,1522.6999999999966,1526.8999999994412,1526.8999999994412,1522.6999999999966,1526.8999999994412,1.0,0.0,0.0,,Click Response,1_count,3.0,object-46,temp_dist_trial,22.0,s_sh_22_1,student_shared,hole puncher,9.0,competing,paired,s_sh_22_1.jpg,Student,,,sub-60
Desktop or Laptop,Windows 10,Chrome 138.0.0.0,1536x864,1536x864,Temporal Distance Task,cb_09,23.0,temp_dist_trial,num_items,zn7si1,1.0,response,1_ITEM,1507.999999999447,1504.5,1507.999999999447,1507.999999999447,1504.5,1507.999999999447,1.0,0.0,0.0,,Click Response,1_count,3.0,object-46,temp_dist_trial,23.0,s_s_06_1,student_stem,calculator,9.0,unique,single,s_s_06_1.jpg,Student,,,sub-60
Desktop or Laptop,Windows 10,Chrome 138.0.0.0,1536x864,1536x864,Temporal Distance Task,cb_09,24.0,temp_dist_trial,num_items,zn7si1,1.0,response,2_ITEM,1513.3999999994412,1510.6999999999966,1513.3999999994412,1513.3999999994412,1510.6999999999966,1513.3999999994412,1.0,0.0,0.0,,Click Response,2_count,5.0,object-49,temp_dist_trial,24.0,s_s_19_1,student_stem,circuit board,9.0,unique,paired,s_s_19_1.jpg,Student,,,sub-60
Desktop or Laptop,Windows 10,Chrome 138.0.0.0,1536x864,1536x864,Temporal Distance Task,cb_09,24.0,temp_dist_trial,dist_items,qkpkxw,2.0,info,,2.6000000000058208,0.0,2.6000000000058208,2.6000000000058208,0.0,2.6000000000058208,1.0,0.0,0.0,,Slider,Slider,4.0,object-56,temp_dist_trial,24.0,s_s_19_1,student_stem,circuit board,9.0,unique,paired,s_s_19_1.jpg,Student,,,sub-60
Desktop or Laptop,Windows 10,Chrome 138.0.0.0,1536x864,1536x864,Temporal Distance Task,cb_09,24.0,temp_dist_trial,dist_items,qkpkxw,2.0,continue,,2172.1999999996333,2171.9000000000087,2172.1999999996333,2172.1999999996333,2171.9000000000087,2172.1999999996333,1.0,0.0,0.0,,Click To Continue,Next button,7.0,object-60,temp_dist_trial,24.0,s_s_19_1,student_stem,circuit board,9.0,unique,paired,s_s_19_1.jpg,Student,,,sub-60
Desktop or Laptop,Windows 10,Chrome 138.0.0.0,1536x864,1536x864,Temporal Distance Task,cb_09,24.0,temp_dist_trial,dist_items,qkpkxw,2.0,response,74,782.5,2171.9000000000087,2174.2999999992608,782.5,2171.9000000000087,2174.2999999992608,1.0,1391.7999999992608,0.0,,Slider,Slider,4.0,object-56,temp_dist_trial,24.0,s_s_19_1,student_stem,circuit board,9.0,unique,paired,s_s_19_1.jpg,Student,,,sub-60
Desktop or Laptop,Windows 10,Chrome 138.0.0.0,1536x864,1536x864,Temporal Distance Task,cb_09,25.0,temp_dist_trial,num_items,zn7si1,1.0,response,1_ITEM,1561.0999999994385,1559.0,1561.0999999994385,1561.0999999994385,1559.0,1561.0999999994385,1.0,0.0,0.0,,Click Response,1_count,3.0,object-46,temp_dist_trial,25.0,s_a_06_1,student_art,pastels,9.0,unique,single,s_a_06_1.jpg,Student,,,sub-60
Desktop or Laptop,Windows 10,Chrome 138.0.0.0,1536x864,1536x864,Temporal Distance Task,cb_09,26.0,temp_dist_trial,num_items,zn7si1,1.0,response,1_ITEM,2113.7999999998137,2111.1000000000063,2113.7999999998137,2113.7999999998137,2111.1000000000063,2113.7999999998137,1.0,0.0,0.0,,Click Response,1_count,3.0,object-46,temp_dist_trial,26.0,s_a_01_1,student_art,paintbrush,9.0,unique,single,s_a_01_1.jpg,Student,,,sub-60
Desktop or Laptop,Windows 10,Chrome 138.0.0.0,1536x864,1536x864,Temporal Distance Task,cb_09,27.0,temp_dist_trial,num_items,zn7si1,1.0,response,2_ITEM,1974.89999999982,1971.7000000000119,1974.89999999982,1974.89999999982,1971.7000000000119,1974.89999999982,1.0,0.0,0.0,,Click Response,2_count,5.0,object-49,temp_dist_trial,27.0,s_s_09_1,student_stem,multimeter,9.0,unique,paired,s_s_09_1.jpg,Student,,,sub-60
Desktop or Laptop,Windows 10,Chrome 138.0.0.0,1536x864,1536x864,Temporal Distance Task,cb_09,27.0,temp_dist_trial,dist_items,qkpkxw,2.0,info,,2.4999999992578523,0.0,2.4999999992578523,2.4999999992578523,0.0,2.4999999992578523,1.0,0.0,0.0,,Slider,Slider,4.0,object-56,temp_dist_trial,27.0,s_s_09_1,student_stem,multimeter,9.0,unique,paired,s_s_09_1.jpg,Student,,,sub-60
Desktop or Laptop,Windows 10,Chrome 138.0.0.0,1536x864,1536x864,Temporal Distance Task,cb_09,27.0,temp_dist_trial,dist_items,qkpkxw,2.0,continue,,2374.099999999817,2372.0999999999913,2374.099999999817,2374.099999999817,2372.0999999999913,2374.099999999817,1.0,0.0,0.0,,Click To Continue,Next button,7.0,object-60,temp_dist_trial,27.0,s_s_09_1,student_stem,multimeter,9.0,unique,paired,s_s_09_1.jpg,Student,,,sub-60
Desktop or Laptop,Windows 10,Chrome 138.0.0.0,1536x864,1536x864,Temporal Distance Task,cb_09,27.0,temp_dist_trial,dist_items,qkpkxw,2.0,response,67,1273.9000000000087,2372.0999999999913,2374.3999999996304,1273.9000000000087,2372.0999999999913,2374.3999999996304,1.0,1100.4999999996217,0.0,,Slider,Slider,4.0,object-56,temp_dist_trial,27.0,s_s_09_1,student_stem,multimeter,9.0,unique,paired,s_s_09_1.jpg,Student,,,sub-60
Desktop or Laptop,Windows 10,Chrome 138.0.0.0,1536x864,1536x864,Temporal Distance Task,cb_09,28.0,temp_dist_trial,num_items,zn7si1,1.0,response,1_ITEM,1666.2999999996387,1662.2000000000116,1666.2999999996387,1666.2999999996387,1662.2000000000116,1666.2999999996387,1.0,0.0,0.0,,Click Response,1_count,3.0,object-46,temp_dist_trial,28.0,s_sh_03_1,student_shared,highlighter,9.0,competing,single,s_sh_03_1.jpg,Student,,,sub-60
Desktop or Laptop,Windows 10,Chrome 138.0.0.0,1536x864,1536x864,Temporal Distance Task,cb_09,29.0,temp_dist_trial,num_items,zn7si1,1.0,response,2_ITEM,1374.2999999999886,1370.8999999999942,1374.2999999999886,1374.2999999999886,1370.8999999999942,1374.2999999999886,1.0,0.0,0.0,,Click Response,2_count,5.0,object-49,temp_dist_trial,29.0,s_sh_24_1,student_shared,desk organizer,9.0,competing,paired,s_sh_24_1.jpg,Student,,,sub-60
Desktop or Laptop,Windows 10,Chrome 138.0.0.0,1536x864,1536x864,Temporal Distance Task,cb_09,29.0,temp_dist_trial,dist_items,qkpkxw,2.0,info,,3.7000000000116415,0.0,3.7000000000116415,3.7000000000116415,0.0,3.7000000000116415,1.0,0.0,0.0,,Slider,Slider,4.0,object-56,temp_dist_trial,29.0,s_sh_24_1,student_shared,desk organizer,9.0,competing,paired,s_sh_24_1.jpg,Student,,,sub-60
Desktop or Laptop,Windows 10,Chrome 138.0.0.0,1536x864,1536x864,Temporal Distance Task,cb_09,29.0,temp_dist_trial,dist_items,qkpkxw,2.0,continue,,2198.299999999639,2196.1000000000063,2198.299999999639,2198.299999999639,2196.1000000000063,2198.299999999639,1.0,0.0,0.0,,Click To Continue,Next button,7.0,object-60,temp_dist_trial,29.0,s_sh_24_1,student_shared,desk organizer,9.0,competing,paired,s_sh_24_1.jpg,Student,,,sub-60
Desktop or Laptop,Windows 10,Chrome 138.0.0.0,1536x864,1536x864,Temporal Distance Task,cb_09,29.0,temp_dist_trial,dist_items,qkpkxw,2.0,response,24,1177.0,2196.1000000000063,2198.499999999825,1177.0,2196.1000000000063,2198.499999999825,1.0,1021.4999999998256,0.0,,Slider,Slider,4.0,object-56,temp_dist_trial,29.0,s_sh_24_1,student_shared,desk organizer,9.0,competing,paired,s_sh_24_1.jpg,Student,,,sub-60
Desktop or Laptop,Windows 10,Chrome 138.0.0.0,1536x864,1536x864,Temporal Distance Task,cb_09,30.0,temp_dist_trial,num_items,zn7si1,1.0,response,1_ITEM,1110.3000000000177,1104.2000000000116,1110.3000000000177,1110.3000000000177,1104.2000000000116,1110.3000000000177,1.0,0.0,0.0,,Click Response,1_count,3.0,object-46,temp_dist_trial,30.0,s_a_15_1,student_art,drum kit,9.0,unique,single,s_a_15_1.jpg,Student,,,sub-60
Desktop or Laptop,Windows 10,Chrome 138.0.0.0,1536x864,1536x864,Temporal Distance Task,cb_09,31.0,temp_dist_trial,num_items,zn7si1,1.0,response,2_ITEM,1951.5999999994528,1947.3000000000175,1951.5999999994528,1951.5999999994528,1947.3000000000175,1951.5999999994528,1.0,0.0,0.0,,Click Response,2_count,5.0,object-49,temp_dist_trial,31.0,s_s_10_1,student_stem,3d molecule,9.0,unique,paired,s_s_10_1.jpg,Student,,,sub-60
Desktop or Laptop,Windows 10,Chrome 138.0.0.0,1536x864,1536x864,Temporal Distance Task,cb_09,31.0,temp_dist_trial,dist_items,qkpkxw,2.0,info,,2.499999999825377,0.0,2.499999999825377,2.499999999825377,0.0,2.499999999825377,1.0,0.0,0.0,,Slider,Slider,4.0,object-56,temp_dist_trial,31.0,s_s_10_1,student_stem,3d molecule,9.0,unique,paired,s_s_10_1.jpg,Student,,,sub-60
Desktop or Laptop,Windows 10,Chrome 138.0.0.0,1536x864,1536x864,Temporal Distance Task,cb_09,31.0,temp_dist_trial,dist_items,qkpkxw,2.0,continue,,2256.0999999994533,2250.700000000012,2256.0999999994533,2256.0999999994533,2250.700000000012,2256.0999999994533,1.0,0.0,0.0,,Click To Continue,Next button,7.0,object-60,temp_dist_trial,31.0,s_s_10_1,student_stem,3d molecule,9.0,unique,paired,s_s_10_1.jpg,Student,,,sub-60
Desktop or Laptop,Windows 10,Chrome 138.0.0.0,1536x864,1536x864,Temporal Distance Task,cb_09,31.0,temp_dist_trial,dist_items,qkpkxw,2.0,response,46,728.0,2250.700000000012,2256.3999999992666,728.0,2250.700000000012,2256.3999999992666,1.0,1528.3999999992664,0.0,,Slider,Slider,4.0,object-56,temp_dist_trial,31.0,s_s_10_1,student_stem,3d molecule,9.0,unique,paired,s_s_10_1.jpg,Student,,,sub-60
Desktop or Laptop,Windows 10,Chrome 138.0.0.0,1536x864,1536x864,Temporal Distance Task,cb_09,32.0,temp_dist_trial,num_items,zn7si1,1.0,response,2_ITEM,1873.0999999996275,1868.5,1873.0999999996275,1873.0999999996275,1868.5,1873.0999999996275,1.0,0.0,0.0,,Click Response,2_count,5.0,object-49,temp_dist_trial,32.0,s_sh_14_1,student_shared,printer,9.0,competing,paired,s_sh_14_1.jpg,Student,,,sub-60
Desktop or Laptop,Windows 10,Chrome 138.0.0.0,1536x864,1536x864,Temporal Distance Task,cb_09,32.0,temp_dist_trial,dist_items,qkpkxw,2.0,info,,2.699999999429565,0.0,2.699999999429565,2.699999999429565,0.0,2.699999999429565,1.0,0.0,0.0,,Slider,Slider,4.0,object-56,temp_dist_trial,32.0,s_sh_14_1,student_shared,printer,9.0,competing,paired,s_sh_14_1.jpg,Student,,,sub-60
Desktop or Laptop,Windows 10,Chrome 138.0.0.0,1536x864,1536x864,Temporal Distance Task,cb_09,32.0,temp_dist_trial,dist_items,qkpkxw,2.0,continue,,2294.6999999994296,2293.1999999999825,2294.6999999994296,2294.6999999994296,2293.1999999999825,2294.6999999994296,1.0,0.0,0.0,,Click To Continue,Next button,7.0,object-60,temp_dist_trial,32.0,s_sh_14_1,student_shared,printer,9.0,competing,paired,s_sh_14_1.jpg,Student,,,sub-60
Desktop or Laptop,Windows 10,Chrome 138.0.0.0,1536x864,1536x864,Temporal Distance Task,cb_09,32.0,temp_dist_trial,dist_items,qkpkxw,2.0,response,62,1243.6999999999825,2293.1999999999825,2294.8999999996163,1243.6999999999825,2293.1999999999825,2294.8999999996163,1.0,1051.1999999996333,0.0,,Slider,Slider,4.0,object-56,temp_dist_trial,32.0,s_sh_14_1,student_shared,printer,9.0,competing,paired,s_sh_14_1.jpg,Student,,,sub-60
Desktop or Laptop,Windows 10,Chrome 138.0.0.0,1536x864,1536x864,Temporal Distance Task,cb_09,33.0,temp_dist_trial,num_items,zn7si1,1.0,response,2_ITEM,1618.6999999996333,1613.7000000000116,1618.6999999996333,1618.6999999996333,1613.7000000000116,1618.6999999996333,1.0,0.0,0.0,,Click Response,2_count,5.0,object-49,temp_dist_trial,33.0,s_s_15_1,student_stem,jumper cables,9.0,unique,paired,s_s_15_1.jpg,Student,,,sub-60
Desktop or Laptop,Windows 10,Chrome 138.0.0.0,1536x864,1536x864,Temporal Distance Task,cb_09,33.0,temp_dist_trial,dist_items,qkpkxw,2.0,info,,2.599999999452848,0.0,2.599999999452848,2.599999999452848,0.0,2.599999999452848,1.0,0.0,0.0,,Slider,Slider,4.0,object-56,temp_dist_trial,33.0,s_s_15_1,student_stem,jumper cables,9.0,unique,paired,s_s_15_1.jpg,Student,,,sub-60
Desktop or Laptop,Windows 10,Chrome 138.0.0.0,1536x864,1536x864,Temporal Distance Task,cb_09,33.0,temp_dist_trial,dist_items,qkpkxw,2.0,continue,,3517.0999999994533,3512.5,3517.0999999994533,3517.0999999994533,3512.5,3517.0999999994533,1.0,0.0,0.0,,Click To Continue,Next button,7.0,object-60,temp_dist_trial,33.0,s_s_15_1,student_stem,jumper cables,9.0,unique,paired,s_s_15_1.jpg,Student,,,sub-60
Desktop or Laptop,Windows 10,Chrome 138.0.0.0,1536x864,1536x864,Temporal Distance Task,cb_09,33.0,temp_dist_trial,dist_items,qkpkxw,2.0,response,59,776.5,3512.5,3517.299999999639,776.5,3512.5,3517.299999999639,1.0,2740.799999999639,0.0,,Slider,Slider,4.0,object-56,temp_dist_trial,33.0,s_s_15_1,student_stem,jumper cables,9.0,unique,paired,s_s_15_1.jpg,Student,,,sub-60
Desktop or Laptop,Windows 10,Chrome 138.0.0.0,1536x864,1536x864,Temporal Distance Task,cb_09,34.0,temp_dist_trial,num_items,zn7si1,1.0,response,num_miss,3002.9000000000237,3002.9000000000237,3002.9000000000237,3002.9000000000237,3002.9000000000237,3002.9000000000237,1.0,0.0,0.0,num_miss_tag,Time Limit,screen,0.0,screen,temp_dist_trial,34.0,s_sh_10_1,student_shared,scissors,9.0,competing,paired,s_sh_10_1.jpg,Student,,,sub-60
Desktop or Laptop,Windows 10,Chrome 138.0.0.0,1536x864,1536x864,Temporal Distance Task,cb_09,35.0,temp_dist_trial,num_items,zn7si1,1.0,response,1_ITEM,1412.2999999992608,1407.3999999999942,1412.2999999992608,1412.2999999992608,1407.3999999999942,1412.2999999992608,1.0,0.0,0.0,,Click Response,1_count,3.0,object-46,temp_dist_trial,35.0,s_sh_09_1,student_shared,paper clips,9.0,competing,paired,s_sh_09_1.jpg,Student,,,sub-60
Desktop or Laptop,Windows 10,Chrome 138.0.0.0,1536x864,1536x864,Temporal Distance Task,cb_09,36.0,temp_dist_trial,num_items,zn7si1,1.0,response,1_ITEM,2917.8999999999933,2911.8999999999933,2917.8999999999933,2917.8999999999933,2911.8999999999933,2917.8999999999933,1.0,0.0,0.0,,Click Response,1_count,3.0,object-46,temp_dist_trial,36.0,s_a_14_1,student_art,guitar pick,9.0,unique,paired,s_a_14_1.jpg,Student,,,sub-60
Desktop or Laptop,Windows 10,Chrome 138.0.0.0,1536x864,1536x864,Temporal Distance Task,cb_09,37.0,temp_dist_trial,num_items,zn7si1,1.0,response,2_ITEM,1475.1999999994296,1474.0999999999767,1475.1999999994296,1475.1999999994296,1474.0999999999767,1475.1999999994296,1.0,0.0,0.0,,Click Response,2_count,5.0,object-49,temp_dist_trial,37.0,s_a_02_1,student_art,canvas,9.0,unique,paired,s_a_02_1.jpg,Student,,,sub-60
Desktop or Laptop,Windows 10,Chrome 138.0.0.0,1536x864,1536x864,Temporal Distance Task,cb_09,37.0,temp_dist_trial,dist_items,qkpkxw,2.0,info,,2.699999999254942,0.0,2.699999999254942,2.699999999254942,0.0,2.699999999254942,1.0,0.0,0.0,,Slider,Slider,4.0,object-56,temp_dist_trial,37.0,s_a_02_1,student_art,canvas,9.0,unique,paired,s_a_02_1.jpg,Student,,,sub-60
Desktop or Laptop,Windows 10,Chrome 138.0.0.0,1536x864,1536x864,Temporal Distance Task,cb_09,37.0,temp_dist_trial,dist_items,qkpkxw,2.0,continue,,1424.1999999992554,1419.6000000000058,1424.1999999992554,1424.1999999992554,1419.6000000000058,1424.1999999992554,1.0,0.0,0.0,,Click To Continue,Next button,7.0,object-60,temp_dist_trial,37.0,s_a_02_1,student_art,canvas,9.0,unique,paired,s_a_02_1.jpg,Student,,,sub-60
Desktop or Laptop,Windows 10,Chrome 138.0.0.0,1536x864,1536x864,Temporal Distance Task,cb_09,37.0,temp_dist_trial,dist_items,qkpkxw,2.0,response,73,473.2999999999884,1419.6000000000058,1424.5999999996275,473.2999999999884,1419.6000000000058,1424.5999999996275,1.0,951.2999999996392,0.0,,Slider,Slider,4.0,object-56,temp_dist_trial,37.0,s_a_02_1,student_art,canvas,9.0,unique,paired,s_a_02_1.jpg,Student,,,sub-60
Desktop or Laptop,Windows 10,Chrome 138.0.0.0,1536x864,1536x864,Temporal Distance Task,cb_09,38.0,temp_dist_trial,num_items,zn7si1,1.0,response,1_ITEM,2228.7999999994354,2226.5,2228.7999999994354,2228.7999999994354,2226.5,2228.7999999994354,1.0,0.0,0.0,,Click Response,1_count,3.0,object-46,temp_dist_trial,38.0,s_s_01_1,student_stem,microscope,9.0,unique,paired,s_s_01_1.jpg,Student,,,sub-60
Desktop or Laptop,Windows 10,Chrome 138.0.0.0,1536x864,1536x864,Temporal Distance Task,cb_09,39.0,temp_dist_trial,num_items,zn7si1,1.0,response,2_ITEM,1855.7999999999884,1850.3999999999944,1855.7999999999884,1855.7999999999884,1850.3999999999944,1855.7999999999884,1.0,0.0,0.0,,Click Response,2_count,5.0,object-49,temp_dist_trial,39.0,s_sh_20_1,student_shared,tape,9.0,competing,paired,s_sh_20_1.jpg,Student,,,sub-60
Desktop or Laptop,Windows 10,Chrome 138.0.0.0,1536x864,1536x864,Temporal Distance Task,cb_09,39.0,temp_dist_trial,dist_items,qkpkxw,2.0,info,,2.699999999429565,0.0,2.699999999429565,2.699999999429565,0.0,2.699999999429565,1.0,0.0,0.0,,Slider,Slider,4.0,object-56,temp_dist_trial,39.0,s_sh_20_1,student_shared,tape,9.0,competing,paired,s_sh_20_1.jpg,Student,,,sub-60
Desktop or Laptop,Windows 10,Chrome 138.0.0.0,1536x864,1536x864,Temporal Distance Task,cb_09,39.0,temp_dist_trial,dist_items,qkpkxw,2.0,continue,,1953.5,1947.3999999999944,1953.5,1953.5,1947.3999999999944,1953.5,1.0,0.0,0.0,,Click To Continue,Next button,7.0,object-60,temp_dist_trial,39.0,s_sh_20_1,student_shared,tape,9.0,competing,paired,s_sh_20_1.jpg,Student,,,sub-60
Desktop or Laptop,Windows 10,Chrome 138.0.0.0,1536x864,1536x864,Temporal Distance Task,cb_09,39.0,temp_dist_trial,dist_items,qkpkxw,2.0,response,40,1049.5999999999767,1947.3999999999944,1953.5,1049.5999999999767,1947.3999999999944,1953.5,1.0,903.9000000000232,0.0,,Slider,Slider,4.0,object-56,temp_dist_trial,39.0,s_sh_20_1,student_shared,tape,9.0,competing,paired,s_sh_20_1.jpg,Student,,,sub-60
Desktop or Laptop,Windows 10,Chrome 138.0.0.0,1536x864,1536x864,Temporal Distance Task,cb_09,40.0,temp_dist_trial,num_items,zn7si1,1.0,response,1_ITEM,2009.5999999992487,2008.1000000000056,2009.5999999992487,2009.5999999992487,2008.1000000000056,2009.5999999992487,1.0,0.0,0.0,,Click Response,1_count,3.0,object-46,temp_dist_trial,40.0,s_sh_18_1,student_shared,wall calendar,9.0,competing,paired,s_sh_18_1.jpg,Student,,,sub-60
Desktop or Laptop,Windows 10,Chrome 138.0.0.0,1536x864,1536x864,Temporal Distance Task,cb_09,41.0,temp_dist_trial,num_items,zn7si1,1.0,response,2_ITEM,1934.5999999994528,1929.2000000000119,1934.5999999994528,1934.5999999994528,1929.2000000000119,1934.5999999994528,1.0,0.0,0.0,,Click Response,2_count,5.0,object-49,temp_dist_trial,41.0,s_sh_11_1,student_shared,pencil case,9.0,competing,paired,s_sh_11_1.jpg,Student,,,sub-60
Desktop or Laptop,Windows 10,Chrome 138.0.0.0,1536x864,1536x864,Temporal Distance Task,cb_09,41.0,temp_dist_trial,dist_items,qkpkxw,2.0,info,,2.3999999999941792,0.0,2.3999999999941792,2.3999999999941792,0.0,2.3999999999941792,1.0,0.0,0.0,,Slider,Slider,4.0,object-56,temp_dist_trial,41.0,s_sh_11_1,student_shared,pencil case,9.0,competing,paired,s_sh_11_1.jpg,Student,,,sub-60
Desktop or Laptop,Windows 10,Chrome 138.0.0.0,1536x864,1536x864,Temporal Distance Task,cb_09,41.0,temp_dist_trial,dist_items,qkpkxw,2.0,continue,,1060.6999999998081,1055.6999999999823,1060.6999999998081,1060.6999999998081,1055.6999999999823,1060.6999999998081,1.0,0.0,0.0,,Click To Continue,Next button,7.0,object-60,temp_dist_trial,41.0,s_sh_11_1,student_shared,pencil case,9.0,competing,paired,s_sh_11_1.jpg,Student,,,sub-60
Desktop or Laptop,Windows 10,Chrome 138.0.0.0,1536x864,1536x864,Temporal Distance Task,cb_09,41.0,temp_dist_trial,dist_items,qkpkxw,2.0,response,64,497.6000000000058,1055.6999999999823,1060.8999999999942,497.6000000000058,1055.6999999999823,1060.8999999999942,1.0,563.2999999999884,0.0,,Slider,Slider,4.0,object-56,temp_dist_trial,41.0,s_sh_11_1,student_shared,pencil case,9.0,competing,paired,s_sh_11_1.jpg,Student,,,sub-60
Desktop or Laptop,Windows 10,Chrome 138.0.0.0,1536x864,1536x864,Temporal Distance Task,cb_09,42.0,temp_dist_trial,num_items,zn7si1,1.0,response,2_ITEM,1599.7000000000116,1595.5,1599.7000000000116,1599.7000000000116,1595.5,1599.7000000000116,1.0,0.0,0.0,,Click Response,2_count,5.0,object-49,temp_dist_trial,42.0,s_sh_04_1,student_shared,laptop stand,9.0,competing,paired,s_sh_04_1.jpg,Student,,,sub-60
Desktop or Laptop,Windows 10,Chrome 138.0.0.0,1536x864,1536x864,Temporal Distance Task,cb_09,42.0,temp_dist_trial,dist_items,qkpkxw,2.0,info,,2.5999999996274705,0.0,2.5999999996274705,2.5999999996274705,0.0,2.5999999996274705,1.0,0.0,0.0,,Slider,Slider,4.0,object-56,temp_dist_trial,42.0,s_sh_04_1,student_shared,laptop stand,9.0,competing,paired,s_sh_04_1.jpg,Student,,,sub-60
Desktop or Laptop,Windows 10,Chrome 138.0.0.0,1536x864,1536x864,Temporal Distance Task,cb_09,42.0,temp_dist_trial,dist_items,qkpkxw,2.0,continue,,4740.799999999814,4737.899999999994,4740.799999999814,4740.799999999814,4737.899999999994,4740.799999999814,1.0,0.0,0.0,,Click To Continue,Next button,7.0,object-60,temp_dist_trial,42.0,s_sh_04_1,student_shared,laptop stand,9.0,competing,paired,s_sh_04_1.jpg,Student,,,sub-60
Desktop or Laptop,Windows 10,Chrome 138.0.0.0,1536x864,1536x864,Temporal Distance Task,cb_09,42.0,temp_dist_trial,dist_items,qkpkxw,2.0,response,73,958.5,4737.899999999994,4741.0,958.5,4737.899999999994,4741.0,1.0,3782.5,0.0,,Slider,Slider,4.0,object-56,temp_dist_trial,42.0,s_sh_04_1,student_shared,laptop stand,9.0,competing,paired,s_sh_04_1.jpg,Student,,,sub-60
Desktop or Laptop,Windows 10,Chrome 138.0.0.0,1536x864,1536x864,Temporal Distance Task,cb_09,43.0,temp_dist_trial,num_items,zn7si1,1.0,response,1_ITEM,1171.2999999992608,1170.8000000000175,1171.2999999992608,1171.2999999992608,1170.8000000000175,1171.2999999992608,1.0,0.0,0.0,,Click Response,1_count,3.0,object-46,temp_dist_trial,43.0,s_s_08_1,student_stem,soldering iron,9.0,unique,paired,s_s_08_1.jpg,Student,,,sub-60
Desktop or Laptop,Windows 10,Chrome 138.0.0.0,1536x864,1536x864,Temporal Distance Task,cb_09,44.0,temp_dist_trial,num_items,zn7si1,1.0,response,2_ITEM,1347.3999999994412,1346.7999999999886,1347.3999999994412,1347.3999999994412,1346.7999999999886,1347.3999999994412,1.0,0.0,0.0,,Click Response,2_count,5.0,object-49,temp_dist_trial,44.0,s_sh_15_1,student_shared,usb drive,9.0,competing,paired,s_sh_15_1.jpg,Student,,,sub-60
Desktop or Laptop,Windows 10,Chrome 138.0.0.0,1536x864,1536x864,Temporal Distance Task,cb_09,44.0,temp_dist_trial,dist_items,qkpkxw,2.0,info,,2.3999999994412065,0.0,2.3999999994412065,2.3999999994412065,0.0,2.3999999994412065,1.0,0.0,0.0,,Slider,Slider,4.0,object-56,temp_dist_trial,44.0,s_sh_15_1,student_shared,usb drive,9.0,competing,paired,s_sh_15_1.jpg,Student,,,sub-60
Desktop or Laptop,Windows 10,Chrome 138.0.0.0,1536x864,1536x864,Temporal Distance Task,cb_09,44.0,temp_dist_trial,dist_items,qkpkxw,2.0,continue,,2102.8999999994408,2099.0,2102.8999999994408,2102.8999999994408,2099.0,2102.8999999994408,1.0,0.0,0.0,,Click To Continue,Next button,7.0,object-60,temp_dist_trial,44.0,s_sh_15_1,student_shared,usb drive,9.0,competing,paired,s_sh_15_1.jpg,Student,,,sub-60
Desktop or Laptop,Windows 10,Chrome 138.0.0.0,1536x864,1536x864,Temporal Distance Task,cb_09,44.0,temp_dist_trial,dist_items,qkpkxw,2.0,response,31,1243.6000000000058,2099.0,2104.199999999255,1243.6000000000058,2099.0,2104.199999999255,1.0,860.5999999992491,0.0,,Slider,Slider,4.0,object-56,temp_dist_trial,44.0,s_sh_15_1,student_shared,usb drive,9.0,competing,paired,s_sh_15_1.jpg,Student,,,sub-60
Desktop or Laptop,Windows 10,Chrome 138.0.0.0,1536x864,1536x864,Temporal Distance Task,cb_09,45.0,temp_dist_trial,num_items,zn7si1,1.0,response,1_ITEM,1271.0999999996275,1267.8999999999942,1271.0999999996275,1271.0999999996275,1267.8999999999942,1271.0999999996275,1.0,0.0,0.0,,Click Response,1_count,3.0,object-46,temp_dist_trial,45.0,s_a_16_1,student_art,piano,9.0,unique,paired,s_a_16_1.jpg,Student,,,sub-60
Desktop or Laptop,Windows 10,Chrome 138.0.0.0,1536x864,1536x864,Temporal Distance Task,cb_09,46.0,temp_dist_trial,num_items,zn7si1,1.0,response,1_ITEM,1463.3999999999942,1462.1000000000058,1463.3999999999942,1463.3999999999942,1462.1000000000058,1463.3999999999942,1.0,0.0,0.0,,Click Response,1_count,3.0,object-46,temp_dist_trial,46.0,s_sh_08_1,student_shared,post-its,9.0,competing,paired,s_sh_08_1.jpg,Student,,,sub-60
Desktop or Laptop,Windows 10,Chrome 138.0.0.0,1536x864,1536x864,Temporal Distance Task,cb_09,47.0,temp_dist_trial,num_items,zn7si1,1.0,response,2_ITEM,2247.499999999447,2244.6000000000063,2247.499999999447,2247.499999999447,2244.6000000000063,2247.499999999447,1.0,0.0,0.0,,Click Response,2_count,5.0,object-49,temp_dist_trial,47.0,s_sh_07_1,student_shared,ruler,9.0,competing,single,s_sh_07_1.jpg,Student,,,sub-60
Desktop or Laptop,Windows 10,Chrome 138.0.0.0,1536x864,1536x864,Temporal Distance Task,cb_09,47.0,temp_dist_trial,dist_items,qkpkxw,2.0,info,,2.199999999429565,0.0,2.199999999429565,2.199999999429565,0.0,2.199999999429565,1.0,0.0,0.0,,Slider,Slider,4.0,object-56,temp_dist_trial,47.0,s_sh_07_1,student_shared,ruler,9.0,competing,single,s_sh_07_1.jpg,Student,,,sub-60
Desktop or Laptop,Windows 10,Chrome 138.0.0.0,1536x864,1536x864,Temporal Distance Task,cb_09,47.0,temp_dist_trial,dist_items,qkpkxw,2.0,continue,,1953.0999999998016,1947.3999999999944,1953.0999999998016,1953.0999999998016,1947.3999999999944,1953.0999999998016,1.0,0.0,0.0,,Click To Continue,Next button,7.0,object-60,temp_dist_trial,47.0,s_sh_07_1,student_shared,ruler,9.0,competing,single,s_sh_07_1.jpg,Student,,,sub-60
Desktop or Laptop,Windows 10,Chrome 138.0.0.0,1536x864,1536x864,Temporal Distance Task,cb_09,47.0,temp_dist_trial,dist_items,qkpkxw,2.0,response,39,497.5,1947.3999999999944,1953.399999999616,497.5,1947.3999999999944,1953.399999999616,1.0,1455.8999999996158,0.0,,Slider,Slider,4.0,object-56,temp_dist_trial,47.0,s_sh_07_1,student_shared,ruler,9.0,competing,single,s_sh_07_1.jpg,Student,,,sub-60
Desktop or Laptop,Windows 10,Chrome 138.0.0.0,1536x864,1536x864,Temporal Distance Task,cb_09,48.0,temp_dist_trial,num_items,zn7si1,1.0,response,1_ITEM,2146.8999999999937,2141.3999999999937,2146.8999999999937,2146.8999999999937,2141.3999999999937,2146.8999999999937,1.0,0.0,0.0,,Click Response,1_count,3.0,object-46,temp_dist_trial,48.0,s_sh_05_1,student_shared,laptop,9.0,competing,single,s_sh_05_1.jpg,Student,,,sub-60
Desktop or Laptop,Windows 10,Chrome 138.0.0.0,1536x864,1536x864,Temporal Distance Task,cb_09,2.0,temp_eventStart,Screen 1,dgtyxe,1.0,continue,,2637.9999999992433,2632.8999999999937,2637.9999999992433,2637.9999999992433,2632.8999999999937,2637.9999999992433,1.0,0.0,0.0,,Click To Continue,Next Button,3.0,object-43,temp_eventStart,,,Travel,,,,,,,,,sub-60
Desktop or Laptop,Windows 10,Chrome 138.0.0.0,1536x864,1536x864,Temporal Distance Task,cb_09,49.0,temp_dist_trial,num_items,zn7si1,1.0,response,2_ITEM,2642.9999999996217,2638.7999999999884,2642.9999999996217,2642.9999999996217,2638.7999999999884,2642.9999999996217,1.0,0.0,0.0,,Click Response,2_count,5.0,object-49,temp_dist_trial,1.0,t_i_01_1,travel_Iceland,gloves,9.0,unique,single,t_i_01_1.jpg,Travel,,,sub-60
Desktop or Laptop,Windows 10,Chrome 138.0.0.0,1536x864,1536x864,Temporal Distance Task,cb_09,49.0,temp_dist_trial,dist_items,qkpkxw,2.0,info,,2.200000000011641,0.0,2.200000000011641,2.200000000011641,0.0,2.200000000011641,1.0,0.0,0.0,,Slider,Slider,4.0,object-56,temp_dist_trial,1.0,t_i_01_1,travel_Iceland,gloves,9.0,unique,single,t_i_01_1.jpg,Travel,,,sub-60
Desktop or Laptop,Windows 10,Chrome 138.0.0.0,1536x864,1536x864,Temporal Distance Task,cb_09,49.0,temp_dist_trial,dist_items,qkpkxw,2.0,continue,,1476.2000000000116,1474.2000000000116,1476.2000000000116,1476.2000000000116,1474.2000000000116,1476.2000000000116,1.0,0.0,0.0,,Click To Continue,Next button,7.0,object-60,temp_dist_trial,1.0,t_i_01_1,travel_Iceland,gloves,9.0,unique,single,t_i_01_1.jpg,Travel,,,sub-60
Desktop or Laptop,Windows 10,Chrome 138.0.0.0,1536x864,1536x864,Temporal Distance Task,cb_09,49.0,temp_dist_trial,dist_items,qkpkxw,2.0,response,71,655.2000000000116,1474.2000000000116,1476.3999999992664,655.2000000000116,1474.2000000000116,1476.3999999992664,1.0,821.1999999992549,0.0,,Slider,Slider,4.0,object-56,temp_dist_trial,1.0,t_i_01_1,travel_Iceland,gloves,9.0,unique,single,t_i_01_1.jpg,Travel,,,sub-60
Desktop or Laptop,Windows 10,Chrome 138.0.0.0,1536x864,1536x864,Temporal Distance Task,cb_09,50.0,temp_dist_trial,num_items,zn7si1,1.0,response,2_ITEM,1255.6000000000058,1249.6000000000058,1255.6000000000058,1255.6000000000058,1249.6000000000058,1255.6000000000058,1.0,0.0,0.0,,Click Response,2_count,5.0,object-49,temp_dist_trial,2.0,t_s_08_1,travel_shared,hand lotion,9.0,competing,single,t_s_08_1.jpg,Travel,,,sub-60
Desktop or Laptop,Windows 10,Chrome 138.0.0.0,1536x864,1536x864,Temporal Distance Task,cb_09,50.0,temp_dist_trial,dist_items,qkpkxw,2.0,info,,2.199999999633292,0.0,2.199999999633292,2.199999999633292,0.0,2.199999999633292,1.0,0.0,0.0,,Slider,Slider,4.0,object-56,temp_dist_trial,2.0,t_s_08_1,travel_shared,hand lotion,9.0,competing,single,t_s_08_1.jpg,Travel,,,sub-60
Desktop or Laptop,Windows 10,Chrome 138.0.0.0,1536x864,1536x864,Temporal Distance Task,cb_09,50.0,temp_dist_trial,dist_items,qkpkxw,2.0,continue,,2024.6000000000056,2020.0,2024.6000000000056,2024.6000000000056,2020.0,2024.6000000000056,1.0,0.0,0.0,,Click To Continue,Next button,7.0,object-60,temp_dist_trial,2.0,t_s_08_1,travel_shared,hand lotion,9.0,competing,single,t_s_08_1.jpg,Travel,,,sub-60
Desktop or Laptop,Windows 10,Chrome 138.0.0.0,1536x864,1536x864,Temporal Distance Task,cb_09,50.0,temp_dist_trial,dist_items,qkpkxw,2.0,response,86,691.5,2020.0,2024.7999999992608,691.5,2020.0,2024.7999999992608,1.0,1333.2999999992608,0.0,,Slider,Slider,4.0,object-56,temp_dist_trial,2.0,t_s_08_1,travel_shared,hand lotion,9.0,competing,single,t_s_08_1.jpg,Travel,,,sub-60
Desktop or Laptop,Windows 10,Chrome 138.0.0.0,1536x864,1536x864,Temporal Distance Task,cb_09,51.0,temp_dist_trial,num_items,zn7si1,1.0,response,2_ITEM,2374.699999999633,2372.0,2374.699999999633,2374.699999999633,2372.0,2374.699999999633,1.0,0.0,0.0,,Click Response,2_count,5.0,object-49,temp_dist_trial,3.0,t_s_24_1,travel_shared,ear plugs,9.0,competing,paired,t_s_24_1.jpg,Travel,,,sub-60
Desktop or Laptop,Windows 10,Chrome 138.0.0.0,1536x864,1536x864,Temporal Distance Task,cb_09,51.0,temp_dist_trial,dist_items,qkpkxw,2.0,info,,2.599999999802094,0.0,2.599999999802094,2.599999999802094,0.0,2.599999999802094,1.0,0.0,0.0,,Slider,Slider,4.0,object-56,temp_dist_trial,3.0,t_s_24_1,travel_shared,ear plugs,9.0,competing,paired,t_s_24_1.jpg,Travel,,,sub-60
Desktop or Laptop,Windows 10,Chrome 138.0.0.0,1536x864,1536x864,Temporal Distance Task,cb_09,51.0,temp_dist_trial,dist_items,qkpkxw,2.0,continue,,2783.7999999999884,2778.3999999999933,2783.7999999999884,2783.7999999999884,2778.3999999999933,2783.7999999999884,1.0,0.0,0.0,,Click To Continue,Next button,7.0,object-60,temp_dist_trial,3.0,t_s_24_1,travel_shared,ear plugs,9.0,competing,paired,t_s_24_1.jpg,Travel,,,sub-60
Desktop or Laptop,Windows 10,Chrome 138.0.0.0,1536x864,1536x864,Temporal Distance Task,cb_09,51.0,temp_dist_trial,dist_items,qkpkxw,2.0,response,75,1231.5,2778.3999999999933,2783.9999999992438,1231.5,2778.3999999999933,2783.9999999992438,1.0,1552.4999999992428,0.0,,Slider,Slider,4.0,object-56,temp_dist_trial,3.0,t_s_24_1,travel_shared,ear plugs,9.0,competing,paired,t_s_24_1.jpg,Travel,,,sub-60
Desktop or Laptop,Windows 10,Chrome 138.0.0.0,1536x864,1536x864,Temporal Distance Task,cb_09,52.0,temp_dist_trial,num_items,zn7si1,1.0,response,1_ITEM,1312.0999999992493,1310.3999999999942,1312.0999999992493,1312.0999999992493,1310.3999999999942,1312.0999999992493,1.0,0.0,0.0,,Click Response,1_count,3.0,object-46,temp_dist_trial,4.0,t_m_13_1,travel_Miami,floatie,9.0,unique,single,t_m_13_1.jpg,Travel,,,sub-60
Desktop or Laptop,Windows 10,Chrome 138.0.0.0,1536x864,1536x864,Temporal Distance Task,cb_09,53.0,temp_dist_trial,num_items,zn7si1,1.0,response,1_ITEM,1163.1999999994296,1158.7999999999886,1163.1999999994296,1163.1999999994296,1158.7999999999886,1163.1999999994296,1.0,0.0,0.0,,Click Response,1_count,3.0,object-46,temp_dist_trial,5.0,t_i_20_1,travel_Iceland,lantern,9.0,unique,paired,t_i_20_1.jpg,Travel,,,sub-60
Desktop or Laptop,Windows 10,Chrome 138.0.0.0,1536x864,1536x864,Temporal Distance Task,cb_09,54.0,temp_dist_trial,num_items,zn7si1,1.0,response,2_ITEM,1289.6999999998081,1286.1000000000058,1289.6999999998081,1289.6999999998081,1286.1000000000058,1289.6999999998081,1.0,0.0,0.0,,Click Response,2_count,5.0,object-49,temp_dist_trial,6.0,t_s_12_1,travel_shared,clear toiletry bag,9.0,competing,paired,t_s_12_1.jpg,Travel,,,sub-60
Desktop or Laptop,Windows 10,Chrome 138.0.0.0,1536x864,1536x864,Temporal Distance Task,cb_09,54.0,temp_dist_trial,dist_items,qkpkxw,2.0,info,,2.699999999254942,0.0,2.699999999254942,2.699999999254942,0.0,2.699999999254942,1.0,0.0,0.0,,Slider,Slider,4.0,object-56,temp_dist_trial,6.0,t_s_12_1,travel_shared,clear toiletry bag,9.0,competing,paired,t_s_12_1.jpg,Travel,,,sub-60
Desktop or Laptop,Windows 10,Chrome 138.0.0.0,1536x864,1536x864,Temporal Distance Task,cb_09,54.0,temp_dist_trial,dist_items,qkpkxw,2.0,continue,,1287.1999999992552,1286.1000000000058,1287.1999999992552,1287.1999999992552,1286.1000000000058,1287.1999999992552,1.0,0.0,0.0,,Click To Continue,Next button,7.0,object-60,temp_dist_trial,6.0,t_s_12_1,travel_shared,clear toiletry bag,9.0,competing,paired,t_s_12_1.jpg,Travel,,,sub-60
Desktop or Laptop,Windows 10,Chrome 138.0.0.0,1536x864,1536x864,Temporal Distance Task,cb_09,54.0,temp_dist_trial,dist_items,qkpkxw,2.0,response,86,454.8999999999942,1286.1000000000058,1287.5,454.8999999999942,1286.1000000000058,1287.5,1.0,832.6000000000058,0.0,,Slider,Slider,4.0,object-56,temp_dist_trial,6.0,t_s_12_1,travel_shared,clear toiletry bag,9.0,competing,paired,t_s_12_1.jpg,Travel,,,sub-60
Desktop or Laptop,Windows 10,Chrome 138.0.0.0,1536x864,1536x864,Temporal Distance Task,cb_09,55.0,temp_dist_trial,num_items,zn7si1,1.0,response,2_ITEM,1746.1999999998081,1741.0,1746.1999999998081,1746.1999999998081,1741.0,1746.1999999998081,1.0,0.0,0.0,,Click Response,2_count,5.0,object-49,temp_dist_trial,7.0,t_m_11_1,travel_Miami,collapsible beach chair,9.0,unique,single,t_m_11_1.jpg,Travel,,,sub-60
Desktop or Laptop,Windows 10,Chrome 138.0.0.0,1536x864,1536x864,Temporal Distance Task,cb_09,55.0,temp_dist_trial,dist_items,qkpkxw,2.0,info,,2.7999999992607627,0.0,2.7999999992607627,2.7999999992607627,0.0,2.7999999992607627,1.0,0.0,0.0,,Slider,Slider,4.0,object-56,temp_dist_trial,7.0,t_m_11_1,travel_Miami,collapsible beach chair,9.0,unique,single,t_m_11_1.jpg,Travel,,,sub-60
Desktop or Laptop,Windows 10,Chrome 138.0.0.0,1536x864,1536x864,Temporal Distance Task,cb_09,55.0,temp_dist_trial,dist_items,qkpkxw,2.0,continue,,1796.999999999447,1795.6000000000058,1796.999999999447,1796.999999999447,1795.6000000000058,1796.999999999447,1.0,0.0,0.0,,Click To Continue,Next button,7.0,object-60,temp_dist_trial,7.0,t_m_11_1,travel_Miami,collapsible beach chair,9.0,unique,single,t_m_11_1.jpg,Travel,,,sub-60
Desktop or Laptop,Windows 10,Chrome 138.0.0.0,1536x864,1536x864,Temporal Distance Task,cb_09,55.0,temp_dist_trial,dist_items,qkpkxw,2.0,response,62,952.3999999999942,1795.6000000000058,1797.1999999996333,952.3999999999942,1795.6000000000058,1797.1999999996333,1.0,844.7999999996391,0.0,,Slider,Slider,4.0,object-56,temp_dist_trial,7.0,t_m_11_1,travel_Miami,collapsible beach chair,9.0,unique,single,t_m_11_1.jpg,Travel,,,sub-60
Desktop or Laptop,Windows 10,Chrome 138.0.0.0,1536x864,1536x864,Temporal Distance Task,cb_09,56.0,temp_dist_trial,num_items,zn7si1,1.0,response,2_ITEM,1974.3999999994405,1971.7000000000119,1974.3999999994405,1974.3999999994405,1971.7000000000119,1974.3999999994405,1.0,0.0,0.0,,Click Response,2_count,5.0,object-49,temp_dist_trial,8.0,t_m_18_1,travel_Miami,waterproof tote,9.0,unique,paired,t_m_18_1.jpg,Travel,,,sub-60
Desktop or Laptop,Windows 10,Chrome 138.0.0.0,1536x864,1536x864,Temporal Distance Task,cb_09,56.0,temp_dist_trial,dist_items,qkpkxw,2.0,info,,2.599999999452848,0.0,2.599999999452848,2.599999999452848,0.0,2.599999999452848,1.0,0.0,0.0,,Slider,Slider,4.0,object-56,temp_dist_trial,8.0,t_m_18_1,travel_Miami,waterproof tote,9.0,unique,paired,t_m_18_1.jpg,Travel,,,sub-60
Desktop or Laptop,Windows 10,Chrome 138.0.0.0,1536x864,1536x864,Temporal Distance Task,cb_09,56.0,temp_dist_trial,dist_items,qkpkxw,2.0,continue,,1676.0999999994528,1674.5,1676.0999999994528,1676.0999999994528,1674.5,1676.0999999994528,1.0,0.0,0.0,,Click To Continue,Next button,7.0,object-60,temp_dist_trial,8.0,t_m_18_1,travel_Miami,waterproof tote,9.0,unique,paired,t_m_18_1.jpg,Travel,,,sub-60
Desktop or Laptop,Windows 10,Chrome 138.0.0.0,1536x864,1536x864,Temporal Distance Task,cb_09,56.0,temp_dist_trial,dist_items,qkpkxw,2.0,response,18,618.9000000000233,1674.5,1676.2999999996387,618.9000000000233,1674.5,1676.2999999996387,1.0,1057.3999999996158,0.0,,Slider,Slider,4.0,object-56,temp_dist_trial,8.0,t_m_18_1,travel_Miami,waterproof tote,9.0,unique,paired,t_m_18_1.jpg,Travel,,,sub-60
Desktop or Laptop,Windows 10,Chrome 138.0.0.0,1536x864,1536x864,Temporal Distance Task,cb_09,57.0,temp_dist_trial,num_items,zn7si1,1.0,response,2_ITEM,1967.5999999994528,1965.5,1967.5999999994528,1967.5999999994528,1965.5,1967.5999999994528,1.0,0.0,0.0,,Click Response,2_count,5.0,object-49,temp_dist_trial,9.0,t_s_15_1,travel_shared,luggage tag,9.0,competing,paired,t_s_15_1.jpg,Travel,,,sub-60
Desktop or Laptop,Windows 10,Chrome 138.0.0.0,1536x864,1536x864,Temporal Distance Task,cb_09,57.0,temp_dist_trial,dist_items,qkpkxw,2.0,info,,2.4999999996216498,0.0,2.4999999996216498,2.4999999996216498,0.0,2.4999999996216498,1.0,0.0,0.0,,Slider,Slider,4.0,object-56,temp_dist_trial,9.0,t_s_15_1,travel_shared,luggage tag,9.0,competing,paired,t_s_15_1.jpg,Travel,,,sub-60
Desktop or Laptop,Windows 10,Chrome 138.0.0.0,1536x864,1536x864,Temporal Distance Task,cb_09,57.0,temp_dist_trial,dist_items,qkpkxw,2.0,continue,,1406.3999999999942,1401.3999999999942,1406.3999999999942,1406.3999999999942,1401.3999999999942,1406.3999999999942,1.0,0.0,0.0,,Click To Continue,Next button,7.0,object-60,temp_dist_trial,9.0,t_s_15_1,travel_shared,luggage tag,9.0,competing,paired,t_s_15_1.jpg,Travel,,,sub-60
Desktop or Laptop,Windows 10,Chrome 138.0.0.0,1536x864,1536x864,Temporal Distance Task,cb_09,57.0,temp_dist_trial,dist_items,qkpkxw,2.0,response,36,594.5,1401.3999999999942,1406.5999999992493,594.5,1401.3999999999942,1406.5999999992493,1.0,812.0999999992491,0.0,,Slider,Slider,4.0,object-56,temp_dist_trial,9.0,t_s_15_1,travel_shared,luggage tag,9.0,competing,paired,t_s_15_1.jpg,Travel,,,sub-60
Desktop or Laptop,Windows 10,Chrome 138.0.0.0,1536x864,1536x864,Temporal Distance Task,cb_09,58.0,temp_dist_trial,num_items,zn7si1,1.0,response,2_ITEM,1880.1999999992554,1874.5,1880.1999999992554,1880.1999999992554,1874.5,1880.1999999992554,1.0,0.0,0.0,,Click Response,2_count,5.0,object-49,temp_dist_trial,10.0,t_i_04_1,travel_Iceland,portable camping stove,9.0,unique,paired,t_i_04_1.jpg,Travel,,,sub-60
Desktop or Laptop,Windows 10,Chrome 138.0.0.0,1536x864,1536x864,Temporal Distance Task,cb_09,58.0,temp_dist_trial,dist_items,qkpkxw,2.0,info,,2.599999999802094,0.0,2.599999999802094,2.599999999802094,0.0,2.599999999802094,1.0,0.0,0.0,,Slider,Slider,4.0,object-56,temp_dist_trial,10.0,t_i_04_1,travel_Iceland,portable camping stove,9.0,unique,paired,t_i_04_1.jpg,Travel,,,sub-60
Desktop or Laptop,Windows 10,Chrome 138.0.0.0,1536x864,1536x864,Temporal Distance Task,cb_09,58.0,temp_dist_trial,dist_items,qkpkxw,2.0,continue,,2614.6999999994296,2608.599999999977,2614.6999999994296,2614.6999999994296,2608.599999999977,2614.6999999994296,1.0,0.0,0.0,,Click To Continue,Next button,7.0,object-60,temp_dist_trial,10.0,t_i_04_1,travel_Iceland,portable camping stove,9.0,unique,paired,t_i_04_1.jpg,Travel,,,sub-60
Desktop or Laptop,Windows 10,Chrome 138.0.0.0,1536x864,1536x864,Temporal Distance Task,cb_09,58.0,temp_dist_trial,dist_items,qkpkxw,2.0,response,65,1043.3999999999942,2608.599999999977,2614.699999999953,1043.3999999999942,2608.599999999977,2614.699999999953,1.0,1571.299999999959,0.0,,Slider,Slider,4.0,object-56,temp_dist_trial,10.0,t_i_04_1,travel_Iceland,portable camping stove,9.0,unique,paired,t_i_04_1.jpg,Travel,,,sub-60
Desktop or Laptop,Windows 10,Chrome 138.0.0.0,1536x864,1536x864,Temporal Distance Task,cb_09,59.0,temp_dist_trial,num_items,zn7si1,1.0,response,1_ITEM,2462.9000000000233,2456.9000000000233,2462.9000000000233,2462.9000000000233,2456.9000000000233,2462.9000000000233,1.0,0.0,0.0,,Click Response,1_count,3.0,object-46,temp_dist_trial,11.0,t_m_05_1,travel_Miami,sunscreen,9.0,unique,single,t_m_05_1.jpg,Travel,,,sub-60
Desktop or Laptop,Windows 10,Chrome 138.0.0.0,1536x864,1536x864,Temporal Distance Task,cb_09,60.0,temp_dist_trial,num_items,zn7si1,1.0,response,1_ITEM,2861.3999999994408,2857.2999999999884,2861.3999999994408,2861.3999999994408,2857.2999999999884,2861.3999999994408,1.0,0.0,0.0,,Click Response,1_count,3.0,object-46,temp_dist_trial,12.0,t_s_17_1,travel_shared,toothbrush,9.0,competing,single,t_s_17_1.jpg,Travel,,,sub-60
Desktop or Laptop,Windows 10,Chrome 138.0.0.0,1536x864,1536x864,Temporal Distance Task,cb_09,61.0,temp_dist_trial,num_items,zn7si1,1.0,response,1_ITEM,2713.5999999996275,2711.700000000012,2713.5999999996275,2713.5999999996275,2711.700000000012,2713.5999999996275,1.0,0.0,0.0,,Click Response,1_count,3.0,object-46,temp_dist_trial,13.0,t_s_18_1,travel_shared,first aid kit,9.0,competing,single,t_s_18_1.jpg,Travel,,,sub-60
Desktop or Laptop,Windows 10,Chrome 138.0.0.0,1536x864,1536x864,Temporal Distance Task,cb_09,62.0,temp_dist_trial,num_items,zn7si1,1.0,response,2_ITEM,1294.8999999994412,1292.1000000000058,1294.8999999994412,1294.8999999994412,1292.1000000000058,1294.8999999994412,1.0,0.0,0.0,,Click Response,2_count,5.0,object-49,temp_dist_trial,14.0,t_s_10_1,travel_shared,luggage lock,9.0,competing,paired,t_s_10_1.jpg,Travel,,,sub-60
Desktop or Laptop,Windows 10,Chrome 138.0.0.0,1536x864,1536x864,Temporal Distance Task,cb_09,62.0,temp_dist_trial,dist_items,qkpkxw,2.0,info,,2.499999999825377,0.0,2.499999999825377,2.499999999825377,0.0,2.499999999825377,1.0,0.0,0.0,,Slider,Slider,4.0,object-56,temp_dist_trial,14.0,t_s_10_1,travel_shared,luggage lock,9.0,competing,paired,t_s_10_1.jpg,Travel,,,sub-60
Desktop or Laptop,Windows 10,Chrome 138.0.0.0,1536x864,1536x864,Temporal Distance Task,cb_09,62.0,temp_dist_trial,dist_items,qkpkxw,2.0,continue,,2280.0999999994533,2274.9000000000233,2280.0999999994533,2280.0999999994533,2274.9000000000233,2280.0999999994533,1.0,0.0,0.0,,Click To Continue,Next button,7.0,object-60,temp_dist_trial,14.0,t_s_10_1,travel_shared,luggage lock,9.0,competing,paired,t_s_10_1.jpg,Travel,,,sub-60
Desktop or Laptop,Windows 10,Chrome 138.0.0.0,1536x864,1536x864,Temporal Distance Task,cb_09,62.0,temp_dist_trial,dist_items,qkpkxw,2.0,response,92,521.7000000000116,2274.9000000000233,2280.3999999992666,521.7000000000116,2274.9000000000233,2280.3999999992666,1.0,1758.6999999992554,0.0,,Slider,Slider,4.0,object-56,temp_dist_trial,14.0,t_s_10_1,travel_shared,luggage lock,9.0,competing,paired,t_s_10_1.jpg,Travel,,,sub-60
Desktop or Laptop,Windows 10,Chrome 138.0.0.0,1536x864,1536x864,Temporal Distance Task,cb_09,63.0,temp_dist_trial,num_items,zn7si1,1.0,response,2_ITEM,1369.2999999999886,1365.0,1369.2999999999886,1369.2999999999886,1365.0,1369.2999999999886,1.0,0.0,0.0,,Click Response,2_count,5.0,object-49,temp_dist_trial,15.0,t_i_08_1,travel_Iceland,thick socks,9.0,unique,paired,t_i_08_1.jpg,Travel,,,sub-60
Desktop or Laptop,Windows 10,Chrome 138.0.0.0,1536x864,1536x864,Temporal Distance Task,cb_09,63.0,temp_dist_trial,dist_items,qkpkxw,2.0,info,,2.4999999994470268,0.0,2.4999999994470268,2.4999999994470268,0.0,2.4999999994470268,1.0,0.0,0.0,,Slider,Slider,4.0,object-56,temp_dist_trial,15.0,t_i_08_1,travel_Iceland,thick socks,9.0,unique,paired,t_i_08_1.jpg,Travel,,,sub-60
Desktop or Laptop,Windows 10,Chrome 138.0.0.0,1536x864,1536x864,Temporal Distance Task,cb_09,63.0,temp_dist_trial,dist_items,qkpkxw,2.0,continue,,1711.6000000000058,1710.8000000000175,1711.6000000000058,1711.6000000000058,1710.8000000000175,1711.6000000000058,1.0,0.0,0.0,,Click To Continue,Next button,7.0,object-60,temp_dist_trial,15.0,t_i_08_1,travel_Iceland,thick socks,9.0,unique,paired,t_i_08_1.jpg,Travel,,,sub-60
Desktop or Laptop,Windows 10,Chrome 138.0.0.0,1536x864,1536x864,Temporal Distance Task,cb_09,63.0,temp_dist_trial,dist_items,qkpkxw,2.0,response,90,594.6000000000057,1710.8000000000175,1711.8999999998196,594.6000000000057,1710.8000000000175,1711.8999999998196,1.0,1117.2999999998137,0.0,,Slider,Slider,4.0,object-56,temp_dist_trial,15.0,t_i_08_1,travel_Iceland,thick socks,9.0,unique,paired,t_i_08_1.jpg,Travel,,,sub-60
Desktop or Laptop,Windows 10,Chrome 138.0.0.0,1536x864,1536x864,Temporal Distance Task,cb_09,64.0,temp_dist_trial,num_items,zn7si1,1.0,response,2_ITEM,1536.2999999999884,1534.7999999999884,1536.2999999999884,1536.2999999999884,1534.7999999999884,1536.2999999999884,1.0,0.0,0.0,,Click Response,2_count,5.0,object-49,temp_dist_trial,16.0,t_s_04_1,travel_shared,instant camera,9.0,competing,paired,t_s_04_1.jpg,Travel,,,sub-60
Desktop or Laptop,Windows 10,Chrome 138.0.0.0,1536x864,1536x864,Temporal Distance Task,cb_09,64.0,temp_dist_trial,dist_items,qkpkxw,2.0,info,,2.4999999992433004,0.0,2.4999999992433004,2.4999999992433004,0.0,2.4999999992433004,1.0,0.0,0.0,,Slider,Slider,4.0,object-56,temp_dist_trial,16.0,t_s_04_1,travel_shared,instant camera,9.0,competing,paired,t_s_04_1.jpg,Travel,,,sub-60
Desktop or Laptop,Windows 10,Chrome 138.0.0.0,1536x864,1536x864,Temporal Distance Task,cb_09,64.0,temp_dist_trial,dist_items,qkpkxw,2.0,continue,,2605.3999999996163,2602.5,2605.3999999996163,2605.3999999996163,2602.5,2605.3999999996163,1.0,0.0,0.0,,Click To Continue,Next button,7.0,object-60,temp_dist_trial,16.0,t_s_04_1,travel_shared,instant camera,9.0,competing,paired,t_s_04_1.jpg,Travel,,,sub-60
Desktop or Laptop,Windows 10,Chrome 138.0.0.0,1536x864,1536x864,Temporal Distance Task,cb_09,64.0,temp_dist_trial,dist_items,qkpkxw,2.0,response,60,540.0,2602.5,2607.1999999994296,540.0,2602.5,2607.1999999994296,1.0,2067.1999999994296,0.0,,Slider,Slider,4.0,object-56,temp_dist_trial,16.0,t_s_04_1,travel_shared,instant camera,9.0,competing,paired,t_s_04_1.jpg,Travel,,,sub-60
Desktop or Laptop,Windows 10,Chrome 138.0.0.0,1536x864,1536x864,Temporal Distance Task,cb_09,65.0,temp_dist_trial,num_items,zn7si1,1.0,response,2_ITEM,1323.9999999992433,1322.5,1323.9999999992433,1323.9999999992433,1322.5,1323.9999999992433,1.0,0.0,0.0,,Click Response,2_count,5.0,object-49,temp_dist_trial,17.0,t_m_15_1,travel_Miami,shorts,9.0,unique,paired,t_m_15_1.jpg,Travel,,,sub-60
Desktop or Laptop,Windows 10,Chrome 138.0.0.0,1536x864,1536x864,Temporal Distance Task,cb_09,65.0,temp_dist_trial,dist_items,qkpkxw,2.0,info,,2.5,0.0,2.5,2.5,0.0,2.5,1.0,0.0,0.0,,Slider,Slider,4.0,object-56,temp_dist_trial,17.0,t_m_15_1,travel_Miami,shorts,9.0,unique,paired,t_m_15_1.jpg,Travel,,,sub-60
Desktop or Laptop,Windows 10,Chrome 138.0.0.0,1536x864,1536x864,Temporal Distance Task,cb_09,65.0,temp_dist_trial,dist_items,qkpkxw,2.0,continue,,1984.6999999992554,1983.7000000000119,1984.6999999992554,1984.6999999992554,1983.7000000000119,1984.6999999992554,1.0,0.0,0.0,,Click To Continue,Next button,7.0,object-60,temp_dist_trial,17.0,t_m_15_1,travel_Miami,shorts,9.0,unique,paired,t_m_15_1.jpg,Travel,,,sub-60
Desktop or Laptop,Windows 10,Chrome 138.0.0.0,1536x864,1536x864,Temporal Distance Task,cb_09,65.0,temp_dist_trial,dist_items,qkpkxw,2.0,response,40,370.1000000000058,1983.7000000000119,1985.0,370.1000000000058,1983.7000000000119,1985.0,1.0,1614.8999999999942,0.0,,Slider,Slider,4.0,object-56,temp_dist_trial,17.0,t_m_15_1,travel_Miami,shorts,9.0,unique,paired,t_m_15_1.jpg,Travel,,,sub-60
Desktop or Laptop,Windows 10,Chrome 138.0.0.0,1536x864,1536x864,Temporal Distance Task,cb_09,66.0,temp_dist_trial,num_items,zn7si1,1.0,response,num_miss,3002.8999999999933,3002.8999999999933,3002.8999999999933,3002.8999999999933,3002.8999999999933,3002.8999999999933,1.0,0.0,0.0,num_miss_tag,Time Limit,screen,0.0,screen,temp_dist_trial,18.0,t_m_09_1,travel_Miami,beach towel,9.0,unique,single,t_m_09_1.jpg,Travel,,,sub-60
Desktop or Laptop,Windows 10,Chrome 138.0.0.0,1536x864,1536x864,Temporal Distance Task,cb_09,67.0,temp_dist_trial,num_items,zn7si1,1.0,response,1_ITEM,2099.999999999418,2099.0,2099.999999999418,2099.999999999418,2099.0,2099.999999999418,1.0,0.0,0.0,,Click Response,1_count,3.0,object-46,temp_dist_trial,19.0,t_i_18_1,travel_Iceland,ski mask,9.0,unique,paired,t_i_18_1.jpg,Travel,,,sub-60
Desktop or Laptop,Windows 10,Chrome 138.0.0.0,1536x864,1536x864,Temporal Distance Task,cb_09,68.0,temp_dist_trial,num_items,zn7si1,1.0,response,1_ITEM,2175.5999999996275,2171.7999999999884,2175.5999999996275,2175.5999999996275,2171.7999999999884,2175.5999999996275,1.0,0.0,0.0,,Click Response,1_count,3.0,object-46,temp_dist_trial,20.0,t_s_06_1,travel_shared,luggage,9.0,competing,paired,t_s_06_1.jpg,Travel,,,sub-60
Desktop or Laptop,Windows 10,Chrome 138.0.0.0,1536x864,1536x864,Temporal Distance Task,cb_09,69.0,temp_dist_trial,num_items,zn7si1,1.0,response,1_ITEM,1158.600000000035,1152.600000000035,1158.600000000035,1158.600000000035,1152.600000000035,1158.600000000035,1.0,0.0,0.0,,Click Response,1_count,3.0,object-46,temp_dist_trial,21.0,t_s_19_1,travel_shared,pajamas,9.0,competing,paired,t_s_19_1.jpg,Travel,,,sub-60
Desktop or Laptop,Windows 10,Chrome 138.0.0.0,1536x864,1536x864,Temporal Distance Task,cb_09,70.0,temp_dist_trial,num_items,zn7si1,1.0,response,1_ITEM,2003.7999999992319,2002.0,2003.7999999992319,2003.7999999992319,2002.0,2003.7999999992319,1.0,0.0,0.0,,Click Response,1_count,3.0,object-46,temp_dist_trial,22.0,t_s_01_1,travel_shared,fanny pack,9.0,competing,paired,t_s_01_1.jpg,Travel,,,sub-60
Desktop or Laptop,Windows 10,Chrome 138.0.0.0,1536x864,1536x864,Temporal Distance Task,cb_09,71.0,temp_dist_trial,num_items,zn7si1,1.0,response,1_ITEM,1978.9000000000235,1977.8000000000463,1978.9000000000235,1978.9000000000235,1977.8000000000463,1978.9000000000235,1.0,0.0,0.0,,Click Response,1_count,3.0,object-46,temp_dist_trial,23.0,t_s_23_1,travel_shared,ball cap,9.0,competing,paired,t_s_23_1.jpg,Travel,,,sub-60
Desktop or Laptop,Windows 10,Chrome 138.0.0.0,1536x864,1536x864,Temporal Distance Task,cb_09,72.0,temp_dist_trial,num_items,zn7si1,1.0,response,2_ITEM,1483.1999999992554,1480.2000000000116,1483.1999999992554,1483.1999999992554,1480.2000000000116,1483.1999999992554,1.0,0.0,0.0,,Click Response,2_count,5.0,object-49,temp_dist_trial,24.0,t_s_16_1,travel_shared,chapstick,9.0,competing,paired,t_s_16_1.jpg,Travel,,,sub-60
Desktop or Laptop,Windows 10,Chrome 138.0.0.0,1536x864,1536x864,Temporal Distance Task,cb_09,72.0,temp_dist_trial,dist_items,qkpkxw,2.0,info,,2.3999999994412065,0.0,2.3999999994412065,2.3999999994412065,0.0,2.3999999994412065,1.0,0.0,0.0,,Slider,Slider,4.0,object-56,temp_dist_trial,24.0,t_s_16_1,travel_shared,chapstick,9.0,competing,paired,t_s_16_1.jpg,Travel,,,sub-60
Desktop or Laptop,Windows 10,Chrome 138.0.0.0,1536x864,1536x864,Temporal Distance Task,cb_09,72.0,temp_dist_trial,dist_items,qkpkxw,2.0,continue,,2652.5999999996275,2651.099999999977,2652.5999999996275,2652.5999999996275,2651.099999999977,2652.5999999996275,1.0,0.0,0.0,,Click To Continue,Next button,7.0,object-60,temp_dist_trial,24.0,t_s_16_1,travel_shared,chapstick,9.0,competing,paired,t_s_16_1.jpg,Travel,,,sub-60
Desktop or Laptop,Windows 10,Chrome 138.0.0.0,1536x864,1536x864,Temporal Distance Task,cb_09,72.0,temp_dist_trial,dist_items,qkpkxw,2.0,response,28,1286.0,2651.099999999977,2653.699999999255,1286.0,2651.099999999977,2653.699999999255,1.0,1367.6999999992552,0.0,,Slider,Slider,4.0,object-56,temp_dist_trial,24.0,t_s_16_1,travel_shared,chapstick,9.0,competing,paired,t_s_16_1.jpg,Travel,,,sub-60
Desktop or Laptop,Windows 10,Chrome 138.0.0.0,1536x864,1536x864,Temporal Distance Task,cb_09,73.0,temp_dist_trial,num_items,zn7si1,1.0,response,2_ITEM,1372.0999999992782,1370.9000000000233,1372.0999999992782,1372.0999999992782,1370.9000000000233,1372.0999999992782,1.0,0.0,0.0,,Click Response,2_count,5.0,object-49,temp_dist_trial,25.0,t_m_16_1,travel_Miami,flippers,9.0,unique,paired,t_m_16_1.jpg,Travel,,,sub-60
Desktop or Laptop,Windows 10,Chrome 138.0.0.0,1536x864,1536x864,Temporal Distance Task,cb_09,73.0,temp_dist_trial,dist_items,qkpkxw,2.0,info,,2.4999999992433004,0.0,2.4999999992433004,2.4999999992433004,0.0,2.4999999992433004,1.0,0.0,0.0,,Slider,Slider,4.0,object-56,temp_dist_trial,25.0,t_m_16_1,travel_Miami,flippers,9.0,unique,paired,t_m_16_1.jpg,Travel,,,sub-60
Desktop or Laptop,Windows 10,Chrome 138.0.0.0,1536x864,1536x864,Temporal Distance Task,cb_09,73.0,temp_dist_trial,dist_items,qkpkxw,2.0,continue,,1636.9999999992428,1631.8999999999646,1636.9999999992428,1636.9999999992428,1631.8999999999646,1636.9999999992428,1.0,0.0,0.0,,Click To Continue,Next button,7.0,object-60,temp_dist_trial,25.0,t_m_16_1,travel_Miami,flippers,9.0,unique,paired,t_m_16_1.jpg,Travel,,,sub-60
Desktop or Laptop,Windows 10,Chrome 138.0.0.0,1536x864,1536x864,Temporal Distance Task,cb_09,73.0,temp_dist_trial,dist_items,qkpkxw,2.0,response,26,594.5,1631.8999999999646,1637.2999999999884,594.5,1631.8999999999646,1637.2999999999884,1.0,1042.7999999999884,0.0,,Slider,Slider,4.0,object-56,temp_dist_trial,25.0,t_m_16_1,travel_Miami,flippers,9.0,unique,paired,t_m_16_1.jpg,Travel,,,sub-60
Desktop or Laptop,Windows 10,Chrome 138.0.0.0,1536x864,1536x864,Temporal Distance Task,cb_09,74.0,temp_dist_trial,num_items,zn7si1,1.0,response,2_ITEM,2145.9000000000233,2141.5,2145.9000000000233,2145.9000000000233,2141.5,2145.9000000000233,1.0,0.0,0.0,,Click Response,2_count,5.0,object-49,temp_dist_trial,26.0,t_i_14_1,travel_Iceland,snow pants,9.0,unique,paired,t_i_14_1.jpg,Travel,,,sub-60
Desktop or Laptop,Windows 10,Chrome 138.0.0.0,1536x864,1536x864,Temporal Distance Task,cb_09,74.0,temp_dist_trial,dist_items,qkpkxw,2.0,info,,2.3999999997904524,0.0,2.3999999997904524,2.3999999997904524,0.0,2.3999999997904524,1.0,0.0,0.0,,Slider,Slider,4.0,object-56,temp_dist_trial,26.0,t_i_14_1,travel_Iceland,snow pants,9.0,unique,paired,t_i_14_1.jpg,Travel,,,sub-60
Desktop or Laptop,Windows 10,Chrome 138.0.0.0,1536x864,1536x864,Temporal Distance Task,cb_09,74.0,temp_dist_trial,dist_items,qkpkxw,2.0,continue,,2495.6999999996037,2493.2999999999884,2495.6999999996037,2495.6999999996037,2493.2999999999884,2495.6999999996037,1.0,0.0,0.0,,Click To Continue,Next button,7.0,object-60,temp_dist_trial,26.0,t_i_14_1,travel_Iceland,snow pants,9.0,unique,paired,t_i_14_1.jpg,Travel,,,sub-60
Desktop or Laptop,Windows 10,Chrome 138.0.0.0,1536x864,1536x864,Temporal Distance Task,cb_09,74.0,temp_dist_trial,dist_items,qkpkxw,2.0,response,79,709.7999999999884,2493.2999999999884,2495.999999999418,709.7999999999884,2493.2999999999884,2495.999999999418,1.0,1786.1999999994296,0.0,,Slider,Slider,4.0,object-56,temp_dist_trial,26.0,t_i_14_1,travel_Iceland,snow pants,9.0,unique,paired,t_i_14_1.jpg,Travel,,,sub-60
Desktop or Laptop,Windows 10,Chrome 138.0.0.0,1536x864,1536x864,Temporal Distance Task,cb_09,75.0,temp_dist_trial,num_items,zn7si1,1.0,response,2_ITEM,1385.2999999999884,1383.0999999999767,1385.2999999999884,1385.2999999999884,1383.0999999999767,1385.2999999999884,1.0,0.0,0.0,,Click Response,2_count,5.0,object-49,temp_dist_trial,27.0,t_s_20_1,travel_shared,travel pill case,9.0,competing,single,t_s_20_1.jpg,Travel,,,sub-60
Desktop or Laptop,Windows 10,Chrome 138.0.0.0,1536x864,1536x864,Temporal Distance Task,cb_09,75.0,temp_dist_trial,dist_items,qkpkxw,2.0,info,,2.799999999464489,0.0,2.799999999464489,2.799999999464489,0.0,2.799999999464489,1.0,0.0,0.0,,Slider,Slider,4.0,object-56,temp_dist_trial,27.0,t_s_20_1,travel_shared,travel pill case,9.0,competing,single,t_s_20_1.jpg,Travel,,,sub-60
Desktop or Laptop,Windows 10,Chrome 138.0.0.0,1536x864,1536x864,Temporal Distance Task,cb_09,75.0,temp_dist_trial,dist_items,qkpkxw,2.0,continue,,1570.2999999994645,1565.2000000000116,1570.2999999994645,1570.2999999994645,1565.2000000000116,1570.2999999994645,1.0,0.0,0.0,,Click To Continue,Next button,7.0,object-60,temp_dist_trial,27.0,t_s_20_1,travel_shared,travel pill case,9.0,competing,single,t_s_20_1.jpg,Travel,,,sub-60
Desktop or Laptop,Windows 10,Chrome 138.0.0.0,1536x864,1536x864,Temporal Distance Task,cb_09,75.0,temp_dist_trial,dist_items,qkpkxw,2.0,response,88,630.9000000000233,1565.2000000000116,1571.2999999999884,630.9000000000233,1565.2000000000116,1571.2999999999884,1.0,940.3999999999652,0.0,,Slider,Slider,4.0,object-56,temp_dist_trial,27.0,t_s_20_1,travel_shared,travel pill case,9.0,competing,single,t_s_20_1.jpg,Travel,,,sub-60
Desktop or Laptop,Windows 10,Chrome 138.0.0.0,1536x864,1536x864,Temporal Distance Task,cb_09,76.0,temp_dist_trial,num_items,zn7si1,1.0,response,2_ITEM,1970.2000000000119,1965.4000000000235,1970.2000000000119,1970.2000000000119,1965.4000000000235,1970.2000000000119,1.0,0.0,0.0,,Click Response,2_count,5.0,object-49,temp_dist_trial,28.0,t_s_07_1,travel_shared,phone charger cable,9.0,competing,single,t_s_07_1.jpg,Travel,,,sub-60
Desktop or Laptop,Windows 10,Chrome 138.0.0.0,1536x864,1536x864,Temporal Distance Task,cb_09,76.0,temp_dist_trial,dist_items,qkpkxw,2.0,info,,2.2999999998137355,0.0,2.2999999998137355,2.2999999998137355,0.0,2.2999999998137355,1.0,0.0,0.0,,Slider,Slider,4.0,object-56,temp_dist_trial,28.0,t_s_07_1,travel_shared,phone charger cable,9.0,competing,single,t_s_07_1.jpg,Travel,,,sub-60
Desktop or Laptop,Windows 10,Chrome 138.0.0.0,1536x864,1536x864,Temporal Distance Task,cb_09,76.0,temp_dist_trial,dist_items,qkpkxw,2.0,continue,,1192.8999999994412,1189.0999999999767,1192.8999999994412,1192.8999999994412,1189.0999999999767,1192.8999999994412,1.0,0.0,0.0,,Click To Continue,Next button,7.0,object-60,temp_dist_trial,28.0,t_s_07_1,travel_shared,phone charger cable,9.0,competing,single,t_s_07_1.jpg,Travel,,,sub-60
Desktop or Laptop,Windows 10,Chrome 138.0.0.0,1536x864,1536x864,Temporal Distance Task,cb_09,76.0,temp_dist_trial,dist_items,qkpkxw,2.0,response,68,418.5999999999767,1189.0999999999767,1193.1999999992552,418.5999999999767,1189.0999999999767,1193.1999999992552,1.0,774.5999999992782,0.0,,Slider,Slider,4.0,object-56,temp_dist_trial,28.0,t_s_07_1,travel_shared,phone charger cable,9.0,competing,single,t_s_07_1.jpg,Travel,,,sub-60
Desktop or Laptop,Windows 10,Chrome 138.0.0.0,1536x864,1536x864,Temporal Distance Task,cb_09,77.0,temp_dist_trial,num_items,zn7si1,1.0,response,1_ITEM,1508.7999999994645,1504.5,1508.7999999994645,1508.7999999994645,1504.5,1508.7999999994645,1.0,0.0,0.0,,Click Response,1_count,3.0,object-46,temp_dist_trial,29.0,t_i_10_1,travel_Iceland,trekking poles,9.0,unique,paired,t_i_10_1.jpg,Travel,,,sub-60
Desktop or Laptop,Windows 10,Chrome 138.0.0.0,1536x864,1536x864,Temporal Distance Task,cb_09,78.0,temp_dist_trial,num_items,zn7si1,1.0,response,1_ITEM,2032.7999999996387,2032.2000000000119,2032.7999999996387,2032.7999999996387,2032.2000000000119,2032.7999999996387,1.0,0.0,0.0,,Click Response,1_count,3.0,object-46,temp_dist_trial,30.0,t_s_03_1,travel_shared,portable charger,9.0,competing,paired,t_s_03_1.jpg,Travel,,,sub-60
Desktop or Laptop,Windows 10,Chrome 138.0.0.0,1536x864,1536x864,Temporal Distance Task,cb_09,79.0,temp_dist_trial,num_items,zn7si1,1.0,response,2_ITEM,1604.7000000000116,1601.5,1604.7000000000116,1604.7000000000116,1601.5,1604.7000000000116,1.0,0.0,0.0,,Click Response,2_count,5.0,object-49,temp_dist_trial,31.0,t_s_09_1,travel_shared,wallet,9.0,competing,paired,t_s_09_1.jpg,Travel,,,sub-60
Desktop or Laptop,Windows 10,Chrome 138.0.0.0,1536x864,1536x864,Temporal Distance Task,cb_09,79.0,temp_dist_trial,dist_items,qkpkxw,2.0,info,,2.099999999278225,0.0,2.099999999278225,2.099999999278225,0.0,2.099999999278225,1.0,0.0,0.0,,Slider,Slider,4.0,object-56,temp_dist_trial,31.0,t_s_09_1,travel_shared,wallet,9.0,competing,paired,t_s_09_1.jpg,Travel,,,sub-60
Desktop or Laptop,Windows 10,Chrome 138.0.0.0,1536x864,1536x864,Temporal Distance Task,cb_09,79.0,temp_dist_trial,dist_items,qkpkxw,2.0,continue,,1554.499999999651,1553.0,1554.499999999651,1554.499999999651,1553.0,1554.499999999651,1.0,0.0,0.0,,Click To Continue,Next button,7.0,object-60,temp_dist_trial,31.0,t_s_09_1,travel_shared,wallet,9.0,competing,paired,t_s_09_1.jpg,Travel,,,sub-60
Desktop or Laptop,Windows 10,Chrome 138.0.0.0,1536x864,1536x864,Temporal Distance Task,cb_09,79.0,temp_dist_trial,dist_items,qkpkxw,2.0,response,38,467.10000000003487,1553.0,1557.5999999992782,467.10000000003487,1553.0,1557.5999999992782,1.0,1090.4999999992433,0.0,,Slider,Slider,4.0,object-56,temp_dist_trial,31.0,t_s_09_1,travel_shared,wallet,9.0,competing,paired,t_s_09_1.jpg,Travel,,,sub-60
Desktop or Laptop,Windows 10,Chrome 138.0.0.0,1536x864,1536x864,Temporal Distance Task,cb_09,80.0,temp_dist_trial,num_items,zn7si1,1.0,response,2_ITEM,1527.4000000000233,1522.6000000000354,1527.4000000000233,1527.4000000000233,1522.6000000000354,1527.4000000000233,1.0,0.0,0.0,,Click Response,2_count,5.0,object-49,temp_dist_trial,32.0,t_m_19_1,travel_Miami,surfboard,9.0,unique,paired,t_m_19_1.jpg,Travel,,,sub-60
Desktop or Laptop,Windows 10,Chrome 138.0.0.0,1536x864,1536x864,Temporal Distance Task,cb_09,80.0,temp_dist_trial,dist_items,qkpkxw,2.0,info,,2.5,0.0,2.5,2.5,0.0,2.5,1.0,0.0,0.0,,Slider,Slider,4.0,object-56,temp_dist_trial,32.0,t_m_19_1,travel_Miami,surfboard,9.0,unique,paired,t_m_19_1.jpg,Travel,,,sub-60
Desktop or Laptop,Windows 10,Chrome 138.0.0.0,1536x864,1536x864,Temporal Distance Task,cb_09,80.0,temp_dist_trial,dist_items,qkpkxw,2.0,continue,,1525.0999999996275,1522.7000000000116,1525.0999999996275,1525.0999999996275,1522.7000000000116,1525.0999999996275,1.0,0.0,0.0,,Click To Continue,Next button,7.0,object-60,temp_dist_trial,32.0,t_m_19_1,travel_Miami,surfboard,9.0,unique,paired,t_m_19_1.jpg,Travel,,,sub-60
Desktop or Laptop,Windows 10,Chrome 138.0.0.0,1536x864,1536x864,Temporal Distance Task,cb_09,80.0,temp_dist_trial,dist_items,qkpkxw,2.0,response,67,679.4000000000233,1522.7000000000116,1525.2999999998135,679.4000000000233,1522.7000000000116,1525.2999999998135,1.0,845.8999999997905,0.0,,Slider,Slider,4.0,object-56,temp_dist_trial,32.0,t_m_19_1,travel_Miami,surfboard,9.0,unique,paired,t_m_19_1.jpg,Travel,,,sub-60
Desktop or Laptop,Windows 10,Chrome 138.0.0.0,1536x864,1536x864,Temporal Distance Task,cb_09,81.0,temp_dist_trial,num_items,zn7si1,1.0,response,1_ITEM,2963.1999999994287,2960.399999999965,2963.1999999994287,2963.1999999994287,2960.399999999965,2963.1999999994287,1.0,0.0,0.0,,Click Response,1_count,3.0,object-46,temp_dist_trial,33.0,t_m_06_1,travel_Miami,handheld fan,9.0,unique,paired,t_m_06_1.jpg,Travel,,,sub-60
Desktop or Laptop,Windows 10,Chrome 138.0.0.0,1536x864,1536x864,Temporal Distance Task,cb_09,82.0,temp_dist_trial,num_items,zn7si1,1.0,response,1_ITEM,1315.7999999996389,1310.4000000000233,1315.7999999996389,1315.7999999996389,1310.4000000000233,1315.7999999996389,1.0,0.0,0.0,,Click Response,1_count,3.0,object-46,temp_dist_trial,34.0,t_i_11_1,travel_Iceland,headlamp,9.0,unique,single,t_i_11_1.jpg,Travel,,,sub-60
Desktop or Laptop,Windows 10,Chrome 138.0.0.0,1536x864,1536x864,Temporal Distance Task,cb_09,83.0,temp_dist_trial,num_items,zn7si1,1.0,response,2_ITEM,1798.8999999997907,1795.6999999999537,1798.8999999997907,1798.8999999997907,1795.6999999999537,1798.8999999997907,1.0,0.0,0.0,,Click Response,2_count,5.0,object-49,temp_dist_trial,35.0,t_m_08_1,travel_Miami,flipflops,9.0,unique,paired,t_m_08_1.jpg,Travel,,,sub-60
Desktop or Laptop,Windows 10,Chrome 138.0.0.0,1536x864,1536x864,Temporal Distance Task,cb_09,83.0,temp_dist_trial,dist_items,qkpkxw,2.0,info,,2.599999999976717,0.0,2.599999999976717,2.599999999976717,0.0,2.599999999976717,1.0,0.0,0.0,,Slider,Slider,4.0,object-56,temp_dist_trial,35.0,t_m_08_1,travel_Miami,flipflops,9.0,unique,paired,t_m_08_1.jpg,Travel,,,sub-60
Desktop or Laptop,Windows 10,Chrome 138.0.0.0,1536x864,1536x864,Temporal Distance Task,cb_09,83.0,temp_dist_trial,dist_items,qkpkxw,2.0,continue,,2351.8999999997905,2347.699999999953,2351.8999999997905,2351.8999999997905,2347.699999999953,2351.8999999997905,1.0,0.0,0.0,,Click To Continue,Next button,7.0,object-60,temp_dist_trial,35.0,t_m_08_1,travel_Miami,flipflops,9.0,unique,paired,t_m_08_1.jpg,Travel,,,sub-60
Desktop or Laptop,Windows 10,Chrome 138.0.0.0,1536x864,1536x864,Temporal Distance Task,cb_09,83.0,temp_dist_trial,dist_items,qkpkxw,2.0,response,67,509.5,2347.699999999953,2352.099999999977,509.5,2347.699999999953,2352.099999999977,1.0,1842.5999999999767,0.0,,Slider,Slider,4.0,object-56,temp_dist_trial,35.0,t_m_08_1,travel_Miami,flipflops,9.0,unique,paired,t_m_08_1.jpg,Travel,,,sub-60
Desktop or Laptop,Windows 10,Chrome 138.0.0.0,1536x864,1536x864,Temporal Distance Task,cb_09,84.0,temp_dist_trial,num_items,zn7si1,1.0,response,num_miss,3002.9000000000237,3002.9000000000237,3002.9000000000237,3002.9000000000237,3002.9000000000237,3002.9000000000237,1.0,0.0,0.0,num_miss_tag,Time Limit,screen,0.0,screen,temp_dist_trial,36.0,t_i_19_1,travel_Iceland,rope,9.0,unique,paired,t_i_19_1.jpg,Travel,,,sub-60
Desktop or Laptop,Windows 10,Chrome 138.0.0.0,1536x864,1536x864,Temporal Distance Task,cb_09,85.0,temp_dist_trial,num_items,zn7si1,1.0,response,1_ITEM,125.0999999998021,121.29999999998836,125.0999999998021,125.0999999998021,121.29999999998836,125.0999999998021,1.0,0.0,0.0,,Click Response,1_count,3.0,object-46,temp_dist_trial,37.0,t_s_05_1,travel_shared,neck pillow,9.0,competing,single,t_s_05_1.jpg,Travel,,,sub-60
Desktop or Laptop,Windows 10,Chrome 138.0.0.0,1536x864,1536x864,Temporal Distance Task,cb_09,86.0,temp_dist_trial,num_items,zn7si1,1.0,response,1_ITEM,2266.099999999802,2262.7999999999884,2266.099999999802,2266.099999999802,2262.7999999999884,2266.099999999802,1.0,0.0,0.0,,Click Response,1_count,3.0,object-46,temp_dist_trial,38.0,t_s_13_1,travel_shared,contact lens case,9.0,competing,paired,t_s_13_1.jpg,Travel,,,sub-60
Desktop or Laptop,Windows 10,Chrome 138.0.0.0,1536x864,1536x864,Temporal Distance Task,cb_09,87.0,temp_dist_trial,num_items,zn7si1,1.0,response,1_ITEM,2037.0999999998016,2032.3999999999646,2037.0999999998016,2037.0999999998016,2032.3999999999646,2037.0999999998016,1.0,0.0,0.0,,Click Response,1_count,3.0,object-46,temp_dist_trial,39.0,t_s_21_1,travel_shared,umbrella,9.0,competing,paired,t_s_21_1.jpg,Travel,,,sub-60
Desktop or Laptop,Windows 10,Chrome 138.0.0.0,1536x864,1536x864,Temporal Distance Task,cb_09,88.0,temp_dist_trial,num_items,zn7si1,1.0,response,1_ITEM,1304.8999999996158,1304.399999999965,1304.8999999996158,1304.8999999996158,1304.399999999965,1304.8999999996158,1.0,0.0,0.0,,Click Response,1_count,3.0,object-46,temp_dist_trial,40.0,t_i_12_1,travel_Iceland,tent,9.0,unique,single,t_i_12_1.jpg,Travel,,,sub-60
Desktop or Laptop,Windows 10,Chrome 138.0.0.0,1536x864,1536x864,Temporal Distance Task,cb_09,89.0,temp_dist_trial,num_items,zn7si1,1.0,response,1_ITEM,1779.7000000000116,1777.5,1779.7000000000116,1779.7000000000116,1777.5,1779.7000000000116,1.0,0.0,0.0,,Click Response,1_count,3.0,object-46,temp_dist_trial,41.0,t_s_02_1,travel_shared,water bottle,9.0,competing,paired,t_s_02_1.jpg,Travel,,,sub-60
Desktop or Laptop,Windows 10,Chrome 138.0.0.0,1536x864,1536x864,Temporal Distance Task,cb_09,90.0,temp_dist_trial,num_items,zn7si1,1.0,response,2_ITEM,2473.7999999998137,2469.0,2473.7999999998137,2473.7999999998137,2469.0,2473.7999999998137,1.0,0.0,0.0,,Click Response,2_count,5.0,object-49,temp_dist_trial,42.0,t_s_14_1,travel_shared,hand sanitizer,9.0,competing,paired,t_s_14_1.jpg,Travel,,,sub-60
Desktop or Laptop,Windows 10,Chrome 138.0.0.0,1536x864,1536x864,Temporal Distance Task,cb_09,90.0,temp_dist_trial,dist_items,qkpkxw,2.0,info,,2.200000000011641,0.0,2.200000000011641,2.200000000011641,0.0,2.200000000011641,1.0,0.0,0.0,,Slider,Slider,4.0,object-56,temp_dist_trial,42.0,t_s_14_1,travel_shared,hand sanitizer,9.0,competing,paired,t_s_14_1.jpg,Travel,,,sub-60
Desktop or Laptop,Windows 10,Chrome 138.0.0.0,1536x864,1536x864,Temporal Distance Task,cb_09,90.0,temp_dist_trial,dist_items,qkpkxw,2.0,continue,,4680.599999999453,4677.200000000013,4680.599999999453,4680.599999999453,4677.200000000013,4680.599999999453,1.0,0.0,0.0,,Click To Continue,Next button,7.0,object-60,temp_dist_trial,42.0,t_s_14_1,travel_shared,hand sanitizer,9.0,competing,paired,t_s_14_1.jpg,Travel,,,sub-60
Desktop or Laptop,Windows 10,Chrome 138.0.0.0,1536x864,1536x864,Temporal Distance Task,cb_09,90.0,temp_dist_trial,dist_items,qkpkxw,2.0,response,75,3075.700000000012,4677.200000000013,4681.799999999639,3075.700000000012,4677.200000000013,4681.799999999639,1.0,1606.0999999996275,0.0,,Slider,Slider,4.0,object-56,temp_dist_trial,42.0,t_s_14_1,travel_shared,hand sanitizer,9.0,competing,paired,t_s_14_1.jpg,Travel,,,sub-60
Desktop or Laptop,Windows 10,Chrome 138.0.0.0,1536x864,1536x864,Temporal Distance Task,cb_09,91.0,temp_dist_trial,num_items,zn7si1,1.0,response,1_ITEM,1351.3999999994412,1346.9000000000233,1351.3999999994412,1351.3999999994412,1346.9000000000233,1351.3999999994412,1.0,0.0,0.0,,Click Response,1_count,3.0,object-46,temp_dist_trial,43.0,t_m_07_1,travel_Miami,sunglasses,9.0,unique,paired,t_m_07_1.jpg,Travel,,,sub-60
Desktop or Laptop,Windows 10,Chrome 138.0.0.0,1536x864,1536x864,Temporal Distance Task,cb_09,92.0,temp_dist_trial,num_items,zn7si1,1.0,response,2_ITEM,1801.999999999651,1801.6000000000354,1801.999999999651,1801.999999999651,1801.6000000000354,1801.999999999651,1.0,0.0,0.0,,Click Response,2_count,5.0,object-49,temp_dist_trial,44.0,t_i_16_1,travel_Iceland,skis,9.0,unique,paired,t_i_16_1.jpg,Travel,,,sub-60
Desktop or Laptop,Windows 10,Chrome 138.0.0.0,1536x864,1536x864,Temporal Distance Task,cb_09,92.0,temp_dist_trial,dist_items,qkpkxw,2.0,info,,2.299999999464489,0.0,2.299999999464489,2.299999999464489,0.0,2.299999999464489,1.0,0.0,0.0,,Slider,Slider,4.0,object-56,temp_dist_trial,44.0,t_i_16_1,travel_Iceland,skis,9.0,unique,paired,t_i_16_1.jpg,Travel,,,sub-60
Desktop or Laptop,Windows 10,Chrome 138.0.0.0,1536x864,1536x864,Temporal Distance Task,cb_09,92.0,temp_dist_trial,dist_items,qkpkxw,2.0,continue,,2115.4999999996508,2111.100000000035,2115.4999999996508,2115.4999999996508,2111.100000000035,2115.4999999996508,1.0,0.0,0.0,,Click To Continue,Next button,7.0,object-60,temp_dist_trial,44.0,t_i_16_1,travel_Iceland,skis,9.0,unique,paired,t_i_16_1.jpg,Travel,,,sub-60
Desktop or Laptop,Windows 10,Chrome 138.0.0.0,1536x864,1536x864,Temporal Distance Task,cb_09,92.0,temp_dist_trial,dist_items,qkpkxw,2.0,response,79,667.3000000000466,2111.100000000035,2115.7999999994645,667.3000000000466,2111.100000000035,2115.7999999994645,1.0,1448.499999999418,0.0,,Slider,Slider,4.0,object-56,temp_dist_trial,44.0,t_i_16_1,travel_Iceland,skis,9.0,unique,paired,t_i_16_1.jpg,Travel,,,sub-60
Desktop or Laptop,Windows 10,Chrome 138.0.0.0,1536x864,1536x864,Temporal Distance Task,cb_09,93.0,temp_dist_trial,num_items,zn7si1,1.0,response,1_ITEM,1675.3999999996158,1674.3999999999646,1675.3999999996158,1675.3999999996158,1674.3999999999646,1675.3999999996158,1.0,0.0,0.0,,Click Response,1_count,3.0,object-46,temp_dist_trial,45.0,t_i_06_1,travel_Iceland,knit hat,9.0,unique,single,t_i_06_1.jpg,Travel,,,sub-60
Desktop or Laptop,Windows 10,Chrome 138.0.0.0,1536x864,1536x864,Temporal Distance Task,cb_09,94.0,temp_dist_trial,num_items,zn7si1,1.0,response,1_ITEM,1033.2999999999884,1031.5,1033.2999999999884,1033.2999999999884,1031.5,1033.2999999999884,1.0,0.0,0.0,,Click Response,1_count,3.0,object-46,temp_dist_trial,46.0,t_s_22_1,travel_shared,belt,9.0,competing,single,t_s_22_1.jpg,Travel,,,sub-60
Desktop or Laptop,Windows 10,Chrome 138.0.0.0,1536x864,1536x864,Temporal Distance Task,cb_09,95.0,temp_dist_trial,num_items,zn7si1,1.0,response,2_ITEM,1738.4999999998254,1735.0,1738.4999999998254,1738.4999999998254,1735.0,1738.4999999998254,1.0,0.0,0.0,,Click Response,2_count,5.0,object-49,temp_dist_trial,47.0,t_m_03_1,travel_Miami,wetsuit,9.0,unique,paired,t_m_03_1.jpg,Travel,,,sub-60
Desktop or Laptop,Windows 10,Chrome 138.0.0.0,1536x864,1536x864,Temporal Distance Task,cb_09,95.0,temp_dist_trial,dist_items,qkpkxw,2.0,info,,3.199999999254942,0.0,3.199999999254942,3.199999999254942,0.0,3.199999999254942,1.0,0.0,0.0,,Slider,Slider,4.0,object-56,temp_dist_trial,47.0,t_m_03_1,travel_Miami,wetsuit,9.0,unique,paired,t_m_03_1.jpg,Travel,,,sub-60
Desktop or Laptop,Windows 10,Chrome 138.0.0.0,1536x864,1536x864,Temporal Distance Task,cb_09,95.0,temp_dist_trial,dist_items,qkpkxw,2.0,continue,,2192.0,2190.0999999999767,2192.0,2192.0,2190.0999999999767,2192.0,1.0,0.0,0.0,,Click To Continue,Next button,7.0,object-60,temp_dist_trial,47.0,t_m_03_1,travel_Miami,wetsuit,9.0,unique,paired,t_m_03_1.jpg,Travel,,,sub-60
Desktop or Laptop,Windows 10,Chrome 138.0.0.0,1536x864,1536x864,Temporal Distance Task,cb_09,95.0,temp_dist_trial,dist_items,qkpkxw,2.0,response,61,1401.2999999999884,2190.0999999999767,2192.2999999998137,1401.2999999999884,2190.0999999999767,2192.2999999998137,1.0,790.9999999998255,0.0,,Slider,Slider,4.0,object-56,temp_dist_trial,47.0,t_m_03_1,travel_Miami,wetsuit,9.0,unique,paired,t_m_03_1.jpg,Travel,,,sub-60
Desktop or Laptop,Windows 10,Chrome 138.0.0.0,1536x864,1536x864,Temporal Distance Task,cb_09,96.0,temp_dist_trial,num_items,zn7si1,1.0,response,1_ITEM,1698.2999999994645,1692.5,1698.2999999994645,1698.2999999994645,1692.5,1698.2999999994645,1.0,0.0,0.0,,Click Response,1_count,3.0,object-46,temp_dist_trial,48.0,t_s_11_1,travel_shared,eye mask,9.0,competing,single,t_s_11_1.jpg,Travel,,,sub-60
Desktop or Laptop,Windows 10,Chrome 138.0.0.0,1536x864,1536x864,Temporal Distance Task,$${counterbalance_group},,,,,,info,END,,,343727.0,,,,0.0,,,,,,,,,,,,,,,,,,,,sub-60
