Participant Device,Participant OS,Participant Browser,Participant Monitor Size,Participant Viewport Size,Task Name,Current Spreadsheet,Trial Number,Display,Screen,Screen ID,Screen Counter,Response Type,Response,Onset Time,Clock Time,Reaction Time,Absolute Onset Time,Absolute Clock Time,Absolute Reaction Time,Correct,Response Duration,Proportion,Tag,Component Name,Object Name,Object Number,Object ID,Spreadsheet: display,Spreadsheet: trial,Spreadsheet: stimulus_id,Spreadsheet: expected_goal,Spreadsheet: stimulus_name,Spreadsheet: c_group,Spreadsheet: condition,Spreadsheet: paired_status,Spreadsheet: stimulus_path,Spreadsheet: block_type,Manipulation: Spreadsheet,Store: enc_test_acc,sub_label
Desktop or Laptop,Windows 10,Chrome 138.0.0.0,2560x1440,1707x960,Temporal Distance Task,$${counterbalance_group},,,,,,info,BEGIN,,,,,,,0.0,,,,,,,,,,,,,,,,,,,,sub-59
Desktop or Laptop,Windows 10,Chrome 138.0.0.0,2560x1440,1707x960,Temporal Distance Task,cb_03,1.0,temp_instructions,intro_screen,3tnme7,1.0,continue,,12516.300000000005,12509.4,12516.300000000005,12516.300000000005,12509.4,12516.300000000005,1.0,0.0,0.0,,Click To Continue,Continue Button,4.0,object-29,temp_instructions,,,Student,,,,,,,,,sub-59
Desktop or Laptop,Windows 10,Chrome 138.0.0.0,2560x1440,1707x960,Temporal Distance Task,cb_03,1.0,temp_instructions,intro_screen_2,52v7ur,2.0,continue,,12372.60000000447,12370.5,12372.60000000447,12372.60000000447,12370.5,12372.60000000447,1.0,0.0,0.0,,Click To Continue,Continue Button,4.0,object-39,temp_instructions,,,Student,,,,,,,,,sub-59
Desktop or Laptop,Windows 10,Chrome 138.0.0.0,2560x1440,1707x960,Temporal Distance Task,cb_03,1.0,temp_instructions,intro_screen_3,i7lvwx,3.0,continue,,5199.1000000044705,5194.299999999998,5199.1000000044705,5199.1000000044705,5194.299999999998,5199.1000000044705,1.0,0.0,0.0,,Click To Continue,Continue Button,4.0,object-67,temp_instructions,,,Student,,,,,,,,,sub-59
Desktop or Laptop,Windows 10,Chrome 138.0.0.0,2560x1440,1707x960,Temporal Distance Task,cb_03,1.0,temp_instructions,test_q1,5ieqx1,4.0,response,choice_3,8564.10000000149,8559.900000000001,8564.10000000149,8564.10000000149,8559.900000000001,8564.10000000149,1.0,0.0,0.0,,Click Response,choice_3,5.0,object-345,temp_instructions,,,Student,,,,,,,,,sub-59
Desktop or Laptop,Windows 10,Chrome 138.0.0.0,2560x1440,1707x960,Temporal Distance Task,cb_03,1.0,temp_instructions,score_corr,7ilvjr,5.0,continue,,1279.000000005959,1272.5,1279.000000005959,1279.000000005959,1272.5,1279.000000005959,1.0,0.0,0.0,,Click To Continue,Continue Button,3.0,object-23,temp_instructions,,,Student,,,,,,,,,sub-59
Desktop or Laptop,Windows 10,Chrome 138.0.0.0,2560x1440,1707x960,Temporal Distance Task,cb_03,1.0,temp_eventStart,Screen 1,dgtyxe,1.0,continue,,5592.5999999999985,5590.699999999998,5592.5999999999985,5592.5999999999985,5590.699999999998,5592.5999999999985,1.0,0.0,0.0,,Click To Continue,Next Button,3.0,object-43,temp_eventStart,,,Student,,,,,,,,,sub-59
Desktop or Laptop,Windows 10,Chrome 138.0.0.0,2560x1440,1707x960,Temporal Distance Task,cb_03,1.0,temp_dist_trial,num_items,zn7si1,1.0,response,1_ITEM,2590.900000000001,2586.7000000000044,2590.900000000001,2590.900000000001,2586.7000000000044,2590.900000000001,1.0,0.0,0.0,,Click Response,1_count,3.0,object-46,temp_dist_trial,1.0,s_sh_21_1,student_shared,file holder,3.0,competing,single,s_sh_21_1.jpg,Student,,,sub-59
Desktop or Laptop,Windows 10,Chrome 138.0.0.0,2560x1440,1707x960,Temporal Distance Task,cb_03,2.0,temp_dist_trial,num_items,zn7si1,1.0,response,num_miss,2997.0,2997.0,2997.0,2997.0,2997.0,2997.0,1.0,0.0,0.0,num_miss_tag,Time Limit,screen,0.0,screen,temp_dist_trial,2.0,s_a_11_1,student_art,clapperboard,3.0,unique,paired,s_a_11_1.jpg,Student,,,sub-59
Desktop or Laptop,Windows 10,Chrome 138.0.0.0,2560x1440,1707x960,Temporal Distance Task,cb_03,3.0,temp_dist_trial,num_items,zn7si1,1.0,response,2_ITEM,1580.6000000014901,1578.5,1580.6000000014901,1580.6000000014901,1578.5,1580.6000000014901,1.0,0.0,0.0,,Click Response,2_count,5.0,object-49,temp_dist_trial,3.0,s_a_08_1,student_art,sewing machine,3.0,unique,paired,s_a_08_1.jpg,Student,,,sub-59
Desktop or Laptop,Windows 10,Chrome 138.0.0.0,2560x1440,1707x960,Temporal Distance Task,cb_03,3.0,temp_dist_trial,dist_items,qkpkxw,2.0,info,,6.500000004467437,0.0,6.500000004467437,6.500000004467437,0.0,6.500000004467437,1.0,0.0,0.0,,Slider,Slider,4.0,object-56,temp_dist_trial,3.0,s_a_08_1,student_art,sewing machine,3.0,unique,paired,s_a_08_1.jpg,Student,,,sub-59
Desktop or Laptop,Windows 10,Chrome 138.0.0.0,2560x1440,1707x960,Temporal Distance Task,cb_03,3.0,temp_dist_trial,dist_items,qkpkxw,2.0,continue,,3266.699999999997,3261.199999999997,3266.699999999997,3266.699999999997,3261.199999999997,3266.699999999997,1.0,0.0,0.0,,Click To Continue,Next button,7.0,object-60,temp_dist_trial,3.0,s_a_08_1,student_art,sewing machine,3.0,unique,paired,s_a_08_1.jpg,Student,,,sub-59
Desktop or Laptop,Windows 10,Chrome 138.0.0.0,2560x1440,1707x960,Temporal Distance Task,cb_03,3.0,temp_dist_trial,dist_items,qkpkxw,2.0,response,69,1571.5,3261.199999999997,3267.4000000029773,1571.5,3261.199999999997,3267.4000000029773,1.0,1695.9000000029773,0.0,,Slider,Slider,4.0,object-56,temp_dist_trial,3.0,s_a_08_1,student_art,sewing machine,3.0,unique,paired,s_a_08_1.jpg,Student,,,sub-59
Desktop or Laptop,Windows 10,Chrome 138.0.0.0,2560x1440,1707x960,Temporal Distance Task,cb_03,4.0,temp_dist_trial,num_items,zn7si1,1.0,response,2_ITEM,2064.8000000044703,2058.300000000003,2064.8000000044703,2064.8000000044703,2058.300000000003,2064.8000000044703,1.0,0.0,0.0,,Click Response,2_count,5.0,object-49,temp_dist_trial,4.0,s_sh_23_1,student_shared,ballpoint pen,3.0,competing,single,s_sh_23_1.jpg,Student,,,sub-59
Desktop or Laptop,Windows 10,Chrome 138.0.0.0,2560x1440,1707x960,Temporal Distance Task,cb_03,4.0,temp_dist_trial,dist_items,qkpkxw,2.0,info,,6.500000001491571,0.0,6.500000001491571,6.500000001491571,0.0,6.500000001491571,1.0,0.0,0.0,,Slider,Slider,4.0,object-56,temp_dist_trial,4.0,s_sh_23_1,student_shared,ballpoint pen,3.0,competing,single,s_sh_23_1.jpg,Student,,,sub-59
Desktop or Laptop,Windows 10,Chrome 138.0.0.0,2560x1440,1707x960,Temporal Distance Task,cb_03,4.0,temp_dist_trial,dist_items,qkpkxw,2.0,continue,,3998.300000000003,3991.300000000003,3998.300000000003,3998.300000000003,3991.300000000003,3998.300000000003,1.0,0.0,0.0,,Click To Continue,Next button,7.0,object-60,temp_dist_trial,4.0,s_sh_23_1,student_shared,ballpoint pen,3.0,competing,single,s_sh_23_1.jpg,Student,,,sub-59
Desktop or Laptop,Windows 10,Chrome 138.0.0.0,2560x1440,1707x960,Temporal Distance Task,cb_03,4.0,temp_dist_trial,dist_items,qkpkxw,2.0,response,70,1147.3000000000031,3991.300000000003,3998.300000000003,1147.3000000000031,3991.300000000003,3998.300000000003,1.0,2851.0,0.0,,Slider,Slider,4.0,object-56,temp_dist_trial,4.0,s_sh_23_1,student_shared,ballpoint pen,3.0,competing,single,s_sh_23_1.jpg,Student,,,sub-59
Desktop or Laptop,Windows 10,Chrome 138.0.0.0,2560x1440,1707x960,Temporal Distance Task,cb_03,5.0,temp_dist_trial,num_items,zn7si1,1.0,response,1_ITEM,1566.3000000029788,1564.5999999999985,1566.3000000029788,1566.3000000029788,1564.5999999999985,1566.3000000029788,1.0,0.0,0.0,,Click Response,1_count,3.0,object-46,temp_dist_trial,5.0,s_sh_16_1,student_shared,stapler,3.0,competing,single,s_sh_16_1.jpg,Student,,,sub-59
Desktop or Laptop,Windows 10,Chrome 138.0.0.0,2560x1440,1707x960,Temporal Distance Task,cb_03,6.0,temp_dist_trial,num_items,zn7si1,1.0,response,2_ITEM,1654.900000000009,1648.0,1654.900000000009,1654.900000000009,1648.0,1654.900000000009,1.0,0.0,0.0,,Click Response,2_count,5.0,object-49,temp_dist_trial,6.0,s_a_10_1,student_art,tripod,3.0,unique,paired,s_a_10_1.jpg,Student,,,sub-59
Desktop or Laptop,Windows 10,Chrome 138.0.0.0,2560x1440,1707x960,Temporal Distance Task,cb_03,6.0,temp_dist_trial,dist_items,qkpkxw,2.0,info,,6.500000002983142,0.0,6.500000002983142,6.500000002983142,0.0,6.500000002983142,1.0,0.0,0.0,,Slider,Slider,4.0,object-56,temp_dist_trial,6.0,s_a_10_1,student_art,tripod,3.0,unique,paired,s_a_10_1.jpg,Student,,,sub-59
Desktop or Laptop,Windows 10,Chrome 138.0.0.0,2560x1440,1707x960,Temporal Distance Task,cb_03,6.0,temp_dist_trial,dist_items,qkpkxw,2.0,continue,,3452.1000000044733,3449.0,3452.1000000044733,3452.1000000044733,3449.0,3452.1000000044733,1.0,0.0,0.0,,Click To Continue,Next button,7.0,object-60,temp_dist_trial,6.0,s_a_10_1,student_art,tripod,3.0,unique,paired,s_a_10_1.jpg,Student,,,sub-59
Desktop or Laptop,Windows 10,Chrome 138.0.0.0,2560x1440,1707x960,Temporal Distance Task,cb_03,6.0,temp_dist_trial,dist_items,qkpkxw,2.0,response,29,1119.5,3449.0,3452.400000001493,1119.5,3449.0,3452.400000001493,1.0,2332.900000001493,0.0,,Slider,Slider,4.0,object-56,temp_dist_trial,6.0,s_a_10_1,student_art,tripod,3.0,unique,paired,s_a_10_1.jpg,Student,,,sub-59
Desktop or Laptop,Windows 10,Chrome 138.0.0.0,2560x1440,1707x960,Temporal Distance Task,cb_03,7.0,temp_dist_trial,num_items,zn7si1,1.0,response,2_ITEM,1641.5000000029834,1640.900000000009,1641.5000000029834,1641.5000000029834,1640.900000000009,1641.5000000029834,1.0,0.0,0.0,,Click Response,2_count,5.0,object-49,temp_dist_trial,7.0,s_sh_20_1,student_shared,tape,3.0,competing,paired,s_sh_20_1.jpg,Student,,,sub-59
Desktop or Laptop,Windows 10,Chrome 138.0.0.0,2560x1440,1707x960,Temporal Distance Task,cb_03,7.0,temp_dist_trial,dist_items,qkpkxw,2.0,info,,6.899999999994179,0.0,6.899999999994179,6.899999999994179,0.0,6.899999999994179,1.0,0.0,0.0,,Slider,Slider,4.0,object-56,temp_dist_trial,7.0,s_sh_20_1,student_shared,tape,3.0,competing,paired,s_sh_20_1.jpg,Student,,,sub-59
Desktop or Laptop,Windows 10,Chrome 138.0.0.0,2560x1440,1707x960,Temporal Distance Task,cb_03,7.0,temp_dist_trial,dist_items,qkpkxw,2.0,continue,,2936.700000001496,2934.5,2936.700000001496,2936.700000001496,2934.5,2936.700000001496,1.0,0.0,0.0,,Click To Continue,Next button,7.0,object-60,temp_dist_trial,7.0,s_sh_20_1,student_shared,tape,3.0,competing,paired,s_sh_20_1.jpg,Student,,,sub-59
Desktop or Laptop,Windows 10,Chrome 138.0.0.0,2560x1440,1707x960,Temporal Distance Task,cb_03,7.0,temp_dist_trial,dist_items,qkpkxw,2.0,response,26,1321.3000000000031,2934.5,2939.5000000059667,1321.3000000000031,2934.5,2939.5000000059667,1.0,1618.2000000059634,0.0,,Slider,Slider,4.0,object-56,temp_dist_trial,7.0,s_sh_20_1,student_shared,tape,3.0,competing,paired,s_sh_20_1.jpg,Student,,,sub-59
Desktop or Laptop,Windows 10,Chrome 138.0.0.0,2560x1440,1707x960,Temporal Distance Task,cb_03,8.0,temp_dist_trial,num_items,zn7si1,1.0,response,1_ITEM,1763.200000001496,1759.2000000000116,1763.200000001496,1763.200000001496,1759.2000000000116,1763.200000001496,1.0,0.0,0.0,,Click Response,1_count,3.0,object-46,temp_dist_trial,8.0,s_sh_04_1,student_shared,laptop stand,3.0,competing,paired,s_sh_04_1.jpg,Student,,,sub-59
Desktop or Laptop,Windows 10,Chrome 138.0.0.0,2560x1440,1707x960,Temporal Distance Task,cb_03,9.0,temp_dist_trial,num_items,zn7si1,1.0,response,1_ITEM,1524.2000000029807,1522.8000000000034,1524.2000000029807,1524.2000000029807,1522.8000000000034,1524.2000000029807,1.0,0.0,0.0,,Click Response,1_count,3.0,object-46,temp_dist_trial,9.0,s_a_17_1,student_art,microphone,3.0,unique,single,s_a_17_1.jpg,Student,,,sub-59
Desktop or Laptop,Windows 10,Chrome 138.0.0.0,2560x1440,1707x960,Temporal Distance Task,cb_03,10.0,temp_dist_trial,num_items,zn7si1,1.0,response,1_ITEM,1141.5000000014845,1140.3999999999942,1141.5000000014845,1141.5000000014845,1140.3999999999942,1141.5000000014845,1.0,0.0,0.0,,Click Response,1_count,3.0,object-46,temp_dist_trial,10.0,s_s_03_1,student_stem,petri dish,3.0,unique,paired,s_s_03_1.jpg,Student,,,sub-59
Desktop or Laptop,Windows 10,Chrome 138.0.0.0,2560x1440,1707x960,Temporal Distance Task,cb_03,11.0,temp_dist_trial,num_items,zn7si1,1.0,response,1_ITEM,1234.1000000059576,1230.8000000000031,1234.1000000059576,1234.1000000059576,1230.8000000000031,1234.1000000059576,1.0,0.0,0.0,,Click Response,1_count,3.0,object-46,temp_dist_trial,11.0,s_s_02_1,student_stem,flask,3.0,unique,single,s_s_02_1.jpg,Student,,,sub-59
Desktop or Laptop,Windows 10,Chrome 138.0.0.0,2560x1440,1707x960,Temporal Distance Task,cb_03,12.0,temp_dist_trial,num_items,zn7si1,1.0,response,2_ITEM,1450.5000000059665,1446.5,1450.5000000059665,1450.5000000059665,1446.5,1450.5000000059665,1.0,0.0,0.0,,Click Response,2_count,5.0,object-49,temp_dist_trial,12.0,s_s_05_1,student_stem,lab goggles,3.0,unique,paired,s_s_05_1.jpg,Student,,,sub-59
Desktop or Laptop,Windows 10,Chrome 138.0.0.0,2560x1440,1707x960,Temporal Distance Task,cb_03,12.0,temp_dist_trial,dist_items,qkpkxw,2.0,info,,5.899999999994179,0.0,5.899999999994179,5.899999999994179,0.0,5.899999999994179,1.0,0.0,0.0,,Slider,Slider,4.0,object-56,temp_dist_trial,12.0,s_s_05_1,student_stem,lab goggles,3.0,unique,paired,s_s_05_1.jpg,Student,,,sub-59
Desktop or Laptop,Windows 10,Chrome 138.0.0.0,2560x1440,1707x960,Temporal Distance Task,cb_03,12.0,temp_dist_trial,dist_items,qkpkxw,2.0,continue,,2189.3999999999937,2183.5,2189.3999999999937,2189.3999999999937,2183.5,2189.3999999999937,1.0,0.0,0.0,,Click To Continue,Next button,7.0,object-60,temp_dist_trial,12.0,s_s_05_1,student_stem,lab goggles,3.0,unique,paired,s_s_05_1.jpg,Student,,,sub-59
Desktop or Laptop,Windows 10,Chrome 138.0.0.0,2560x1440,1707x960,Temporal Distance Task,cb_03,12.0,temp_dist_trial,dist_items,qkpkxw,2.0,response,65,1425.599999999991,2183.5,2190.5,1425.599999999991,2183.5,2190.5,1.0,764.9000000000087,0.0,,Slider,Slider,4.0,object-56,temp_dist_trial,12.0,s_s_05_1,student_stem,lab goggles,3.0,unique,paired,s_s_05_1.jpg,Student,,,sub-59
Desktop or Laptop,Windows 10,Chrome 138.0.0.0,2560x1440,1707x960,Temporal Distance Task,cb_03,13.0,temp_dist_trial,num_items,zn7si1,1.0,response,1_ITEM,1508.8999999999942,1501.8999999999942,1508.8999999999942,1508.8999999999942,1501.8999999999942,1508.8999999999942,1.0,0.0,0.0,,Click Response,1_count,3.0,object-46,temp_dist_trial,13.0,s_sh_08_1,student_shared,post-its,3.0,competing,paired,s_sh_08_1.jpg,Student,,,sub-59
Desktop or Laptop,Windows 10,Chrome 138.0.0.0,2560x1440,1707x960,Temporal Distance Task,cb_03,14.0,temp_dist_trial,num_items,zn7si1,1.0,response,2_ITEM,1801.700000001496,1800.900000000009,1801.700000001496,1801.700000001496,1800.900000000009,1801.700000001496,1.0,0.0,0.0,,Click Response,2_count,5.0,object-49,temp_dist_trial,14.0,s_a_03_1,student_art,palette,3.0,unique,paired,s_a_03_1.jpg,Student,,,sub-59
Desktop or Laptop,Windows 10,Chrome 138.0.0.0,2560x1440,1707x960,Temporal Distance Task,cb_03,14.0,temp_dist_trial,dist_items,qkpkxw,2.0,info,,5.399999999994179,0.0,5.399999999994179,5.399999999994179,0.0,5.399999999994179,1.0,0.0,0.0,,Slider,Slider,4.0,object-56,temp_dist_trial,14.0,s_a_03_1,student_art,palette,3.0,unique,paired,s_a_03_1.jpg,Student,,,sub-59
Desktop or Laptop,Windows 10,Chrome 138.0.0.0,2560x1440,1707x960,Temporal Distance Task,cb_03,14.0,temp_dist_trial,dist_items,qkpkxw,2.0,continue,,3083.6000000029744,3080.5,3083.6000000029744,3083.6000000029744,3080.5,3083.6000000029744,1.0,0.0,0.0,,Click To Continue,Next button,7.0,object-60,temp_dist_trial,14.0,s_a_03_1,student_art,palette,3.0,unique,paired,s_a_03_1.jpg,Student,,,sub-59
Desktop or Laptop,Windows 10,Chrome 138.0.0.0,2560x1440,1707x960,Temporal Distance Task,cb_03,14.0,temp_dist_trial,dist_items,qkpkxw,2.0,response,26,1237.7999999999886,3080.5,3083.8999999999933,1237.7999999999886,3080.5,3083.8999999999933,1.0,1846.1000000000056,0.0,,Slider,Slider,4.0,object-56,temp_dist_trial,14.0,s_a_03_1,student_art,palette,3.0,unique,paired,s_a_03_1.jpg,Student,,,sub-59
Desktop or Laptop,Windows 10,Chrome 138.0.0.0,2560x1440,1707x960,Temporal Distance Task,cb_03,15.0,temp_dist_trial,num_items,zn7si1,1.0,response,2_ITEM,1100.0000000014843,1098.6999999999969,1100.0000000014843,1100.0000000014843,1098.6999999999969,1100.0000000014843,1.0,0.0,0.0,,Click Response,2_count,5.0,object-49,temp_dist_trial,15.0,s_sh_11_1,student_shared,pencil case,3.0,competing,paired,s_sh_11_1.jpg,Student,,,sub-59
Desktop or Laptop,Windows 10,Chrome 138.0.0.0,2560x1440,1707x960,Temporal Distance Task,cb_03,15.0,temp_dist_trial,dist_items,qkpkxw,2.0,info,,5.899999999994179,0.0,5.899999999994179,5.899999999994179,0.0,5.899999999994179,1.0,0.0,0.0,,Slider,Slider,4.0,object-56,temp_dist_trial,15.0,s_sh_11_1,student_shared,pencil case,3.0,competing,paired,s_sh_11_1.jpg,Student,,,sub-59
Desktop or Laptop,Windows 10,Chrome 138.0.0.0,2560x1440,1707x960,Temporal Distance Task,cb_03,15.0,temp_dist_trial,dist_items,qkpkxw,2.0,continue,,1275.8999999999942,1272.5,1275.8999999999942,1275.8999999999942,1272.5,1275.8999999999942,1.0,0.0,0.0,,Click To Continue,Next button,7.0,object-60,temp_dist_trial,15.0,s_sh_11_1,student_shared,pencil case,3.0,competing,paired,s_sh_11_1.jpg,Student,,,sub-59
Desktop or Laptop,Windows 10,Chrome 138.0.0.0,2560x1440,1707x960,Temporal Distance Task,cb_03,15.0,temp_dist_trial,dist_items,qkpkxw,2.0,response,21,514.5999999999913,1272.5,1276.3000000059544,514.5999999999913,1272.5,1276.3000000059544,1.0,761.7000000059635,0.0,,Slider,Slider,4.0,object-56,temp_dist_trial,15.0,s_sh_11_1,student_shared,pencil case,3.0,competing,paired,s_sh_11_1.jpg,Student,,,sub-59
Desktop or Laptop,Windows 10,Chrome 138.0.0.0,2560x1440,1707x960,Temporal Distance Task,cb_03,16.0,temp_dist_trial,num_items,zn7si1,1.0,response,1_ITEM,2101.0000000014843,2100.0,2101.0000000014843,2101.0000000014843,2100.0,2101.0000000014843,1.0,0.0,0.0,,Click Response,1_count,3.0,object-46,temp_dist_trial,16.0,s_s_01_1,student_stem,microscope,3.0,unique,single,s_s_01_1.jpg,Student,,,sub-59
Desktop or Laptop,Windows 10,Chrome 138.0.0.0,2560x1440,1707x960,Temporal Distance Task,cb_03,17.0,temp_dist_trial,num_items,zn7si1,1.0,response,2_ITEM,1321.0000000059665,1314.2000000000114,1321.0000000059665,1321.0000000059665,1314.2000000000114,1321.0000000059665,1.0,0.0,0.0,,Click Response,2_count,5.0,object-49,temp_dist_trial,17.0,s_s_12_1,student_stem,robotic arm,3.0,unique,paired,s_s_12_1.jpg,Student,,,sub-59
Desktop or Laptop,Windows 10,Chrome 138.0.0.0,2560x1440,1707x960,Temporal Distance Task,cb_03,17.0,temp_dist_trial,dist_items,qkpkxw,2.0,info,,5.100000001490116,0.0,5.100000001490116,5.100000001490116,0.0,5.100000001490116,1.0,0.0,0.0,,Slider,Slider,4.0,object-56,temp_dist_trial,17.0,s_s_12_1,student_stem,robotic arm,3.0,unique,paired,s_s_12_1.jpg,Student,,,sub-59
Desktop or Laptop,Windows 10,Chrome 138.0.0.0,2560x1440,1707x960,Temporal Distance Task,cb_03,17.0,temp_dist_trial,dist_items,qkpkxw,2.0,continue,,2208.7000000029802,2204.199999999997,2208.7000000029802,2208.7000000029802,2204.199999999997,2208.7000000029802,1.0,0.0,0.0,,Click To Continue,Next button,7.0,object-60,temp_dist_trial,17.0,s_s_12_1,student_stem,robotic arm,3.0,unique,paired,s_s_12_1.jpg,Student,,,sub-59
Desktop or Laptop,Windows 10,Chrome 138.0.0.0,2560x1440,1707x960,Temporal Distance Task,cb_03,17.0,temp_dist_trial,dist_items,qkpkxw,2.0,response,30,1724.3999999999942,2204.199999999997,2209.0,1724.3999999999942,2204.199999999997,2209.0,1.0,484.6000000000058,0.0,,Slider,Slider,4.0,object-56,temp_dist_trial,17.0,s_s_12_1,student_stem,robotic arm,3.0,unique,paired,s_s_12_1.jpg,Student,,,sub-59
Desktop or Laptop,Windows 10,Chrome 138.0.0.0,2560x1440,1707x960,Temporal Distance Task,cb_03,18.0,temp_dist_trial,num_items,zn7si1,1.0,response,1_ITEM,1329.400000001493,1328.1999999999969,1329.400000001493,1329.400000001493,1328.1999999999969,1329.400000001493,1.0,0.0,0.0,,Click Response,1_count,3.0,object-46,temp_dist_trial,18.0,s_s_18_1,student_stem,brain model,3.0,unique,paired,s_s_18_1.jpg,Student,,,sub-59
Desktop or Laptop,Windows 10,Chrome 138.0.0.0,2560x1440,1707x960,Temporal Distance Task,cb_03,19.0,temp_dist_trial,num_items,zn7si1,1.0,response,2_ITEM,1036.0000000000146,1029.1000000000058,1036.0000000000146,1036.0000000000146,1029.1000000000058,1036.0000000000146,1.0,0.0,0.0,,Click Response,2_count,5.0,object-49,temp_dist_trial,19.0,s_sh_09_1,student_shared,paper clips,3.0,competing,paired,s_sh_09_1.jpg,Student,,,sub-59
Desktop or Laptop,Windows 10,Chrome 138.0.0.0,2560x1440,1707x960,Temporal Distance Task,cb_03,19.0,temp_dist_trial,dist_items,qkpkxw,2.0,info,,6.000000002983142,0.0,6.000000002983142,6.000000002983142,0.0,6.000000002983142,1.0,0.0,0.0,,Slider,Slider,4.0,object-56,temp_dist_trial,19.0,s_sh_09_1,student_shared,paper clips,3.0,competing,paired,s_sh_09_1.jpg,Student,,,sub-59
Desktop or Laptop,Windows 10,Chrome 138.0.0.0,2560x1440,1707x960,Temporal Distance Task,cb_03,19.0,temp_dist_trial,dist_items,qkpkxw,2.0,continue,,1830.0000000029834,1828.8000000000034,1830.0000000029834,1830.0000000029834,1828.8000000000034,1830.0000000029834,1.0,0.0,0.0,,Click To Continue,Next button,7.0,object-60,temp_dist_trial,19.0,s_sh_09_1,student_shared,paper clips,3.0,competing,paired,s_sh_09_1.jpg,Student,,,sub-59
Desktop or Laptop,Windows 10,Chrome 138.0.0.0,2560x1440,1707x960,Temporal Distance Task,cb_03,19.0,temp_dist_trial,dist_items,qkpkxw,2.0,response,62,792.6999999999971,1828.8000000000034,1830.6000000044733,792.6999999999971,1828.8000000000034,1830.6000000044733,1.0,1037.9000000044764,0.0,,Slider,Slider,4.0,object-56,temp_dist_trial,19.0,s_sh_09_1,student_shared,paper clips,3.0,competing,paired,s_sh_09_1.jpg,Student,,,sub-59
Desktop or Laptop,Windows 10,Chrome 138.0.0.0,2560x1440,1707x960,Temporal Distance Task,cb_03,20.0,temp_dist_trial,num_items,zn7si1,1.0,response,1_ITEM,1483.5,1481.1000000000058,1483.5,1483.5,1481.1000000000058,1483.5,1.0,0.0,0.0,,Click Response,1_count,3.0,object-46,temp_dist_trial,20.0,s_s_07_1,student_stem,periodic table,3.0,unique,single,s_s_07_1.jpg,Student,,,sub-59
Desktop or Laptop,Windows 10,Chrome 138.0.0.0,2560x1440,1707x960,Temporal Distance Task,cb_03,21.0,temp_dist_trial,num_items,zn7si1,1.0,response,1_ITEM,1565.1000000000058,1564.5,1565.1000000000058,1565.1000000000058,1564.5,1565.1000000000058,1.0,0.0,0.0,,Click Response,1_count,3.0,object-46,temp_dist_trial,21.0,s_sh_15_1,student_shared,usb drive,3.0,competing,paired,s_sh_15_1.jpg,Student,,,sub-59
Desktop or Laptop,Windows 10,Chrome 138.0.0.0,2560x1440,1707x960,Temporal Distance Task,cb_03,22.0,temp_dist_trial,num_items,zn7si1,1.0,response,1_ITEM,241.8000000000029,236.40000000000873,241.8000000000029,241.8000000000029,236.40000000000873,241.8000000000029,1.0,0.0,0.0,,Click Response,1_count,3.0,object-46,temp_dist_trial,22.0,s_a_16_1,student_art,piano,3.0,unique,single,s_a_16_1.jpg,Student,,,sub-59
Desktop or Laptop,Windows 10,Chrome 138.0.0.0,2560x1440,1707x960,Temporal Distance Task,cb_03,23.0,temp_dist_trial,num_items,zn7si1,1.0,response,1_ITEM,1838.8000000044706,1835.6999999999966,1838.8000000044706,1838.8000000044706,1835.6999999999966,1838.8000000044706,1.0,0.0,0.0,,Click Response,1_count,3.0,object-46,temp_dist_trial,23.0,s_a_19_1,student_art,ballet shoes,3.0,unique,single,s_a_19_1.jpg,Student,,,sub-59
Desktop or Laptop,Windows 10,Chrome 138.0.0.0,2560x1440,1707x960,Temporal Distance Task,cb_03,24.0,temp_dist_trial,num_items,zn7si1,1.0,response,2_ITEM,1795.4000000059605,1794.1000000000058,1795.4000000059605,1795.4000000059605,1794.1000000000058,1795.4000000059605,1.0,0.0,0.0,,Click Response,2_count,5.0,object-49,temp_dist_trial,24.0,s_sh_06_1,student_shared,clipboard,3.0,competing,paired,s_sh_06_1.jpg,Student,,,sub-59
Desktop or Laptop,Windows 10,Chrome 138.0.0.0,2560x1440,1707x960,Temporal Distance Task,cb_03,24.0,temp_dist_trial,dist_items,qkpkxw,2.0,info,,5.200000001495937,0.0,5.200000001495937,5.200000001495937,0.0,5.200000001495937,1.0,0.0,0.0,,Slider,Slider,4.0,object-56,temp_dist_trial,24.0,s_sh_06_1,student_shared,clipboard,3.0,competing,paired,s_sh_06_1.jpg,Student,,,sub-59
Desktop or Laptop,Windows 10,Chrome 138.0.0.0,2560x1440,1707x960,Temporal Distance Task,cb_03,24.0,temp_dist_trial,dist_items,qkpkxw,2.0,continue,,2000.800000002986,1995.7000000000119,2000.800000002986,2000.800000002986,1995.7000000000119,2000.800000002986,1.0,0.0,0.0,,Click To Continue,Next button,7.0,object-60,temp_dist_trial,24.0,s_sh_06_1,student_shared,clipboard,3.0,competing,paired,s_sh_06_1.jpg,Student,,,sub-59
Desktop or Laptop,Windows 10,Chrome 138.0.0.0,2560x1440,1707x960,Temporal Distance Task,cb_03,24.0,temp_dist_trial,dist_items,qkpkxw,2.0,response,26,1029.2000000000116,1995.7000000000119,2001.200000001496,1029.2000000000116,1995.7000000000119,2001.200000001496,1.0,972.0000000014844,0.0,,Slider,Slider,4.0,object-56,temp_dist_trial,24.0,s_sh_06_1,student_shared,clipboard,3.0,competing,paired,s_sh_06_1.jpg,Student,,,sub-59
Desktop or Laptop,Windows 10,Chrome 138.0.0.0,2560x1440,1707x960,Temporal Distance Task,cb_03,25.0,temp_dist_trial,num_items,zn7si1,1.0,response,2_ITEM,1410.5000000014843,1404.6999999999966,1410.5000000014843,1410.5000000014843,1404.6999999999966,1410.5000000014843,1.0,0.0,0.0,,Click Response,2_count,5.0,object-49,temp_dist_trial,25.0,s_a_20_1,student_art,pin cushion,3.0,unique,paired,s_a_20_1.jpg,Student,,,sub-59
Desktop or Laptop,Windows 10,Chrome 138.0.0.0,2560x1440,1707x960,Temporal Distance Task,cb_03,25.0,temp_dist_trial,dist_items,qkpkxw,2.0,info,,6.500000001484295,0.0,6.500000001484295,6.500000001484295,0.0,6.500000001484295,1.0,0.0,0.0,,Slider,Slider,4.0,object-56,temp_dist_trial,25.0,s_a_20_1,student_art,pin cushion,3.0,unique,paired,s_a_20_1.jpg,Student,,,sub-59
Desktop or Laptop,Windows 10,Chrome 138.0.0.0,2560x1440,1707x960,Temporal Distance Task,cb_03,25.0,temp_dist_trial,dist_items,qkpkxw,2.0,continue,,2785.2000000044645,2781.3999999999933,2785.2000000044645,2785.2000000044645,2781.3999999999933,2785.2000000044645,1.0,0.0,0.0,,Click To Continue,Next button,7.0,object-60,temp_dist_trial,25.0,s_a_20_1,student_art,pin cushion,3.0,unique,paired,s_a_20_1.jpg,Student,,,sub-59
Desktop or Laptop,Windows 10,Chrome 138.0.0.0,2560x1440,1707x960,Temporal Distance Task,cb_03,25.0,temp_dist_trial,dist_items,qkpkxw,2.0,response,65,778.7999999999884,2781.3999999999933,2785.3999999999933,778.7999999999884,2781.3999999999933,2785.3999999999933,1.0,2006.6000000000056,0.0,,Slider,Slider,4.0,object-56,temp_dist_trial,25.0,s_a_20_1,student_art,pin cushion,3.0,unique,paired,s_a_20_1.jpg,Student,,,sub-59
Desktop or Laptop,Windows 10,Chrome 138.0.0.0,2560x1440,1707x960,Temporal Distance Task,cb_03,26.0,temp_dist_trial,num_items,zn7si1,1.0,response,1_ITEM,1560.8000000044706,1557.6000000000058,1560.8000000044706,1560.8000000044706,1557.6000000000058,1560.8000000044706,1.0,0.0,0.0,,Click Response,1_count,3.0,object-46,temp_dist_trial,26.0,s_s_04_1,student_stem,bunsen burner,3.0,unique,paired,s_s_04_1.jpg,Student,,,sub-59
Desktop or Laptop,Windows 10,Chrome 138.0.0.0,2560x1440,1707x960,Temporal Distance Task,cb_03,27.0,temp_dist_trial,num_items,zn7si1,1.0,response,2_ITEM,1432.0000000059665,1425.6000000000058,1432.0000000059665,1432.0000000059665,1425.6000000000058,1432.0000000059665,1.0,0.0,0.0,,Click Response,2_count,5.0,object-49,temp_dist_trial,27.0,s_sh_01_1,student_shared,notebook,3.0,competing,paired,s_sh_01_1.jpg,Student,,,sub-59
Desktop or Laptop,Windows 10,Chrome 138.0.0.0,2560x1440,1707x960,Temporal Distance Task,cb_03,27.0,temp_dist_trial,dist_items,qkpkxw,2.0,info,,5.200000005963375,0.0,5.200000005963375,5.200000005963375,0.0,5.200000005963375,1.0,0.0,0.0,,Slider,Slider,4.0,object-56,temp_dist_trial,27.0,s_sh_01_1,student_shared,notebook,3.0,competing,paired,s_sh_01_1.jpg,Student,,,sub-59
Desktop or Laptop,Windows 10,Chrome 138.0.0.0,2560x1440,1707x960,Temporal Distance Task,cb_03,27.0,temp_dist_trial,dist_items,qkpkxw,2.0,continue,,1749.5000000029834,1745.400000000009,1749.5000000029834,1749.5000000029834,1745.400000000009,1749.5000000029834,1.0,0.0,0.0,,Click To Continue,Next button,7.0,object-60,temp_dist_trial,27.0,s_sh_01_1,student_shared,notebook,3.0,competing,paired,s_sh_01_1.jpg,Student,,,sub-59
Desktop or Laptop,Windows 10,Chrome 138.0.0.0,2560x1440,1707x960,Temporal Distance Task,cb_03,27.0,temp_dist_trial,dist_items,qkpkxw,2.0,response,20,723.1999999999971,1745.400000000009,1749.8000000000034,723.1999999999971,1745.400000000009,1749.8000000000034,1.0,1026.6000000000058,0.0,,Slider,Slider,4.0,object-56,temp_dist_trial,27.0,s_sh_01_1,student_shared,notebook,3.0,competing,paired,s_sh_01_1.jpg,Student,,,sub-59
Desktop or Laptop,Windows 10,Chrome 138.0.0.0,2560x1440,1707x960,Temporal Distance Task,cb_03,28.0,temp_dist_trial,num_items,zn7si1,1.0,response,num_miss,2997.0,2997.0,2997.0,2997.0,2997.0,2997.0,1.0,0.0,0.0,num_miss_tag,Time Limit,screen,0.0,screen,temp_dist_trial,28.0,s_a_04_1,student_art,easel,3.0,unique,paired,s_a_04_1.jpg,Student,,,sub-59
Desktop or Laptop,Windows 10,Chrome 138.0.0.0,2560x1440,1707x960,Temporal Distance Task,cb_03,29.0,temp_dist_trial,num_items,zn7si1,1.0,response,1_ITEM,2097.5000000059663,2093.1000000000063,2097.5000000059663,2097.5000000059663,2093.1000000000063,2097.5000000059663,1.0,0.0,0.0,,Click Response,1_count,3.0,object-46,temp_dist_trial,29.0,s_s_14_1,student_stem,funnel,3.0,unique,paired,s_s_14_1.jpg,Student,,,sub-59
Desktop or Laptop,Windows 10,Chrome 138.0.0.0,2560x1440,1707x960,Temporal Distance Task,cb_03,30.0,temp_dist_trial,num_items,zn7si1,1.0,response,2_ITEM,1216.8000000000466,1209.9000000000233,1216.8000000000466,1216.8000000000466,1209.9000000000233,1216.8000000000466,1.0,0.0,0.0,,Click Response,2_count,5.0,object-49,temp_dist_trial,30.0,s_sh_14_1,student_shared,printer,3.0,competing,paired,s_sh_14_1.jpg,Student,,,sub-59
Desktop or Laptop,Windows 10,Chrome 138.0.0.0,2560x1440,1707x960,Temporal Distance Task,cb_03,30.0,temp_dist_trial,dist_items,qkpkxw,2.0,info,,5.0,0.0,5.0,5.0,0.0,5.0,1.0,0.0,0.0,,Slider,Slider,4.0,object-56,temp_dist_trial,30.0,s_sh_14_1,student_shared,printer,3.0,competing,paired,s_sh_14_1.jpg,Student,,,sub-59
Desktop or Laptop,Windows 10,Chrome 138.0.0.0,2560x1440,1707x960,Temporal Distance Task,cb_03,30.0,temp_dist_trial,dist_items,qkpkxw,2.0,continue,,1877.20000000298,1870.6000000000056,1877.20000000298,1877.20000000298,1870.6000000000056,1877.20000000298,1.0,0.0,0.0,,Click To Continue,Next button,7.0,object-60,temp_dist_trial,30.0,s_sh_14_1,student_shared,printer,3.0,competing,paired,s_sh_14_1.jpg,Student,,,sub-59
Desktop or Laptop,Windows 10,Chrome 138.0.0.0,2560x1440,1707x960,Temporal Distance Task,cb_03,30.0,temp_dist_trial,dist_items,qkpkxw,2.0,response,31,744.1000000000058,1870.6000000000056,1877.6000000000056,744.1000000000058,1870.6000000000056,1877.6000000000056,1.0,1133.5,0.0,,Slider,Slider,4.0,object-56,temp_dist_trial,30.0,s_sh_14_1,student_shared,printer,3.0,competing,paired,s_sh_14_1.jpg,Student,,,sub-59
Desktop or Laptop,Windows 10,Chrome 138.0.0.0,2560x1440,1707x960,Temporal Distance Task,cb_03,31.0,temp_dist_trial,num_items,zn7si1,1.0,response,2_ITEM,2159.0000000014843,2155.5,2159.0000000014843,2159.0000000014843,2155.5,2159.0000000014843,1.0,0.0,0.0,,Click Response,2_count,5.0,object-49,temp_dist_trial,31.0,s_s_17_1,student_stem,ring stand,3.0,unique,paired,s_s_17_1.jpg,Student,,,sub-59
Desktop or Laptop,Windows 10,Chrome 138.0.0.0,2560x1440,1707x960,Temporal Distance Task,cb_03,31.0,temp_dist_trial,dist_items,qkpkxw,2.0,info,,6.5,0.0,6.5,6.5,0.0,6.5,1.0,0.0,0.0,,Slider,Slider,4.0,object-56,temp_dist_trial,31.0,s_s_17_1,student_stem,ring stand,3.0,unique,paired,s_s_17_1.jpg,Student,,,sub-59
Desktop or Laptop,Windows 10,Chrome 138.0.0.0,2560x1440,1707x960,Temporal Distance Task,cb_03,31.0,temp_dist_trial,dist_items,qkpkxw,2.0,continue,,1955.9000000059605,1954.0,1955.9000000059605,1955.9000000059605,1954.0,1955.9000000059605,1.0,0.0,0.0,,Click To Continue,Next button,7.0,object-60,temp_dist_trial,31.0,s_s_17_1,student_stem,ring stand,3.0,unique,paired,s_s_17_1.jpg,Student,,,sub-59
Desktop or Laptop,Windows 10,Chrome 138.0.0.0,2560x1440,1707x960,Temporal Distance Task,cb_03,31.0,temp_dist_trial,dist_items,qkpkxw,2.0,response,34,1105.7000000000116,1954.0,1958.70000000298,1105.7000000000116,1954.0,1958.70000000298,1.0,853.0000000029686,0.0,,Slider,Slider,4.0,object-56,temp_dist_trial,31.0,s_s_17_1,student_stem,ring stand,3.0,unique,paired,s_s_17_1.jpg,Student,,,sub-59
Desktop or Laptop,Windows 10,Chrome 138.0.0.0,2560x1440,1707x960,Temporal Distance Task,cb_03,32.0,temp_dist_trial,num_items,zn7si1,1.0,response,1_ITEM,1368.5,1362.8999999999942,1368.5,1368.5,1362.8999999999942,1368.5,1.0,0.0,0.0,,Click Response,1_count,3.0,object-46,temp_dist_trial,32.0,s_s_09_1,student_stem,multimeter,3.0,unique,single,s_s_09_1.jpg,Student,,,sub-59
Desktop or Laptop,Windows 10,Chrome 138.0.0.0,2560x1440,1707x960,Temporal Distance Task,cb_03,33.0,temp_dist_trial,num_items,zn7si1,1.0,response,1_ITEM,1445.5000000029684,1439.3999999999942,1445.5000000029684,1445.5000000029684,1439.3999999999942,1445.5000000029684,1.0,0.0,0.0,,Click Response,1_count,3.0,object-46,temp_dist_trial,33.0,s_a_02_1,student_art,canvas,3.0,unique,single,s_a_02_1.jpg,Student,,,sub-59
Desktop or Laptop,Windows 10,Chrome 138.0.0.0,2560x1440,1707x960,Temporal Distance Task,cb_03,34.0,temp_dist_trial,num_items,zn7si1,1.0,response,1_ITEM,839.2000000014958,834.3999999999942,839.2000000014958,839.2000000014958,834.3999999999942,839.2000000014958,1.0,0.0,0.0,,Click Response,1_count,3.0,object-46,temp_dist_trial,34.0,s_a_13_1,student_art,violin,3.0,unique,paired,s_a_13_1.jpg,Student,,,sub-59
Desktop or Laptop,Windows 10,Chrome 138.0.0.0,2560x1440,1707x960,Temporal Distance Task,cb_03,35.0,temp_dist_trial,num_items,zn7si1,1.0,response,2_ITEM,1301.6000000044587,1300.2999999999886,1301.6000000044587,1301.6000000044587,1300.2999999999886,1301.6000000044587,1.0,0.0,0.0,,Click Response,2_count,5.0,object-49,temp_dist_trial,35.0,s_sh_10_1,student_shared,scissors,3.0,competing,paired,s_sh_10_1.jpg,Student,,,sub-59
Desktop or Laptop,Windows 10,Chrome 138.0.0.0,2560x1440,1707x960,Temporal Distance Task,cb_03,35.0,temp_dist_trial,dist_items,qkpkxw,2.0,info,,5.600000005972107,0.0,5.600000005972107,5.600000005972107,0.0,5.600000005972107,1.0,0.0,0.0,,Slider,Slider,4.0,object-56,temp_dist_trial,35.0,s_sh_10_1,student_shared,scissors,3.0,competing,paired,s_sh_10_1.jpg,Student,,,sub-59
Desktop or Laptop,Windows 10,Chrome 138.0.0.0,2560x1440,1707x960,Temporal Distance Task,cb_03,35.0,temp_dist_trial,dist_items,qkpkxw,2.0,continue,,3896.400000002992,3894.0,3896.400000002992,3896.400000002992,3894.0,3896.400000002992,1.0,0.0,0.0,,Click To Continue,Next button,7.0,object-60,temp_dist_trial,35.0,s_sh_10_1,student_shared,scissors,3.0,competing,paired,s_sh_10_1.jpg,Student,,,sub-59
Desktop or Laptop,Windows 10,Chrome 138.0.0.0,2560x1440,1707x960,Temporal Distance Task,cb_03,35.0,temp_dist_trial,dist_items,qkpkxw,2.0,response,30,869.2000000000116,3894.0,3896.800000001501,869.2000000000116,3894.0,3896.800000001501,1.0,3027.600000001489,0.0,,Slider,Slider,4.0,object-56,temp_dist_trial,35.0,s_sh_10_1,student_shared,scissors,3.0,competing,paired,s_sh_10_1.jpg,Student,,,sub-59
Desktop or Laptop,Windows 10,Chrome 138.0.0.0,2560x1440,1707x960,Temporal Distance Task,cb_03,36.0,temp_dist_trial,num_items,zn7si1,1.0,response,1_ITEM,1081.6000000059719,1077.8000000000177,1081.6000000059719,1081.6000000059719,1077.8000000000177,1081.6000000059719,1.0,0.0,0.0,,Click Response,1_count,3.0,object-46,temp_dist_trial,36.0,s_sh_03_1,student_shared,highlighter,3.0,competing,single,s_sh_03_1.jpg,Student,,,sub-59
Desktop or Laptop,Windows 10,Chrome 138.0.0.0,2560x1440,1707x960,Temporal Distance Task,cb_03,37.0,temp_dist_trial,num_items,zn7si1,1.0,response,2_ITEM,1267.800000002986,1265.6000000000058,1267.800000002986,1267.800000002986,1265.6000000000058,1267.800000002986,1.0,0.0,0.0,,Click Response,2_count,5.0,object-49,temp_dist_trial,37.0,s_sh_12_1,student_shared,binder,3.0,competing,paired,s_sh_12_1.jpg,Student,,,sub-59
Desktop or Laptop,Windows 10,Chrome 138.0.0.0,2560x1440,1707x960,Temporal Distance Task,cb_03,37.0,temp_dist_trial,dist_items,qkpkxw,2.0,info,,5.500000004481992,0.0,5.500000004481992,5.500000004481992,0.0,5.500000004481992,1.0,0.0,0.0,,Slider,Slider,4.0,object-56,temp_dist_trial,37.0,s_sh_12_1,student_shared,binder,3.0,competing,paired,s_sh_12_1.jpg,Student,,,sub-59
Desktop or Laptop,Windows 10,Chrome 138.0.0.0,2560x1440,1707x960,Temporal Distance Task,cb_03,37.0,temp_dist_trial,dist_items,qkpkxw,2.0,continue,,2326.000000004482,2322.5,2326.000000004482,2326.000000004482,2322.5,2326.000000004482,1.0,0.0,0.0,,Click To Continue,Next button,7.0,object-60,temp_dist_trial,37.0,s_sh_12_1,student_shared,binder,3.0,competing,paired,s_sh_12_1.jpg,Student,,,sub-59
Desktop or Laptop,Windows 10,Chrome 138.0.0.0,2560x1440,1707x960,Temporal Distance Task,cb_03,37.0,temp_dist_trial,dist_items,qkpkxw,2.0,response,65,625.8000000000175,2322.5,2326.400000002992,625.8000000000175,2322.5,2326.400000002992,1.0,1700.6000000029746,0.0,,Slider,Slider,4.0,object-56,temp_dist_trial,37.0,s_sh_12_1,student_shared,binder,3.0,competing,paired,s_sh_12_1.jpg,Student,,,sub-59
Desktop or Laptop,Windows 10,Chrome 138.0.0.0,2560x1440,1707x960,Temporal Distance Task,cb_03,38.0,temp_dist_trial,num_items,zn7si1,1.0,response,2_ITEM,1734.8000000015018,1731.5,1734.8000000015018,1734.8000000015018,1731.5,1734.8000000015018,1.0,0.0,0.0,,Click Response,2_count,5.0,object-49,temp_dist_trial,38.0,s_s_13_1,student_stem,telescope,3.0,unique,paired,s_s_13_1.jpg,Student,,,sub-59
Desktop or Laptop,Windows 10,Chrome 138.0.0.0,2560x1440,1707x960,Temporal Distance Task,cb_03,38.0,temp_dist_trial,dist_items,qkpkxw,2.0,info,,6.000000001484295,0.0,6.000000001484295,6.000000001484295,0.0,6.000000001484295,1.0,0.0,0.0,,Slider,Slider,4.0,object-56,temp_dist_trial,38.0,s_s_13_1,student_stem,telescope,3.0,unique,paired,s_s_13_1.jpg,Student,,,sub-59
Desktop or Laptop,Windows 10,Chrome 138.0.0.0,2560x1440,1707x960,Temporal Distance Task,cb_03,38.0,temp_dist_trial,dist_items,qkpkxw,2.0,continue,,1677.3999999999942,1675.7999999999884,1677.3999999999942,1677.3999999999942,1675.7999999999884,1677.3999999999942,1.0,0.0,0.0,,Click To Continue,Next button,7.0,object-60,temp_dist_trial,38.0,s_s_13_1,student_stem,telescope,3.0,unique,paired,s_s_13_1.jpg,Student,,,sub-59
Desktop or Laptop,Windows 10,Chrome 138.0.0.0,2560x1440,1707x960,Temporal Distance Task,cb_03,38.0,temp_dist_trial,dist_items,qkpkxw,2.0,response,27,646.6999999999825,1675.7999999999884,1677.7000000044645,646.6999999999825,1675.7999999999884,1677.7000000044645,1.0,1031.000000004482,0.0,,Slider,Slider,4.0,object-56,temp_dist_trial,38.0,s_s_13_1,student_stem,telescope,3.0,unique,paired,s_s_13_1.jpg,Student,,,sub-59
Desktop or Laptop,Windows 10,Chrome 138.0.0.0,2560x1440,1707x960,Temporal Distance Task,cb_03,39.0,temp_dist_trial,num_items,zn7si1,1.0,response,1_ITEM,1827.0000000059665,1821.8999999999944,1827.0000000059665,1827.0000000059665,1821.8999999999944,1827.0000000059665,1.0,0.0,0.0,,Click Response,1_count,3.0,object-46,temp_dist_trial,39.0,s_sh_19_1,student_shared,portable plastic drawer,3.0,competing,single,s_sh_19_1.jpg,Student,,,sub-59
Desktop or Laptop,Windows 10,Chrome 138.0.0.0,2560x1440,1707x960,Temporal Distance Task,cb_03,40.0,temp_dist_trial,num_items,zn7si1,1.0,response,2_ITEM,1852.9000000059605,1849.7000000000119,1852.9000000059605,1852.9000000059605,1849.7000000000119,1852.9000000059605,1.0,0.0,0.0,,Click Response,2_count,5.0,object-49,temp_dist_trial,40.0,s_a_09_1,student_art,picture frame,3.0,unique,paired,s_a_09_1.jpg,Student,,,sub-59
Desktop or Laptop,Windows 10,Chrome 138.0.0.0,2560x1440,1707x960,Temporal Distance Task,cb_03,40.0,temp_dist_trial,dist_items,qkpkxw,2.0,info,,5.300000005954644,0.0,5.300000005954644,5.300000005954644,0.0,5.300000005954644,1.0,0.0,0.0,,Slider,Slider,4.0,object-56,temp_dist_trial,40.0,s_a_09_1,student_art,picture frame,3.0,unique,paired,s_a_09_1.jpg,Student,,,sub-59
Desktop or Laptop,Windows 10,Chrome 138.0.0.0,2560x1440,1707x960,Temporal Distance Task,cb_03,40.0,temp_dist_trial,dist_items,qkpkxw,2.0,continue,,2531.1000000000063,2524.1000000000063,2531.1000000000063,2531.1000000000063,2524.1000000000063,2531.1000000000063,1.0,0.0,0.0,,Click To Continue,Next button,7.0,object-60,temp_dist_trial,40.0,s_a_09_1,student_art,picture frame,3.0,unique,paired,s_a_09_1.jpg,Student,,,sub-59
Desktop or Laptop,Windows 10,Chrome 138.0.0.0,2560x1440,1707x960,Temporal Distance Task,cb_03,40.0,temp_dist_trial,dist_items,qkpkxw,2.0,response,33,834.2999999999884,2524.1000000000063,2531.1000000000063,834.2999999999884,2524.1000000000063,2531.1000000000063,1.0,1696.8000000000175,0.0,,Slider,Slider,4.0,object-56,temp_dist_trial,40.0,s_a_09_1,student_art,picture frame,3.0,unique,paired,s_a_09_1.jpg,Student,,,sub-59
Desktop or Laptop,Windows 10,Chrome 138.0.0.0,2560x1440,1707x960,Temporal Distance Task,cb_03,41.0,temp_dist_trial,num_items,zn7si1,1.0,response,1_ITEM,1758.4000000014785,1752.2999999999884,1758.4000000014785,1758.4000000014785,1752.2999999999884,1758.4000000014785,1.0,0.0,0.0,,Click Response,1_count,3.0,object-46,temp_dist_trial,41.0,s_sh_22_1,student_shared,hole puncher,3.0,competing,paired,s_sh_22_1.jpg,Student,,,sub-59
Desktop or Laptop,Windows 10,Chrome 138.0.0.0,2560x1440,1707x960,Temporal Distance Task,cb_03,42.0,temp_dist_trial,num_items,zn7si1,1.0,response,1_ITEM,1313.4000000029919,1307.3000000000175,1313.4000000029919,1313.4000000029919,1307.3000000000175,1313.4000000029919,1.0,0.0,0.0,,Click Response,1_count,3.0,object-46,temp_dist_trial,42.0,s_sh_02_1,student_shared,eraser,3.0,competing,single,s_sh_02_1.jpg,Student,,,sub-59
Desktop or Laptop,Windows 10,Chrome 138.0.0.0,2560x1440,1707x960,Temporal Distance Task,cb_03,43.0,temp_dist_trial,num_items,zn7si1,1.0,response,2_ITEM,1693.6000000000058,1689.8000000000175,1693.6000000000058,1693.6000000000058,1689.8000000000175,1693.6000000000058,1.0,0.0,0.0,,Click Response,2_count,5.0,object-49,temp_dist_trial,43.0,s_sh_18_1,student_shared,wall calendar,3.0,competing,paired,s_sh_18_1.jpg,Student,,,sub-59
Desktop or Laptop,Windows 10,Chrome 138.0.0.0,2560x1440,1707x960,Temporal Distance Task,cb_03,43.0,temp_dist_trial,dist_items,qkpkxw,2.0,info,,5.5,0.0,5.5,5.5,0.0,5.5,1.0,0.0,0.0,,Slider,Slider,4.0,object-56,temp_dist_trial,43.0,s_sh_18_1,student_shared,wall calendar,3.0,competing,paired,s_sh_18_1.jpg,Student,,,sub-59
Desktop or Laptop,Windows 10,Chrome 138.0.0.0,2560x1440,1707x960,Temporal Distance Task,cb_03,43.0,temp_dist_trial,dist_items,qkpkxw,2.0,continue,,1957.8000000044706,1953.8999999999944,1957.8000000044706,1957.8000000044706,1953.8999999999944,1957.8000000044706,1.0,0.0,0.0,,Click To Continue,Next button,7.0,object-60,temp_dist_trial,43.0,s_sh_18_1,student_shared,wall calendar,3.0,competing,paired,s_sh_18_1.jpg,Student,,,sub-59
Desktop or Laptop,Windows 10,Chrome 138.0.0.0,2560x1440,1707x960,Temporal Distance Task,cb_03,43.0,temp_dist_trial,dist_items,qkpkxw,2.0,response,66,660.6000000000057,1953.8999999999944,1960.3000000044706,660.6000000000057,1953.8999999999944,1960.3000000044706,1.0,1299.7000000044645,0.0,,Slider,Slider,4.0,object-56,temp_dist_trial,43.0,s_sh_18_1,student_shared,wall calendar,3.0,competing,paired,s_sh_18_1.jpg,Student,,,sub-59
Desktop or Laptop,Windows 10,Chrome 138.0.0.0,2560x1440,1707x960,Temporal Distance Task,cb_03,44.0,temp_dist_trial,num_items,zn7si1,1.0,response,2_ITEM,1318.6000000000058,1314.3000000000175,1318.6000000000058,1318.6000000000058,1314.3000000000175,1318.6000000000058,1.0,0.0,0.0,,Click Response,2_count,5.0,object-49,temp_dist_trial,44.0,s_sh_13_1,student_shared,index cards,3.0,competing,paired,s_sh_13_1.jpg,Student,,,sub-59
Desktop or Laptop,Windows 10,Chrome 138.0.0.0,2560x1440,1707x960,Temporal Distance Task,cb_03,44.0,temp_dist_trial,dist_items,qkpkxw,2.0,info,,5.600000000005821,0.0,5.600000000005821,5.600000000005821,0.0,5.600000000005821,1.0,0.0,0.0,,Slider,Slider,4.0,object-56,temp_dist_trial,44.0,s_sh_13_1,student_shared,index cards,3.0,competing,paired,s_sh_13_1.jpg,Student,,,sub-59
Desktop or Laptop,Windows 10,Chrome 138.0.0.0,2560x1440,1707x960,Temporal Distance Task,cb_03,44.0,temp_dist_trial,dist_items,qkpkxw,2.0,continue,,1840.700000001496,1835.8000000000175,1840.700000001496,1840.700000001496,1835.8000000000175,1840.700000001496,1.0,0.0,0.0,,Click To Continue,Next button,7.0,object-60,temp_dist_trial,44.0,s_sh_13_1,student_shared,index cards,3.0,competing,paired,s_sh_13_1.jpg,Student,,,sub-59
Desktop or Laptop,Windows 10,Chrome 138.0.0.0,2560x1440,1707x960,Temporal Distance Task,cb_03,44.0,temp_dist_trial,dist_items,qkpkxw,2.0,response,31,1154.3999999999942,1835.8000000000175,1841.1000000000056,1154.3999999999942,1835.8000000000175,1841.1000000000056,1.0,686.7000000000116,0.0,,Slider,Slider,4.0,object-56,temp_dist_trial,44.0,s_sh_13_1,student_shared,index cards,3.0,competing,paired,s_sh_13_1.jpg,Student,,,sub-59
Desktop or Laptop,Windows 10,Chrome 138.0.0.0,2560x1440,1707x960,Temporal Distance Task,cb_03,45.0,temp_dist_trial,num_items,zn7si1,1.0,response,1_ITEM,1923.4000000014785,1919.1999999999825,1923.4000000014785,1923.4000000014785,1919.1999999999825,1923.4000000014785,1.0,0.0,0.0,,Click Response,1_count,3.0,object-46,temp_dist_trial,45.0,s_sh_24_1,student_shared,desk organizer,3.0,competing,paired,s_sh_24_1.jpg,Student,,,sub-59
Desktop or Laptop,Windows 10,Chrome 138.0.0.0,2560x1440,1707x960,Temporal Distance Task,cb_03,46.0,temp_dist_trial,num_items,zn7si1,1.0,response,1_ITEM,1522.0000000044822,1515.9000000000233,1522.0000000044822,1522.0000000044822,1515.9000000000233,1522.0000000044822,1.0,0.0,0.0,,Click Response,1_count,3.0,object-46,temp_dist_trial,46.0,s_sh_07_1,student_shared,ruler,3.0,competing,single,s_sh_07_1.jpg,Student,,,sub-59
Desktop or Laptop,Windows 10,Chrome 138.0.0.0,2560x1440,1707x960,Temporal Distance Task,cb_03,47.0,temp_dist_trial,num_items,zn7si1,1.0,response,2_ITEM,1790.9000000059605,1787.1000000000058,1790.9000000059605,1790.9000000059605,1787.1000000000058,1790.9000000059605,1.0,0.0,0.0,,Click Response,2_count,5.0,object-49,temp_dist_trial,47.0,s_sh_17_1,student_shared,wireless mouse,3.0,competing,paired,s_sh_17_1.jpg,Student,,,sub-59
Desktop or Laptop,Windows 10,Chrome 138.0.0.0,2560x1440,1707x960,Temporal Distance Task,cb_03,47.0,temp_dist_trial,dist_items,qkpkxw,2.0,info,,5.300000002986053,0.0,5.300000002986053,5.300000002986053,0.0,5.300000002986053,1.0,0.0,0.0,,Slider,Slider,4.0,object-56,temp_dist_trial,47.0,s_sh_17_1,student_shared,wireless mouse,3.0,competing,paired,s_sh_17_1.jpg,Student,,,sub-59
Desktop or Laptop,Windows 10,Chrome 138.0.0.0,2560x1440,1707x960,Temporal Distance Task,cb_03,47.0,temp_dist_trial,dist_items,qkpkxw,2.0,continue,,1778.700000001496,1773.0,1778.700000001496,1778.700000001496,1773.0,1778.700000001496,1.0,0.0,0.0,,Click To Continue,Next button,7.0,object-60,temp_dist_trial,47.0,s_sh_17_1,student_shared,wireless mouse,3.0,competing,paired,s_sh_17_1.jpg,Student,,,sub-59
Desktop or Laptop,Windows 10,Chrome 138.0.0.0,2560x1440,1707x960,Temporal Distance Task,cb_03,47.0,temp_dist_trial,dist_items,qkpkxw,2.0,response,71,500.7000000000117,1773.0,1779.8999999999942,500.7000000000117,1773.0,1779.8999999999942,1.0,1279.1999999999825,0.0,,Slider,Slider,4.0,object-56,temp_dist_trial,47.0,s_sh_17_1,student_shared,wireless mouse,3.0,competing,paired,s_sh_17_1.jpg,Student,,,sub-59
Desktop or Laptop,Windows 10,Chrome 138.0.0.0,2560x1440,1707x960,Temporal Distance Task,cb_03,48.0,temp_dist_trial,num_items,zn7si1,1.0,response,1_ITEM,1591.0000000059665,1585.5,1591.0000000059665,1591.0000000059665,1585.5,1591.0000000059665,1.0,0.0,0.0,,Click Response,1_count,3.0,object-46,temp_dist_trial,48.0,s_sh_05_1,student_shared,laptop,3.0,competing,single,s_sh_05_1.jpg,Student,,,sub-59
Desktop or Laptop,Windows 10,Chrome 138.0.0.0,2560x1440,1707x960,Temporal Distance Task,cb_03,2.0,temp_eventStart,Screen 1,dgtyxe,1.0,continue,,13573.299999999988,13566.5,13573.299999999988,13573.299999999988,13566.5,13573.299999999988,1.0,0.0,0.0,,Click To Continue,Next Button,3.0,object-43,temp_eventStart,,,Travel,,,,,,,,,sub-59
Desktop or Laptop,Windows 10,Chrome 138.0.0.0,2560x1440,1707x960,Temporal Distance Task,cb_03,49.0,temp_dist_trial,num_items,zn7si1,1.0,response,1_ITEM,1429.6000000044587,1425.5,1429.6000000044587,1429.6000000044587,1425.5,1429.6000000044587,1.0,0.0,0.0,,Click Response,1_count,3.0,object-46,temp_dist_trial,1.0,t_s_14_1,travel_shared,hand sanitizer,3.0,competing,paired,t_s_14_1.jpg,Travel,,,sub-59
Desktop or Laptop,Windows 10,Chrome 138.0.0.0,2560x1440,1707x960,Temporal Distance Task,cb_03,50.0,temp_dist_trial,num_items,zn7si1,1.0,response,2_ITEM,1437.8000000044706,1432.5,1437.8000000044706,1437.8000000044706,1432.5,1437.8000000044706,1.0,0.0,0.0,,Click Response,2_count,5.0,object-49,temp_dist_trial,2.0,t_s_01_1,travel_shared,fanny pack,3.0,competing,paired,t_s_01_1.jpg,Travel,,,sub-59
Desktop or Laptop,Windows 10,Chrome 138.0.0.0,2560x1440,1707x960,Temporal Distance Task,cb_03,50.0,temp_dist_trial,dist_items,qkpkxw,2.0,info,,5.000000004481991,0.0,5.000000004481991,5.000000004481991,0.0,5.000000004481991,1.0,0.0,0.0,,Slider,Slider,4.0,object-56,temp_dist_trial,2.0,t_s_01_1,travel_shared,fanny pack,3.0,competing,paired,t_s_01_1.jpg,Travel,,,sub-59
Desktop or Laptop,Windows 10,Chrome 138.0.0.0,2560x1440,1707x960,Temporal Distance Task,cb_03,50.0,temp_dist_trial,dist_items,qkpkxw,2.0,continue,,1507.5000000044822,1501.9000000000233,1507.5000000044822,1507.5000000044822,1501.9000000000233,1507.5000000044822,1.0,0.0,0.0,,Click To Continue,Next button,7.0,object-60,temp_dist_trial,2.0,t_s_01_1,travel_shared,fanny pack,3.0,competing,paired,t_s_01_1.jpg,Travel,,,sub-59
Desktop or Laptop,Windows 10,Chrome 138.0.0.0,2560x1440,1707x960,Temporal Distance Task,cb_03,50.0,temp_dist_trial,dist_items,qkpkxw,2.0,response,26,521.5,1501.9000000000233,1507.8000000015018,521.5,1501.9000000000233,1507.8000000015018,1.0,986.3000000015018,0.0,,Slider,Slider,4.0,object-56,temp_dist_trial,2.0,t_s_01_1,travel_shared,fanny pack,3.0,competing,paired,t_s_01_1.jpg,Travel,,,sub-59
Desktop or Laptop,Windows 10,Chrome 138.0.0.0,2560x1440,1707x960,Temporal Distance Task,cb_03,51.0,temp_dist_trial,num_items,zn7si1,1.0,response,1_ITEM,1257.2000000059488,1251.6999999999825,1257.2000000059488,1257.2000000059488,1251.6999999999825,1257.2000000059488,1.0,0.0,0.0,,Click Response,1_count,3.0,object-46,temp_dist_trial,3.0,t_m_16_1,travel_Miami,flippers,3.0,unique,single,t_m_16_1.jpg,Travel,,,sub-59
Desktop or Laptop,Windows 10,Chrome 138.0.0.0,2560x1440,1707x960,Temporal Distance Task,cb_03,52.0,temp_dist_trial,num_items,zn7si1,1.0,response,2_ITEM,1003.5000000029686,1001.3999999999942,1003.5000000029686,1003.5000000029686,1001.3999999999942,1003.5000000029686,1.0,0.0,0.0,,Click Response,2_count,5.0,object-49,temp_dist_trial,4.0,t_s_06_1,travel_shared,luggage,3.0,competing,paired,t_s_06_1.jpg,Travel,,,sub-59
Desktop or Laptop,Windows 10,Chrome 138.0.0.0,2560x1440,1707x960,Temporal Distance Task,cb_03,52.0,temp_dist_trial,dist_items,qkpkxw,2.0,info,,5.700000001495937,0.0,5.700000001495937,5.700000001495937,0.0,5.700000001495937,1.0,0.0,0.0,,Slider,Slider,4.0,object-56,temp_dist_trial,4.0,t_s_06_1,travel_shared,luggage,3.0,competing,paired,t_s_06_1.jpg,Travel,,,sub-59
Desktop or Laptop,Windows 10,Chrome 138.0.0.0,2560x1440,1707x960,Temporal Distance Task,cb_03,52.0,temp_dist_trial,dist_items,qkpkxw,2.0,continue,,1234.4000000044764,1230.7000000000114,1234.4000000044764,1234.4000000044764,1230.7000000000114,1234.4000000044764,1.0,0.0,0.0,,Click To Continue,Next button,7.0,object-60,temp_dist_trial,4.0,t_s_06_1,travel_shared,luggage,3.0,competing,paired,t_s_06_1.jpg,Travel,,,sub-59
Desktop or Laptop,Windows 10,Chrome 138.0.0.0,2560x1440,1707x960,Temporal Distance Task,cb_03,52.0,temp_dist_trial,dist_items,qkpkxw,2.0,response,28,570.2000000000116,1230.7000000000114,1234.700000001496,570.2000000000116,1230.7000000000114,1234.700000001496,1.0,664.5000000014842,0.0,,Slider,Slider,4.0,object-56,temp_dist_trial,4.0,t_s_06_1,travel_shared,luggage,3.0,competing,paired,t_s_06_1.jpg,Travel,,,sub-59
Desktop or Laptop,Windows 10,Chrome 138.0.0.0,2560x1440,1707x960,Temporal Distance Task,cb_03,53.0,temp_dist_trial,num_items,zn7si1,1.0,response,1_ITEM,818.8000000059546,813.6000000000058,818.8000000059546,818.8000000059546,813.6000000000058,818.8000000059546,1.0,0.0,0.0,,Click Response,1_count,3.0,object-46,temp_dist_trial,5.0,t_i_19_1,travel_Iceland,rope,3.0,unique,single,t_i_19_1.jpg,Travel,,,sub-59
Desktop or Laptop,Windows 10,Chrome 138.0.0.0,2560x1440,1707x960,Temporal Distance Task,cb_03,54.0,temp_dist_trial,num_items,zn7si1,1.0,response,2_ITEM,992.5,987.3999999999942,992.5,992.5,987.3999999999942,992.5,1.0,0.0,0.0,,Click Response,2_count,5.0,object-49,temp_dist_trial,6.0,t_s_19_1,travel_shared,pajamas,3.0,competing,paired,t_s_19_1.jpg,Travel,,,sub-59
Desktop or Laptop,Windows 10,Chrome 138.0.0.0,2560x1440,1707x960,Temporal Distance Task,cb_03,54.0,temp_dist_trial,dist_items,qkpkxw,2.0,info,,4.900000001478475,0.0,4.900000001478475,4.900000001478475,0.0,4.900000001478475,1.0,0.0,0.0,,Slider,Slider,4.0,object-56,temp_dist_trial,6.0,t_s_19_1,travel_shared,pajamas,3.0,competing,paired,t_s_19_1.jpg,Travel,,,sub-59
Desktop or Laptop,Windows 10,Chrome 138.0.0.0,2560x1440,1707x960,Temporal Distance Task,cb_03,54.0,temp_dist_trial,dist_items,qkpkxw,2.0,continue,,3326.0000000029686,3323.8999999999933,3326.0000000029686,3326.0000000029686,3323.8999999999933,3326.0000000029686,1.0,0.0,0.0,,Click To Continue,Next button,7.0,object-60,temp_dist_trial,6.0,t_s_19_1,travel_shared,pajamas,3.0,competing,paired,t_s_19_1.jpg,Travel,,,sub-59
Desktop or Laptop,Windows 10,Chrome 138.0.0.0,2560x1440,1707x960,Temporal Distance Task,cb_03,54.0,temp_dist_trial,dist_items,qkpkxw,2.0,response,33,2628.5,3323.8999999999933,3326.2000000059493,2628.5,3323.8999999999933,3326.2000000059493,1.0,697.7000000059488,0.0,,Slider,Slider,4.0,object-56,temp_dist_trial,6.0,t_s_19_1,travel_shared,pajamas,3.0,competing,paired,t_s_19_1.jpg,Travel,,,sub-59
Desktop or Laptop,Windows 10,Chrome 138.0.0.0,2560x1440,1707x960,Temporal Distance Task,cb_03,55.0,temp_dist_trial,num_items,zn7si1,1.0,response,1_ITEM,1492.2000000044645,1488.1000000000058,1492.2000000044645,1492.2000000044645,1488.1000000000058,1492.2000000044645,1.0,0.0,0.0,,Click Response,1_count,3.0,object-46,temp_dist_trial,7.0,t_s_17_1,travel_shared,toothbrush,3.0,competing,single,t_s_17_1.jpg,Travel,,,sub-59
Desktop or Laptop,Windows 10,Chrome 138.0.0.0,2560x1440,1707x960,Temporal Distance Task,cb_03,56.0,temp_dist_trial,num_items,zn7si1,1.0,response,1_ITEM,1474.3000000000175,1467.3000000000175,1474.3000000000175,1474.3000000000175,1467.3000000000175,1474.3000000000175,1.0,0.0,0.0,,Click Response,1_count,3.0,object-46,temp_dist_trial,8.0,t_s_11_1,travel_shared,eye mask,3.0,competing,single,t_s_11_1.jpg,Travel,,,sub-59
Desktop or Laptop,Windows 10,Chrome 138.0.0.0,2560x1440,1707x960,Temporal Distance Task,cb_03,57.0,temp_dist_trial,num_items,zn7si1,1.0,response,2_ITEM,1843.60000000149,1842.7000000000119,1843.60000000149,1843.60000000149,1842.7000000000119,1843.60000000149,1.0,0.0,0.0,,Click Response,2_count,5.0,object-49,temp_dist_trial,9.0,t_s_23_1,travel_shared,ball cap,3.0,competing,paired,t_s_23_1.jpg,Travel,,,sub-59
Desktop or Laptop,Windows 10,Chrome 138.0.0.0,2560x1440,1707x960,Temporal Distance Task,cb_03,57.0,temp_dist_trial,dist_items,qkpkxw,2.0,info,,5.700000002980232,0.0,5.700000002980232,5.700000002980232,0.0,5.700000002980232,1.0,0.0,0.0,,Slider,Slider,4.0,object-56,temp_dist_trial,9.0,t_s_23_1,travel_shared,ball cap,3.0,competing,paired,t_s_23_1.jpg,Travel,,,sub-59
Desktop or Laptop,Windows 10,Chrome 138.0.0.0,2560x1440,1707x960,Temporal Distance Task,cb_03,57.0,temp_dist_trial,dist_items,qkpkxw,2.0,continue,,1691.5,1689.7999999999884,1691.5,1691.5,1689.7999999999884,1691.5,1.0,0.0,0.0,,Click To Continue,Next button,7.0,object-60,temp_dist_trial,9.0,t_s_23_1,travel_shared,ball cap,3.0,competing,paired,t_s_23_1.jpg,Travel,,,sub-59
Desktop or Laptop,Windows 10,Chrome 138.0.0.0,2560x1440,1707x960,Temporal Distance Task,cb_03,57.0,temp_dist_trial,dist_items,qkpkxw,2.0,response,68,917.8999999999942,1689.7999999999884,1694.0,917.8999999999942,1689.7999999999884,1694.0,1.0,776.1000000000058,0.0,,Slider,Slider,4.0,object-56,temp_dist_trial,9.0,t_s_23_1,travel_shared,ball cap,3.0,competing,paired,t_s_23_1.jpg,Travel,,,sub-59
Desktop or Laptop,Windows 10,Chrome 138.0.0.0,2560x1440,1707x960,Temporal Distance Task,cb_03,58.0,temp_dist_trial,num_items,zn7si1,1.0,response,1_ITEM,1403.5000000044822,1397.5,1403.5000000044822,1403.5000000044822,1397.5,1403.5000000044822,1.0,0.0,0.0,,Click Response,1_count,3.0,object-46,temp_dist_trial,10.0,t_s_13_1,travel_shared,contact lens case,3.0,competing,paired,t_s_13_1.jpg,Travel,,,sub-59
Desktop or Laptop,Windows 10,Chrome 138.0.0.0,2560x1440,1707x960,Temporal Distance Task,cb_03,59.0,temp_dist_trial,num_items,zn7si1,1.0,response,2_ITEM,1589.2000000059488,1585.5,1589.2000000059488,1589.2000000059488,1585.5,1589.2000000059488,1.0,0.0,0.0,,Click Response,2_count,5.0,object-49,temp_dist_trial,11.0,t_m_04_1,travel_Miami,UV jacket,3.0,unique,paired,t_m_04_1.jpg,Travel,,,sub-59
Desktop or Laptop,Windows 10,Chrome 138.0.0.0,2560x1440,1707x960,Temporal Distance Task,cb_03,59.0,temp_dist_trial,dist_items,qkpkxw,2.0,info,,6.600000001490116,0.0,6.600000001490116,6.600000001490116,0.0,6.600000001490116,1.0,0.0,0.0,,Slider,Slider,4.0,object-56,temp_dist_trial,11.0,t_m_04_1,travel_Miami,UV jacket,3.0,unique,paired,t_m_04_1.jpg,Travel,,,sub-59
Desktop or Laptop,Windows 10,Chrome 138.0.0.0,2560x1440,1707x960,Temporal Distance Task,cb_03,59.0,temp_dist_trial,dist_items,qkpkxw,2.0,continue,,2490.7000000029802,2489.3999999999937,2490.7000000029802,2490.7000000029802,2489.3999999999937,2490.7000000029802,1.0,0.0,0.0,,Click To Continue,Next button,7.0,object-60,temp_dist_trial,11.0,t_m_04_1,travel_Miami,UV jacket,3.0,unique,paired,t_m_04_1.jpg,Travel,,,sub-59
Desktop or Laptop,Windows 10,Chrome 138.0.0.0,2560x1440,1707x960,Temporal Distance Task,cb_03,59.0,temp_dist_trial,dist_items,qkpkxw,2.0,response,86,751.0,2489.3999999999937,2491.1000000014897,751.0,2489.3999999999937,2491.1000000014897,1.0,1740.1000000014901,0.0,,Slider,Slider,4.0,object-56,temp_dist_trial,11.0,t_m_04_1,travel_Miami,UV jacket,3.0,unique,paired,t_m_04_1.jpg,Travel,,,sub-59
Desktop or Laptop,Windows 10,Chrome 138.0.0.0,2560x1440,1707x960,Temporal Distance Task,cb_03,60.0,temp_dist_trial,num_items,zn7si1,1.0,response,1_ITEM,1605.200000001496,1599.2000000000116,1605.200000001496,1605.200000001496,1599.2000000000116,1605.200000001496,1.0,0.0,0.0,,Click Response,1_count,3.0,object-46,temp_dist_trial,12.0,t_s_08_1,travel_shared,hand lotion,3.0,competing,single,t_s_08_1.jpg,Travel,,,sub-59
Desktop or Laptop,Windows 10,Chrome 138.0.0.0,2560x1440,1707x960,Temporal Distance Task,cb_03,61.0,temp_dist_trial,num_items,zn7si1,1.0,response,2_ITEM,1842.0,1835.7000000000119,1842.0,1842.0,1835.7000000000119,1842.0,1.0,0.0,0.0,,Click Response,2_count,5.0,object-49,temp_dist_trial,13.0,t_m_15_1,travel_Miami,shorts,3.0,unique,single,t_m_15_1.jpg,Travel,,,sub-59
Desktop or Laptop,Windows 10,Chrome 138.0.0.0,2560x1440,1707x960,Temporal Distance Task,cb_03,61.0,temp_dist_trial,dist_items,qkpkxw,2.0,info,,7.0,0.0,7.0,7.0,0.0,7.0,1.0,0.0,0.0,,Slider,Slider,4.0,object-56,temp_dist_trial,13.0,t_m_15_1,travel_Miami,shorts,3.0,unique,single,t_m_15_1.jpg,Travel,,,sub-59
Desktop or Laptop,Windows 10,Chrome 138.0.0.0,2560x1440,1707x960,Temporal Distance Task,cb_03,61.0,temp_dist_trial,dist_items,qkpkxw,2.0,continue,,2793.3000000059546,2788.2999999999884,2793.3000000059546,2793.3000000059546,2788.2999999999884,2793.3000000059546,1.0,0.0,0.0,,Click To Continue,Next button,7.0,object-60,temp_dist_trial,13.0,t_m_15_1,travel_Miami,shorts,3.0,unique,single,t_m_15_1.jpg,Travel,,,sub-59
Desktop or Laptop,Windows 10,Chrome 138.0.0.0,2560x1440,1707x960,Temporal Distance Task,cb_03,61.0,temp_dist_trial,dist_items,qkpkxw,2.0,response,49,1807.8999999999944,2788.2999999999884,2795.199999999982,1807.8999999999944,2788.2999999999884,2795.199999999982,1.0,987.2999999999884,0.0,,Slider,Slider,4.0,object-56,temp_dist_trial,13.0,t_m_15_1,travel_Miami,shorts,3.0,unique,single,t_m_15_1.jpg,Travel,,,sub-59
Desktop or Laptop,Windows 10,Chrome 138.0.0.0,2560x1440,1707x960,Temporal Distance Task,cb_03,62.0,temp_dist_trial,num_items,zn7si1,1.0,response,1_ITEM,1277.9000000044764,1272.5,1277.9000000044764,1277.9000000044764,1272.5,1277.9000000044764,1.0,0.0,0.0,,Click Response,1_count,3.0,object-46,temp_dist_trial,14.0,t_s_22_1,travel_shared,belt,3.0,competing,single,t_s_22_1.jpg,Travel,,,sub-59
Desktop or Laptop,Windows 10,Chrome 138.0.0.0,2560x1440,1707x960,Temporal Distance Task,cb_03,63.0,temp_dist_trial,num_items,zn7si1,1.0,response,2_ITEM,978.000000004482,973.5,978.000000004482,978.000000004482,973.5,978.000000004482,1.0,0.0,0.0,,Click Response,2_count,5.0,object-49,temp_dist_trial,15.0,t_m_01_1,travel_Miami,sandals,3.0,unique,paired,t_m_01_1.jpg,Travel,,,sub-59
Desktop or Laptop,Windows 10,Chrome 138.0.0.0,2560x1440,1707x960,Temporal Distance Task,cb_03,63.0,temp_dist_trial,dist_items,qkpkxw,2.0,info,,5.300000005954644,0.0,5.300000005954644,5.300000005954644,0.0,5.300000005954644,1.0,0.0,0.0,,Slider,Slider,4.0,object-56,temp_dist_trial,15.0,t_m_01_1,travel_Miami,sandals,3.0,unique,paired,t_m_01_1.jpg,Travel,,,sub-59
Desktop or Laptop,Windows 10,Chrome 138.0.0.0,2560x1440,1707x960,Temporal Distance Task,cb_03,63.0,temp_dist_trial,dist_items,qkpkxw,2.0,continue,,1733.7000000044645,1731.3999999999942,1733.7000000044645,1733.7000000044645,1731.3999999999942,1733.7000000044645,1.0,0.0,0.0,,Click To Continue,Next button,7.0,object-60,temp_dist_trial,15.0,t_m_01_1,travel_Miami,sandals,3.0,unique,paired,t_m_01_1.jpg,Travel,,,sub-59
Desktop or Laptop,Windows 10,Chrome 138.0.0.0,2560x1440,1707x960,Temporal Distance Task,cb_03,63.0,temp_dist_trial,dist_items,qkpkxw,2.0,response,70,723.1999999999823,1731.3999999999942,1734.1000000029746,723.1999999999823,1731.3999999999942,1734.1000000029746,1.0,1010.900000002992,0.0,,Slider,Slider,4.0,object-56,temp_dist_trial,15.0,t_m_01_1,travel_Miami,sandals,3.0,unique,paired,t_m_01_1.jpg,Travel,,,sub-59
Desktop or Laptop,Windows 10,Chrome 138.0.0.0,2560x1440,1707x960,Temporal Distance Task,cb_03,64.0,temp_dist_trial,num_items,zn7si1,1.0,response,1_ITEM,1445.5,1439.5,1445.5,1445.5,1439.5,1445.5,1.0,0.0,0.0,,Click Response,1_count,3.0,object-46,temp_dist_trial,16.0,t_s_15_1,travel_shared,luggage tag,3.0,competing,paired,t_s_15_1.jpg,Travel,,,sub-59
Desktop or Laptop,Windows 10,Chrome 138.0.0.0,2560x1440,1707x960,Temporal Distance Task,cb_03,65.0,temp_dist_trial,num_items,zn7si1,1.0,response,1_ITEM,1851.300000001501,1849.6000000000056,1851.300000001501,1851.300000001501,1849.6000000000056,1851.300000001501,1.0,0.0,0.0,,Click Response,1_count,3.0,object-46,temp_dist_trial,17.0,t_s_20_1,travel_shared,travel pill case,3.0,competing,single,t_s_20_1.jpg,Travel,,,sub-59
Desktop or Laptop,Windows 10,Chrome 138.0.0.0,2560x1440,1707x960,Temporal Distance Task,cb_03,66.0,temp_dist_trial,num_items,zn7si1,1.0,response,1_ITEM,1427.7999999999884,1425.5,1427.7999999999884,1427.7999999999884,1425.5,1427.7999999999884,1.0,0.0,0.0,,Click Response,1_count,3.0,object-46,temp_dist_trial,18.0,t_i_15_1,travel_Iceland,compass,3.0,unique,paired,t_i_15_1.jpg,Travel,,,sub-59
Desktop or Laptop,Windows 10,Chrome 138.0.0.0,2560x1440,1707x960,Temporal Distance Task,cb_03,67.0,temp_dist_trial,num_items,zn7si1,1.0,response,2_ITEM,1145.2000000044645,1140.2999999999886,1145.2000000044645,1145.2000000044645,1140.2999999999886,1145.2000000044645,1.0,0.0,0.0,,Click Response,2_count,5.0,object-49,temp_dist_trial,19.0,t_m_10_1,travel_Miami,tanktop,3.0,unique,paired,t_m_10_1.jpg,Travel,,,sub-59
Desktop or Laptop,Windows 10,Chrome 138.0.0.0,2560x1440,1707x960,Temporal Distance Task,cb_03,67.0,temp_dist_trial,dist_items,qkpkxw,2.0,info,,5.300000001501759,0.0,5.300000001501759,5.300000001501759,0.0,5.300000001501759,1.0,0.0,0.0,,Slider,Slider,4.0,object-56,temp_dist_trial,19.0,t_m_10_1,travel_Miami,tanktop,3.0,unique,paired,t_m_10_1.jpg,Travel,,,sub-59
Desktop or Laptop,Windows 10,Chrome 138.0.0.0,2560x1440,1707x960,Temporal Distance Task,cb_03,67.0,temp_dist_trial,dist_items,qkpkxw,2.0,continue,,1560.2000000000116,1557.5,1560.2000000000116,1560.2000000000116,1557.5,1560.2000000000116,1.0,0.0,0.0,,Click To Continue,Next button,7.0,object-60,temp_dist_trial,19.0,t_m_10_1,travel_Miami,tanktop,3.0,unique,paired,t_m_10_1.jpg,Travel,,,sub-59
Desktop or Laptop,Windows 10,Chrome 138.0.0.0,2560x1440,1707x960,Temporal Distance Task,cb_03,67.0,temp_dist_trial,dist_items,qkpkxw,2.0,response,69,813.6000000000058,1557.5,1560.6000000059719,813.6000000000058,1557.5,1560.6000000059719,1.0,747.0000000059662,0.0,,Slider,Slider,4.0,object-56,temp_dist_trial,19.0,t_m_10_1,travel_Miami,tanktop,3.0,unique,paired,t_m_10_1.jpg,Travel,,,sub-59
Desktop or Laptop,Windows 10,Chrome 138.0.0.0,2560x1440,1707x960,Temporal Distance Task,cb_03,68.0,temp_dist_trial,num_items,zn7si1,1.0,response,1_ITEM,1041.000000004482,1036.2000000000116,1041.000000004482,1041.000000004482,1036.2000000000116,1041.000000004482,1.0,0.0,0.0,,Click Response,1_count,3.0,object-46,temp_dist_trial,20.0,t_m_17_1,travel_Miami,water gun,3.0,unique,paired,t_m_17_1.jpg,Travel,,,sub-59
Desktop or Laptop,Windows 10,Chrome 138.0.0.0,2560x1440,1707x960,Temporal Distance Task,cb_03,69.0,temp_dist_trial,num_items,zn7si1,1.0,response,2_ITEM,1396.0000000044822,1390.8000000000175,1396.0000000044822,1396.0000000044822,1390.8000000000175,1396.0000000044822,1.0,0.0,0.0,,Click Response,2_count,5.0,object-49,temp_dist_trial,21.0,t_s_16_1,travel_shared,chapstick,3.0,competing,paired,t_s_16_1.jpg,Travel,,,sub-59
Desktop or Laptop,Windows 10,Chrome 138.0.0.0,2560x1440,1707x960,Temporal Distance Task,cb_03,69.0,temp_dist_trial,dist_items,qkpkxw,2.0,info,,5.300000002986053,0.0,5.300000002986053,5.300000002986053,0.0,5.300000002986053,1.0,0.0,0.0,,Slider,Slider,4.0,object-56,temp_dist_trial,21.0,t_s_16_1,travel_shared,chapstick,3.0,competing,paired,t_s_16_1.jpg,Travel,,,sub-59
Desktop or Laptop,Windows 10,Chrome 138.0.0.0,2560x1440,1707x960,Temporal Distance Task,cb_03,69.0,temp_dist_trial,dist_items,qkpkxw,2.0,continue,,1526.5000000059665,1522.7000000000116,1526.5000000059665,1526.5000000059665,1522.7000000000116,1526.5000000059665,1.0,0.0,0.0,,Click To Continue,Next button,7.0,object-60,temp_dist_trial,21.0,t_s_16_1,travel_shared,chapstick,3.0,competing,paired,t_s_16_1.jpg,Travel,,,sub-59
Desktop or Laptop,Windows 10,Chrome 138.0.0.0,2560x1440,1707x960,Temporal Distance Task,cb_03,69.0,temp_dist_trial,dist_items,qkpkxw,2.0,response,25,827.5,1522.7000000000116,1526.9000000044766,827.5,1522.7000000000116,1526.9000000044766,1.0,699.4000000044763,0.0,,Slider,Slider,4.0,object-56,temp_dist_trial,21.0,t_s_16_1,travel_shared,chapstick,3.0,competing,paired,t_s_16_1.jpg,Travel,,,sub-59
Desktop or Laptop,Windows 10,Chrome 138.0.0.0,2560x1440,1707x960,Temporal Distance Task,cb_03,70.0,temp_dist_trial,num_items,zn7si1,1.0,response,2_ITEM,1962.5000000014843,1961.0,1962.5000000014843,1962.5000000014843,1961.0,1962.5000000014843,1.0,0.0,0.0,,Click Response,2_count,5.0,object-49,temp_dist_trial,22.0,t_i_09_1,travel_Iceland,ear muffs,3.0,unique,paired,t_i_09_1.jpg,Travel,,,sub-59
Desktop or Laptop,Windows 10,Chrome 138.0.0.0,2560x1440,1707x960,Temporal Distance Task,cb_03,70.0,temp_dist_trial,dist_items,qkpkxw,2.0,info,,5.0,0.0,5.0,5.0,0.0,5.0,1.0,0.0,0.0,,Slider,Slider,4.0,object-56,temp_dist_trial,22.0,t_i_09_1,travel_Iceland,ear muffs,3.0,unique,paired,t_i_09_1.jpg,Travel,,,sub-59
Desktop or Laptop,Windows 10,Chrome 138.0.0.0,2560x1440,1707x960,Temporal Distance Task,cb_03,70.0,temp_dist_trial,dist_items,qkpkxw,2.0,continue,,2425.3000000044703,2419.700000000012,2425.3000000044703,2425.3000000044703,2419.700000000012,2425.3000000044703,1.0,0.0,0.0,,Click To Continue,Next button,7.0,object-60,temp_dist_trial,22.0,t_i_09_1,travel_Iceland,ear muffs,3.0,unique,paired,t_i_09_1.jpg,Travel,,,sub-59
Desktop or Laptop,Windows 10,Chrome 138.0.0.0,2560x1440,1707x960,Temporal Distance Task,cb_03,70.0,temp_dist_trial,dist_items,qkpkxw,2.0,response,81,959.5,2419.700000000012,2426.500000000029,959.5,2419.700000000012,2426.500000000029,1.0,1467.000000000029,0.0,,Slider,Slider,4.0,object-56,temp_dist_trial,22.0,t_i_09_1,travel_Iceland,ear muffs,3.0,unique,paired,t_i_09_1.jpg,Travel,,,sub-59
Desktop or Laptop,Windows 10,Chrome 138.0.0.0,2560x1440,1707x960,Temporal Distance Task,cb_03,71.0,temp_dist_trial,num_items,zn7si1,1.0,response,1_ITEM,1432.4000000000233,1425.5,1432.4000000000233,1432.4000000000233,1425.5,1432.4000000000233,1.0,0.0,0.0,,Click Response,1_count,3.0,object-46,temp_dist_trial,23.0,t_s_24_1,travel_shared,ear plugs,3.0,competing,paired,t_s_24_1.jpg,Travel,,,sub-59
Desktop or Laptop,Windows 10,Chrome 138.0.0.0,2560x1440,1707x960,Temporal Distance Task,cb_03,72.0,temp_dist_trial,num_items,zn7si1,1.0,response,2_ITEM,1960.3000000059546,1954.0,1960.3000000059546,1960.3000000059546,1954.0,1960.3000000059546,1.0,0.0,0.0,,Click Response,2_count,5.0,object-49,temp_dist_trial,24.0,t_s_03_1,travel_shared,portable charger,3.0,competing,paired,t_s_03_1.jpg,Travel,,,sub-59
Desktop or Laptop,Windows 10,Chrome 138.0.0.0,2560x1440,1707x960,Temporal Distance Task,cb_03,72.0,temp_dist_trial,dist_items,qkpkxw,2.0,info,,5.000000005966285,0.0,5.000000005966285,5.000000005966285,0.0,5.000000005966285,1.0,0.0,0.0,,Slider,Slider,4.0,object-56,temp_dist_trial,24.0,t_s_03_1,travel_shared,portable charger,3.0,competing,paired,t_s_03_1.jpg,Travel,,,sub-59
Desktop or Laptop,Windows 10,Chrome 138.0.0.0,2560x1440,1707x960,Temporal Distance Task,cb_03,72.0,temp_dist_trial,dist_items,qkpkxw,2.0,continue,,3183.5000000059667,3177.800000000017,3183.5000000059667,3183.5000000059667,3177.800000000017,3183.5000000059667,1.0,0.0,0.0,,Click To Continue,Next button,7.0,object-60,temp_dist_trial,24.0,t_s_03_1,travel_shared,portable charger,3.0,competing,paired,t_s_03_1.jpg,Travel,,,sub-59
Desktop or Laptop,Windows 10,Chrome 138.0.0.0,2560x1440,1707x960,Temporal Distance Task,cb_03,72.0,temp_dist_trial,dist_items,qkpkxw,2.0,response,74,1703.6000000000058,3177.800000000017,3183.9000000044757,1703.6000000000058,3177.800000000017,3183.9000000044757,1.0,1480.3000000044706,0.0,,Slider,Slider,4.0,object-56,temp_dist_trial,24.0,t_s_03_1,travel_shared,portable charger,3.0,competing,paired,t_s_03_1.jpg,Travel,,,sub-59
Desktop or Laptop,Windows 10,Chrome 138.0.0.0,2560x1440,1707x960,Temporal Distance Task,cb_03,73.0,temp_dist_trial,num_items,zn7si1,1.0,response,1_ITEM,1821.0000000029688,1814.7999999999884,1821.0000000029688,1821.0000000029688,1814.7999999999884,1821.0000000029688,1.0,0.0,0.0,,Click Response,1_count,3.0,object-46,temp_dist_trial,25.0,t_s_07_1,travel_shared,phone charger cable,3.0,competing,single,t_s_07_1.jpg,Travel,,,sub-59
Desktop or Laptop,Windows 10,Chrome 138.0.0.0,2560x1440,1707x960,Temporal Distance Task,cb_03,74.0,temp_dist_trial,num_items,zn7si1,1.0,response,1_ITEM,1872.800000001501,1870.5,1872.800000001501,1872.800000001501,1870.5,1872.800000001501,1.0,0.0,0.0,,Click Response,1_count,3.0,object-46,temp_dist_trial,26.0,t_i_13_1,travel_Iceland,sleeping bag,3.0,unique,paired,t_i_13_1.jpg,Travel,,,sub-59
Desktop or Laptop,Windows 10,Chrome 138.0.0.0,2560x1440,1707x960,Temporal Distance Task,cb_03,75.0,temp_dist_trial,num_items,zn7si1,1.0,response,2_ITEM,1216.1000000044587,1209.899999999965,1216.1000000044587,1216.1000000044587,1209.899999999965,1216.1000000044587,1.0,0.0,0.0,,Click Response,2_count,5.0,object-49,temp_dist_trial,27.0,t_m_14_1,travel_Miami,swim goggles,3.0,unique,paired,t_m_14_1.jpg,Travel,,,sub-59
Desktop or Laptop,Windows 10,Chrome 138.0.0.0,2560x1440,1707x960,Temporal Distance Task,cb_03,75.0,temp_dist_trial,dist_items,qkpkxw,2.0,info,,4.800000002956949,0.0,4.800000002956949,4.800000002956949,0.0,4.800000002956949,1.0,0.0,0.0,,Slider,Slider,4.0,object-56,temp_dist_trial,27.0,t_m_14_1,travel_Miami,swim goggles,3.0,unique,paired,t_m_14_1.jpg,Travel,,,sub-59
Desktop or Laptop,Windows 10,Chrome 138.0.0.0,2560x1440,1707x960,Temporal Distance Task,cb_03,75.0,temp_dist_trial,dist_items,qkpkxw,2.0,continue,,2417.700000001467,2412.899999999965,2417.700000001467,2417.700000001467,2412.899999999965,2417.700000001467,1.0,0.0,0.0,,Click To Continue,Next button,7.0,object-60,temp_dist_trial,27.0,t_m_14_1,travel_Miami,swim goggles,3.0,unique,paired,t_m_14_1.jpg,Travel,,,sub-59
Desktop or Laptop,Windows 10,Chrome 138.0.0.0,2560x1440,1707x960,Temporal Distance Task,cb_03,75.0,temp_dist_trial,dist_items,qkpkxw,2.0,response,66,1634.0999999999767,2412.899999999965,2417.900000004447,1634.0999999999767,2412.899999999965,2417.900000004447,1.0,783.8000000044702,0.0,,Slider,Slider,4.0,object-56,temp_dist_trial,27.0,t_m_14_1,travel_Miami,swim goggles,3.0,unique,paired,t_m_14_1.jpg,Travel,,,sub-59
Desktop or Laptop,Windows 10,Chrome 138.0.0.0,2560x1440,1707x960,Temporal Distance Task,cb_03,76.0,temp_dist_trial,num_items,zn7si1,1.0,response,2_ITEM,1370.7000000000114,1369.9000000000233,1370.7000000000114,1370.7000000000114,1369.9000000000233,1370.7000000000114,1.0,0.0,0.0,,Click Response,2_count,5.0,object-49,temp_dist_trial,28.0,t_i_17_1,travel_Iceland,binoculars,3.0,unique,paired,t_i_17_1.jpg,Travel,,,sub-59
Desktop or Laptop,Windows 10,Chrome 138.0.0.0,2560x1440,1707x960,Temporal Distance Task,cb_03,76.0,temp_dist_trial,dist_items,qkpkxw,2.0,info,,5.0,0.0,5.0,5.0,0.0,5.0,1.0,0.0,0.0,,Slider,Slider,4.0,object-56,temp_dist_trial,28.0,t_i_17_1,travel_Iceland,binoculars,3.0,unique,paired,t_i_17_1.jpg,Travel,,,sub-59
Desktop or Laptop,Windows 10,Chrome 138.0.0.0,2560x1440,1707x960,Temporal Distance Task,cb_03,76.0,temp_dist_trial,dist_items,qkpkxw,2.0,continue,,2394.1000000014897,2392.099999999977,2394.1000000014897,2394.1000000014897,2392.099999999977,2394.1000000014897,1.0,0.0,0.0,,Click To Continue,Next button,7.0,object-60,temp_dist_trial,28.0,t_i_17_1,travel_Iceland,binoculars,3.0,unique,paired,t_i_17_1.jpg,Travel,,,sub-59
Desktop or Laptop,Windows 10,Chrome 138.0.0.0,2560x1440,1707x960,Temporal Distance Task,cb_03,76.0,temp_dist_trial,dist_items,qkpkxw,2.0,response,26,792.7000000000116,2392.099999999977,2394.3000000044703,792.7000000000116,2392.099999999977,2394.3000000044703,1.0,1601.6000000044587,0.0,,Slider,Slider,4.0,object-56,temp_dist_trial,28.0,t_i_17_1,travel_Iceland,binoculars,3.0,unique,paired,t_i_17_1.jpg,Travel,,,sub-59
Desktop or Laptop,Windows 10,Chrome 138.0.0.0,2560x1440,1707x960,Temporal Distance Task,cb_03,77.0,temp_dist_trial,num_items,zn7si1,1.0,response,1_ITEM,1303.7000000044936,1300.3000000000466,1303.7000000044936,1303.7000000044936,1300.3000000000466,1303.7000000044936,1.0,0.0,0.0,,Click Response,1_count,3.0,object-46,temp_dist_trial,29.0,t_m_18_1,travel_Miami,waterproof tote,3.0,unique,single,t_m_18_1.jpg,Travel,,,sub-59
Desktop or Laptop,Windows 10,Chrome 138.0.0.0,2560x1440,1707x960,Temporal Distance Task,cb_03,78.0,temp_dist_trial,num_items,zn7si1,1.0,response,2_ITEM,1832.2999999999884,1828.7999999999884,1832.2999999999884,1832.2999999999884,1828.7999999999884,1832.2999999999884,1.0,0.0,0.0,,Click Response,2_count,5.0,object-49,temp_dist_trial,30.0,t_m_20_1,travel_Miami,inflatable beachball,3.0,unique,paired,t_m_20_1.jpg,Travel,,,sub-59
Desktop or Laptop,Windows 10,Chrome 138.0.0.0,2560x1440,1707x960,Temporal Distance Task,cb_03,78.0,temp_dist_trial,dist_items,qkpkxw,2.0,info,,5.7000000000116415,0.0,5.7000000000116415,5.7000000000116415,0.0,5.7000000000116415,1.0,0.0,0.0,,Slider,Slider,4.0,object-56,temp_dist_trial,30.0,t_m_20_1,travel_Miami,inflatable beachball,3.0,unique,paired,t_m_20_1.jpg,Travel,,,sub-59
Desktop or Laptop,Windows 10,Chrome 138.0.0.0,2560x1440,1707x960,Temporal Distance Task,cb_03,78.0,temp_dist_trial,dist_items,qkpkxw,2.0,continue,,1840.1000000059719,1835.7999999999884,1840.1000000059719,1840.1000000059719,1835.7999999999884,1840.1000000059719,1.0,0.0,0.0,,Click To Continue,Next button,7.0,object-60,temp_dist_trial,30.0,t_m_20_1,travel_Miami,inflatable beachball,3.0,unique,paired,t_m_20_1.jpg,Travel,,,sub-59
Desktop or Laptop,Windows 10,Chrome 138.0.0.0,2560x1440,1707x960,Temporal Distance Task,cb_03,78.0,temp_dist_trial,dist_items,qkpkxw,2.0,response,79,1237.7000000000114,1835.7999999999884,1840.4000000029919,1237.7000000000114,1835.7999999999884,1840.4000000029919,1.0,602.7000000029802,0.0,,Slider,Slider,4.0,object-56,temp_dist_trial,30.0,t_m_20_1,travel_Miami,inflatable beachball,3.0,unique,paired,t_m_20_1.jpg,Travel,,,sub-59
Desktop or Laptop,Windows 10,Chrome 138.0.0.0,2560x1440,1707x960,Temporal Distance Task,cb_03,79.0,temp_dist_trial,num_items,zn7si1,1.0,response,1_ITEM,1136.5000000015136,1133.4000000000233,1136.5000000015136,1136.5000000015136,1133.4000000000233,1136.5000000015136,1.0,0.0,0.0,,Click Response,1_count,3.0,object-46,temp_dist_trial,31.0,t_s_05_1,travel_shared,neck pillow,3.0,competing,single,t_s_05_1.jpg,Travel,,,sub-59
Desktop or Laptop,Windows 10,Chrome 138.0.0.0,2560x1440,1707x960,Temporal Distance Task,cb_03,80.0,temp_dist_trial,num_items,zn7si1,1.0,response,1_ITEM,1467.2999999999884,1460.2999999999884,1467.2999999999884,1467.2999999999884,1460.2999999999884,1467.2999999999884,1.0,0.0,0.0,,Click Response,1_count,3.0,object-46,temp_dist_trial,32.0,t_m_19_1,travel_Miami,surfboard,3.0,unique,single,t_m_19_1.jpg,Travel,,,sub-59
Desktop or Laptop,Windows 10,Chrome 138.0.0.0,2560x1440,1707x960,Temporal Distance Task,cb_03,81.0,temp_dist_trial,num_items,zn7si1,1.0,response,1_ITEM,1174.5000000059372,1168.1999999999534,1174.5000000059372,1174.5000000059372,1168.1999999999534,1174.5000000059372,1.0,0.0,0.0,,Click Response,1_count,3.0,object-46,temp_dist_trial,33.0,t_i_20_1,travel_Iceland,lantern,3.0,unique,single,t_i_20_1.jpg,Travel,,,sub-59
Desktop or Laptop,Windows 10,Chrome 138.0.0.0,2560x1440,1707x960,Temporal Distance Task,cb_03,82.0,temp_dist_trial,num_items,zn7si1,1.0,response,2_ITEM,953.4000000044472,952.6999999999533,953.4000000044472,953.4000000044472,952.6999999999533,953.4000000044472,1.0,0.0,0.0,,Click Response,2_count,5.0,object-49,temp_dist_trial,34.0,t_s_21_1,travel_shared,umbrella,3.0,competing,paired,t_s_21_1.jpg,Travel,,,sub-59
Desktop or Laptop,Windows 10,Chrome 138.0.0.0,2560x1440,1707x960,Temporal Distance Task,cb_03,82.0,temp_dist_trial,dist_items,qkpkxw,2.0,info,,5.300000002956949,0.0,5.300000002956949,5.300000002956949,0.0,5.300000002956949,1.0,0.0,0.0,,Slider,Slider,4.0,object-56,temp_dist_trial,34.0,t_s_21_1,travel_shared,umbrella,3.0,competing,paired,t_s_21_1.jpg,Travel,,,sub-59
Desktop or Laptop,Windows 10,Chrome 138.0.0.0,2560x1440,1707x960,Temporal Distance Task,cb_03,82.0,temp_dist_trial,dist_items,qkpkxw,2.0,continue,,2018.000000005937,2016.5999999999767,2018.000000005937,2018.000000005937,2016.5999999999767,2018.000000005937,1.0,0.0,0.0,,Click To Continue,Next button,7.0,object-60,temp_dist_trial,34.0,t_s_21_1,travel_shared,umbrella,3.0,competing,paired,t_s_21_1.jpg,Travel,,,sub-59
Desktop or Laptop,Windows 10,Chrome 138.0.0.0,2560x1440,1707x960,Temporal Distance Task,cb_03,82.0,temp_dist_trial,dist_items,qkpkxw,2.0,response,31,834.3999999999651,2016.5999999999767,2018.400000004447,834.3999999999651,2016.5999999999767,2018.400000004447,1.0,1184.000000004482,0.0,,Slider,Slider,4.0,object-56,temp_dist_trial,34.0,t_s_21_1,travel_shared,umbrella,3.0,competing,paired,t_s_21_1.jpg,Travel,,,sub-59
Desktop or Laptop,Windows 10,Chrome 138.0.0.0,2560x1440,1707x960,Temporal Distance Task,cb_03,83.0,temp_dist_trial,num_items,zn7si1,1.0,response,2_ITEM,1740.8000000044706,1738.2999999999884,1740.8000000044706,1740.8000000044706,1738.2999999999884,1740.8000000044706,1.0,0.0,0.0,,Click Response,2_count,5.0,object-49,temp_dist_trial,35.0,t_i_03_1,travel_Iceland,winter jacket,3.0,unique,paired,t_i_03_1.jpg,Travel,,,sub-59
Desktop or Laptop,Windows 10,Chrome 138.0.0.0,2560x1440,1707x960,Temporal Distance Task,cb_03,83.0,temp_dist_trial,dist_items,qkpkxw,2.0,info,,5.700000004493631,0.0,5.700000004493631,5.700000004493631,0.0,5.700000004493631,1.0,0.0,0.0,,Slider,Slider,4.0,object-56,temp_dist_trial,35.0,t_i_03_1,travel_Iceland,winter jacket,3.0,unique,paired,t_i_03_1.jpg,Travel,,,sub-59
Desktop or Laptop,Windows 10,Chrome 138.0.0.0,2560x1440,1707x960,Temporal Distance Task,cb_03,83.0,temp_dist_trial,dist_items,qkpkxw,2.0,continue,,1546.1000000030035,1543.7000000000116,1546.1000000030035,1546.1000000030035,1543.7000000000116,1546.1000000030035,1.0,0.0,0.0,,Click To Continue,Next button,7.0,object-60,temp_dist_trial,35.0,t_i_03_1,travel_Iceland,winter jacket,3.0,unique,paired,t_i_03_1.jpg,Travel,,,sub-59
Desktop or Laptop,Windows 10,Chrome 138.0.0.0,2560x1440,1707x960,Temporal Distance Task,cb_03,83.0,temp_dist_trial,dist_items,qkpkxw,2.0,response,30,702.3000000000467,1543.7000000000116,1546.6000000030035,702.3000000000467,1543.7000000000116,1546.6000000030035,1.0,844.300000002957,0.0,,Slider,Slider,4.0,object-56,temp_dist_trial,35.0,t_i_03_1,travel_Iceland,winter jacket,3.0,unique,paired,t_i_03_1.jpg,Travel,,,sub-59
Desktop or Laptop,Windows 10,Chrome 138.0.0.0,2560x1440,1707x960,Temporal Distance Task,cb_03,84.0,temp_dist_trial,num_items,zn7si1,1.0,response,1_ITEM,1872.800000001501,1870.6000000000354,1872.800000001501,1872.800000001501,1870.6000000000354,1872.800000001501,1.0,0.0,0.0,,Click Response,1_count,3.0,object-46,temp_dist_trial,36.0,t_m_12_1,travel_Miami,foldable pail and shovel,3.0,unique,paired,t_m_12_1.jpg,Travel,,,sub-59
Desktop or Laptop,Windows 10,Chrome 138.0.0.0,2560x1440,1707x960,Temporal Distance Task,cb_03,85.0,temp_dist_trial,num_items,zn7si1,1.0,response,1_ITEM,1700.2000000059488,1696.7000000000116,1700.2000000059488,1700.2000000059488,1696.7000000000116,1700.2000000059488,1.0,0.0,0.0,,Click Response,1_count,3.0,object-46,temp_dist_trial,37.0,t_i_10_1,travel_Iceland,trekking poles,3.0,unique,single,t_i_10_1.jpg,Travel,,,sub-59
Desktop or Laptop,Windows 10,Chrome 138.0.0.0,2560x1440,1707x960,Temporal Distance Task,cb_03,86.0,temp_dist_trial,num_items,zn7si1,1.0,response,1_ITEM,1559.5000000015134,1557.7000000000116,1559.5000000015134,1559.5000000015134,1557.7000000000116,1559.5000000015134,1.0,0.0,0.0,,Click Response,1_count,3.0,object-46,temp_dist_trial,38.0,t_s_10_1,travel_shared,luggage lock,3.0,competing,paired,t_s_10_1.jpg,Travel,,,sub-59
Desktop or Laptop,Windows 10,Chrome 138.0.0.0,2560x1440,1707x960,Temporal Distance Task,cb_03,87.0,temp_dist_trial,num_items,zn7si1,1.0,response,2_ITEM,1234.9000000059605,1230.9000000000233,1234.9000000059605,1234.9000000059605,1230.9000000000233,1234.9000000059605,1.0,0.0,0.0,,Click Response,2_count,5.0,object-49,temp_dist_trial,39.0,t_i_02_1,travel_Iceland,scarf,3.0,unique,paired,t_i_02_1.jpg,Travel,,,sub-59
Desktop or Laptop,Windows 10,Chrome 138.0.0.0,2560x1440,1707x960,Temporal Distance Task,cb_03,87.0,temp_dist_trial,dist_items,qkpkxw,2.0,info,,5.500000004481992,0.0,5.500000004481992,5.500000004481992,0.0,5.500000004481992,1.0,0.0,0.0,,Slider,Slider,4.0,object-56,temp_dist_trial,39.0,t_i_02_1,travel_Iceland,scarf,3.0,unique,paired,t_i_02_1.jpg,Travel,,,sub-59
Desktop or Laptop,Windows 10,Chrome 138.0.0.0,2560x1440,1707x960,Temporal Distance Task,cb_03,87.0,temp_dist_trial,dist_items,qkpkxw,2.0,continue,,4647.600000005972,4644.900000000023,4647.600000005972,4647.600000005972,4644.900000000023,4647.600000005972,1.0,0.0,0.0,,Click To Continue,Next button,7.0,object-60,temp_dist_trial,39.0,t_i_02_1,travel_Iceland,scarf,3.0,unique,paired,t_i_02_1.jpg,Travel,,,sub-59
Desktop or Laptop,Windows 10,Chrome 138.0.0.0,2560x1440,1707x960,Temporal Distance Task,cb_03,87.0,temp_dist_trial,dist_items,qkpkxw,2.0,response,87,3490.600000000035,4644.900000000023,4650.600000005972,3490.600000000035,4644.900000000023,4650.600000005972,1.0,1160.0000000059372,0.0,,Slider,Slider,4.0,object-56,temp_dist_trial,39.0,t_i_02_1,travel_Iceland,scarf,3.0,unique,paired,t_i_02_1.jpg,Travel,,,sub-59
Desktop or Laptop,Windows 10,Chrome 138.0.0.0,2560x1440,1707x960,Temporal Distance Task,cb_03,88.0,temp_dist_trial,num_items,zn7si1,1.0,response,2_ITEM,2006.4000000014785,2002.5999999999767,2006.4000000014785,2006.4000000014785,2002.5999999999767,2006.4000000014785,1.0,0.0,0.0,,Click Response,2_count,5.0,object-49,temp_dist_trial,40.0,t_i_07_1,travel_Iceland,hiking backpack,3.0,unique,paired,t_i_07_1.jpg,Travel,,,sub-59
Desktop or Laptop,Windows 10,Chrome 138.0.0.0,2560x1440,1707x960,Temporal Distance Task,cb_03,88.0,temp_dist_trial,dist_items,qkpkxw,2.0,info,,4.8000000059837475,0.0,4.8000000059837475,4.8000000059837475,0.0,4.8000000059837475,1.0,0.0,0.0,,Slider,Slider,4.0,object-56,temp_dist_trial,40.0,t_i_07_1,travel_Iceland,hiking backpack,3.0,unique,paired,t_i_07_1.jpg,Travel,,,sub-59
Desktop or Laptop,Windows 10,Chrome 138.0.0.0,2560x1440,1707x960,Temporal Distance Task,cb_03,88.0,temp_dist_trial,dist_items,qkpkxw,2.0,continue,,4726.300000005984,4721.600000000035,4726.300000005984,4726.300000005984,4721.600000000035,4726.300000005984,1.0,0.0,0.0,,Click To Continue,Next button,7.0,object-60,temp_dist_trial,40.0,t_i_07_1,travel_Iceland,hiking backpack,3.0,unique,paired,t_i_07_1.jpg,Travel,,,sub-59
Desktop or Laptop,Windows 10,Chrome 138.0.0.0,2560x1440,1707x960,Temporal Distance Task,cb_03,88.0,temp_dist_trial,dist_items,qkpkxw,2.0,response,74,2426.9000000000233,4721.600000000035,4726.600000003004,2426.9000000000233,4721.600000000035,4726.600000003004,1.0,2299.7000000029802,0.0,,Slider,Slider,4.0,object-56,temp_dist_trial,40.0,t_i_07_1,travel_Iceland,hiking backpack,3.0,unique,paired,t_i_07_1.jpg,Travel,,,sub-59
Desktop or Laptop,Windows 10,Chrome 138.0.0.0,2560x1440,1707x960,Temporal Distance Task,cb_03,89.0,temp_dist_trial,num_items,zn7si1,1.0,response,2_ITEM,1043.7000000059488,1043.0999999999767,1043.7000000059488,1043.7000000059488,1043.0999999999767,1043.7000000059488,1.0,0.0,0.0,,Click Response,2_count,5.0,object-49,temp_dist_trial,41.0,t_i_05_1,travel_Iceland,hiking boots,3.0,unique,paired,t_i_05_1.jpg,Travel,,,sub-59
Desktop or Laptop,Windows 10,Chrome 138.0.0.0,2560x1440,1707x960,Temporal Distance Task,cb_03,89.0,temp_dist_trial,dist_items,qkpkxw,2.0,info,,5.300000004470348,0.0,5.300000004470348,5.300000004470348,0.0,5.300000004470348,1.0,0.0,0.0,,Slider,Slider,4.0,object-56,temp_dist_trial,41.0,t_i_05_1,travel_Iceland,hiking boots,3.0,unique,paired,t_i_05_1.jpg,Travel,,,sub-59
Desktop or Laptop,Windows 10,Chrome 138.0.0.0,2560x1440,1707x960,Temporal Distance Task,cb_03,89.0,temp_dist_trial,dist_items,qkpkxw,2.0,continue,,1515.7000000029807,1508.9000000000233,1515.7000000029807,1515.7000000029807,1508.9000000000233,1515.7000000029807,1.0,0.0,0.0,,Click To Continue,Next button,7.0,object-60,temp_dist_trial,41.0,t_i_05_1,travel_Iceland,hiking boots,3.0,unique,paired,t_i_05_1.jpg,Travel,,,sub-59
Desktop or Laptop,Windows 10,Chrome 138.0.0.0,2560x1440,1707x960,Temporal Distance Task,cb_03,89.0,temp_dist_trial,dist_items,qkpkxw,2.0,response,32,556.2000000000116,1508.9000000000233,1515.8000000000463,556.2000000000116,1508.9000000000233,1515.8000000000463,1.0,959.6000000000348,0.0,,Slider,Slider,4.0,object-56,temp_dist_trial,41.0,t_i_05_1,travel_Iceland,hiking boots,3.0,unique,paired,t_i_05_1.jpg,Travel,,,sub-59
Desktop or Laptop,Windows 10,Chrome 138.0.0.0,2560x1440,1707x960,Temporal Distance Task,cb_03,90.0,temp_dist_trial,num_items,zn7si1,1.0,response,1_ITEM,887.2000000014667,883.0999999999768,887.2000000014667,887.2000000014667,883.0999999999768,887.2000000014667,1.0,0.0,0.0,,Click Response,1_count,3.0,object-46,temp_dist_trial,42.0,t_s_18_1,travel_shared,first aid kit,3.0,competing,single,t_s_18_1.jpg,Travel,,,sub-59
Desktop or Laptop,Windows 10,Chrome 138.0.0.0,2560x1440,1707x960,Temporal Distance Task,cb_03,91.0,temp_dist_trial,num_items,zn7si1,1.0,response,2_ITEM,1637.5999999999767,1634.0,1637.5999999999767,1637.5999999999767,1634.0,1637.5999999999767,1.0,0.0,0.0,,Click Response,2_count,5.0,object-49,temp_dist_trial,43.0,t_s_12_1,travel_shared,clear toiletry bag,3.0,competing,paired,t_s_12_1.jpg,Travel,,,sub-59
Desktop or Laptop,Windows 10,Chrome 138.0.0.0,2560x1440,1707x960,Temporal Distance Task,cb_03,91.0,temp_dist_trial,dist_items,qkpkxw,2.0,info,,5.600000005972107,0.0,5.600000005972107,5.600000005972107,0.0,5.600000005972107,1.0,0.0,0.0,,Slider,Slider,4.0,object-56,temp_dist_trial,43.0,t_s_12_1,travel_shared,clear toiletry bag,3.0,competing,paired,t_s_12_1.jpg,Travel,,,sub-59
Desktop or Laptop,Windows 10,Chrome 138.0.0.0,2560x1440,1707x960,Temporal Distance Task,cb_03,91.0,temp_dist_trial,dist_items,qkpkxw,2.0,continue,,3584.000000004482,3581.0,3584.000000004482,3584.000000004482,3581.0,3584.000000004482,1.0,0.0,0.0,,Click To Continue,Next button,7.0,object-60,temp_dist_trial,43.0,t_s_12_1,travel_shared,clear toiletry bag,3.0,competing,paired,t_s_12_1.jpg,Travel,,,sub-59
Desktop or Laptop,Windows 10,Chrome 138.0.0.0,2560x1440,1707x960,Temporal Distance Task,cb_03,91.0,temp_dist_trial,dist_items,qkpkxw,2.0,response,5,2357.2999999999884,3581.0,3584.300000001501,2357.2999999999884,3581.0,3584.300000001501,1.0,1227.0000000015136,0.0,,Slider,Slider,4.0,object-56,temp_dist_trial,43.0,t_s_12_1,travel_shared,clear toiletry bag,3.0,competing,paired,t_s_12_1.jpg,Travel,,,sub-59
Desktop or Laptop,Windows 10,Chrome 138.0.0.0,2560x1440,1707x960,Temporal Distance Task,cb_03,92.0,temp_dist_trial,num_items,zn7si1,1.0,response,2_ITEM,1076.1000000059719,1070.9000000000233,1076.1000000059719,1076.1000000059719,1070.9000000000233,1076.1000000059719,1.0,0.0,0.0,,Click Response,2_count,5.0,object-49,temp_dist_trial,44.0,t_s_09_1,travel_shared,wallet,3.0,competing,paired,t_s_09_1.jpg,Travel,,,sub-59
Desktop or Laptop,Windows 10,Chrome 138.0.0.0,2560x1440,1707x960,Temporal Distance Task,cb_03,92.0,temp_dist_trial,dist_items,qkpkxw,2.0,info,,5.600000003003515,0.0,5.600000003003515,5.600000003003515,0.0,5.600000003003515,1.0,0.0,0.0,,Slider,Slider,4.0,object-56,temp_dist_trial,44.0,t_s_09_1,travel_shared,wallet,3.0,competing,paired,t_s_09_1.jpg,Travel,,,sub-59
Desktop or Laptop,Windows 10,Chrome 138.0.0.0,2560x1440,1707x960,Temporal Distance Task,cb_03,92.0,temp_dist_trial,dist_items,qkpkxw,2.0,continue,,1947.0,1940.0,1947.0,1947.0,1940.0,1947.0,1.0,0.0,0.0,,Click To Continue,Next button,7.0,object-60,temp_dist_trial,44.0,t_s_09_1,travel_shared,wallet,3.0,competing,paired,t_s_09_1.jpg,Travel,,,sub-59
Desktop or Laptop,Windows 10,Chrome 138.0.0.0,2560x1440,1707x960,Temporal Distance Task,cb_03,92.0,temp_dist_trial,dist_items,qkpkxw,2.0,response,34,1091.600000000035,1940.0,1947.0,1091.600000000035,1940.0,1947.0,1.0,855.3999999999651,0.0,,Slider,Slider,4.0,object-56,temp_dist_trial,44.0,t_s_09_1,travel_shared,wallet,3.0,competing,paired,t_s_09_1.jpg,Travel,,,sub-59
Desktop or Laptop,Windows 10,Chrome 138.0.0.0,2560x1440,1707x960,Temporal Distance Task,cb_03,93.0,temp_dist_trial,num_items,zn7si1,1.0,response,1_ITEM,1481.0000000015134,1474.2000000000116,1481.0000000015134,1481.0000000015134,1474.2000000000116,1481.0000000015134,1.0,0.0,0.0,,Click Response,1_count,3.0,object-46,temp_dist_trial,45.0,t_i_08_1,travel_Iceland,thick socks,3.0,unique,single,t_i_08_1.jpg,Travel,,,sub-59
Desktop or Laptop,Windows 10,Chrome 138.0.0.0,2560x1440,1707x960,Temporal Distance Task,cb_03,94.0,temp_dist_trial,num_items,zn7si1,1.0,response,2_ITEM,1345.7000000044936,1342.0,1345.7000000044936,1345.7000000044936,1342.0,1345.7000000044936,1.0,0.0,0.0,,Click Response,2_count,5.0,object-49,temp_dist_trial,46.0,t_m_02_1,travel_Miami,t-shirt,3.0,unique,paired,t_m_02_1.jpg,Travel,,,sub-59
Desktop or Laptop,Windows 10,Chrome 138.0.0.0,2560x1440,1707x960,Temporal Distance Task,cb_03,94.0,temp_dist_trial,dist_items,qkpkxw,2.0,info,,5.0,0.0,5.0,5.0,0.0,5.0,1.0,0.0,0.0,,Slider,Slider,4.0,object-56,temp_dist_trial,46.0,t_m_02_1,travel_Miami,t-shirt,3.0,unique,paired,t_m_02_1.jpg,Travel,,,sub-59
Desktop or Laptop,Windows 10,Chrome 138.0.0.0,2560x1440,1707x960,Temporal Distance Task,cb_03,94.0,temp_dist_trial,dist_items,qkpkxw,2.0,continue,,2039.0,2037.2999999999884,2039.0,2039.0,2037.2999999999884,2039.0,1.0,0.0,0.0,,Click To Continue,Next button,7.0,object-60,temp_dist_trial,46.0,t_m_02_1,travel_Miami,t-shirt,3.0,unique,paired,t_m_02_1.jpg,Travel,,,sub-59
Desktop or Laptop,Windows 10,Chrome 138.0.0.0,2560x1440,1707x960,Temporal Distance Task,cb_03,94.0,temp_dist_trial,dist_items,qkpkxw,2.0,response,83,744.0,2037.2999999999884,2039.4000000059605,744.0,2037.2999999999884,2039.4000000059605,1.0,1295.4000000059605,0.0,,Slider,Slider,4.0,object-56,temp_dist_trial,46.0,t_m_02_1,travel_Miami,t-shirt,3.0,unique,paired,t_m_02_1.jpg,Travel,,,sub-59
Desktop or Laptop,Windows 10,Chrome 138.0.0.0,2560x1440,1707x960,Temporal Distance Task,cb_03,95.0,temp_dist_trial,num_items,zn7si1,1.0,response,2_ITEM,1472.0000000044822,1467.2999999999884,1472.0000000044822,1472.0000000044822,1467.2999999999884,1472.0000000044822,1.0,0.0,0.0,,Click Response,2_count,5.0,object-49,temp_dist_trial,47.0,t_s_02_1,travel_shared,water bottle,3.0,competing,paired,t_s_02_1.jpg,Travel,,,sub-59
Desktop or Laptop,Windows 10,Chrome 138.0.0.0,2560x1440,1707x960,Temporal Distance Task,cb_03,95.0,temp_dist_trial,dist_items,qkpkxw,2.0,info,,5.5,0.0,5.5,5.5,0.0,5.5,1.0,0.0,0.0,,Slider,Slider,4.0,object-56,temp_dist_trial,47.0,t_s_02_1,travel_shared,water bottle,3.0,competing,paired,t_s_02_1.jpg,Travel,,,sub-59
Desktop or Laptop,Windows 10,Chrome 138.0.0.0,2560x1440,1707x960,Temporal Distance Task,cb_03,95.0,temp_dist_trial,dist_items,qkpkxw,2.0,continue,,1421.4000000059605,1418.4000000000233,1421.4000000059605,1421.4000000059605,1418.4000000000233,1421.4000000059605,1.0,0.0,0.0,,Click To Continue,Next button,7.0,object-60,temp_dist_trial,47.0,t_s_02_1,travel_shared,water bottle,3.0,competing,paired,t_s_02_1.jpg,Travel,,,sub-59
Desktop or Laptop,Windows 10,Chrome 138.0.0.0,2560x1440,1707x960,Temporal Distance Task,cb_03,95.0,temp_dist_trial,dist_items,qkpkxw,2.0,response,76,632.7000000000116,1418.4000000000233,1421.7000000029807,632.7000000000116,1418.4000000000233,1421.7000000029807,1.0,789.0000000029686,0.0,,Slider,Slider,4.0,object-56,temp_dist_trial,47.0,t_s_02_1,travel_shared,water bottle,3.0,competing,paired,t_s_02_1.jpg,Travel,,,sub-59
Desktop or Laptop,Windows 10,Chrome 138.0.0.0,2560x1440,1707x960,Temporal Distance Task,cb_03,96.0,temp_dist_trial,num_items,zn7si1,1.0,response,1_ITEM,1522.7999999999302,1515.8999999999646,1522.7999999999302,1522.7999999999302,1515.8999999999646,1522.7999999999302,1.0,0.0,0.0,,Click Response,1_count,3.0,object-46,temp_dist_trial,48.0,t_s_04_1,travel_shared,instant camera,3.0,competing,paired,t_s_04_1.jpg,Travel,,,sub-59
Desktop or Laptop,Windows 10,Chrome 138.0.0.0,2560x1440,1707x960,Temporal Distance Task,$${counterbalance_group},,,,,,info,END,,,332442.0,,,,0.0,,,,,,,,,,,,,,,,,,,,sub-59
