Participant Device,Participant OS,Participant Browser,Participant Monitor Size,Participant Viewport Size,Task Name,Current Spreadsheet,Trial Number,Display,Screen,Screen ID,Screen Counter,Response Type,Response,Onset Time,Clock Time,Reaction Time,Absolute Onset Time,Absolute Clock Time,Absolute Reaction Time,Correct,Response Duration,Proportion,Tag,Component Name,Object Name,Object Number,Object ID,Spreadsheet: display,Spreadsheet: trial,Spreadsheet: stimulus_id,Spreadsheet: expected_goal,Spreadsheet: stimulus_name,Spreadsheet: c_group,Spreadsheet: condition,Spreadsheet: paired_status,Spreadsheet: stimulus_path,Spreadsheet: block_type,Manipulation: Spreadsheet,Store: enc_test_acc,sub_label
Desktop or Laptop,Windows 10,Firefox 140.0,1920x1080,1920x927,Temporal Distance Task,$${counterbalance_group},,,,,,info,BEGIN,,,,,,,0.0,,,,,,,,,,,,,,,,,,,,sub-27
Desktop or Laptop,Windows 10,Firefox 140.0,1920x1080,1920x927,Temporal Distance Task,cb_02,1.0,temp_instructions,intro_screen,3tnme7,1.0,continue,,6340.42,6333.2800000000025,6340.42,6340.42,6333.2800000000025,6340.42,1.0,0.0,0.0,,Click To Continue,Continue Button,4.0,object-29,temp_instructions,,,Travel,,,,,,,,,sub-27
Desktop or Laptop,Windows 10,Firefox 140.0,1920x1080,1920x927,Temporal Distance Task,cb_02,1.0,temp_instructions,intro_screen_2,52v7ur,2.0,continue,,5632.1399999999985,5616.6399999999985,5632.1399999999985,5632.1399999999985,5616.6399999999985,5632.1399999999985,1.0,0.0,0.0,,Click To Continue,Continue Button,4.0,object-39,temp_instructions,,,Travel,,,,,,,,,sub-27
Desktop or Laptop,Windows 10,Firefox 140.0,1920x1080,1920x927,Temporal Distance Task,cb_02,1.0,temp_instructions,intro_screen_3,i7lvwx,3.0,continue,,6160.5,6149.959999999999,6160.5,6160.5,6149.959999999999,6160.5,1.0,0.0,0.0,,Click To Continue,Continue Button,4.0,object-67,temp_instructions,,,Travel,,,,,,,,,sub-27
Desktop or Laptop,Windows 10,Firefox 140.0,1920x1080,1920x927,Temporal Distance Task,cb_02,1.0,temp_instructions,test_q1,5ieqx1,4.0,response,choice_3,5484.540000000001,5483.260000000002,5484.540000000001,5484.540000000001,5483.260000000002,5484.540000000001,1.0,0.0,0.0,,Click Response,choice_3,5.0,object-345,temp_instructions,,,Travel,,,,,,,,,sub-27
Desktop or Laptop,Windows 10,Firefox 140.0,1920x1080,1920x927,Temporal Distance Task,cb_02,1.0,temp_instructions,score_corr,7ilvjr,5.0,continue,,805.2799999999988,800.0,805.2799999999988,805.2799999999988,800.0,805.2799999999988,1.0,0.0,0.0,,Click To Continue,Continue Button,3.0,object-23,temp_instructions,,,Travel,,,,,,,,,sub-27
Desktop or Laptop,Windows 10,Firefox 140.0,1920x1080,1920x927,Temporal Distance Task,cb_02,1.0,temp_eventStart,Screen 1,dgtyxe,1.0,continue,,974.2799999999988,966.66,974.2799999999988,974.2799999999988,966.66,974.2799999999988,1.0,0.0,0.0,,Click To Continue,Next Button,3.0,object-43,temp_eventStart,,,Travel,,,,,,,,,sub-27
Desktop or Laptop,Windows 10,Firefox 140.0,1920x1080,1920x927,Temporal Distance Task,cb_02,1.0,temp_dist_trial,num_items,zn7si1,1.0,response,2_ITEM,1230.619999999999,1216.6800000000005,1230.619999999999,1230.619999999999,1216.6800000000005,1230.619999999999,1.0,0.0,0.0,,Click Response,2_count,5.0,object-49,temp_dist_trial,1.0,t_s_02_1,travel_shared,water bottle,2.0,competing,single,t_s_02_1.jpg,Travel,,,sub-27
Desktop or Laptop,Windows 10,Firefox 140.0,1920x1080,1920x927,Temporal Distance Task,cb_02,1.0,temp_dist_trial,dist_items,qkpkxw,2.0,info,,4.93999999999869,0.0,4.93999999999869,4.93999999999869,0.0,4.93999999999869,1.0,0.0,0.0,,Slider,Slider,4.0,object-56,temp_dist_trial,1.0,t_s_02_1,travel_shared,water bottle,2.0,competing,single,t_s_02_1.jpg,Travel,,,sub-27
Desktop or Laptop,Windows 10,Firefox 140.0,1920x1080,1920x927,Temporal Distance Task,cb_02,1.0,temp_dist_trial,dist_items,qkpkxw,2.0,continue,,2404.939999999999,2399.98,2404.939999999999,2404.939999999999,2399.98,2404.939999999999,1.0,0.0,0.0,,Click To Continue,Next button,7.0,object-60,temp_dist_trial,1.0,t_s_02_1,travel_shared,water bottle,2.0,competing,single,t_s_02_1.jpg,Travel,,,sub-27
Desktop or Laptop,Windows 10,Firefox 140.0,1920x1080,1920x927,Temporal Distance Task,cb_02,1.0,temp_dist_trial,dist_items,qkpkxw,2.0,response,76,1266.6399999999996,2399.98,2404.939999999999,1266.6399999999996,2399.98,2404.939999999999,1.0,1138.2999999999993,0.0,,Slider,Slider,4.0,object-56,temp_dist_trial,1.0,t_s_02_1,travel_shared,water bottle,2.0,competing,single,t_s_02_1.jpg,Travel,,,sub-27
Desktop or Laptop,Windows 10,Firefox 140.0,1920x1080,1920x927,Temporal Distance Task,cb_02,2.0,temp_dist_trial,num_items,zn7si1,1.0,response,2_ITEM,1187.9599999999991,1183.2999999999956,1187.9599999999991,1187.9599999999991,1183.2999999999956,1187.9599999999991,1.0,0.0,0.0,,Click Response,2_count,5.0,object-49,temp_dist_trial,2.0,t_s_11_1,travel_shared,eye mask,2.0,competing,paired,t_s_11_1.jpg,Travel,,,sub-27
Desktop or Laptop,Windows 10,Firefox 140.0,1920x1080,1920x927,Temporal Distance Task,cb_02,2.0,temp_dist_trial,dist_items,qkpkxw,2.0,info,,4.6600000000034925,0.0,4.6600000000034925,4.6600000000034925,0.0,4.6600000000034925,1.0,0.0,0.0,,Slider,Slider,4.0,object-56,temp_dist_trial,2.0,t_s_11_1,travel_shared,eye mask,2.0,competing,paired,t_s_11_1.jpg,Travel,,,sub-27
Desktop or Laptop,Windows 10,Firefox 140.0,1920x1080,1920x927,Temporal Distance Task,cb_02,2.0,temp_dist_trial,dist_items,qkpkxw,2.0,continue,,2081.6600000000035,2066.6600000000035,2081.6600000000035,2081.6600000000035,2066.6600000000035,2081.6600000000035,1.0,0.0,0.0,,Click To Continue,Next button,7.0,object-60,temp_dist_trial,2.0,t_s_11_1,travel_shared,eye mask,2.0,competing,paired,t_s_11_1.jpg,Travel,,,sub-27
Desktop or Laptop,Windows 10,Firefox 140.0,1920x1080,1920x927,Temporal Distance Task,cb_02,2.0,temp_dist_trial,dist_items,qkpkxw,2.0,response,31,1266.6600000000035,2066.6600000000035,2081.6600000000035,1266.6600000000035,2066.6600000000035,2081.6600000000035,1.0,815.0,0.0,,Slider,Slider,4.0,object-56,temp_dist_trial,2.0,t_s_11_1,travel_shared,eye mask,2.0,competing,paired,t_s_11_1.jpg,Travel,,,sub-27
Desktop or Laptop,Windows 10,Firefox 140.0,1920x1080,1920x927,Temporal Distance Task,cb_02,3.0,temp_dist_trial,num_items,zn7si1,1.0,response,1_ITEM,1899.9999999999927,1883.3399999999967,1899.9999999999927,1899.9999999999927,1883.3399999999967,1899.9999999999927,1.0,0.0,0.0,,Click Response,1_count,3.0,object-46,temp_dist_trial,3.0,t_s_21_1,travel_shared,umbrella,2.0,competing,single,t_s_21_1.jpg,Travel,,,sub-27
Desktop or Laptop,Windows 10,Firefox 140.0,1920x1080,1920x927,Temporal Distance Task,cb_02,4.0,temp_dist_trial,num_items,zn7si1,1.0,response,2_ITEM,1332.6600000000035,1316.6400000000067,1332.6600000000035,1332.6600000000035,1316.6400000000067,1332.6600000000035,1.0,0.0,0.0,,Click Response,2_count,5.0,object-49,temp_dist_trial,4.0,t_m_18_1,travel_Miami,waterproof tote,2.0,unique,paired,t_m_18_1.jpg,Travel,,,sub-27
Desktop or Laptop,Windows 10,Firefox 140.0,1920x1080,1920x927,Temporal Distance Task,cb_02,4.0,temp_dist_trial,dist_items,qkpkxw,2.0,info,,4.019999999996799,0.0,4.019999999996799,4.019999999996799,0.0,4.019999999996799,1.0,0.0,0.0,,Slider,Slider,4.0,object-56,temp_dist_trial,4.0,t_m_18_1,travel_Miami,waterproof tote,2.0,unique,paired,t_m_18_1.jpg,Travel,,,sub-27
Desktop or Laptop,Windows 10,Firefox 140.0,1920x1080,1920x927,Temporal Distance Task,cb_02,4.0,temp_dist_trial,dist_items,qkpkxw,2.0,continue,,2033.0199999999966,2016.659999999996,2033.0199999999966,2033.0199999999966,2016.659999999996,2033.0199999999966,1.0,0.0,0.0,,Click To Continue,Next button,7.0,object-60,temp_dist_trial,4.0,t_m_18_1,travel_Miami,waterproof tote,2.0,unique,paired,t_m_18_1.jpg,Travel,,,sub-27
Desktop or Laptop,Windows 10,Firefox 140.0,1920x1080,1920x927,Temporal Distance Task,cb_02,4.0,temp_dist_trial,dist_items,qkpkxw,2.0,response,72,1266.6599999999962,2016.659999999996,2033.0199999999966,1266.6599999999962,2016.659999999996,2033.0199999999966,1.0,766.3600000000006,0.0,,Slider,Slider,4.0,object-56,temp_dist_trial,4.0,t_m_18_1,travel_Miami,waterproof tote,2.0,unique,paired,t_m_18_1.jpg,Travel,,,sub-27
Desktop or Laptop,Windows 10,Firefox 140.0,1920x1080,1920x927,Temporal Distance Task,cb_02,5.0,temp_dist_trial,num_items,zn7si1,1.0,response,2_ITEM,1294.3600000000004,1283.3199999999995,1294.3600000000004,1294.3600000000004,1283.3199999999995,1294.3600000000004,1.0,0.0,0.0,,Click Response,2_count,5.0,object-49,temp_dist_trial,5.0,t_i_15_1,travel_Iceland,compass,2.0,unique,paired,t_i_15_1.jpg,Travel,,,sub-27
Desktop or Laptop,Windows 10,Firefox 140.0,1920x1080,1920x927,Temporal Distance Task,cb_02,5.0,temp_dist_trial,dist_items,qkpkxw,2.0,info,,4.040000000000873,0.0,4.040000000000873,4.040000000000873,0.0,4.040000000000873,1.0,0.0,0.0,,Slider,Slider,4.0,object-56,temp_dist_trial,5.0,t_i_15_1,travel_Iceland,compass,2.0,unique,paired,t_i_15_1.jpg,Travel,,,sub-27
Desktop or Laptop,Windows 10,Firefox 140.0,1920x1080,1920x927,Temporal Distance Task,cb_02,5.0,temp_dist_trial,dist_items,qkpkxw,2.0,continue,,1855.0400000000006,1850.0,1855.0400000000006,1855.0400000000006,1850.0,1855.0400000000006,1.0,0.0,0.0,,Click To Continue,Next button,7.0,object-60,temp_dist_trial,5.0,t_i_15_1,travel_Iceland,compass,2.0,unique,paired,t_i_15_1.jpg,Travel,,,sub-27
Desktop or Laptop,Windows 10,Firefox 140.0,1920x1080,1920x927,Temporal Distance Task,cb_02,5.0,temp_dist_trial,dist_items,qkpkxw,2.0,response,37,533.3199999999997,1850.0,1855.0400000000006,533.3199999999997,1850.0,1855.0400000000006,1.0,1321.7200000000012,0.0,,Slider,Slider,4.0,object-56,temp_dist_trial,5.0,t_i_15_1,travel_Iceland,compass,2.0,unique,paired,t_i_15_1.jpg,Travel,,,sub-27
Desktop or Laptop,Windows 10,Firefox 140.0,1920x1080,1920x927,Temporal Distance Task,cb_02,6.0,temp_dist_trial,num_items,zn7si1,1.0,response,1_ITEM,2043.0400000000006,2033.3000000000034,2043.0400000000006,2043.0400000000006,2033.3000000000034,2043.0400000000006,1.0,0.0,0.0,,Click Response,1_count,3.0,object-46,temp_dist_trial,6.0,t_s_09_1,travel_shared,wallet,2.0,competing,single,t_s_09_1.jpg,Travel,,,sub-27
Desktop or Laptop,Windows 10,Firefox 140.0,1920x1080,1920x927,Temporal Distance Task,cb_02,7.0,temp_dist_trial,num_items,zn7si1,1.0,response,2_ITEM,1405.739999999998,1400.0,1405.739999999998,1405.739999999998,1400.0,1405.739999999998,1.0,0.0,0.0,,Click Response,2_count,5.0,object-49,temp_dist_trial,7.0,t_s_18_1,travel_shared,first aid kit,2.0,competing,paired,t_s_18_1.jpg,Travel,,,sub-27
Desktop or Laptop,Windows 10,Firefox 140.0,1920x1080,1920x927,Temporal Distance Task,cb_02,7.0,temp_dist_trial,dist_items,qkpkxw,2.0,info,,4.739999999997963,0.0,4.739999999997963,4.739999999997963,0.0,4.739999999997963,1.0,0.0,0.0,,Slider,Slider,4.0,object-56,temp_dist_trial,7.0,t_s_18_1,travel_shared,first aid kit,2.0,competing,paired,t_s_18_1.jpg,Travel,,,sub-27
Desktop or Laptop,Windows 10,Firefox 140.0,1920x1080,1920x927,Temporal Distance Task,cb_02,7.0,temp_dist_trial,dist_items,qkpkxw,2.0,continue,,2244.739999999998,2233.3399999999965,2244.739999999998,2244.739999999998,2233.3399999999965,2244.739999999998,1.0,0.0,0.0,,Click To Continue,Next button,7.0,object-60,temp_dist_trial,7.0,t_s_18_1,travel_shared,first aid kit,2.0,competing,paired,t_s_18_1.jpg,Travel,,,sub-27
Desktop or Laptop,Windows 10,Firefox 140.0,1920x1080,1920x927,Temporal Distance Task,cb_02,7.0,temp_dist_trial,dist_items,qkpkxw,2.0,response,85,1283.3399999999965,2233.3399999999965,2244.739999999998,1283.3399999999965,2233.3399999999965,2244.739999999998,1.0,961.4000000000017,0.0,,Slider,Slider,4.0,object-56,temp_dist_trial,7.0,t_s_18_1,travel_shared,first aid kit,2.0,competing,paired,t_s_18_1.jpg,Travel,,,sub-27
Desktop or Laptop,Windows 10,Firefox 140.0,1920x1080,1920x927,Temporal Distance Task,cb_02,8.0,temp_dist_trial,num_items,zn7si1,1.0,response,1_ITEM,2032.4000000000005,2016.6399999999994,2032.4000000000005,2032.4000000000005,2016.6399999999994,2032.4000000000005,1.0,0.0,0.0,,Click Response,1_count,3.0,object-46,temp_dist_trial,8.0,t_s_16_1,travel_shared,chapstick,2.0,competing,single,t_s_16_1.jpg,Travel,,,sub-27
Desktop or Laptop,Windows 10,Firefox 140.0,1920x1080,1920x927,Temporal Distance Task,cb_02,9.0,temp_dist_trial,num_items,zn7si1,1.0,response,2_ITEM,1807.760000000002,1799.9800000000034,1807.760000000002,1807.760000000002,1799.9800000000034,1807.760000000002,1.0,0.0,0.0,,Click Response,2_count,5.0,object-49,temp_dist_trial,9.0,t_m_01_1,travel_Miami,sandals,2.0,unique,paired,t_m_01_1.jpg,Travel,,,sub-27
Desktop or Laptop,Windows 10,Firefox 140.0,1920x1080,1920x927,Temporal Distance Task,cb_02,9.0,temp_dist_trial,dist_items,qkpkxw,2.0,info,,3.7799999999988367,0.0,3.7799999999988367,3.7799999999988367,0.0,3.7799999999988367,1.0,0.0,0.0,,Slider,Slider,4.0,object-56,temp_dist_trial,9.0,t_m_01_1,travel_Miami,sandals,2.0,unique,paired,t_m_01_1.jpg,Travel,,,sub-27
Desktop or Laptop,Windows 10,Firefox 140.0,1920x1080,1920x927,Temporal Distance Task,cb_02,9.0,temp_dist_trial,dist_items,qkpkxw,2.0,continue,,2453.7799999999993,2449.979999999996,2453.7799999999993,2453.7799999999993,2449.979999999996,2453.7799999999993,1.0,0.0,0.0,,Click To Continue,Next button,7.0,object-60,temp_dist_trial,9.0,t_m_01_1,travel_Miami,sandals,2.0,unique,paired,t_m_01_1.jpg,Travel,,,sub-27
Desktop or Laptop,Windows 10,Firefox 140.0,1920x1080,1920x927,Temporal Distance Task,cb_02,9.0,temp_dist_trial,dist_items,qkpkxw,2.0,response,55,1633.3399999999967,2449.979999999996,2454.7799999999993,1633.3399999999967,2449.979999999996,2454.7799999999993,1.0,821.4400000000023,0.0,,Slider,Slider,4.0,object-56,temp_dist_trial,9.0,t_m_01_1,travel_Miami,sandals,2.0,unique,paired,t_m_01_1.jpg,Travel,,,sub-27
Desktop or Laptop,Windows 10,Firefox 140.0,1920x1080,1920x927,Temporal Distance Task,cb_02,10.0,temp_dist_trial,num_items,zn7si1,1.0,response,2_ITEM,1193.8000000000031,1183.3400000000038,1193.8000000000031,1193.8000000000031,1183.3400000000038,1193.8000000000031,1.0,0.0,0.0,,Click Response,2_count,5.0,object-49,temp_dist_trial,10.0,t_i_20_1,travel_Iceland,lantern,2.0,unique,paired,t_i_20_1.jpg,Travel,,,sub-27
Desktop or Laptop,Windows 10,Firefox 140.0,1920x1080,1920x927,Temporal Distance Task,cb_02,10.0,temp_dist_trial,dist_items,qkpkxw,2.0,info,,5.459999999999128,0.0,5.459999999999128,5.459999999999128,0.0,5.459999999999128,1.0,0.0,0.0,,Slider,Slider,4.0,object-56,temp_dist_trial,10.0,t_i_20_1,travel_Iceland,lantern,2.0,unique,paired,t_i_20_1.jpg,Travel,,,sub-27
Desktop or Laptop,Windows 10,Firefox 140.0,1920x1080,1920x927,Temporal Distance Task,cb_02,10.0,temp_dist_trial,dist_items,qkpkxw,2.0,continue,,2196.459999999999,2183.299999999996,2196.459999999999,2196.459999999999,2183.299999999996,2196.459999999999,1.0,0.0,0.0,,Click To Continue,Next button,7.0,object-60,temp_dist_trial,10.0,t_i_20_1,travel_Iceland,lantern,2.0,unique,paired,t_i_20_1.jpg,Travel,,,sub-27
Desktop or Laptop,Windows 10,Firefox 140.0,1920x1080,1920x927,Temporal Distance Task,cb_02,10.0,temp_dist_trial,dist_items,qkpkxw,2.0,response,35,1116.6599999999962,2183.299999999996,2197.459999999999,1116.6599999999962,2183.299999999996,2197.459999999999,1.0,1080.8000000000031,0.0,,Slider,Slider,4.0,object-56,temp_dist_trial,10.0,t_i_20_1,travel_Iceland,lantern,2.0,unique,paired,t_i_20_1.jpg,Travel,,,sub-27
Desktop or Laptop,Windows 10,Firefox 140.0,1920x1080,1920x927,Temporal Distance Task,cb_02,11.0,temp_dist_trial,num_items,zn7si1,1.0,response,2_ITEM,1956.1600000000033,1950.0,1956.1600000000033,1956.1600000000033,1950.0,1956.1600000000033,1.0,0.0,0.0,,Click Response,2_count,5.0,object-49,temp_dist_trial,11.0,t_s_07_1,travel_shared,phone charger cable,2.0,competing,paired,t_s_07_1.jpg,Travel,,,sub-27
Desktop or Laptop,Windows 10,Firefox 140.0,1920x1080,1920x927,Temporal Distance Task,cb_02,11.0,temp_dist_trial,dist_items,qkpkxw,2.0,info,,6.1600000000034925,0.0,6.1600000000034925,6.1600000000034925,0.0,6.1600000000034925,1.0,0.0,0.0,,Slider,Slider,4.0,object-56,temp_dist_trial,11.0,t_s_07_1,travel_shared,phone charger cable,2.0,competing,paired,t_s_07_1.jpg,Travel,,,sub-27
Desktop or Laptop,Windows 10,Firefox 140.0,1920x1080,1920x927,Temporal Distance Task,cb_02,11.0,temp_dist_trial,dist_items,qkpkxw,2.0,continue,,2265.1600000000035,2250.0,2265.1600000000035,2265.1600000000035,2250.0,2265.1600000000035,1.0,0.0,0.0,,Click To Continue,Next button,7.0,object-60,temp_dist_trial,11.0,t_s_07_1,travel_shared,phone charger cable,2.0,competing,paired,t_s_07_1.jpg,Travel,,,sub-27
Desktop or Laptop,Windows 10,Firefox 140.0,1920x1080,1920x927,Temporal Distance Task,cb_02,11.0,temp_dist_trial,dist_items,qkpkxw,2.0,response,62,1400.0,2250.0,2265.1600000000035,1400.0,2250.0,2265.1600000000035,1.0,865.1600000000035,0.0,,Slider,Slider,4.0,object-56,temp_dist_trial,11.0,t_s_07_1,travel_shared,phone charger cable,2.0,competing,paired,t_s_07_1.jpg,Travel,,,sub-27
Desktop or Laptop,Windows 10,Firefox 140.0,1920x1080,1920x927,Temporal Distance Task,cb_02,12.0,temp_dist_trial,num_items,zn7si1,1.0,response,2_ITEM,2485.1600000000035,2483.300000000003,2485.1600000000035,2485.1600000000035,2483.300000000003,2485.1600000000035,1.0,0.0,0.0,,Click Response,2_count,5.0,object-49,temp_dist_trial,12.0,t_s_01_1,travel_shared,fanny pack,2.0,competing,paired,t_s_01_1.jpg,Travel,,,sub-27
Desktop or Laptop,Windows 10,Firefox 140.0,1920x1080,1920x927,Temporal Distance Task,cb_02,12.0,temp_dist_trial,dist_items,qkpkxw,2.0,info,,9.860000000000582,0.0,9.860000000000582,9.860000000000582,0.0,9.860000000000582,1.0,0.0,0.0,,Slider,Slider,4.0,object-56,temp_dist_trial,12.0,t_s_01_1,travel_shared,fanny pack,2.0,competing,paired,t_s_01_1.jpg,Travel,,,sub-27
Desktop or Laptop,Windows 10,Firefox 140.0,1920x1080,1920x927,Temporal Distance Task,cb_02,12.0,temp_dist_trial,dist_items,qkpkxw,2.0,continue,,1624.8600000000006,1616.6399999999994,1624.8600000000006,1624.8600000000006,1616.6399999999994,1624.8600000000006,1.0,0.0,0.0,,Click To Continue,Next button,7.0,object-60,temp_dist_trial,12.0,t_s_01_1,travel_shared,fanny pack,2.0,competing,paired,t_s_01_1.jpg,Travel,,,sub-27
Desktop or Laptop,Windows 10,Firefox 140.0,1920x1080,1920x927,Temporal Distance Task,cb_02,12.0,temp_dist_trial,dist_items,qkpkxw,2.0,response,74,633.3399999999965,1616.6399999999994,1626.8600000000006,633.3399999999965,1616.6399999999994,1626.8600000000006,1.0,993.520000000004,0.0,,Slider,Slider,4.0,object-56,temp_dist_trial,12.0,t_s_01_1,travel_shared,fanny pack,2.0,competing,paired,t_s_01_1.jpg,Travel,,,sub-27
Desktop or Laptop,Windows 10,Firefox 140.0,1920x1080,1920x927,Temporal Distance Task,cb_02,13.0,temp_dist_trial,num_items,zn7si1,1.0,response,2_ITEM,2322.2200000000007,2316.680000000008,2322.2200000000007,2322.2200000000007,2316.680000000008,2322.2200000000007,1.0,0.0,0.0,,Click Response,2_count,5.0,object-49,temp_dist_trial,13.0,t_m_12_1,travel_Miami,foldable pail and shovel,2.0,unique,paired,t_m_12_1.jpg,Travel,,,sub-27
Desktop or Laptop,Windows 10,Firefox 140.0,1920x1080,1920x927,Temporal Distance Task,cb_02,13.0,temp_dist_trial,dist_items,qkpkxw,2.0,info,,4.539999999993596,0.0,4.539999999993596,4.539999999993596,0.0,4.539999999993596,1.0,0.0,0.0,,Slider,Slider,4.0,object-56,temp_dist_trial,13.0,t_m_12_1,travel_Miami,foldable pail and shovel,2.0,unique,paired,t_m_12_1.jpg,Travel,,,sub-27
Desktop or Laptop,Windows 10,Firefox 140.0,1920x1080,1920x927,Temporal Distance Task,cb_02,13.0,temp_dist_trial,dist_items,qkpkxw,2.0,continue,,2095.5399999999936,2083.2799999999993,2095.5399999999936,2095.5399999999936,2083.2799999999993,2095.5399999999936,1.0,0.0,0.0,,Click To Continue,Next button,7.0,object-60,temp_dist_trial,13.0,t_m_12_1,travel_Miami,foldable pail and shovel,2.0,unique,paired,t_m_12_1.jpg,Travel,,,sub-27
Desktop or Laptop,Windows 10,Firefox 140.0,1920x1080,1920x927,Temporal Distance Task,cb_02,13.0,temp_dist_trial,dist_items,qkpkxw,2.0,response,39,833.3399999999965,2083.2799999999993,2096.5399999999936,833.3399999999965,2083.2799999999993,2096.5399999999936,1.0,1263.1999999999969,0.0,,Slider,Slider,4.0,object-56,temp_dist_trial,13.0,t_m_12_1,travel_Miami,foldable pail and shovel,2.0,unique,paired,t_m_12_1.jpg,Travel,,,sub-27
Desktop or Laptop,Windows 10,Firefox 140.0,1920x1080,1920x927,Temporal Distance Task,cb_02,14.0,temp_dist_trial,num_items,zn7si1,1.0,response,2_ITEM,1984.2599999999948,1983.3399999999967,1984.2599999999948,1984.2599999999948,1983.3399999999967,1984.2599999999948,1.0,0.0,0.0,,Click Response,2_count,5.0,object-49,temp_dist_trial,14.0,t_i_14_1,travel_Iceland,snow pants,2.0,unique,single,t_i_14_1.jpg,Travel,,,sub-27
Desktop or Laptop,Windows 10,Firefox 140.0,1920x1080,1920x927,Temporal Distance Task,cb_02,14.0,temp_dist_trial,dist_items,qkpkxw,2.0,info,,4.919999999998254,0.0,4.919999999998254,4.919999999998254,0.0,4.919999999998254,1.0,0.0,0.0,,Slider,Slider,4.0,object-56,temp_dist_trial,14.0,t_i_14_1,travel_Iceland,snow pants,2.0,unique,single,t_i_14_1.jpg,Travel,,,sub-27
Desktop or Laptop,Windows 10,Firefox 140.0,1920x1080,1920x927,Temporal Distance Task,cb_02,14.0,temp_dist_trial,dist_items,qkpkxw,2.0,continue,,1372.9199999999985,1366.6600000000035,1372.9199999999985,1372.9199999999985,1366.6600000000035,1372.9199999999985,1.0,0.0,0.0,,Click To Continue,Next button,7.0,object-60,temp_dist_trial,14.0,t_i_14_1,travel_Iceland,snow pants,2.0,unique,single,t_i_14_1.jpg,Travel,,,sub-27
Desktop or Laptop,Windows 10,Firefox 140.0,1920x1080,1920x927,Temporal Distance Task,cb_02,14.0,temp_dist_trial,dist_items,qkpkxw,2.0,response,63,483.3199999999924,1366.6600000000035,1372.9199999999985,483.3199999999924,1366.6600000000035,1372.9199999999985,1.0,889.6000000000058,0.0,,Slider,Slider,4.0,object-56,temp_dist_trial,14.0,t_i_14_1,travel_Iceland,snow pants,2.0,unique,single,t_i_14_1.jpg,Travel,,,sub-27
Desktop or Laptop,Windows 10,Firefox 140.0,1920x1080,1920x927,Temporal Distance Task,cb_02,15.0,temp_dist_trial,num_items,zn7si1,1.0,response,2_ITEM,1327.2599999999948,1316.659999999989,1327.2599999999948,1327.2599999999948,1316.659999999989,1327.2599999999948,1.0,0.0,0.0,,Click Response,2_count,5.0,object-49,temp_dist_trial,15.0,t_s_04_1,travel_shared,instant camera,2.0,competing,paired,t_s_04_1.jpg,Travel,,,sub-27
Desktop or Laptop,Windows 10,Firefox 140.0,1920x1080,1920x927,Temporal Distance Task,cb_02,15.0,temp_dist_trial,dist_items,qkpkxw,2.0,info,,6.600000000005821,0.0,6.600000000005821,6.600000000005821,0.0,6.600000000005821,1.0,0.0,0.0,,Slider,Slider,4.0,object-56,temp_dist_trial,15.0,t_s_04_1,travel_shared,instant camera,2.0,competing,paired,t_s_04_1.jpg,Travel,,,sub-27
Desktop or Laptop,Windows 10,Firefox 140.0,1920x1080,1920x927,Temporal Distance Task,cb_02,15.0,temp_dist_trial,dist_items,qkpkxw,2.0,continue,,1284.6000000000058,1283.320000000007,1284.6000000000058,1284.6000000000058,1283.320000000007,1284.6000000000058,1.0,0.0,0.0,,Click To Continue,Next button,7.0,object-60,temp_dist_trial,15.0,t_s_04_1,travel_shared,instant camera,2.0,competing,paired,t_s_04_1.jpg,Travel,,,sub-27
Desktop or Laptop,Windows 10,Firefox 140.0,1920x1080,1920x927,Temporal Distance Task,cb_02,15.0,temp_dist_trial,dist_items,qkpkxw,2.0,response,29,400.0,1283.320000000007,1285.6000000000058,400.0,1283.320000000007,1285.6000000000058,1.0,885.6000000000058,0.0,,Slider,Slider,4.0,object-56,temp_dist_trial,15.0,t_s_04_1,travel_shared,instant camera,2.0,competing,paired,t_s_04_1.jpg,Travel,,,sub-27
Desktop or Laptop,Windows 10,Firefox 140.0,1920x1080,1920x927,Temporal Distance Task,cb_02,16.0,temp_dist_trial,num_items,zn7si1,1.0,response,1_ITEM,1523.2799999999988,1516.6600000000033,1523.2799999999988,1523.2799999999988,1516.6600000000033,1523.2799999999988,1.0,0.0,0.0,,Click Response,1_count,3.0,object-46,temp_dist_trial,16.0,t_i_16_1,travel_Iceland,skis,2.0,unique,single,t_i_16_1.jpg,Travel,,,sub-27
Desktop or Laptop,Windows 10,Firefox 140.0,1920x1080,1920x927,Temporal Distance Task,cb_02,17.0,temp_dist_trial,num_items,zn7si1,1.0,response,1_ITEM,1442.6199999999951,1433.3399999999967,1442.6199999999951,1442.6199999999951,1433.3399999999967,1442.6199999999951,1.0,0.0,0.0,,Click Response,1_count,3.0,object-46,temp_dist_trial,17.0,t_m_08_1,travel_Miami,flipflops,2.0,unique,single,t_m_08_1.jpg,Travel,,,sub-27
Desktop or Laptop,Windows 10,Firefox 140.0,1920x1080,1920x927,Temporal Distance Task,cb_02,18.0,temp_dist_trial,num_items,zn7si1,1.0,response,1_ITEM,918.2799999999988,916.6600000000036,918.2799999999988,918.2799999999988,916.6600000000036,918.2799999999988,1.0,0.0,0.0,,Click Response,1_count,3.0,object-46,temp_dist_trial,18.0,t_i_19_1,travel_Iceland,rope,2.0,unique,paired,t_i_19_1.jpg,Travel,,,sub-27
Desktop or Laptop,Windows 10,Firefox 140.0,1920x1080,1920x927,Temporal Distance Task,cb_02,19.0,temp_dist_trial,num_items,zn7si1,1.0,response,1_ITEM,1324.6199999999953,1316.659999999989,1324.6199999999953,1324.6199999999953,1316.659999999989,1324.6199999999953,1.0,0.0,0.0,,Click Response,1_count,3.0,object-46,temp_dist_trial,19.0,t_i_04_1,travel_Iceland,portable camping stove,2.0,unique,single,t_i_04_1.jpg,Travel,,,sub-27
Desktop or Laptop,Windows 10,Firefox 140.0,1920x1080,1920x927,Temporal Distance Task,cb_02,20.0,temp_dist_trial,num_items,zn7si1,1.0,response,2_ITEM,1190.9600000000066,1183.3000000000031,1190.9600000000066,1190.9600000000066,1183.3000000000031,1190.9600000000066,1.0,0.0,0.0,,Click Response,2_count,5.0,object-49,temp_dist_trial,20.0,t_s_06_1,travel_shared,luggage,2.0,competing,single,t_s_06_1.jpg,Travel,,,sub-27
Desktop or Laptop,Windows 10,Firefox 140.0,1920x1080,1920x927,Temporal Distance Task,cb_02,20.0,temp_dist_trial,dist_items,qkpkxw,2.0,info,,3.6600000000034933,0.0,3.6600000000034933,3.6600000000034933,0.0,3.6600000000034933,1.0,0.0,0.0,,Slider,Slider,4.0,object-56,temp_dist_trial,20.0,t_s_06_1,travel_shared,luggage,2.0,competing,single,t_s_06_1.jpg,Travel,,,sub-27
Desktop or Laptop,Windows 10,Firefox 140.0,1920x1080,1920x927,Temporal Distance Task,cb_02,20.0,temp_dist_trial,dist_items,qkpkxw,2.0,continue,,1890.6600000000033,1883.320000000007,1890.6600000000033,1890.6600000000033,1883.320000000007,1890.6600000000033,1.0,0.0,0.0,,Click To Continue,Next button,7.0,object-60,temp_dist_trial,20.0,t_s_06_1,travel_shared,luggage,2.0,competing,single,t_s_06_1.jpg,Travel,,,sub-27
Desktop or Laptop,Windows 10,Firefox 140.0,1920x1080,1920x927,Temporal Distance Task,cb_02,20.0,temp_dist_trial,dist_items,qkpkxw,2.0,response,62,1166.6600000000035,1883.320000000007,1890.6600000000033,1166.6600000000035,1883.320000000007,1890.6600000000033,1.0,724.0,0.0,,Slider,Slider,4.0,object-56,temp_dist_trial,20.0,t_s_06_1,travel_shared,luggage,2.0,competing,single,t_s_06_1.jpg,Travel,,,sub-27
Desktop or Laptop,Windows 10,Firefox 140.0,1920x1080,1920x927,Temporal Distance Task,cb_02,21.0,temp_dist_trial,num_items,zn7si1,1.0,response,2_ITEM,2125.3399999999965,2116.679999999993,2125.3399999999965,2125.3399999999965,2116.679999999993,2125.3399999999965,1.0,0.0,0.0,,Click Response,2_count,5.0,object-49,temp_dist_trial,21.0,t_s_17_1,travel_shared,toothbrush,2.0,competing,paired,t_s_17_1.jpg,Travel,,,sub-27
Desktop or Laptop,Windows 10,Firefox 140.0,1920x1080,1920x927,Temporal Distance Task,cb_02,21.0,temp_dist_trial,dist_items,qkpkxw,2.0,info,,4.6600000000034925,0.0,4.6600000000034925,4.6600000000034925,0.0,4.6600000000034925,1.0,0.0,0.0,,Slider,Slider,4.0,object-56,temp_dist_trial,21.0,t_s_17_1,travel_shared,toothbrush,2.0,competing,paired,t_s_17_1.jpg,Travel,,,sub-27
Desktop or Laptop,Windows 10,Firefox 140.0,1920x1080,1920x927,Temporal Distance Task,cb_02,21.0,temp_dist_trial,dist_items,qkpkxw,2.0,continue,,2701.6600000000035,2699.9800000000105,2701.6600000000035,2701.6600000000035,2699.9800000000105,2701.6600000000035,1.0,0.0,0.0,,Click To Continue,Next button,7.0,object-60,temp_dist_trial,21.0,t_s_17_1,travel_shared,toothbrush,2.0,competing,paired,t_s_17_1.jpg,Travel,,,sub-27
Desktop or Laptop,Windows 10,Firefox 140.0,1920x1080,1920x927,Temporal Distance Task,cb_02,21.0,temp_dist_trial,dist_items,qkpkxw,2.0,response,28,816.6600000000035,2699.9800000000105,2701.6600000000035,816.6600000000035,2699.9800000000105,2701.6600000000035,1.0,1885.0,0.0,,Slider,Slider,4.0,object-56,temp_dist_trial,21.0,t_s_17_1,travel_shared,toothbrush,2.0,competing,paired,t_s_17_1.jpg,Travel,,,sub-27
Desktop or Laptop,Windows 10,Firefox 140.0,1920x1080,1920x927,Temporal Distance Task,cb_02,22.0,temp_dist_trial,num_items,zn7si1,1.0,response,2_ITEM,885.679999999993,883.3399999999965,885.679999999993,885.679999999993,883.3399999999965,885.679999999993,1.0,0.0,0.0,,Click Response,2_count,5.0,object-49,temp_dist_trial,22.0,t_i_09_1,travel_Iceland,ear muffs,2.0,unique,paired,t_i_09_1.jpg,Travel,,,sub-27
Desktop or Laptop,Windows 10,Firefox 140.0,1920x1080,1920x927,Temporal Distance Task,cb_02,22.0,temp_dist_trial,dist_items,qkpkxw,2.0,info,,4.3999999999941775,0.0,4.3999999999941775,4.3999999999941775,0.0,4.3999999999941775,1.0,0.0,0.0,,Slider,Slider,4.0,object-56,temp_dist_trial,22.0,t_i_09_1,travel_Iceland,ear muffs,2.0,unique,paired,t_i_09_1.jpg,Travel,,,sub-27
Desktop or Laptop,Windows 10,Firefox 140.0,1920x1080,1920x927,Temporal Distance Task,cb_02,22.0,temp_dist_trial,dist_items,qkpkxw,2.0,continue,,2220.3999999999937,2216.659999999989,2220.3999999999937,2220.3999999999937,2216.659999999989,2220.3999999999937,1.0,0.0,0.0,,Click To Continue,Next button,7.0,object-60,temp_dist_trial,22.0,t_i_09_1,travel_Iceland,ear muffs,2.0,unique,paired,t_i_09_1.jpg,Travel,,,sub-27
Desktop or Laptop,Windows 10,Firefox 140.0,1920x1080,1920x927,Temporal Distance Task,cb_02,22.0,temp_dist_trial,dist_items,qkpkxw,2.0,response,65,1433.3199999999924,2216.659999999989,2220.3999999999937,1433.3199999999924,2216.659999999989,2220.3999999999937,1.0,787.0800000000016,0.0,,Slider,Slider,4.0,object-56,temp_dist_trial,22.0,t_i_09_1,travel_Iceland,ear muffs,2.0,unique,paired,t_i_09_1.jpg,Travel,,,sub-27
Desktop or Laptop,Windows 10,Firefox 140.0,1920x1080,1920x927,Temporal Distance Task,cb_02,23.0,temp_dist_trial,num_items,zn7si1,1.0,response,1_ITEM,1324.7400000000052,1316.6600000000035,1324.7400000000052,1324.7400000000052,1316.6600000000035,1324.7400000000052,1.0,0.0,0.0,,Click Response,1_count,3.0,object-46,temp_dist_trial,23.0,t_m_17_1,travel_Miami,water gun,2.0,unique,paired,t_m_17_1.jpg,Travel,,,sub-27
Desktop or Laptop,Windows 10,Firefox 140.0,1920x1080,1920x927,Temporal Distance Task,cb_02,24.0,temp_dist_trial,num_items,zn7si1,1.0,response,1_ITEM,1319.0800000000015,1316.6800000000076,1319.0800000000015,1319.0800000000015,1316.6800000000076,1319.0800000000015,1.0,0.0,0.0,,Click Response,1_count,3.0,object-46,temp_dist_trial,24.0,t_s_23_1,travel_shared,ball cap,2.0,competing,paired,t_s_23_1.jpg,Travel,,,sub-27
Desktop or Laptop,Windows 10,Firefox 140.0,1920x1080,1920x927,Temporal Distance Task,cb_02,25.0,temp_dist_trial,num_items,zn7si1,1.0,response,1_ITEM,1884.3999999999944,1883.3199999999924,1884.3999999999944,1884.3999999999944,1883.3199999999924,1884.3999999999944,1.0,0.0,0.0,,Click Response,1_count,3.0,object-46,temp_dist_trial,25.0,t_m_02_1,travel_Miami,t-shirt,2.0,unique,paired,t_m_02_1.jpg,Travel,,,sub-27
Desktop or Laptop,Windows 10,Firefox 140.0,1920x1080,1920x927,Temporal Distance Task,cb_02,26.0,temp_dist_trial,num_items,zn7si1,1.0,response,1_ITEM,2145.0800000000017,2133.320000000007,2145.0800000000017,2145.0800000000017,2133.320000000007,2145.0800000000017,1.0,0.0,0.0,,Click Response,1_count,3.0,object-46,temp_dist_trial,26.0,t_m_06_1,travel_Miami,handheld fan,2.0,unique,single,t_m_06_1.jpg,Travel,,,sub-27
Desktop or Laptop,Windows 10,Firefox 140.0,1920x1080,1920x927,Temporal Distance Task,cb_02,27.0,temp_dist_trial,num_items,zn7si1,1.0,response,1_ITEM,1457.7599999999948,1450.0,1457.7599999999948,1457.7599999999948,1450.0,1457.7599999999948,1.0,0.0,0.0,,Click Response,1_count,3.0,object-46,temp_dist_trial,27.0,t_s_13_1,travel_shared,contact lens case,2.0,competing,paired,t_s_13_1.jpg,Travel,,,sub-27
Desktop or Laptop,Windows 10,Firefox 140.0,1920x1080,1920x927,Temporal Distance Task,cb_02,28.0,temp_dist_trial,num_items,zn7si1,1.0,response,2_ITEM,1255.7599999999948,1250.0,1255.7599999999948,1255.7599999999948,1250.0,1255.7599999999948,1.0,0.0,0.0,,Click Response,2_count,5.0,object-49,temp_dist_trial,28.0,t_s_03_1,travel_shared,portable charger,2.0,competing,single,t_s_03_1.jpg,Travel,,,sub-27
Desktop or Laptop,Windows 10,Firefox 140.0,1920x1080,1920x927,Temporal Distance Task,cb_02,28.0,temp_dist_trial,dist_items,qkpkxw,2.0,info,,3.8000000000029104,0.0,3.8000000000029104,3.8000000000029104,0.0,3.8000000000029104,1.0,0.0,0.0,,Slider,Slider,4.0,object-56,temp_dist_trial,28.0,t_s_03_1,travel_shared,portable charger,2.0,competing,single,t_s_03_1.jpg,Travel,,,sub-27
Desktop or Laptop,Windows 10,Firefox 140.0,1920x1080,1920x927,Temporal Distance Task,cb_02,28.0,temp_dist_trial,dist_items,qkpkxw,2.0,continue,,1808.8000000000034,1800.0,1808.8000000000034,1808.8000000000034,1800.0,1808.8000000000034,1.0,0.0,0.0,,Click To Continue,Next button,7.0,object-60,temp_dist_trial,28.0,t_s_03_1,travel_shared,portable charger,2.0,competing,single,t_s_03_1.jpg,Travel,,,sub-27
Desktop or Laptop,Windows 10,Firefox 140.0,1920x1080,1920x927,Temporal Distance Task,cb_02,28.0,temp_dist_trial,dist_items,qkpkxw,2.0,response,75,1066.6800000000076,1800.0,1808.8000000000034,1066.6800000000076,1800.0,1808.8000000000034,1.0,742.1199999999952,0.0,,Slider,Slider,4.0,object-56,temp_dist_trial,28.0,t_s_03_1,travel_shared,portable charger,2.0,competing,single,t_s_03_1.jpg,Travel,,,sub-27
Desktop or Laptop,Windows 10,Firefox 140.0,1920x1080,1920x927,Temporal Distance Task,cb_02,29.0,temp_dist_trial,num_items,zn7si1,1.0,response,2_ITEM,1375.8000000000034,1366.6399999999996,1375.8000000000034,1375.8000000000034,1366.6399999999996,1375.8000000000034,1.0,0.0,0.0,,Click Response,2_count,5.0,object-49,temp_dist_trial,29.0,t_s_24_1,travel_shared,ear plugs,2.0,competing,paired,t_s_24_1.jpg,Travel,,,sub-27
Desktop or Laptop,Windows 10,Firefox 140.0,1920x1080,1920x927,Temporal Distance Task,cb_02,29.0,temp_dist_trial,dist_items,qkpkxw,2.0,info,,4.1600000000034925,0.0,4.1600000000034925,4.1600000000034925,0.0,4.1600000000034925,1.0,0.0,0.0,,Slider,Slider,4.0,object-56,temp_dist_trial,29.0,t_s_24_1,travel_shared,ear plugs,2.0,competing,paired,t_s_24_1.jpg,Travel,,,sub-27
Desktop or Laptop,Windows 10,Firefox 140.0,1920x1080,1920x927,Temporal Distance Task,cb_02,29.0,temp_dist_trial,dist_items,qkpkxw,2.0,continue,,1538.1600000000033,1533.3399999999967,1538.1600000000033,1538.1600000000033,1533.3399999999967,1538.1600000000033,1.0,0.0,0.0,,Click To Continue,Next button,7.0,object-60,temp_dist_trial,29.0,t_s_24_1,travel_shared,ear plugs,2.0,competing,paired,t_s_24_1.jpg,Travel,,,sub-27
Desktop or Laptop,Windows 10,Firefox 140.0,1920x1080,1920x927,Temporal Distance Task,cb_02,29.0,temp_dist_trial,dist_items,qkpkxw,2.0,response,39,633.3399999999965,1533.3399999999967,1538.1600000000033,633.3399999999965,1533.3399999999967,1538.1600000000033,1.0,904.820000000007,0.0,,Slider,Slider,4.0,object-56,temp_dist_trial,29.0,t_s_24_1,travel_shared,ear plugs,2.0,competing,paired,t_s_24_1.jpg,Travel,,,sub-27
Desktop or Laptop,Windows 10,Firefox 140.0,1920x1080,1920x927,Temporal Distance Task,cb_02,30.0,temp_dist_trial,num_items,zn7si1,1.0,response,1_ITEM,1356.820000000007,1350.0,1356.820000000007,1356.820000000007,1350.0,1356.820000000007,1.0,0.0,0.0,,Click Response,1_count,3.0,object-46,temp_dist_trial,30.0,t_m_19_1,travel_Miami,surfboard,2.0,unique,paired,t_m_19_1.jpg,Travel,,,sub-27
Desktop or Laptop,Windows 10,Firefox 140.0,1920x1080,1920x927,Temporal Distance Task,cb_02,31.0,temp_dist_trial,num_items,zn7si1,1.0,response,2_ITEM,979.820000000007,966.6400000000141,979.820000000007,979.820000000007,966.6400000000141,979.820000000007,1.0,0.0,0.0,,Click Response,2_count,5.0,object-49,temp_dist_trial,31.0,t_s_15_1,travel_shared,luggage tag,2.0,competing,paired,t_s_15_1.jpg,Travel,,,sub-27
Desktop or Laptop,Windows 10,Firefox 140.0,1920x1080,1920x927,Temporal Distance Task,cb_02,31.0,temp_dist_trial,dist_items,qkpkxw,2.0,info,,5.179999999993015,0.0,5.179999999993015,5.179999999993015,0.0,5.179999999993015,1.0,0.0,0.0,,Slider,Slider,4.0,object-56,temp_dist_trial,31.0,t_s_15_1,travel_shared,luggage tag,2.0,competing,paired,t_s_15_1.jpg,Travel,,,sub-27
Desktop or Laptop,Windows 10,Firefox 140.0,1920x1080,1920x927,Temporal Distance Task,cb_02,31.0,temp_dist_trial,dist_items,qkpkxw,2.0,continue,,2664.179999999993,2650.0,2664.179999999993,2664.179999999993,2650.0,2664.179999999993,1.0,0.0,0.0,,Click To Continue,Next button,7.0,object-60,temp_dist_trial,31.0,t_s_15_1,travel_shared,luggage tag,2.0,competing,paired,t_s_15_1.jpg,Travel,,,sub-27
Desktop or Laptop,Windows 10,Firefox 140.0,1920x1080,1920x927,Temporal Distance Task,cb_02,31.0,temp_dist_trial,dist_items,qkpkxw,2.0,response,83,1800.0,2650.0,2664.179999999993,1800.0,2650.0,2664.179999999993,1.0,864.179999999993,0.0,,Slider,Slider,4.0,object-56,temp_dist_trial,31.0,t_s_15_1,travel_shared,luggage tag,2.0,competing,paired,t_s_15_1.jpg,Travel,,,sub-27
Desktop or Laptop,Windows 10,Firefox 140.0,1920x1080,1920x927,Temporal Distance Task,cb_02,32.0,temp_dist_trial,num_items,zn7si1,1.0,response,1_ITEM,1301.179999999993,1300.0,1301.179999999993,1301.179999999993,1300.0,1301.179999999993,1.0,0.0,0.0,,Click Response,1_count,3.0,object-46,temp_dist_trial,32.0,t_i_18_1,travel_Iceland,ski mask,2.0,unique,single,t_i_18_1.jpg,Travel,,,sub-27
Desktop or Laptop,Windows 10,Firefox 140.0,1920x1080,1920x927,Temporal Distance Task,cb_02,33.0,temp_dist_trial,num_items,zn7si1,1.0,response,2_ITEM,1512.179999999993,1499.9399999999878,1512.179999999993,1512.179999999993,1499.9399999999878,1512.179999999993,1.0,0.0,0.0,,Click Response,2_count,5.0,object-49,temp_dist_trial,33.0,t_s_05_1,travel_shared,neck pillow,2.0,competing,paired,t_s_05_1.jpg,Travel,,,sub-27
Desktop or Laptop,Windows 10,Firefox 140.0,1920x1080,1920x927,Temporal Distance Task,cb_02,33.0,temp_dist_trial,dist_items,qkpkxw,2.0,info,,5.240000000005238,0.0,5.240000000005238,5.240000000005238,0.0,5.240000000005238,1.0,0.0,0.0,,Slider,Slider,4.0,object-56,temp_dist_trial,33.0,t_s_05_1,travel_shared,neck pillow,2.0,competing,paired,t_s_05_1.jpg,Travel,,,sub-27
Desktop or Laptop,Windows 10,Firefox 140.0,1920x1080,1920x927,Temporal Distance Task,cb_02,33.0,temp_dist_trial,dist_items,qkpkxw,2.0,continue,,2652.240000000005,2650.0,2652.240000000005,2652.240000000005,2650.0,2652.240000000005,1.0,0.0,0.0,,Click To Continue,Next button,7.0,object-60,temp_dist_trial,33.0,t_s_05_1,travel_shared,neck pillow,2.0,competing,paired,t_s_05_1.jpg,Travel,,,sub-27
Desktop or Laptop,Windows 10,Firefox 140.0,1920x1080,1920x927,Temporal Distance Task,cb_02,33.0,temp_dist_trial,dist_items,qkpkxw,2.0,response,80,1083.340000000011,2650.0,2654.240000000005,1083.340000000011,2650.0,2654.240000000005,1.0,1570.8999999999942,0.0,,Slider,Slider,4.0,object-56,temp_dist_trial,33.0,t_s_05_1,travel_shared,neck pillow,2.0,competing,paired,t_s_05_1.jpg,Travel,,,sub-27
Desktop or Laptop,Windows 10,Firefox 140.0,1920x1080,1920x927,Temporal Distance Task,cb_02,34.0,temp_dist_trial,num_items,zn7si1,1.0,response,2_ITEM,1052.2400000000052,1050.0,1052.2400000000052,1052.2400000000052,1050.0,1052.2400000000052,1.0,0.0,0.0,,Click Response,2_count,5.0,object-49,temp_dist_trial,34.0,t_s_20_1,travel_shared,travel pill case,2.0,competing,paired,t_s_20_1.jpg,Travel,,,sub-27
Desktop or Laptop,Windows 10,Firefox 140.0,1920x1080,1920x927,Temporal Distance Task,cb_02,34.0,temp_dist_trial,dist_items,qkpkxw,2.0,info,,4.240000000005239,0.0,4.240000000005239,4.240000000005239,0.0,4.240000000005239,1.0,0.0,0.0,,Slider,Slider,4.0,object-56,temp_dist_trial,34.0,t_s_20_1,travel_shared,travel pill case,2.0,competing,paired,t_s_20_1.jpg,Travel,,,sub-27
Desktop or Laptop,Windows 10,Firefox 140.0,1920x1080,1920x927,Temporal Distance Task,cb_02,34.0,temp_dist_trial,dist_items,qkpkxw,2.0,continue,,1374.2400000000052,1366.6800000000076,1374.2400000000052,1374.2400000000052,1366.6800000000076,1374.2400000000052,1.0,0.0,0.0,,Click To Continue,Next button,7.0,object-60,temp_dist_trial,34.0,t_s_20_1,travel_shared,travel pill case,2.0,competing,paired,t_s_20_1.jpg,Travel,,,sub-27
Desktop or Laptop,Windows 10,Firefox 140.0,1920x1080,1920x927,Temporal Distance Task,cb_02,34.0,temp_dist_trial,dist_items,qkpkxw,2.0,response,38,600.0,1366.6800000000076,1375.2400000000052,600.0,1366.6800000000076,1375.2400000000052,1.0,775.2400000000052,0.0,,Slider,Slider,4.0,object-56,temp_dist_trial,34.0,t_s_20_1,travel_shared,travel pill case,2.0,competing,paired,t_s_20_1.jpg,Travel,,,sub-27
Desktop or Laptop,Windows 10,Firefox 140.0,1920x1080,1920x927,Temporal Distance Task,cb_02,35.0,temp_dist_trial,num_items,zn7si1,1.0,response,2_ITEM,1397.5599999999977,1383.2799999999988,1397.5599999999977,1397.5599999999977,1383.2799999999988,1397.5599999999977,1.0,0.0,0.0,,Click Response,2_count,5.0,object-49,temp_dist_trial,35.0,t_i_10_1,travel_Iceland,trekking poles,2.0,unique,paired,t_i_10_1.jpg,Travel,,,sub-27
Desktop or Laptop,Windows 10,Firefox 140.0,1920x1080,1920x927,Temporal Distance Task,cb_02,35.0,temp_dist_trial,dist_items,qkpkxw,2.0,info,,4.279999999998837,0.0,4.279999999998837,4.279999999998837,0.0,4.279999999998837,1.0,0.0,0.0,,Slider,Slider,4.0,object-56,temp_dist_trial,35.0,t_i_10_1,travel_Iceland,trekking poles,2.0,unique,paired,t_i_10_1.jpg,Travel,,,sub-27
Desktop or Laptop,Windows 10,Firefox 140.0,1920x1080,1920x927,Temporal Distance Task,cb_02,35.0,temp_dist_trial,dist_items,qkpkxw,2.0,continue,,1608.2799999999988,1600.0,1608.2799999999988,1608.2799999999988,1600.0,1608.2799999999988,1.0,0.0,0.0,,Click To Continue,Next button,7.0,object-60,temp_dist_trial,35.0,t_i_10_1,travel_Iceland,trekking poles,2.0,unique,paired,t_i_10_1.jpg,Travel,,,sub-27
Desktop or Laptop,Windows 10,Firefox 140.0,1920x1080,1920x927,Temporal Distance Task,cb_02,35.0,temp_dist_trial,dist_items,qkpkxw,2.0,response,66,866.679999999993,1600.0,1608.2799999999988,866.679999999993,1600.0,1608.2799999999988,1.0,741.6000000000058,0.0,,Slider,Slider,4.0,object-56,temp_dist_trial,35.0,t_i_10_1,travel_Iceland,trekking poles,2.0,unique,paired,t_i_10_1.jpg,Travel,,,sub-27
Desktop or Laptop,Windows 10,Firefox 140.0,1920x1080,1920x927,Temporal Distance Task,cb_02,36.0,temp_dist_trial,num_items,zn7si1,1.0,response,1_ITEM,953.2799999999988,950.0,953.2799999999988,953.2799999999988,950.0,953.2799999999988,1.0,0.0,0.0,,Click Response,1_count,3.0,object-46,temp_dist_trial,36.0,t_s_08_1,travel_shared,hand lotion,2.0,competing,paired,t_s_08_1.jpg,Travel,,,sub-27
Desktop or Laptop,Windows 10,Firefox 140.0,1920x1080,1920x927,Temporal Distance Task,cb_02,37.0,temp_dist_trial,num_items,zn7si1,1.0,response,1_ITEM,964.2799999999988,950.0,964.2799999999988,964.2799999999988,950.0,964.2799999999988,1.0,0.0,0.0,,Click Response,1_count,3.0,object-46,temp_dist_trial,37.0,t_m_03_1,travel_Miami,wetsuit,2.0,unique,single,t_m_03_1.jpg,Travel,,,sub-27
Desktop or Laptop,Windows 10,Firefox 140.0,1920x1080,1920x927,Temporal Distance Task,cb_02,38.0,temp_dist_trial,num_items,zn7si1,1.0,response,1_ITEM,1072.2799999999988,1066.679999999993,1072.2799999999988,1072.2799999999988,1066.679999999993,1072.2799999999988,1.0,0.0,0.0,,Click Response,1_count,3.0,object-46,temp_dist_trial,38.0,t_s_22_1,travel_shared,belt,2.0,competing,paired,t_s_22_1.jpg,Travel,,,sub-27
Desktop or Laptop,Windows 10,Firefox 140.0,1920x1080,1920x927,Temporal Distance Task,cb_02,39.0,temp_dist_trial,num_items,zn7si1,1.0,response,1_ITEM,1022.6000000000058,1016.6600000000036,1022.6000000000058,1022.6000000000058,1016.6600000000036,1022.6000000000058,1.0,0.0,0.0,,Click Response,1_count,3.0,object-46,temp_dist_trial,39.0,t_m_07_1,travel_Miami,sunglasses,2.0,unique,single,t_m_07_1.jpg,Travel,,,sub-27
Desktop or Laptop,Windows 10,Firefox 140.0,1920x1080,1920x927,Temporal Distance Task,cb_02,40.0,temp_dist_trial,num_items,zn7si1,1.0,response,2_ITEM,1140.9400000000023,1133.320000000007,1140.9400000000023,1140.9400000000023,1133.320000000007,1140.9400000000023,1.0,0.0,0.0,,Click Response,2_count,5.0,object-49,temp_dist_trial,40.0,t_s_19_1,travel_shared,pajamas,2.0,competing,paired,t_s_19_1.jpg,Travel,,,sub-27
Desktop or Laptop,Windows 10,Firefox 140.0,1920x1080,1920x927,Temporal Distance Task,cb_02,40.0,temp_dist_trial,dist_items,qkpkxw,2.0,info,,4.619999999995343,0.0,4.619999999995343,4.619999999995343,0.0,4.619999999995343,1.0,0.0,0.0,,Slider,Slider,4.0,object-56,temp_dist_trial,40.0,t_s_19_1,travel_shared,pajamas,2.0,competing,paired,t_s_19_1.jpg,Travel,,,sub-27
Desktop or Laptop,Windows 10,Firefox 140.0,1920x1080,1920x927,Temporal Distance Task,cb_02,40.0,temp_dist_trial,dist_items,qkpkxw,2.0,continue,,2591.6199999999953,2583.320000000007,2591.6199999999953,2591.6199999999953,2583.320000000007,2591.6199999999953,1.0,0.0,0.0,,Click To Continue,Next button,7.0,object-60,temp_dist_trial,40.0,t_s_19_1,travel_shared,pajamas,2.0,competing,paired,t_s_19_1.jpg,Travel,,,sub-27
Desktop or Laptop,Windows 10,Firefox 140.0,1920x1080,1920x927,Temporal Distance Task,cb_02,40.0,temp_dist_trial,dist_items,qkpkxw,2.0,response,48,1650.0,2583.320000000007,2591.6199999999953,1650.0,2583.320000000007,2591.6199999999953,1.0,941.6199999999952,0.0,,Slider,Slider,4.0,object-56,temp_dist_trial,40.0,t_s_19_1,travel_shared,pajamas,2.0,competing,paired,t_s_19_1.jpg,Travel,,,sub-27
Desktop or Laptop,Windows 10,Firefox 140.0,1920x1080,1920x927,Temporal Distance Task,cb_02,41.0,temp_dist_trial,num_items,zn7si1,1.0,response,1_ITEM,1214.2999999999886,1199.9799999999816,1214.2999999999886,1214.2999999999886,1199.9799999999816,1214.2999999999886,1.0,0.0,0.0,,Click Response,1_count,3.0,object-46,temp_dist_trial,41.0,t_i_05_1,travel_Iceland,hiking boots,2.0,unique,paired,t_i_05_1.jpg,Travel,,,sub-27
Desktop or Laptop,Windows 10,Firefox 140.0,1920x1080,1920x927,Temporal Distance Task,cb_02,42.0,temp_dist_trial,num_items,zn7si1,1.0,response,2_ITEM,1503.320000000007,1500.0,1503.320000000007,1503.320000000007,1500.0,1503.320000000007,1.0,0.0,0.0,,Click Response,2_count,5.0,object-49,temp_dist_trial,42.0,t_i_08_1,travel_Iceland,thick socks,2.0,unique,paired,t_i_08_1.jpg,Travel,,,sub-27
Desktop or Laptop,Windows 10,Firefox 140.0,1920x1080,1920x927,Temporal Distance Task,cb_02,42.0,temp_dist_trial,dist_items,qkpkxw,2.0,info,,5.320000000006985,0.0,5.320000000006985,5.320000000006985,0.0,5.320000000006985,1.0,0.0,0.0,,Slider,Slider,4.0,object-56,temp_dist_trial,42.0,t_i_08_1,travel_Iceland,thick socks,2.0,unique,paired,t_i_08_1.jpg,Travel,,,sub-27
Desktop or Laptop,Windows 10,Firefox 140.0,1920x1080,1920x927,Temporal Distance Task,cb_02,42.0,temp_dist_trial,dist_items,qkpkxw,2.0,continue,,1431.320000000007,1416.6199999999951,1431.320000000007,1431.320000000007,1416.6199999999951,1431.320000000007,1.0,0.0,0.0,,Click To Continue,Next button,7.0,object-60,temp_dist_trial,42.0,t_i_08_1,travel_Iceland,thick socks,2.0,unique,paired,t_i_08_1.jpg,Travel,,,sub-27
Desktop or Laptop,Windows 10,Firefox 140.0,1920x1080,1920x927,Temporal Distance Task,cb_02,42.0,temp_dist_trial,dist_items,qkpkxw,2.0,response,60,633.320000000007,1416.6199999999951,1432.320000000007,633.320000000007,1416.6199999999951,1432.320000000007,1.0,799.0,0.0,,Slider,Slider,4.0,object-56,temp_dist_trial,42.0,t_i_08_1,travel_Iceland,thick socks,2.0,unique,paired,t_i_08_1.jpg,Travel,,,sub-27
Desktop or Laptop,Windows 10,Firefox 140.0,1920x1080,1920x927,Temporal Distance Task,cb_02,43.0,temp_dist_trial,num_items,zn7si1,1.0,response,num_miss,2999.9800000000105,2999.9800000000105,2999.9800000000105,2999.9800000000105,2999.9800000000105,2999.9800000000105,1.0,0.0,0.0,num_miss_tag,Time Limit,screen,0.0,screen,temp_dist_trial,43.0,t_m_15_1,travel_Miami,shorts,2.0,unique,paired,t_m_15_1.jpg,Travel,,,sub-27
Desktop or Laptop,Windows 10,Firefox 140.0,1920x1080,1920x927,Temporal Distance Task,cb_02,44.0,temp_dist_trial,num_items,zn7si1,1.0,response,1_ITEM,2238.3999999999937,2233.3399999999965,2238.3999999999937,2238.3999999999937,2233.3399999999965,2238.3999999999937,1.0,0.0,0.0,,Click Response,1_count,3.0,object-46,temp_dist_trial,44.0,t_s_14_1,travel_shared,hand sanitizer,2.0,competing,single,t_s_14_1.jpg,Travel,,,sub-27
Desktop or Laptop,Windows 10,Firefox 140.0,1920x1080,1920x927,Temporal Distance Task,cb_02,45.0,temp_dist_trial,num_items,zn7si1,1.0,response,2_ITEM,1073.0599999999977,1066.6600000000037,1073.0599999999977,1073.0599999999977,1066.6600000000037,1073.0599999999977,1.0,0.0,0.0,,Click Response,2_count,5.0,object-49,temp_dist_trial,45.0,t_s_10_1,travel_shared,luggage lock,2.0,competing,paired,t_s_10_1.jpg,Travel,,,sub-27
Desktop or Laptop,Windows 10,Firefox 140.0,1920x1080,1920x927,Temporal Distance Task,cb_02,45.0,temp_dist_trial,dist_items,qkpkxw,2.0,info,,5.399999999994179,0.0,5.399999999994179,5.399999999994179,0.0,5.399999999994179,1.0,0.0,0.0,,Slider,Slider,4.0,object-56,temp_dist_trial,45.0,t_s_10_1,travel_shared,luggage lock,2.0,competing,paired,t_s_10_1.jpg,Travel,,,sub-27
Desktop or Laptop,Windows 10,Firefox 140.0,1920x1080,1920x927,Temporal Distance Task,cb_02,45.0,temp_dist_trial,dist_items,qkpkxw,2.0,continue,,3059.3999999999933,3050.0,3059.3999999999933,3059.3999999999933,3050.0,3059.3999999999933,1.0,0.0,0.0,,Click To Continue,Next button,7.0,object-60,temp_dist_trial,45.0,t_s_10_1,travel_shared,luggage lock,2.0,competing,paired,t_s_10_1.jpg,Travel,,,sub-27
Desktop or Laptop,Windows 10,Firefox 140.0,1920x1080,1920x927,Temporal Distance Task,cb_02,45.0,temp_dist_trial,dist_items,qkpkxw,2.0,response,70,2283.3399999999965,3050.0,3059.3999999999933,2283.3399999999965,3050.0,3059.3999999999933,1.0,776.0599999999977,0.0,,Slider,Slider,4.0,object-56,temp_dist_trial,45.0,t_s_10_1,travel_shared,luggage lock,2.0,competing,paired,t_s_10_1.jpg,Travel,,,sub-27
Desktop or Laptop,Windows 10,Firefox 140.0,1920x1080,1920x927,Temporal Distance Task,cb_02,46.0,temp_dist_trial,num_items,zn7si1,1.0,response,1_ITEM,1571.3999999999942,1566.6399999999844,1571.3999999999942,1571.3999999999942,1566.6399999999844,1571.3999999999942,1.0,0.0,0.0,,Click Response,1_count,3.0,object-46,temp_dist_trial,46.0,t_s_12_1,travel_shared,clear toiletry bag,2.0,competing,single,t_s_12_1.jpg,Travel,,,sub-27
Desktop or Laptop,Windows 10,Firefox 140.0,1920x1080,1920x927,Temporal Distance Task,cb_02,47.0,temp_dist_trial,num_items,zn7si1,1.0,response,2_ITEM,999.7600000000093,983.3399999999964,999.7600000000093,999.7600000000093,983.3399999999964,999.7600000000093,1.0,0.0,0.0,,Click Response,2_count,5.0,object-49,temp_dist_trial,47.0,t_i_13_1,travel_Iceland,sleeping bag,2.0,unique,paired,t_i_13_1.jpg,Travel,,,sub-27
Desktop or Laptop,Windows 10,Firefox 140.0,1920x1080,1920x927,Temporal Distance Task,cb_02,47.0,temp_dist_trial,dist_items,qkpkxw,2.0,info,,4.420000000012807,0.0,4.420000000012807,4.420000000012807,0.0,4.420000000012807,1.0,0.0,0.0,,Slider,Slider,4.0,object-56,temp_dist_trial,47.0,t_i_13_1,travel_Iceland,sleeping bag,2.0,unique,paired,t_i_13_1.jpg,Travel,,,sub-27
Desktop or Laptop,Windows 10,Firefox 140.0,1920x1080,1920x927,Temporal Distance Task,cb_02,47.0,temp_dist_trial,dist_items,qkpkxw,2.0,continue,,1381.4200000000128,1366.640000000014,1381.4200000000128,1381.4200000000128,1366.640000000014,1381.4200000000128,1.0,0.0,0.0,,Click To Continue,Next button,7.0,object-60,temp_dist_trial,47.0,t_i_13_1,travel_Iceland,sleeping bag,2.0,unique,paired,t_i_13_1.jpg,Travel,,,sub-27
Desktop or Laptop,Windows 10,Firefox 140.0,1920x1080,1920x927,Temporal Distance Task,cb_02,47.0,temp_dist_trial,dist_items,qkpkxw,2.0,response,75,516.6400000000141,1366.640000000014,1381.4200000000128,516.6400000000141,1366.640000000014,1381.4200000000128,1.0,864.7799999999988,0.0,,Slider,Slider,4.0,object-56,temp_dist_trial,47.0,t_i_13_1,travel_Iceland,sleeping bag,2.0,unique,paired,t_i_13_1.jpg,Travel,,,sub-27
Desktop or Laptop,Windows 10,Firefox 140.0,1920x1080,1920x927,Temporal Distance Task,cb_02,48.0,temp_dist_trial,num_items,zn7si1,1.0,response,1_ITEM,1122.7799999999988,1116.6600000000037,1122.7799999999988,1122.7799999999988,1116.6600000000037,1122.7799999999988,1.0,0.0,0.0,,Click Response,1_count,3.0,object-46,temp_dist_trial,48.0,t_m_16_1,travel_Miami,flippers,2.0,unique,paired,t_m_16_1.jpg,Travel,,,sub-27
Desktop or Laptop,Windows 10,Firefox 140.0,1920x1080,1920x927,Temporal Distance Task,cb_02,2.0,temp_eventStart,Screen 1,dgtyxe,1.0,continue,,2708.1199999999953,2700.0,2708.1199999999953,2708.1199999999953,2700.0,2708.1199999999953,1.0,0.0,0.0,,Click To Continue,Next Button,3.0,object-43,temp_eventStart,,,Student,,,,,,,,,sub-27
Desktop or Laptop,Windows 10,Firefox 140.0,1920x1080,1920x927,Temporal Distance Task,cb_02,49.0,temp_dist_trial,num_items,zn7si1,1.0,response,1_ITEM,1383.319999999978,1366.6399999999844,1383.319999999978,1383.319999999978,1366.6399999999844,1383.319999999978,1.0,0.0,0.0,,Click Response,1_count,3.0,object-46,temp_dist_trial,1.0,s_sh_24_1,student_shared,desk organizer,2.0,competing,single,s_sh_24_1.jpg,Student,,,sub-27
Desktop or Laptop,Windows 10,Firefox 140.0,1920x1080,1920x927,Temporal Distance Task,cb_02,50.0,temp_dist_trial,num_items,zn7si1,1.0,response,1_ITEM,1024.4800000000105,1016.6600000000036,1024.4800000000105,1024.4800000000105,1016.6600000000036,1024.4800000000105,1.0,0.0,0.0,,Click Response,1_count,3.0,object-46,temp_dist_trial,2.0,s_sh_12_1,student_shared,binder,2.0,competing,single,s_sh_12_1.jpg,Student,,,sub-27
Desktop or Laptop,Windows 10,Firefox 140.0,1920x1080,1920x927,Temporal Distance Task,cb_02,51.0,temp_dist_trial,num_items,zn7si1,1.0,response,1_ITEM,981.820000000007,966.6600000000036,981.820000000007,981.820000000007,966.6600000000036,981.820000000007,1.0,0.0,0.0,,Click Response,1_count,3.0,object-46,temp_dist_trial,3.0,s_sh_13_1,student_shared,index cards,2.0,competing,single,s_sh_13_1.jpg,Student,,,sub-27
Desktop or Laptop,Windows 10,Firefox 140.0,1920x1080,1920x927,Temporal Distance Task,cb_02,52.0,temp_dist_trial,num_items,zn7si1,1.0,response,2_ITEM,1123.1600000000037,1116.679999999993,1123.1600000000037,1123.1600000000037,1116.679999999993,1123.1600000000037,1.0,0.0,0.0,,Click Response,2_count,5.0,object-49,temp_dist_trial,4.0,s_s_05_1,student_stem,lab goggles,2.0,unique,paired,s_s_05_1.jpg,Student,,,sub-27
Desktop or Laptop,Windows 10,Firefox 140.0,1920x1080,1920x927,Temporal Distance Task,cb_02,52.0,temp_dist_trial,dist_items,qkpkxw,2.0,info,,4.4800000000104765,0.0,4.4800000000104765,4.4800000000104765,0.0,4.4800000000104765,1.0,0.0,0.0,,Slider,Slider,4.0,object-56,temp_dist_trial,4.0,s_s_05_1,student_stem,lab goggles,2.0,unique,paired,s_s_05_1.jpg,Student,,,sub-27
Desktop or Laptop,Windows 10,Firefox 140.0,1920x1080,1920x927,Temporal Distance Task,cb_02,52.0,temp_dist_trial,dist_items,qkpkxw,2.0,continue,,1983.3000000000463,1966.6200000000244,1983.3000000000463,1983.3000000000463,1966.6200000000244,1983.3000000000463,1.0,0.0,0.0,,Click To Continue,Next button,7.0,object-60,temp_dist_trial,4.0,s_s_05_1,student_stem,lab goggles,2.0,unique,paired,s_s_05_1.jpg,Student,,,sub-27
Desktop or Laptop,Windows 10,Firefox 140.0,1920x1080,1920x927,Temporal Distance Task,cb_02,52.0,temp_dist_trial,dist_items,qkpkxw,2.0,response,37,899.9400000000023,1966.6200000000244,1983.3000000000463,899.9400000000023,1966.6200000000244,1983.3000000000463,1.0,1083.3600000000442,0.0,,Slider,Slider,4.0,object-56,temp_dist_trial,4.0,s_s_05_1,student_stem,lab goggles,2.0,unique,paired,s_s_05_1.jpg,Student,,,sub-27
Desktop or Laptop,Windows 10,Firefox 140.0,1920x1080,1920x927,Temporal Distance Task,cb_02,53.0,temp_dist_trial,num_items,zn7si1,1.0,response,1_ITEM,1238.859999999986,1233.319999999978,1238.859999999986,1238.859999999986,1233.319999999978,1238.859999999986,1.0,0.0,0.0,,Click Response,1_count,3.0,object-46,temp_dist_trial,5.0,s_a_05_1,student_art,clay,2.0,unique,single,s_a_05_1.jpg,Student,,,sub-27
Desktop or Laptop,Windows 10,Firefox 140.0,1920x1080,1920x927,Temporal Distance Task,cb_02,54.0,temp_dist_trial,num_items,zn7si1,1.0,response,1_ITEM,1034.540000000008,1033.3399999999963,1034.540000000008,1034.540000000008,1033.3399999999963,1034.540000000008,1.0,0.0,0.0,,Click Response,1_count,3.0,object-46,temp_dist_trial,6.0,s_sh_18_1,student_shared,wall calendar,2.0,competing,paired,s_sh_18_1.jpg,Student,,,sub-27
Desktop or Laptop,Windows 10,Firefox 140.0,1920x1080,1920x927,Temporal Distance Task,cb_02,55.0,temp_dist_trial,num_items,zn7si1,1.0,response,2_ITEM,1115.2000000000116,1100.0,1115.2000000000116,1115.2000000000116,1100.0,1115.2000000000116,1.0,0.0,0.0,,Click Response,2_count,5.0,object-49,temp_dist_trial,7.0,s_a_17_1,student_art,microphone,2.0,unique,paired,s_a_17_1.jpg,Student,,,sub-27
Desktop or Laptop,Windows 10,Firefox 140.0,1920x1080,1920x927,Temporal Distance Task,cb_02,55.0,temp_dist_trial,dist_items,qkpkxw,2.0,info,,5.2000000000116415,0.0,5.2000000000116415,5.2000000000116415,0.0,5.2000000000116415,1.0,0.0,0.0,,Slider,Slider,4.0,object-56,temp_dist_trial,7.0,s_a_17_1,student_art,microphone,2.0,unique,paired,s_a_17_1.jpg,Student,,,sub-27
Desktop or Laptop,Windows 10,Firefox 140.0,1920x1080,1920x927,Temporal Distance Task,cb_02,55.0,temp_dist_trial,dist_items,qkpkxw,2.0,continue,,1511.2000000000116,1500.0,1511.2000000000116,1511.2000000000116,1500.0,1511.2000000000116,1.0,0.0,0.0,,Click To Continue,Next button,7.0,object-60,temp_dist_trial,7.0,s_a_17_1,student_art,microphone,2.0,unique,paired,s_a_17_1.jpg,Student,,,sub-27
Desktop or Laptop,Windows 10,Firefox 140.0,1920x1080,1920x927,Temporal Distance Task,cb_02,55.0,temp_dist_trial,dist_items,qkpkxw,2.0,response,24,516.6600000000035,1500.0,1511.2000000000116,516.6600000000035,1500.0,1511.2000000000116,1.0,994.5400000000079,0.0,,Slider,Slider,4.0,object-56,temp_dist_trial,7.0,s_a_17_1,student_art,microphone,2.0,unique,paired,s_a_17_1.jpg,Student,,,sub-27
Desktop or Laptop,Windows 10,Firefox 140.0,1920x1080,1920x927,Temporal Distance Task,cb_02,56.0,temp_dist_trial,num_items,zn7si1,1.0,response,1_ITEM,2516.200000000012,2500.0,2516.200000000012,2516.200000000012,2500.0,2516.200000000012,1.0,0.0,0.0,,Click Response,1_count,3.0,object-46,temp_dist_trial,8.0,s_sh_02_1,student_shared,eraser,2.0,competing,paired,s_sh_02_1.jpg,Student,,,sub-27
Desktop or Laptop,Windows 10,Firefox 140.0,1920x1080,1920x927,Temporal Distance Task,cb_02,57.0,temp_dist_trial,num_items,zn7si1,1.0,response,1_ITEM,1403.2000000000116,1399.9800000000105,1403.2000000000116,1403.2000000000116,1399.9800000000105,1403.2000000000116,1.0,0.0,0.0,,Click Response,1_count,3.0,object-46,temp_dist_trial,9.0,s_a_10_1,student_art,tripod,2.0,unique,paired,s_a_10_1.jpg,Student,,,sub-27
Desktop or Laptop,Windows 10,Firefox 140.0,1920x1080,1920x927,Temporal Distance Task,cb_02,58.0,temp_dist_trial,num_items,zn7si1,1.0,response,1_ITEM,1081.2399999999907,1066.6600000000037,1081.2399999999907,1081.2399999999907,1066.6600000000037,1081.2399999999907,1.0,0.0,0.0,,Click Response,1_count,3.0,object-46,temp_dist_trial,10.0,s_sh_09_1,student_shared,paper clips,2.0,competing,paired,s_sh_09_1.jpg,Student,,,sub-27
Desktop or Laptop,Windows 10,Firefox 140.0,1920x1080,1920x927,Temporal Distance Task,cb_02,59.0,temp_dist_trial,num_items,zn7si1,1.0,response,2_ITEM,2333.5799999999867,2333.319999999978,2333.5799999999867,2333.5799999999867,2333.319999999978,2333.5799999999867,1.0,0.0,0.0,,Click Response,2_count,5.0,object-49,temp_dist_trial,11.0,s_sh_19_1,student_shared,portable plastic drawer,2.0,competing,paired,s_sh_19_1.jpg,Student,,,sub-27
Desktop or Laptop,Windows 10,Firefox 140.0,1920x1080,1920x927,Temporal Distance Task,cb_02,59.0,temp_dist_trial,dist_items,qkpkxw,2.0,info,,4.260000000009313,0.0,4.260000000009313,4.260000000009313,0.0,4.260000000009313,1.0,0.0,0.0,,Slider,Slider,4.0,object-56,temp_dist_trial,11.0,s_sh_19_1,student_shared,portable plastic drawer,2.0,competing,paired,s_sh_19_1.jpg,Student,,,sub-27
Desktop or Laptop,Windows 10,Firefox 140.0,1920x1080,1920x927,Temporal Distance Task,cb_02,59.0,temp_dist_trial,dist_items,qkpkxw,2.0,continue,,1687.2600000000089,1683.3000000000175,1687.2600000000089,1687.2600000000089,1683.3000000000175,1687.2600000000089,1.0,0.0,0.0,,Click To Continue,Next button,7.0,object-60,temp_dist_trial,11.0,s_sh_19_1,student_shared,portable plastic drawer,2.0,competing,paired,s_sh_19_1.jpg,Student,,,sub-27
Desktop or Laptop,Windows 10,Firefox 140.0,1920x1080,1920x927,Temporal Distance Task,cb_02,59.0,temp_dist_trial,dist_items,qkpkxw,2.0,response,38,583.320000000007,1683.3000000000175,1687.2600000000089,583.320000000007,1683.3000000000175,1687.2600000000089,1.0,1103.9400000000023,0.0,,Slider,Slider,4.0,object-56,temp_dist_trial,11.0,s_sh_19_1,student_shared,portable plastic drawer,2.0,competing,paired,s_sh_19_1.jpg,Student,,,sub-27
Desktop or Laptop,Windows 10,Firefox 140.0,1920x1080,1920x927,Temporal Distance Task,cb_02,60.0,temp_dist_trial,num_items,zn7si1,1.0,response,1_ITEM,1050.959999999992,1050.0,1050.959999999992,1050.959999999992,1050.0,1050.959999999992,1.0,0.0,0.0,,Click Response,1_count,3.0,object-46,temp_dist_trial,12.0,s_s_18_1,student_stem,brain model,2.0,unique,paired,s_s_18_1.jpg,Student,,,sub-27
Desktop or Laptop,Windows 10,Firefox 140.0,1920x1080,1920x927,Temporal Distance Task,cb_02,61.0,temp_dist_trial,num_items,zn7si1,1.0,response,2_ITEM,1008.9599999999921,1000.0,1008.9599999999921,1008.9599999999921,1000.0,1008.9599999999921,1.0,0.0,0.0,,Click Response,2_count,5.0,object-49,temp_dist_trial,13.0,s_a_11_1,student_art,clapperboard,2.0,unique,paired,s_a_11_1.jpg,Student,,,sub-27
Desktop or Laptop,Windows 10,Firefox 140.0,1920x1080,1920x927,Temporal Distance Task,cb_02,61.0,temp_dist_trial,dist_items,qkpkxw,2.0,info,,3.959999999991851,0.0,3.959999999991851,3.959999999991851,0.0,3.959999999991851,1.0,0.0,0.0,,Slider,Slider,4.0,object-56,temp_dist_trial,13.0,s_a_11_1,student_art,clapperboard,2.0,unique,paired,s_a_11_1.jpg,Student,,,sub-27
Desktop or Laptop,Windows 10,Firefox 140.0,1920x1080,1920x927,Temporal Distance Task,cb_02,61.0,temp_dist_trial,dist_items,qkpkxw,2.0,continue,,1962.959999999992,1950.0,1962.959999999992,1962.959999999992,1950.0,1962.959999999992,1.0,0.0,0.0,,Click To Continue,Next button,7.0,object-60,temp_dist_trial,13.0,s_a_11_1,student_art,clapperboard,2.0,unique,paired,s_a_11_1.jpg,Student,,,sub-27
Desktop or Laptop,Windows 10,Firefox 140.0,1920x1080,1920x927,Temporal Distance Task,cb_02,61.0,temp_dist_trial,dist_items,qkpkxw,2.0,response,56,550.0,1950.0,1962.959999999992,550.0,1950.0,1962.959999999992,1.0,1412.959999999992,0.0,,Slider,Slider,4.0,object-56,temp_dist_trial,13.0,s_a_11_1,student_art,clapperboard,2.0,unique,paired,s_a_11_1.jpg,Student,,,sub-27
Desktop or Laptop,Windows 10,Firefox 140.0,1920x1080,1920x927,Temporal Distance Task,cb_02,62.0,temp_dist_trial,num_items,zn7si1,1.0,response,1_ITEM,1540.959999999992,1533.2999999999884,1540.959999999992,1540.959999999992,1533.2999999999884,1540.959999999992,1.0,0.0,0.0,,Click Response,1_count,3.0,object-46,temp_dist_trial,14.0,s_sh_22_1,student_shared,hole puncher,2.0,competing,paired,s_sh_22_1.jpg,Student,,,sub-27
Desktop or Laptop,Windows 10,Firefox 140.0,1920x1080,1920x927,Temporal Distance Task,cb_02,63.0,temp_dist_trial,num_items,zn7si1,1.0,response,2_ITEM,1115.6600000000037,1100.0,1115.6600000000037,1115.6600000000037,1100.0,1115.6600000000037,1.0,0.0,0.0,,Click Response,2_count,5.0,object-49,temp_dist_trial,15.0,s_sh_21_1,student_shared,file holder,2.0,competing,paired,s_sh_21_1.jpg,Student,,,sub-27
Desktop or Laptop,Windows 10,Firefox 140.0,1920x1080,1920x927,Temporal Distance Task,cb_02,63.0,temp_dist_trial,dist_items,qkpkxw,2.0,info,,3.6600000000034933,0.0,3.6600000000034933,3.6600000000034933,0.0,3.6600000000034933,1.0,0.0,0.0,,Slider,Slider,4.0,object-56,temp_dist_trial,15.0,s_sh_21_1,student_shared,file holder,2.0,competing,paired,s_sh_21_1.jpg,Student,,,sub-27
Desktop or Laptop,Windows 10,Firefox 140.0,1920x1080,1920x927,Temporal Distance Task,cb_02,63.0,temp_dist_trial,dist_items,qkpkxw,2.0,continue,,1932.6600000000033,1916.6600000000033,1932.6600000000033,1932.6600000000033,1916.6600000000033,1932.6600000000033,1.0,0.0,0.0,,Click To Continue,Next button,7.0,object-60,temp_dist_trial,15.0,s_sh_21_1,student_shared,file holder,2.0,competing,paired,s_sh_21_1.jpg,Student,,,sub-27
Desktop or Laptop,Windows 10,Firefox 140.0,1920x1080,1920x927,Temporal Distance Task,cb_02,63.0,temp_dist_trial,dist_items,qkpkxw,2.0,response,32,983.3399999999964,1916.6600000000033,1932.6600000000033,983.3399999999964,1916.6600000000033,1932.6600000000033,1.0,949.320000000007,0.0,,Slider,Slider,4.0,object-56,temp_dist_trial,15.0,s_sh_21_1,student_shared,file holder,2.0,competing,paired,s_sh_21_1.jpg,Student,,,sub-27
Desktop or Laptop,Windows 10,Firefox 140.0,1920x1080,1920x927,Temporal Distance Task,cb_02,64.0,temp_dist_trial,num_items,zn7si1,1.0,response,1_ITEM,1172.0,1166.679999999993,1172.0,1172.0,1166.679999999993,1172.0,1.0,0.0,0.0,,Click Response,1_count,3.0,object-46,temp_dist_trial,16.0,s_s_15_1,student_stem,jumper cables,2.0,unique,single,s_s_15_1.jpg,Student,,,sub-27
Desktop or Laptop,Windows 10,Firefox 140.0,1920x1080,1920x927,Temporal Distance Task,cb_02,65.0,temp_dist_trial,num_items,zn7si1,1.0,response,1_ITEM,1397.359999999986,1383.319999999978,1397.359999999986,1397.359999999986,1383.319999999978,1397.359999999986,1.0,0.0,0.0,,Click Response,1_count,3.0,object-46,temp_dist_trial,17.0,s_sh_14_1,student_shared,printer,2.0,competing,single,s_sh_14_1.jpg,Student,,,sub-27
Desktop or Laptop,Windows 10,Firefox 140.0,1920x1080,1920x927,Temporal Distance Task,cb_02,66.0,temp_dist_trial,num_items,zn7si1,1.0,response,1_ITEM,1663.040000000008,1650.0,1663.040000000008,1663.040000000008,1650.0,1663.040000000008,1.0,0.0,0.0,,Click Response,1_count,3.0,object-46,temp_dist_trial,18.0,s_sh_20_1,student_shared,tape,2.0,competing,paired,s_sh_20_1.jpg,Student,,,sub-27
Desktop or Laptop,Windows 10,Firefox 140.0,1920x1080,1920x927,Temporal Distance Task,cb_02,67.0,temp_dist_trial,num_items,zn7si1,1.0,response,2_ITEM,1286.040000000008,1283.320000000007,1286.040000000008,1286.040000000008,1283.320000000007,1286.040000000008,1.0,0.0,0.0,,Click Response,2_count,5.0,object-49,temp_dist_trial,19.0,s_s_09_1,student_stem,multimeter,2.0,unique,paired,s_s_09_1.jpg,Student,,,sub-27
Desktop or Laptop,Windows 10,Firefox 140.0,1920x1080,1920x927,Temporal Distance Task,cb_02,67.0,temp_dist_trial,dist_items,qkpkxw,2.0,info,,5.720000000001162,0.0,5.720000000001162,5.720000000001162,0.0,5.720000000001162,1.0,0.0,0.0,,Slider,Slider,4.0,object-56,temp_dist_trial,19.0,s_s_09_1,student_stem,multimeter,2.0,unique,paired,s_s_09_1.jpg,Student,,,sub-27
Desktop or Laptop,Windows 10,Firefox 140.0,1920x1080,1920x927,Temporal Distance Task,cb_02,67.0,temp_dist_trial,dist_items,qkpkxw,2.0,continue,,1543.7200000000012,1533.320000000007,1543.7200000000012,1543.7200000000012,1533.320000000007,1543.7200000000012,1.0,0.0,0.0,,Click To Continue,Next button,7.0,object-60,temp_dist_trial,19.0,s_s_09_1,student_stem,multimeter,2.0,unique,paired,s_s_09_1.jpg,Student,,,sub-27
Desktop or Laptop,Windows 10,Firefox 140.0,1920x1080,1920x927,Temporal Distance Task,cb_02,67.0,temp_dist_trial,dist_items,qkpkxw,2.0,response,70,883.320000000007,1533.320000000007,1543.7200000000012,883.320000000007,1533.320000000007,1543.7200000000012,1.0,660.3999999999943,0.0,,Slider,Slider,4.0,object-56,temp_dist_trial,19.0,s_s_09_1,student_stem,multimeter,2.0,unique,paired,s_s_09_1.jpg,Student,,,sub-27
Desktop or Laptop,Windows 10,Firefox 140.0,1920x1080,1920x927,Temporal Distance Task,cb_02,68.0,temp_dist_trial,num_items,zn7si1,1.0,response,1_ITEM,1138.3999999999942,1133.3399999999965,1138.3999999999942,1138.3999999999942,1133.3399999999965,1138.3999999999942,1.0,0.0,0.0,,Click Response,1_count,3.0,object-46,temp_dist_trial,20.0,s_sh_05_1,student_shared,laptop,2.0,competing,paired,s_sh_05_1.jpg,Student,,,sub-27
Desktop or Laptop,Windows 10,Firefox 140.0,1920x1080,1920x927,Temporal Distance Task,cb_02,69.0,temp_dist_trial,num_items,zn7si1,1.0,response,1_ITEM,1173.0599999999977,1166.6600000000035,1173.0599999999977,1173.0599999999977,1166.6600000000035,1173.0599999999977,1.0,0.0,0.0,,Click Response,1_count,3.0,object-46,temp_dist_trial,21.0,s_s_19_1,student_stem,circuit board,2.0,unique,single,s_s_19_1.jpg,Student,,,sub-27
Desktop or Laptop,Windows 10,Firefox 140.0,1920x1080,1920x927,Temporal Distance Task,cb_02,70.0,temp_dist_trial,num_items,zn7si1,1.0,response,1_ITEM,1068.3999999999942,1066.6600000000037,1068.3999999999942,1068.3999999999942,1066.6600000000037,1068.3999999999942,1.0,0.0,0.0,,Click Response,1_count,3.0,object-46,temp_dist_trial,22.0,s_a_14_1,student_art,guitar pick,2.0,unique,single,s_a_14_1.jpg,Student,,,sub-27
Desktop or Laptop,Windows 10,Firefox 140.0,1920x1080,1920x927,Temporal Distance Task,cb_02,71.0,temp_dist_trial,num_items,zn7si1,1.0,response,1_ITEM,1540.7399999999911,1533.3399999999967,1540.7399999999911,1540.7399999999911,1533.3399999999967,1540.7399999999911,1.0,0.0,0.0,,Click Response,1_count,3.0,object-46,temp_dist_trial,23.0,s_sh_04_1,student_shared,laptop stand,2.0,competing,paired,s_sh_04_1.jpg,Student,,,sub-27
Desktop or Laptop,Windows 10,Firefox 140.0,1920x1080,1920x927,Temporal Distance Task,cb_02,72.0,temp_dist_trial,num_items,zn7si1,1.0,response,1_ITEM,1264.3999999999942,1249.9799999999816,1264.3999999999942,1264.3999999999942,1249.9799999999816,1264.3999999999942,1.0,0.0,0.0,,Click Response,1_count,3.0,object-46,temp_dist_trial,24.0,s_sh_15_1,student_shared,usb drive,2.0,competing,single,s_sh_15_1.jpg,Student,,,sub-27
Desktop or Laptop,Windows 10,Firefox 140.0,1920x1080,1920x927,Temporal Distance Task,cb_02,73.0,temp_dist_trial,num_items,zn7si1,1.0,response,1_ITEM,1611.4200000000128,1600.0,1611.4200000000128,1611.4200000000128,1600.0,1611.4200000000128,1.0,0.0,0.0,,Click Response,1_count,3.0,object-46,temp_dist_trial,25.0,s_s_12_1,student_stem,robotic arm,2.0,unique,paired,s_s_12_1.jpg,Student,,,sub-27
Desktop or Laptop,Windows 10,Firefox 140.0,1920x1080,1920x927,Temporal Distance Task,cb_02,74.0,temp_dist_trial,num_items,zn7si1,1.0,response,1_ITEM,1133.320000000007,1116.6600000000037,1133.320000000007,1133.320000000007,1116.6600000000037,1133.320000000007,1.0,0.0,0.0,,Click Response,1_count,3.0,object-46,temp_dist_trial,26.0,s_sh_23_1,student_shared,ballpoint pen,2.0,competing,paired,s_sh_23_1.jpg,Student,,,sub-27
Desktop or Laptop,Windows 10,Firefox 140.0,1920x1080,1920x927,Temporal Distance Task,cb_02,75.0,temp_dist_trial,num_items,zn7si1,1.0,response,2_ITEM,881.7999999999884,866.679999999993,881.7999999999884,881.7999999999884,866.679999999993,881.7999999999884,1.0,0.0,0.0,,Click Response,2_count,5.0,object-49,temp_dist_trial,27.0,s_sh_11_1,student_shared,pencil case,2.0,competing,single,s_sh_11_1.jpg,Student,,,sub-27
Desktop or Laptop,Windows 10,Firefox 140.0,1920x1080,1920x927,Temporal Distance Task,cb_02,75.0,temp_dist_trial,dist_items,qkpkxw,2.0,info,,4.119999999995343,0.0,4.119999999995343,4.119999999995343,0.0,4.119999999995343,1.0,0.0,0.0,,Slider,Slider,4.0,object-56,temp_dist_trial,27.0,s_sh_11_1,student_shared,pencil case,2.0,competing,single,s_sh_11_1.jpg,Student,,,sub-27
Desktop or Laptop,Windows 10,Firefox 140.0,1920x1080,1920x927,Temporal Distance Task,cb_02,75.0,temp_dist_trial,dist_items,qkpkxw,2.0,continue,,1629.1199999999951,1616.6600000000033,1629.1199999999951,1629.1199999999951,1616.6600000000033,1629.1199999999951,1.0,0.0,0.0,,Click To Continue,Next button,7.0,object-60,temp_dist_trial,27.0,s_sh_11_1,student_shared,pencil case,2.0,competing,single,s_sh_11_1.jpg,Student,,,sub-27
Desktop or Laptop,Windows 10,Firefox 140.0,1920x1080,1920x927,Temporal Distance Task,cb_02,75.0,temp_dist_trial,dist_items,qkpkxw,2.0,response,34,883.320000000007,1616.6600000000033,1629.1199999999951,883.320000000007,1616.6600000000033,1629.1199999999951,1.0,745.7999999999884,0.0,,Slider,Slider,4.0,object-56,temp_dist_trial,27.0,s_sh_11_1,student_shared,pencil case,2.0,competing,single,s_sh_11_1.jpg,Student,,,sub-27
Desktop or Laptop,Windows 10,Firefox 140.0,1920x1080,1920x927,Temporal Distance Task,cb_02,76.0,temp_dist_trial,num_items,zn7si1,1.0,response,1_ITEM,770.4599999999921,766.6600000000035,770.4599999999921,770.4599999999921,766.6600000000035,770.4599999999921,1.0,0.0,0.0,,Click Response,1_count,3.0,object-46,temp_dist_trial,28.0,s_a_12_1,student_art,saxophone,2.0,unique,single,s_a_12_1.jpg,Student,,,sub-27
Desktop or Laptop,Windows 10,Firefox 140.0,1920x1080,1920x927,Temporal Distance Task,cb_02,77.0,temp_dist_trial,num_items,zn7si1,1.0,response,1_ITEM,933.7999999999884,933.2999999999884,933.7999999999884,933.7999999999884,933.2999999999884,933.7999999999884,1.0,0.0,0.0,,Click Response,1_count,3.0,object-46,temp_dist_trial,29.0,s_a_18_1,student_art,tutu,2.0,unique,single,s_a_18_1.jpg,Student,,,sub-27
Desktop or Laptop,Windows 10,Firefox 140.0,1920x1080,1920x927,Temporal Distance Task,cb_02,78.0,temp_dist_trial,num_items,zn7si1,1.0,response,2_ITEM,1179.5,1166.6600000000035,1179.5,1179.5,1166.6600000000035,1179.5,1.0,0.0,0.0,,Click Response,2_count,5.0,object-49,temp_dist_trial,30.0,s_s_02_1,student_stem,flask,2.0,unique,paired,s_s_02_1.jpg,Student,,,sub-27
Desktop or Laptop,Windows 10,Firefox 140.0,1920x1080,1920x927,Temporal Distance Task,cb_02,78.0,temp_dist_trial,dist_items,qkpkxw,2.0,info,,4.8399999999965075,0.0,4.8399999999965075,4.8399999999965075,0.0,4.8399999999965075,1.0,0.0,0.0,,Slider,Slider,4.0,object-56,temp_dist_trial,30.0,s_s_02_1,student_stem,flask,2.0,unique,paired,s_s_02_1.jpg,Student,,,sub-27
Desktop or Laptop,Windows 10,Firefox 140.0,1920x1080,1920x927,Temporal Distance Task,cb_02,78.0,temp_dist_trial,dist_items,qkpkxw,2.0,continue,,1214.8399999999965,1200.0,1214.8399999999965,1214.8399999999965,1200.0,1214.8399999999965,1.0,0.0,0.0,,Click To Continue,Next button,7.0,object-60,temp_dist_trial,30.0,s_s_02_1,student_stem,flask,2.0,unique,paired,s_s_02_1.jpg,Student,,,sub-27
Desktop or Laptop,Windows 10,Firefox 140.0,1920x1080,1920x927,Temporal Distance Task,cb_02,78.0,temp_dist_trial,dist_items,qkpkxw,2.0,response,74,500.0,1200.0,1215.8399999999965,500.0,1200.0,1215.8399999999965,1.0,715.8399999999965,0.0,,Slider,Slider,4.0,object-56,temp_dist_trial,30.0,s_s_02_1,student_stem,flask,2.0,unique,paired,s_s_02_1.jpg,Student,,,sub-27
Desktop or Laptop,Windows 10,Firefox 140.0,1920x1080,1920x927,Temporal Distance Task,cb_02,79.0,temp_dist_trial,num_items,zn7si1,1.0,response,1_ITEM,2613.8399999999965,2600.0,2613.8399999999965,2613.8399999999965,2600.0,2613.8399999999965,1.0,0.0,0.0,,Click Response,1_count,3.0,object-46,temp_dist_trial,31.0,s_sh_03_1,student_shared,highlighter,2.0,competing,paired,s_sh_03_1.jpg,Student,,,sub-27
Desktop or Laptop,Windows 10,Firefox 140.0,1920x1080,1920x927,Temporal Distance Task,cb_02,80.0,temp_dist_trial,num_items,zn7si1,1.0,response,2_ITEM,967.8399999999964,966.6199999999952,967.8399999999964,967.8399999999964,966.6199999999952,967.8399999999964,1.0,0.0,0.0,,Click Response,2_count,5.0,object-49,temp_dist_trial,32.0,s_sh_06_1,student_shared,clipboard,2.0,competing,single,s_sh_06_1.jpg,Student,,,sub-27
Desktop or Laptop,Windows 10,Firefox 140.0,1920x1080,1920x927,Temporal Distance Task,cb_02,80.0,temp_dist_trial,dist_items,qkpkxw,2.0,info,,4.220000000001163,0.0,4.220000000001163,4.220000000001163,0.0,4.220000000001163,1.0,0.0,0.0,,Slider,Slider,4.0,object-56,temp_dist_trial,32.0,s_sh_06_1,student_shared,clipboard,2.0,competing,single,s_sh_06_1.jpg,Student,,,sub-27
Desktop or Laptop,Windows 10,Firefox 140.0,1920x1080,1920x927,Temporal Distance Task,cb_02,80.0,temp_dist_trial,dist_items,qkpkxw,2.0,continue,,1797.2200000000012,1783.3399999999967,1797.2200000000012,1797.2200000000012,1783.3399999999967,1797.2200000000012,1.0,0.0,0.0,,Click To Continue,Next button,7.0,object-60,temp_dist_trial,32.0,s_sh_06_1,student_shared,clipboard,2.0,competing,single,s_sh_06_1.jpg,Student,,,sub-27
Desktop or Laptop,Windows 10,Firefox 140.0,1920x1080,1920x927,Temporal Distance Task,cb_02,80.0,temp_dist_trial,dist_items,qkpkxw,2.0,response,30,1116.679999999993,1783.3399999999967,1797.2200000000012,1116.679999999993,1783.3399999999967,1797.2200000000012,1.0,680.540000000008,0.0,,Slider,Slider,4.0,object-56,temp_dist_trial,32.0,s_sh_06_1,student_shared,clipboard,2.0,competing,single,s_sh_06_1.jpg,Student,,,sub-27
Desktop or Laptop,Windows 10,Firefox 140.0,1920x1080,1920x927,Temporal Distance Task,cb_02,81.0,temp_dist_trial,num_items,zn7si1,1.0,response,2_ITEM,965.8800000000048,950.0,965.8800000000048,965.8800000000048,950.0,965.8800000000048,1.0,0.0,0.0,,Click Response,2_count,5.0,object-49,temp_dist_trial,33.0,s_s_01_1,student_stem,microscope,2.0,unique,paired,s_s_01_1.jpg,Student,,,sub-27
Desktop or Laptop,Windows 10,Firefox 140.0,1920x1080,1920x927,Temporal Distance Task,cb_02,81.0,temp_dist_trial,dist_items,qkpkxw,2.0,info,,4.8800000000046575,0.0,4.8800000000046575,4.8800000000046575,0.0,4.8800000000046575,1.0,0.0,0.0,,Slider,Slider,4.0,object-56,temp_dist_trial,33.0,s_s_01_1,student_stem,microscope,2.0,unique,paired,s_s_01_1.jpg,Student,,,sub-27
Desktop or Laptop,Windows 10,Firefox 140.0,1920x1080,1920x927,Temporal Distance Task,cb_02,81.0,temp_dist_trial,dist_items,qkpkxw,2.0,continue,,1318.8800000000047,1316.6600000000035,1318.8800000000047,1318.8800000000047,1316.6600000000035,1318.8800000000047,1.0,0.0,0.0,,Click To Continue,Next button,7.0,object-60,temp_dist_trial,33.0,s_s_01_1,student_stem,microscope,2.0,unique,paired,s_s_01_1.jpg,Student,,,sub-27
Desktop or Laptop,Windows 10,Firefox 140.0,1920x1080,1920x927,Temporal Distance Task,cb_02,81.0,temp_dist_trial,dist_items,qkpkxw,2.0,response,50,533.320000000007,1316.6600000000035,1318.8800000000047,533.320000000007,1316.6600000000035,1318.8800000000047,1.0,785.5599999999977,0.0,,Slider,Slider,4.0,object-56,temp_dist_trial,33.0,s_s_01_1,student_stem,microscope,2.0,unique,paired,s_s_01_1.jpg,Student,,,sub-27
Desktop or Laptop,Windows 10,Firefox 140.0,1920x1080,1920x927,Temporal Distance Task,cb_02,82.0,temp_dist_trial,num_items,zn7si1,1.0,response,2_ITEM,927.2200000000012,916.6400000000141,927.2200000000012,927.2200000000012,916.6400000000141,927.2200000000012,1.0,0.0,0.0,,Click Response,2_count,5.0,object-49,temp_dist_trial,34.0,s_a_20_1,student_art,pin cushion,2.0,unique,paired,s_a_20_1.jpg,Student,,,sub-27
Desktop or Laptop,Windows 10,Firefox 140.0,1920x1080,1920x927,Temporal Distance Task,cb_02,82.0,temp_dist_trial,dist_items,qkpkxw,2.0,info,,5.579999999987193,0.0,5.579999999987193,5.579999999987193,0.0,5.579999999987193,1.0,0.0,0.0,,Slider,Slider,4.0,object-56,temp_dist_trial,34.0,s_a_20_1,student_art,pin cushion,2.0,unique,paired,s_a_20_1.jpg,Student,,,sub-27
Desktop or Laptop,Windows 10,Firefox 140.0,1920x1080,1920x927,Temporal Distance Task,cb_02,82.0,temp_dist_trial,dist_items,qkpkxw,2.0,continue,,1350.0,1333.3399999999965,1350.0,1350.0,1333.3399999999965,1350.0,1.0,0.0,0.0,,Click To Continue,Next button,7.0,object-60,temp_dist_trial,34.0,s_a_20_1,student_art,pin cushion,2.0,unique,paired,s_a_20_1.jpg,Student,,,sub-27
Desktop or Laptop,Windows 10,Firefox 140.0,1920x1080,1920x927,Temporal Distance Task,cb_02,82.0,temp_dist_trial,dist_items,qkpkxw,2.0,response,69,516.679999999993,1333.3399999999965,1350.0,516.679999999993,1333.3399999999965,1350.0,1.0,833.320000000007,0.0,,Slider,Slider,4.0,object-56,temp_dist_trial,34.0,s_a_20_1,student_art,pin cushion,2.0,unique,paired,s_a_20_1.jpg,Student,,,sub-27
Desktop or Laptop,Windows 10,Firefox 140.0,1920x1080,1920x927,Temporal Distance Task,cb_02,83.0,temp_dist_trial,num_items,zn7si1,1.0,response,2_ITEM,1030.2399999999907,1016.6600000000036,1030.2399999999907,1030.2399999999907,1016.6600000000036,1030.2399999999907,1.0,0.0,0.0,,Click Response,2_count,5.0,object-49,temp_dist_trial,35.0,s_s_04_1,student_stem,bunsen burner,2.0,unique,paired,s_s_04_1.jpg,Student,,,sub-27
Desktop or Laptop,Windows 10,Firefox 140.0,1920x1080,1920x927,Temporal Distance Task,cb_02,83.0,temp_dist_trial,dist_items,qkpkxw,2.0,info,,4.579999999987193,0.0,4.579999999987193,4.579999999987193,0.0,4.579999999987193,1.0,0.0,0.0,,Slider,Slider,4.0,object-56,temp_dist_trial,35.0,s_s_04_1,student_stem,bunsen burner,2.0,unique,paired,s_s_04_1.jpg,Student,,,sub-27
Desktop or Laptop,Windows 10,Firefox 140.0,1920x1080,1920x927,Temporal Distance Task,cb_02,83.0,temp_dist_trial,dist_items,qkpkxw,2.0,continue,,1649.5799999999872,1633.2999999999884,1649.5799999999872,1649.5799999999872,1633.2999999999884,1649.5799999999872,1.0,0.0,0.0,,Click To Continue,Next button,7.0,object-60,temp_dist_trial,35.0,s_s_04_1,student_stem,bunsen burner,2.0,unique,paired,s_s_04_1.jpg,Student,,,sub-27
Desktop or Laptop,Windows 10,Firefox 140.0,1920x1080,1920x927,Temporal Distance Task,cb_02,83.0,temp_dist_trial,dist_items,qkpkxw,2.0,response,85,799.9599999999921,1633.2999999999884,1649.959999999992,799.9599999999921,1633.2999999999884,1649.959999999992,1.0,850.0,0.0,,Slider,Slider,4.0,object-56,temp_dist_trial,35.0,s_s_04_1,student_stem,bunsen burner,2.0,unique,paired,s_s_04_1.jpg,Student,,,sub-27
Desktop or Laptop,Windows 10,Firefox 140.0,1920x1080,1920x927,Temporal Distance Task,cb_02,84.0,temp_dist_trial,num_items,zn7si1,1.0,response,1_ITEM,981.2799999999988,966.6600000000036,981.2799999999988,981.2799999999988,966.6600000000036,981.2799999999988,1.0,0.0,0.0,,Click Response,1_count,3.0,object-46,temp_dist_trial,36.0,s_s_08_1,student_stem,soldering iron,2.0,unique,single,s_s_08_1.jpg,Student,,,sub-27
Desktop or Laptop,Windows 10,Firefox 140.0,1920x1080,1920x927,Temporal Distance Task,cb_02,85.0,temp_dist_trial,num_items,zn7si1,1.0,response,2_ITEM,1050.6199999999953,1050.0,1050.6199999999953,1050.6199999999953,1050.0,1050.6199999999953,1.0,0.0,0.0,,Click Response,2_count,5.0,object-49,temp_dist_trial,37.0,s_sh_16_1,student_shared,stapler,2.0,competing,paired,s_sh_16_1.jpg,Student,,,sub-27
Desktop or Laptop,Windows 10,Firefox 140.0,1920x1080,1920x927,Temporal Distance Task,cb_02,85.0,temp_dist_trial,dist_items,qkpkxw,2.0,info,,3.619999999995344,0.0,3.619999999995344,3.619999999995344,0.0,3.619999999995344,1.0,0.0,0.0,,Slider,Slider,4.0,object-56,temp_dist_trial,37.0,s_sh_16_1,student_shared,stapler,2.0,competing,paired,s_sh_16_1.jpg,Student,,,sub-27
Desktop or Laptop,Windows 10,Firefox 140.0,1920x1080,1920x927,Temporal Distance Task,cb_02,85.0,temp_dist_trial,dist_items,qkpkxw,2.0,continue,,1340.6199999999953,1333.3399999999965,1340.6199999999953,1340.6199999999953,1333.3399999999965,1340.6199999999953,1.0,0.0,0.0,,Click To Continue,Next button,7.0,object-60,temp_dist_trial,37.0,s_sh_16_1,student_shared,stapler,2.0,competing,paired,s_sh_16_1.jpg,Student,,,sub-27
Desktop or Laptop,Windows 10,Firefox 140.0,1920x1080,1920x927,Temporal Distance Task,cb_02,85.0,temp_dist_trial,dist_items,qkpkxw,2.0,response,28,566.679999999993,1333.3399999999965,1340.6199999999953,566.679999999993,1333.3399999999965,1340.6199999999953,1.0,773.9400000000023,0.0,,Slider,Slider,4.0,object-56,temp_dist_trial,37.0,s_sh_16_1,student_shared,stapler,2.0,competing,paired,s_sh_16_1.jpg,Student,,,sub-27
Desktop or Laptop,Windows 10,Firefox 140.0,1920x1080,1920x927,Temporal Distance Task,cb_02,86.0,temp_dist_trial,num_items,zn7si1,1.0,response,1_ITEM,1736.2799999999988,1733.320000000007,1736.2799999999988,1736.2799999999988,1733.320000000007,1736.2799999999988,1.0,0.0,0.0,,Click Response,1_count,3.0,object-46,temp_dist_trial,38.0,s_sh_17_1,student_shared,wireless mouse,2.0,competing,paired,s_sh_17_1.jpg,Student,,,sub-27
Desktop or Laptop,Windows 10,Firefox 140.0,1920x1080,1920x927,Temporal Distance Task,cb_02,87.0,temp_dist_trial,num_items,zn7si1,1.0,response,2_ITEM,991.9599999999921,983.3399999999964,991.9599999999921,991.9599999999921,983.3399999999964,991.9599999999921,1.0,0.0,0.0,,Click Response,2_count,5.0,object-49,temp_dist_trial,39.0,s_a_16_1,student_art,piano,2.0,unique,paired,s_a_16_1.jpg,Student,,,sub-27
Desktop or Laptop,Windows 10,Firefox 140.0,1920x1080,1920x927,Temporal Distance Task,cb_02,87.0,temp_dist_trial,dist_items,qkpkxw,2.0,info,,4.64000000001397,0.0,4.64000000001397,4.64000000001397,0.0,4.64000000001397,1.0,0.0,0.0,,Slider,Slider,4.0,object-56,temp_dist_trial,39.0,s_a_16_1,student_art,piano,2.0,unique,paired,s_a_16_1.jpg,Student,,,sub-27
Desktop or Laptop,Windows 10,Firefox 140.0,1920x1080,1920x927,Temporal Distance Task,cb_02,87.0,temp_dist_trial,dist_items,qkpkxw,2.0,continue,,3605.640000000014,3599.9800000000105,3605.640000000014,3605.640000000014,3599.9800000000105,3605.640000000014,1.0,0.0,0.0,,Click To Continue,Next button,7.0,object-60,temp_dist_trial,39.0,s_a_16_1,student_art,piano,2.0,unique,paired,s_a_16_1.jpg,Student,,,sub-27
Desktop or Laptop,Windows 10,Firefox 140.0,1920x1080,1920x927,Temporal Distance Task,cb_02,87.0,temp_dist_trial,dist_items,qkpkxw,2.0,response,47,2600.0,3599.9800000000105,3606.640000000014,2600.0,3599.9800000000105,3606.640000000014,1.0,1006.6400000000141,0.0,,Slider,Slider,4.0,object-56,temp_dist_trial,39.0,s_a_16_1,student_art,piano,2.0,unique,paired,s_a_16_1.jpg,Student,,,sub-27
Desktop or Laptop,Windows 10,Firefox 140.0,1920x1080,1920x927,Temporal Distance Task,cb_02,88.0,temp_dist_trial,num_items,zn7si1,1.0,response,2_ITEM,2347.6600000000035,2333.300000000017,2347.6600000000035,2347.6600000000035,2333.300000000017,2347.6600000000035,1.0,0.0,0.0,,Click Response,2_count,5.0,object-49,temp_dist_trial,40.0,s_sh_01_1,student_shared,notebook,2.0,competing,paired,s_sh_01_1.jpg,Student,,,sub-27
Desktop or Laptop,Windows 10,Firefox 140.0,1920x1080,1920x927,Temporal Distance Task,cb_02,88.0,temp_dist_trial,dist_items,qkpkxw,2.0,info,,5.35999999998603,0.0,5.35999999998603,5.35999999998603,0.0,5.35999999998603,1.0,0.0,0.0,,Slider,Slider,4.0,object-56,temp_dist_trial,40.0,s_sh_01_1,student_shared,notebook,2.0,competing,paired,s_sh_01_1.jpg,Student,,,sub-27
Desktop or Laptop,Windows 10,Firefox 140.0,1920x1080,1920x927,Temporal Distance Task,cb_02,88.0,temp_dist_trial,dist_items,qkpkxw,2.0,continue,,1287.359999999986,1283.319999999978,1287.359999999986,1287.359999999986,1283.319999999978,1287.359999999986,1.0,0.0,0.0,,Click To Continue,Next button,7.0,object-60,temp_dist_trial,40.0,s_sh_01_1,student_shared,notebook,2.0,competing,paired,s_sh_01_1.jpg,Student,,,sub-27
Desktop or Laptop,Windows 10,Firefox 140.0,1920x1080,1920x927,Temporal Distance Task,cb_02,88.0,temp_dist_trial,dist_items,qkpkxw,2.0,response,54,416.6599999999744,1283.319999999978,1287.359999999986,416.6599999999744,1283.319999999978,1287.359999999986,1.0,870.7000000000116,0.0,,Slider,Slider,4.0,object-56,temp_dist_trial,40.0,s_sh_01_1,student_shared,notebook,2.0,competing,paired,s_sh_01_1.jpg,Student,,,sub-27
Desktop or Laptop,Windows 10,Firefox 140.0,1920x1080,1920x927,Temporal Distance Task,cb_02,89.0,temp_dist_trial,num_items,zn7si1,1.0,response,1_ITEM,1195.040000000008,1183.3399999999965,1195.040000000008,1195.040000000008,1183.3399999999965,1195.040000000008,1.0,0.0,0.0,,Click Response,1_count,3.0,object-46,temp_dist_trial,41.0,s_a_19_1,student_art,ballet shoes,2.0,unique,paired,s_a_19_1.jpg,Student,,,sub-27
Desktop or Laptop,Windows 10,Firefox 140.0,1920x1080,1920x927,Temporal Distance Task,cb_02,90.0,temp_dist_trial,num_items,zn7si1,1.0,response,2_ITEM,1283.320000000007,1266.6600000000035,1283.320000000007,1283.320000000007,1266.6600000000035,1283.320000000007,1.0,0.0,0.0,,Click Response,2_count,5.0,object-49,temp_dist_trial,42.0,s_sh_08_1,student_shared,post-its,2.0,competing,paired,s_sh_08_1.jpg,Student,,,sub-27
Desktop or Laptop,Windows 10,Firefox 140.0,1920x1080,1920x927,Temporal Distance Task,cb_02,90.0,temp_dist_trial,dist_items,qkpkxw,2.0,info,,5.040000000008148,0.0,5.040000000008148,5.040000000008148,0.0,5.040000000008148,1.0,0.0,0.0,,Slider,Slider,4.0,object-56,temp_dist_trial,42.0,s_sh_08_1,student_shared,post-its,2.0,competing,paired,s_sh_08_1.jpg,Student,,,sub-27
Desktop or Laptop,Windows 10,Firefox 140.0,1920x1080,1920x927,Temporal Distance Task,cb_02,90.0,temp_dist_trial,dist_items,qkpkxw,2.0,continue,,1155.040000000008,1150.0,1155.040000000008,1155.040000000008,1150.0,1155.040000000008,1.0,0.0,0.0,,Click To Continue,Next button,7.0,object-60,temp_dist_trial,42.0,s_sh_08_1,student_shared,post-its,2.0,competing,paired,s_sh_08_1.jpg,Student,,,sub-27
Desktop or Laptop,Windows 10,Firefox 140.0,1920x1080,1920x927,Temporal Distance Task,cb_02,90.0,temp_dist_trial,dist_items,qkpkxw,2.0,response,26,350.0,1150.0,1155.040000000008,350.0,1150.0,1155.040000000008,1.0,805.0400000000079,0.0,,Slider,Slider,4.0,object-56,temp_dist_trial,42.0,s_sh_08_1,student_shared,post-its,2.0,competing,paired,s_sh_08_1.jpg,Student,,,sub-27
Desktop or Laptop,Windows 10,Firefox 140.0,1920x1080,1920x927,Temporal Distance Task,cb_02,91.0,temp_dist_trial,num_items,zn7si1,1.0,response,2_ITEM,963.0400000000079,950.0,963.0400000000079,963.0400000000079,950.0,963.0400000000079,1.0,0.0,0.0,,Click Response,2_count,5.0,object-49,temp_dist_trial,43.0,s_a_02_1,student_art,canvas,2.0,unique,paired,s_a_02_1.jpg,Student,,,sub-27
Desktop or Laptop,Windows 10,Firefox 140.0,1920x1080,1920x927,Temporal Distance Task,cb_02,91.0,temp_dist_trial,dist_items,qkpkxw,2.0,info,,4.040000000008149,0.0,4.040000000008149,4.040000000008149,0.0,4.040000000008149,1.0,0.0,0.0,,Slider,Slider,4.0,object-56,temp_dist_trial,43.0,s_a_02_1,student_art,canvas,2.0,unique,paired,s_a_02_1.jpg,Student,,,sub-27
Desktop or Laptop,Windows 10,Firefox 140.0,1920x1080,1920x927,Temporal Distance Task,cb_02,91.0,temp_dist_trial,dist_items,qkpkxw,2.0,continue,,1562.040000000008,1550.0,1562.040000000008,1562.040000000008,1550.0,1562.040000000008,1.0,0.0,0.0,,Click To Continue,Next button,7.0,object-60,temp_dist_trial,43.0,s_a_02_1,student_art,canvas,2.0,unique,paired,s_a_02_1.jpg,Student,,,sub-27
Desktop or Laptop,Windows 10,Firefox 140.0,1920x1080,1920x927,Temporal Distance Task,cb_02,91.0,temp_dist_trial,dist_items,qkpkxw,2.0,response,77,800.0,1550.0,1562.040000000008,800.0,1550.0,1562.040000000008,1.0,762.0400000000079,0.0,,Slider,Slider,4.0,object-56,temp_dist_trial,43.0,s_a_02_1,student_art,canvas,2.0,unique,paired,s_a_02_1.jpg,Student,,,sub-27
Desktop or Laptop,Windows 10,Firefox 140.0,1920x1080,1920x927,Temporal Distance Task,cb_02,92.0,temp_dist_trial,num_items,zn7si1,1.0,response,1_ITEM,979.0400000000079,966.6000000000058,979.0400000000079,979.0400000000079,966.6000000000058,979.0400000000079,1.0,0.0,0.0,,Click Response,1_count,3.0,object-46,temp_dist_trial,44.0,s_sh_07_1,student_shared,ruler,2.0,competing,paired,s_sh_07_1.jpg,Student,,,sub-27
Desktop or Laptop,Windows 10,Firefox 140.0,1920x1080,1920x927,Temporal Distance Task,cb_02,93.0,temp_dist_trial,num_items,zn7si1,1.0,response,1_ITEM,1504.4400000000023,1500.0199999999895,1504.4400000000023,1504.4400000000023,1500.0199999999895,1504.4400000000023,1.0,0.0,0.0,,Click Response,1_count,3.0,object-46,temp_dist_trial,45.0,s_sh_10_1,student_shared,scissors,2.0,competing,single,s_sh_10_1.jpg,Student,,,sub-27
Desktop or Laptop,Windows 10,Firefox 140.0,1920x1080,1920x927,Temporal Distance Task,cb_02,94.0,temp_dist_trial,num_items,zn7si1,1.0,response,2_ITEM,1472.4200000000128,1466.6600000000033,1472.4200000000128,1472.4200000000128,1466.6600000000033,1472.4200000000128,1.0,0.0,0.0,,Click Response,2_count,5.0,object-49,temp_dist_trial,46.0,s_s_10_1,student_stem,3d molecule,2.0,unique,single,s_s_10_1.jpg,Student,,,sub-27
Desktop or Laptop,Windows 10,Firefox 140.0,1920x1080,1920x927,Temporal Distance Task,cb_02,94.0,temp_dist_trial,dist_items,qkpkxw,2.0,info,,9.760000000009313,0.0,9.760000000009313,9.760000000009313,0.0,9.760000000009313,1.0,0.0,0.0,,Slider,Slider,4.0,object-56,temp_dist_trial,46.0,s_s_10_1,student_stem,3d molecule,2.0,unique,single,s_s_10_1.jpg,Student,,,sub-27
Desktop or Laptop,Windows 10,Firefox 140.0,1920x1080,1920x927,Temporal Distance Task,cb_02,94.0,temp_dist_trial,dist_items,qkpkxw,2.0,continue,,2596.760000000009,2583.3400000000256,2596.760000000009,2596.760000000009,2583.3400000000256,2596.760000000009,1.0,0.0,0.0,,Click To Continue,Next button,7.0,object-60,temp_dist_trial,46.0,s_s_10_1,student_stem,3d molecule,2.0,unique,single,s_s_10_1.jpg,Student,,,sub-27
Desktop or Laptop,Windows 10,Firefox 140.0,1920x1080,1920x927,Temporal Distance Task,cb_02,94.0,temp_dist_trial,dist_items,qkpkxw,2.0,response,53,600.0,2583.3400000000256,2597.760000000009,600.0,2583.3400000000256,2597.760000000009,1.0,1997.7600000000089,0.0,,Slider,Slider,4.0,object-56,temp_dist_trial,46.0,s_s_10_1,student_stem,3d molecule,2.0,unique,single,s_s_10_1.jpg,Student,,,sub-27
Desktop or Laptop,Windows 10,Firefox 140.0,1920x1080,1920x927,Temporal Distance Task,cb_02,95.0,temp_dist_trial,num_items,zn7si1,1.0,response,num_miss,2999.979999999981,2999.979999999981,2999.979999999981,2999.979999999981,2999.979999999981,2999.979999999981,1.0,0.0,0.0,num_miss_tag,Time Limit,screen,0.0,screen,temp_dist_trial,47.0,s_a_04_1,student_art,easel,2.0,unique,paired,s_a_04_1.jpg,Student,,,sub-27
Desktop or Laptop,Windows 10,Firefox 140.0,1920x1080,1920x927,Temporal Distance Task,cb_02,96.0,temp_dist_trial,num_items,zn7si1,1.0,response,1_ITEM,1627.1199999999951,1616.6199999999951,1627.1199999999951,1627.1199999999951,1616.6199999999951,1627.1199999999951,1.0,0.0,0.0,,Click Response,1_count,3.0,object-46,temp_dist_trial,48.0,s_s_07_1,student_stem,periodic table,2.0,unique,paired,s_s_07_1.jpg,Student,,,sub-27
Desktop or Laptop,Windows 10,Firefox 140.0,1920x1080,1920x927,Temporal Distance Task,$${counterbalance_group},,,,,,info,END,,,267798.0,,,,0.0,,,,,,,,,,,,,,,,,,,,sub-27
