Participant Device,Participant OS,Participant Browser,Participant Monitor Size,Participant Viewport Size,Task Name,Current Spreadsheet,Trial Number,Display,Screen,Screen ID,Screen Counter,Response Type,Response,Onset Time,Clock Time,Reaction Time,Absolute Onset Time,Absolute Clock Time,Absolute Reaction Time,Correct,Response Duration,Proportion,Tag,Component Name,Object Name,Object Number,Object ID,Spreadsheet: display,Spreadsheet: trial,Spreadsheet: stimulus_id,Spreadsheet: expected_goal,Spreadsheet: stimulus_name,Spreadsheet: c_group,Spreadsheet: condition,Spreadsheet: paired_status,Spreadsheet: stimulus_path,Spreadsheet: block_type,Manipulation: Spreadsheet,Store: enc_test_acc,sub_label
Desktop or Laptop,Windows 10,Chrome 130.0.0.0,1600x900,1600x731,Temporal Distance Task,,,,,,,info,BEGIN,,,,,,,,,,,,,,,,,,,,,,,,,$${counterbalance_group},,sub-86
Desktop or Laptop,Windows 10,Chrome 130.0.0.0,1600x900,1600x731,Temporal Distance Task,cb_10,1.0,temp_instructions,intro_screen,3tnme7,1.0,continue,,14247.399999952317,14234.000000000002,14247.399999952317,14247.399999952317,14234.000000000002,14247.399999952317,1.0,0.0,0.0,,Click To Continue,Continue Button,4.0,object-29,temp_instructions,,,Travel,,,,,,,$${counterbalance_group},,sub-86
Desktop or Laptop,Windows 10,Chrome 130.0.0.0,1600x900,1600x731,Temporal Distance Task,cb_10,1.0,temp_instructions,intro_screen_2,52v7ur,2.0,continue,,25465.199999904627,25449.8,25465.199999904627,25465.199999904627,25449.8,25465.199999904627,1.0,0.0,0.0,,Click To Continue,Continue Button,4.0,object-39,temp_instructions,,,Travel,,,,,,,$${counterbalance_group},,sub-86
Desktop or Laptop,Windows 10,Chrome 130.0.0.0,1600x900,1600x731,Temporal Distance Task,cb_10,1.0,temp_instructions,intro_screen_3,i7lvwx,3.0,continue,,6650.5,6633.800000000002,6650.5,6650.5,6633.800000000002,6650.5,1.0,0.0,0.0,,Click To Continue,Continue Button,4.0,object-67,temp_instructions,,,Travel,,,,,,,$${counterbalance_group},,sub-86
Desktop or Laptop,Windows 10,Chrome 130.0.0.0,1600x900,1600x731,Temporal Distance Task,cb_10,1.0,temp_instructions,test_q1,5ieqx1,4.0,response,choice_3,9447.199999928474,9432.4,9447.199999928474,9447.199999928474,9432.4,9447.199999928474,1.0,0.0,0.0,,Click Response,choice_3,5.0,object-345,temp_instructions,,,Travel,,,,,,,$${counterbalance_group},,sub-86
Desktop or Laptop,Windows 10,Chrome 130.0.0.0,1600x900,1600x731,Temporal Distance Task,cb_10,1.0,temp_instructions,score_corr,7ilvjr,5.0,continue,,1058.8999999523148,1050.6999999999969,1058.8999999523148,1058.8999999523148,1050.6999999999969,1058.8999999523148,1.0,0.0,0.0,,Click To Continue,Continue Button,3.0,object-23,temp_instructions,,,Travel,,,,,,,$${counterbalance_group},,sub-86
Desktop or Laptop,Windows 10,Chrome 130.0.0.0,1600x900,1600x731,Temporal Distance Task,cb_10,1.0,temp_eventStart,Screen 1,dgtyxe,1.0,continue,,42445.59999992848,42433.4,42445.59999992848,42445.59999992848,42433.4,42445.59999992848,1.0,0.0,0.0,,Click To Continue,Next Button,3.0,object-43,temp_eventStart,,,Travel,,,,,,,$${counterbalance_group},,sub-86
Desktop or Laptop,Windows 10,Chrome 130.0.0.0,1600x900,1600x731,Temporal Distance Task,cb_10,1.0,temp_dist_trial,num_items,zn7si1,1.0,response,1_ITEM,1761.0999999046326,1749.3999999999942,1761.0999999046326,1761.0999999046326,1749.3999999999942,1761.0999999046326,1.0,0.0,0.0,,Click Response,1_count,3.0,object-46,temp_dist_trial,1.0,t_m_13_1,travel_Miami,floatie,10.0,unique,single,t_m_13_1.jpg,Travel,$${counterbalance_group},,sub-86
Desktop or Laptop,Windows 10,Chrome 130.0.0.0,1600x900,1600x731,Temporal Distance Task,cb_10,2.0,temp_dist_trial,num_items,zn7si1,1.0,response,2_ITEM,1579.9999999046267,1566.599999999991,1579.9999999046267,1579.9999999046267,1566.599999999991,1579.9999999046267,1.0,0.0,0.0,,Click Response,2_count,5.0,object-49,temp_dist_trial,2.0,t_i_16_1,travel_Iceland,skis,10.0,unique,paired,t_i_16_1.jpg,Travel,$${counterbalance_group},,sub-86
Desktop or Laptop,Windows 10,Chrome 130.0.0.0,1600x900,1600x731,Temporal Distance Task,cb_10,2.0,temp_dist_trial,dist_items,qkpkxw,2.0,info,,16.700000000011638,0.0,16.700000000011638,16.700000000011638,0.0,16.700000000011638,1.0,0.0,0.0,,Slider,Slider,4.0,object-56,temp_dist_trial,2.0,t_i_16_1,travel_Iceland,skis,10.0,unique,paired,t_i_16_1.jpg,Travel,$${counterbalance_group},,sub-86
Desktop or Laptop,Windows 10,Chrome 130.0.0.0,1600x900,1600x731,Temporal Distance Task,cb_10,2.0,temp_dist_trial,dist_items,qkpkxw,2.0,continue,,3346.499999904627,3333.2999999999884,3346.499999904627,3346.499999904627,3333.2999999999884,3346.499999904627,1.0,0.0,0.0,,Click To Continue,Next button,7.0,object-60,temp_dist_trial,2.0,t_i_16_1,travel_Iceland,skis,10.0,unique,paired,t_i_16_1.jpg,Travel,$${counterbalance_group},,sub-86
Desktop or Laptop,Windows 10,Chrome 130.0.0.0,1600x900,1600x731,Temporal Distance Task,cb_10,2.0,temp_dist_trial,dist_items,qkpkxw,2.0,response,27,1534.0,3333.2999999999884,3349.39999999998,1534.0,3333.2999999999884,3349.39999999998,1.0,1815.3999999999799,0.0,,Slider,Slider,4.0,object-56,temp_dist_trial,2.0,t_i_16_1,travel_Iceland,skis,10.0,unique,paired,t_i_16_1.jpg,Travel,$${counterbalance_group},,sub-86
Desktop or Laptop,Windows 10,Chrome 130.0.0.0,1600x900,1600x731,Temporal Distance Task,cb_10,3.0,temp_dist_trial,num_items,zn7si1,1.0,response,1_ITEM,1583.599999999991,1567.0,1583.599999999991,1583.599999999991,1567.0,1583.599999999991,1.0,0.0,0.0,,Click Response,1_count,3.0,object-46,temp_dist_trial,3.0,t_i_06_1,travel_Iceland,knit hat,10.0,unique,single,t_i_06_1.jpg,Travel,$${counterbalance_group},,sub-86
Desktop or Laptop,Windows 10,Chrome 130.0.0.0,1600x900,1600x731,Temporal Distance Task,cb_10,4.0,temp_dist_trial,num_items,zn7si1,1.0,response,1_ITEM,1339.2999999046294,1332.5999999999913,1339.2999999046294,1339.2999999046294,1332.5999999999913,1339.2999999046294,1.0,0.0,0.0,,Click Response,1_count,3.0,object-46,temp_dist_trial,4.0,t_s_04_1,travel_shared,instant camera,10.0,competing,single,t_s_04_1.jpg,Travel,$${counterbalance_group},,sub-86
Desktop or Laptop,Windows 10,Chrome 130.0.0.0,1600x900,1600x731,Temporal Distance Task,cb_10,5.0,temp_dist_trial,num_items,zn7si1,1.0,response,1_ITEM,1427.3999999999942,1416.599999999991,1427.3999999999942,1427.3999999999942,1416.599999999991,1427.3999999999942,1.0,0.0,0.0,,Click Response,1_count,3.0,object-46,temp_dist_trial,5.0,t_i_12_1,travel_Iceland,tent,10.0,unique,single,t_i_12_1.jpg,Travel,$${counterbalance_group},,sub-86
Desktop or Laptop,Windows 10,Chrome 130.0.0.0,1600x900,1600x731,Temporal Distance Task,cb_10,6.0,temp_dist_trial,num_items,zn7si1,1.0,response,1_ITEM,1547.1999999761608,1532.6999999999966,1547.1999999761608,1547.1999999761608,1532.6999999999966,1547.1999999761608,1.0,0.0,0.0,,Click Response,1_count,3.0,object-46,temp_dist_trial,6.0,t_m_11_1,travel_Miami,collapsible beach chair,10.0,unique,single,t_m_11_1.jpg,Travel,$${counterbalance_group},,sub-86
Desktop or Laptop,Windows 10,Chrome 130.0.0.0,1600x900,1600x731,Temporal Distance Task,cb_10,7.0,temp_dist_trial,num_items,zn7si1,1.0,response,2_ITEM,1466.8000000000034,1450.0,1466.8000000000034,1466.8000000000034,1450.0,1466.8000000000034,1.0,0.0,0.0,,Click Response,2_count,5.0,object-49,temp_dist_trial,7.0,t_i_10_1,travel_Iceland,trekking poles,10.0,unique,paired,t_i_10_1.jpg,Travel,$${counterbalance_group},,sub-86
Desktop or Laptop,Windows 10,Chrome 130.0.0.0,1600x900,1600x731,Temporal Distance Task,cb_10,7.0,temp_dist_trial,dist_items,qkpkxw,2.0,info,,16.700000000011638,0.0,16.700000000011638,16.700000000011638,0.0,16.700000000011638,1.0,0.0,0.0,,Slider,Slider,4.0,object-56,temp_dist_trial,7.0,t_i_10_1,travel_Iceland,trekking poles,10.0,unique,paired,t_i_10_1.jpg,Travel,$${counterbalance_group},,sub-86
Desktop or Laptop,Windows 10,Chrome 130.0.0.0,1600x900,1600x731,Temporal Distance Task,cb_10,7.0,temp_dist_trial,dist_items,qkpkxw,2.0,continue,,4990.899999999994,4982.699999999997,4990.899999999994,4990.899999999994,4982.699999999997,4990.899999999994,1.0,0.0,0.0,,Click To Continue,Next button,7.0,object-60,temp_dist_trial,7.0,t_i_10_1,travel_Iceland,trekking poles,10.0,unique,paired,t_i_10_1.jpg,Travel,$${counterbalance_group},,sub-86
Desktop or Laptop,Windows 10,Chrome 130.0.0.0,1600x900,1600x731,Temporal Distance Task,cb_10,7.0,temp_dist_trial,dist_items,qkpkxw,2.0,response,51,1483.099999999991,4982.699999999997,4998.899999999994,1483.099999999991,4982.699999999997,4998.899999999994,1.0,3515.800000000003,0.0,,Slider,Slider,4.0,object-56,temp_dist_trial,7.0,t_i_10_1,travel_Iceland,trekking poles,10.0,unique,paired,t_i_10_1.jpg,Travel,$${counterbalance_group},,sub-86
Desktop or Laptop,Windows 10,Chrome 130.0.0.0,1600x900,1600x731,Temporal Distance Task,cb_10,8.0,temp_dist_trial,num_items,zn7si1,1.0,response,2_ITEM,1645.5999999761555,1633.599999999991,1645.5999999761555,1645.5999999761555,1633.599999999991,1645.5999999761555,1.0,0.0,0.0,,Click Response,2_count,5.0,object-49,temp_dist_trial,8.0,t_s_17_1,travel_shared,toothbrush,10.0,competing,paired,t_s_17_1.jpg,Travel,$${counterbalance_group},,sub-86
Desktop or Laptop,Windows 10,Chrome 130.0.0.0,1600x900,1600x731,Temporal Distance Task,cb_10,8.0,temp_dist_trial,dist_items,qkpkxw,2.0,info,,16.89999999999418,0.0,16.89999999999418,16.89999999999418,0.0,16.89999999999418,1.0,0.0,0.0,,Slider,Slider,4.0,object-56,temp_dist_trial,8.0,t_s_17_1,travel_shared,toothbrush,10.0,competing,paired,t_s_17_1.jpg,Travel,$${counterbalance_group},,sub-86
Desktop or Laptop,Windows 10,Chrome 130.0.0.0,1600x900,1600x731,Temporal Distance Task,cb_10,8.0,temp_dist_trial,dist_items,qkpkxw,2.0,continue,,3860.6999999046393,3850.1000000000067,3860.6999999046393,3860.6999999046393,3850.1000000000067,3860.6999999046393,1.0,0.0,0.0,,Click To Continue,Next button,7.0,object-60,temp_dist_trial,8.0,t_s_17_1,travel_shared,toothbrush,10.0,competing,paired,t_s_17_1.jpg,Travel,$${counterbalance_group},,sub-86
Desktop or Laptop,Windows 10,Chrome 130.0.0.0,1600x900,1600x731,Temporal Distance Task,cb_10,8.0,temp_dist_trial,dist_items,qkpkxw,2.0,response,43,2166.3999999999937,3850.1000000000067,3863.499999976164,2166.3999999999937,3850.1000000000067,3863.499999976164,1.0,1697.0999999761698,0.0,,Slider,Slider,4.0,object-56,temp_dist_trial,8.0,t_s_17_1,travel_shared,toothbrush,10.0,competing,paired,t_s_17_1.jpg,Travel,$${counterbalance_group},,sub-86
Desktop or Laptop,Windows 10,Chrome 130.0.0.0,1600x900,1600x731,Temporal Distance Task,cb_10,9.0,temp_dist_trial,num_items,zn7si1,1.0,response,1_ITEM,1330.5999999046326,1316.7000000000114,1330.5999999046326,1330.5999999046326,1316.7000000000114,1330.5999999046326,1.0,0.0,0.0,,Click Response,1_count,3.0,object-46,temp_dist_trial,9.0,t_m_15_1,travel_Miami,shorts,10.0,unique,paired,t_m_15_1.jpg,Travel,$${counterbalance_group},,sub-86
Desktop or Laptop,Windows 10,Chrome 130.0.0.0,1600x900,1600x731,Temporal Distance Task,cb_10,10.0,temp_dist_trial,num_items,zn7si1,1.0,response,2_ITEM,1790.899999928486,1782.7000000000116,1790.899999928486,1790.899999928486,1782.7000000000116,1790.899999928486,1.0,0.0,0.0,,Click Response,2_count,5.0,object-49,temp_dist_trial,10.0,t_m_18_1,travel_Miami,waterproof tote,10.0,unique,paired,t_m_18_1.jpg,Travel,$${counterbalance_group},,sub-86
Desktop or Laptop,Windows 10,Chrome 130.0.0.0,1600x900,1600x731,Temporal Distance Task,cb_10,10.0,temp_dist_trial,dist_items,qkpkxw,2.0,info,,16.799999999988362,0.0,16.799999999988362,16.799999999988362,0.0,16.799999999988362,1.0,0.0,0.0,,Slider,Slider,4.0,object-56,temp_dist_trial,10.0,t_m_18_1,travel_Miami,waterproof tote,10.0,unique,paired,t_m_18_1.jpg,Travel,$${counterbalance_group},,sub-86
Desktop or Laptop,Windows 10,Chrome 130.0.0.0,1600x900,1600x731,Temporal Distance Task,cb_10,10.0,temp_dist_trial,dist_items,qkpkxw,2.0,continue,,2726.899999976158,2716.200000000012,2726.899999976158,2726.899999976158,2716.200000000012,2726.899999976158,1.0,0.0,0.0,,Click To Continue,Next button,7.0,object-60,temp_dist_trial,10.0,t_m_18_1,travel_Miami,waterproof tote,10.0,unique,paired,t_m_18_1.jpg,Travel,$${counterbalance_group},,sub-86
Desktop or Laptop,Windows 10,Chrome 130.0.0.0,1600x900,1600x731,Temporal Distance Task,cb_10,10.0,temp_dist_trial,dist_items,qkpkxw,2.0,response,46,1266.6000000000058,2716.200000000012,2732.500000000029,1266.6000000000058,2716.200000000012,2732.500000000029,1.0,1465.9000000000233,0.0,,Slider,Slider,4.0,object-56,temp_dist_trial,10.0,t_m_18_1,travel_Miami,waterproof tote,10.0,unique,paired,t_m_18_1.jpg,Travel,$${counterbalance_group},,sub-86
Desktop or Laptop,Windows 10,Chrome 130.0.0.0,1600x900,1600x731,Temporal Distance Task,cb_10,11.0,temp_dist_trial,num_items,zn7si1,1.0,response,1_ITEM,2567.1000000000063,2550.3999999999937,2567.1000000000063,2567.1000000000063,2550.3999999999937,2567.1000000000063,1.0,0.0,0.0,,Click Response,1_count,3.0,object-46,temp_dist_trial,11.0,t_s_24_1,travel_shared,ear plugs,10.0,competing,single,t_s_24_1.jpg,Travel,$${counterbalance_group},,sub-86
Desktop or Laptop,Windows 10,Chrome 130.0.0.0,1600x900,1600x731,Temporal Distance Task,cb_10,12.0,temp_dist_trial,num_items,zn7si1,1.0,response,2_ITEM,2027.7999999761525,2016.6000000000056,2027.7999999761525,2027.7999999761525,2016.6000000000056,2027.7999999761525,1.0,0.0,0.0,,Click Response,2_count,5.0,object-49,temp_dist_trial,12.0,t_s_12_1,travel_shared,clear toiletry bag,10.0,competing,paired,t_s_12_1.jpg,Travel,$${counterbalance_group},,sub-86
Desktop or Laptop,Windows 10,Chrome 130.0.0.0,1600x900,1600x731,Temporal Distance Task,cb_10,12.0,temp_dist_trial,dist_items,qkpkxw,2.0,info,,11.899999928486068,0.0,11.899999928486068,11.899999928486068,0.0,11.899999928486068,1.0,0.0,0.0,,Slider,Slider,4.0,object-56,temp_dist_trial,12.0,t_s_12_1,travel_shared,clear toiletry bag,10.0,competing,paired,t_s_12_1.jpg,Travel,$${counterbalance_group},,sub-86
Desktop or Laptop,Windows 10,Chrome 130.0.0.0,1600x900,1600x731,Temporal Distance Task,cb_10,12.0,temp_dist_trial,dist_items,qkpkxw,2.0,continue,,5583.900000000023,5567.2000000000135,5583.900000000023,5583.900000000023,5567.2000000000135,5583.900000000023,1.0,0.0,0.0,,Click To Continue,Next button,7.0,object-60,temp_dist_trial,12.0,t_s_12_1,travel_shared,clear toiletry bag,10.0,competing,paired,t_s_12_1.jpg,Travel,$${counterbalance_group},,sub-86
Desktop or Laptop,Windows 10,Chrome 130.0.0.0,1600x900,1600x731,Temporal Distance Task,cb_10,12.0,temp_dist_trial,dist_items,qkpkxw,2.0,response,44,1783.4000000000233,5567.2000000000135,5583.900000000023,1783.4000000000233,5567.2000000000135,5583.900000000023,1.0,3800.5,0.0,,Slider,Slider,4.0,object-56,temp_dist_trial,12.0,t_s_12_1,travel_shared,clear toiletry bag,10.0,competing,paired,t_s_12_1.jpg,Travel,$${counterbalance_group},,sub-86
Desktop or Laptop,Windows 10,Chrome 130.0.0.0,1600x900,1600x731,Temporal Distance Task,cb_10,13.0,temp_dist_trial,num_items,zn7si1,1.0,response,1_ITEM,1689.5,1682.8999999999942,1689.5,1689.5,1682.8999999999942,1689.5,1.0,0.0,0.0,,Click Response,1_count,3.0,object-46,temp_dist_trial,13.0,t_i_14_1,travel_Iceland,snow pants,10.0,unique,paired,t_i_14_1.jpg,Travel,$${counterbalance_group},,sub-86
Desktop or Laptop,Windows 10,Chrome 130.0.0.0,1600x900,1600x731,Temporal Distance Task,cb_10,14.0,temp_dist_trial,num_items,zn7si1,1.0,response,1_ITEM,1146.399999976158,1133.1000000000058,1146.399999976158,1146.399999976158,1133.1000000000058,1146.399999976158,1.0,0.0,0.0,,Click Response,1_count,3.0,object-46,temp_dist_trial,14.0,t_s_19_1,travel_shared,pajamas,10.0,competing,single,t_s_19_1.jpg,Travel,$${counterbalance_group},,sub-86
Desktop or Laptop,Windows 10,Chrome 130.0.0.0,1600x900,1600x731,Temporal Distance Task,cb_10,15.0,temp_dist_trial,num_items,zn7si1,1.0,response,2_ITEM,1407.2999999761525,1399.7999999999884,1407.2999999761525,1407.2999999761525,1399.7999999999884,1407.2999999761525,1.0,0.0,0.0,,Click Response,2_count,5.0,object-49,temp_dist_trial,15.0,t_s_21_1,travel_shared,umbrella,10.0,competing,paired,t_s_21_1.jpg,Travel,$${counterbalance_group},,sub-86
Desktop or Laptop,Windows 10,Chrome 130.0.0.0,1600x900,1600x731,Temporal Distance Task,cb_10,15.0,temp_dist_trial,dist_items,qkpkxw,2.0,info,,14.6999999761465,0.0,14.6999999761465,14.6999999761465,0.0,14.6999999761465,1.0,0.0,0.0,,Slider,Slider,4.0,object-56,temp_dist_trial,15.0,t_s_21_1,travel_shared,umbrella,10.0,competing,paired,t_s_21_1.jpg,Travel,$${counterbalance_group},,sub-86
Desktop or Laptop,Windows 10,Chrome 130.0.0.0,1600x900,1600x731,Temporal Distance Task,cb_10,15.0,temp_dist_trial,dist_items,qkpkxw,2.0,continue,,2561.599999952305,2551.0,2561.599999952305,2561.599999952305,2551.0,2561.599999952305,1.0,0.0,0.0,,Click To Continue,Next button,7.0,object-60,temp_dist_trial,15.0,t_s_21_1,travel_shared,umbrella,10.0,competing,paired,t_s_21_1.jpg,Travel,$${counterbalance_group},,sub-86
Desktop or Laptop,Windows 10,Chrome 130.0.0.0,1600x900,1600x731,Temporal Distance Task,cb_10,15.0,temp_dist_trial,dist_items,qkpkxw,2.0,response,45,983.7999999999884,2551.0,2564.399999904621,983.7999999999884,2551.0,2564.399999904621,1.0,1580.5999999046326,0.0,,Slider,Slider,4.0,object-56,temp_dist_trial,15.0,t_s_21_1,travel_shared,umbrella,10.0,competing,paired,t_s_21_1.jpg,Travel,$${counterbalance_group},,sub-86
Desktop or Laptop,Windows 10,Chrome 130.0.0.0,1600x900,1600x731,Temporal Distance Task,cb_10,16.0,temp_dist_trial,num_items,zn7si1,1.0,response,2_ITEM,1749.5999999999767,1732.6999999999825,1749.5999999999767,1749.5999999999767,1732.6999999999825,1749.5999999999767,1.0,0.0,0.0,,Click Response,2_count,5.0,object-49,temp_dist_trial,16.0,t_i_04_1,travel_Iceland,portable camping stove,10.0,unique,paired,t_i_04_1.jpg,Travel,$${counterbalance_group},,sub-86
Desktop or Laptop,Windows 10,Chrome 130.0.0.0,1600x900,1600x731,Temporal Distance Task,cb_10,16.0,temp_dist_trial,dist_items,qkpkxw,2.0,info,,16.60000000000582,0.0,16.60000000000582,16.60000000000582,0.0,16.60000000000582,1.0,0.0,0.0,,Slider,Slider,4.0,object-56,temp_dist_trial,16.0,t_i_04_1,travel_Iceland,portable camping stove,10.0,unique,paired,t_i_04_1.jpg,Travel,$${counterbalance_group},,sub-86
Desktop or Laptop,Windows 10,Chrome 130.0.0.0,1600x900,1600x731,Temporal Distance Task,cb_10,16.0,temp_dist_trial,dist_items,qkpkxw,2.0,continue,,4050.6000000000067,4033.8999999999933,4050.6000000000067,4050.6000000000067,4033.8999999999933,4050.6000000000067,1.0,0.0,0.0,,Click To Continue,Next button,7.0,object-60,temp_dist_trial,16.0,t_i_04_1,travel_Iceland,portable camping stove,10.0,unique,paired,t_i_04_1.jpg,Travel,$${counterbalance_group},,sub-86
Desktop or Laptop,Windows 10,Chrome 130.0.0.0,1600x900,1600x731,Temporal Distance Task,cb_10,16.0,temp_dist_trial,dist_items,qkpkxw,2.0,response,49,1200.5,4033.8999999999933,4050.6000000000067,1200.5,4033.8999999999933,4050.6000000000067,1.0,2850.1000000000067,0.0,,Slider,Slider,4.0,object-56,temp_dist_trial,16.0,t_i_04_1,travel_Iceland,portable camping stove,10.0,unique,paired,t_i_04_1.jpg,Travel,$${counterbalance_group},,sub-86
Desktop or Laptop,Windows 10,Chrome 130.0.0.0,1600x900,1600x731,Temporal Distance Task,cb_10,17.0,temp_dist_trial,num_items,zn7si1,1.0,response,1_ITEM,1880.7999999523165,1866.1000000000056,1880.7999999523165,1880.7999999523165,1866.1000000000056,1880.7999999523165,1.0,0.0,0.0,,Click Response,1_count,3.0,object-46,temp_dist_trial,17.0,t_i_18_1,travel_Iceland,ski mask,10.0,unique,paired,t_i_18_1.jpg,Travel,$${counterbalance_group},,sub-86
Desktop or Laptop,Windows 10,Chrome 130.0.0.0,1600x900,1600x731,Temporal Distance Task,cb_10,18.0,temp_dist_trial,num_items,zn7si1,1.0,response,2_ITEM,1397.0999999523044,1383.3999999999942,1397.0999999523044,1397.0999999523044,1383.3999999999942,1397.0999999523044,1.0,0.0,0.0,,Click Response,2_count,5.0,object-49,temp_dist_trial,18.0,t_i_19_1,travel_Iceland,rope,10.0,unique,paired,t_i_19_1.jpg,Travel,$${counterbalance_group},,sub-86
Desktop or Laptop,Windows 10,Chrome 130.0.0.0,1600x900,1600x731,Temporal Distance Task,cb_10,18.0,temp_dist_trial,dist_items,qkpkxw,2.0,info,,13.999999928462785,0.0,13.999999928462785,13.999999928462785,0.0,13.999999928462785,1.0,0.0,0.0,,Slider,Slider,4.0,object-56,temp_dist_trial,18.0,t_i_19_1,travel_Iceland,rope,10.0,unique,paired,t_i_19_1.jpg,Travel,$${counterbalance_group},,sub-86
Desktop or Laptop,Windows 10,Chrome 130.0.0.0,1600x900,1600x731,Temporal Distance Task,cb_10,18.0,temp_dist_trial,dist_items,qkpkxw,2.0,continue,,6009.2999999999865,6000.399999999994,6009.2999999999865,6009.2999999999865,6000.399999999994,6009.2999999999865,1.0,0.0,0.0,,Click To Continue,Next button,7.0,object-60,temp_dist_trial,18.0,t_i_19_1,travel_Iceland,rope,10.0,unique,paired,t_i_19_1.jpg,Travel,$${counterbalance_group},,sub-86
Desktop or Laptop,Windows 10,Chrome 130.0.0.0,1600x900,1600x731,Temporal Distance Task,cb_10,18.0,temp_dist_trial,dist_items,qkpkxw,2.0,response,53,916.8999999999942,6000.399999999994,6011.399999904622,916.8999999999942,6000.399999999994,6011.399999904622,1.0,5094.499999904627,0.0,,Slider,Slider,4.0,object-56,temp_dist_trial,18.0,t_i_19_1,travel_Iceland,rope,10.0,unique,paired,t_i_19_1.jpg,Travel,$${counterbalance_group},,sub-86
Desktop or Laptop,Windows 10,Chrome 130.0.0.0,1600x900,1600x731,Temporal Distance Task,cb_10,19.0,temp_dist_trial,num_items,zn7si1,1.0,response,1_ITEM,1525.2999999761525,1516.7999999999884,1525.2999999761525,1525.2999999761525,1516.7999999999884,1525.2999999761525,1.0,0.0,0.0,,Click Response,1_count,3.0,object-46,temp_dist_trial,19.0,t_s_01_1,travel_shared,fanny pack,10.0,competing,single,t_s_01_1.jpg,Travel,$${counterbalance_group},,sub-86
Desktop or Laptop,Windows 10,Chrome 130.0.0.0,1600x900,1600x731,Temporal Distance Task,cb_10,20.0,temp_dist_trial,num_items,zn7si1,1.0,response,1_ITEM,1664.1999999284744,1650.1000000000058,1664.1999999284744,1664.1999999284744,1650.1000000000058,1664.1999999284744,1.0,0.0,0.0,,Click Response,1_count,3.0,object-46,temp_dist_trial,20.0,t_m_19_1,travel_Miami,surfboard,10.0,unique,paired,t_m_19_1.jpg,Travel,$${counterbalance_group},,sub-86
Desktop or Laptop,Windows 10,Chrome 130.0.0.0,1600x900,1600x731,Temporal Distance Task,cb_10,21.0,temp_dist_trial,num_items,zn7si1,1.0,response,1_ITEM,1450.500000000029,1433.7000000000116,1450.500000000029,1450.500000000029,1433.7000000000116,1450.500000000029,1.0,0.0,0.0,,Click Response,1_count,3.0,object-46,temp_dist_trial,21.0,t_m_05_1,travel_Miami,sunscreen,10.0,unique,single,t_m_05_1.jpg,Travel,$${counterbalance_group},,sub-86
Desktop or Laptop,Windows 10,Chrome 130.0.0.0,1600x900,1600x731,Temporal Distance Task,cb_10,22.0,temp_dist_trial,num_items,zn7si1,1.0,response,2_ITEM,1606.0999999046326,1599.8999999999942,1606.0999999046326,1606.0999999046326,1599.8999999999942,1606.0999999046326,1.0,0.0,0.0,,Click Response,2_count,5.0,object-49,temp_dist_trial,22.0,t_s_16_1,travel_shared,chapstick,10.0,competing,paired,t_s_16_1.jpg,Travel,$${counterbalance_group},,sub-86
Desktop or Laptop,Windows 10,Chrome 130.0.0.0,1600x900,1600x731,Temporal Distance Task,cb_10,22.0,temp_dist_trial,dist_items,qkpkxw,2.0,info,,16.599999999976713,0.0,16.599999999976713,16.599999999976713,0.0,16.599999999976713,1.0,0.0,0.0,,Slider,Slider,4.0,object-56,temp_dist_trial,22.0,t_s_16_1,travel_shared,chapstick,10.0,competing,paired,t_s_16_1.jpg,Travel,$${counterbalance_group},,sub-86
Desktop or Laptop,Windows 10,Chrome 130.0.0.0,1600x900,1600x731,Temporal Distance Task,cb_10,22.0,temp_dist_trial,dist_items,qkpkxw,2.0,response,dist_miss,6999.900000000023,6999.900000000023,6999.900000000023,6999.900000000023,6999.900000000023,6999.900000000023,1.0,0.0,0.0,dist_miss_tag,Time Limit,screen,0.0,screen,temp_dist_trial,22.0,t_s_16_1,travel_shared,chapstick,10.0,competing,paired,t_s_16_1.jpg,Travel,$${counterbalance_group},,sub-86
Desktop or Laptop,Windows 10,Chrome 130.0.0.0,1600x900,1600x731,Temporal Distance Task,cb_10,22.0,temp_dist_trial,dist_items,qkpkxw,2.0,response,,7004.299999904643,6999.900000000023,7004.299999904643,7004.299999904643,6999.900000000023,7004.299999904643,1.0,0.0,0.0,,Slider,Slider,4.0,object-56,temp_dist_trial,22.0,t_s_16_1,travel_shared,chapstick,10.0,competing,paired,t_s_16_1.jpg,Travel,$${counterbalance_group},,sub-86
Desktop or Laptop,Windows 10,Chrome 130.0.0.0,1600x900,1600x731,Temporal Distance Task,cb_10,23.0,temp_dist_trial,num_items,zn7si1,1.0,response,2_ITEM,2145.4999999284632,2134.0,2145.4999999284632,2145.4999999284632,2134.0,2145.4999999284632,1.0,0.0,0.0,,Click Response,2_count,5.0,object-49,temp_dist_trial,23.0,t_s_05_1,travel_shared,neck pillow,10.0,competing,paired,t_s_05_1.jpg,Travel,$${counterbalance_group},,sub-86
Desktop or Laptop,Windows 10,Chrome 130.0.0.0,1600x900,1600x731,Temporal Distance Task,cb_10,23.0,temp_dist_trial,dist_items,qkpkxw,2.0,info,,16.700000000011638,0.0,16.700000000011638,16.700000000011638,0.0,16.700000000011638,1.0,0.0,0.0,,Slider,Slider,4.0,object-56,temp_dist_trial,23.0,t_s_05_1,travel_shared,neck pillow,10.0,competing,paired,t_s_05_1.jpg,Travel,$${counterbalance_group},,sub-86
Desktop or Laptop,Windows 10,Chrome 130.0.0.0,1600x900,1600x731,Temporal Distance Task,cb_10,23.0,temp_dist_trial,dist_items,qkpkxw,2.0,continue,,2372.899999976158,2366.2999999999884,2372.899999976158,2372.899999976158,2366.2999999999884,2372.899999976158,1.0,0.0,0.0,,Click To Continue,Next button,7.0,object-60,temp_dist_trial,23.0,t_s_05_1,travel_shared,neck pillow,10.0,competing,paired,t_s_05_1.jpg,Travel,$${counterbalance_group},,sub-86
Desktop or Laptop,Windows 10,Chrome 130.0.0.0,1600x900,1600x731,Temporal Distance Task,cb_10,23.0,temp_dist_trial,dist_items,qkpkxw,2.0,response,35,1216.2000000000114,2366.2999999999884,2373.399999976158,1216.2000000000114,2366.2999999999884,2373.399999976158,1.0,1157.1999999761465,0.0,,Slider,Slider,4.0,object-56,temp_dist_trial,23.0,t_s_05_1,travel_shared,neck pillow,10.0,competing,paired,t_s_05_1.jpg,Travel,$${counterbalance_group},,sub-86
Desktop or Laptop,Windows 10,Chrome 130.0.0.0,1600x900,1600x731,Temporal Distance Task,cb_10,24.0,temp_dist_trial,num_items,zn7si1,1.0,response,2_ITEM,1481.7999999046442,1466.6000000000058,1481.7999999046442,1481.7999999046442,1466.6000000000058,1481.7999999046442,1.0,0.0,0.0,,Click Response,2_count,5.0,object-49,temp_dist_trial,24.0,t_s_02_1,travel_shared,water bottle,10.0,competing,paired,t_s_02_1.jpg,Travel,$${counterbalance_group},,sub-86
Desktop or Laptop,Windows 10,Chrome 130.0.0.0,1600x900,1600x731,Temporal Distance Task,cb_10,24.0,temp_dist_trial,dist_items,qkpkxw,2.0,info,,6.499999976163963,0.0,6.499999976163963,6.499999976163963,0.0,6.499999976163963,1.0,0.0,0.0,,Slider,Slider,4.0,object-56,temp_dist_trial,24.0,t_s_02_1,travel_shared,water bottle,10.0,competing,paired,t_s_02_1.jpg,Travel,$${counterbalance_group},,sub-86
Desktop or Laptop,Windows 10,Chrome 130.0.0.0,1600x900,1600x731,Temporal Distance Task,cb_10,24.0,temp_dist_trial,dist_items,qkpkxw,2.0,continue,,2757.499999976164,2751.300000000017,2757.499999976164,2757.499999976164,2751.300000000017,2757.499999976164,1.0,0.0,0.0,,Click To Continue,Next button,7.0,object-60,temp_dist_trial,24.0,t_s_02_1,travel_shared,water bottle,10.0,competing,paired,t_s_02_1.jpg,Travel,$${counterbalance_group},,sub-86
Desktop or Laptop,Windows 10,Chrome 130.0.0.0,1600x900,1600x731,Temporal Distance Task,cb_10,24.0,temp_dist_trial,dist_items,qkpkxw,2.0,response,42,1433.3000000000175,2751.300000000017,2759.999999976164,1433.3000000000175,2751.300000000017,2759.999999976164,1.0,1326.6999999761465,0.0,,Slider,Slider,4.0,object-56,temp_dist_trial,24.0,t_s_02_1,travel_shared,water bottle,10.0,competing,paired,t_s_02_1.jpg,Travel,$${counterbalance_group},,sub-86
Desktop or Laptop,Windows 10,Chrome 130.0.0.0,1600x900,1600x731,Temporal Distance Task,cb_10,25.0,temp_dist_trial,num_items,zn7si1,1.0,response,2_ITEM,1597.1999999761465,1582.0999999999767,1597.1999999761465,1597.1999999761465,1582.0999999999767,1597.1999999761465,1.0,0.0,0.0,,Click Response,2_count,5.0,object-49,temp_dist_trial,25.0,t_m_08_1,travel_Miami,flipflops,10.0,unique,paired,t_m_08_1.jpg,Travel,$${counterbalance_group},,sub-86
Desktop or Laptop,Windows 10,Chrome 130.0.0.0,1600x900,1600x731,Temporal Distance Task,cb_10,25.0,temp_dist_trial,dist_items,qkpkxw,2.0,info,,15.700000000011642,0.0,15.700000000011642,15.700000000011642,0.0,15.700000000011642,1.0,0.0,0.0,,Slider,Slider,4.0,object-56,temp_dist_trial,25.0,t_m_08_1,travel_Miami,flipflops,10.0,unique,paired,t_m_08_1.jpg,Travel,$${counterbalance_group},,sub-86
Desktop or Laptop,Windows 10,Chrome 130.0.0.0,1600x900,1600x731,Temporal Distance Task,cb_10,25.0,temp_dist_trial,dist_items,qkpkxw,2.0,continue,,2012.599999976169,2000.2000000000119,2012.599999976169,2012.599999976169,2000.2000000000119,2012.599999976169,1.0,0.0,0.0,,Click To Continue,Next button,7.0,object-60,temp_dist_trial,25.0,t_m_08_1,travel_Miami,flipflops,10.0,unique,paired,t_m_08_1.jpg,Travel,$${counterbalance_group},,sub-86
Desktop or Laptop,Windows 10,Chrome 130.0.0.0,1600x900,1600x731,Temporal Distance Task,cb_10,25.0,temp_dist_trial,dist_items,qkpkxw,2.0,response,20,883.8000000000177,2000.2000000000119,2014.499999952328,883.8000000000177,2000.2000000000119,2014.499999952328,1.0,1130.6999999523105,0.0,,Slider,Slider,4.0,object-56,temp_dist_trial,25.0,t_m_08_1,travel_Miami,flipflops,10.0,unique,paired,t_m_08_1.jpg,Travel,$${counterbalance_group},,sub-86
Desktop or Laptop,Windows 10,Chrome 130.0.0.0,1600x900,1600x731,Temporal Distance Task,cb_10,26.0,temp_dist_trial,num_items,zn7si1,1.0,response,2_ITEM,1533.9000000000233,1517.1000000000058,1533.9000000000233,1533.9000000000233,1517.1000000000058,1533.9000000000233,1.0,0.0,0.0,,Click Response,2_count,5.0,object-49,temp_dist_trial,26.0,t_s_06_1,travel_shared,luggage,10.0,competing,paired,t_s_06_1.jpg,Travel,$${counterbalance_group},,sub-86
Desktop or Laptop,Windows 10,Chrome 130.0.0.0,1600x900,1600x731,Temporal Distance Task,cb_10,26.0,temp_dist_trial,dist_items,qkpkxw,2.0,info,,16.700000000011638,0.0,16.700000000011638,16.700000000011638,0.0,16.700000000011638,1.0,0.0,0.0,,Slider,Slider,4.0,object-56,temp_dist_trial,26.0,t_s_06_1,travel_shared,luggage,10.0,competing,paired,t_s_06_1.jpg,Travel,$${counterbalance_group},,sub-86
Desktop or Laptop,Windows 10,Chrome 130.0.0.0,1600x900,1600x731,Temporal Distance Task,cb_10,26.0,temp_dist_trial,dist_items,qkpkxw,2.0,continue,,2459.299999976153,2450.1000000000063,2459.299999976153,2459.299999976153,2450.1000000000063,2459.299999976153,1.0,0.0,0.0,,Click To Continue,Next button,7.0,object-60,temp_dist_trial,26.0,t_s_06_1,travel_shared,luggage,10.0,competing,paired,t_s_06_1.jpg,Travel,$${counterbalance_group},,sub-86
Desktop or Laptop,Windows 10,Chrome 130.0.0.0,1600x900,1600x731,Temporal Distance Task,cb_10,26.0,temp_dist_trial,dist_items,qkpkxw,2.0,response,43,1351.0,2450.1000000000063,2460.999999904627,1351.0,2450.1000000000063,2460.999999904627,1.0,1109.9999999046267,0.0,,Slider,Slider,4.0,object-56,temp_dist_trial,26.0,t_s_06_1,travel_shared,luggage,10.0,competing,paired,t_s_06_1.jpg,Travel,$${counterbalance_group},,sub-86
Desktop or Laptop,Windows 10,Chrome 130.0.0.0,1600x900,1600x731,Temporal Distance Task,cb_10,27.0,temp_dist_trial,num_items,zn7si1,1.0,response,1_ITEM,2309.599999952305,2299.7999999999884,2309.599999952305,2309.599999952305,2299.7999999999884,2309.599999952305,1.0,0.0,0.0,,Click Response,1_count,3.0,object-46,temp_dist_trial,27.0,t_s_20_1,travel_shared,travel pill case,10.0,competing,paired,t_s_20_1.jpg,Travel,$${counterbalance_group},,sub-86
Desktop or Laptop,Windows 10,Chrome 130.0.0.0,1600x900,1600x731,Temporal Distance Task,cb_10,28.0,temp_dist_trial,num_items,zn7si1,1.0,response,2_ITEM,1333.4000000000233,1316.7000000000114,1333.4000000000233,1333.4000000000233,1316.7000000000114,1333.4000000000233,1.0,0.0,0.0,,Click Response,2_count,5.0,object-49,temp_dist_trial,28.0,t_i_08_1,travel_Iceland,thick socks,10.0,unique,paired,t_i_08_1.jpg,Travel,$${counterbalance_group},,sub-86
Desktop or Laptop,Windows 10,Chrome 130.0.0.0,1600x900,1600x731,Temporal Distance Task,cb_10,28.0,temp_dist_trial,dist_items,qkpkxw,2.0,info,,10.899999999994181,0.0,10.899999999994181,10.899999999994181,0.0,10.899999999994181,1.0,0.0,0.0,,Slider,Slider,4.0,object-56,temp_dist_trial,28.0,t_i_08_1,travel_Iceland,thick socks,10.0,unique,paired,t_i_08_1.jpg,Travel,$${counterbalance_group},,sub-86
Desktop or Laptop,Windows 10,Chrome 130.0.0.0,1600x900,1600x731,Temporal Distance Task,cb_10,28.0,temp_dist_trial,dist_items,qkpkxw,2.0,continue,,3229.3999999999933,3216.699999999982,3229.3999999999933,3229.3999999999933,3216.699999999982,3229.3999999999933,1.0,0.0,0.0,,Click To Continue,Next button,7.0,object-60,temp_dist_trial,28.0,t_i_08_1,travel_Iceland,thick socks,10.0,unique,paired,t_i_08_1.jpg,Travel,$${counterbalance_group},,sub-86
Desktop or Laptop,Windows 10,Chrome 130.0.0.0,1600x900,1600x731,Temporal Distance Task,cb_10,28.0,temp_dist_trial,dist_items,qkpkxw,2.0,response,50,1033.6999999999823,3216.699999999982,3231.099999928469,1033.6999999999823,3216.699999999982,3231.099999928469,1.0,2197.399999928486,0.0,,Slider,Slider,4.0,object-56,temp_dist_trial,28.0,t_i_08_1,travel_Iceland,thick socks,10.0,unique,paired,t_i_08_1.jpg,Travel,$${counterbalance_group},,sub-86
Desktop or Laptop,Windows 10,Chrome 130.0.0.0,1600x900,1600x731,Temporal Distance Task,cb_10,29.0,temp_dist_trial,num_items,zn7si1,1.0,response,1_ITEM,1761.499999952328,1749.5,1761.499999952328,1761.499999952328,1749.5,1761.499999952328,1.0,0.0,0.0,,Click Response,1_count,3.0,object-46,temp_dist_trial,29.0,t_s_11_1,travel_shared,eye mask,10.0,competing,paired,t_s_11_1.jpg,Travel,$${counterbalance_group},,sub-86
Desktop or Laptop,Windows 10,Chrome 130.0.0.0,1600x900,1600x731,Temporal Distance Task,cb_10,30.0,temp_dist_trial,num_items,zn7si1,1.0,response,2_ITEM,1241.499999952328,1233.6000000000058,1241.499999952328,1241.499999952328,1233.6000000000058,1241.499999952328,1.0,0.0,0.0,,Click Response,2_count,5.0,object-49,temp_dist_trial,30.0,t_s_14_1,travel_shared,hand sanitizer,10.0,competing,paired,t_s_14_1.jpg,Travel,$${counterbalance_group},,sub-86
Desktop or Laptop,Windows 10,Chrome 130.0.0.0,1600x900,1600x731,Temporal Distance Task,cb_10,30.0,temp_dist_trial,dist_items,qkpkxw,2.0,info,,16.5,0.0,16.5,16.5,0.0,16.5,1.0,0.0,0.0,,Slider,Slider,4.0,object-56,temp_dist_trial,30.0,t_s_14_1,travel_shared,hand sanitizer,10.0,competing,paired,t_s_14_1.jpg,Travel,$${counterbalance_group},,sub-86
Desktop or Laptop,Windows 10,Chrome 130.0.0.0,1600x900,1600x731,Temporal Distance Task,cb_10,30.0,temp_dist_trial,dist_items,qkpkxw,2.0,continue,,3050.399999999965,3033.699999999982,3050.399999999965,3050.399999999965,3033.699999999982,3050.399999999965,1.0,0.0,0.0,,Click To Continue,Next button,7.0,object-60,temp_dist_trial,30.0,t_s_14_1,travel_shared,hand sanitizer,10.0,competing,paired,t_s_14_1.jpg,Travel,$${counterbalance_group},,sub-86
Desktop or Laptop,Windows 10,Chrome 130.0.0.0,1600x900,1600x731,Temporal Distance Task,cb_10,30.0,temp_dist_trial,dist_items,qkpkxw,2.0,response,54,1484.0,3033.699999999982,3050.399999999965,1484.0,3033.699999999982,3050.399999999965,1.0,1566.3999999999646,0.0,,Slider,Slider,4.0,object-56,temp_dist_trial,30.0,t_s_14_1,travel_shared,hand sanitizer,10.0,competing,paired,t_s_14_1.jpg,Travel,$${counterbalance_group},,sub-86
Desktop or Laptop,Windows 10,Chrome 130.0.0.0,1600x900,1600x731,Temporal Distance Task,cb_10,31.0,temp_dist_trial,num_items,zn7si1,1.0,response,1_ITEM,1483.5,1467.0,1483.5,1483.5,1467.0,1483.5,1.0,0.0,0.0,,Click Response,1_count,3.0,object-46,temp_dist_trial,31.0,t_s_22_1,travel_shared,belt,10.0,competing,paired,t_s_22_1.jpg,Travel,$${counterbalance_group},,sub-86
Desktop or Laptop,Windows 10,Chrome 130.0.0.0,1600x900,1600x731,Temporal Distance Task,cb_10,32.0,temp_dist_trial,num_items,zn7si1,1.0,response,1_ITEM,1664.5999999284686,1649.7999999999884,1664.5999999284686,1664.5999999284686,1649.7999999999884,1664.5999999284686,1.0,0.0,0.0,,Click Response,1_count,3.0,object-46,temp_dist_trial,32.0,t_i_20_1,travel_Iceland,lantern,10.0,unique,paired,t_i_20_1.jpg,Travel,$${counterbalance_group},,sub-86
Desktop or Laptop,Windows 10,Chrome 130.0.0.0,1600x900,1600x731,Temporal Distance Task,cb_10,33.0,temp_dist_trial,num_items,zn7si1,1.0,response,1_ITEM,1223.7999999999886,1216.0,1223.7999999999886,1223.7999999999886,1216.0,1223.7999999999886,1.0,0.0,0.0,,Click Response,1_count,3.0,object-46,temp_dist_trial,33.0,t_s_10_1,travel_shared,luggage lock,10.0,competing,single,t_s_10_1.jpg,Travel,$${counterbalance_group},,sub-86
Desktop or Laptop,Windows 10,Chrome 130.0.0.0,1600x900,1600x731,Temporal Distance Task,cb_10,34.0,temp_dist_trial,num_items,zn7si1,1.0,response,1_ITEM,1128.7999999284802,1116.8999999999942,1128.7999999284802,1128.7999999284802,1116.8999999999942,1128.7999999284802,1.0,0.0,0.0,,Click Response,1_count,3.0,object-46,temp_dist_trial,34.0,t_s_13_1,travel_shared,contact lens case,10.0,competing,single,t_s_13_1.jpg,Travel,$${counterbalance_group},,sub-86
Desktop or Laptop,Windows 10,Chrome 130.0.0.0,1600x900,1600x731,Temporal Distance Task,cb_10,35.0,temp_dist_trial,num_items,zn7si1,1.0,response,2_ITEM,1399.999999999971,1383.2999999999884,1399.999999999971,1399.999999999971,1383.2999999999884,1399.999999999971,1.0,0.0,0.0,,Click Response,2_count,5.0,object-49,temp_dist_trial,35.0,t_s_08_1,travel_shared,hand lotion,10.0,competing,paired,t_s_08_1.jpg,Travel,$${counterbalance_group},,sub-86
Desktop or Laptop,Windows 10,Chrome 130.0.0.0,1600x900,1600x731,Temporal Distance Task,cb_10,35.0,temp_dist_trial,dist_items,qkpkxw,2.0,info,,16.89999999999418,0.0,16.89999999999418,16.89999999999418,0.0,16.89999999999418,1.0,0.0,0.0,,Slider,Slider,4.0,object-56,temp_dist_trial,35.0,t_s_08_1,travel_shared,hand lotion,10.0,competing,paired,t_s_08_1.jpg,Travel,$${counterbalance_group},,sub-86
Desktop or Laptop,Windows 10,Chrome 130.0.0.0,1600x900,1600x731,Temporal Distance Task,cb_10,35.0,temp_dist_trial,dist_items,qkpkxw,2.0,continue,,2982.2999999999884,2965.6000000000067,2982.2999999999884,2982.2999999999884,2965.6000000000067,2982.2999999999884,1.0,0.0,0.0,,Click To Continue,Next button,7.0,object-60,temp_dist_trial,35.0,t_s_08_1,travel_shared,hand lotion,10.0,competing,paired,t_s_08_1.jpg,Travel,$${counterbalance_group},,sub-86
Desktop or Laptop,Windows 10,Chrome 130.0.0.0,1600x900,1600x731,Temporal Distance Task,cb_10,35.0,temp_dist_trial,dist_items,qkpkxw,2.0,response,38,982.5,2965.6000000000067,2982.2999999999884,982.5,2965.6000000000067,2982.2999999999884,1.0,1999.7999999999884,0.0,,Slider,Slider,4.0,object-56,temp_dist_trial,35.0,t_s_08_1,travel_shared,hand lotion,10.0,competing,paired,t_s_08_1.jpg,Travel,$${counterbalance_group},,sub-86
Desktop or Laptop,Windows 10,Chrome 130.0.0.0,1600x900,1600x731,Temporal Distance Task,cb_10,36.0,temp_dist_trial,num_items,zn7si1,1.0,response,1_ITEM,2375.899999952322,2367.300000000017,2375.899999952322,2375.899999952322,2367.300000000017,2375.899999952322,1.0,0.0,0.0,,Click Response,1_count,3.0,object-46,temp_dist_trial,36.0,t_s_07_1,travel_shared,phone charger cable,10.0,competing,paired,t_s_07_1.jpg,Travel,$${counterbalance_group},,sub-86
Desktop or Laptop,Windows 10,Chrome 130.0.0.0,1600x900,1600x731,Temporal Distance Task,cb_10,37.0,temp_dist_trial,num_items,zn7si1,1.0,response,2_ITEM,1698.6999999523105,1683.2999999999884,1698.6999999523105,1698.6999999523105,1683.2999999999884,1698.6999999523105,1.0,0.0,0.0,,Click Response,2_count,5.0,object-49,temp_dist_trial,37.0,t_m_06_1,travel_Miami,handheld fan,10.0,unique,paired,t_m_06_1.jpg,Travel,$${counterbalance_group},,sub-86
Desktop or Laptop,Windows 10,Chrome 130.0.0.0,1600x900,1600x731,Temporal Distance Task,cb_10,37.0,temp_dist_trial,dist_items,qkpkxw,2.0,info,,6.199999904638388,0.0,6.199999904638388,6.199999904638388,0.0,6.199999904638388,1.0,0.0,0.0,,Slider,Slider,4.0,object-56,temp_dist_trial,37.0,t_m_06_1,travel_Miami,handheld fan,10.0,unique,paired,t_m_06_1.jpg,Travel,$${counterbalance_group},,sub-86
Desktop or Laptop,Windows 10,Chrome 130.0.0.0,1600x900,1600x731,Temporal Distance Task,cb_10,37.0,temp_dist_trial,dist_items,qkpkxw,2.0,continue,,2205.499999976164,2200.0,2205.499999976164,2205.499999976164,2200.0,2205.499999976164,1.0,0.0,0.0,,Click To Continue,Next button,7.0,object-60,temp_dist_trial,37.0,t_m_06_1,travel_Miami,handheld fan,10.0,unique,paired,t_m_06_1.jpg,Travel,$${counterbalance_group},,sub-86
Desktop or Laptop,Windows 10,Chrome 130.0.0.0,1600x900,1600x731,Temporal Distance Task,cb_10,37.0,temp_dist_trial,dist_items,qkpkxw,2.0,response,52,966.7000000000116,2200.0,2206.1000000000063,966.7000000000116,2200.0,2206.1000000000063,1.0,1239.3999999999942,0.0,,Slider,Slider,4.0,object-56,temp_dist_trial,37.0,t_m_06_1,travel_Miami,handheld fan,10.0,unique,paired,t_m_06_1.jpg,Travel,$${counterbalance_group},,sub-86
Desktop or Laptop,Windows 10,Chrome 130.0.0.0,1600x900,1600x731,Temporal Distance Task,cb_10,38.0,temp_dist_trial,num_items,zn7si1,1.0,response,1_ITEM,2908.3999999523217,2900.1000000000067,2908.3999999523217,2908.3999999523217,2900.1000000000067,2908.3999999523217,1.0,0.0,0.0,,Click Response,1_count,3.0,object-46,temp_dist_trial,38.0,t_s_18_1,travel_shared,first aid kit,10.0,competing,paired,t_s_18_1.jpg,Travel,$${counterbalance_group},,sub-86
Desktop or Laptop,Windows 10,Chrome 130.0.0.0,1600x900,1600x731,Temporal Distance Task,cb_10,39.0,temp_dist_trial,num_items,zn7si1,1.0,response,1_ITEM,1383.0999999046326,1366.5,1383.0999999046326,1383.0999999046326,1366.5,1383.0999999046326,1.0,0.0,0.0,,Click Response,1_count,3.0,object-46,temp_dist_trial,39.0,t_s_09_1,travel_shared,wallet,10.0,competing,paired,t_s_09_1.jpg,Travel,$${counterbalance_group},,sub-86
Desktop or Laptop,Windows 10,Chrome 130.0.0.0,1600x900,1600x731,Temporal Distance Task,cb_10,40.0,temp_dist_trial,num_items,zn7si1,1.0,response,2_ITEM,1606.6999999523105,1599.8999999999942,1606.6999999523105,1606.6999999523105,1599.8999999999942,1606.6999999523105,1.0,0.0,0.0,,Click Response,2_count,5.0,object-49,temp_dist_trial,40.0,t_s_03_1,travel_shared,portable charger,10.0,competing,paired,t_s_03_1.jpg,Travel,$${counterbalance_group},,sub-86
Desktop or Laptop,Windows 10,Chrome 130.0.0.0,1600x900,1600x731,Temporal Distance Task,cb_10,40.0,temp_dist_trial,dist_items,qkpkxw,2.0,info,,8.399999976158142,0.0,8.399999976158142,8.399999976158142,0.0,8.399999976158142,1.0,0.0,0.0,,Slider,Slider,4.0,object-56,temp_dist_trial,40.0,t_s_03_1,travel_shared,portable charger,10.0,competing,paired,t_s_03_1.jpg,Travel,$${counterbalance_group},,sub-86
Desktop or Laptop,Windows 10,Chrome 130.0.0.0,1600x900,1600x731,Temporal Distance Task,cb_10,40.0,temp_dist_trial,dist_items,qkpkxw,2.0,continue,,2232.6999999284744,2216.700000000012,2232.6999999284744,2232.6999999284744,2216.700000000012,2232.6999999284744,1.0,0.0,0.0,,Click To Continue,Next button,7.0,object-60,temp_dist_trial,40.0,t_s_03_1,travel_shared,portable charger,10.0,competing,paired,t_s_03_1.jpg,Travel,$${counterbalance_group},,sub-86
Desktop or Laptop,Windows 10,Chrome 130.0.0.0,1600x900,1600x731,Temporal Distance Task,cb_10,40.0,temp_dist_trial,dist_items,qkpkxw,2.0,response,46,1000.0,2216.700000000012,2233.2999999523167,1000.0,2216.700000000012,2233.2999999523167,1.0,1233.2999999523165,0.0,,Slider,Slider,4.0,object-56,temp_dist_trial,40.0,t_s_03_1,travel_shared,portable charger,10.0,competing,paired,t_s_03_1.jpg,Travel,$${counterbalance_group},,sub-86
Desktop or Laptop,Windows 10,Chrome 130.0.0.0,1600x900,1600x731,Temporal Distance Task,cb_10,41.0,temp_dist_trial,num_items,zn7si1,1.0,response,1_ITEM,1359.5999999523046,1350.0999999999767,1359.5999999523046,1359.5999999523046,1350.0999999999767,1359.5999999523046,1.0,0.0,0.0,,Click Response,1_count,3.0,object-46,temp_dist_trial,41.0,t_s_23_1,travel_shared,ball cap,10.0,competing,single,t_s_23_1.jpg,Travel,$${counterbalance_group},,sub-86
Desktop or Laptop,Windows 10,Chrome 130.0.0.0,1600x900,1600x731,Temporal Distance Task,cb_10,42.0,temp_dist_trial,num_items,zn7si1,1.0,response,2_ITEM,1155.499999952328,1149.9000000000233,1155.499999952328,1155.499999952328,1149.9000000000233,1155.499999952328,1.0,0.0,0.0,,Click Response,2_count,5.0,object-49,temp_dist_trial,42.0,t_m_03_1,travel_Miami,wetsuit,10.0,unique,paired,t_m_03_1.jpg,Travel,$${counterbalance_group},,sub-86
Desktop or Laptop,Windows 10,Chrome 130.0.0.0,1600x900,1600x731,Temporal Distance Task,cb_10,42.0,temp_dist_trial,dist_items,qkpkxw,2.0,info,,6.899999904620928,0.0,6.899999904620928,6.899999904620928,0.0,6.899999904620928,1.0,0.0,0.0,,Slider,Slider,4.0,object-56,temp_dist_trial,42.0,t_m_03_1,travel_Miami,wetsuit,10.0,unique,paired,t_m_03_1.jpg,Travel,$${counterbalance_group},,sub-86
Desktop or Laptop,Windows 10,Chrome 130.0.0.0,1600x900,1600x731,Temporal Distance Task,cb_10,42.0,temp_dist_trial,dist_items,qkpkxw,2.0,continue,,1961.399999904621,1950.5999999999767,1961.399999904621,1961.399999904621,1950.5999999999767,1961.399999904621,1.0,0.0,0.0,,Click To Continue,Next button,7.0,object-60,temp_dist_trial,42.0,t_m_03_1,travel_Miami,wetsuit,10.0,unique,paired,t_m_03_1.jpg,Travel,$${counterbalance_group},,sub-86
Desktop or Laptop,Windows 10,Chrome 130.0.0.0,1600x900,1600x731,Temporal Distance Task,cb_10,42.0,temp_dist_trial,dist_items,qkpkxw,2.0,response,51,633.3999999999943,1950.5999999999767,1964.0999999523046,633.3999999999943,1950.5999999999767,1964.0999999523046,1.0,1330.6999999523105,0.0,,Slider,Slider,4.0,object-56,temp_dist_trial,42.0,t_m_03_1,travel_Miami,wetsuit,10.0,unique,paired,t_m_03_1.jpg,Travel,$${counterbalance_group},,sub-86
Desktop or Laptop,Windows 10,Chrome 130.0.0.0,1600x900,1600x731,Temporal Distance Task,cb_10,43.0,temp_dist_trial,num_items,zn7si1,1.0,response,1_ITEM,1357.2000000000114,1349.4000000000233,1357.2000000000114,1357.2000000000114,1349.4000000000233,1357.2000000000114,1.0,0.0,0.0,,Click Response,1_count,3.0,object-46,temp_dist_trial,43.0,t_s_15_1,travel_shared,luggage tag,10.0,competing,single,t_s_15_1.jpg,Travel,$${counterbalance_group},,sub-86
Desktop or Laptop,Windows 10,Chrome 130.0.0.0,1600x900,1600x731,Temporal Distance Task,cb_10,44.0,temp_dist_trial,num_items,zn7si1,1.0,response,1_ITEM,1180.2999999999886,1166.6999999999825,1180.2999999999886,1180.2999999999886,1166.6999999999825,1180.2999999999886,1.0,0.0,0.0,,Click Response,1_count,3.0,object-46,temp_dist_trial,44.0,t_m_09_1,travel_Miami,beach towel,10.0,unique,single,t_m_09_1.jpg,Travel,$${counterbalance_group},,sub-86
Desktop or Laptop,Windows 10,Chrome 130.0.0.0,1600x900,1600x731,Temporal Distance Task,cb_10,45.0,temp_dist_trial,num_items,zn7si1,1.0,response,1_ITEM,1158.6000000000058,1150.0,1158.6000000000058,1158.6000000000058,1150.0,1158.6000000000058,1.0,0.0,0.0,,Click Response,1_count,3.0,object-46,temp_dist_trial,45.0,t_i_11_1,travel_Iceland,headlamp,10.0,unique,single,t_i_11_1.jpg,Travel,$${counterbalance_group},,sub-86
Desktop or Laptop,Windows 10,Chrome 130.0.0.0,1600x900,1600x731,Temporal Distance Task,cb_10,46.0,temp_dist_trial,num_items,zn7si1,1.0,response,2_ITEM,1729.1999999284744,1716.6000000000058,1729.1999999284744,1729.1999999284744,1716.6000000000058,1729.1999999284744,1.0,0.0,0.0,,Click Response,2_count,5.0,object-49,temp_dist_trial,46.0,t_m_16_1,travel_Miami,flippers,10.0,unique,paired,t_m_16_1.jpg,Travel,$${counterbalance_group},,sub-86
Desktop or Laptop,Windows 10,Chrome 130.0.0.0,1600x900,1600x731,Temporal Distance Task,cb_10,46.0,temp_dist_trial,dist_items,qkpkxw,2.0,info,,7.199999952310463,0.0,7.199999952310463,7.199999952310463,0.0,7.199999952310463,1.0,0.0,0.0,,Slider,Slider,4.0,object-56,temp_dist_trial,46.0,t_m_16_1,travel_Miami,flippers,10.0,unique,paired,t_m_16_1.jpg,Travel,$${counterbalance_group},,sub-86
Desktop or Laptop,Windows 10,Chrome 130.0.0.0,1600x900,1600x731,Temporal Distance Task,cb_10,46.0,temp_dist_trial,dist_items,qkpkxw,2.0,continue,,2068.8999999999937,2066.6000000000063,2068.8999999999937,2068.8999999999937,2066.6000000000063,2068.8999999999937,1.0,0.0,0.0,,Click To Continue,Next button,7.0,object-60,temp_dist_trial,46.0,t_m_16_1,travel_Miami,flippers,10.0,unique,paired,t_m_16_1.jpg,Travel,$${counterbalance_group},,sub-86
Desktop or Laptop,Windows 10,Chrome 130.0.0.0,1600x900,1600x731,Temporal Distance Task,cb_10,46.0,temp_dist_trial,dist_items,qkpkxw,2.0,response,65,800.0,2066.6000000000063,2069.6999999523105,800.0,2066.6000000000063,2069.6999999523105,1.0,1269.6999999523105,0.0,,Slider,Slider,4.0,object-56,temp_dist_trial,46.0,t_m_16_1,travel_Miami,flippers,10.0,unique,paired,t_m_16_1.jpg,Travel,$${counterbalance_group},,sub-86
Desktop or Laptop,Windows 10,Chrome 130.0.0.0,1600x900,1600x731,Temporal Distance Task,cb_10,47.0,temp_dist_trial,num_items,zn7si1,1.0,response,1_ITEM,1023.9999999284627,1016.6999999999823,1023.9999999284627,1023.9999999284627,1016.6999999999823,1023.9999999284627,1.0,0.0,0.0,,Click Response,1_count,3.0,object-46,temp_dist_trial,47.0,t_i_01_1,travel_Iceland,gloves,10.0,unique,single,t_i_01_1.jpg,Travel,$${counterbalance_group},,sub-86
Desktop or Laptop,Windows 10,Chrome 130.0.0.0,1600x900,1600x731,Temporal Distance Task,cb_10,48.0,temp_dist_trial,num_items,zn7si1,1.0,response,2_ITEM,1469.999999976164,1466.8000000000175,1469.999999976164,1469.999999976164,1466.8000000000175,1469.999999976164,1.0,0.0,0.0,,Click Response,2_count,5.0,object-49,temp_dist_trial,48.0,t_m_07_1,travel_Miami,sunglasses,10.0,unique,paired,t_m_07_1.jpg,Travel,$${counterbalance_group},,sub-86
Desktop or Laptop,Windows 10,Chrome 130.0.0.0,1600x900,1600x731,Temporal Distance Task,cb_10,48.0,temp_dist_trial,dist_items,qkpkxw,2.0,info,,8.799999952316282,0.0,8.799999952316282,8.799999952316282,0.0,8.799999952316282,1.0,0.0,0.0,,Slider,Slider,4.0,object-56,temp_dist_trial,48.0,t_m_07_1,travel_Miami,sunglasses,10.0,unique,paired,t_m_07_1.jpg,Travel,$${counterbalance_group},,sub-86
Desktop or Laptop,Windows 10,Chrome 130.0.0.0,1600x900,1600x731,Temporal Distance Task,cb_10,48.0,temp_dist_trial,dist_items,qkpkxw,2.0,continue,,2300.100000000035,2283.4000000000233,2300.100000000035,2300.100000000035,2283.4000000000233,2300.100000000035,1.0,0.0,0.0,,Click To Continue,Next button,7.0,object-60,temp_dist_trial,48.0,t_m_07_1,travel_Miami,sunglasses,10.0,unique,paired,t_m_07_1.jpg,Travel,$${counterbalance_group},,sub-86
Desktop or Laptop,Windows 10,Chrome 130.0.0.0,1600x900,1600x731,Temporal Distance Task,cb_10,48.0,temp_dist_trial,dist_items,qkpkxw,2.0,response,46,984.0,2283.4000000000233,2300.100000000035,984.0,2283.4000000000233,2300.100000000035,1.0,1316.100000000035,0.0,,Slider,Slider,4.0,object-56,temp_dist_trial,48.0,t_m_07_1,travel_Miami,sunglasses,10.0,unique,paired,t_m_07_1.jpg,Travel,$${counterbalance_group},,sub-86
Desktop or Laptop,Windows 10,Chrome 130.0.0.0,1600x900,1600x731,Temporal Distance Task,cb_10,2.0,temp_eventStart,Screen 1,dgtyxe,1.0,continue,,33323.39999995229,33316.899999999965,33323.39999995229,33323.39999995229,33316.899999999965,33323.39999995229,1.0,0.0,0.0,,Click To Continue,Next Button,3.0,object-43,temp_eventStart,,,Student,,,,,,,$${counterbalance_group},,sub-86
Desktop or Laptop,Windows 10,Chrome 130.0.0.0,1600x900,1600x731,Temporal Distance Task,cb_10,49.0,temp_dist_trial,num_items,zn7si1,1.0,response,2_ITEM,1660.999999952328,1650.7000000000116,1660.999999952328,1660.999999952328,1650.7000000000116,1660.999999952328,1.0,0.0,0.0,,Click Response,2_count,5.0,object-49,temp_dist_trial,1.0,s_sh_14_1,student_shared,printer,10.0,competing,paired,s_sh_14_1.jpg,Student,$${counterbalance_group},,sub-86
Desktop or Laptop,Windows 10,Chrome 130.0.0.0,1600x900,1600x731,Temporal Distance Task,cb_10,49.0,temp_dist_trial,dist_items,qkpkxw,2.0,info,,16.599999999976713,0.0,16.599999999976713,16.599999999976713,0.0,16.599999999976713,1.0,0.0,0.0,,Slider,Slider,4.0,object-56,temp_dist_trial,1.0,s_sh_14_1,student_shared,printer,10.0,competing,paired,s_sh_14_1.jpg,Student,$${counterbalance_group},,sub-86
Desktop or Laptop,Windows 10,Chrome 130.0.0.0,1600x900,1600x731,Temporal Distance Task,cb_10,49.0,temp_dist_trial,dist_items,qkpkxw,2.0,continue,,2427.999999952328,2416.4000000000233,2427.999999952328,2427.999999952328,2416.4000000000233,2427.999999952328,1.0,0.0,0.0,,Click To Continue,Next button,7.0,object-60,temp_dist_trial,1.0,s_sh_14_1,student_shared,printer,10.0,competing,paired,s_sh_14_1.jpg,Student,$${counterbalance_group},,sub-86
Desktop or Laptop,Windows 10,Chrome 130.0.0.0,1600x900,1600x731,Temporal Distance Task,cb_10,49.0,temp_dist_trial,dist_items,qkpkxw,2.0,response,55,1300.2000000000114,2416.4000000000233,2429.899999928486,1300.2000000000114,2416.4000000000233,2429.899999928486,1.0,1129.6999999284744,0.0,,Slider,Slider,4.0,object-56,temp_dist_trial,1.0,s_sh_14_1,student_shared,printer,10.0,competing,paired,s_sh_14_1.jpg,Student,$${counterbalance_group},,sub-86
Desktop or Laptop,Windows 10,Chrome 130.0.0.0,1600x900,1600x731,Temporal Distance Task,cb_10,50.0,temp_dist_trial,num_items,zn7si1,1.0,response,2_ITEM,1416.7999999999884,1400.0999999999767,1416.7999999999884,1416.7999999999884,1400.0999999999767,1416.7999999999884,1.0,0.0,0.0,,Click Response,2_count,5.0,object-49,temp_dist_trial,2.0,s_sh_13_1,student_shared,index cards,10.0,competing,paired,s_sh_13_1.jpg,Student,$${counterbalance_group},,sub-86
Desktop or Laptop,Windows 10,Chrome 130.0.0.0,1600x900,1600x731,Temporal Distance Task,cb_10,50.0,temp_dist_trial,dist_items,qkpkxw,2.0,info,,16.700000000011638,0.0,16.700000000011638,16.700000000011638,0.0,16.700000000011638,1.0,0.0,0.0,,Slider,Slider,4.0,object-56,temp_dist_trial,2.0,s_sh_13_1,student_shared,index cards,10.0,competing,paired,s_sh_13_1.jpg,Student,$${counterbalance_group},,sub-86
Desktop or Laptop,Windows 10,Chrome 130.0.0.0,1600x900,1600x731,Temporal Distance Task,cb_10,50.0,temp_dist_trial,dist_items,qkpkxw,2.0,continue,,4061.6999999284735,4050.0,4061.6999999284735,4061.6999999284735,4050.0,4061.6999999284735,1.0,0.0,0.0,,Click To Continue,Next button,7.0,object-60,temp_dist_trial,2.0,s_sh_13_1,student_shared,index cards,10.0,competing,paired,s_sh_13_1.jpg,Student,$${counterbalance_group},,sub-86
Desktop or Laptop,Windows 10,Chrome 130.0.0.0,1600x900,1600x731,Temporal Distance Task,cb_10,50.0,temp_dist_trial,dist_items,qkpkxw,2.0,response,58,899.7999999999884,4050.0,4066.299999999989,899.7999999999884,4050.0,4066.299999999989,1.0,3166.5,0.0,,Slider,Slider,4.0,object-56,temp_dist_trial,2.0,s_sh_13_1,student_shared,index cards,10.0,competing,paired,s_sh_13_1.jpg,Student,$${counterbalance_group},,sub-86
Desktop or Laptop,Windows 10,Chrome 130.0.0.0,1600x900,1600x731,Temporal Distance Task,cb_10,51.0,temp_dist_trial,num_items,zn7si1,1.0,response,1_ITEM,1683.0000000000582,1666.4000000000233,1683.0000000000582,1683.0000000000582,1666.4000000000233,1683.0000000000582,1.0,0.0,0.0,,Click Response,1_count,3.0,object-46,temp_dist_trial,3.0,s_sh_01_1,student_shared,notebook,10.0,competing,single,s_sh_01_1.jpg,Student,$${counterbalance_group},,sub-86
Desktop or Laptop,Windows 10,Chrome 130.0.0.0,1600x900,1600x731,Temporal Distance Task,cb_10,52.0,temp_dist_trial,num_items,zn7si1,1.0,response,2_ITEM,1408.499999952328,1399.9000000000233,1408.499999952328,1408.499999952328,1399.9000000000233,1408.499999952328,1.0,0.0,0.0,,Click Response,2_count,5.0,object-49,temp_dist_trial,4.0,s_s_15_1,student_stem,jumper cables,10.0,unique,paired,s_s_15_1.jpg,Student,$${counterbalance_group},,sub-86
Desktop or Laptop,Windows 10,Chrome 130.0.0.0,1600x900,1600x731,Temporal Distance Task,cb_10,52.0,temp_dist_trial,dist_items,qkpkxw,2.0,info,,16.700000000011638,0.0,16.700000000011638,16.700000000011638,0.0,16.700000000011638,1.0,0.0,0.0,,Slider,Slider,4.0,object-56,temp_dist_trial,4.0,s_s_15_1,student_stem,jumper cables,10.0,unique,paired,s_s_15_1.jpg,Student,$${counterbalance_group},,sub-86
Desktop or Laptop,Windows 10,Chrome 130.0.0.0,1600x900,1600x731,Temporal Distance Task,cb_10,52.0,temp_dist_trial,dist_items,qkpkxw,2.0,continue,,2810.8999999761572,2800.2999999999884,2810.8999999761572,2810.8999999761572,2800.2999999999884,2810.8999999761572,1.0,0.0,0.0,,Click To Continue,Next button,7.0,object-60,temp_dist_trial,4.0,s_s_15_1,student_stem,jumper cables,10.0,unique,paired,s_s_15_1.jpg,Student,$${counterbalance_group},,sub-86
Desktop or Laptop,Windows 10,Chrome 130.0.0.0,1600x900,1600x731,Temporal Distance Task,cb_10,52.0,temp_dist_trial,dist_items,qkpkxw,2.0,response,45,1433.4000000000233,2800.2999999999884,2813.099999904633,1433.4000000000233,2800.2999999999884,2813.099999904633,1.0,1379.6999999046093,0.0,,Slider,Slider,4.0,object-56,temp_dist_trial,4.0,s_s_15_1,student_stem,jumper cables,10.0,unique,paired,s_s_15_1.jpg,Student,$${counterbalance_group},,sub-86
Desktop or Laptop,Windows 10,Chrome 130.0.0.0,1600x900,1600x731,Temporal Distance Task,cb_10,53.0,temp_dist_trial,num_items,zn7si1,1.0,response,2_ITEM,1699.0999999999767,1682.5,1699.0999999999767,1699.0999999999767,1682.5,1699.0999999999767,1.0,0.0,0.0,,Click Response,2_count,5.0,object-49,temp_dist_trial,5.0,s_s_08_1,student_stem,soldering iron,10.0,unique,paired,s_s_08_1.jpg,Student,$${counterbalance_group},,sub-86
Desktop or Laptop,Windows 10,Chrome 130.0.0.0,1600x900,1600x731,Temporal Distance Task,cb_10,53.0,temp_dist_trial,dist_items,qkpkxw,2.0,info,,16.700000000011638,0.0,16.700000000011638,16.700000000011638,0.0,16.700000000011638,1.0,0.0,0.0,,Slider,Slider,4.0,object-56,temp_dist_trial,5.0,s_s_08_1,student_stem,soldering iron,10.0,unique,paired,s_s_08_1.jpg,Student,$${counterbalance_group},,sub-86
Desktop or Laptop,Windows 10,Chrome 130.0.0.0,1600x900,1600x731,Temporal Distance Task,cb_10,53.0,temp_dist_trial,dist_items,qkpkxw,2.0,continue,,2063.7999999523167,2050.5999999999767,2063.7999999523167,2063.7999999523167,2050.5999999999767,2063.7999999523167,1.0,0.0,0.0,,Click To Continue,Next button,7.0,object-60,temp_dist_trial,5.0,s_s_08_1,student_stem,soldering iron,10.0,unique,paired,s_s_08_1.jpg,Student,$${counterbalance_group},,sub-86
Desktop or Laptop,Windows 10,Chrome 130.0.0.0,1600x900,1600x731,Temporal Distance Task,cb_10,53.0,temp_dist_trial,dist_items,qkpkxw,2.0,response,45,750.0,2050.5999999999767,2067.499999999942,750.0,2050.5999999999767,2067.499999999942,1.0,1317.4999999999418,0.0,,Slider,Slider,4.0,object-56,temp_dist_trial,5.0,s_s_08_1,student_stem,soldering iron,10.0,unique,paired,s_s_08_1.jpg,Student,$${counterbalance_group},,sub-86
Desktop or Laptop,Windows 10,Chrome 130.0.0.0,1600x900,1600x731,Temporal Distance Task,cb_10,54.0,temp_dist_trial,num_items,zn7si1,1.0,response,2_ITEM,1745.0999999284977,1733.2000000000116,1745.0999999284977,1745.0999999284977,1733.2000000000116,1745.0999999284977,1.0,0.0,0.0,,Click Response,2_count,5.0,object-49,temp_dist_trial,6.0,s_s_09_1,student_stem,multimeter,10.0,unique,paired,s_s_09_1.jpg,Student,$${counterbalance_group},,sub-86
Desktop or Laptop,Windows 10,Chrome 130.0.0.0,1600x900,1600x731,Temporal Distance Task,cb_10,54.0,temp_dist_trial,dist_items,qkpkxw,2.0,info,,16.399999999965075,0.0,16.399999999965075,16.399999999965075,0.0,16.399999999965075,1.0,0.0,0.0,,Slider,Slider,4.0,object-56,temp_dist_trial,6.0,s_s_09_1,student_stem,multimeter,10.0,unique,paired,s_s_09_1.jpg,Student,$${counterbalance_group},,sub-86
Desktop or Laptop,Windows 10,Chrome 130.0.0.0,1600x900,1600x731,Temporal Distance Task,cb_10,54.0,temp_dist_trial,dist_items,qkpkxw,2.0,continue,,2600.5,2583.700000000012,2600.5,2600.5,2583.700000000012,2600.5,1.0,0.0,0.0,,Click To Continue,Next button,7.0,object-60,temp_dist_trial,6.0,s_s_09_1,student_stem,multimeter,10.0,unique,paired,s_s_09_1.jpg,Student,$${counterbalance_group},,sub-86
Desktop or Laptop,Windows 10,Chrome 130.0.0.0,1600x900,1600x731,Temporal Distance Task,cb_10,54.0,temp_dist_trial,dist_items,qkpkxw,2.0,response,46,983.5,2583.700000000012,2600.5,983.5,2583.700000000012,2600.5,1.0,1617.0,0.0,,Slider,Slider,4.0,object-56,temp_dist_trial,6.0,s_s_09_1,student_stem,multimeter,10.0,unique,paired,s_s_09_1.jpg,Student,$${counterbalance_group},,sub-86
Desktop or Laptop,Windows 10,Chrome 130.0.0.0,1600x900,1600x731,Temporal Distance Task,cb_10,55.0,temp_dist_trial,num_items,zn7si1,1.0,response,1_ITEM,1660.399999928486,1649.9000000000233,1660.399999928486,1660.399999928486,1649.9000000000233,1660.399999928486,1.0,0.0,0.0,,Click Response,1_count,3.0,object-46,temp_dist_trial,7.0,s_sh_04_1,student_shared,laptop stand,10.0,competing,single,s_sh_04_1.jpg,Student,$${counterbalance_group},,sub-86
Desktop or Laptop,Windows 10,Chrome 130.0.0.0,1600x900,1600x731,Temporal Distance Task,cb_10,56.0,temp_dist_trial,num_items,zn7si1,1.0,response,2_ITEM,2404.9000000000233,2399.5,2404.9000000000233,2404.9000000000233,2399.5,2404.9000000000233,1.0,0.0,0.0,,Click Response,2_count,5.0,object-49,temp_dist_trial,8.0,s_sh_06_1,student_shared,clipboard,10.0,competing,paired,s_sh_06_1.jpg,Student,$${counterbalance_group},,sub-86
Desktop or Laptop,Windows 10,Chrome 130.0.0.0,1600x900,1600x731,Temporal Distance Task,cb_10,56.0,temp_dist_trial,dist_items,qkpkxw,2.0,info,,16.600000000034925,0.0,16.600000000034925,16.600000000034925,0.0,16.600000000034925,1.0,0.0,0.0,,Slider,Slider,4.0,object-56,temp_dist_trial,8.0,s_sh_06_1,student_shared,clipboard,10.0,competing,paired,s_sh_06_1.jpg,Student,$${counterbalance_group},,sub-86
Desktop or Laptop,Windows 10,Chrome 130.0.0.0,1600x900,1600x731,Temporal Distance Task,cb_10,56.0,temp_dist_trial,dist_items,qkpkxw,2.0,continue,,3614.4999999284632,3600.0,3614.4999999284632,3614.4999999284632,3600.0,3614.4999999284632,1.0,0.0,0.0,,Click To Continue,Next button,7.0,object-60,temp_dist_trial,8.0,s_sh_06_1,student_shared,clipboard,10.0,competing,paired,s_sh_06_1.jpg,Student,$${counterbalance_group},,sub-86
Desktop or Laptop,Windows 10,Chrome 130.0.0.0,1600x900,1600x731,Temporal Distance Task,cb_10,56.0,temp_dist_trial,dist_items,qkpkxw,2.0,response,56,1266.7999999999886,3600.0,3616.600000000035,1266.7999999999886,3600.0,3616.600000000035,1.0,2349.8000000000466,0.0,,Slider,Slider,4.0,object-56,temp_dist_trial,8.0,s_sh_06_1,student_shared,clipboard,10.0,competing,paired,s_sh_06_1.jpg,Student,$${counterbalance_group},,sub-86
Desktop or Laptop,Windows 10,Chrome 130.0.0.0,1600x900,1600x731,Temporal Distance Task,cb_10,57.0,temp_dist_trial,num_items,zn7si1,1.0,response,2_ITEM,1176.1999999761465,1165.899999999965,1176.1999999761465,1176.1999999761465,1165.899999999965,1176.1999999761465,1.0,0.0,0.0,,Click Response,2_count,5.0,object-49,temp_dist_trial,9.0,s_sh_07_1,student_shared,ruler,10.0,competing,paired,s_sh_07_1.jpg,Student,$${counterbalance_group},,sub-86
Desktop or Laptop,Windows 10,Chrome 130.0.0.0,1600x900,1600x731,Temporal Distance Task,cb_10,57.0,temp_dist_trial,dist_items,qkpkxw,2.0,info,,16.599999999976713,0.0,16.599999999976713,16.599999999976713,0.0,16.599999999976713,1.0,0.0,0.0,,Slider,Slider,4.0,object-56,temp_dist_trial,9.0,s_sh_07_1,student_shared,ruler,10.0,competing,paired,s_sh_07_1.jpg,Student,$${counterbalance_group},,sub-86
Desktop or Laptop,Windows 10,Chrome 130.0.0.0,1600x900,1600x731,Temporal Distance Task,cb_10,57.0,temp_dist_trial,dist_items,qkpkxw,2.0,continue,,5179.200000000013,5166.799999999987,5179.200000000013,5179.200000000013,5166.799999999987,5179.200000000013,1.0,0.0,0.0,,Click To Continue,Next button,7.0,object-60,temp_dist_trial,9.0,s_sh_07_1,student_shared,ruler,10.0,competing,paired,s_sh_07_1.jpg,Student,$${counterbalance_group},,sub-86
Desktop or Laptop,Windows 10,Chrome 130.0.0.0,1600x900,1600x731,Temporal Distance Task,cb_10,57.0,temp_dist_trial,dist_items,qkpkxw,2.0,response,53,1416.9000000000233,5166.799999999987,5181.200000000013,1416.9000000000233,5166.799999999987,5181.200000000013,1.0,3764.299999999989,0.0,,Slider,Slider,4.0,object-56,temp_dist_trial,9.0,s_sh_07_1,student_shared,ruler,10.0,competing,paired,s_sh_07_1.jpg,Student,$${counterbalance_group},,sub-86
Desktop or Laptop,Windows 10,Chrome 130.0.0.0,1600x900,1600x731,Temporal Distance Task,cb_10,58.0,temp_dist_trial,num_items,zn7si1,1.0,response,1_ITEM,1975.0999999284977,1966.1000000000354,1975.0999999284977,1975.0999999284977,1966.1000000000354,1975.0999999284977,1.0,0.0,0.0,,Click Response,1_count,3.0,object-46,temp_dist_trial,10.0,s_a_12_1,student_art,saxophone,10.0,unique,paired,s_a_12_1.jpg,Student,$${counterbalance_group},,sub-86
Desktop or Laptop,Windows 10,Chrome 130.0.0.0,1600x900,1600x731,Temporal Distance Task,cb_10,59.0,temp_dist_trial,num_items,zn7si1,1.0,response,2_ITEM,1344.499999904656,1333.9000000000233,1344.499999904656,1344.499999904656,1333.9000000000233,1344.499999904656,1.0,0.0,0.0,,Click Response,2_count,5.0,object-49,temp_dist_trial,11.0,s_sh_05_1,student_shared,laptop,10.0,competing,paired,s_sh_05_1.jpg,Student,$${counterbalance_group},,sub-86
Desktop or Laptop,Windows 10,Chrome 130.0.0.0,1600x900,1600x731,Temporal Distance Task,cb_10,59.0,temp_dist_trial,dist_items,qkpkxw,2.0,info,,16.700000000011638,0.0,16.700000000011638,16.700000000011638,0.0,16.700000000011638,1.0,0.0,0.0,,Slider,Slider,4.0,object-56,temp_dist_trial,11.0,s_sh_05_1,student_shared,laptop,10.0,competing,paired,s_sh_05_1.jpg,Student,$${counterbalance_group},,sub-86
Desktop or Laptop,Windows 10,Chrome 130.0.0.0,1600x900,1600x731,Temporal Distance Task,cb_10,59.0,temp_dist_trial,dist_items,qkpkxw,2.0,continue,,4879.099999999977,4867.0,4879.099999999977,4879.099999999977,4867.0,4879.099999999977,1.0,0.0,0.0,,Click To Continue,Next button,7.0,object-60,temp_dist_trial,11.0,s_sh_05_1,student_shared,laptop,10.0,competing,paired,s_sh_05_1.jpg,Student,$${counterbalance_group},,sub-86
Desktop or Laptop,Windows 10,Chrome 130.0.0.0,1600x900,1600x731,Temporal Distance Task,cb_10,59.0,temp_dist_trial,dist_items,qkpkxw,2.0,response,53,1800.6999999999537,4867.0,4880.699999904608,1800.6999999999537,4867.0,4880.699999904608,1.0,3079.999999904656,0.0,,Slider,Slider,4.0,object-56,temp_dist_trial,11.0,s_sh_05_1,student_shared,laptop,10.0,competing,paired,s_sh_05_1.jpg,Student,$${counterbalance_group},,sub-86
Desktop or Laptop,Windows 10,Chrome 130.0.0.0,1600x900,1600x731,Temporal Distance Task,cb_10,60.0,temp_dist_trial,num_items,zn7si1,1.0,response,2_ITEM,1163.0999999999767,1149.6999999999534,1163.0999999999767,1163.0999999999767,1149.6999999999534,1163.0999999999767,1.0,0.0,0.0,,Click Response,2_count,5.0,object-49,temp_dist_trial,12.0,s_a_18_1,student_art,tutu,10.0,unique,paired,s_a_18_1.jpg,Student,$${counterbalance_group},,sub-86
Desktop or Laptop,Windows 10,Chrome 130.0.0.0,1600x900,1600x731,Temporal Distance Task,cb_10,60.0,temp_dist_trial,dist_items,qkpkxw,2.0,info,,16.599999999976713,0.0,16.599999999976713,16.599999999976713,0.0,16.599999999976713,1.0,0.0,0.0,,Slider,Slider,4.0,object-56,temp_dist_trial,12.0,s_a_18_1,student_art,tutu,10.0,unique,paired,s_a_18_1.jpg,Student,$${counterbalance_group},,sub-86
Desktop or Laptop,Windows 10,Chrome 130.0.0.0,1600x900,1600x731,Temporal Distance Task,cb_10,60.0,temp_dist_trial,dist_items,qkpkxw,2.0,continue,,3906.69999995234,3900.100000000035,3906.69999995234,3906.69999995234,3900.100000000035,3906.69999995234,1.0,0.0,0.0,,Click To Continue,Next button,7.0,object-60,temp_dist_trial,12.0,s_a_18_1,student_art,tutu,10.0,unique,paired,s_a_18_1.jpg,Student,$${counterbalance_group},,sub-86
Desktop or Laptop,Windows 10,Chrome 130.0.0.0,1600x900,1600x731,Temporal Distance Task,cb_10,60.0,temp_dist_trial,dist_items,qkpkxw,2.0,response,61,816.6000000000349,3900.100000000035,3916.500000000058,816.6000000000349,3900.100000000035,3916.500000000058,1.0,3099.9000000000237,0.0,,Slider,Slider,4.0,object-56,temp_dist_trial,12.0,s_a_18_1,student_art,tutu,10.0,unique,paired,s_a_18_1.jpg,Student,$${counterbalance_group},,sub-86
Desktop or Laptop,Windows 10,Chrome 130.0.0.0,1600x900,1600x731,Temporal Distance Task,cb_10,61.0,temp_dist_trial,num_items,zn7si1,1.0,response,1_ITEM,1511.4999999284628,1500.8999999999646,1511.4999999284628,1511.4999999284628,1500.8999999999646,1511.4999999284628,1.0,0.0,0.0,,Click Response,1_count,3.0,object-46,temp_dist_trial,13.0,s_s_02_1,student_stem,flask,10.0,unique,paired,s_s_02_1.jpg,Student,$${counterbalance_group},,sub-86
Desktop or Laptop,Windows 10,Chrome 130.0.0.0,1600x900,1600x731,Temporal Distance Task,cb_10,62.0,temp_dist_trial,num_items,zn7si1,1.0,response,1_ITEM,1983.499999999941,1966.5999999999767,1983.499999999941,1983.499999999941,1966.5999999999767,1983.499999999941,1.0,0.0,0.0,,Click Response,1_count,3.0,object-46,temp_dist_trial,14.0,s_sh_17_1,student_shared,wireless mouse,10.0,competing,single,s_sh_17_1.jpg,Student,$${counterbalance_group},,sub-86
Desktop or Laptop,Windows 10,Chrome 130.0.0.0,1600x900,1600x731,Temporal Distance Task,cb_10,63.0,temp_dist_trial,num_items,zn7si1,1.0,response,2_ITEM,2846.3999999284856,2833.700000000012,2846.3999999284856,2846.3999999284856,2833.700000000012,2846.3999999284856,1.0,0.0,0.0,,Click Response,2_count,5.0,object-49,temp_dist_trial,15.0,s_sh_24_1,student_shared,desk organizer,10.0,competing,paired,s_sh_24_1.jpg,Student,$${counterbalance_group},,sub-86
Desktop or Laptop,Windows 10,Chrome 130.0.0.0,1600x900,1600x731,Temporal Distance Task,cb_10,63.0,temp_dist_trial,dist_items,qkpkxw,2.0,info,,16.700000000011638,0.0,16.700000000011638,16.700000000011638,0.0,16.700000000011638,1.0,0.0,0.0,,Slider,Slider,4.0,object-56,temp_dist_trial,15.0,s_sh_24_1,student_shared,desk organizer,10.0,competing,paired,s_sh_24_1.jpg,Student,$${counterbalance_group},,sub-86
Desktop or Laptop,Windows 10,Chrome 130.0.0.0,1600x900,1600x731,Temporal Distance Task,cb_10,63.0,temp_dist_trial,dist_items,qkpkxw,2.0,continue,,2660.2999999523167,2649.7999999999884,2660.2999999523167,2660.2999999523167,2649.7999999999884,2660.2999999523167,1.0,0.0,0.0,,Click To Continue,Next button,7.0,object-60,temp_dist_trial,15.0,s_sh_24_1,student_shared,desk organizer,10.0,competing,paired,s_sh_24_1.jpg,Student,$${counterbalance_group},,sub-86
Desktop or Laptop,Windows 10,Chrome 130.0.0.0,1600x900,1600x731,Temporal Distance Task,cb_10,63.0,temp_dist_trial,dist_items,qkpkxw,2.0,response,50,666.4000000000233,2649.7999999999884,2663.099999904633,666.4000000000233,2649.7999999999884,2663.099999904633,1.0,1996.6999999046093,0.0,,Slider,Slider,4.0,object-56,temp_dist_trial,15.0,s_sh_24_1,student_shared,desk organizer,10.0,competing,paired,s_sh_24_1.jpg,Student,$${counterbalance_group},,sub-86
Desktop or Laptop,Windows 10,Chrome 130.0.0.0,1600x900,1600x731,Temporal Distance Task,cb_10,64.0,temp_dist_trial,num_items,zn7si1,1.0,response,2_ITEM,1478.2999999046442,1467.1000000000354,1478.2999999046442,1478.2999999046442,1467.1000000000354,1478.2999999046442,1.0,0.0,0.0,,Click Response,2_count,5.0,object-49,temp_dist_trial,16.0,s_s_19_1,student_stem,circuit board,10.0,unique,paired,s_s_19_1.jpg,Student,$${counterbalance_group},,sub-86
Desktop or Laptop,Windows 10,Chrome 130.0.0.0,1600x900,1600x731,Temporal Distance Task,cb_10,64.0,temp_dist_trial,dist_items,qkpkxw,2.0,info,,16.099999999976713,0.0,16.099999999976713,16.099999999976713,0.0,16.099999999976713,1.0,0.0,0.0,,Slider,Slider,4.0,object-56,temp_dist_trial,16.0,s_s_19_1,student_stem,circuit board,10.0,unique,paired,s_s_19_1.jpg,Student,$${counterbalance_group},,sub-86
Desktop or Laptop,Windows 10,Chrome 130.0.0.0,1600x900,1600x731,Temporal Distance Task,cb_10,64.0,temp_dist_trial,dist_items,qkpkxw,2.0,continue,,6922.899999928486,6916.7000000000135,6922.899999928486,6922.899999928486,6916.7000000000135,6922.899999928486,1.0,0.0,0.0,,Click To Continue,Next button,7.0,object-60,temp_dist_trial,16.0,s_s_19_1,student_stem,circuit board,10.0,unique,paired,s_s_19_1.jpg,Student,$${counterbalance_group},,sub-86
Desktop or Laptop,Windows 10,Chrome 130.0.0.0,1600x900,1600x731,Temporal Distance Task,cb_10,64.0,temp_dist_trial,dist_items,qkpkxw,2.0,response,45,1300.4000000000233,6916.7000000000135,6924.599999976171,1300.4000000000233,6916.7000000000135,6924.599999976171,1.0,5624.1999999761465,0.0,,Slider,Slider,4.0,object-56,temp_dist_trial,16.0,s_s_19_1,student_stem,circuit board,10.0,unique,paired,s_s_19_1.jpg,Student,$${counterbalance_group},,sub-86
Desktop or Laptop,Windows 10,Chrome 130.0.0.0,1600x900,1600x731,Temporal Distance Task,cb_10,65.0,temp_dist_trial,num_items,zn7si1,1.0,response,1_ITEM,2177.2999999523167,2166.5999999999767,2177.2999999523167,2177.2999999523167,2166.5999999999767,2177.2999999523167,1.0,0.0,0.0,,Click Response,1_count,3.0,object-46,temp_dist_trial,17.0,s_sh_02_1,student_shared,eraser,10.0,competing,paired,s_sh_02_1.jpg,Student,$${counterbalance_group},,sub-86
Desktop or Laptop,Windows 10,Chrome 130.0.0.0,1600x900,1600x731,Temporal Distance Task,cb_10,66.0,temp_dist_trial,num_items,zn7si1,1.0,response,2_ITEM,2227.999999952328,2216.600000000035,2227.999999952328,2227.999999952328,2216.600000000035,2227.999999952328,1.0,0.0,0.0,,Click Response,2_count,5.0,object-49,temp_dist_trial,18.0,s_sh_03_1,student_shared,highlighter,10.0,competing,paired,s_sh_03_1.jpg,Student,$${counterbalance_group},,sub-86
Desktop or Laptop,Windows 10,Chrome 130.0.0.0,1600x900,1600x731,Temporal Distance Task,cb_10,66.0,temp_dist_trial,dist_items,qkpkxw,2.0,info,,17.0,0.0,17.0,17.0,0.0,17.0,1.0,0.0,0.0,,Slider,Slider,4.0,object-56,temp_dist_trial,18.0,s_sh_03_1,student_shared,highlighter,10.0,competing,paired,s_sh_03_1.jpg,Student,$${counterbalance_group},,sub-86
Desktop or Laptop,Windows 10,Chrome 130.0.0.0,1600x900,1600x731,Temporal Distance Task,cb_10,66.0,temp_dist_trial,dist_items,qkpkxw,2.0,continue,,4583.699999999953,4567.0,4583.699999999953,4583.699999999953,4567.0,4583.699999999953,1.0,0.0,0.0,,Click To Continue,Next button,7.0,object-60,temp_dist_trial,18.0,s_sh_03_1,student_shared,highlighter,10.0,competing,paired,s_sh_03_1.jpg,Student,$${counterbalance_group},,sub-86
Desktop or Laptop,Windows 10,Chrome 130.0.0.0,1600x900,1600x731,Temporal Distance Task,cb_10,66.0,temp_dist_trial,dist_items,qkpkxw,2.0,response,57,1500.4000000000233,4567.0,4583.699999999953,1500.4000000000233,4567.0,4583.699999999953,1.0,3083.2999999999292,0.0,,Slider,Slider,4.0,object-56,temp_dist_trial,18.0,s_sh_03_1,student_shared,highlighter,10.0,competing,paired,s_sh_03_1.jpg,Student,$${counterbalance_group},,sub-86
Desktop or Laptop,Windows 10,Chrome 130.0.0.0,1600x900,1600x731,Temporal Distance Task,cb_10,67.0,temp_dist_trial,num_items,zn7si1,1.0,response,1_ITEM,1248.0999999284975,1233.3000000000466,1248.0999999284975,1248.0999999284975,1233.3000000000466,1248.0999999284975,1.0,0.0,0.0,,Click Response,1_count,3.0,object-46,temp_dist_trial,19.0,s_a_07_1,student_art,yarn,10.0,unique,single,s_a_07_1.jpg,Student,$${counterbalance_group},,sub-86
Desktop or Laptop,Windows 10,Chrome 130.0.0.0,1600x900,1600x731,Temporal Distance Task,cb_10,68.0,temp_dist_trial,num_items,zn7si1,1.0,response,2_ITEM,2328.599999999977,2316.2999999999884,2328.599999999977,2328.599999999977,2316.2999999999884,2328.599999999977,1.0,0.0,0.0,,Click Response,2_count,5.0,object-49,temp_dist_trial,20.0,s_sh_15_1,student_shared,usb drive,10.0,competing,paired,s_sh_15_1.jpg,Student,$${counterbalance_group},,sub-86
Desktop or Laptop,Windows 10,Chrome 130.0.0.0,1600x900,1600x731,Temporal Distance Task,cb_10,68.0,temp_dist_trial,dist_items,qkpkxw,2.0,info,,16.600000000034925,0.0,16.600000000034925,16.600000000034925,0.0,16.600000000034925,1.0,0.0,0.0,,Slider,Slider,4.0,object-56,temp_dist_trial,20.0,s_sh_15_1,student_shared,usb drive,10.0,competing,paired,s_sh_15_1.jpg,Student,$${counterbalance_group},,sub-86
Desktop or Laptop,Windows 10,Chrome 130.0.0.0,1600x900,1600x731,Temporal Distance Task,cb_10,68.0,temp_dist_trial,dist_items,qkpkxw,2.0,continue,,3740.599999952305,3733.0,3740.599999952305,3740.599999952305,3733.0,3740.599999952305,1.0,0.0,0.0,,Click To Continue,Next button,7.0,object-60,temp_dist_trial,20.0,s_sh_15_1,student_shared,usb drive,10.0,competing,paired,s_sh_15_1.jpg,Student,$${counterbalance_group},,sub-86
Desktop or Laptop,Windows 10,Chrome 130.0.0.0,1600x900,1600x731,Temporal Distance Task,cb_10,68.0,temp_dist_trial,dist_items,qkpkxw,2.0,response,54,1133.5,3733.0,3749.200000000012,1133.5,3733.0,3749.200000000012,1.0,2615.700000000012,0.0,,Slider,Slider,4.0,object-56,temp_dist_trial,20.0,s_sh_15_1,student_shared,usb drive,10.0,competing,paired,s_sh_15_1.jpg,Student,$${counterbalance_group},,sub-86
Desktop or Laptop,Windows 10,Chrome 130.0.0.0,1600x900,1600x731,Temporal Distance Task,cb_10,69.0,temp_dist_trial,num_items,zn7si1,1.0,response,1_ITEM,1317.5999999523046,1300.7000000000114,1317.5999999523046,1317.5999999523046,1300.7000000000114,1317.5999999523046,1.0,0.0,0.0,,Click Response,1_count,3.0,object-46,temp_dist_trial,21.0,s_sh_09_1,student_shared,paper clips,10.0,competing,single,s_sh_09_1.jpg,Student,$${counterbalance_group},,sub-86
Desktop or Laptop,Windows 10,Chrome 130.0.0.0,1600x900,1600x731,Temporal Distance Task,cb_10,70.0,temp_dist_trial,num_items,zn7si1,1.0,response,1_ITEM,1376.7999999284511,1366.5,1376.7999999284511,1376.7999999284511,1366.5,1376.7999999284511,1.0,0.0,0.0,,Click Response,1_count,3.0,object-46,temp_dist_trial,22.0,s_s_01_1,student_stem,microscope,10.0,unique,paired,s_s_01_1.jpg,Student,$${counterbalance_group},,sub-86
Desktop or Laptop,Windows 10,Chrome 130.0.0.0,1600x900,1600x731,Temporal Distance Task,cb_10,71.0,temp_dist_trial,num_items,zn7si1,1.0,response,1_ITEM,1128.2999999761814,1116.100000000035,1128.2999999761814,1128.2999999761814,1116.100000000035,1128.2999999761814,1.0,0.0,0.0,,Click Response,1_count,3.0,object-46,temp_dist_trial,23.0,s_s_06_1,student_stem,calculator,10.0,unique,single,s_s_06_1.jpg,Student,$${counterbalance_group},,sub-86
Desktop or Laptop,Windows 10,Chrome 130.0.0.0,1600x900,1600x731,Temporal Distance Task,cb_10,72.0,temp_dist_trial,num_items,zn7si1,1.0,response,1_ITEM,1145.2999999999886,1133.5,1145.2999999999886,1145.2999999999886,1133.5,1145.2999999999886,1.0,0.0,0.0,,Click Response,1_count,3.0,object-46,temp_dist_trial,24.0,s_a_15_1,student_art,drum kit,10.0,unique,single,s_a_15_1.jpg,Student,$${counterbalance_group},,sub-86
Desktop or Laptop,Windows 10,Chrome 130.0.0.0,1600x900,1600x731,Temporal Distance Task,cb_10,73.0,temp_dist_trial,num_items,zn7si1,1.0,response,1_ITEM,973.8999999046208,966.0,973.8999999046208,973.8999999046208,966.0,973.8999999046208,1.0,0.0,0.0,,Click Response,1_count,3.0,object-46,temp_dist_trial,25.0,s_a_01_1,student_art,paintbrush,10.0,unique,single,s_a_01_1.jpg,Student,$${counterbalance_group},,sub-86
Desktop or Laptop,Windows 10,Chrome 130.0.0.0,1600x900,1600x731,Temporal Distance Task,cb_10,74.0,temp_dist_trial,num_items,zn7si1,1.0,response,2_ITEM,1849.1999999523398,1833.2000000000119,1849.1999999523398,1849.1999999523398,1833.2000000000119,1849.1999999523398,1.0,0.0,0.0,,Click Response,2_count,5.0,object-49,temp_dist_trial,26.0,s_a_17_1,student_art,microphone,10.0,unique,paired,s_a_17_1.jpg,Student,$${counterbalance_group},,sub-86
Desktop or Laptop,Windows 10,Chrome 130.0.0.0,1600x900,1600x731,Temporal Distance Task,cb_10,74.0,temp_dist_trial,dist_items,qkpkxw,2.0,info,,13.899999952293,0.0,13.899999952293,13.899999952293,0.0,13.899999952293,1.0,0.0,0.0,,Slider,Slider,4.0,object-56,temp_dist_trial,26.0,s_a_17_1,student_art,microphone,10.0,unique,paired,s_a_17_1.jpg,Student,$${counterbalance_group},,sub-86
Desktop or Laptop,Windows 10,Chrome 130.0.0.0,1600x900,1600x731,Temporal Distance Task,cb_10,74.0,temp_dist_trial,dist_items,qkpkxw,2.0,continue,,3278.699999904609,3267.2999999999884,3278.699999904609,3278.699999904609,3267.2999999999884,3278.699999904609,1.0,0.0,0.0,,Click To Continue,Next button,7.0,object-60,temp_dist_trial,26.0,s_a_17_1,student_art,microphone,10.0,unique,paired,s_a_17_1.jpg,Student,$${counterbalance_group},,sub-86
Desktop or Laptop,Windows 10,Chrome 130.0.0.0,1600x900,1600x731,Temporal Distance Task,cb_10,74.0,temp_dist_trial,dist_items,qkpkxw,2.0,response,57,834.0999999999768,3267.2999999999884,3283.7999999999884,834.0999999999768,3267.2999999999884,3283.7999999999884,1.0,2449.700000000012,0.0,,Slider,Slider,4.0,object-56,temp_dist_trial,26.0,s_a_17_1,student_art,microphone,10.0,unique,paired,s_a_17_1.jpg,Student,$${counterbalance_group},,sub-86
Desktop or Laptop,Windows 10,Chrome 130.0.0.0,1600x900,1600x731,Temporal Distance Task,cb_10,75.0,temp_dist_trial,num_items,zn7si1,1.0,response,2_ITEM,1177.0999999523046,1166.7000000000114,1177.0999999523046,1177.0999999523046,1166.7000000000114,1177.0999999523046,1.0,0.0,0.0,,Click Response,2_count,5.0,object-49,temp_dist_trial,27.0,s_a_05_1,student_art,clay,10.0,unique,paired,s_a_05_1.jpg,Student,$${counterbalance_group},,sub-86
Desktop or Laptop,Windows 10,Chrome 130.0.0.0,1600x900,1600x731,Temporal Distance Task,cb_10,75.0,temp_dist_trial,dist_items,qkpkxw,2.0,info,,12.6999999761465,0.0,12.6999999761465,12.6999999761465,0.0,12.6999999761465,1.0,0.0,0.0,,Slider,Slider,4.0,object-56,temp_dist_trial,27.0,s_a_05_1,student_art,clay,10.0,unique,paired,s_a_05_1.jpg,Student,$${counterbalance_group},,sub-86
Desktop or Laptop,Windows 10,Chrome 130.0.0.0,1600x900,1600x731,Temporal Distance Task,cb_10,75.0,temp_dist_trial,dist_items,qkpkxw,2.0,continue,,5144.599999952306,5133.799999999987,5144.599999952306,5144.599999952306,5133.799999999987,5144.599999952306,1.0,0.0,0.0,,Click To Continue,Next button,7.0,object-60,temp_dist_trial,27.0,s_a_05_1,student_art,clay,10.0,unique,paired,s_a_05_1.jpg,Student,$${counterbalance_group},,sub-86
Desktop or Laptop,Windows 10,Chrome 130.0.0.0,1600x900,1600x731,Temporal Distance Task,cb_10,75.0,temp_dist_trial,dist_items,qkpkxw,2.0,response,57,1000.8999999999652,5133.799999999987,5147.499999928463,1000.8999999999652,5133.799999999987,5147.499999928463,1.0,4146.599999928498,0.0,,Slider,Slider,4.0,object-56,temp_dist_trial,27.0,s_a_05_1,student_art,clay,10.0,unique,paired,s_a_05_1.jpg,Student,$${counterbalance_group},,sub-86
Desktop or Laptop,Windows 10,Chrome 130.0.0.0,1600x900,1600x731,Temporal Distance Task,cb_10,76.0,temp_dist_trial,num_items,zn7si1,1.0,response,2_ITEM,1463.5,1449.7000000000116,1463.5,1463.5,1449.7000000000116,1463.5,1.0,0.0,0.0,,Click Response,2_count,5.0,object-49,temp_dist_trial,28.0,s_sh_21_1,student_shared,file holder,10.0,competing,paired,s_sh_21_1.jpg,Student,$${counterbalance_group},,sub-86
Desktop or Laptop,Windows 10,Chrome 130.0.0.0,1600x900,1600x731,Temporal Distance Task,cb_10,76.0,temp_dist_trial,dist_items,qkpkxw,2.0,info,,14.499999904655853,0.0,14.499999904655853,14.499999904655853,0.0,14.499999904655853,1.0,0.0,0.0,,Slider,Slider,4.0,object-56,temp_dist_trial,28.0,s_sh_21_1,student_shared,file holder,10.0,competing,paired,s_sh_21_1.jpg,Student,$${counterbalance_group},,sub-86
Desktop or Laptop,Windows 10,Chrome 130.0.0.0,1600x900,1600x731,Temporal Distance Task,cb_10,76.0,temp_dist_trial,dist_items,qkpkxw,2.0,continue,,2943.299999976181,2933.4000000000237,2943.299999976181,2943.299999976181,2933.4000000000237,2943.299999976181,1.0,0.0,0.0,,Click To Continue,Next button,7.0,object-60,temp_dist_trial,28.0,s_sh_21_1,student_shared,file holder,10.0,competing,paired,s_sh_21_1.jpg,Student,$${counterbalance_group},,sub-86
Desktop or Laptop,Windows 10,Chrome 130.0.0.0,1600x900,1600x731,Temporal Distance Task,cb_10,76.0,temp_dist_trial,dist_items,qkpkxw,2.0,response,59,766.8000000000467,2933.4000000000237,2950.100000000035,766.8000000000467,2933.4000000000237,2950.100000000035,1.0,2183.2999999999884,0.0,,Slider,Slider,4.0,object-56,temp_dist_trial,28.0,s_sh_21_1,student_shared,file holder,10.0,competing,paired,s_sh_21_1.jpg,Student,$${counterbalance_group},,sub-86
Desktop or Laptop,Windows 10,Chrome 130.0.0.0,1600x900,1600x731,Temporal Distance Task,cb_10,77.0,temp_dist_trial,num_items,zn7si1,1.0,response,1_ITEM,2064.6999999284744,2050.700000000012,2064.6999999284744,2064.6999999284744,2050.700000000012,2064.6999999284744,1.0,0.0,0.0,,Click Response,1_count,3.0,object-46,temp_dist_trial,29.0,s_a_02_1,student_art,canvas,10.0,unique,paired,s_a_02_1.jpg,Student,$${counterbalance_group},,sub-86
Desktop or Laptop,Windows 10,Chrome 130.0.0.0,1600x900,1600x731,Temporal Distance Task,cb_10,78.0,temp_dist_trial,num_items,zn7si1,1.0,response,1_ITEM,1516.9000000000815,1499.8000000000463,1516.9000000000815,1516.9000000000815,1499.8000000000463,1516.9000000000815,1.0,0.0,0.0,,Click Response,1_count,3.0,object-46,temp_dist_trial,30.0,s_s_11_1,student_stem,scientific scale,10.0,unique,single,s_s_11_1.jpg,Student,$${counterbalance_group},,sub-86
Desktop or Laptop,Windows 10,Chrome 130.0.0.0,1600x900,1600x731,Temporal Distance Task,cb_10,79.0,temp_dist_trial,num_items,zn7si1,1.0,response,2_ITEM,1128.2999999999886,1117.0,1128.2999999999886,1128.2999999999886,1117.0,1128.2999999999886,1.0,0.0,0.0,,Click Response,2_count,5.0,object-49,temp_dist_trial,31.0,s_a_14_1,student_art,guitar pick,10.0,unique,paired,s_a_14_1.jpg,Student,$${counterbalance_group},,sub-86
Desktop or Laptop,Windows 10,Chrome 130.0.0.0,1600x900,1600x731,Temporal Distance Task,cb_10,79.0,temp_dist_trial,dist_items,qkpkxw,2.0,info,,16.599999999976713,0.0,16.599999999976713,16.599999999976713,0.0,16.599999999976713,1.0,0.0,0.0,,Slider,Slider,4.0,object-56,temp_dist_trial,31.0,s_a_14_1,student_art,guitar pick,10.0,unique,paired,s_a_14_1.jpg,Student,$${counterbalance_group},,sub-86
Desktop or Laptop,Windows 10,Chrome 130.0.0.0,1600x900,1600x731,Temporal Distance Task,cb_10,79.0,temp_dist_trial,dist_items,qkpkxw,2.0,continue,,2042.0999999284977,2033.5,2042.0999999284977,2042.0999999284977,2033.5,2042.0999999284977,1.0,0.0,0.0,,Click To Continue,Next button,7.0,object-60,temp_dist_trial,31.0,s_a_14_1,student_art,guitar pick,10.0,unique,paired,s_a_14_1.jpg,Student,$${counterbalance_group},,sub-86
Desktop or Laptop,Windows 10,Chrome 130.0.0.0,1600x900,1600x731,Temporal Distance Task,cb_10,79.0,temp_dist_trial,dist_items,qkpkxw,2.0,response,46,850.5,2033.5,2044.9000000000235,850.5,2033.5,2044.9000000000235,1.0,1194.4000000000233,0.0,,Slider,Slider,4.0,object-56,temp_dist_trial,31.0,s_a_14_1,student_art,guitar pick,10.0,unique,paired,s_a_14_1.jpg,Student,$${counterbalance_group},,sub-86
Desktop or Laptop,Windows 10,Chrome 130.0.0.0,1600x900,1600x731,Temporal Distance Task,cb_10,80.0,temp_dist_trial,num_items,zn7si1,1.0,response,1_ITEM,1546.5999999284977,1533.4000000000233,1546.5999999284977,1546.5999999284977,1533.4000000000233,1546.5999999284977,1.0,0.0,0.0,,Click Response,1_count,3.0,object-46,temp_dist_trial,32.0,s_sh_22_1,student_shared,hole puncher,10.0,competing,single,s_sh_22_1.jpg,Student,$${counterbalance_group},,sub-86
Desktop or Laptop,Windows 10,Chrome 130.0.0.0,1600x900,1600x731,Temporal Distance Task,cb_10,81.0,temp_dist_trial,num_items,zn7si1,1.0,response,2_ITEM,1466.9000000000233,1450.0,1466.9000000000233,1466.9000000000233,1450.0,1466.9000000000233,1.0,0.0,0.0,,Click Response,2_count,5.0,object-49,temp_dist_trial,33.0,s_sh_11_1,student_shared,pencil case,10.0,competing,paired,s_sh_11_1.jpg,Student,$${counterbalance_group},,sub-86
Desktop or Laptop,Windows 10,Chrome 130.0.0.0,1600x900,1600x731,Temporal Distance Task,cb_10,81.0,temp_dist_trial,dist_items,qkpkxw,2.0,info,,16.799999999988362,0.0,16.799999999988362,16.799999999988362,0.0,16.799999999988362,1.0,0.0,0.0,,Slider,Slider,4.0,object-56,temp_dist_trial,33.0,s_sh_11_1,student_shared,pencil case,10.0,competing,paired,s_sh_11_1.jpg,Student,$${counterbalance_group},,sub-86
Desktop or Laptop,Windows 10,Chrome 130.0.0.0,1600x900,1600x731,Temporal Distance Task,cb_10,81.0,temp_dist_trial,dist_items,qkpkxw,2.0,continue,,2359.6999999284744,2349.5,2359.6999999284744,2359.6999999284744,2349.5,2359.6999999284744,1.0,0.0,0.0,,Click To Continue,Next button,7.0,object-60,temp_dist_trial,33.0,s_sh_11_1,student_shared,pencil case,10.0,competing,paired,s_sh_11_1.jpg,Student,$${counterbalance_group},,sub-86
Desktop or Laptop,Windows 10,Chrome 130.0.0.0,1600x900,1600x731,Temporal Distance Task,cb_10,81.0,temp_dist_trial,dist_items,qkpkxw,2.0,response,47,1266.5999999999767,2349.5,2361.1999999284744,1266.5999999999767,2349.5,2361.1999999284744,1.0,1094.5999999284977,0.0,,Slider,Slider,4.0,object-56,temp_dist_trial,33.0,s_sh_11_1,student_shared,pencil case,10.0,competing,paired,s_sh_11_1.jpg,Student,$${counterbalance_group},,sub-86
Desktop or Laptop,Windows 10,Chrome 130.0.0.0,1600x900,1600x731,Temporal Distance Task,cb_10,82.0,temp_dist_trial,num_items,zn7si1,1.0,response,num_miss,2999.700000000012,2999.700000000012,2999.700000000012,2999.700000000012,2999.700000000012,2999.700000000012,1.0,0.0,0.0,num_miss_tag,Time Limit,screen,0.0,screen,temp_dist_trial,34.0,s_s_20_1,student_stem,dna model,10.0,unique,single,s_s_20_1.jpg,Student,$${counterbalance_group},,sub-86
Desktop or Laptop,Windows 10,Chrome 130.0.0.0,1600x900,1600x731,Temporal Distance Task,cb_10,83.0,temp_dist_trial,num_items,zn7si1,1.0,response,2_ITEM,2183.5999999999767,2167.0,2183.5999999999767,2183.5999999999767,2167.0,2183.5999999999767,1.0,0.0,0.0,,Click Response,2_count,5.0,object-49,temp_dist_trial,35.0,s_s_07_1,student_stem,periodic table,10.0,unique,paired,s_s_07_1.jpg,Student,$${counterbalance_group},,sub-86
Desktop or Laptop,Windows 10,Chrome 130.0.0.0,1600x900,1600x731,Temporal Distance Task,cb_10,83.0,temp_dist_trial,dist_items,qkpkxw,2.0,info,,16.700000000011638,0.0,16.700000000011638,16.700000000011638,0.0,16.700000000011638,1.0,0.0,0.0,,Slider,Slider,4.0,object-56,temp_dist_trial,35.0,s_s_07_1,student_stem,periodic table,10.0,unique,paired,s_s_07_1.jpg,Student,$${counterbalance_group},,sub-86
Desktop or Laptop,Windows 10,Chrome 130.0.0.0,1600x900,1600x731,Temporal Distance Task,cb_10,83.0,temp_dist_trial,dist_items,qkpkxw,2.0,continue,,3778.599999952305,3766.899999999965,3778.599999952305,3778.599999952305,3766.899999999965,3778.599999952305,1.0,0.0,0.0,,Click To Continue,Next button,7.0,object-60,temp_dist_trial,35.0,s_s_07_1,student_stem,periodic table,10.0,unique,paired,s_s_07_1.jpg,Student,$${counterbalance_group},,sub-86
Desktop or Laptop,Windows 10,Chrome 130.0.0.0,1600x900,1600x731,Temporal Distance Task,cb_10,83.0,temp_dist_trial,dist_items,qkpkxw,2.0,response,43,1666.2999999999884,3766.899999999965,3783.599999999919,1666.2999999999884,3766.899999999965,3783.599999999919,1.0,2117.29999999993,0.0,,Slider,Slider,4.0,object-56,temp_dist_trial,35.0,s_s_07_1,student_stem,periodic table,10.0,unique,paired,s_s_07_1.jpg,Student,$${counterbalance_group},,sub-86
Desktop or Laptop,Windows 10,Chrome 130.0.0.0,1600x900,1600x731,Temporal Distance Task,cb_10,84.0,temp_dist_trial,num_items,zn7si1,1.0,response,2_ITEM,2533.100000000035,2516.4000000000233,2533.100000000035,2533.100000000035,2516.4000000000233,2533.100000000035,1.0,0.0,0.0,,Click Response,2_count,5.0,object-49,temp_dist_trial,36.0,s_sh_19_1,student_shared,portable plastic drawer,10.0,competing,paired,s_sh_19_1.jpg,Student,$${counterbalance_group},,sub-86
Desktop or Laptop,Windows 10,Chrome 130.0.0.0,1600x900,1600x731,Temporal Distance Task,cb_10,84.0,temp_dist_trial,dist_items,qkpkxw,2.0,info,,17.0,0.0,17.0,17.0,0.0,17.0,1.0,0.0,0.0,,Slider,Slider,4.0,object-56,temp_dist_trial,36.0,s_sh_19_1,student_shared,portable plastic drawer,10.0,competing,paired,s_sh_19_1.jpg,Student,$${counterbalance_group},,sub-86
Desktop or Laptop,Windows 10,Chrome 130.0.0.0,1600x900,1600x731,Temporal Distance Task,cb_10,84.0,temp_dist_trial,dist_items,qkpkxw,2.0,continue,,2679.6999999284744,2666.9000000000233,2679.6999999284744,2679.6999999284744,2666.9000000000233,2679.6999999284744,1.0,0.0,0.0,,Click To Continue,Next button,7.0,object-60,temp_dist_trial,36.0,s_sh_19_1,student_shared,portable plastic drawer,10.0,competing,paired,s_sh_19_1.jpg,Student,$${counterbalance_group},,sub-86
Desktop or Laptop,Windows 10,Chrome 130.0.0.0,1600x900,1600x731,Temporal Distance Task,cb_10,84.0,temp_dist_trial,dist_items,qkpkxw,2.0,response,53,1466.9000000000233,2666.9000000000233,2682.099999904633,1466.9000000000233,2666.9000000000233,2682.099999904633,1.0,1215.1999999046093,0.0,,Slider,Slider,4.0,object-56,temp_dist_trial,36.0,s_sh_19_1,student_shared,portable plastic drawer,10.0,competing,paired,s_sh_19_1.jpg,Student,$${counterbalance_group},,sub-86
Desktop or Laptop,Windows 10,Chrome 130.0.0.0,1600x900,1600x731,Temporal Distance Task,cb_10,85.0,temp_dist_trial,num_items,zn7si1,1.0,response,2_ITEM,1106.7999999284511,1099.399999999965,1106.7999999284511,1106.7999999284511,1099.399999999965,1106.7999999284511,1.0,0.0,0.0,,Click Response,2_count,5.0,object-49,temp_dist_trial,37.0,s_a_19_1,student_art,ballet shoes,10.0,unique,paired,s_a_19_1.jpg,Student,$${counterbalance_group},,sub-86
Desktop or Laptop,Windows 10,Chrome 130.0.0.0,1600x900,1600x731,Temporal Distance Task,cb_10,85.0,temp_dist_trial,dist_items,qkpkxw,2.0,info,,16.299999928451143,0.0,16.299999928451143,16.299999928451143,0.0,16.299999928451143,1.0,0.0,0.0,,Slider,Slider,4.0,object-56,temp_dist_trial,37.0,s_a_19_1,student_art,ballet shoes,10.0,unique,paired,s_a_19_1.jpg,Student,$${counterbalance_group},,sub-86
Desktop or Laptop,Windows 10,Chrome 130.0.0.0,1600x900,1600x731,Temporal Distance Task,cb_10,85.0,temp_dist_trial,dist_items,qkpkxw,2.0,continue,,2291.899999952293,2282.7999999999884,2291.899999952293,2291.899999952293,2282.7999999999884,2291.899999952293,1.0,0.0,0.0,,Click To Continue,Next button,7.0,object-60,temp_dist_trial,37.0,s_a_19_1,student_art,ballet shoes,10.0,unique,paired,s_a_19_1.jpg,Student,$${counterbalance_group},,sub-86
Desktop or Laptop,Windows 10,Chrome 130.0.0.0,1600x900,1600x731,Temporal Distance Task,cb_10,85.0,temp_dist_trial,dist_items,qkpkxw,2.0,response,53,900.0,2282.7999999999884,2295.499999976135,900.0,2282.7999999999884,2295.499999976135,1.0,1395.4999999761346,0.0,,Slider,Slider,4.0,object-56,temp_dist_trial,37.0,s_a_19_1,student_art,ballet shoes,10.0,unique,paired,s_a_19_1.jpg,Student,$${counterbalance_group},,sub-86
Desktop or Laptop,Windows 10,Chrome 130.0.0.0,1600x900,1600x731,Temporal Distance Task,cb_10,86.0,temp_dist_trial,num_items,zn7si1,1.0,response,2_ITEM,1249.7000000000114,1233.5,1249.7000000000114,1249.7000000000114,1233.5,1249.7000000000114,1.0,0.0,0.0,,Click Response,2_count,5.0,object-49,temp_dist_trial,38.0,s_sh_12_1,student_shared,binder,10.0,competing,paired,s_sh_12_1.jpg,Student,$${counterbalance_group},,sub-86
Desktop or Laptop,Windows 10,Chrome 130.0.0.0,1600x900,1600x731,Temporal Distance Task,cb_10,86.0,temp_dist_trial,dist_items,qkpkxw,2.0,info,,16.099999999976713,0.0,16.099999999976713,16.099999999976713,0.0,16.099999999976713,1.0,0.0,0.0,,Slider,Slider,4.0,object-56,temp_dist_trial,38.0,s_sh_12_1,student_shared,binder,10.0,competing,paired,s_sh_12_1.jpg,Student,$${counterbalance_group},,sub-86
Desktop or Laptop,Windows 10,Chrome 130.0.0.0,1600x900,1600x731,Temporal Distance Task,cb_10,86.0,temp_dist_trial,dist_items,qkpkxw,2.0,continue,,3175.099999904633,3166.700000000012,3175.099999904633,3175.099999904633,3166.700000000012,3175.099999904633,1.0,0.0,0.0,,Click To Continue,Next button,7.0,object-60,temp_dist_trial,38.0,s_sh_12_1,student_shared,binder,10.0,competing,paired,s_sh_12_1.jpg,Student,$${counterbalance_group},,sub-86
Desktop or Laptop,Windows 10,Chrome 130.0.0.0,1600x900,1600x731,Temporal Distance Task,cb_10,86.0,temp_dist_trial,dist_items,qkpkxw,2.0,response,55,783.5999999999768,3166.700000000012,3176.0,783.5999999999768,3166.700000000012,3176.0,1.0,2392.4000000000233,0.0,,Slider,Slider,4.0,object-56,temp_dist_trial,38.0,s_sh_12_1,student_shared,binder,10.0,competing,paired,s_sh_12_1.jpg,Student,$${counterbalance_group},,sub-86
Desktop or Laptop,Windows 10,Chrome 130.0.0.0,1600x900,1600x731,Temporal Distance Task,cb_10,87.0,temp_dist_trial,num_items,zn7si1,1.0,response,1_ITEM,1232.9999999284628,1217.0,1232.9999999284628,1232.9999999284628,1217.0,1232.9999999284628,1.0,0.0,0.0,,Click Response,1_count,3.0,object-46,temp_dist_trial,39.0,s_sh_20_1,student_shared,tape,10.0,competing,single,s_sh_20_1.jpg,Student,$${counterbalance_group},,sub-86
Desktop or Laptop,Windows 10,Chrome 130.0.0.0,1600x900,1600x731,Temporal Distance Task,cb_10,88.0,temp_dist_trial,num_items,zn7si1,1.0,response,1_ITEM,1822.6999999046093,1816.5999999999767,1822.6999999046093,1822.6999999046093,1816.5999999999767,1822.6999999046093,1.0,0.0,0.0,,Click Response,1_count,3.0,object-46,temp_dist_trial,40.0,s_s_10_1,student_stem,3d molecule,10.0,unique,paired,s_s_10_1.jpg,Student,$${counterbalance_group},,sub-86
Desktop or Laptop,Windows 10,Chrome 130.0.0.0,1600x900,1600x731,Temporal Distance Task,cb_10,89.0,temp_dist_trial,num_items,zn7si1,1.0,response,2_ITEM,1500.8000000000463,1483.9000000000233,1500.8000000000463,1500.8000000000463,1483.9000000000233,1500.8000000000463,1.0,0.0,0.0,,Click Response,2_count,5.0,object-49,temp_dist_trial,41.0,s_sh_16_1,student_shared,stapler,10.0,competing,paired,s_sh_16_1.jpg,Student,$${counterbalance_group},,sub-86
Desktop or Laptop,Windows 10,Chrome 130.0.0.0,1600x900,1600x731,Temporal Distance Task,cb_10,89.0,temp_dist_trial,dist_items,qkpkxw,2.0,info,,16.599999999976713,0.0,16.599999999976713,16.599999999976713,0.0,16.599999999976713,1.0,0.0,0.0,,Slider,Slider,4.0,object-56,temp_dist_trial,41.0,s_sh_16_1,student_shared,stapler,10.0,competing,paired,s_sh_16_1.jpg,Student,$${counterbalance_group},,sub-86
Desktop or Laptop,Windows 10,Chrome 130.0.0.0,1600x900,1600x731,Temporal Distance Task,cb_10,89.0,temp_dist_trial,dist_items,qkpkxw,2.0,continue,,3563.3999999284856,3550.700000000012,3563.3999999284856,3563.3999999284856,3550.700000000012,3563.3999999284856,1.0,0.0,0.0,,Click To Continue,Next button,7.0,object-60,temp_dist_trial,41.0,s_sh_16_1,student_shared,stapler,10.0,competing,paired,s_sh_16_1.jpg,Student,$${counterbalance_group},,sub-86
Desktop or Laptop,Windows 10,Chrome 130.0.0.0,1600x900,1600x731,Temporal Distance Task,cb_10,89.0,temp_dist_trial,dist_items,qkpkxw,2.0,response,46,1833.7000000000119,3550.700000000012,3567.5,1833.7000000000119,3550.700000000012,3567.5,1.0,1733.7999999999884,0.0,,Slider,Slider,4.0,object-56,temp_dist_trial,41.0,s_sh_16_1,student_shared,stapler,10.0,competing,paired,s_sh_16_1.jpg,Student,$${counterbalance_group},,sub-86
Desktop or Laptop,Windows 10,Chrome 130.0.0.0,1600x900,1600x731,Temporal Distance Task,cb_10,90.0,temp_dist_trial,num_items,zn7si1,1.0,response,1_ITEM,1395.3999999761581,1382.9000000000233,1395.3999999761581,1395.3999999761581,1382.9000000000233,1395.3999999761581,1.0,0.0,0.0,,Click Response,1_count,3.0,object-46,temp_dist_trial,42.0,s_a_06_1,student_art,pastels,10.0,unique,single,s_a_06_1.jpg,Student,$${counterbalance_group},,sub-86
Desktop or Laptop,Windows 10,Chrome 130.0.0.0,1600x900,1600x731,Temporal Distance Task,cb_10,91.0,temp_dist_trial,num_items,zn7si1,1.0,response,1_ITEM,1224.2999999999886,1216.0999999999767,1224.2999999999886,1224.2999999999886,1216.0999999999767,1224.2999999999886,1.0,0.0,0.0,,Click Response,1_count,3.0,object-46,temp_dist_trial,43.0,s_s_16_1,student_stem,toolbox,10.0,unique,single,s_s_16_1.jpg,Student,$${counterbalance_group},,sub-86
Desktop or Laptop,Windows 10,Chrome 130.0.0.0,1600x900,1600x731,Temporal Distance Task,cb_10,92.0,temp_dist_trial,num_items,zn7si1,1.0,response,1_ITEM,1177.499999952328,1167.5,1177.499999952328,1177.499999952328,1167.5,1177.499999952328,1.0,0.0,0.0,,Click Response,1_count,3.0,object-46,temp_dist_trial,44.0,s_a_16_1,student_art,piano,10.0,unique,paired,s_a_16_1.jpg,Student,$${counterbalance_group},,sub-86
Desktop or Laptop,Windows 10,Chrome 130.0.0.0,1600x900,1600x731,Temporal Distance Task,cb_10,93.0,temp_dist_trial,num_items,zn7si1,1.0,response,1_ITEM,1461.1999999523396,1450.9000000000233,1461.1999999523396,1461.1999999523396,1450.9000000000233,1461.1999999523396,1.0,0.0,0.0,,Click Response,1_count,3.0,object-46,temp_dist_trial,45.0,s_sh_10_1,student_shared,scissors,10.0,competing,paired,s_sh_10_1.jpg,Student,$${counterbalance_group},,sub-86
Desktop or Laptop,Windows 10,Chrome 130.0.0.0,1600x900,1600x731,Temporal Distance Task,cb_10,94.0,temp_dist_trial,num_items,zn7si1,1.0,response,1_ITEM,1929.7999999284511,1916.1999999999528,1929.7999999284511,1929.7999999284511,1916.1999999999528,1929.7999999284511,1.0,0.0,0.0,,Click Response,1_count,3.0,object-46,temp_dist_trial,46.0,s_sh_18_1,student_shared,wall calendar,10.0,competing,single,s_sh_18_1.jpg,Student,$${counterbalance_group},,sub-86
