Participant Device,Participant OS,Participant Browser,Participant Monitor Size,Participant Viewport Size,Task Name,Current Spreadsheet,Trial Number,Display,Screen,Screen ID,Screen Counter,Response Type,Response,Onset Time,Clock Time,Reaction Time,Absolute Onset Time,Absolute Clock Time,Absolute Reaction Time,Correct,Response Duration,Proportion,Tag,Component Name,Object Name,Object Number,Object ID,Spreadsheet: display,Spreadsheet: trial,Spreadsheet: stimulus_id,Spreadsheet: expected_goal,Spreadsheet: stimulus_name,Spreadsheet: c_group,Spreadsheet: condition,Spreadsheet: paired_status,Spreadsheet: stimulus_path,Spreadsheet: block_type,Manipulation: Spreadsheet,Store: enc_test_acc,sub_label
Desktop or Laptop,Windows 10,Edge 138.0.0.0,1920x1080,1912x954,Temporal Distance Task,$${counterbalance_group},,,,,,info,BEGIN,,,,,,,0.0,,,,,,,,,,,,,,,,,,,,sub-25
Desktop or Laptop,Windows 10,Edge 138.0.0.0,1920x1080,1912x954,Temporal Distance Task,cb_06,1.0,temp_instructions,intro_screen,3tnme7,1.0,continue,,15055.599999964235,15049.8,15055.599999964235,15055.599999964235,15049.8,15055.599999964235,1.0,0.0,0.0,,Click To Continue,Continue Button,4.0,object-29,temp_instructions,,,Travel,,,,,,,,,sub-25
Desktop or Laptop,Windows 10,Edge 138.0.0.0,1920x1080,1912x954,Temporal Distance Task,cb_06,1.0,temp_instructions,intro_screen_2,52v7ur,2.0,continue,,4700.100000000002,4683.4000000000015,4700.100000000002,4700.100000000002,4683.4000000000015,4700.100000000002,1.0,0.0,0.0,,Click To Continue,Continue Button,4.0,object-39,temp_instructions,,,Travel,,,,,,,,,sub-25
Desktop or Laptop,Windows 10,Edge 138.0.0.0,1920x1080,1912x954,Temporal Distance Task,cb_06,1.0,temp_instructions,intro_screen_3,i7lvwx,3.0,continue,,3827.60000001192,3816.8999999999987,3827.60000001192,3827.60000001192,3816.8999999999987,3827.60000001192,1.0,0.0,0.0,,Click To Continue,Continue Button,4.0,object-67,temp_instructions,,,Travel,,,,,,,,,sub-25
Desktop or Laptop,Windows 10,Edge 138.0.0.0,1920x1080,1912x954,Temporal Distance Task,cb_06,1.0,temp_instructions,test_q1,5ieqx1,4.0,response,choice_3,3632.800000000003,3616.400000000001,3632.800000000003,3632.800000000003,3616.400000000001,3632.800000000003,1.0,0.0,0.0,,Click Response,choice_3,5.0,object-345,temp_instructions,,,Travel,,,,,,,,,sub-25
Desktop or Laptop,Windows 10,Edge 138.0.0.0,1920x1080,1912x954,Temporal Distance Task,cb_06,1.0,temp_instructions,score_corr,7ilvjr,5.0,continue,,1283.199999988079,1266.9000000000015,1283.199999988079,1283.199999988079,1266.9000000000015,1283.199999988079,1.0,0.0,0.0,,Click To Continue,Continue Button,3.0,object-23,temp_instructions,,,Travel,,,,,,,,,sub-25
Desktop or Laptop,Windows 10,Edge 138.0.0.0,1920x1080,1912x954,Temporal Distance Task,cb_06,1.0,temp_eventStart,Screen 1,dgtyxe,1.0,continue,,1187.9000000119195,1183.6999999999969,1187.9000000119195,1187.9000000119195,1183.6999999999969,1187.9000000119195,1.0,0.0,0.0,,Click To Continue,Next Button,3.0,object-43,temp_eventStart,,,Travel,,,,,,,,,sub-25
Desktop or Laptop,Windows 10,Edge 138.0.0.0,1920x1080,1912x954,Temporal Distance Task,cb_06,1.0,temp_dist_trial,num_items,zn7si1,1.0,response,2_ITEM,1744.499999964239,1732.7000000000046,1744.499999964239,1744.499999964239,1732.7000000000046,1744.499999964239,1.0,0.0,0.0,,Click Response,2_count,5.0,object-49,temp_dist_trial,1.0,t_i_05_1,travel_Iceland,hiking boots,6.0,unique,single,t_i_05_1.jpg,Travel,,,sub-25
Desktop or Laptop,Windows 10,Edge 138.0.0.0,1920x1080,1912x954,Temporal Distance Task,cb_06,1.0,temp_dist_trial,dist_items,qkpkxw,2.0,info,,16.400000000001455,0.0,16.400000000001455,16.400000000001455,0.0,16.400000000001455,1.0,0.0,0.0,,Slider,Slider,4.0,object-56,temp_dist_trial,1.0,t_i_05_1,travel_Iceland,hiking boots,6.0,unique,single,t_i_05_1.jpg,Travel,,,sub-25
Desktop or Laptop,Windows 10,Edge 138.0.0.0,1920x1080,1912x954,Temporal Distance Task,cb_06,1.0,temp_dist_trial,dist_items,qkpkxw,2.0,continue,,6125.099999976155,6116.699999999998,6125.099999976155,6125.099999976155,6116.699999999998,6125.099999976155,1.0,0.0,0.0,,Click To Continue,Next button,7.0,object-60,temp_dist_trial,1.0,t_i_05_1,travel_Iceland,hiking boots,6.0,unique,single,t_i_05_1.jpg,Travel,,,sub-25
Desktop or Laptop,Windows 10,Edge 138.0.0.0,1920x1080,1912x954,Temporal Distance Task,cb_06,1.0,temp_dist_trial,dist_items,qkpkxw,2.0,response,68,1100.0999999999983,6116.699999999998,6133.299999999997,1100.0999999999983,6116.699999999998,6133.299999999997,1.0,5033.199999999997,0.0,,Slider,Slider,4.0,object-56,temp_dist_trial,1.0,t_i_05_1,travel_Iceland,hiking boots,6.0,unique,single,t_i_05_1.jpg,Travel,,,sub-25
Desktop or Laptop,Windows 10,Edge 138.0.0.0,1920x1080,1912x954,Temporal Distance Task,cb_06,2.0,temp_dist_trial,num_items,zn7si1,1.0,response,1_ITEM,1694.0999999642374,1683.5,1694.0999999642374,1694.0999999642374,1683.5,1694.0999999642374,1.0,0.0,0.0,,Click Response,1_count,3.0,object-46,temp_dist_trial,2.0,t_s_18_1,travel_shared,first aid kit,6.0,competing,single,t_s_18_1.jpg,Travel,,,sub-25
Desktop or Laptop,Windows 10,Edge 138.0.0.0,1920x1080,1912x954,Temporal Distance Task,cb_06,3.0,temp_dist_trial,num_items,zn7si1,1.0,response,2_ITEM,1800.6999999999966,1783.6999999999966,1800.6999999999966,1800.6999999999966,1783.6999999999966,1800.6999999999966,1.0,0.0,0.0,,Click Response,2_count,5.0,object-49,temp_dist_trial,3.0,t_s_13_1,travel_shared,contact lens case,6.0,competing,paired,t_s_13_1.jpg,Travel,,,sub-25
Desktop or Laptop,Windows 10,Edge 138.0.0.0,1920x1080,1912x954,Temporal Distance Task,cb_06,3.0,temp_dist_trial,dist_items,qkpkxw,2.0,info,,14.400000011919474,0.0,14.400000011919474,14.400000011919474,0.0,14.400000011919474,1.0,0.0,0.0,,Slider,Slider,4.0,object-56,temp_dist_trial,3.0,t_s_13_1,travel_shared,contact lens case,6.0,competing,paired,t_s_13_1.jpg,Travel,,,sub-25
Desktop or Laptop,Windows 10,Edge 138.0.0.0,1920x1080,1912x954,Temporal Distance Task,cb_06,3.0,temp_dist_trial,dist_items,qkpkxw,2.0,continue,,5799.499999999993,5783.199999999998,5799.499999999993,5799.499999999993,5783.199999999998,5799.499999999993,1.0,0.0,0.0,,Click To Continue,Next button,7.0,object-60,temp_dist_trial,3.0,t_s_13_1,travel_shared,contact lens case,6.0,competing,paired,t_s_13_1.jpg,Travel,,,sub-25
Desktop or Laptop,Windows 10,Edge 138.0.0.0,1920x1080,1912x954,Temporal Distance Task,cb_06,3.0,temp_dist_trial,dist_items,qkpkxw,2.0,response,68,4966.799999999996,5783.199999999998,5799.499999999993,4966.799999999996,5783.199999999998,5799.499999999993,1.0,832.6999999999971,0.0,,Slider,Slider,4.0,object-56,temp_dist_trial,3.0,t_s_13_1,travel_shared,contact lens case,6.0,competing,paired,t_s_13_1.jpg,Travel,,,sub-25
Desktop or Laptop,Windows 10,Edge 138.0.0.0,1920x1080,1912x954,Temporal Distance Task,cb_06,4.0,temp_dist_trial,num_items,zn7si1,1.0,response,1_ITEM,2614.400000000001,2599.900000000001,2614.400000000001,2614.400000000001,2599.900000000001,2614.400000000001,1.0,0.0,0.0,,Click Response,1_count,3.0,object-46,temp_dist_trial,4.0,t_i_11_1,travel_Iceland,headlamp,6.0,unique,paired,t_i_11_1.jpg,Travel,,,sub-25
Desktop or Laptop,Windows 10,Edge 138.0.0.0,1920x1080,1912x954,Temporal Distance Task,cb_06,5.0,temp_dist_trial,num_items,zn7si1,1.0,response,1_ITEM,1513.6999999642358,1499.6999999999966,1513.6999999642358,1513.6999999642358,1499.6999999999966,1513.6999999642358,1.0,0.0,0.0,,Click Response,1_count,3.0,object-46,temp_dist_trial,5.0,t_s_07_1,travel_shared,phone charger cable,6.0,competing,single,t_s_07_1.jpg,Travel,,,sub-25
Desktop or Laptop,Windows 10,Edge 138.0.0.0,1920x1080,1912x954,Temporal Distance Task,cb_06,6.0,temp_dist_trial,num_items,zn7si1,1.0,response,2_ITEM,1745.5,1733.5999999999985,1745.5,1745.5,1733.5999999999985,1745.5,1.0,0.0,0.0,,Click Response,2_count,5.0,object-49,temp_dist_trial,6.0,t_i_12_1,travel_Iceland,tent,6.0,unique,paired,t_i_12_1.jpg,Travel,,,sub-25
Desktop or Laptop,Windows 10,Edge 138.0.0.0,1920x1080,1912x954,Temporal Distance Task,cb_06,6.0,temp_dist_trial,dist_items,qkpkxw,2.0,info,,14.19999999999709,0.0,14.19999999999709,14.19999999999709,0.0,14.19999999999709,1.0,0.0,0.0,,Slider,Slider,4.0,object-56,temp_dist_trial,6.0,t_i_12_1,travel_Iceland,tent,6.0,unique,paired,t_i_12_1.jpg,Travel,,,sub-25
Desktop or Laptop,Windows 10,Edge 138.0.0.0,1920x1080,1912x954,Temporal Distance Task,cb_06,6.0,temp_dist_trial,dist_items,qkpkxw,2.0,response,dist_miss,7000.0,7000.0,7000.0,7000.0,7000.0,7000.0,1.0,0.0,0.0,dist_miss_tag,Time Limit,screen,0.0,screen,temp_dist_trial,6.0,t_i_12_1,travel_Iceland,tent,6.0,unique,paired,t_i_12_1.jpg,Travel,,,sub-25
Desktop or Laptop,Windows 10,Edge 138.0.0.0,1920x1080,1912x954,Temporal Distance Task,cb_06,6.0,temp_dist_trial,dist_items,qkpkxw,2.0,response,88,4816.799999999996,7000.0,7006.699999999998,4816.799999999996,7000.0,7006.699999999998,1.0,2189.900000000001,0.0,,Slider,Slider,4.0,object-56,temp_dist_trial,6.0,t_i_12_1,travel_Iceland,tent,6.0,unique,paired,t_i_12_1.jpg,Travel,,,sub-25
Desktop or Laptop,Windows 10,Edge 138.0.0.0,1920x1080,1912x954,Temporal Distance Task,cb_06,7.0,temp_dist_trial,num_items,zn7si1,1.0,response,2_ITEM,2113.199999999997,2100.3999999999937,2113.199999999997,2113.199999999997,2100.3999999999937,2113.199999999997,1.0,0.0,0.0,,Click Response,2_count,5.0,object-49,temp_dist_trial,7.0,t_m_02_1,travel_Miami,t-shirt,6.0,unique,single,t_m_02_1.jpg,Travel,,,sub-25
Desktop or Laptop,Windows 10,Edge 138.0.0.0,1920x1080,1912x954,Temporal Distance Task,cb_06,7.0,temp_dist_trial,dist_items,qkpkxw,2.0,info,,14.499999964231396,0.0,14.499999964231396,14.499999964231396,0.0,14.499999964231396,1.0,0.0,0.0,,Slider,Slider,4.0,object-56,temp_dist_trial,7.0,t_m_02_1,travel_Miami,t-shirt,6.0,unique,single,t_m_02_1.jpg,Travel,,,sub-25
Desktop or Laptop,Windows 10,Edge 138.0.0.0,1920x1080,1912x954,Temporal Distance Task,cb_06,7.0,temp_dist_trial,dist_items,qkpkxw,2.0,continue,,2973.4999999642314,2966.5999999999913,2973.4999999642314,2973.4999999642314,2966.5999999999913,2973.4999999642314,1.0,0.0,0.0,,Click To Continue,Next button,7.0,object-60,temp_dist_trial,7.0,t_m_02_1,travel_Miami,t-shirt,6.0,unique,single,t_m_02_1.jpg,Travel,,,sub-25
Desktop or Laptop,Windows 10,Edge 138.0.0.0,1920x1080,1912x954,Temporal Distance Task,cb_06,7.0,temp_dist_trial,dist_items,qkpkxw,2.0,response,62,1983.3999999999944,2966.5999999999913,2975.2999999761523,1983.3999999999944,2966.5999999999913,2975.2999999761523,1.0,991.899999976158,0.0,,Slider,Slider,4.0,object-56,temp_dist_trial,7.0,t_m_02_1,travel_Miami,t-shirt,6.0,unique,single,t_m_02_1.jpg,Travel,,,sub-25
Desktop or Laptop,Windows 10,Edge 138.0.0.0,1920x1080,1912x954,Temporal Distance Task,cb_06,8.0,temp_dist_trial,num_items,zn7si1,1.0,response,2_ITEM,1682.1000000119238,1666.8000000000034,1682.1000000119238,1682.1000000119238,1666.8000000000034,1682.1000000119238,1.0,0.0,0.0,,Click Response,2_count,5.0,object-49,temp_dist_trial,8.0,t_s_19_1,travel_shared,pajamas,6.0,competing,paired,t_s_19_1.jpg,Travel,,,sub-25
Desktop or Laptop,Windows 10,Edge 138.0.0.0,1920x1080,1912x954,Temporal Distance Task,cb_06,8.0,temp_dist_trial,dist_items,qkpkxw,2.0,info,,13.399999976158142,0.0,13.399999976158142,13.399999976158142,0.0,13.399999976158142,1.0,0.0,0.0,,Slider,Slider,4.0,object-56,temp_dist_trial,8.0,t_s_19_1,travel_shared,pajamas,6.0,competing,paired,t_s_19_1.jpg,Travel,,,sub-25
Desktop or Laptop,Windows 10,Edge 138.0.0.0,1920x1080,1912x954,Temporal Distance Task,cb_06,8.0,temp_dist_trial,dist_items,qkpkxw,2.0,continue,,4161.800000011921,4149.800000000003,4161.800000011921,4161.800000011921,4149.800000000003,4161.800000011921,1.0,0.0,0.0,,Click To Continue,Next button,7.0,object-60,temp_dist_trial,8.0,t_s_19_1,travel_shared,pajamas,6.0,competing,paired,t_s_19_1.jpg,Travel,,,sub-25
Desktop or Laptop,Windows 10,Edge 138.0.0.0,1920x1080,1912x954,Temporal Distance Task,cb_06,8.0,temp_dist_trial,dist_items,qkpkxw,2.0,response,77,1667.0,4149.800000000003,4166.100000000006,1667.0,4149.800000000003,4166.100000000006,1.0,2499.1000000000063,0.0,,Slider,Slider,4.0,object-56,temp_dist_trial,8.0,t_s_19_1,travel_shared,pajamas,6.0,competing,paired,t_s_19_1.jpg,Travel,,,sub-25
Desktop or Laptop,Windows 10,Edge 138.0.0.0,1920x1080,1912x954,Temporal Distance Task,cb_06,9.0,temp_dist_trial,num_items,zn7si1,1.0,response,1_ITEM,2516.5999999999913,2500.199999999997,2516.5999999999913,2516.5999999999913,2500.199999999997,2516.5999999999913,1.0,0.0,0.0,,Click Response,1_count,3.0,object-46,temp_dist_trial,9.0,t_s_11_1,travel_shared,eye mask,6.0,competing,single,t_s_11_1.jpg,Travel,,,sub-25
Desktop or Laptop,Windows 10,Edge 138.0.0.0,1920x1080,1912x954,Temporal Distance Task,cb_06,10.0,temp_dist_trial,num_items,zn7si1,1.0,response,1_ITEM,1561.1999999999966,1549.6999999999966,1561.1999999999966,1561.1999999999966,1549.6999999999966,1561.1999999999966,1.0,0.0,0.0,,Click Response,1_count,3.0,object-46,temp_dist_trial,10.0,t_s_04_1,travel_shared,instant camera,6.0,competing,paired,t_s_04_1.jpg,Travel,,,sub-25
Desktop or Laptop,Windows 10,Edge 138.0.0.0,1920x1080,1912x954,Temporal Distance Task,cb_06,11.0,temp_dist_trial,num_items,zn7si1,1.0,response,2_ITEM,1307.9999999642316,1299.6999999999969,1307.9999999642316,1307.9999999642316,1299.6999999999969,1307.9999999642316,1.0,0.0,0.0,,Click Response,2_count,5.0,object-49,temp_dist_trial,11.0,t_m_20_1,travel_Miami,inflatable beachball,6.0,unique,paired,t_m_20_1.jpg,Travel,,,sub-25
Desktop or Laptop,Windows 10,Edge 138.0.0.0,1920x1080,1912x954,Temporal Distance Task,cb_06,11.0,temp_dist_trial,dist_items,qkpkxw,2.0,info,,15.400000011926751,0.0,15.400000011926751,15.400000011926751,0.0,15.400000011926751,1.0,0.0,0.0,,Slider,Slider,4.0,object-56,temp_dist_trial,11.0,t_m_20_1,travel_Miami,inflatable beachball,6.0,unique,paired,t_m_20_1.jpg,Travel,,,sub-25
Desktop or Laptop,Windows 10,Edge 138.0.0.0,1920x1080,1912x954,Temporal Distance Task,cb_06,11.0,temp_dist_trial,dist_items,qkpkxw,2.0,continue,,2849.800000000017,2833.200000000012,2849.800000000017,2849.800000000017,2833.200000000012,2849.800000000017,1.0,0.0,0.0,,Click To Continue,Next button,7.0,object-60,temp_dist_trial,11.0,t_m_20_1,travel_Miami,inflatable beachball,6.0,unique,paired,t_m_20_1.jpg,Travel,,,sub-25
Desktop or Laptop,Windows 10,Edge 138.0.0.0,1920x1080,1912x954,Temporal Distance Task,cb_06,11.0,temp_dist_trial,dist_items,qkpkxw,2.0,response,39,1999.8000000000034,2833.200000000012,2849.800000000017,1999.8000000000034,2833.200000000012,2849.800000000017,1.0,850.0000000000148,0.0,,Slider,Slider,4.0,object-56,temp_dist_trial,11.0,t_m_20_1,travel_Miami,inflatable beachball,6.0,unique,paired,t_m_20_1.jpg,Travel,,,sub-25
Desktop or Laptop,Windows 10,Edge 138.0.0.0,1920x1080,1912x954,Temporal Distance Task,cb_06,12.0,temp_dist_trial,num_items,zn7si1,1.0,response,2_ITEM,1466.3000000000034,1450.0,1466.3000000000034,1466.3000000000034,1450.0,1466.3000000000034,1.0,0.0,0.0,,Click Response,2_count,5.0,object-49,temp_dist_trial,12.0,t_m_11_1,travel_Miami,collapsible beach chair,6.0,unique,paired,t_m_11_1.jpg,Travel,,,sub-25
Desktop or Laptop,Windows 10,Edge 138.0.0.0,1920x1080,1912x954,Temporal Distance Task,cb_06,12.0,temp_dist_trial,dist_items,qkpkxw,2.0,info,,11.0,0.0,11.0,11.0,0.0,11.0,1.0,0.0,0.0,,Slider,Slider,4.0,object-56,temp_dist_trial,12.0,t_m_11_1,travel_Miami,collapsible beach chair,6.0,unique,paired,t_m_11_1.jpg,Travel,,,sub-25
Desktop or Laptop,Windows 10,Edge 138.0.0.0,1920x1080,1912x954,Temporal Distance Task,cb_06,12.0,temp_dist_trial,dist_items,qkpkxw,2.0,response,dist_miss,7000.0,7000.0,7000.0,7000.0,7000.0,7000.0,1.0,0.0,0.0,dist_miss_tag,Time Limit,screen,0.0,screen,temp_dist_trial,12.0,t_m_11_1,travel_Miami,collapsible beach chair,6.0,unique,paired,t_m_11_1.jpg,Travel,,,sub-25
Desktop or Laptop,Windows 10,Edge 138.0.0.0,1920x1080,1912x954,Temporal Distance Task,cb_06,12.0,temp_dist_trial,dist_items,qkpkxw,2.0,response,85,4867.0,7000.0,7002.899999976158,4867.0,7000.0,7002.899999976158,1.0,2135.899999976158,0.0,,Slider,Slider,4.0,object-56,temp_dist_trial,12.0,t_m_11_1,travel_Miami,collapsible beach chair,6.0,unique,paired,t_m_11_1.jpg,Travel,,,sub-25
Desktop or Laptop,Windows 10,Edge 138.0.0.0,1920x1080,1912x954,Temporal Distance Task,cb_06,13.0,temp_dist_trial,num_items,zn7si1,1.0,response,1_ITEM,1953.0,1950.1000000000056,1953.0,1953.0,1950.1000000000056,1953.0,1.0,0.0,0.0,,Click Response,1_count,3.0,object-46,temp_dist_trial,13.0,t_s_22_1,travel_shared,belt,6.0,competing,single,t_s_22_1.jpg,Travel,,,sub-25
Desktop or Laptop,Windows 10,Edge 138.0.0.0,1920x1080,1912x954,Temporal Distance Task,cb_06,14.0,temp_dist_trial,num_items,zn7si1,1.0,response,1_ITEM,1603.2999999761525,1600.0,1603.2999999761525,1603.2999999761525,1600.0,1603.2999999761525,1.0,0.0,0.0,,Click Response,1_count,3.0,object-46,temp_dist_trial,14.0,t_i_13_1,travel_Iceland,sleeping bag,6.0,unique,single,t_i_13_1.jpg,Travel,,,sub-25
Desktop or Laptop,Windows 10,Edge 138.0.0.0,1920x1080,1912x954,Temporal Distance Task,cb_06,15.0,temp_dist_trial,num_items,zn7si1,1.0,response,2_ITEM,953.8999999880763,949.8000000000028,953.8999999880763,953.8999999880763,949.8000000000028,953.8999999880763,1.0,0.0,0.0,,Click Response,2_count,5.0,object-49,temp_dist_trial,15.0,t_s_06_1,travel_shared,luggage,6.0,competing,paired,t_s_06_1.jpg,Travel,,,sub-25
Desktop or Laptop,Windows 10,Edge 138.0.0.0,1920x1080,1912x954,Temporal Distance Task,cb_06,15.0,temp_dist_trial,dist_items,qkpkxw,2.0,info,,12.999999964231396,0.0,12.999999964231396,12.999999964231396,0.0,12.999999964231396,1.0,0.0,0.0,,Slider,Slider,4.0,object-56,temp_dist_trial,15.0,t_s_06_1,travel_shared,luggage,6.0,competing,paired,t_s_06_1.jpg,Travel,,,sub-25
Desktop or Laptop,Windows 10,Edge 138.0.0.0,1920x1080,1912x954,Temporal Distance Task,cb_06,15.0,temp_dist_trial,dist_items,qkpkxw,2.0,continue,,4874.999999964231,4867.0,4874.999999964231,4874.999999964231,4867.0,4874.999999964231,1.0,0.0,0.0,,Click To Continue,Next button,7.0,object-60,temp_dist_trial,15.0,t_s_06_1,travel_shared,luggage,6.0,competing,paired,t_s_06_1.jpg,Travel,,,sub-25
Desktop or Laptop,Windows 10,Edge 138.0.0.0,1920x1080,1912x954,Temporal Distance Task,cb_06,15.0,temp_dist_trial,dist_items,qkpkxw,2.0,response,33,1317.1999999999969,4867.0,4875.999999964231,1317.1999999999969,4867.0,4875.999999964231,1.0,3558.799999964235,0.0,,Slider,Slider,4.0,object-56,temp_dist_trial,15.0,t_s_06_1,travel_shared,luggage,6.0,competing,paired,t_s_06_1.jpg,Travel,,,sub-25
Desktop or Laptop,Windows 10,Edge 138.0.0.0,1920x1080,1912x954,Temporal Distance Task,cb_06,16.0,temp_dist_trial,num_items,zn7si1,1.0,response,1_ITEM,961.8999999999942,950.0,961.8999999999942,961.8999999999942,950.0,961.8999999999942,1.0,0.0,0.0,,Click Response,1_count,3.0,object-46,temp_dist_trial,16.0,t_i_09_1,travel_Iceland,ear muffs,6.0,unique,single,t_i_09_1.jpg,Travel,,,sub-25
Desktop or Laptop,Windows 10,Edge 138.0.0.0,1920x1080,1912x954,Temporal Distance Task,cb_06,17.0,temp_dist_trial,num_items,zn7si1,1.0,response,1_ITEM,1215.500000011918,1200.3000000000031,1215.500000011918,1215.500000011918,1200.3000000000031,1215.500000011918,1.0,0.0,0.0,,Click Response,1_count,3.0,object-46,temp_dist_trial,17.0,t_i_03_1,travel_Iceland,winter jacket,6.0,unique,paired,t_i_03_1.jpg,Travel,,,sub-25
Desktop or Laptop,Windows 10,Edge 138.0.0.0,1920x1080,1912x954,Temporal Distance Task,cb_06,18.0,temp_dist_trial,num_items,zn7si1,1.0,response,1_ITEM,1080.3999999642401,1066.8000000000031,1080.3999999642401,1080.3999999642401,1066.8000000000031,1080.3999999642401,1.0,0.0,0.0,,Click Response,1_count,3.0,object-46,temp_dist_trial,18.0,t_i_15_1,travel_Iceland,compass,6.0,unique,single,t_i_15_1.jpg,Travel,,,sub-25
Desktop or Laptop,Windows 10,Edge 138.0.0.0,1920x1080,1912x954,Temporal Distance Task,cb_06,19.0,temp_dist_trial,num_items,zn7si1,1.0,response,2_ITEM,1624.7999999642345,1616.3999999999942,1624.7999999642345,1624.7999999642345,1616.3999999999942,1624.7999999642345,1.0,0.0,0.0,,Click Response,2_count,5.0,object-49,temp_dist_trial,19.0,t_i_06_1,travel_Iceland,knit hat,6.0,unique,paired,t_i_06_1.jpg,Travel,,,sub-25
Desktop or Laptop,Windows 10,Edge 138.0.0.0,1920x1080,1912x954,Temporal Distance Task,cb_06,19.0,temp_dist_trial,dist_items,qkpkxw,2.0,info,,9.699999964243032,0.0,9.699999964243032,9.699999964243032,0.0,9.699999964243032,1.0,0.0,0.0,,Slider,Slider,4.0,object-56,temp_dist_trial,19.0,t_i_06_1,travel_Iceland,knit hat,6.0,unique,paired,t_i_06_1.jpg,Travel,,,sub-25
Desktop or Laptop,Windows 10,Edge 138.0.0.0,1920x1080,1912x954,Temporal Distance Task,cb_06,19.0,temp_dist_trial,dist_items,qkpkxw,2.0,continue,,4282.799999988085,4266.700000000013,4282.799999988085,4282.799999988085,4266.700000000013,4282.799999988085,1.0,0.0,0.0,,Click To Continue,Next button,7.0,object-60,temp_dist_trial,19.0,t_i_06_1,travel_Iceland,knit hat,6.0,unique,paired,t_i_06_1.jpg,Travel,,,sub-25
Desktop or Laptop,Windows 10,Edge 138.0.0.0,1920x1080,1912x954,Temporal Distance Task,cb_06,19.0,temp_dist_trial,dist_items,qkpkxw,2.0,response,83,3316.400000000009,4266.700000000013,4283.200000000013,3316.400000000009,4266.700000000013,4283.200000000013,1.0,966.8000000000028,0.0,,Slider,Slider,4.0,object-56,temp_dist_trial,19.0,t_i_06_1,travel_Iceland,knit hat,6.0,unique,paired,t_i_06_1.jpg,Travel,,,sub-25
Desktop or Laptop,Windows 10,Edge 138.0.0.0,1920x1080,1912x954,Temporal Distance Task,cb_06,20.0,temp_dist_trial,num_items,zn7si1,1.0,response,1_ITEM,1720.8999999999942,1716.5,1720.8999999999942,1720.8999999999942,1716.5,1720.8999999999942,1.0,0.0,0.0,,Click Response,1_count,3.0,object-46,temp_dist_trial,20.0,t_s_03_1,travel_shared,portable charger,6.0,competing,paired,t_s_03_1.jpg,Travel,,,sub-25
Desktop or Laptop,Windows 10,Edge 138.0.0.0,1920x1080,1912x954,Temporal Distance Task,cb_06,21.0,temp_dist_trial,num_items,zn7si1,1.0,response,1_ITEM,2195.499999976164,2183.4000000000087,2195.499999976164,2195.499999976164,2183.4000000000087,2195.499999976164,1.0,0.0,0.0,,Click Response,1_count,3.0,object-46,temp_dist_trial,21.0,t_s_24_1,travel_shared,ear plugs,6.0,competing,paired,t_s_24_1.jpg,Travel,,,sub-25
Desktop or Laptop,Windows 10,Edge 138.0.0.0,1920x1080,1912x954,Temporal Distance Task,cb_06,22.0,temp_dist_trial,num_items,zn7si1,1.0,response,2_ITEM,1659.3999999880762,1650.3999999999942,1659.3999999880762,1659.3999999880762,1650.3999999999942,1659.3999999880762,1.0,0.0,0.0,,Click Response,2_count,5.0,object-49,temp_dist_trial,22.0,t_m_09_1,travel_Miami,beach towel,6.0,unique,paired,t_m_09_1.jpg,Travel,,,sub-25
Desktop or Laptop,Windows 10,Edge 138.0.0.0,1920x1080,1912x954,Temporal Distance Task,cb_06,22.0,temp_dist_trial,dist_items,qkpkxw,2.0,info,,16.90000000000873,0.0,16.90000000000873,16.90000000000873,0.0,16.90000000000873,1.0,0.0,0.0,,Slider,Slider,4.0,object-56,temp_dist_trial,22.0,t_m_09_1,travel_Miami,beach towel,6.0,unique,paired,t_m_09_1.jpg,Travel,,,sub-25
Desktop or Laptop,Windows 10,Edge 138.0.0.0,1920x1080,1912x954,Temporal Distance Task,cb_06,22.0,temp_dist_trial,dist_items,qkpkxw,2.0,continue,,2281.4999999642314,2266.3999999999937,2281.4999999642314,2281.4999999642314,2266.3999999999937,2281.4999999642314,1.0,0.0,0.0,,Click To Continue,Next button,7.0,object-60,temp_dist_trial,22.0,t_m_09_1,travel_Miami,beach towel,6.0,unique,paired,t_m_09_1.jpg,Travel,,,sub-25
Desktop or Laptop,Windows 10,Edge 138.0.0.0,1920x1080,1912x954,Temporal Distance Task,cb_06,22.0,temp_dist_trial,dist_items,qkpkxw,2.0,response,32,1566.599999999991,2266.3999999999937,2282.8999999999937,1566.599999999991,2266.3999999999937,2282.8999999999937,1.0,716.3000000000029,0.0,,Slider,Slider,4.0,object-56,temp_dist_trial,22.0,t_m_09_1,travel_Miami,beach towel,6.0,unique,paired,t_m_09_1.jpg,Travel,,,sub-25
Desktop or Laptop,Windows 10,Edge 138.0.0.0,1920x1080,1912x954,Temporal Distance Task,cb_06,23.0,temp_dist_trial,num_items,zn7si1,1.0,response,1_ITEM,2178.599999964237,2167.0,2178.599999964237,2178.599999964237,2167.0,2178.599999964237,1.0,0.0,0.0,,Click Response,1_count,3.0,object-46,temp_dist_trial,23.0,t_s_20_1,travel_shared,travel pill case,6.0,competing,single,t_s_20_1.jpg,Travel,,,sub-25
Desktop or Laptop,Windows 10,Edge 138.0.0.0,1920x1080,1912x954,Temporal Distance Task,cb_06,24.0,temp_dist_trial,num_items,zn7si1,1.0,response,num_miss,3000.1000000000067,3000.1000000000067,3000.1000000000067,3000.1000000000067,3000.1000000000067,3000.1000000000067,1.0,0.0,0.0,num_miss_tag,Time Limit,screen,0.0,screen,temp_dist_trial,24.0,t_m_12_1,travel_Miami,foldable pail and shovel,6.0,unique,single,t_m_12_1.jpg,Travel,,,sub-25
Desktop or Laptop,Windows 10,Edge 138.0.0.0,1920x1080,1912x954,Temporal Distance Task,cb_06,25.0,temp_dist_trial,num_items,zn7si1,1.0,response,1_ITEM,1270.300000011921,1266.6999999999969,1270.300000011921,1270.300000011921,1266.6999999999969,1270.300000011921,1.0,0.0,0.0,,Click Response,1_count,3.0,object-46,temp_dist_trial,25.0,t_i_07_1,travel_Iceland,hiking backpack,6.0,unique,paired,t_i_07_1.jpg,Travel,,,sub-25
Desktop or Laptop,Windows 10,Edge 138.0.0.0,1920x1080,1912x954,Temporal Distance Task,cb_06,26.0,temp_dist_trial,num_items,zn7si1,1.0,response,2_ITEM,1439.7000000119147,1433.3999999999942,1439.7000000119147,1439.7000000119147,1433.3999999999942,1439.7000000119147,1.0,0.0,0.0,,Click Response,2_count,5.0,object-49,temp_dist_trial,26.0,t_m_04_1,travel_Miami,UV jacket,6.0,unique,paired,t_m_04_1.jpg,Travel,,,sub-25
Desktop or Laptop,Windows 10,Edge 138.0.0.0,1920x1080,1912x954,Temporal Distance Task,cb_06,26.0,temp_dist_trial,dist_items,qkpkxw,2.0,info,,17.09999999999127,0.0,17.09999999999127,17.09999999999127,0.0,17.09999999999127,1.0,0.0,0.0,,Slider,Slider,4.0,object-56,temp_dist_trial,26.0,t_m_04_1,travel_Miami,UV jacket,6.0,unique,paired,t_m_04_1.jpg,Travel,,,sub-25
Desktop or Laptop,Windows 10,Edge 138.0.0.0,1920x1080,1912x954,Temporal Distance Task,cb_06,26.0,temp_dist_trial,dist_items,qkpkxw,2.0,continue,,3475.199999976161,3466.300000000003,3475.199999976161,3475.199999976161,3466.300000000003,3475.199999976161,1.0,0.0,0.0,,Click To Continue,Next button,7.0,object-60,temp_dist_trial,26.0,t_m_04_1,travel_Miami,UV jacket,6.0,unique,paired,t_m_04_1.jpg,Travel,,,sub-25
Desktop or Laptop,Windows 10,Edge 138.0.0.0,1920x1080,1912x954,Temporal Distance Task,cb_06,26.0,temp_dist_trial,dist_items,qkpkxw,2.0,response,31,2232.9000000000087,3466.300000000003,3476.600000011924,2232.9000000000087,3466.300000000003,3476.600000011924,1.0,1243.7000000119149,0.0,,Slider,Slider,4.0,object-56,temp_dist_trial,26.0,t_m_04_1,travel_Miami,UV jacket,6.0,unique,paired,t_m_04_1.jpg,Travel,,,sub-25
Desktop or Laptop,Windows 10,Edge 138.0.0.0,1920x1080,1912x954,Temporal Distance Task,cb_06,27.0,temp_dist_trial,num_items,zn7si1,1.0,response,2_ITEM,2195.899999976158,2183.0,2195.899999976158,2195.899999976158,2183.0,2195.899999976158,1.0,0.0,0.0,,Click Response,2_count,5.0,object-49,temp_dist_trial,27.0,t_i_02_1,travel_Iceland,scarf,6.0,unique,paired,t_i_02_1.jpg,Travel,,,sub-25
Desktop or Laptop,Windows 10,Edge 138.0.0.0,1920x1080,1912x954,Temporal Distance Task,cb_06,27.0,temp_dist_trial,dist_items,qkpkxw,2.0,info,,16.699999999982538,0.0,16.699999999982538,16.699999999982538,0.0,16.699999999982538,1.0,0.0,0.0,,Slider,Slider,4.0,object-56,temp_dist_trial,27.0,t_i_02_1,travel_Iceland,scarf,6.0,unique,paired,t_i_02_1.jpg,Travel,,,sub-25
Desktop or Laptop,Windows 10,Edge 138.0.0.0,1920x1080,1912x954,Temporal Distance Task,cb_06,27.0,temp_dist_trial,dist_items,qkpkxw,2.0,continue,,4269.700000000013,4266.400000000023,4269.700000000013,4269.700000000013,4266.400000000023,4269.700000000013,1.0,0.0,0.0,,Click To Continue,Next button,7.0,object-60,temp_dist_trial,27.0,t_i_02_1,travel_Iceland,scarf,6.0,unique,paired,t_i_02_1.jpg,Travel,,,sub-25
Desktop or Laptop,Windows 10,Edge 138.0.0.0,1920x1080,1912x954,Temporal Distance Task,cb_06,27.0,temp_dist_trial,dist_items,qkpkxw,2.0,response,81,3150.1000000000067,4266.400000000023,4283.000000000029,3150.1000000000067,4266.400000000023,4283.000000000029,1.0,1132.9000000000233,0.0,,Slider,Slider,4.0,object-56,temp_dist_trial,27.0,t_i_02_1,travel_Iceland,scarf,6.0,unique,paired,t_i_02_1.jpg,Travel,,,sub-25
Desktop or Laptop,Windows 10,Edge 138.0.0.0,1920x1080,1912x954,Temporal Distance Task,cb_06,28.0,temp_dist_trial,num_items,zn7si1,1.0,response,2_ITEM,2476.8999999642256,2466.599999999977,2476.8999999642256,2476.8999999642256,2466.599999999977,2476.8999999642256,1.0,0.0,0.0,,Click Response,2_count,5.0,object-49,temp_dist_trial,28.0,t_s_01_1,travel_shared,fanny pack,6.0,competing,paired,t_s_01_1.jpg,Travel,,,sub-25
Desktop or Laptop,Windows 10,Edge 138.0.0.0,1920x1080,1912x954,Temporal Distance Task,cb_06,28.0,temp_dist_trial,dist_items,qkpkxw,2.0,info,,15.899999976158142,0.0,15.899999976158142,15.899999976158142,0.0,15.899999976158142,1.0,0.0,0.0,,Slider,Slider,4.0,object-56,temp_dist_trial,28.0,t_s_01_1,travel_shared,fanny pack,6.0,competing,paired,t_s_01_1.jpg,Travel,,,sub-25
Desktop or Laptop,Windows 10,Edge 138.0.0.0,1920x1080,1912x954,Temporal Distance Task,cb_06,28.0,temp_dist_trial,dist_items,qkpkxw,2.0,continue,,6457.699999988077,6449.899999999994,6457.699999988077,6457.699999988077,6449.899999999994,6457.699999988077,1.0,0.0,0.0,,Click To Continue,Next button,7.0,object-60,temp_dist_trial,28.0,t_s_01_1,travel_shared,fanny pack,6.0,competing,paired,t_s_01_1.jpg,Travel,,,sub-25
Desktop or Laptop,Windows 10,Edge 138.0.0.0,1920x1080,1912x954,Temporal Distance Task,cb_06,28.0,temp_dist_trial,dist_items,qkpkxw,2.0,response,84,4566.799999999987,6449.899999999994,6458.800000011923,4566.799999999987,6449.899999999994,6458.800000011923,1.0,1892.0000000119326,0.0,,Slider,Slider,4.0,object-56,temp_dist_trial,28.0,t_s_01_1,travel_shared,fanny pack,6.0,competing,paired,t_s_01_1.jpg,Travel,,,sub-25
Desktop or Laptop,Windows 10,Edge 138.0.0.0,1920x1080,1912x954,Temporal Distance Task,cb_06,29.0,temp_dist_trial,num_items,zn7si1,1.0,response,1_ITEM,1683.400000011927,1667.1000000000058,1683.400000011927,1683.400000011927,1667.1000000000058,1683.400000011927,1.0,0.0,0.0,,Click Response,1_count,3.0,object-46,temp_dist_trial,29.0,t_s_21_1,travel_shared,umbrella,6.0,competing,paired,t_s_21_1.jpg,Travel,,,sub-25
Desktop or Laptop,Windows 10,Edge 138.0.0.0,1920x1080,1912x954,Temporal Distance Task,cb_06,30.0,temp_dist_trial,num_items,zn7si1,1.0,response,1_ITEM,1266.4000000000233,1249.8000000000175,1266.4000000000233,1266.4000000000233,1249.8000000000175,1266.4000000000233,1.0,0.0,0.0,,Click Response,1_count,3.0,object-46,temp_dist_trial,30.0,t_m_01_1,travel_Miami,sandals,6.0,unique,single,t_m_01_1.jpg,Travel,,,sub-25
Desktop or Laptop,Windows 10,Edge 138.0.0.0,1920x1080,1912x954,Temporal Distance Task,cb_06,31.0,temp_dist_trial,num_items,zn7si1,1.0,response,1_ITEM,1221.800000011921,1216.2999999999886,1221.800000011921,1221.800000011921,1216.2999999999886,1221.800000011921,1.0,0.0,0.0,,Click Response,1_count,3.0,object-46,temp_dist_trial,31.0,t_s_10_1,travel_shared,luggage lock,6.0,competing,paired,t_s_10_1.jpg,Travel,,,sub-25
Desktop or Laptop,Windows 10,Edge 138.0.0.0,1920x1080,1912x954,Temporal Distance Task,cb_06,32.0,temp_dist_trial,num_items,zn7si1,1.0,response,2_ITEM,1607.8999999999942,1600.1000000000058,1607.8999999999942,1607.8999999999942,1600.1000000000058,1607.8999999999942,1.0,0.0,0.0,,Click Response,2_count,5.0,object-49,temp_dist_trial,32.0,t_s_12_1,travel_shared,clear toiletry bag,6.0,competing,paired,t_s_12_1.jpg,Travel,,,sub-25
Desktop or Laptop,Windows 10,Edge 138.0.0.0,1920x1080,1912x954,Temporal Distance Task,cb_06,32.0,temp_dist_trial,dist_items,qkpkxw,2.0,info,,12.499999976163965,0.0,12.499999976163965,12.499999976163965,0.0,12.499999976163965,1.0,0.0,0.0,,Slider,Slider,4.0,object-56,temp_dist_trial,32.0,t_s_12_1,travel_shared,clear toiletry bag,6.0,competing,paired,t_s_12_1.jpg,Travel,,,sub-25
Desktop or Laptop,Windows 10,Edge 138.0.0.0,1920x1080,1912x954,Temporal Distance Task,cb_06,32.0,temp_dist_trial,dist_items,qkpkxw,2.0,continue,,4139.400000011927,4133.5,4139.400000011927,4139.400000011927,4133.5,4139.400000011927,1.0,0.0,0.0,,Click To Continue,Next button,7.0,object-60,temp_dist_trial,32.0,t_s_12_1,travel_shared,clear toiletry bag,6.0,competing,paired,t_s_12_1.jpg,Travel,,,sub-25
Desktop or Laptop,Windows 10,Edge 138.0.0.0,1920x1080,1912x954,Temporal Distance Task,cb_06,32.0,temp_dist_trial,dist_items,qkpkxw,2.0,response,76,3133.5,4133.5,4141.699999964243,3133.5,4133.5,4141.699999964243,1.0,1008.199999964243,0.0,,Slider,Slider,4.0,object-56,temp_dist_trial,32.0,t_s_12_1,travel_shared,clear toiletry bag,6.0,competing,paired,t_s_12_1.jpg,Travel,,,sub-25
Desktop or Laptop,Windows 10,Edge 138.0.0.0,1920x1080,1912x954,Temporal Distance Task,cb_06,33.0,temp_dist_trial,num_items,zn7si1,1.0,response,num_miss,3000.0,3000.0,3000.0,3000.0,3000.0,3000.0,1.0,0.0,0.0,num_miss_tag,Time Limit,screen,0.0,screen,temp_dist_trial,33.0,t_s_02_1,travel_shared,water bottle,6.0,competing,paired,t_s_02_1.jpg,Travel,,,sub-25
Desktop or Laptop,Windows 10,Edge 138.0.0.0,1920x1080,1912x954,Temporal Distance Task,cb_06,34.0,temp_dist_trial,num_items,zn7si1,1.0,response,1_ITEM,66.39999997615814,50.0,66.39999997615814,66.39999997615814,50.0,66.39999997615814,1.0,0.0,0.0,,Click Response,1_count,3.0,object-46,temp_dist_trial,34.0,t_s_17_1,travel_shared,toothbrush,6.0,competing,single,t_s_17_1.jpg,Travel,,,sub-25
Desktop or Laptop,Windows 10,Edge 138.0.0.0,1920x1080,1912x954,Temporal Distance Task,cb_06,35.0,temp_dist_trial,num_items,zn7si1,1.0,response,2_ITEM,1261.499999976164,1250.5,1261.499999976164,1261.499999976164,1250.5,1261.499999976164,1.0,0.0,0.0,,Click Response,2_count,5.0,object-49,temp_dist_trial,35.0,t_m_10_1,travel_Miami,tanktop,6.0,unique,paired,t_m_10_1.jpg,Travel,,,sub-25
Desktop or Laptop,Windows 10,Edge 138.0.0.0,1920x1080,1912x954,Temporal Distance Task,cb_06,35.0,temp_dist_trial,dist_items,qkpkxw,2.0,info,,9.299999999988355,0.0,9.299999999988355,9.299999999988355,0.0,9.299999999988355,1.0,0.0,0.0,,Slider,Slider,4.0,object-56,temp_dist_trial,35.0,t_m_10_1,travel_Miami,tanktop,6.0,unique,paired,t_m_10_1.jpg,Travel,,,sub-25
Desktop or Laptop,Windows 10,Edge 138.0.0.0,1920x1080,1912x954,Temporal Distance Task,cb_06,35.0,temp_dist_trial,dist_items,qkpkxw,2.0,response,dist_miss,6999.6999999999825,6999.6999999999825,6999.6999999999825,6999.6999999999825,6999.6999999999825,6999.6999999999825,1.0,0.0,0.0,dist_miss_tag,Time Limit,screen,0.0,screen,temp_dist_trial,35.0,t_m_10_1,travel_Miami,tanktop,6.0,unique,paired,t_m_10_1.jpg,Travel,,,sub-25
Desktop or Laptop,Windows 10,Edge 138.0.0.0,1920x1080,1912x954,Temporal Distance Task,cb_06,35.0,temp_dist_trial,dist_items,qkpkxw,2.0,response,42,2266.6999999999825,6999.6999999999825,7001.600000011909,2266.6999999999825,6999.6999999999825,7001.600000011909,1.0,4734.900000011927,0.0,,Slider,Slider,4.0,object-56,temp_dist_trial,35.0,t_m_10_1,travel_Miami,tanktop,6.0,unique,paired,t_m_10_1.jpg,Travel,,,sub-25
Desktop or Laptop,Windows 10,Edge 138.0.0.0,1920x1080,1912x954,Temporal Distance Task,cb_06,36.0,temp_dist_trial,num_items,zn7si1,1.0,response,2_ITEM,1503.2999999880853,1500.0,1503.2999999880853,1503.2999999880853,1500.0,1503.2999999880853,1.0,0.0,0.0,,Click Response,2_count,5.0,object-49,temp_dist_trial,36.0,t_s_16_1,travel_shared,chapstick,6.0,competing,paired,t_s_16_1.jpg,Travel,,,sub-25
Desktop or Laptop,Windows 10,Edge 138.0.0.0,1920x1080,1912x954,Temporal Distance Task,cb_06,36.0,temp_dist_trial,dist_items,qkpkxw,2.0,info,,12.899999988090713,0.0,12.899999988090713,12.899999988090713,0.0,12.899999988090713,1.0,0.0,0.0,,Slider,Slider,4.0,object-56,temp_dist_trial,36.0,t_s_16_1,travel_shared,chapstick,6.0,competing,paired,t_s_16_1.jpg,Travel,,,sub-25
Desktop or Laptop,Windows 10,Edge 138.0.0.0,1920x1080,1912x954,Temporal Distance Task,cb_06,36.0,temp_dist_trial,dist_items,qkpkxw,2.0,continue,,4353.899999988091,4349.600000000006,4353.899999988091,4353.899999988091,4349.600000000006,4353.899999988091,1.0,0.0,0.0,,Click To Continue,Next button,7.0,object-60,temp_dist_trial,36.0,t_s_16_1,travel_shared,chapstick,6.0,competing,paired,t_s_16_1.jpg,Travel,,,sub-25
Desktop or Laptop,Windows 10,Edge 138.0.0.0,1920x1080,1912x954,Temporal Distance Task,cb_06,36.0,temp_dist_trial,dist_items,qkpkxw,2.0,response,77,3032.9000000000237,4349.600000000006,4355.299999964249,3032.9000000000237,4349.600000000006,4355.299999964249,1.0,1322.3999999642256,0.0,,Slider,Slider,4.0,object-56,temp_dist_trial,36.0,t_s_16_1,travel_shared,chapstick,6.0,competing,paired,t_s_16_1.jpg,Travel,,,sub-25
Desktop or Laptop,Windows 10,Edge 138.0.0.0,1920x1080,1912x954,Temporal Distance Task,cb_06,37.0,temp_dist_trial,num_items,zn7si1,1.0,response,num_miss,3000.1000000000067,3000.1000000000067,3000.1000000000067,3000.1000000000067,3000.1000000000067,3000.1000000000067,1.0,0.0,0.0,num_miss_tag,Time Limit,screen,0.0,screen,temp_dist_trial,37.0,t_s_08_1,travel_shared,hand lotion,6.0,competing,single,t_s_08_1.jpg,Travel,,,sub-25
Desktop or Laptop,Windows 10,Edge 138.0.0.0,1920x1080,1912x954,Temporal Distance Task,cb_06,38.0,temp_dist_trial,num_items,zn7si1,1.0,response,1_ITEM,296.39999997615814,283.3999999999942,296.39999997615814,296.39999997615814,283.3999999999942,296.39999997615814,1.0,0.0,0.0,,Click Response,1_count,3.0,object-46,temp_dist_trial,38.0,t_m_17_1,travel_Miami,water gun,6.0,unique,single,t_m_17_1.jpg,Travel,,,sub-25
Desktop or Laptop,Windows 10,Edge 138.0.0.0,1920x1080,1912x954,Temporal Distance Task,cb_06,39.0,temp_dist_trial,num_items,zn7si1,1.0,response,num_miss,2999.6000000000067,2999.6000000000067,2999.6000000000067,2999.6000000000067,2999.6000000000067,2999.6000000000067,1.0,0.0,0.0,num_miss_tag,Time Limit,screen,0.0,screen,temp_dist_trial,39.0,t_m_05_1,travel_Miami,sunscreen,6.0,unique,paired,t_m_05_1.jpg,Travel,,,sub-25
Desktop or Laptop,Windows 10,Edge 138.0.0.0,1920x1080,1912x954,Temporal Distance Task,cb_06,40.0,temp_dist_trial,num_items,zn7si1,1.0,response,1_ITEM,1664.2999999880853,1650.3000000000175,1664.2999999880853,1664.2999999880853,1650.3000000000175,1664.2999999880853,1.0,0.0,0.0,,Click Response,1_count,3.0,object-46,temp_dist_trial,40.0,t_i_17_1,travel_Iceland,binoculars,6.0,unique,paired,t_i_17_1.jpg,Travel,,,sub-25
Desktop or Laptop,Windows 10,Edge 138.0.0.0,1920x1080,1912x954,Temporal Distance Task,cb_06,41.0,temp_dist_trial,num_items,zn7si1,1.0,response,1_ITEM,1933.5,1917.0,1933.5,1933.5,1917.0,1933.5,1.0,0.0,0.0,,Click Response,1_count,3.0,object-46,temp_dist_trial,41.0,t_i_01_1,travel_Iceland,gloves,6.0,unique,paired,t_i_01_1.jpg,Travel,,,sub-25
Desktop or Laptop,Windows 10,Edge 138.0.0.0,1920x1080,1912x954,Temporal Distance Task,cb_06,42.0,temp_dist_trial,num_items,zn7si1,1.0,response,1_ITEM,1527.3000000119214,1516.6000000000058,1527.3000000119214,1527.3000000119214,1516.6000000000058,1527.3000000119214,1.0,0.0,0.0,,Click Response,1_count,3.0,object-46,temp_dist_trial,42.0,t_s_05_1,travel_shared,neck pillow,6.0,competing,single,t_s_05_1.jpg,Travel,,,sub-25
Desktop or Laptop,Windows 10,Edge 138.0.0.0,1920x1080,1912x954,Temporal Distance Task,cb_06,43.0,temp_dist_trial,num_items,zn7si1,1.0,response,2_ITEM,2039.7000000000119,2033.7000000000119,2039.7000000000119,2039.7000000000119,2033.7000000000119,2039.7000000000119,1.0,0.0,0.0,,Click Response,2_count,5.0,object-49,temp_dist_trial,43.0,t_s_23_1,travel_shared,ball cap,6.0,competing,paired,t_s_23_1.jpg,Travel,,,sub-25
Desktop or Laptop,Windows 10,Edge 138.0.0.0,1920x1080,1912x954,Temporal Distance Task,cb_06,43.0,temp_dist_trial,dist_items,qkpkxw,2.0,info,,11.199999964243032,0.0,11.199999964243032,11.199999964243032,0.0,11.199999964243032,1.0,0.0,0.0,,Slider,Slider,4.0,object-56,temp_dist_trial,43.0,t_s_23_1,travel_shared,ball cap,6.0,competing,paired,t_s_23_1.jpg,Travel,,,sub-25
Desktop or Laptop,Windows 10,Edge 138.0.0.0,1920x1080,1912x954,Temporal Distance Task,cb_06,43.0,temp_dist_trial,dist_items,qkpkxw,2.0,continue,,3348.699999964243,3332.700000000012,3348.699999964243,3348.699999964243,3332.700000000012,3348.699999964243,1.0,0.0,0.0,,Click To Continue,Next button,7.0,object-60,temp_dist_trial,43.0,t_s_23_1,travel_shared,ball cap,6.0,competing,paired,t_s_23_1.jpg,Travel,,,sub-25
Desktop or Laptop,Windows 10,Edge 138.0.0.0,1920x1080,1912x954,Temporal Distance Task,cb_06,43.0,temp_dist_trial,dist_items,qkpkxw,2.0,response,40,2082.8000000000175,3332.700000000012,3349.4000000000237,2082.8000000000175,3332.700000000012,3349.4000000000237,1.0,1266.6000000000058,0.0,,Slider,Slider,4.0,object-56,temp_dist_trial,43.0,t_s_23_1,travel_shared,ball cap,6.0,competing,paired,t_s_23_1.jpg,Travel,,,sub-25
Desktop or Laptop,Windows 10,Edge 138.0.0.0,1920x1080,1912x954,Temporal Distance Task,cb_06,44.0,temp_dist_trial,num_items,zn7si1,1.0,response,1_ITEM,2611.9999999642314,2600.1999999999825,2611.9999999642314,2611.9999999642314,2600.1999999999825,2611.9999999642314,1.0,0.0,0.0,,Click Response,1_count,3.0,object-46,temp_dist_trial,44.0,t_s_15_1,travel_shared,luggage tag,6.0,competing,paired,t_s_15_1.jpg,Travel,,,sub-25
Desktop or Laptop,Windows 10,Edge 138.0.0.0,1920x1080,1912x954,Temporal Distance Task,cb_06,45.0,temp_dist_trial,num_items,zn7si1,1.0,response,2_ITEM,2000.0999999999767,1983.3999999999944,2000.0999999999767,2000.0999999999767,1983.3999999999944,2000.0999999999767,1.0,0.0,0.0,,Click Response,2_count,5.0,object-49,temp_dist_trial,45.0,t_s_09_1,travel_shared,wallet,6.0,competing,paired,t_s_09_1.jpg,Travel,,,sub-25
Desktop or Laptop,Windows 10,Edge 138.0.0.0,1920x1080,1912x954,Temporal Distance Task,cb_06,45.0,temp_dist_trial,dist_items,qkpkxw,2.0,info,,16.699999999982538,0.0,16.699999999982538,16.699999999982538,0.0,16.699999999982538,1.0,0.0,0.0,,Slider,Slider,4.0,object-56,temp_dist_trial,45.0,t_s_09_1,travel_shared,wallet,6.0,competing,paired,t_s_09_1.jpg,Travel,,,sub-25
Desktop or Laptop,Windows 10,Edge 138.0.0.0,1920x1080,1912x954,Temporal Distance Task,cb_06,45.0,temp_dist_trial,dist_items,qkpkxw,2.0,continue,,2176.799999964249,2166.9000000000233,2176.799999964249,2176.799999964249,2166.9000000000233,2176.799999964249,1.0,0.0,0.0,,Click To Continue,Next button,7.0,object-60,temp_dist_trial,45.0,t_s_09_1,travel_shared,wallet,6.0,competing,paired,t_s_09_1.jpg,Travel,,,sub-25
Desktop or Laptop,Windows 10,Edge 138.0.0.0,1920x1080,1912x954,Temporal Distance Task,cb_06,45.0,temp_dist_trial,dist_items,qkpkxw,2.0,response,74,1166.7000000000114,2166.9000000000233,2178.5999999761702,1166.7000000000114,2166.9000000000233,2178.5999999761702,1.0,1011.899999976158,0.0,,Slider,Slider,4.0,object-56,temp_dist_trial,45.0,t_s_09_1,travel_shared,wallet,6.0,competing,paired,t_s_09_1.jpg,Travel,,,sub-25
Desktop or Laptop,Windows 10,Edge 138.0.0.0,1920x1080,1912x954,Temporal Distance Task,cb_06,46.0,temp_dist_trial,num_items,zn7si1,1.0,response,2_ITEM,1846.6999999761465,1833.5,1846.6999999761465,1846.6999999761465,1833.5,1846.6999999761465,1.0,0.0,0.0,,Click Response,2_count,5.0,object-49,temp_dist_trial,46.0,t_m_13_1,travel_Miami,floatie,6.0,unique,paired,t_m_13_1.jpg,Travel,,,sub-25
Desktop or Laptop,Windows 10,Edge 138.0.0.0,1920x1080,1912x954,Temporal Distance Task,cb_06,46.0,temp_dist_trial,dist_items,qkpkxw,2.0,info,,16.700000000011638,0.0,16.700000000011638,16.700000000011638,0.0,16.700000000011638,1.0,0.0,0.0,,Slider,Slider,4.0,object-56,temp_dist_trial,46.0,t_m_13_1,travel_Miami,floatie,6.0,unique,paired,t_m_13_1.jpg,Travel,,,sub-25
Desktop or Laptop,Windows 10,Edge 138.0.0.0,1920x1080,1912x954,Temporal Distance Task,cb_06,46.0,temp_dist_trial,dist_items,qkpkxw,2.0,continue,,5148.899999999994,5133.5,5148.899999999994,5148.899999999994,5133.5,5148.899999999994,1.0,0.0,0.0,,Click To Continue,Next button,7.0,object-60,temp_dist_trial,46.0,t_m_13_1,travel_Miami,floatie,6.0,unique,paired,t_m_13_1.jpg,Travel,,,sub-25
Desktop or Laptop,Windows 10,Edge 138.0.0.0,1920x1080,1912x954,Temporal Distance Task,cb_06,46.0,temp_dist_trial,dist_items,qkpkxw,2.0,response,93,3099.699999999982,5133.5,5150.600000000006,3099.699999999982,5133.5,5150.600000000006,1.0,2050.9000000000233,0.0,,Slider,Slider,4.0,object-56,temp_dist_trial,46.0,t_m_13_1,travel_Miami,floatie,6.0,unique,paired,t_m_13_1.jpg,Travel,,,sub-25
Desktop or Laptop,Windows 10,Edge 138.0.0.0,1920x1080,1912x954,Temporal Distance Task,cb_06,47.0,temp_dist_trial,num_items,zn7si1,1.0,response,1_ITEM,1382.7999999999884,1366.2999999999886,1382.7999999999884,1382.7999999999884,1366.2999999999886,1382.7999999999884,1.0,0.0,0.0,,Click Response,1_count,3.0,object-46,temp_dist_trial,47.0,t_m_14_1,travel_Miami,swim goggles,6.0,unique,paired,t_m_14_1.jpg,Travel,,,sub-25
Desktop or Laptop,Windows 10,Edge 138.0.0.0,1920x1080,1912x954,Temporal Distance Task,cb_06,48.0,temp_dist_trial,num_items,zn7si1,1.0,response,1_ITEM,1724.2999999761525,1716.5,1724.2999999761525,1724.2999999761525,1716.5,1724.2999999761525,1.0,0.0,0.0,,Click Response,1_count,3.0,object-46,temp_dist_trial,48.0,t_s_14_1,travel_shared,hand sanitizer,6.0,competing,paired,t_s_14_1.jpg,Travel,,,sub-25
Desktop or Laptop,Windows 10,Edge 138.0.0.0,1920x1080,1912x954,Temporal Distance Task,cb_06,2.0,temp_eventStart,Screen 1,dgtyxe,1.0,continue,,5556.2999999999865,5549.7999999999865,5556.2999999999865,5556.2999999999865,5549.7999999999865,5556.2999999999865,1.0,0.0,0.0,,Click To Continue,Next Button,3.0,object-43,temp_eventStart,,,Student,,,,,,,,,sub-25
Desktop or Laptop,Windows 10,Edge 138.0.0.0,1920x1080,1912x954,Temporal Distance Task,cb_06,49.0,temp_dist_trial,num_items,zn7si1,1.0,response,2_ITEM,1991.0,1983.3999999999944,1991.0,1991.0,1983.3999999999944,1991.0,1.0,0.0,0.0,,Click Response,2_count,5.0,object-49,temp_dist_trial,1.0,s_a_03_1,student_art,palette,6.0,unique,paired,s_a_03_1.jpg,Student,,,sub-25
Desktop or Laptop,Windows 10,Edge 138.0.0.0,1920x1080,1912x954,Temporal Distance Task,cb_06,49.0,temp_dist_trial,dist_items,qkpkxw,2.0,info,,16.60000000000582,0.0,16.60000000000582,16.60000000000582,0.0,16.60000000000582,1.0,0.0,0.0,,Slider,Slider,4.0,object-56,temp_dist_trial,1.0,s_a_03_1,student_art,palette,6.0,unique,paired,s_a_03_1.jpg,Student,,,sub-25
Desktop or Laptop,Windows 10,Edge 138.0.0.0,1920x1080,1912x954,Temporal Distance Task,cb_06,49.0,temp_dist_trial,dist_items,qkpkxw,2.0,continue,,3205.200000011915,3200.3999999999933,3205.200000011915,3205.200000011915,3200.3999999999933,3205.200000011915,1.0,0.0,0.0,,Click To Continue,Next button,7.0,object-60,temp_dist_trial,1.0,s_a_03_1,student_art,palette,6.0,unique,paired,s_a_03_1.jpg,Student,,,sub-25
Desktop or Laptop,Windows 10,Edge 138.0.0.0,1920x1080,1912x954,Temporal Distance Task,cb_06,49.0,temp_dist_trial,dist_items,qkpkxw,2.0,response,69,1900.1000000000056,3200.3999999999933,3206.5999999880733,1900.1000000000056,3200.3999999999933,3206.5999999880733,1.0,1306.4999999880674,0.0,,Slider,Slider,4.0,object-56,temp_dist_trial,1.0,s_a_03_1,student_art,palette,6.0,unique,paired,s_a_03_1.jpg,Student,,,sub-25
Desktop or Laptop,Windows 10,Edge 138.0.0.0,1920x1080,1912x954,Temporal Distance Task,cb_06,50.0,temp_dist_trial,num_items,zn7si1,1.0,response,1_ITEM,961.0999999642372,949.3999999999942,961.0999999642372,961.0999999642372,949.3999999999942,961.0999999642372,1.0,0.0,0.0,,Click Response,1_count,3.0,object-46,temp_dist_trial,2.0,s_sh_03_1,student_shared,highlighter,6.0,competing,single,s_sh_03_1.jpg,Student,,,sub-25
Desktop or Laptop,Windows 10,Edge 138.0.0.0,1920x1080,1912x954,Temporal Distance Task,cb_06,51.0,temp_dist_trial,num_items,zn7si1,1.0,response,1_ITEM,897.8999999880908,883.7000000000116,897.8999999880908,897.8999999880908,883.7000000000116,897.8999999880908,1.0,0.0,0.0,,Click Response,1_count,3.0,object-46,temp_dist_trial,3.0,s_s_14_1,student_stem,funnel,6.0,unique,paired,s_s_14_1.jpg,Student,,,sub-25
Desktop or Laptop,Windows 10,Edge 138.0.0.0,1920x1080,1912x954,Temporal Distance Task,cb_06,52.0,temp_dist_trial,num_items,zn7si1,1.0,response,2_ITEM,2373.299999976153,2366.1999999999825,2373.299999976153,2373.299999976153,2366.1999999999825,2373.299999976153,1.0,0.0,0.0,,Click Response,2_count,5.0,object-49,temp_dist_trial,4.0,s_sh_07_1,student_shared,ruler,6.0,competing,single,s_sh_07_1.jpg,Student,,,sub-25
Desktop or Laptop,Windows 10,Edge 138.0.0.0,1920x1080,1912x954,Temporal Distance Task,cb_06,52.0,temp_dist_trial,dist_items,qkpkxw,2.0,info,,8.899999964225572,0.0,8.899999964225572,8.899999964225572,0.0,8.899999964225572,1.0,0.0,0.0,,Slider,Slider,4.0,object-56,temp_dist_trial,4.0,s_sh_07_1,student_shared,ruler,6.0,competing,single,s_sh_07_1.jpg,Student,,,sub-25
Desktop or Laptop,Windows 10,Edge 138.0.0.0,1920x1080,1912x954,Temporal Distance Task,cb_06,52.0,temp_dist_trial,dist_items,qkpkxw,2.0,response,dist_miss,6999.599999999977,6999.599999999977,6999.599999999977,6999.599999999977,6999.599999999977,6999.599999999977,1.0,0.0,0.0,dist_miss_tag,Time Limit,screen,0.0,screen,temp_dist_trial,4.0,s_sh_07_1,student_shared,ruler,6.0,competing,single,s_sh_07_1.jpg,Student,,,sub-25
Desktop or Laptop,Windows 10,Edge 138.0.0.0,1920x1080,1912x954,Temporal Distance Task,cb_06,52.0,temp_dist_trial,dist_items,qkpkxw,2.0,response,38,2383.099999999977,6999.599999999977,7016.099999999977,2383.099999999977,6999.599999999977,7016.099999999977,1.0,4633.0,0.0,,Slider,Slider,4.0,object-56,temp_dist_trial,4.0,s_sh_07_1,student_shared,ruler,6.0,competing,single,s_sh_07_1.jpg,Student,,,sub-25
Desktop or Laptop,Windows 10,Edge 138.0.0.0,1920x1080,1912x954,Temporal Distance Task,cb_06,53.0,temp_dist_trial,num_items,zn7si1,1.0,response,num_miss,3000.200000000012,3000.200000000012,3000.200000000012,3000.200000000012,3000.200000000012,3000.200000000012,1.0,0.0,0.0,num_miss_tag,Time Limit,screen,0.0,screen,temp_dist_trial,5.0,s_s_11_1,student_stem,scientific scale,6.0,unique,paired,s_s_11_1.jpg,Student,,,sub-25
Desktop or Laptop,Windows 10,Edge 138.0.0.0,1920x1080,1912x954,Temporal Distance Task,cb_06,54.0,temp_dist_trial,num_items,zn7si1,1.0,response,2_ITEM,2191.599999964237,2183.2999999999884,2191.599999964237,2191.599999964237,2183.2999999999884,2191.599999964237,1.0,0.0,0.0,,Click Response,2_count,5.0,object-49,temp_dist_trial,6.0,s_sh_09_1,student_shared,paper clips,6.0,competing,paired,s_sh_09_1.jpg,Student,,,sub-25
Desktop or Laptop,Windows 10,Edge 138.0.0.0,1920x1080,1912x954,Temporal Distance Task,cb_06,54.0,temp_dist_trial,dist_items,qkpkxw,2.0,info,,17.0,0.0,17.0,17.0,0.0,17.0,1.0,0.0,0.0,,Slider,Slider,4.0,object-56,temp_dist_trial,6.0,s_sh_09_1,student_shared,paper clips,6.0,competing,paired,s_sh_09_1.jpg,Student,,,sub-25
Desktop or Laptop,Windows 10,Edge 138.0.0.0,1920x1080,1912x954,Temporal Distance Task,cb_06,54.0,temp_dist_trial,dist_items,qkpkxw,2.0,continue,,1850.000000000029,1833.3000000000175,1850.000000000029,1850.000000000029,1833.3000000000175,1850.000000000029,1.0,0.0,0.0,,Click To Continue,Next button,7.0,object-60,temp_dist_trial,6.0,s_sh_09_1,student_shared,paper clips,6.0,competing,paired,s_sh_09_1.jpg,Student,,,sub-25
Desktop or Laptop,Windows 10,Edge 138.0.0.0,1920x1080,1912x954,Temporal Distance Task,cb_06,54.0,temp_dist_trial,dist_items,qkpkxw,2.0,response,74,933.6000000000058,1833.3000000000175,1850.000000000029,933.6000000000058,1833.3000000000175,1850.000000000029,1.0,916.4000000000232,0.0,,Slider,Slider,4.0,object-56,temp_dist_trial,6.0,s_sh_09_1,student_shared,paper clips,6.0,competing,paired,s_sh_09_1.jpg,Student,,,sub-25
Desktop or Laptop,Windows 10,Edge 138.0.0.0,1920x1080,1912x954,Temporal Distance Task,cb_06,55.0,temp_dist_trial,num_items,zn7si1,1.0,response,2_ITEM,1124.3999999642256,1117.0,1124.3999999642256,1124.3999999642256,1117.0,1124.3999999642256,1.0,0.0,0.0,,Click Response,2_count,5.0,object-49,temp_dist_trial,7.0,s_a_07_1,student_art,yarn,6.0,unique,paired,s_a_07_1.jpg,Student,,,sub-25
Desktop or Laptop,Windows 10,Edge 138.0.0.0,1920x1080,1912x954,Temporal Distance Task,cb_06,55.0,temp_dist_trial,dist_items,qkpkxw,2.0,info,,16.60000000000582,0.0,16.60000000000582,16.60000000000582,0.0,16.60000000000582,1.0,0.0,0.0,,Slider,Slider,4.0,object-56,temp_dist_trial,7.0,s_a_07_1,student_art,yarn,6.0,unique,paired,s_a_07_1.jpg,Student,,,sub-25
Desktop or Laptop,Windows 10,Edge 138.0.0.0,1920x1080,1912x954,Temporal Distance Task,cb_06,55.0,temp_dist_trial,dist_items,qkpkxw,2.0,continue,,3750.3999999999933,3733.3999999999933,3750.3999999999933,3750.3999999999933,3733.3999999999933,3750.3999999999933,1.0,0.0,0.0,,Click To Continue,Next button,7.0,object-60,temp_dist_trial,7.0,s_a_07_1,student_art,yarn,6.0,unique,paired,s_a_07_1.jpg,Student,,,sub-25
Desktop or Laptop,Windows 10,Edge 138.0.0.0,1920x1080,1912x954,Temporal Distance Task,cb_06,55.0,temp_dist_trial,dist_items,qkpkxw,2.0,response,86,2849.800000000017,3733.3999999999933,3750.3999999999933,2849.800000000017,3733.3999999999933,3750.3999999999933,1.0,900.5999999999768,0.0,,Slider,Slider,4.0,object-56,temp_dist_trial,7.0,s_a_07_1,student_art,yarn,6.0,unique,paired,s_a_07_1.jpg,Student,,,sub-25
Desktop or Laptop,Windows 10,Edge 138.0.0.0,1920x1080,1912x954,Temporal Distance Task,cb_06,56.0,temp_dist_trial,num_items,zn7si1,1.0,response,1_ITEM,1716.8000000000463,1699.9000000000233,1716.8000000000463,1716.8000000000463,1699.9000000000233,1716.8000000000463,1.0,0.0,0.0,,Click Response,1_count,3.0,object-46,temp_dist_trial,8.0,s_sh_11_1,student_shared,pencil case,6.0,competing,paired,s_sh_11_1.jpg,Student,,,sub-25
Desktop or Laptop,Windows 10,Edge 138.0.0.0,1920x1080,1912x954,Temporal Distance Task,cb_06,57.0,temp_dist_trial,num_items,zn7si1,1.0,response,1_ITEM,774.3999999880908,766.6000000000058,774.3999999880908,774.3999999880908,766.6000000000058,774.3999999880908,1.0,0.0,0.0,,Click Response,1_count,3.0,object-46,temp_dist_trial,9.0,s_sh_12_1,student_shared,binder,6.0,competing,paired,s_sh_12_1.jpg,Student,,,sub-25
Desktop or Laptop,Windows 10,Edge 138.0.0.0,1920x1080,1912x954,Temporal Distance Task,cb_06,58.0,temp_dist_trial,num_items,zn7si1,1.0,response,1_ITEM,1244.300000011921,1232.8999999999942,1244.300000011921,1244.300000011921,1232.8999999999942,1244.300000011921,1.0,0.0,0.0,,Click Response,1_count,3.0,object-46,temp_dist_trial,10.0,s_sh_13_1,student_shared,index cards,6.0,competing,paired,s_sh_13_1.jpg,Student,,,sub-25
Desktop or Laptop,Windows 10,Edge 138.0.0.0,1920x1080,1912x954,Temporal Distance Task,cb_06,59.0,temp_dist_trial,num_items,zn7si1,1.0,response,1_ITEM,1206.8999999642256,1199.7999999999886,1206.8999999642256,1206.8999999642256,1199.7999999999886,1206.8999999642256,1.0,0.0,0.0,,Click Response,1_count,3.0,object-46,temp_dist_trial,11.0,s_sh_23_1,student_shared,ballpoint pen,6.0,competing,single,s_sh_23_1.jpg,Student,,,sub-25
Desktop or Laptop,Windows 10,Edge 138.0.0.0,1920x1080,1912x954,Temporal Distance Task,cb_06,60.0,temp_dist_trial,num_items,zn7si1,1.0,response,2_ITEM,1206.2999999999886,1200.1999999999825,1206.2999999999886,1206.2999999999886,1200.1999999999825,1206.2999999999886,1.0,0.0,0.0,,Click Response,2_count,5.0,object-49,temp_dist_trial,12.0,s_a_09_1,student_art,picture frame,6.0,unique,paired,s_a_09_1.jpg,Student,,,sub-25
Desktop or Laptop,Windows 10,Edge 138.0.0.0,1920x1080,1912x954,Temporal Distance Task,cb_06,60.0,temp_dist_trial,dist_items,qkpkxw,2.0,info,,9.699999964243032,0.0,9.699999964243032,9.699999964243032,0.0,9.699999964243032,1.0,0.0,0.0,,Slider,Slider,4.0,object-56,temp_dist_trial,12.0,s_a_09_1,student_art,picture frame,6.0,unique,paired,s_a_09_1.jpg,Student,,,sub-25
Desktop or Laptop,Windows 10,Edge 138.0.0.0,1920x1080,1912x954,Temporal Distance Task,cb_06,60.0,temp_dist_trial,dist_items,qkpkxw,2.0,continue,,2889.9000000119267,2882.800000000017,2889.9000000119267,2889.9000000119267,2882.800000000017,2889.9000000119267,1.0,0.0,0.0,,Click To Continue,Next button,7.0,object-60,temp_dist_trial,12.0,s_a_09_1,student_art,picture frame,6.0,unique,paired,s_a_09_1.jpg,Student,,,sub-25
Desktop or Laptop,Windows 10,Edge 138.0.0.0,1920x1080,1912x954,Temporal Distance Task,cb_06,60.0,temp_dist_trial,dist_items,qkpkxw,2.0,response,32,1550.1000000000058,2882.800000000017,2899.4000000000237,1550.1000000000058,2882.800000000017,2899.4000000000237,1.0,1349.3000000000175,0.0,,Slider,Slider,4.0,object-56,temp_dist_trial,12.0,s_a_09_1,student_art,picture frame,6.0,unique,paired,s_a_09_1.jpg,Student,,,sub-25
Desktop or Laptop,Windows 10,Edge 138.0.0.0,1920x1080,1912x954,Temporal Distance Task,cb_06,61.0,temp_dist_trial,num_items,zn7si1,1.0,response,num_miss,3000.5,3000.5,3000.5,3000.5,3000.5,3000.5,1.0,0.0,0.0,num_miss_tag,Time Limit,screen,0.0,screen,temp_dist_trial,13.0,s_s_13_1,student_stem,telescope,6.0,unique,paired,s_s_13_1.jpg,Student,,,sub-25
Desktop or Laptop,Windows 10,Edge 138.0.0.0,1920x1080,1912x954,Temporal Distance Task,cb_06,62.0,temp_dist_trial,num_items,zn7si1,1.0,response,1_ITEM,2074.800000011921,2066.7999999999884,2074.800000011921,2074.800000011921,2066.7999999999884,2074.800000011921,1.0,0.0,0.0,,Click Response,1_count,3.0,object-46,temp_dist_trial,14.0,s_sh_19_1,student_shared,portable plastic drawer,6.0,competing,single,s_sh_19_1.jpg,Student,,,sub-25
Desktop or Laptop,Windows 10,Edge 138.0.0.0,1920x1080,1912x954,Temporal Distance Task,cb_06,63.0,temp_dist_trial,num_items,zn7si1,1.0,response,1_ITEM,990.7999999761812,983.4000000000232,990.7999999761812,990.7999999761812,983.4000000000232,990.7999999761812,1.0,0.0,0.0,,Click Response,1_count,3.0,object-46,temp_dist_trial,15.0,s_a_11_1,student_art,clapperboard,6.0,unique,single,s_a_11_1.jpg,Student,,,sub-25
Desktop or Laptop,Windows 10,Edge 138.0.0.0,1920x1080,1912x954,Temporal Distance Task,cb_06,64.0,temp_dist_trial,num_items,zn7si1,1.0,response,1_ITEM,1561.5999999761698,1549.7000000000116,1561.5999999761698,1561.5999999761698,1549.7000000000116,1561.5999999761698,1.0,0.0,0.0,,Click Response,1_count,3.0,object-46,temp_dist_trial,16.0,s_s_18_1,student_stem,brain model,6.0,unique,single,s_s_18_1.jpg,Student,,,sub-25
Desktop or Laptop,Windows 10,Edge 138.0.0.0,1920x1080,1912x954,Temporal Distance Task,cb_06,65.0,temp_dist_trial,num_items,zn7si1,1.0,response,1_ITEM,1221.2999999999886,1217.0,1221.2999999999886,1221.2999999999886,1217.0,1221.2999999999886,1.0,0.0,0.0,,Click Response,1_count,3.0,object-46,temp_dist_trial,17.0,s_a_10_1,student_art,tripod,6.0,unique,single,s_a_10_1.jpg,Student,,,sub-25
Desktop or Laptop,Windows 10,Edge 138.0.0.0,1920x1080,1912x954,Temporal Distance Task,cb_06,66.0,temp_dist_trial,num_items,zn7si1,1.0,response,num_miss,3000.399999999965,3000.399999999965,3000.399999999965,3000.399999999965,3000.399999999965,3000.399999999965,1.0,0.0,0.0,num_miss_tag,Time Limit,screen,0.0,screen,temp_dist_trial,18.0,s_a_13_1,student_art,violin,6.0,unique,paired,s_a_13_1.jpg,Student,,,sub-25
Desktop or Laptop,Windows 10,Edge 138.0.0.0,1920x1080,1912x954,Temporal Distance Task,cb_06,67.0,temp_dist_trial,num_items,zn7si1,1.0,response,1_ITEM,125.19999998807907,116.40000000002328,125.19999998807907,125.19999998807907,116.40000000002328,125.19999998807907,1.0,0.0,0.0,,Click Response,1_count,3.0,object-46,temp_dist_trial,19.0,s_a_15_1,student_art,drum kit,6.0,unique,paired,s_a_15_1.jpg,Student,,,sub-25
Desktop or Laptop,Windows 10,Edge 138.0.0.0,1920x1080,1912x954,Temporal Distance Task,cb_06,68.0,temp_dist_trial,num_items,zn7si1,1.0,response,2_ITEM,1912.7000000000119,1900.2000000000119,1912.7000000000119,1912.7000000000119,1900.2000000000119,1912.7000000000119,1.0,0.0,0.0,,Click Response,2_count,5.0,object-49,temp_dist_trial,20.0,s_sh_22_1,student_shared,hole puncher,6.0,competing,paired,s_sh_22_1.jpg,Student,,,sub-25
Desktop or Laptop,Windows 10,Edge 138.0.0.0,1920x1080,1912x954,Temporal Distance Task,cb_06,68.0,temp_dist_trial,dist_items,qkpkxw,2.0,info,,16.100000000034925,0.0,16.100000000034925,16.100000000034925,0.0,16.100000000034925,1.0,0.0,0.0,,Slider,Slider,4.0,object-56,temp_dist_trial,20.0,s_sh_22_1,student_shared,hole puncher,6.0,competing,paired,s_sh_22_1.jpg,Student,,,sub-25
Desktop or Laptop,Windows 10,Edge 138.0.0.0,1920x1080,1912x954,Temporal Distance Task,cb_06,68.0,temp_dist_trial,dist_items,qkpkxw,2.0,continue,,2669.4000000118976,2666.5,2669.4000000118976,2669.4000000118976,2666.5,2669.4000000118976,1.0,0.0,0.0,,Click To Continue,Next button,7.0,object-60,temp_dist_trial,20.0,s_sh_22_1,student_shared,hole puncher,6.0,competing,paired,s_sh_22_1.jpg,Student,,,sub-25
Desktop or Laptop,Windows 10,Edge 138.0.0.0,1920x1080,1912x954,Temporal Distance Task,cb_06,68.0,temp_dist_trial,dist_items,qkpkxw,2.0,response,43,1916.8999999999646,2666.5,2670.599999999977,1916.8999999999646,2666.5,2670.599999999977,1.0,753.7000000000116,0.0,,Slider,Slider,4.0,object-56,temp_dist_trial,20.0,s_sh_22_1,student_shared,hole puncher,6.0,competing,paired,s_sh_22_1.jpg,Student,,,sub-25
Desktop or Laptop,Windows 10,Edge 138.0.0.0,1920x1080,1912x954,Temporal Distance Task,cb_06,69.0,temp_dist_trial,num_items,zn7si1,1.0,response,1_ITEM,2020.9000000118976,2016.6999999999528,2020.9000000118976,2020.9000000118976,2016.6999999999528,2020.9000000118976,1.0,0.0,0.0,,Click Response,1_count,3.0,object-46,temp_dist_trial,21.0,s_s_04_1,student_stem,bunsen burner,6.0,unique,single,s_s_04_1.jpg,Student,,,sub-25
Desktop or Laptop,Windows 10,Edge 138.0.0.0,1920x1080,1912x954,Temporal Distance Task,cb_06,70.0,temp_dist_trial,num_items,zn7si1,1.0,response,1_ITEM,949.4000000000232,933.0,949.4000000000232,949.4000000000232,933.0,949.4000000000232,1.0,0.0,0.0,,Click Response,1_count,3.0,object-46,temp_dist_trial,22.0,s_sh_01_1,student_shared,notebook,6.0,competing,paired,s_sh_01_1.jpg,Student,,,sub-25
Desktop or Laptop,Windows 10,Edge 138.0.0.0,1920x1080,1912x954,Temporal Distance Task,cb_06,71.0,temp_dist_trial,num_items,zn7si1,1.0,response,1_ITEM,1940.0000000119326,1933.2999999999884,1940.0000000119326,1940.0000000119326,1933.2999999999884,1940.0000000119326,1.0,0.0,0.0,,Click Response,1_count,3.0,object-46,temp_dist_trial,23.0,s_sh_21_1,student_shared,file holder,6.0,competing,single,s_sh_21_1.jpg,Student,,,sub-25
Desktop or Laptop,Windows 10,Edge 138.0.0.0,1920x1080,1912x954,Temporal Distance Task,cb_06,72.0,temp_dist_trial,num_items,zn7si1,1.0,response,1_ITEM,2303.299999976181,2299.700000000012,2303.299999976181,2303.299999976181,2299.700000000012,2303.299999976181,1.0,0.0,0.0,,Click Response,1_count,3.0,object-46,temp_dist_trial,24.0,s_sh_02_1,student_shared,eraser,6.0,competing,single,s_sh_02_1.jpg,Student,,,sub-25
Desktop or Laptop,Windows 10,Edge 138.0.0.0,1920x1080,1912x954,Temporal Distance Task,cb_06,73.0,temp_dist_trial,num_items,zn7si1,1.0,response,2_ITEM,1839.9000000118976,1833.6999999999528,1839.9000000118976,1839.9000000118976,1833.6999999999528,1839.9000000118976,1.0,0.0,0.0,,Click Response,2_count,5.0,object-49,temp_dist_trial,25.0,s_s_20_1,student_stem,dna model,6.0,unique,paired,s_s_20_1.jpg,Student,,,sub-25
Desktop or Laptop,Windows 10,Edge 138.0.0.0,1920x1080,1912x954,Temporal Distance Task,cb_06,73.0,temp_dist_trial,dist_items,qkpkxw,2.0,info,,16.599999999976713,0.0,16.599999999976713,16.599999999976713,0.0,16.599999999976713,1.0,0.0,0.0,,Slider,Slider,4.0,object-56,temp_dist_trial,25.0,s_s_20_1,student_stem,dna model,6.0,unique,paired,s_s_20_1.jpg,Student,,,sub-25
Desktop or Laptop,Windows 10,Edge 138.0.0.0,1920x1080,1912x954,Temporal Distance Task,cb_06,73.0,temp_dist_trial,dist_items,qkpkxw,2.0,continue,,2840.199999988079,2833.2999999999884,2840.199999988079,2840.199999988079,2833.2999999999884,2840.199999988079,1.0,0.0,0.0,,Click To Continue,Next button,7.0,object-60,temp_dist_trial,25.0,s_s_20_1,student_stem,dna model,6.0,unique,paired,s_s_20_1.jpg,Student,,,sub-25
Desktop or Laptop,Windows 10,Edge 138.0.0.0,1920x1080,1912x954,Temporal Distance Task,cb_06,73.0,temp_dist_trial,dist_items,qkpkxw,2.0,response,82,1749.7000000000116,2833.2999999999884,2841.8999999761572,1749.7000000000116,2833.2999999999884,2841.8999999761572,1.0,1092.1999999761465,0.0,,Slider,Slider,4.0,object-56,temp_dist_trial,25.0,s_s_20_1,student_stem,dna model,6.0,unique,paired,s_s_20_1.jpg,Student,,,sub-25
Desktop or Laptop,Windows 10,Edge 138.0.0.0,1920x1080,1912x954,Temporal Distance Task,cb_06,74.0,temp_dist_trial,num_items,zn7si1,1.0,response,1_ITEM,1313.5000000119326,1299.7999999999886,1313.5000000119326,1313.5000000119326,1299.7999999999886,1313.5000000119326,1.0,0.0,0.0,,Click Response,1_count,3.0,object-46,temp_dist_trial,26.0,s_sh_17_1,student_shared,wireless mouse,6.0,competing,paired,s_sh_17_1.jpg,Student,,,sub-25
Desktop or Laptop,Windows 10,Edge 138.0.0.0,1920x1080,1912x954,Temporal Distance Task,cb_06,75.0,temp_dist_trial,num_items,zn7si1,1.0,response,1_ITEM,1444.0999999761698,1433.2999999999884,1444.0999999761698,1444.0999999761698,1433.2999999999884,1444.0999999761698,1.0,0.0,0.0,,Click Response,1_count,3.0,object-46,temp_dist_trial,27.0,s_sh_10_1,student_shared,scissors,6.0,competing,paired,s_sh_10_1.jpg,Student,,,sub-25
Desktop or Laptop,Windows 10,Edge 138.0.0.0,1920x1080,1912x954,Temporal Distance Task,cb_06,76.0,temp_dist_trial,num_items,zn7si1,1.0,response,2_ITEM,1291.1999999761465,1283.2000000000114,1291.1999999761465,1291.1999999761465,1283.2000000000114,1291.1999999761465,1.0,0.0,0.0,,Click Response,2_count,5.0,object-49,temp_dist_trial,28.0,s_a_08_1,student_art,sewing machine,6.0,unique,paired,s_a_08_1.jpg,Student,,,sub-25
Desktop or Laptop,Windows 10,Edge 138.0.0.0,1920x1080,1912x954,Temporal Distance Task,cb_06,76.0,temp_dist_trial,dist_items,qkpkxw,2.0,info,,10.900000000023285,0.0,10.900000000023285,10.900000000023285,0.0,10.900000000023285,1.0,0.0,0.0,,Slider,Slider,4.0,object-56,temp_dist_trial,28.0,s_a_08_1,student_art,sewing machine,6.0,unique,paired,s_a_08_1.jpg,Student,,,sub-25
Desktop or Laptop,Windows 10,Edge 138.0.0.0,1920x1080,1912x954,Temporal Distance Task,cb_06,76.0,temp_dist_trial,dist_items,qkpkxw,2.0,continue,,4095.7000000119438,4083.700000000012,4095.7000000119438,4095.7000000119438,4083.700000000012,4095.7000000119438,1.0,0.0,0.0,,Click To Continue,Next button,7.0,object-60,temp_dist_trial,28.0,s_a_08_1,student_art,sewing machine,6.0,unique,paired,s_a_08_1.jpg,Student,,,sub-25
Desktop or Laptop,Windows 10,Edge 138.0.0.0,1920x1080,1912x954,Temporal Distance Task,cb_06,76.0,temp_dist_trial,dist_items,qkpkxw,2.0,response,100,2850.100000000035,4083.700000000012,4096.400000000023,2850.100000000035,4083.700000000012,4096.400000000023,1.0,1246.2999999999886,0.0,,Slider,Slider,4.0,object-56,temp_dist_trial,28.0,s_a_08_1,student_art,sewing machine,6.0,unique,paired,s_a_08_1.jpg,Student,,,sub-25
Desktop or Laptop,Windows 10,Edge 138.0.0.0,1920x1080,1912x954,Temporal Distance Task,cb_06,77.0,temp_dist_trial,num_items,zn7si1,1.0,response,1_ITEM,2021.8999999880907,2016.7000000000119,2021.8999999880907,2021.8999999880907,2016.7000000000119,2021.8999999880907,1.0,0.0,0.0,,Click Response,1_count,3.0,object-46,temp_dist_trial,29.0,s_sh_15_1,student_shared,usb drive,6.0,competing,paired,s_sh_15_1.jpg,Student,,,sub-25
Desktop or Laptop,Windows 10,Edge 138.0.0.0,1920x1080,1912x954,Temporal Distance Task,cb_06,78.0,temp_dist_trial,num_items,zn7si1,1.0,response,2_ITEM,1383.7000000000116,1366.7000000000114,1383.7000000000116,1383.7000000000116,1366.7000000000114,1383.7000000000116,1.0,0.0,0.0,,Click Response,2_count,5.0,object-49,temp_dist_trial,30.0,s_a_06_1,student_art,pastels,6.0,unique,paired,s_a_06_1.jpg,Student,,,sub-25
Desktop or Laptop,Windows 10,Edge 138.0.0.0,1920x1080,1912x954,Temporal Distance Task,cb_06,78.0,temp_dist_trial,dist_items,qkpkxw,2.0,info,,12.49999997613486,0.0,12.49999997613486,12.49999997613486,0.0,12.49999997613486,1.0,0.0,0.0,,Slider,Slider,4.0,object-56,temp_dist_trial,30.0,s_a_06_1,student_art,pastels,6.0,unique,paired,s_a_06_1.jpg,Student,,,sub-25
Desktop or Laptop,Windows 10,Edge 138.0.0.0,1920x1080,1912x954,Temporal Distance Task,cb_06,78.0,temp_dist_trial,dist_items,qkpkxw,2.0,continue,,2766.700000000012,2750.2999999999884,2766.700000000012,2766.700000000012,2750.2999999999884,2766.700000000012,1.0,0.0,0.0,,Click To Continue,Next button,7.0,object-60,temp_dist_trial,30.0,s_a_06_1,student_art,pastels,6.0,unique,paired,s_a_06_1.jpg,Student,,,sub-25
Desktop or Laptop,Windows 10,Edge 138.0.0.0,1920x1080,1912x954,Temporal Distance Task,cb_06,78.0,temp_dist_trial,dist_items,qkpkxw,2.0,response,67,1300.2999999999886,2750.2999999999884,2766.700000000012,1300.2999999999886,2750.2999999999884,2766.700000000012,1.0,1466.4000000000233,0.0,,Slider,Slider,4.0,object-56,temp_dist_trial,30.0,s_a_06_1,student_art,pastels,6.0,unique,paired,s_a_06_1.jpg,Student,,,sub-25
Desktop or Laptop,Windows 10,Edge 138.0.0.0,1920x1080,1912x954,Temporal Distance Task,cb_06,79.0,temp_dist_trial,num_items,zn7si1,1.0,response,num_miss,2999.5,2999.5,2999.5,2999.5,2999.5,2999.5,1.0,0.0,0.0,num_miss_tag,Time Limit,screen,0.0,screen,temp_dist_trial,31.0,s_a_20_1,student_art,pin cushion,6.0,unique,single,s_a_20_1.jpg,Student,,,sub-25
Desktop or Laptop,Windows 10,Edge 138.0.0.0,1920x1080,1912x954,Temporal Distance Task,cb_06,80.0,temp_dist_trial,num_items,zn7si1,1.0,response,2_ITEM,1506.4000000118976,1499.7999999999884,1506.4000000118976,1506.4000000118976,1499.7999999999884,1506.4000000118976,1.0,0.0,0.0,,Click Response,2_count,5.0,object-49,temp_dist_trial,32.0,s_sh_18_1,student_shared,wall calendar,6.0,competing,paired,s_sh_18_1.jpg,Student,,,sub-25
Desktop or Laptop,Windows 10,Edge 138.0.0.0,1920x1080,1912x954,Temporal Distance Task,cb_06,80.0,temp_dist_trial,dist_items,qkpkxw,2.0,info,,11.900000000023287,0.0,11.900000000023287,11.900000000023287,0.0,11.900000000023287,1.0,0.0,0.0,,Slider,Slider,4.0,object-56,temp_dist_trial,32.0,s_sh_18_1,student_shared,wall calendar,6.0,competing,paired,s_sh_18_1.jpg,Student,,,sub-25
Desktop or Laptop,Windows 10,Edge 138.0.0.0,1920x1080,1912x954,Temporal Distance Task,cb_06,80.0,temp_dist_trial,dist_items,qkpkxw,2.0,response,dist_miss,6999.600000000036,6999.600000000036,6999.600000000036,6999.600000000036,6999.600000000036,6999.600000000036,1.0,0.0,0.0,dist_miss_tag,Time Limit,screen,0.0,screen,temp_dist_trial,32.0,s_sh_18_1,student_shared,wall calendar,6.0,competing,paired,s_sh_18_1.jpg,Student,,,sub-25
Desktop or Laptop,Windows 10,Edge 138.0.0.0,1920x1080,1912x954,Temporal Distance Task,cb_06,80.0,temp_dist_trial,dist_items,qkpkxw,2.0,response,39,2616.4000000000233,6999.600000000036,7006.200000011944,2616.4000000000233,6999.600000000036,7006.200000011944,1.0,4389.800000011921,0.0,,Slider,Slider,4.0,object-56,temp_dist_trial,32.0,s_sh_18_1,student_shared,wall calendar,6.0,competing,paired,s_sh_18_1.jpg,Student,,,sub-25
Desktop or Laptop,Windows 10,Edge 138.0.0.0,1920x1080,1912x954,Temporal Distance Task,cb_06,81.0,temp_dist_trial,num_items,zn7si1,1.0,response,1_ITEM,1422.7999999999884,1417.0,1422.7999999999884,1422.7999999999884,1417.0,1422.7999999999884,1.0,0.0,0.0,,Click Response,1_count,3.0,object-46,temp_dist_trial,33.0,s_sh_04_1,student_shared,laptop stand,6.0,competing,paired,s_sh_04_1.jpg,Student,,,sub-25
Desktop or Laptop,Windows 10,Edge 138.0.0.0,1920x1080,1912x954,Temporal Distance Task,cb_06,82.0,temp_dist_trial,num_items,zn7si1,1.0,response,1_ITEM,2403.3999999642256,2399.7999999999884,2403.3999999642256,2403.3999999642256,2399.7999999999884,2403.3999999642256,1.0,0.0,0.0,,Click Response,1_count,3.0,object-46,temp_dist_trial,34.0,s_s_06_1,student_stem,calculator,6.0,unique,paired,s_s_06_1.jpg,Student,,,sub-25
Desktop or Laptop,Windows 10,Edge 138.0.0.0,1920x1080,1912x954,Temporal Distance Task,cb_06,83.0,temp_dist_trial,num_items,zn7si1,1.0,response,1_ITEM,1150.2000000000114,1133.5,1150.2000000000114,1150.2000000000114,1133.5,1150.2000000000114,1.0,0.0,0.0,,Click Response,1_count,3.0,object-46,temp_dist_trial,35.0,s_a_01_1,student_art,paintbrush,6.0,unique,paired,s_a_01_1.jpg,Student,,,sub-25
Desktop or Laptop,Windows 10,Edge 138.0.0.0,1920x1080,1912x954,Temporal Distance Task,cb_06,84.0,temp_dist_trial,num_items,zn7si1,1.0,response,2_ITEM,2847.7999999642493,2833.5,2847.7999999642493,2847.7999999642493,2833.5,2847.7999999642493,1.0,0.0,0.0,,Click Response,2_count,5.0,object-49,temp_dist_trial,36.0,s_s_03_1,student_stem,petri dish,6.0,unique,paired,s_s_03_1.jpg,Student,,,sub-25
Desktop or Laptop,Windows 10,Edge 138.0.0.0,1920x1080,1912x954,Temporal Distance Task,cb_06,84.0,temp_dist_trial,dist_items,qkpkxw,2.0,info,,10.899999976158142,0.0,10.899999976158142,10.899999976158142,0.0,10.899999976158142,1.0,0.0,0.0,,Slider,Slider,4.0,object-56,temp_dist_trial,36.0,s_s_03_1,student_stem,petri dish,6.0,unique,paired,s_s_03_1.jpg,Student,,,sub-25
Desktop or Laptop,Windows 10,Edge 138.0.0.0,1920x1080,1912x954,Temporal Distance Task,cb_06,84.0,temp_dist_trial,dist_items,qkpkxw,2.0,continue,,1842.5999999642368,1833.7000000000119,1842.5999999642368,1842.5999999642368,1833.7000000000119,1842.5999999642368,1.0,0.0,0.0,,Click To Continue,Next button,7.0,object-60,temp_dist_trial,36.0,s_s_03_1,student_stem,petri dish,6.0,unique,paired,s_s_03_1.jpg,Student,,,sub-25
Desktop or Laptop,Windows 10,Edge 138.0.0.0,1920x1080,1912x954,Temporal Distance Task,cb_06,84.0,temp_dist_trial,dist_items,qkpkxw,2.0,response,67,917.0999999999768,1833.7000000000119,1850.6000000000354,917.0999999999768,1833.7000000000119,1850.6000000000354,1.0,933.5000000000584,0.0,,Slider,Slider,4.0,object-56,temp_dist_trial,36.0,s_s_03_1,student_stem,petri dish,6.0,unique,paired,s_s_03_1.jpg,Student,,,sub-25
Desktop or Laptop,Windows 10,Edge 138.0.0.0,1920x1080,1912x954,Temporal Distance Task,cb_06,85.0,temp_dist_trial,num_items,zn7si1,1.0,response,2_ITEM,1382.4999999880677,1366.2999999999886,1382.4999999880677,1382.4999999880677,1366.2999999999886,1382.4999999880677,1.0,0.0,0.0,,Click Response,2_count,5.0,object-49,temp_dist_trial,37.0,s_sh_08_1,student_shared,post-its,6.0,competing,paired,s_sh_08_1.jpg,Student,,,sub-25
Desktop or Laptop,Windows 10,Edge 138.0.0.0,1920x1080,1912x954,Temporal Distance Task,cb_06,85.0,temp_dist_trial,dist_items,qkpkxw,2.0,info,,11.599999999976713,0.0,11.599999999976713,11.599999999976713,0.0,11.599999999976713,1.0,0.0,0.0,,Slider,Slider,4.0,object-56,temp_dist_trial,37.0,s_sh_08_1,student_shared,post-its,6.0,competing,paired,s_sh_08_1.jpg,Student,,,sub-25
Desktop or Laptop,Windows 10,Edge 138.0.0.0,1920x1080,1912x954,Temporal Distance Task,cb_06,85.0,temp_dist_trial,dist_items,qkpkxw,2.0,continue,,1974.199999964214,1966.3999999999646,1974.199999964214,1974.199999964214,1966.3999999999646,1974.199999964214,1.0,0.0,0.0,,Click To Continue,Next button,7.0,object-60,temp_dist_trial,37.0,s_sh_08_1,student_shared,post-its,6.0,competing,paired,s_sh_08_1.jpg,Student,,,sub-25
Desktop or Laptop,Windows 10,Edge 138.0.0.0,1920x1080,1912x954,Temporal Distance Task,cb_06,85.0,temp_dist_trial,dist_items,qkpkxw,2.0,response,74,1050.0,1966.3999999999646,1975.5999999999767,1050.0,1966.3999999999646,1975.5999999999767,1.0,925.5999999999768,0.0,,Slider,Slider,4.0,object-56,temp_dist_trial,37.0,s_sh_08_1,student_shared,post-its,6.0,competing,paired,s_sh_08_1.jpg,Student,,,sub-25
Desktop or Laptop,Windows 10,Edge 138.0.0.0,1920x1080,1912x954,Temporal Distance Task,cb_06,86.0,temp_dist_trial,num_items,zn7si1,1.0,response,1_ITEM,1188.0000000119326,1183.7999999999886,1188.0000000119326,1188.0000000119326,1183.7999999999886,1188.0000000119326,1.0,0.0,0.0,,Click Response,1_count,3.0,object-46,temp_dist_trial,38.0,s_s_12_1,student_stem,robotic arm,6.0,unique,single,s_s_12_1.jpg,Student,,,sub-25
Desktop or Laptop,Windows 10,Edge 138.0.0.0,1920x1080,1912x954,Temporal Distance Task,cb_06,87.0,temp_dist_trial,num_items,zn7si1,1.0,response,2_ITEM,1998.299999988056,1983.6999999999528,1998.299999988056,1998.299999988056,1983.6999999999528,1998.299999988056,1.0,0.0,0.0,,Click Response,2_count,5.0,object-49,temp_dist_trial,39.0,s_sh_06_1,student_shared,clipboard,6.0,competing,paired,s_sh_06_1.jpg,Student,,,sub-25
Desktop or Laptop,Windows 10,Edge 138.0.0.0,1920x1080,1912x954,Temporal Distance Task,cb_06,87.0,temp_dist_trial,dist_items,qkpkxw,2.0,info,,16.700000000011638,0.0,16.700000000011638,16.700000000011638,0.0,16.700000000011638,1.0,0.0,0.0,,Slider,Slider,4.0,object-56,temp_dist_trial,39.0,s_sh_06_1,student_shared,clipboard,6.0,competing,paired,s_sh_06_1.jpg,Student,,,sub-25
Desktop or Laptop,Windows 10,Edge 138.0.0.0,1920x1080,1912x954,Temporal Distance Task,cb_06,87.0,temp_dist_trial,dist_items,qkpkxw,2.0,continue,,4333.100000000035,4316.5,4333.100000000035,4333.100000000035,4316.5,4333.100000000035,1.0,0.0,0.0,,Click To Continue,Next button,7.0,object-60,temp_dist_trial,39.0,s_sh_06_1,student_shared,clipboard,6.0,competing,paired,s_sh_06_1.jpg,Student,,,sub-25
Desktop or Laptop,Windows 10,Edge 138.0.0.0,1920x1080,1912x954,Temporal Distance Task,cb_06,87.0,temp_dist_trial,dist_items,qkpkxw,2.0,response,66,966.7000000000116,4316.5,4333.100000000035,966.7000000000116,4316.5,4333.100000000035,1.0,3366.4000000000237,0.0,,Slider,Slider,4.0,object-56,temp_dist_trial,39.0,s_sh_06_1,student_shared,clipboard,6.0,competing,paired,s_sh_06_1.jpg,Student,,,sub-25
Desktop or Laptop,Windows 10,Edge 138.0.0.0,1920x1080,1912x954,Temporal Distance Task,cb_06,88.0,temp_dist_trial,num_items,zn7si1,1.0,response,1_ITEM,1956.1000000119093,1950.2000000000119,1956.1000000119093,1956.1000000119093,1950.2000000000119,1956.1000000119093,1.0,0.0,0.0,,Click Response,1_count,3.0,object-46,temp_dist_trial,40.0,s_sh_05_1,student_shared,laptop,6.0,competing,single,s_sh_05_1.jpg,Student,,,sub-25
Desktop or Laptop,Windows 10,Edge 138.0.0.0,1920x1080,1912x954,Temporal Distance Task,cb_06,89.0,temp_dist_trial,num_items,zn7si1,1.0,response,1_ITEM,1994.700000011944,1983.3000000000463,1994.700000011944,1994.700000011944,1983.3000000000463,1994.700000011944,1.0,0.0,0.0,,Click Response,1_count,3.0,object-46,temp_dist_trial,41.0,s_sh_14_1,student_shared,printer,6.0,competing,paired,s_sh_14_1.jpg,Student,,,sub-25
Desktop or Laptop,Windows 10,Edge 138.0.0.0,1920x1080,1912x954,Temporal Distance Task,cb_06,90.0,temp_dist_trial,num_items,zn7si1,1.0,response,1_ITEM,1147.3999999642256,1133.399999999965,1147.3999999642256,1147.3999999642256,1133.399999999965,1147.3999999642256,1.0,0.0,0.0,,Click Response,1_count,3.0,object-46,temp_dist_trial,42.0,s_s_05_1,student_stem,lab goggles,6.0,unique,single,s_s_05_1.jpg,Student,,,sub-25
Desktop or Laptop,Windows 10,Edge 138.0.0.0,1920x1080,1912x954,Temporal Distance Task,cb_06,91.0,temp_dist_trial,num_items,zn7si1,1.0,response,1_ITEM,871.8000000119209,866.7000000000116,871.8000000119209,871.8000000119209,866.7000000000116,871.8000000119209,1.0,0.0,0.0,,Click Response,1_count,3.0,object-46,temp_dist_trial,43.0,s_sh_16_1,student_shared,stapler,6.0,competing,single,s_sh_16_1.jpg,Student,,,sub-25
Desktop or Laptop,Windows 10,Edge 138.0.0.0,1920x1080,1912x954,Temporal Distance Task,cb_06,92.0,temp_dist_trial,num_items,zn7si1,1.0,response,2_ITEM,1830.2999999642486,1817.2999999999884,1830.2999999642486,1830.2999999642486,1817.2999999999884,1830.2999999642486,1.0,0.0,0.0,,Click Response,2_count,5.0,object-49,temp_dist_trial,44.0,s_sh_20_1,student_shared,tape,6.0,competing,paired,s_sh_20_1.jpg,Student,,,sub-25
Desktop or Laptop,Windows 10,Edge 138.0.0.0,1920x1080,1912x954,Temporal Distance Task,cb_06,92.0,temp_dist_trial,dist_items,qkpkxw,2.0,info,,16.900000000023287,0.0,16.900000000023287,16.900000000023287,0.0,16.900000000023287,1.0,0.0,0.0,,Slider,Slider,4.0,object-56,temp_dist_trial,44.0,s_sh_20_1,student_shared,tape,6.0,competing,paired,s_sh_20_1.jpg,Student,,,sub-25
Desktop or Laptop,Windows 10,Edge 138.0.0.0,1920x1080,1912x954,Temporal Distance Task,cb_06,92.0,temp_dist_trial,dist_items,qkpkxw,2.0,continue,,3688.299999999989,3683.299999999989,3688.299999999989,3688.299999999989,3683.299999999989,3688.299999999989,1.0,0.0,0.0,,Click To Continue,Next button,7.0,object-60,temp_dist_trial,44.0,s_sh_20_1,student_shared,tape,6.0,competing,paired,s_sh_20_1.jpg,Student,,,sub-25
Desktop or Laptop,Windows 10,Edge 138.0.0.0,1920x1080,1912x954,Temporal Distance Task,cb_06,92.0,temp_dist_trial,dist_items,qkpkxw,2.0,response,38,2449.700000000012,3683.299999999989,3700.200000000012,2449.700000000012,3683.299999999989,3700.200000000012,1.0,1250.5,0.0,,Slider,Slider,4.0,object-56,temp_dist_trial,44.0,s_sh_20_1,student_shared,tape,6.0,competing,paired,s_sh_20_1.jpg,Student,,,sub-25
Desktop or Laptop,Windows 10,Edge 138.0.0.0,1920x1080,1912x954,Temporal Distance Task,cb_06,93.0,temp_dist_trial,num_items,zn7si1,1.0,response,1_ITEM,1637.1999999880786,1632.7999999999884,1637.1999999880786,1637.1999999880786,1632.7999999999884,1637.1999999880786,1.0,0.0,0.0,,Click Response,1_count,3.0,object-46,temp_dist_trial,45.0,s_s_17_1,student_stem,ring stand,6.0,unique,paired,s_s_17_1.jpg,Student,,,sub-25
Desktop or Laptop,Windows 10,Edge 138.0.0.0,1920x1080,1912x954,Temporal Distance Task,cb_06,94.0,temp_dist_trial,num_items,zn7si1,1.0,response,1_ITEM,1533.1999999761465,1517.2000000000116,1533.1999999761465,1533.1999999761465,1517.2000000000116,1533.1999999761465,1.0,0.0,0.0,,Click Response,1_count,3.0,object-46,temp_dist_trial,46.0,s_sh_24_1,student_shared,desk organizer,6.0,competing,paired,s_sh_24_1.jpg,Student,,,sub-25
Desktop or Laptop,Windows 10,Edge 138.0.0.0,1920x1080,1912x954,Temporal Distance Task,cb_06,95.0,temp_dist_trial,num_items,zn7si1,1.0,response,1_ITEM,920.2999999642489,916.4000000000232,920.2999999642489,920.2999999642489,916.4000000000232,920.2999999642489,1.0,0.0,0.0,,Click Response,1_count,3.0,object-46,temp_dist_trial,47.0,s_s_16_1,student_stem,toolbox,6.0,unique,paired,s_s_16_1.jpg,Student,,,sub-25
Desktop or Laptop,Windows 10,Edge 138.0.0.0,1920x1080,1912x954,Temporal Distance Task,cb_06,96.0,temp_dist_trial,num_items,zn7si1,1.0,response,1_ITEM,1931.4000000118976,1916.6999999999528,1931.4000000118976,1931.4000000118976,1916.6999999999528,1931.4000000118976,1.0,0.0,0.0,,Click Response,1_count,3.0,object-46,temp_dist_trial,48.0,s_a_04_1,student_art,easel,6.0,unique,single,s_a_04_1.jpg,Student,,,sub-25
Desktop or Laptop,Windows 10,Edge 138.0.0.0,1920x1080,1912x954,Temporal Distance Task,$${counterbalance_group},,,,,,info,END,,,359253.0,,,,0.0,,,,,,,,,,,,,,,,,,,,sub-25
