Participant Device,Participant OS,Participant Browser,Participant Monitor Size,Participant Viewport Size,Task Name,Current Spreadsheet,Trial Number,Display,Screen,Screen ID,Screen Counter,Response Type,Response,Onset Time,Clock Time,Reaction Time,Absolute Onset Time,Absolute Clock Time,Absolute Reaction Time,Correct,Response Duration,Proportion,Tag,Component Name,Object Name,Object Number,Object ID,Spreadsheet: display,Spreadsheet: trial,Spreadsheet: stimulus_id,Spreadsheet: expected_goal,Spreadsheet: stimulus_name,Spreadsheet: c_group,Spreadsheet: condition,Spreadsheet: paired_status,Spreadsheet: stimulus_path,Spreadsheet: block_type,Manipulation: Spreadsheet,Store: enc_test_acc,sub_label
Desktop or Laptop,Windows 10,Chrome 138.0.0.0,1707x1067,1707x1067,Temporal Distance Task,,,,,,,info,BEGIN,,,,,,,,,,,,,,,,,,,,,,,,,$${counterbalance_group},,sub-99
Desktop or Laptop,Windows 10,Chrome 138.0.0.0,1707x1067,1707x1067,Temporal Distance Task,cb_01,1.0,temp_instructions,intro_screen,3tnme7,1.0,continue,,7342.600000000372,7338.3,7342.600000000372,7342.600000000372,7338.3,7342.600000000372,1.0,0.0,0.0,,Click To Continue,Continue Button,4.0,object-29,temp_instructions,,,Student,,,,,,,$${counterbalance_group},,sub-99
Desktop or Laptop,Windows 10,Chrome 138.0.0.0,1707x1067,1707x1067,Temporal Distance Task,cb_01,1.0,temp_instructions,intro_screen_2,52v7ur,2.0,continue,,8744.700000000745,8744.199999999999,8744.700000000745,8744.700000000745,8744.199999999999,8744.700000000745,1.0,0.0,0.0,,Click To Continue,Continue Button,4.0,object-39,temp_instructions,,,Student,,,,,,,$${counterbalance_group},,sub-99
Desktop or Laptop,Windows 10,Chrome 138.0.0.0,1707x1067,1707x1067,Temporal Distance Task,cb_01,1.0,temp_instructions,intro_screen_3,i7lvwx,3.0,continue,,5412.200000000002,5411.4000000000015,5412.200000000002,5412.200000000002,5411.4000000000015,5412.200000000002,1.0,0.0,0.0,,Click To Continue,Continue Button,4.0,object-67,temp_instructions,,,Student,,,,,,,$${counterbalance_group},,sub-99
Desktop or Laptop,Windows 10,Chrome 138.0.0.0,1707x1067,1707x1067,Temporal Distance Task,cb_01,1.0,temp_instructions,test_q1,5ieqx1,4.0,response,choice_3,3519.6000000007452,3514.599999999999,3519.6000000007452,3519.6000000007452,3514.599999999999,3519.6000000007452,1.0,0.0,0.0,,Click Response,choice_3,5.0,object-345,temp_instructions,,,Student,,,,,,,$${counterbalance_group},,sub-99
Desktop or Laptop,Windows 10,Chrome 138.0.0.0,1707x1067,1707x1067,Temporal Distance Task,cb_01,1.0,temp_instructions,score_corr,7ilvjr,5.0,continue,,1153.8000000014908,1151.2999999999993,1153.8000000014908,1153.8000000014908,1151.2999999999993,1153.8000000014908,1.0,0.0,0.0,,Click To Continue,Continue Button,3.0,object-23,temp_instructions,,,Student,,,,,,,$${counterbalance_group},,sub-99
Desktop or Laptop,Windows 10,Chrome 138.0.0.0,1707x1067,1707x1067,Temporal Distance Task,cb_01,1.0,temp_eventStart,Screen 1,dgtyxe,1.0,continue,,1460.5,1454.4000000000015,1460.5,1460.5,1454.4000000000015,1460.5,1.0,0.0,0.0,,Click To Continue,Next Button,3.0,object-43,temp_eventStart,,,Student,,,,,,,$${counterbalance_group},,sub-99
Desktop or Laptop,Windows 10,Chrome 138.0.0.0,1707x1067,1707x1067,Temporal Distance Task,cb_01,1.0,temp_dist_trial,num_items,zn7si1,1.0,response,1_ITEM,1671.2000000011176,1666.4000000000015,1671.2000000011176,1671.2000000011176,1666.4000000000015,1671.2000000011176,1.0,0.0,0.0,,Click Response,1_count,3.0,object-46,temp_dist_trial,1.0,s_sh_22_1,student_shared,hole puncher,1.0,competing,single,s_sh_22_1.jpg,Student,$${counterbalance_group},,sub-99
Desktop or Laptop,Windows 10,Chrome 138.0.0.0,1707x1067,1707x1067,Temporal Distance Task,cb_01,2.0,temp_dist_trial,num_items,zn7si1,1.0,response,2_ITEM,1965.7000000014887,1963.4000000000005,1965.7000000014887,1965.7000000014887,1963.4000000000005,1965.7000000014887,1.0,0.0,0.0,,Click Response,2_count,5.0,object-49,temp_dist_trial,2.0,s_sh_08_1,student_shared,post-its,1.0,competing,single,s_sh_08_1.jpg,Student,$${counterbalance_group},,sub-99
Desktop or Laptop,Windows 10,Chrome 138.0.0.0,1707x1067,1707x1067,Temporal Distance Task,cb_01,2.0,temp_dist_trial,dist_items,qkpkxw,2.0,info,,3.500000001120497,0.0,3.500000001120497,3.500000001120497,0.0,3.500000001120497,1.0,0.0,0.0,,Slider,Slider,4.0,object-56,temp_dist_trial,2.0,s_sh_08_1,student_shared,post-its,1.0,competing,single,s_sh_08_1.jpg,Student,$${counterbalance_group},,sub-99
Desktop or Laptop,Windows 10,Chrome 138.0.0.0,1707x1067,1707x1067,Temporal Distance Task,cb_01,2.0,temp_dist_trial,dist_items,qkpkxw,2.0,continue,,2773.6000000007484,2769.300000000003,2773.6000000007484,2773.6000000007484,2769.300000000003,2773.6000000007484,1.0,0.0,0.0,,Click To Continue,Next button,7.0,object-60,temp_dist_trial,2.0,s_sh_08_1,student_shared,post-its,1.0,competing,single,s_sh_08_1.jpg,Student,$${counterbalance_group},,sub-99
Desktop or Laptop,Windows 10,Chrome 138.0.0.0,1707x1067,1707x1067,Temporal Distance Task,cb_01,2.0,temp_dist_trial,dist_items,qkpkxw,2.0,response,62,1375.5,2769.300000000003,2774.1000000007484,1375.5,2769.300000000003,2774.1000000007484,1.0,1398.600000000748,0.0,,Slider,Slider,4.0,object-56,temp_dist_trial,2.0,s_sh_08_1,student_shared,post-its,1.0,competing,single,s_sh_08_1.jpg,Student,$${counterbalance_group},,sub-99
Desktop or Laptop,Windows 10,Chrome 138.0.0.0,1707x1067,1707x1067,Temporal Distance Task,cb_01,3.0,temp_dist_trial,num_items,zn7si1,1.0,response,1_ITEM,1275.2000000011176,1272.5,1275.2000000011176,1275.2000000011176,1272.5,1275.2000000011176,1.0,0.0,0.0,,Click Response,1_count,3.0,object-46,temp_dist_trial,3.0,s_sh_10_1,student_shared,scissors,1.0,competing,paired,s_sh_10_1.jpg,Student,$${counterbalance_group},,sub-99
Desktop or Laptop,Windows 10,Chrome 138.0.0.0,1707x1067,1707x1067,Temporal Distance Task,cb_01,4.0,temp_dist_trial,num_items,zn7si1,1.0,response,2_ITEM,1978.4000000000005,1975.3000000000034,1978.4000000000005,1978.4000000000005,1975.3000000000034,1978.4000000000005,1.0,0.0,0.0,,Click Response,2_count,5.0,object-49,temp_dist_trial,4.0,s_s_07_1,student_stem,periodic table,1.0,unique,paired,s_s_07_1.jpg,Student,$${counterbalance_group},,sub-99
Desktop or Laptop,Windows 10,Chrome 138.0.0.0,1707x1067,1707x1067,Temporal Distance Task,cb_01,4.0,temp_dist_trial,dist_items,qkpkxw,2.0,info,,2.300000000745058,0.0,2.300000000745058,2.300000000745058,0.0,2.300000000745058,1.0,0.0,0.0,,Slider,Slider,4.0,object-56,temp_dist_trial,4.0,s_s_07_1,student_stem,periodic table,1.0,unique,paired,s_s_07_1.jpg,Student,$${counterbalance_group},,sub-99
Desktop or Laptop,Windows 10,Chrome 138.0.0.0,1707x1067,1707x1067,Temporal Distance Task,cb_01,4.0,temp_dist_trial,dist_items,qkpkxw,2.0,continue,,2183.6000000014897,2181.400000000001,2183.6000000014897,2183.6000000014897,2181.400000000001,2183.6000000014897,1.0,0.0,0.0,,Click To Continue,Next button,7.0,object-60,temp_dist_trial,4.0,s_s_07_1,student_stem,periodic table,1.0,unique,paired,s_s_07_1.jpg,Student,$${counterbalance_group},,sub-99
Desktop or Laptop,Windows 10,Chrome 138.0.0.0,1707x1067,1707x1067,Temporal Distance Task,cb_01,4.0,temp_dist_trial,dist_items,qkpkxw,2.0,response,32,769.5,2181.400000000001,2184.1000000014897,769.5,2181.400000000001,2184.1000000014897,1.0,1414.6000000014901,0.0,,Slider,Slider,4.0,object-56,temp_dist_trial,4.0,s_s_07_1,student_stem,periodic table,1.0,unique,paired,s_s_07_1.jpg,Student,$${counterbalance_group},,sub-99
Desktop or Laptop,Windows 10,Chrome 138.0.0.0,1707x1067,1707x1067,Temporal Distance Task,cb_01,5.0,temp_dist_trial,num_items,zn7si1,1.0,response,2_ITEM,2397.800000001116,2393.699999999997,2397.800000001116,2397.800000001116,2393.699999999997,2397.800000001116,1.0,0.0,0.0,,Click Response,2_count,5.0,object-49,temp_dist_trial,5.0,s_sh_04_1,student_shared,laptop stand,1.0,competing,single,s_sh_04_1.jpg,Student,$${counterbalance_group},,sub-99
Desktop or Laptop,Windows 10,Chrome 138.0.0.0,1707x1067,1707x1067,Temporal Distance Task,cb_01,5.0,temp_dist_trial,dist_items,qkpkxw,2.0,info,,2.0999999999985453,0.0,2.0999999999985453,2.0999999999985453,0.0,2.0999999999985453,1.0,0.0,0.0,,Slider,Slider,4.0,object-56,temp_dist_trial,5.0,s_sh_04_1,student_shared,laptop stand,1.0,competing,single,s_sh_04_1.jpg,Student,$${counterbalance_group},,sub-99
Desktop or Laptop,Windows 10,Chrome 138.0.0.0,1707x1067,1707x1067,Temporal Distance Task,cb_01,5.0,temp_dist_trial,dist_items,qkpkxw,2.0,continue,,2944.700000001489,2939.099999999999,2944.700000001489,2944.700000001489,2939.099999999999,2944.700000001489,1.0,0.0,0.0,,Click To Continue,Next button,7.0,object-60,temp_dist_trial,5.0,s_sh_04_1,student_shared,laptop stand,1.0,competing,single,s_sh_04_1.jpg,Student,$${counterbalance_group},,sub-99
Desktop or Laptop,Windows 10,Chrome 138.0.0.0,1707x1067,1707x1067,Temporal Distance Task,cb_01,5.0,temp_dist_trial,dist_items,qkpkxw,2.0,response,63,1957.4000000000005,2939.099999999999,2944.900000000744,1957.4000000000005,2939.099999999999,2944.900000000744,1.0,987.500000000742,0.0,,Slider,Slider,4.0,object-56,temp_dist_trial,5.0,s_sh_04_1,student_shared,laptop stand,1.0,competing,single,s_sh_04_1.jpg,Student,$${counterbalance_group},,sub-99
Desktop or Laptop,Windows 10,Chrome 138.0.0.0,1707x1067,1707x1067,Temporal Distance Task,cb_01,6.0,temp_dist_trial,num_items,zn7si1,1.0,response,1_ITEM,1323.1000000014901,1321.0,1323.1000000014901,1323.1000000014901,1321.0,1323.1000000014901,1.0,0.0,0.0,,Click Response,1_count,3.0,object-46,temp_dist_trial,6.0,s_sh_11_1,student_shared,pencil case,1.0,competing,paired,s_sh_11_1.jpg,Student,$${counterbalance_group},,sub-99
Desktop or Laptop,Windows 10,Chrome 138.0.0.0,1707x1067,1707x1067,Temporal Distance Task,cb_01,7.0,temp_dist_trial,num_items,zn7si1,1.0,response,2_ITEM,1450.4000000007434,1448.2999999999954,1450.4000000007434,1450.4000000007434,1448.2999999999954,1450.4000000007434,1.0,0.0,0.0,,Click Response,2_count,5.0,object-49,temp_dist_trial,7.0,s_a_10_1,student_art,tripod,1.0,unique,paired,s_a_10_1.jpg,Student,$${counterbalance_group},,sub-99
Desktop or Laptop,Windows 10,Chrome 138.0.0.0,1707x1067,1707x1067,Temporal Distance Task,cb_01,7.0,temp_dist_trial,dist_items,qkpkxw,2.0,info,,2.1000000007479684,0.0,2.1000000007479684,2.1000000007479684,0.0,2.1000000007479684,1.0,0.0,0.0,,Slider,Slider,4.0,object-56,temp_dist_trial,7.0,s_a_10_1,student_art,tripod,1.0,unique,paired,s_a_10_1.jpg,Student,$${counterbalance_group},,sub-99
Desktop or Laptop,Windows 10,Chrome 138.0.0.0,1707x1067,1707x1067,Temporal Distance Task,cb_01,7.0,temp_dist_trial,dist_items,qkpkxw,2.0,continue,,3228.7000000003754,3223.800000000003,3228.7000000003754,3228.7000000003754,3223.800000000003,3228.7000000003754,1.0,0.0,0.0,,Click To Continue,Next button,7.0,object-60,temp_dist_trial,7.0,s_a_10_1,student_art,tripod,1.0,unique,paired,s_a_10_1.jpg,Student,$${counterbalance_group},,sub-99
Desktop or Laptop,Windows 10,Chrome 138.0.0.0,1707x1067,1707x1067,Temporal Distance Task,cb_01,7.0,temp_dist_trial,dist_items,qkpkxw,2.0,response,71,1418.0,3223.800000000003,3229.1000000007484,1418.0,3223.800000000003,3229.1000000007484,1.0,1811.100000000748,0.0,,Slider,Slider,4.0,object-56,temp_dist_trial,7.0,s_a_10_1,student_art,tripod,1.0,unique,paired,s_a_10_1.jpg,Student,$${counterbalance_group},,sub-99
Desktop or Laptop,Windows 10,Chrome 138.0.0.0,1707x1067,1707x1067,Temporal Distance Task,cb_01,8.0,temp_dist_trial,num_items,zn7si1,1.0,response,1_ITEM,1341.6000000014901,1339.1999999999969,1341.6000000014901,1341.6000000014901,1339.1999999999969,1341.6000000014901,1.0,0.0,0.0,,Click Response,1_count,3.0,object-46,temp_dist_trial,8.0,s_a_12_1,student_art,saxophone,1.0,unique,single,s_a_12_1.jpg,Student,$${counterbalance_group},,sub-99
Desktop or Laptop,Windows 10,Chrome 138.0.0.0,1707x1067,1707x1067,Temporal Distance Task,cb_01,9.0,temp_dist_trial,num_items,zn7si1,1.0,response,1_ITEM,1940.500000001492,1939.0999999999985,1940.500000001492,1940.500000001492,1939.0999999999985,1940.500000001492,1.0,0.0,0.0,,Click Response,1_count,3.0,object-46,temp_dist_trial,9.0,s_s_02_1,student_stem,flask,1.0,unique,paired,s_s_02_1.jpg,Student,$${counterbalance_group},,sub-99
Desktop or Laptop,Windows 10,Chrome 138.0.0.0,1707x1067,1707x1067,Temporal Distance Task,cb_01,10.0,temp_dist_trial,num_items,zn7si1,1.0,response,1_ITEM,1835.900000001493,1830.1000000000056,1835.900000001493,1835.900000001493,1830.1000000000056,1835.900000001493,1.0,0.0,0.0,,Click Response,1_count,3.0,object-46,temp_dist_trial,10.0,s_sh_03_1,student_shared,highlighter,1.0,competing,paired,s_sh_03_1.jpg,Student,$${counterbalance_group},,sub-99
Desktop or Laptop,Windows 10,Chrome 138.0.0.0,1707x1067,1707x1067,Temporal Distance Task,cb_01,11.0,temp_dist_trial,num_items,zn7si1,1.0,response,1_ITEM,1654.4000000000015,1648.3000000000034,1654.4000000000015,1654.4000000000015,1648.3000000000034,1654.4000000000015,1.0,0.0,0.0,,Click Response,1_count,3.0,object-46,temp_dist_trial,11.0,s_s_05_1,student_stem,lab goggles,1.0,unique,paired,s_s_05_1.jpg,Student,$${counterbalance_group},,sub-99
Desktop or Laptop,Windows 10,Chrome 138.0.0.0,1707x1067,1707x1067,Temporal Distance Task,cb_01,12.0,temp_dist_trial,num_items,zn7si1,1.0,response,1_ITEM,1398.5999999999985,1393.6999999999966,1398.5999999999985,1398.5999999999985,1393.6999999999966,1398.5999999999985,1.0,0.0,0.0,,Click Response,1_count,3.0,object-46,temp_dist_trial,12.0,s_s_01_1,student_stem,microscope,1.0,unique,paired,s_s_01_1.jpg,Student,$${counterbalance_group},,sub-99
Desktop or Laptop,Windows 10,Chrome 138.0.0.0,1707x1067,1707x1067,Temporal Distance Task,cb_01,13.0,temp_dist_trial,num_items,zn7si1,1.0,response,1_ITEM,1547.0000000014913,1545.2000000000046,1547.0000000014913,1547.0000000014913,1545.2000000000046,1547.0000000014913,1.0,0.0,0.0,,Click Response,1_count,3.0,object-46,temp_dist_trial,13.0,s_a_04_1,student_art,easel,1.0,unique,paired,s_a_04_1.jpg,Student,$${counterbalance_group},,sub-99
Desktop or Laptop,Windows 10,Chrome 138.0.0.0,1707x1067,1707x1067,Temporal Distance Task,cb_01,14.0,temp_dist_trial,num_items,zn7si1,1.0,response,1_ITEM,1919.6000000003696,1914.8999999999944,1919.6000000003696,1919.6000000003696,1914.8999999999944,1919.6000000003696,1.0,0.0,0.0,,Click Response,1_count,3.0,object-46,temp_dist_trial,14.0,s_sh_17_1,student_shared,wireless mouse,1.0,competing,single,s_sh_17_1.jpg,Student,$${counterbalance_group},,sub-99
Desktop or Laptop,Windows 10,Chrome 138.0.0.0,1707x1067,1707x1067,Temporal Distance Task,cb_01,15.0,temp_dist_trial,num_items,zn7si1,1.0,response,2_ITEM,1181.3000000003667,1175.5,1181.3000000003667,1181.3000000003667,1175.5,1181.3000000003667,1.0,0.0,0.0,,Click Response,2_count,5.0,object-49,temp_dist_trial,15.0,s_sh_13_1,student_shared,index cards,1.0,competing,paired,s_sh_13_1.jpg,Student,$${counterbalance_group},,sub-99
Desktop or Laptop,Windows 10,Chrome 138.0.0.0,1707x1067,1707x1067,Temporal Distance Task,cb_01,15.0,temp_dist_trial,dist_items,qkpkxw,2.0,info,,2.0000000014842962,0.0,2.0000000014842962,2.0000000014842962,0.0,2.0000000014842962,1.0,0.0,0.0,,Slider,Slider,4.0,object-56,temp_dist_trial,15.0,s_sh_13_1,student_shared,index cards,1.0,competing,paired,s_sh_13_1.jpg,Student,$${counterbalance_group},,sub-99
Desktop or Laptop,Windows 10,Chrome 138.0.0.0,1707x1067,1707x1067,Temporal Distance Task,cb_01,15.0,temp_dist_trial,dist_items,qkpkxw,2.0,continue,,3671.2000000007392,3666.199999999997,3671.2000000007392,3671.2000000007392,3666.199999999997,3671.2000000007392,1.0,0.0,0.0,,Click To Continue,Next button,7.0,object-60,temp_dist_trial,15.0,s_sh_13_1,student_shared,index cards,1.0,competing,paired,s_sh_13_1.jpg,Student,$${counterbalance_group},,sub-99
Desktop or Laptop,Windows 10,Chrome 138.0.0.0,1707x1067,1707x1067,Temporal Distance Task,cb_01,15.0,temp_dist_trial,dist_items,qkpkxw,2.0,response,69,1508.7999999999884,3666.199999999997,3672.300000000003,1508.7999999999884,3666.199999999997,3672.300000000003,1.0,2163.5000000000146,0.0,,Slider,Slider,4.0,object-56,temp_dist_trial,15.0,s_sh_13_1,student_shared,index cards,1.0,competing,paired,s_sh_13_1.jpg,Student,$${counterbalance_group},,sub-99
Desktop or Laptop,Windows 10,Chrome 138.0.0.0,1707x1067,1707x1067,Temporal Distance Task,cb_01,16.0,temp_dist_trial,num_items,zn7si1,1.0,response,1_ITEM,1338.6999999999969,1333.0999999999913,1338.6999999999969,1338.6999999999969,1333.0999999999913,1338.6999999999969,1.0,0.0,0.0,,Click Response,1_count,3.0,object-46,temp_dist_trial,16.0,s_sh_06_1,student_shared,clipboard,1.0,competing,paired,s_sh_06_1.jpg,Student,$${counterbalance_group},,sub-99
Desktop or Laptop,Windows 10,Chrome 138.0.0.0,1707x1067,1707x1067,Temporal Distance Task,cb_01,17.0,temp_dist_trial,num_items,zn7si1,1.0,response,1_ITEM,1422.3000000014872,1418.0,1422.3000000014872,1422.3000000014872,1418.0,1422.3000000014872,1.0,0.0,0.0,,Click Response,1_count,3.0,object-46,temp_dist_trial,17.0,s_sh_16_1,student_shared,stapler,1.0,competing,paired,s_sh_16_1.jpg,Student,$${counterbalance_group},,sub-99
Desktop or Laptop,Windows 10,Chrome 138.0.0.0,1707x1067,1707x1067,Temporal Distance Task,cb_01,18.0,temp_dist_trial,num_items,zn7si1,1.0,response,1_ITEM,1320.5000000003786,1314.9000000000087,1320.5000000003786,1320.5000000003786,1314.9000000000087,1320.5000000003786,1.0,0.0,0.0,,Click Response,1_count,3.0,object-46,temp_dist_trial,18.0,s_a_05_1,student_art,clay,1.0,unique,single,s_a_05_1.jpg,Student,$${counterbalance_group},,sub-99
Desktop or Laptop,Windows 10,Chrome 138.0.0.0,1707x1067,1707x1067,Temporal Distance Task,cb_01,19.0,temp_dist_trial,num_items,zn7si1,1.0,response,2_ITEM,1638.6000000003696,1636.1999999999966,1638.6000000003696,1638.6000000003696,1636.1999999999966,1638.6000000003696,1.0,0.0,0.0,,Click Response,2_count,5.0,object-49,temp_dist_trial,19.0,s_s_12_1,student_stem,robotic arm,1.0,unique,paired,s_s_12_1.jpg,Student,$${counterbalance_group},,sub-99
Desktop or Laptop,Windows 10,Chrome 138.0.0.0,1707x1067,1707x1067,Temporal Distance Task,cb_01,19.0,temp_dist_trial,dist_items,qkpkxw,2.0,info,,2.3000000014872057,0.0,2.3000000014872057,2.3000000014872057,0.0,2.3000000014872057,1.0,0.0,0.0,,Slider,Slider,4.0,object-56,temp_dist_trial,19.0,s_s_12_1,student_stem,robotic arm,1.0,unique,paired,s_s_12_1.jpg,Student,$${counterbalance_group},,sub-99
Desktop or Laptop,Windows 10,Chrome 138.0.0.0,1707x1067,1707x1067,Temporal Distance Task,cb_01,19.0,temp_dist_trial,dist_items,qkpkxw,2.0,continue,,3016.000000000742,3011.800000000003,3016.000000000742,3016.000000000742,3011.800000000003,3016.000000000742,1.0,0.0,0.0,,Click To Continue,Next button,7.0,object-60,temp_dist_trial,19.0,s_s_12_1,student_stem,robotic arm,1.0,unique,paired,s_s_12_1.jpg,Student,$${counterbalance_group},,sub-99
Desktop or Laptop,Windows 10,Chrome 138.0.0.0,1707x1067,1707x1067,Temporal Distance Task,cb_01,19.0,temp_dist_trial,dist_items,qkpkxw,2.0,response,57,1709.099999999991,3011.800000000003,3016.3000000014868,1709.099999999991,3011.800000000003,3016.3000000014868,1.0,1307.200000001496,0.0,,Slider,Slider,4.0,object-56,temp_dist_trial,19.0,s_s_12_1,student_stem,robotic arm,1.0,unique,paired,s_s_12_1.jpg,Student,$${counterbalance_group},,sub-99
Desktop or Laptop,Windows 10,Chrome 138.0.0.0,1707x1067,1707x1067,Temporal Distance Task,cb_01,20.0,temp_dist_trial,num_items,zn7si1,1.0,response,1_ITEM,1899.5000000014843,1896.7999999999884,1899.5000000014843,1899.5000000014843,1896.7999999999884,1899.5000000014843,1.0,0.0,0.0,,Click Response,1_count,3.0,object-46,temp_dist_trial,20.0,s_sh_14_1,student_shared,printer,1.0,competing,paired,s_sh_14_1.jpg,Student,$${counterbalance_group},,sub-99
Desktop or Laptop,Windows 10,Chrome 138.0.0.0,1707x1067,1707x1067,Temporal Distance Task,cb_01,21.0,temp_dist_trial,num_items,zn7si1,1.0,response,2_ITEM,1198.8999999999942,1193.7999999999886,1198.8999999999942,1198.8999999999942,1193.7999999999886,1198.8999999999942,1.0,0.0,0.0,,Click Response,2_count,5.0,object-49,temp_dist_trial,21.0,s_sh_24_1,student_shared,desk organizer,1.0,competing,paired,s_sh_24_1.jpg,Student,$${counterbalance_group},,sub-99
Desktop or Laptop,Windows 10,Chrome 138.0.0.0,1707x1067,1707x1067,Temporal Distance Task,cb_01,21.0,temp_dist_trial,dist_items,qkpkxw,2.0,info,,2.000000000742148,0.0,2.000000000742148,2.000000000742148,0.0,2.000000000742148,1.0,0.0,0.0,,Slider,Slider,4.0,object-56,temp_dist_trial,21.0,s_sh_24_1,student_shared,desk organizer,1.0,competing,paired,s_sh_24_1.jpg,Student,$${counterbalance_group},,sub-99
Desktop or Laptop,Windows 10,Chrome 138.0.0.0,1707x1067,1707x1067,Temporal Distance Task,cb_01,21.0,temp_dist_trial,dist_items,qkpkxw,2.0,continue,,2276.0000000007417,2272.5999999999913,2276.0000000007417,2276.0000000007417,2272.5999999999913,2276.0000000007417,1.0,0.0,0.0,,Click To Continue,Next button,7.0,object-60,temp_dist_trial,21.0,s_sh_24_1,student_shared,desk organizer,1.0,competing,paired,s_sh_24_1.jpg,Student,$${counterbalance_group},,sub-99
Desktop or Laptop,Windows 10,Chrome 138.0.0.0,1707x1067,1707x1067,Temporal Distance Task,cb_01,21.0,temp_dist_trial,dist_items,qkpkxw,2.0,response,80,1405.8999999999942,2272.5999999999913,2276.199999999997,1405.8999999999942,2272.5999999999913,2276.199999999997,1.0,870.3000000000029,0.0,,Slider,Slider,4.0,object-56,temp_dist_trial,21.0,s_sh_24_1,student_shared,desk organizer,1.0,competing,paired,s_sh_24_1.jpg,Student,$${counterbalance_group},,sub-99
Desktop or Laptop,Windows 10,Chrome 138.0.0.0,1707x1067,1707x1067,Temporal Distance Task,cb_01,22.0,temp_dist_trial,num_items,zn7si1,1.0,response,1_ITEM,1449.9000000007507,1448.3000000000034,1449.9000000007507,1449.9000000007507,1448.3000000000034,1449.9000000007507,1.0,0.0,0.0,,Click Response,1_count,3.0,object-46,temp_dist_trial,22.0,s_sh_07_1,student_shared,ruler,1.0,competing,paired,s_sh_07_1.jpg,Student,$${counterbalance_group},,sub-99
Desktop or Laptop,Windows 10,Chrome 138.0.0.0,1707x1067,1707x1067,Temporal Distance Task,cb_01,23.0,temp_dist_trial,num_items,zn7si1,1.0,response,2_ITEM,1172.5000000014845,1169.5999999999913,1172.5000000014845,1172.5000000014845,1169.5999999999913,1172.5000000014845,1.0,0.0,0.0,,Click Response,2_count,5.0,object-49,temp_dist_trial,23.0,s_sh_12_1,student_shared,binder,1.0,competing,paired,s_sh_12_1.jpg,Student,$${counterbalance_group},,sub-99
Desktop or Laptop,Windows 10,Chrome 138.0.0.0,1707x1067,1707x1067,Temporal Distance Task,cb_01,23.0,temp_dist_trial,dist_items,qkpkxw,2.0,info,,2.0,0.0,2.0,2.0,0.0,2.0,1.0,0.0,0.0,,Slider,Slider,4.0,object-56,temp_dist_trial,23.0,s_sh_12_1,student_shared,binder,1.0,competing,paired,s_sh_12_1.jpg,Student,$${counterbalance_group},,sub-99
Desktop or Laptop,Windows 10,Chrome 138.0.0.0,1707x1067,1707x1067,Temporal Distance Task,cb_01,23.0,temp_dist_trial,dist_items,qkpkxw,2.0,continue,,2007.60000000149,2005.8999999999944,2007.60000000149,2007.60000000149,2005.8999999999944,2007.60000000149,1.0,0.0,0.0,,Click To Continue,Next button,7.0,object-60,temp_dist_trial,23.0,s_sh_12_1,student_shared,binder,1.0,competing,paired,s_sh_12_1.jpg,Student,$${counterbalance_group},,sub-99
Desktop or Laptop,Windows 10,Chrome 138.0.0.0,1707x1067,1707x1067,Temporal Distance Task,cb_01,23.0,temp_dist_trial,dist_items,qkpkxw,2.0,response,36,484.8000000000029,2005.8999999999944,2008.0,484.8000000000029,2005.8999999999944,2008.0,1.0,1523.1999999999966,0.0,,Slider,Slider,4.0,object-56,temp_dist_trial,23.0,s_sh_12_1,student_shared,binder,1.0,competing,paired,s_sh_12_1.jpg,Student,$${counterbalance_group},,sub-99
Desktop or Laptop,Windows 10,Chrome 138.0.0.0,1707x1067,1707x1067,Temporal Distance Task,cb_01,24.0,temp_dist_trial,num_items,zn7si1,1.0,response,2_ITEM,1378.9000000007507,1375.5,1378.9000000007507,1378.9000000007507,1375.5,1378.9000000007507,1.0,0.0,0.0,,Click Response,2_count,5.0,object-49,temp_dist_trial,24.0,s_sh_23_1,student_shared,ballpoint pen,1.0,competing,paired,s_sh_23_1.jpg,Student,$${counterbalance_group},,sub-99
Desktop or Laptop,Windows 10,Chrome 138.0.0.0,1707x1067,1707x1067,Temporal Distance Task,cb_01,24.0,temp_dist_trial,dist_items,qkpkxw,2.0,info,,1.9000000007508788,0.0,1.9000000007508788,1.9000000007508788,0.0,1.9000000007508788,1.0,0.0,0.0,,Slider,Slider,4.0,object-56,temp_dist_trial,24.0,s_sh_23_1,student_shared,ballpoint pen,1.0,competing,paired,s_sh_23_1.jpg,Student,$${counterbalance_group},,sub-99
Desktop or Laptop,Windows 10,Chrome 138.0.0.0,1707x1067,1707x1067,Temporal Distance Task,cb_01,24.0,temp_dist_trial,dist_items,qkpkxw,2.0,continue,,1581.4000000007507,1575.5,1581.4000000007507,1581.4000000007507,1575.5,1581.4000000007507,1.0,0.0,0.0,,Click To Continue,Next button,7.0,object-60,temp_dist_trial,24.0,s_sh_23_1,student_shared,ballpoint pen,1.0,competing,paired,s_sh_23_1.jpg,Student,$${counterbalance_group},,sub-99
Desktop or Laptop,Windows 10,Chrome 138.0.0.0,1707x1067,1707x1067,Temporal Distance Task,cb_01,24.0,temp_dist_trial,dist_items,qkpkxw,2.0,response,70,642.3000000000029,1575.5,1581.599999999991,642.3000000000029,1575.5,1581.599999999991,1.0,939.2999999999884,0.0,,Slider,Slider,4.0,object-56,temp_dist_trial,24.0,s_sh_23_1,student_shared,ballpoint pen,1.0,competing,paired,s_sh_23_1.jpg,Student,$${counterbalance_group},,sub-99
Desktop or Laptop,Windows 10,Chrome 138.0.0.0,1707x1067,1707x1067,Temporal Distance Task,cb_01,25.0,temp_dist_trial,num_items,zn7si1,1.0,response,2_ITEM,2252.1000000000063,2248.200000000012,2252.1000000000063,2252.1000000000063,2248.200000000012,2252.1000000000063,1.0,0.0,0.0,,Click Response,2_count,5.0,object-49,temp_dist_trial,25.0,s_a_02_1,student_art,canvas,1.0,unique,paired,s_a_02_1.jpg,Student,$${counterbalance_group},,sub-99
Desktop or Laptop,Windows 10,Chrome 138.0.0.0,1707x1067,1707x1067,Temporal Distance Task,cb_01,25.0,temp_dist_trial,dist_items,qkpkxw,2.0,info,,2.5,0.0,2.5,2.5,0.0,2.5,1.0,0.0,0.0,,Slider,Slider,4.0,object-56,temp_dist_trial,25.0,s_a_02_1,student_art,canvas,1.0,unique,paired,s_a_02_1.jpg,Student,$${counterbalance_group},,sub-99
Desktop or Laptop,Windows 10,Chrome 138.0.0.0,1707x1067,1707x1067,Temporal Distance Task,cb_01,25.0,temp_dist_trial,dist_items,qkpkxw,2.0,continue,,2066.1000000014897,2060.300000000003,2066.1000000014897,2066.1000000014897,2060.300000000003,2066.1000000014897,1.0,0.0,0.0,,Click To Continue,Next button,7.0,object-60,temp_dist_trial,25.0,s_a_02_1,student_art,canvas,1.0,unique,paired,s_a_02_1.jpg,Student,$${counterbalance_group},,sub-99
Desktop or Laptop,Windows 10,Chrome 138.0.0.0,1707x1067,1707x1067,Temporal Distance Task,cb_01,25.0,temp_dist_trial,dist_items,qkpkxw,2.0,response,33,1266.5,2060.300000000003,2066.300000000003,1266.5,2060.300000000003,2066.300000000003,1.0,799.8000000000029,0.0,,Slider,Slider,4.0,object-56,temp_dist_trial,25.0,s_a_02_1,student_art,canvas,1.0,unique,paired,s_a_02_1.jpg,Student,$${counterbalance_group},,sub-99
Desktop or Laptop,Windows 10,Chrome 138.0.0.0,1707x1067,1707x1067,Temporal Distance Task,cb_01,26.0,temp_dist_trial,num_items,zn7si1,1.0,response,1_ITEM,1323.0000000007421,1321.0999999999913,1323.0000000007421,1323.0000000007421,1321.0999999999913,1323.0000000007421,1.0,0.0,0.0,,Click Response,1_count,3.0,object-46,temp_dist_trial,26.0,s_s_19_1,student_stem,circuit board,1.0,unique,single,s_s_19_1.jpg,Student,$${counterbalance_group},,sub-99
Desktop or Laptop,Windows 10,Chrome 138.0.0.0,1707x1067,1707x1067,Temporal Distance Task,cb_01,27.0,temp_dist_trial,num_items,zn7si1,1.0,response,1_ITEM,1031.8000000014872,1030.1999999999969,1031.8000000014872,1031.8000000014872,1030.1999999999969,1031.8000000014872,1.0,0.0,0.0,,Click Response,1_count,3.0,object-46,temp_dist_trial,27.0,s_a_14_1,student_art,guitar pick,1.0,unique,single,s_a_14_1.jpg,Student,$${counterbalance_group},,sub-99
Desktop or Laptop,Windows 10,Chrome 138.0.0.0,1707x1067,1707x1067,Temporal Distance Task,cb_01,28.0,temp_dist_trial,num_items,zn7si1,1.0,response,1_ITEM,1402.200000001496,1399.8000000000034,1402.200000001496,1402.200000001496,1399.8000000000034,1402.200000001496,1.0,0.0,0.0,,Click Response,1_count,3.0,object-46,temp_dist_trial,28.0,s_s_09_1,student_stem,multimeter,1.0,unique,paired,s_s_09_1.jpg,Student,$${counterbalance_group},,sub-99
Desktop or Laptop,Windows 10,Chrome 138.0.0.0,1707x1067,1707x1067,Temporal Distance Task,cb_01,29.0,temp_dist_trial,num_items,zn7si1,1.0,response,2_ITEM,1703.6000000011118,1702.8999999999942,1703.6000000011118,1703.6000000011118,1702.8999999999942,1703.6000000011118,1.0,0.0,0.0,,Click Response,2_count,5.0,object-49,temp_dist_trial,29.0,s_a_20_1,student_art,pin cushion,1.0,unique,paired,s_a_20_1.jpg,Student,$${counterbalance_group},,sub-99
Desktop or Laptop,Windows 10,Chrome 138.0.0.0,1707x1067,1707x1067,Temporal Distance Task,cb_01,29.0,temp_dist_trial,dist_items,qkpkxw,2.0,info,,1.6999999999970896,0.0,1.6999999999970896,1.6999999999970896,0.0,1.6999999999970896,1.0,0.0,0.0,,Slider,Slider,4.0,object-56,temp_dist_trial,29.0,s_a_20_1,student_art,pin cushion,1.0,unique,paired,s_a_20_1.jpg,Student,$${counterbalance_group},,sub-99
Desktop or Laptop,Windows 10,Chrome 138.0.0.0,1707x1067,1707x1067,Temporal Distance Task,cb_01,29.0,temp_dist_trial,dist_items,qkpkxw,2.0,continue,,1334.900000001115,1333.0999999999913,1334.900000001115,1334.900000001115,1333.0999999999913,1334.900000001115,1.0,0.0,0.0,,Click To Continue,Next button,7.0,object-60,temp_dist_trial,29.0,s_a_20_1,student_art,pin cushion,1.0,unique,paired,s_a_20_1.jpg,Student,$${counterbalance_group},,sub-99
Desktop or Laptop,Windows 10,Chrome 138.0.0.0,1707x1067,1707x1067,Temporal Distance Task,cb_01,29.0,temp_dist_trial,dist_items,qkpkxw,2.0,response,77,496.8999999999942,1333.0999999999913,1335.1999999999969,496.8999999999942,1333.0999999999913,1335.1999999999969,1.0,838.3000000000029,0.0,,Slider,Slider,4.0,object-56,temp_dist_trial,29.0,s_a_20_1,student_art,pin cushion,1.0,unique,paired,s_a_20_1.jpg,Student,$${counterbalance_group},,sub-99
Desktop or Laptop,Windows 10,Chrome 138.0.0.0,1707x1067,1707x1067,Temporal Distance Task,cb_01,30.0,temp_dist_trial,num_items,zn7si1,1.0,response,1_ITEM,1497.700000001496,1496.8000000000034,1497.700000001496,1497.700000001496,1496.8000000000034,1497.700000001496,1.0,0.0,0.0,,Click Response,1_count,3.0,object-46,temp_dist_trial,30.0,s_s_18_1,student_stem,brain model,1.0,unique,paired,s_s_18_1.jpg,Student,$${counterbalance_group},,sub-99
Desktop or Laptop,Windows 10,Chrome 138.0.0.0,1707x1067,1707x1067,Temporal Distance Task,cb_01,31.0,temp_dist_trial,num_items,zn7si1,1.0,response,1_ITEM,1675.3000000003667,1672.5,1675.3000000003667,1675.3000000003667,1672.5,1675.3000000003667,1.0,0.0,0.0,,Click Response,1_count,3.0,object-46,temp_dist_trial,31.0,s_s_04_1,student_stem,bunsen burner,1.0,unique,paired,s_s_04_1.jpg,Student,$${counterbalance_group},,sub-99
Desktop or Laptop,Windows 10,Chrome 138.0.0.0,1707x1067,1707x1067,Temporal Distance Task,cb_01,32.0,temp_dist_trial,num_items,zn7si1,1.0,response,2_ITEM,1630.1000000000058,1624.0,1630.1000000000058,1630.1000000000058,1624.0,1630.1000000000058,1.0,0.0,0.0,,Click Response,2_count,5.0,object-49,temp_dist_trial,32.0,s_a_19_1,student_art,ballet shoes,1.0,unique,paired,s_a_19_1.jpg,Student,$${counterbalance_group},,sub-99
Desktop or Laptop,Windows 10,Chrome 138.0.0.0,1707x1067,1707x1067,Temporal Distance Task,cb_01,32.0,temp_dist_trial,dist_items,qkpkxw,2.0,info,,1.7000000011175869,0.0,1.7000000011175869,1.7000000011175869,0.0,1.7000000011175869,1.0,0.0,0.0,,Slider,Slider,4.0,object-56,temp_dist_trial,32.0,s_a_19_1,student_art,ballet shoes,1.0,unique,paired,s_a_19_1.jpg,Student,$${counterbalance_group},,sub-99
Desktop or Laptop,Windows 10,Chrome 138.0.0.0,1707x1067,1707x1067,Temporal Distance Task,cb_01,32.0,temp_dist_trial,dist_items,qkpkxw,2.0,continue,,2668.2000000011176,2666.3999999999937,2668.2000000011176,2668.2000000011176,2666.3999999999937,2668.2000000011176,1.0,0.0,0.0,,Click To Continue,Next button,7.0,object-60,temp_dist_trial,32.0,s_a_19_1,student_art,ballet shoes,1.0,unique,paired,s_a_19_1.jpg,Student,$${counterbalance_group},,sub-99
Desktop or Laptop,Windows 10,Chrome 138.0.0.0,1707x1067,1707x1067,Temporal Distance Task,cb_01,32.0,temp_dist_trial,dist_items,qkpkxw,2.0,response,78,1715.0,2666.3999999999937,2670.2000000011176,1715.0,2666.3999999999937,2670.2000000011176,1.0,955.2000000011176,0.0,,Slider,Slider,4.0,object-56,temp_dist_trial,32.0,s_a_19_1,student_art,ballet shoes,1.0,unique,paired,s_a_19_1.jpg,Student,$${counterbalance_group},,sub-99
Desktop or Laptop,Windows 10,Chrome 138.0.0.0,1707x1067,1707x1067,Temporal Distance Task,cb_01,33.0,temp_dist_trial,num_items,zn7si1,1.0,response,1_ITEM,1277.6000000000058,1272.4000000000087,1277.6000000000058,1277.6000000000058,1272.4000000000087,1277.6000000000058,1.0,0.0,0.0,,Click Response,1_count,3.0,object-46,temp_dist_trial,33.0,s_a_18_1,student_art,tutu,1.0,unique,single,s_a_18_1.jpg,Student,$${counterbalance_group},,sub-99
Desktop or Laptop,Windows 10,Chrome 138.0.0.0,1707x1067,1707x1067,Temporal Distance Task,cb_01,34.0,temp_dist_trial,num_items,zn7si1,1.0,response,2_ITEM,1221.8000000014872,1218.0999999999913,1221.8000000014872,1221.8000000014872,1218.0999999999913,1221.8000000014872,1.0,0.0,0.0,,Click Response,2_count,5.0,object-49,temp_dist_trial,34.0,s_sh_02_1,student_shared,eraser,1.0,competing,paired,s_sh_02_1.jpg,Student,$${counterbalance_group},,sub-99
Desktop or Laptop,Windows 10,Chrome 138.0.0.0,1707x1067,1707x1067,Temporal Distance Task,cb_01,34.0,temp_dist_trial,dist_items,qkpkxw,2.0,info,,1.5000000003783498,0.0,1.5000000003783498,1.5000000003783498,0.0,1.5000000003783498,1.0,0.0,0.0,,Slider,Slider,4.0,object-56,temp_dist_trial,34.0,s_sh_02_1,student_shared,eraser,1.0,competing,paired,s_sh_02_1.jpg,Student,$${counterbalance_group},,sub-99
Desktop or Laptop,Windows 10,Chrome 138.0.0.0,1707x1067,1707x1067,Temporal Distance Task,cb_01,34.0,temp_dist_trial,dist_items,qkpkxw,2.0,continue,,1917.0000000003783,1914.7000000000119,1917.0000000003783,1917.0000000003783,1914.7000000000119,1917.0000000003783,1.0,0.0,0.0,,Click To Continue,Next button,7.0,object-60,temp_dist_trial,34.0,s_sh_02_1,student_shared,eraser,1.0,competing,paired,s_sh_02_1.jpg,Student,$${counterbalance_group},,sub-99
Desktop or Laptop,Windows 10,Chrome 138.0.0.0,1707x1067,1707x1067,Temporal Distance Task,cb_01,34.0,temp_dist_trial,dist_items,qkpkxw,2.0,response,31,1024.0,1914.7000000000119,1917.3000000011234,1024.0,1914.7000000000119,1917.3000000011234,1.0,893.3000000011234,0.0,,Slider,Slider,4.0,object-56,temp_dist_trial,34.0,s_sh_02_1,student_shared,eraser,1.0,competing,paired,s_sh_02_1.jpg,Student,$${counterbalance_group},,sub-99
Desktop or Laptop,Windows 10,Chrome 138.0.0.0,1707x1067,1707x1067,Temporal Distance Task,cb_01,35.0,temp_dist_trial,num_items,zn7si1,1.0,response,2_ITEM,1764.3999999999942,1763.5,1764.3999999999942,1764.3999999999942,1763.5,1764.3999999999942,1.0,0.0,0.0,,Click Response,2_count,5.0,object-49,temp_dist_trial,35.0,s_sh_19_1,student_shared,portable plastic drawer,1.0,competing,paired,s_sh_19_1.jpg,Student,$${counterbalance_group},,sub-99
Desktop or Laptop,Windows 10,Chrome 138.0.0.0,1707x1067,1707x1067,Temporal Distance Task,cb_01,35.0,temp_dist_trial,dist_items,qkpkxw,2.0,info,,2.0,0.0,2.0,2.0,0.0,2.0,1.0,0.0,0.0,,Slider,Slider,4.0,object-56,temp_dist_trial,35.0,s_sh_19_1,student_shared,portable plastic drawer,1.0,competing,paired,s_sh_19_1.jpg,Student,$${counterbalance_group},,sub-99
Desktop or Laptop,Windows 10,Chrome 138.0.0.0,1707x1067,1707x1067,Temporal Distance Task,cb_01,35.0,temp_dist_trial,dist_items,qkpkxw,2.0,continue,,2319.6000000014897,2314.8999999999937,2319.6000000014897,2319.6000000014897,2314.8999999999937,2319.6000000014897,1.0,0.0,0.0,,Click To Continue,Next button,7.0,object-60,temp_dist_trial,35.0,s_sh_19_1,student_shared,portable plastic drawer,1.0,competing,paired,s_sh_19_1.jpg,Student,$${counterbalance_group},,sub-99
Desktop or Laptop,Windows 10,Chrome 138.0.0.0,1707x1067,1707x1067,Temporal Distance Task,cb_01,35.0,temp_dist_trial,dist_items,qkpkxw,2.0,response,84,1605.8000000000034,2314.8999999999937,2319.800000000745,1605.8000000000034,2314.8999999999937,2319.800000000745,1.0,714.0000000007421,0.0,,Slider,Slider,4.0,object-56,temp_dist_trial,35.0,s_sh_19_1,student_shared,portable plastic drawer,1.0,competing,paired,s_sh_19_1.jpg,Student,$${counterbalance_group},,sub-99
Desktop or Laptop,Windows 10,Chrome 138.0.0.0,1707x1067,1707x1067,Temporal Distance Task,cb_01,36.0,temp_dist_trial,num_items,zn7si1,1.0,response,1_ITEM,2352.3000000011234,2351.1000000000063,2352.3000000011234,2352.3000000011234,2351.1000000000063,2352.3000000011234,1.0,0.0,0.0,,Click Response,1_count,3.0,object-46,temp_dist_trial,36.0,s_sh_20_1,student_shared,tape,1.0,competing,single,s_sh_20_1.jpg,Student,$${counterbalance_group},,sub-99
Desktop or Laptop,Windows 10,Chrome 138.0.0.0,1707x1067,1707x1067,Temporal Distance Task,cb_01,37.0,temp_dist_trial,num_items,zn7si1,1.0,response,1_ITEM,1020.5,1018.0,1020.5,1020.5,1018.0,1020.5,1.0,0.0,0.0,,Click Response,1_count,3.0,object-46,temp_dist_trial,37.0,s_sh_09_1,student_shared,paper clips,1.0,competing,single,s_sh_09_1.jpg,Student,$${counterbalance_group},,sub-99
Desktop or Laptop,Windows 10,Chrome 138.0.0.0,1707x1067,1707x1067,Temporal Distance Task,cb_01,38.0,temp_dist_trial,num_items,zn7si1,1.0,response,2_ITEM,1163.200000001496,1157.3999999999942,1163.200000001496,1163.200000001496,1157.3999999999942,1163.200000001496,1.0,0.0,0.0,,Click Response,2_count,5.0,object-49,temp_dist_trial,38.0,s_sh_15_1,student_shared,usb drive,1.0,competing,paired,s_sh_15_1.jpg,Student,$${counterbalance_group},,sub-99
Desktop or Laptop,Windows 10,Chrome 138.0.0.0,1707x1067,1707x1067,Temporal Distance Task,cb_01,38.0,temp_dist_trial,dist_items,qkpkxw,2.0,info,,2.9000000011292286,0.0,2.9000000011292286,2.9000000011292286,0.0,2.9000000011292286,1.0,0.0,0.0,,Slider,Slider,4.0,object-56,temp_dist_trial,38.0,s_sh_15_1,student_shared,usb drive,1.0,competing,paired,s_sh_15_1.jpg,Student,$${counterbalance_group},,sub-99
Desktop or Laptop,Windows 10,Chrome 138.0.0.0,1707x1067,1707x1067,Temporal Distance Task,cb_01,38.0,temp_dist_trial,dist_items,qkpkxw,2.0,continue,,1671.9000000011292,1666.4000000000233,1671.9000000011292,1671.9000000011292,1666.4000000000233,1671.9000000011292,1.0,0.0,0.0,,Click To Continue,Next button,7.0,object-60,temp_dist_trial,38.0,s_sh_15_1,student_shared,usb drive,1.0,competing,paired,s_sh_15_1.jpg,Student,$${counterbalance_group},,sub-99
Desktop or Laptop,Windows 10,Chrome 138.0.0.0,1707x1067,1707x1067,Temporal Distance Task,cb_01,38.0,temp_dist_trial,dist_items,qkpkxw,2.0,response,35,812.1000000000058,1666.4000000000233,1672.3000000015018,812.1000000000058,1666.4000000000233,1672.3000000015018,1.0,860.2000000014958,0.0,,Slider,Slider,4.0,object-56,temp_dist_trial,38.0,s_sh_15_1,student_shared,usb drive,1.0,competing,paired,s_sh_15_1.jpg,Student,$${counterbalance_group},,sub-99
Desktop or Laptop,Windows 10,Chrome 138.0.0.0,1707x1067,1707x1067,Temporal Distance Task,cb_01,39.0,temp_dist_trial,num_items,zn7si1,1.0,response,1_ITEM,1262.4000000014785,1260.5,1262.4000000014785,1262.4000000014785,1260.5,1262.4000000014785,1.0,0.0,0.0,,Click Response,1_count,3.0,object-46,temp_dist_trial,39.0,s_a_11_1,student_art,clapperboard,1.0,unique,paired,s_a_11_1.jpg,Student,$${counterbalance_group},,sub-99
Desktop or Laptop,Windows 10,Chrome 138.0.0.0,1707x1067,1707x1067,Temporal Distance Task,cb_01,40.0,temp_dist_trial,num_items,zn7si1,1.0,response,2_ITEM,1220.2000000007392,1218.1000000000058,1220.2000000007392,1220.2000000007392,1218.1000000000058,1220.2000000007392,1.0,0.0,0.0,,Click Response,2_count,5.0,object-49,temp_dist_trial,40.0,s_sh_21_1,student_shared,file holder,1.0,competing,paired,s_sh_21_1.jpg,Student,$${counterbalance_group},,sub-99
Desktop or Laptop,Windows 10,Chrome 138.0.0.0,1707x1067,1707x1067,Temporal Distance Task,cb_01,40.0,temp_dist_trial,dist_items,qkpkxw,2.0,info,,1.7000000007392373,0.0,1.7000000007392373,1.7000000007392373,0.0,1.7000000007392373,1.0,0.0,0.0,,Slider,Slider,4.0,object-56,temp_dist_trial,40.0,s_sh_21_1,student_shared,file holder,1.0,competing,paired,s_sh_21_1.jpg,Student,$${counterbalance_group},,sub-99
Desktop or Laptop,Windows 10,Chrome 138.0.0.0,1707x1067,1707x1067,Temporal Distance Task,cb_01,40.0,temp_dist_trial,dist_items,qkpkxw,2.0,continue,,1626.3999999999942,1624.0,1626.3999999999942,1626.3999999999942,1624.0,1626.3999999999942,1.0,0.0,0.0,,Click To Continue,Next button,7.0,object-60,temp_dist_trial,40.0,s_sh_21_1,student_shared,file holder,1.0,competing,paired,s_sh_21_1.jpg,Student,$${counterbalance_group},,sub-99
Desktop or Laptop,Windows 10,Chrome 138.0.0.0,1707x1067,1707x1067,Temporal Distance Task,cb_01,40.0,temp_dist_trial,dist_items,qkpkxw,2.0,response,67,581.6999999999825,1624.0,1626.7000000007392,581.6999999999825,1624.0,1626.7000000007392,1.0,1045.0000000007567,0.0,,Slider,Slider,4.0,object-56,temp_dist_trial,40.0,s_sh_21_1,student_shared,file holder,1.0,competing,paired,s_sh_21_1.jpg,Student,$${counterbalance_group},,sub-99
Desktop or Laptop,Windows 10,Chrome 138.0.0.0,1707x1067,1707x1067,Temporal Distance Task,cb_01,41.0,temp_dist_trial,num_items,zn7si1,1.0,response,1_ITEM,1430.8999999999942,1430.1000000000058,1430.8999999999942,1430.8999999999942,1430.1000000000058,1430.8999999999942,1.0,0.0,0.0,,Click Response,1_count,3.0,object-46,temp_dist_trial,41.0,s_sh_05_1,student_shared,laptop,1.0,competing,paired,s_sh_05_1.jpg,Student,$${counterbalance_group},,sub-99
Desktop or Laptop,Windows 10,Chrome 138.0.0.0,1707x1067,1707x1067,Temporal Distance Task,cb_01,42.0,temp_dist_trial,num_items,zn7si1,1.0,response,1_ITEM,978.7000000003608,975.5999999999768,978.7000000003608,978.7000000003608,975.5999999999768,978.7000000003608,1.0,0.0,0.0,,Click Response,1_count,3.0,object-46,temp_dist_trial,42.0,s_s_10_1,student_stem,3d molecule,1.0,unique,single,s_s_10_1.jpg,Student,$${counterbalance_group},,sub-99
Desktop or Laptop,Windows 10,Chrome 138.0.0.0,1707x1067,1707x1067,Temporal Distance Task,cb_01,43.0,temp_dist_trial,num_items,zn7si1,1.0,response,1_ITEM,1076.6000000007334,1072.5999999999767,1076.6000000007334,1076.6000000007334,1072.5999999999767,1076.6000000007334,1.0,0.0,0.0,,Click Response,1_count,3.0,object-46,temp_dist_trial,43.0,s_s_08_1,student_stem,soldering iron,1.0,unique,single,s_s_08_1.jpg,Student,$${counterbalance_group},,sub-99
Desktop or Laptop,Windows 10,Chrome 138.0.0.0,1707x1067,1707x1067,Temporal Distance Task,cb_01,44.0,temp_dist_trial,num_items,zn7si1,1.0,response,1_ITEM,1075.7999999999884,1072.5999999999767,1075.7999999999884,1075.7999999999884,1072.5999999999767,1075.7999999999884,1.0,0.0,0.0,,Click Response,1_count,3.0,object-46,temp_dist_trial,44.0,s_sh_18_1,student_shared,wall calendar,1.0,competing,single,s_sh_18_1.jpg,Student,$${counterbalance_group},,sub-99
Desktop or Laptop,Windows 10,Chrome 138.0.0.0,1707x1067,1707x1067,Temporal Distance Task,cb_01,45.0,temp_dist_trial,num_items,zn7si1,1.0,response,1_ITEM,1495.0000000007572,1490.7000000000116,1495.0000000007572,1495.0000000007572,1490.7000000000116,1495.0000000007572,1.0,0.0,0.0,,Click Response,1_count,3.0,object-46,temp_dist_trial,45.0,s_s_15_1,student_stem,jumper cables,1.0,unique,single,s_s_15_1.jpg,Student,$${counterbalance_group},,sub-99
Desktop or Laptop,Windows 10,Chrome 138.0.0.0,1707x1067,1707x1067,Temporal Distance Task,cb_01,46.0,temp_dist_trial,num_items,zn7si1,1.0,response,2_ITEM,1365.6000000000058,1363.3999999999942,1365.6000000000058,1365.6000000000058,1363.3999999999942,1365.6000000000058,1.0,0.0,0.0,,Click Response,2_count,5.0,object-49,temp_dist_trial,46.0,s_a_17_1,student_art,microphone,1.0,unique,paired,s_a_17_1.jpg,Student,$${counterbalance_group},,sub-99
Desktop or Laptop,Windows 10,Chrome 138.0.0.0,1707x1067,1707x1067,Temporal Distance Task,cb_01,46.0,temp_dist_trial,dist_items,qkpkxw,2.0,info,,1.7000000000116415,0.0,1.7000000000116415,1.7000000000116415,0.0,1.7000000000116415,1.0,0.0,0.0,,Slider,Slider,4.0,object-56,temp_dist_trial,46.0,s_a_17_1,student_art,microphone,1.0,unique,paired,s_a_17_1.jpg,Student,$${counterbalance_group},,sub-99
Desktop or Laptop,Windows 10,Chrome 138.0.0.0,1707x1067,1707x1067,Temporal Distance Task,cb_01,46.0,temp_dist_trial,dist_items,qkpkxw,2.0,continue,,1676.5000000007572,1672.5,1676.5000000007572,1676.5000000007572,1672.5,1676.5000000007572,1.0,0.0,0.0,,Click To Continue,Next button,7.0,object-60,temp_dist_trial,46.0,s_a_17_1,student_art,microphone,1.0,unique,paired,s_a_17_1.jpg,Student,$${counterbalance_group},,sub-99
Desktop or Laptop,Windows 10,Chrome 138.0.0.0,1707x1067,1707x1067,Temporal Distance Task,cb_01,46.0,temp_dist_trial,dist_items,qkpkxw,2.0,response,77,848.3000000000177,1672.5,1676.8000000015018,848.3000000000177,1672.5,1676.8000000015018,1.0,828.5000000014842,0.0,,Slider,Slider,4.0,object-56,temp_dist_trial,46.0,s_a_17_1,student_art,microphone,1.0,unique,paired,s_a_17_1.jpg,Student,$${counterbalance_group},,sub-99
Desktop or Laptop,Windows 10,Chrome 138.0.0.0,1707x1067,1707x1067,Temporal Distance Task,cb_01,47.0,temp_dist_trial,num_items,zn7si1,1.0,response,1_ITEM,1124.6000000003842,1121.0,1124.6000000003842,1124.6000000003842,1121.0,1124.6000000003842,1.0,0.0,0.0,,Click Response,1_count,3.0,object-46,temp_dist_trial,47.0,s_a_16_1,student_art,piano,1.0,unique,paired,s_a_16_1.jpg,Student,$${counterbalance_group},,sub-99
Desktop or Laptop,Windows 10,Chrome 138.0.0.0,1707x1067,1707x1067,Temporal Distance Task,cb_01,48.0,temp_dist_trial,num_items,zn7si1,1.0,response,2_ITEM,1038.5000000007567,1036.2000000000116,1038.5000000007567,1038.5000000007567,1036.2000000000116,1038.5000000007567,1.0,0.0,0.0,,Click Response,2_count,5.0,object-49,temp_dist_trial,48.0,s_sh_01_1,student_shared,notebook,1.0,competing,single,s_sh_01_1.jpg,Student,$${counterbalance_group},,sub-99
Desktop or Laptop,Windows 10,Chrome 138.0.0.0,1707x1067,1707x1067,Temporal Distance Task,cb_01,48.0,temp_dist_trial,dist_items,qkpkxw,2.0,info,,1.600000001490116,0.0,1.600000001490116,1.600000001490116,0.0,1.600000001490116,1.0,0.0,0.0,,Slider,Slider,4.0,object-56,temp_dist_trial,48.0,s_sh_01_1,student_shared,notebook,1.0,competing,single,s_sh_01_1.jpg,Student,$${counterbalance_group},,sub-99
Desktop or Laptop,Windows 10,Chrome 138.0.0.0,1707x1067,1707x1067,Temporal Distance Task,cb_01,48.0,temp_dist_trial,dist_items,qkpkxw,2.0,continue,,3981.100000001489,3975.200000000012,3981.100000001489,3981.100000001489,3975.200000000012,3981.100000001489,1.0,0.0,0.0,,Click To Continue,Next button,7.0,object-60,temp_dist_trial,48.0,s_sh_01_1,student_shared,notebook,1.0,competing,single,s_sh_01_1.jpg,Student,$${counterbalance_group},,sub-99
Desktop or Laptop,Windows 10,Chrome 138.0.0.0,1707x1067,1707x1067,Temporal Distance Task,cb_01,48.0,temp_dist_trial,dist_items,qkpkxw,2.0,response,30,769.7999999999884,3975.200000000012,3981.300000000018,769.7999999999884,3975.200000000012,3981.300000000018,1.0,3211.500000000029,0.0,,Slider,Slider,4.0,object-56,temp_dist_trial,48.0,s_sh_01_1,student_shared,notebook,1.0,competing,single,s_sh_01_1.jpg,Student,$${counterbalance_group},,sub-99
Desktop or Laptop,Windows 10,Chrome 138.0.0.0,1707x1067,1707x1067,Temporal Distance Task,cb_01,2.0,temp_eventStart,Screen 1,dgtyxe,1.0,continue,,3540.7999999999884,3538.8999999999933,3540.7999999999884,3540.7999999999884,3538.8999999999933,3540.7999999999884,1.0,0.0,0.0,,Click To Continue,Next Button,3.0,object-43,temp_eventStart,,,Travel,,,,,,,$${counterbalance_group},,sub-99
Desktop or Laptop,Windows 10,Chrome 138.0.0.0,1707x1067,1707x1067,Temporal Distance Task,cb_01,49.0,temp_dist_trial,num_items,zn7si1,1.0,response,1_ITEM,2050.100000001112,2048.1000000000063,2050.100000001112,2050.100000001112,2048.1000000000063,2050.100000001112,1.0,0.0,0.0,,Click Response,1_count,3.0,object-46,temp_dist_trial,1.0,t_s_02_1,travel_shared,water bottle,1.0,competing,paired,t_s_02_1.jpg,Travel,$${counterbalance_group},,sub-99
Desktop or Laptop,Windows 10,Chrome 138.0.0.0,1707x1067,1707x1067,Temporal Distance Task,cb_01,50.0,temp_dist_trial,num_items,zn7si1,1.0,response,2_ITEM,1907.000000001106,1902.6999999999825,1907.000000001106,1907.000000001106,1902.6999999999825,1907.000000001106,1.0,0.0,0.0,,Click Response,2_count,5.0,object-49,temp_dist_trial,2.0,t_m_18_1,travel_Miami,waterproof tote,1.0,unique,paired,t_m_18_1.jpg,Travel,$${counterbalance_group},,sub-99
Desktop or Laptop,Windows 10,Chrome 138.0.0.0,1707x1067,1707x1067,Temporal Distance Task,cb_01,50.0,temp_dist_trial,dist_items,qkpkxw,2.0,info,,2.6000000000058208,0.0,2.6000000000058208,2.6000000000058208,0.0,2.6000000000058208,1.0,0.0,0.0,,Slider,Slider,4.0,object-56,temp_dist_trial,2.0,t_m_18_1,travel_Miami,waterproof tote,1.0,unique,paired,t_m_18_1.jpg,Travel,$${counterbalance_group},,sub-99
Desktop or Laptop,Windows 10,Chrome 138.0.0.0,1707x1067,1707x1067,Temporal Distance Task,cb_01,50.0,temp_dist_trial,dist_items,qkpkxw,2.0,continue,,4361.800000001123,4357.0,4361.800000001123,4361.800000001123,4357.0,4361.800000001123,1.0,0.0,0.0,,Click To Continue,Next button,7.0,object-60,temp_dist_trial,2.0,t_m_18_1,travel_Miami,waterproof tote,1.0,unique,paired,t_m_18_1.jpg,Travel,$${counterbalance_group},,sub-99
Desktop or Laptop,Windows 10,Chrome 138.0.0.0,1707x1067,1707x1067,Temporal Distance Task,cb_01,50.0,temp_dist_trial,dist_items,qkpkxw,2.0,response,88,3351.1000000000067,4357.0,4362.200000001496,3351.1000000000067,4357.0,4362.200000001496,1.0,1011.10000000149,0.0,,Slider,Slider,4.0,object-56,temp_dist_trial,2.0,t_m_18_1,travel_Miami,waterproof tote,1.0,unique,paired,t_m_18_1.jpg,Travel,$${counterbalance_group},,sub-99
Desktop or Laptop,Windows 10,Chrome 138.0.0.0,1707x1067,1707x1067,Temporal Distance Task,cb_01,51.0,temp_dist_trial,num_items,zn7si1,1.0,response,1_ITEM,1331.9000000007507,1327.0,1331.9000000007507,1331.9000000007507,1327.0,1331.9000000007507,1.0,0.0,0.0,,Click Response,1_count,3.0,object-46,temp_dist_trial,3.0,t_s_01_1,travel_shared,fanny pack,1.0,competing,single,t_s_01_1.jpg,Travel,$${counterbalance_group},,sub-99
Desktop or Laptop,Windows 10,Chrome 138.0.0.0,1707x1067,1707x1067,Temporal Distance Task,cb_01,52.0,temp_dist_trial,num_items,zn7si1,1.0,response,1_ITEM,953.7000000014959,951.3999999999942,953.7000000014959,953.7000000014959,951.3999999999942,953.7000000014959,1.0,0.0,0.0,,Click Response,1_count,3.0,object-46,temp_dist_trial,4.0,t_s_12_1,travel_shared,clear toiletry bag,1.0,competing,paired,t_s_12_1.jpg,Travel,$${counterbalance_group},,sub-99
Desktop or Laptop,Windows 10,Chrome 138.0.0.0,1707x1067,1707x1067,Temporal Distance Task,cb_01,53.0,temp_dist_trial,num_items,zn7si1,1.0,response,2_ITEM,1226.000000001106,1224.0999999999767,1226.000000001106,1226.000000001106,1224.0999999999767,1226.000000001106,1.0,0.0,0.0,,Click Response,2_count,5.0,object-49,temp_dist_trial,5.0,t_s_06_1,travel_shared,luggage,1.0,competing,paired,t_s_06_1.jpg,Travel,$${counterbalance_group},,sub-99
Desktop or Laptop,Windows 10,Chrome 138.0.0.0,1707x1067,1707x1067,Temporal Distance Task,cb_01,53.0,temp_dist_trial,dist_items,qkpkxw,2.0,info,,1.9000000014784744,0.0,1.9000000014784744,1.9000000014784744,0.0,1.9000000014784744,1.0,0.0,0.0,,Slider,Slider,4.0,object-56,temp_dist_trial,5.0,t_s_06_1,travel_shared,luggage,1.0,competing,paired,t_s_06_1.jpg,Travel,$${counterbalance_group},,sub-99
Desktop or Laptop,Windows 10,Chrome 138.0.0.0,1707x1067,1707x1067,Temporal Distance Task,cb_01,53.0,temp_dist_trial,dist_items,qkpkxw,2.0,continue,,1576.4000000014785,1575.5999999999767,1576.4000000014785,1576.4000000014785,1575.5999999999767,1576.4000000014785,1.0,0.0,0.0,,Click To Continue,Next button,7.0,object-60,temp_dist_trial,5.0,t_s_06_1,travel_shared,luggage,1.0,competing,paired,t_s_06_1.jpg,Travel,$${counterbalance_group},,sub-99
Desktop or Laptop,Windows 10,Chrome 138.0.0.0,1707x1067,1707x1067,Temporal Distance Task,cb_01,53.0,temp_dist_trial,dist_items,qkpkxw,2.0,response,62,727.1999999999823,1575.5999999999767,1576.7999999999884,727.1999999999823,1575.5999999999767,1576.7999999999884,1.0,849.6000000000058,0.0,,Slider,Slider,4.0,object-56,temp_dist_trial,5.0,t_s_06_1,travel_shared,luggage,1.0,competing,paired,t_s_06_1.jpg,Travel,$${counterbalance_group},,sub-99
Desktop or Laptop,Windows 10,Chrome 138.0.0.0,1707x1067,1707x1067,Temporal Distance Task,cb_01,54.0,temp_dist_trial,num_items,zn7si1,1.0,response,1_ITEM,1011.2000000000116,1005.9000000000232,1011.2000000000116,1011.2000000000116,1005.9000000000232,1011.2000000000116,1.0,0.0,0.0,,Click Response,1_count,3.0,object-46,temp_dist_trial,6.0,t_i_20_1,travel_Iceland,lantern,1.0,unique,paired,t_i_20_1.jpg,Travel,$${counterbalance_group},,sub-99
Desktop or Laptop,Windows 10,Chrome 138.0.0.0,1707x1067,1707x1067,Temporal Distance Task,cb_01,55.0,temp_dist_trial,num_items,zn7si1,1.0,response,2_ITEM,1349.3000000003667,1345.3999999999942,1349.3000000003667,1349.3000000003667,1345.3999999999942,1349.3000000003667,1.0,0.0,0.0,,Click Response,2_count,5.0,object-49,temp_dist_trial,7.0,t_s_16_1,travel_shared,chapstick,1.0,competing,paired,t_s_16_1.jpg,Travel,$${counterbalance_group},,sub-99
Desktop or Laptop,Windows 10,Chrome 138.0.0.0,1707x1067,1707x1067,Temporal Distance Task,cb_01,55.0,temp_dist_trial,dist_items,qkpkxw,2.0,info,,2.2000000014959373,0.0,2.2000000014959373,2.2000000014959373,0.0,2.2000000014959373,1.0,0.0,0.0,,Slider,Slider,4.0,object-56,temp_dist_trial,7.0,t_s_16_1,travel_shared,chapstick,1.0,competing,paired,t_s_16_1.jpg,Travel,$${counterbalance_group},,sub-99
Desktop or Laptop,Windows 10,Chrome 138.0.0.0,1707x1067,1707x1067,Temporal Distance Task,cb_01,55.0,temp_dist_trial,dist_items,qkpkxw,2.0,continue,,3245.3000000011243,3242.0,3245.3000000011243,3245.3000000011243,3242.0,3245.3000000011243,1.0,0.0,0.0,,Click To Continue,Next button,7.0,object-60,temp_dist_trial,7.0,t_s_16_1,travel_shared,chapstick,1.0,competing,paired,t_s_16_1.jpg,Travel,$${counterbalance_group},,sub-99
Desktop or Laptop,Windows 10,Chrome 138.0.0.0,1707x1067,1707x1067,Temporal Distance Task,cb_01,55.0,temp_dist_trial,dist_items,qkpkxw,2.0,response,26,1878.5,3242.0,3245.700000001496,1878.5,3242.0,3245.700000001496,1.0,1367.200000001496,0.0,,Slider,Slider,4.0,object-56,temp_dist_trial,7.0,t_s_16_1,travel_shared,chapstick,1.0,competing,paired,t_s_16_1.jpg,Travel,$${counterbalance_group},,sub-99
Desktop or Laptop,Windows 10,Chrome 138.0.0.0,1707x1067,1707x1067,Temporal Distance Task,cb_01,56.0,temp_dist_trial,num_items,zn7si1,1.0,response,2_ITEM,1542.3000000011234,1539.1000000000058,1542.3000000011234,1542.3000000011234,1539.1000000000058,1542.3000000011234,1.0,0.0,0.0,,Click Response,2_count,5.0,object-49,temp_dist_trial,8.0,t_s_07_1,travel_shared,phone charger cable,1.0,competing,paired,t_s_07_1.jpg,Travel,$${counterbalance_group},,sub-99
Desktop or Laptop,Windows 10,Chrome 138.0.0.0,1707x1067,1707x1067,Temporal Distance Task,cb_01,56.0,temp_dist_trial,dist_items,qkpkxw,2.0,info,,1.600000001490116,0.0,1.600000001490116,1.600000001490116,0.0,1.600000001490116,1.0,0.0,0.0,,Slider,Slider,4.0,object-56,temp_dist_trial,8.0,t_s_07_1,travel_shared,phone charger cable,1.0,competing,paired,t_s_07_1.jpg,Travel,$${counterbalance_group},,sub-99
Desktop or Laptop,Windows 10,Chrome 138.0.0.0,1707x1067,1707x1067,Temporal Distance Task,cb_01,56.0,temp_dist_trial,dist_items,qkpkxw,2.0,continue,,1813.2000000011176,1811.7999999999884,1813.2000000011176,1813.2000000011176,1811.7999999999884,1813.2000000011176,1.0,0.0,0.0,,Click To Continue,Next button,7.0,object-60,temp_dist_trial,8.0,t_s_07_1,travel_shared,phone charger cable,1.0,competing,paired,t_s_07_1.jpg,Travel,$${counterbalance_group},,sub-99
Desktop or Laptop,Windows 10,Chrome 138.0.0.0,1707x1067,1707x1067,Temporal Distance Task,cb_01,56.0,temp_dist_trial,dist_items,qkpkxw,2.0,response,72,599.8999999999943,1811.7999999999884,1816.2000000011176,599.8999999999943,1811.7999999999884,1816.2000000011176,1.0,1216.3000000011234,0.0,,Slider,Slider,4.0,object-56,temp_dist_trial,8.0,t_s_07_1,travel_shared,phone charger cable,1.0,competing,paired,t_s_07_1.jpg,Travel,$${counterbalance_group},,sub-99
Desktop or Laptop,Windows 10,Chrome 138.0.0.0,1707x1067,1707x1067,Temporal Distance Task,cb_01,57.0,temp_dist_trial,num_items,zn7si1,1.0,response,2_ITEM,1162.1000000003842,1157.5,1162.1000000003842,1162.1000000003842,1157.5,1162.1000000003842,1.0,0.0,0.0,,Click Response,2_count,5.0,object-49,temp_dist_trial,9.0,t_m_17_1,travel_Miami,water gun,1.0,unique,paired,t_m_17_1.jpg,Travel,$${counterbalance_group},,sub-99
Desktop or Laptop,Windows 10,Chrome 138.0.0.0,1707x1067,1707x1067,Temporal Distance Task,cb_01,57.0,temp_dist_trial,dist_items,qkpkxw,2.0,info,,1.9000000011292288,0.0,1.9000000011292288,1.9000000011292288,0.0,1.9000000011292288,1.0,0.0,0.0,,Slider,Slider,4.0,object-56,temp_dist_trial,9.0,t_m_17_1,travel_Miami,water gun,1.0,unique,paired,t_m_17_1.jpg,Travel,$${counterbalance_group},,sub-99
Desktop or Laptop,Windows 10,Chrome 138.0.0.0,1707x1067,1707x1067,Temporal Distance Task,cb_01,57.0,temp_dist_trial,dist_items,qkpkxw,2.0,continue,,2058.4000000011292,2054.1000000000063,2058.4000000011292,2058.4000000011292,2054.1000000000063,2058.4000000011292,1.0,0.0,0.0,,Click To Continue,Next button,7.0,object-60,temp_dist_trial,9.0,t_m_17_1,travel_Miami,water gun,1.0,unique,paired,t_m_17_1.jpg,Travel,$${counterbalance_group},,sub-99
Desktop or Laptop,Windows 10,Chrome 138.0.0.0,1707x1067,1707x1067,Temporal Distance Task,cb_01,57.0,temp_dist_trial,dist_items,qkpkxw,2.0,response,83,805.8000000000177,2054.1000000000063,2058.8000000015013,805.8000000000177,2054.1000000000063,2058.8000000015013,1.0,1253.0000000014845,0.0,,Slider,Slider,4.0,object-56,temp_dist_trial,9.0,t_m_17_1,travel_Miami,water gun,1.0,unique,paired,t_m_17_1.jpg,Travel,$${counterbalance_group},,sub-99
Desktop or Laptop,Windows 10,Chrome 138.0.0.0,1707x1067,1707x1067,Temporal Distance Task,cb_01,58.0,temp_dist_trial,num_items,zn7si1,1.0,response,1_ITEM,1355.9000000007507,1351.3999999999942,1355.9000000007507,1355.9000000007507,1351.3999999999942,1355.9000000007507,1.0,0.0,0.0,,Click Response,1_count,3.0,object-46,temp_dist_trial,10.0,t_m_03_1,travel_Miami,wetsuit,1.0,unique,single,t_m_03_1.jpg,Travel,$${counterbalance_group},,sub-99
Desktop or Laptop,Windows 10,Chrome 138.0.0.0,1707x1067,1707x1067,Temporal Distance Task,cb_01,59.0,temp_dist_trial,num_items,zn7si1,1.0,response,1_ITEM,1587.7000000000116,1581.6000000000058,1587.7000000000116,1587.7000000000116,1581.6000000000058,1587.7000000000116,1.0,0.0,0.0,,Click Response,1_count,3.0,object-46,temp_dist_trial,11.0,t_i_16_1,travel_Iceland,skis,1.0,unique,single,t_i_16_1.jpg,Travel,$${counterbalance_group},,sub-99
Desktop or Laptop,Windows 10,Chrome 138.0.0.0,1707x1067,1707x1067,Temporal Distance Task,cb_01,60.0,temp_dist_trial,num_items,zn7si1,1.0,response,1_ITEM,937.2999999999884,933.2999999999884,937.2999999999884,937.2999999999884,933.2999999999884,937.2999999999884,1.0,0.0,0.0,,Click Response,1_count,3.0,object-46,temp_dist_trial,12.0,t_s_09_1,travel_shared,wallet,1.0,competing,paired,t_s_09_1.jpg,Travel,$${counterbalance_group},,sub-99
Desktop or Laptop,Windows 10,Chrome 138.0.0.0,1707x1067,1707x1067,Temporal Distance Task,cb_01,61.0,temp_dist_trial,num_items,zn7si1,1.0,response,1_ITEM,1037.2000000011176,1036.1000000000058,1037.2000000011176,1037.2000000011176,1036.1000000000058,1037.2000000011176,1.0,0.0,0.0,,Click Response,1_count,3.0,object-46,temp_dist_trial,13.0,t_s_13_1,travel_shared,contact lens case,1.0,competing,single,t_s_13_1.jpg,Travel,$${counterbalance_group},,sub-99
Desktop or Laptop,Windows 10,Chrome 138.0.0.0,1707x1067,1707x1067,Temporal Distance Task,cb_01,62.0,temp_dist_trial,num_items,zn7si1,1.0,response,1_ITEM,1859.2000000007392,1854.1999999999825,1859.2000000007392,1859.2000000007392,1854.1999999999825,1859.2000000007392,1.0,0.0,0.0,,Click Response,1_count,3.0,object-46,temp_dist_trial,14.0,t_i_18_1,travel_Iceland,ski mask,1.0,unique,single,t_i_18_1.jpg,Travel,$${counterbalance_group},,sub-99
Desktop or Laptop,Windows 10,Chrome 138.0.0.0,1707x1067,1707x1067,Temporal Distance Task,cb_01,63.0,temp_dist_trial,num_items,zn7si1,1.0,response,2_ITEM,1460.5999999999767,1454.5,1460.5999999999767,1460.5999999999767,1454.5,1460.5999999999767,1.0,0.0,0.0,,Click Response,2_count,5.0,object-49,temp_dist_trial,15.0,t_s_05_1,travel_shared,neck pillow,1.0,competing,paired,t_s_05_1.jpg,Travel,$${counterbalance_group},,sub-99
Desktop or Laptop,Windows 10,Chrome 138.0.0.0,1707x1067,1707x1067,Temporal Distance Task,cb_01,63.0,temp_dist_trial,dist_items,qkpkxw,2.0,info,,1.9000000014784744,0.0,1.9000000014784744,1.9000000014784744,0.0,1.9000000014784744,1.0,0.0,0.0,,Slider,Slider,4.0,object-56,temp_dist_trial,15.0,t_s_05_1,travel_shared,neck pillow,1.0,competing,paired,t_s_05_1.jpg,Travel,$${counterbalance_group},,sub-99
Desktop or Laptop,Windows 10,Chrome 138.0.0.0,1707x1067,1707x1067,Temporal Distance Task,cb_01,63.0,temp_dist_trial,dist_items,qkpkxw,2.0,continue,,2617.8999999999937,2611.7999999999884,2617.8999999999937,2617.8999999999937,2611.7999999999884,2617.8999999999937,1.0,0.0,0.0,,Click To Continue,Next button,7.0,object-60,temp_dist_trial,15.0,t_s_05_1,travel_shared,neck pillow,1.0,competing,paired,t_s_05_1.jpg,Travel,$${counterbalance_group},,sub-99
Desktop or Laptop,Windows 10,Chrome 138.0.0.0,1707x1067,1707x1067,Temporal Distance Task,cb_01,63.0,temp_dist_trial,dist_items,qkpkxw,2.0,response,87,1490.6999999999825,2611.7999999999884,2617.8999999999937,1490.6999999999825,2611.7999999999884,2617.8999999999937,1.0,1127.2000000000114,0.0,,Slider,Slider,4.0,object-56,temp_dist_trial,15.0,t_s_05_1,travel_shared,neck pillow,1.0,competing,paired,t_s_05_1.jpg,Travel,$${counterbalance_group},,sub-99
Desktop or Laptop,Windows 10,Chrome 138.0.0.0,1707x1067,1707x1067,Temporal Distance Task,cb_01,64.0,temp_dist_trial,num_items,zn7si1,1.0,response,1_ITEM,1203.2000000011176,1199.7999999999886,1203.2000000011176,1203.2000000011176,1199.7999999999886,1203.2000000011176,1.0,0.0,0.0,,Click Response,1_count,3.0,object-46,temp_dist_trial,16.0,t_i_19_1,travel_Iceland,rope,1.0,unique,paired,t_i_19_1.jpg,Travel,$${counterbalance_group},,sub-99
Desktop or Laptop,Windows 10,Chrome 138.0.0.0,1707x1067,1707x1067,Temporal Distance Task,cb_01,65.0,temp_dist_trial,num_items,zn7si1,1.0,response,1_ITEM,935.3000000015018,933.1000000000058,935.3000000015018,935.3000000015018,933.1000000000058,935.3000000015018,1.0,0.0,0.0,,Click Response,1_count,3.0,object-46,temp_dist_trial,17.0,t_i_08_1,travel_Iceland,thick socks,1.0,unique,paired,t_i_08_1.jpg,Travel,$${counterbalance_group},,sub-99
Desktop or Laptop,Windows 10,Chrome 138.0.0.0,1707x1067,1707x1067,Temporal Distance Task,cb_01,66.0,temp_dist_trial,num_items,zn7si1,1.0,response,1_ITEM,1028.000000002241,1024.1000000000058,1028.000000002241,1028.000000002241,1024.1000000000058,1028.000000002241,1.0,0.0,0.0,,Click Response,1_count,3.0,object-46,temp_dist_trial,18.0,t_m_01_1,travel_Miami,sandals,1.0,unique,paired,t_m_01_1.jpg,Travel,$${counterbalance_group},,sub-99
Desktop or Laptop,Windows 10,Chrome 138.0.0.0,1707x1067,1707x1067,Temporal Distance Task,cb_01,67.0,temp_dist_trial,num_items,zn7si1,1.0,response,1_ITEM,952.4000000007508,951.5,952.4000000007508,952.4000000007508,951.5,952.4000000007508,1.0,0.0,0.0,,Click Response,1_count,3.0,object-46,temp_dist_trial,19.0,t_i_14_1,travel_Iceland,snow pants,1.0,unique,single,t_i_14_1.jpg,Travel,$${counterbalance_group},,sub-99
Desktop or Laptop,Windows 10,Chrome 138.0.0.0,1707x1067,1707x1067,Temporal Distance Task,cb_01,68.0,temp_dist_trial,num_items,zn7si1,1.0,response,2_ITEM,1137.1000000022468,1133.2000000000114,1137.1000000022468,1137.1000000022468,1133.2000000000114,1137.1000000022468,1.0,0.0,0.0,,Click Response,2_count,5.0,object-49,temp_dist_trial,20.0,t_s_22_1,travel_shared,belt,1.0,competing,paired,t_s_22_1.jpg,Travel,$${counterbalance_group},,sub-99
Desktop or Laptop,Windows 10,Chrome 138.0.0.0,1707x1067,1707x1067,Temporal Distance Task,cb_01,68.0,temp_dist_trial,dist_items,qkpkxw,2.0,info,,1.7999999992607627,0.0,1.7999999992607627,1.7999999992607627,0.0,1.7999999992607627,1.0,0.0,0.0,,Slider,Slider,4.0,object-56,temp_dist_trial,20.0,t_s_22_1,travel_shared,belt,1.0,competing,paired,t_s_22_1.jpg,Travel,$${counterbalance_group},,sub-99
Desktop or Laptop,Windows 10,Chrome 138.0.0.0,1707x1067,1707x1067,Temporal Distance Task,cb_01,68.0,temp_dist_trial,dist_items,qkpkxw,2.0,continue,,3015.400000000751,3011.700000000012,3015.400000000751,3015.400000000751,3011.700000000012,3015.400000000751,1.0,0.0,0.0,,Click To Continue,Next button,7.0,object-60,temp_dist_trial,20.0,t_s_22_1,travel_shared,belt,1.0,competing,paired,t_s_22_1.jpg,Travel,$${counterbalance_group},,sub-99
Desktop or Laptop,Windows 10,Chrome 138.0.0.0,1707x1067,1707x1067,Temporal Distance Task,cb_01,68.0,temp_dist_trial,dist_items,qkpkxw,2.0,response,86,1769.3999999999942,3011.700000000012,3015.700000001496,1769.3999999999942,3011.700000000012,3015.700000001496,1.0,1246.3000000015018,0.0,,Slider,Slider,4.0,object-56,temp_dist_trial,20.0,t_s_22_1,travel_shared,belt,1.0,competing,paired,t_s_22_1.jpg,Travel,$${counterbalance_group},,sub-99
Desktop or Laptop,Windows 10,Chrome 138.0.0.0,1707x1067,1707x1067,Temporal Distance Task,cb_01,69.0,temp_dist_trial,num_items,zn7si1,1.0,response,1_ITEM,1124.8000000022294,1121.0,1124.8000000022294,1124.8000000022294,1121.0,1124.8000000022294,1.0,0.0,0.0,,Click Response,1_count,3.0,object-46,temp_dist_trial,21.0,t_i_13_1,travel_Iceland,sleeping bag,1.0,unique,paired,t_i_13_1.jpg,Travel,$${counterbalance_group},,sub-99
Desktop or Laptop,Windows 10,Chrome 138.0.0.0,1707x1067,1707x1067,Temporal Distance Task,cb_01,70.0,temp_dist_trial,num_items,zn7si1,1.0,response,1_ITEM,914.2000000007392,908.8999999999942,914.2000000007392,914.2000000007392,908.8999999999942,914.2000000007392,1.0,0.0,0.0,,Click Response,1_count,3.0,object-46,temp_dist_trial,22.0,t_s_24_1,travel_shared,ear plugs,1.0,competing,single,t_s_24_1.jpg,Travel,$${counterbalance_group},,sub-99
Desktop or Laptop,Windows 10,Chrome 138.0.0.0,1707x1067,1707x1067,Temporal Distance Task,cb_01,71.0,temp_dist_trial,num_items,zn7si1,1.0,response,1_ITEM,953.6999999992547,951.3999999999942,953.6999999992547,953.6999999992547,951.3999999999942,953.6999999992547,1.0,0.0,0.0,,Click Response,1_count,3.0,object-46,temp_dist_trial,23.0,t_i_10_1,travel_Iceland,trekking poles,1.0,unique,paired,t_i_10_1.jpg,Travel,$${counterbalance_group},,sub-99
Desktop or Laptop,Windows 10,Chrome 138.0.0.0,1707x1067,1707x1067,Temporal Distance Task,cb_01,72.0,temp_dist_trial,num_items,zn7si1,1.0,response,1_ITEM,2022.000000002241,2017.8000000000175,2022.000000002241,2022.000000002241,2017.8000000000175,2022.000000002241,1.0,0.0,0.0,,Click Response,1_count,3.0,object-46,temp_dist_trial,24.0,t_i_05_1,travel_Iceland,hiking boots,1.0,unique,paired,t_i_05_1.jpg,Travel,$${counterbalance_group},,sub-99
Desktop or Laptop,Windows 10,Chrome 138.0.0.0,1707x1067,1707x1067,Temporal Distance Task,cb_01,73.0,temp_dist_trial,num_items,zn7si1,1.0,response,2_ITEM,1898.2999999999884,1896.7999999999884,1898.2999999999884,1898.2999999999884,1896.7999999999884,1898.2999999999884,1.0,0.0,0.0,,Click Response,2_count,5.0,object-49,temp_dist_trial,25.0,t_s_10_1,travel_shared,luggage lock,1.0,competing,single,t_s_10_1.jpg,Travel,$${counterbalance_group},,sub-99
Desktop or Laptop,Windows 10,Chrome 138.0.0.0,1707x1067,1707x1067,Temporal Distance Task,cb_01,73.0,temp_dist_trial,dist_items,qkpkxw,2.0,info,,2.0000000007567,0.0,2.0000000007567,2.0000000007567,0.0,2.0000000007567,1.0,0.0,0.0,,Slider,Slider,4.0,object-56,temp_dist_trial,25.0,t_s_10_1,travel_shared,luggage lock,1.0,competing,single,t_s_10_1.jpg,Travel,$${counterbalance_group},,sub-99
Desktop or Laptop,Windows 10,Chrome 138.0.0.0,1707x1067,1707x1067,Temporal Distance Task,cb_01,73.0,temp_dist_trial,dist_items,qkpkxw,2.0,continue,,1900.0000000007572,1896.7000000000119,1900.0000000007572,1900.0000000007572,1896.7000000000119,1900.0000000007572,1.0,0.0,0.0,,Click To Continue,Next button,7.0,object-60,temp_dist_trial,25.0,t_s_10_1,travel_shared,luggage lock,1.0,competing,single,t_s_10_1.jpg,Travel,$${counterbalance_group},,sub-99
Desktop or Laptop,Windows 10,Chrome 138.0.0.0,1707x1067,1707x1067,Temporal Distance Task,cb_01,73.0,temp_dist_trial,dist_items,qkpkxw,2.0,response,73,690.8000000000177,1896.7000000000119,1900.300000001501,690.8000000000177,1896.7000000000119,1900.300000001501,1.0,1209.5000000014845,0.0,,Slider,Slider,4.0,object-56,temp_dist_trial,25.0,t_s_10_1,travel_shared,luggage lock,1.0,competing,single,t_s_10_1.jpg,Travel,$${counterbalance_group},,sub-99
Desktop or Laptop,Windows 10,Chrome 138.0.0.0,1707x1067,1707x1067,Temporal Distance Task,cb_01,74.0,temp_dist_trial,num_items,zn7si1,1.0,response,1_ITEM,1811.4000000022352,1805.8999999999944,1811.4000000022352,1811.4000000022352,1805.8999999999944,1811.4000000022352,1.0,0.0,0.0,,Click Response,1_count,3.0,object-46,temp_dist_trial,26.0,t_m_07_1,travel_Miami,sunglasses,1.0,unique,single,t_m_07_1.jpg,Travel,$${counterbalance_group},,sub-99
Desktop or Laptop,Windows 10,Chrome 138.0.0.0,1707x1067,1707x1067,Temporal Distance Task,cb_01,75.0,temp_dist_trial,num_items,zn7si1,1.0,response,1_ITEM,1464.3000000015018,1460.3000000000175,1464.3000000015018,1464.3000000015018,1460.3000000000175,1464.3000000015018,1.0,0.0,0.0,,Click Response,1_count,3.0,object-46,temp_dist_trial,27.0,t_i_09_1,travel_Iceland,ear muffs,1.0,unique,paired,t_i_09_1.jpg,Travel,$${counterbalance_group},,sub-99
Desktop or Laptop,Windows 10,Chrome 138.0.0.0,1707x1067,1707x1067,Temporal Distance Task,cb_01,76.0,temp_dist_trial,num_items,zn7si1,1.0,response,1_ITEM,1803.1000000007334,1799.6999999999825,1803.1000000007334,1803.1000000007334,1799.6999999999825,1803.1000000007334,1.0,0.0,0.0,,Click Response,1_count,3.0,object-46,temp_dist_trial,28.0,t_m_06_1,travel_Miami,handheld fan,1.0,unique,single,t_m_06_1.jpg,Travel,$${counterbalance_group},,sub-99
Desktop or Laptop,Windows 10,Chrome 138.0.0.0,1707x1067,1707x1067,Temporal Distance Task,cb_01,77.0,temp_dist_trial,num_items,zn7si1,1.0,response,1_ITEM,1892.5000000007572,1890.6000000000056,1892.5000000007572,1892.5000000007572,1890.6000000000056,1892.5000000007572,1.0,0.0,0.0,,Click Response,1_count,3.0,object-46,temp_dist_trial,29.0,t_s_20_1,travel_shared,travel pill case,1.0,competing,paired,t_s_20_1.jpg,Travel,$${counterbalance_group},,sub-99
Desktop or Laptop,Windows 10,Chrome 138.0.0.0,1707x1067,1707x1067,Temporal Distance Task,cb_01,78.0,temp_dist_trial,num_items,zn7si1,1.0,response,1_ITEM,1305.5000000007567,1302.8000000000175,1305.5000000007567,1305.5000000007567,1302.8000000000175,1305.5000000007567,1.0,0.0,0.0,,Click Response,1_count,3.0,object-46,temp_dist_trial,30.0,t_s_23_1,travel_shared,ball cap,1.0,competing,single,t_s_23_1.jpg,Travel,$${counterbalance_group},,sub-99
Desktop or Laptop,Windows 10,Chrome 138.0.0.0,1707x1067,1707x1067,Temporal Distance Task,cb_01,79.0,temp_dist_trial,num_items,zn7si1,1.0,response,2_ITEM,1367.0999999992493,1363.5,1367.0999999992493,1367.0999999992493,1363.5,1367.0999999992493,1.0,0.0,0.0,,Click Response,2_count,5.0,object-49,temp_dist_trial,31.0,t_s_14_1,travel_shared,hand sanitizer,1.0,competing,paired,t_s_14_1.jpg,Travel,$${counterbalance_group},,sub-99
Desktop or Laptop,Windows 10,Chrome 138.0.0.0,1707x1067,1707x1067,Temporal Distance Task,cb_01,79.0,temp_dist_trial,dist_items,qkpkxw,2.0,info,,2.0,0.0,2.0,2.0,0.0,2.0,1.0,0.0,0.0,,Slider,Slider,4.0,object-56,temp_dist_trial,31.0,t_s_14_1,travel_shared,hand sanitizer,1.0,competing,paired,t_s_14_1.jpg,Travel,$${counterbalance_group},,sub-99
Desktop or Laptop,Windows 10,Chrome 138.0.0.0,1707x1067,1707x1067,Temporal Distance Task,cb_01,79.0,temp_dist_trial,dist_items,qkpkxw,2.0,continue,,2715.1000000014897,2714.7999999999884,2715.1000000014897,2715.1000000014897,2714.7999999999884,2715.1000000014897,1.0,0.0,0.0,,Click To Continue,Next button,7.0,object-60,temp_dist_trial,31.0,t_s_14_1,travel_shared,hand sanitizer,1.0,competing,paired,t_s_14_1.jpg,Travel,$${counterbalance_group},,sub-99
Desktop or Laptop,Windows 10,Chrome 138.0.0.0,1707x1067,1707x1067,Temporal Distance Task,cb_01,79.0,temp_dist_trial,dist_items,qkpkxw,2.0,response,65,1636.2000000000116,2714.7999999999884,2715.300000000745,1636.2000000000116,2714.7999999999884,2715.300000000745,1.0,1079.1000000007334,0.0,,Slider,Slider,4.0,object-56,temp_dist_trial,31.0,t_s_14_1,travel_shared,hand sanitizer,1.0,competing,paired,t_s_14_1.jpg,Travel,$${counterbalance_group},,sub-99
Desktop or Laptop,Windows 10,Chrome 138.0.0.0,1707x1067,1707x1067,Temporal Distance Task,cb_01,80.0,temp_dist_trial,num_items,zn7si1,1.0,response,2_ITEM,1666.500000000029,1660.4000000000233,1666.500000000029,1666.500000000029,1660.4000000000233,1666.500000000029,1.0,0.0,0.0,,Click Response,2_count,5.0,object-49,temp_dist_trial,32.0,t_s_21_1,travel_shared,umbrella,1.0,competing,paired,t_s_21_1.jpg,Travel,$${counterbalance_group},,sub-99
Desktop or Laptop,Windows 10,Chrome 138.0.0.0,1707x1067,1707x1067,Temporal Distance Task,cb_01,80.0,temp_dist_trial,dist_items,qkpkxw,2.0,info,,2.3000000022293534,0.0,2.3000000022293534,2.3000000022293534,0.0,2.3000000022293534,1.0,0.0,0.0,,Slider,Slider,4.0,object-56,temp_dist_trial,32.0,t_s_21_1,travel_shared,umbrella,1.0,competing,paired,t_s_21_1.jpg,Travel,$${counterbalance_group},,sub-99
Desktop or Laptop,Windows 10,Chrome 138.0.0.0,1707x1067,1707x1067,Temporal Distance Task,cb_01,80.0,temp_dist_trial,dist_items,qkpkxw,2.0,continue,,1921.1000000000056,1915.0,1921.1000000000056,1921.1000000000056,1915.0,1921.1000000000056,1.0,0.0,0.0,,Click To Continue,Next button,7.0,object-60,temp_dist_trial,32.0,t_s_21_1,travel_shared,umbrella,1.0,competing,paired,t_s_21_1.jpg,Travel,$${counterbalance_group},,sub-99
Desktop or Laptop,Windows 10,Chrome 138.0.0.0,1707x1067,1707x1067,Temporal Distance Task,cb_01,80.0,temp_dist_trial,dist_items,qkpkxw,2.0,response,36,1090.7999999999884,1915.0,1921.1000000000056,1090.7999999999884,1915.0,1921.1000000000056,1.0,830.3000000000177,0.0,,Slider,Slider,4.0,object-56,temp_dist_trial,32.0,t_s_21_1,travel_shared,umbrella,1.0,competing,paired,t_s_21_1.jpg,Travel,$${counterbalance_group},,sub-99
Desktop or Laptop,Windows 10,Chrome 138.0.0.0,1707x1067,1707x1067,Temporal Distance Task,cb_01,81.0,temp_dist_trial,num_items,zn7si1,1.0,response,2_ITEM,1400.8000000022296,1399.6999999999825,1400.8000000022296,1400.8000000022296,1399.6999999999825,1400.8000000022296,1.0,0.0,0.0,,Click Response,2_count,5.0,object-49,temp_dist_trial,33.0,t_s_08_1,travel_shared,hand lotion,1.0,competing,paired,t_s_08_1.jpg,Travel,$${counterbalance_group},,sub-99
Desktop or Laptop,Windows 10,Chrome 138.0.0.0,1707x1067,1707x1067,Temporal Distance Task,cb_01,81.0,temp_dist_trial,dist_items,qkpkxw,2.0,info,,1.9999999992433004,0.0,1.9999999992433004,1.9999999992433004,0.0,1.9999999992433004,1.0,0.0,0.0,,Slider,Slider,4.0,object-56,temp_dist_trial,33.0,t_s_08_1,travel_shared,hand lotion,1.0,competing,paired,t_s_08_1.jpg,Travel,$${counterbalance_group},,sub-99
Desktop or Laptop,Windows 10,Chrome 138.0.0.0,1707x1067,1707x1067,Temporal Distance Task,cb_01,81.0,temp_dist_trial,dist_items,qkpkxw,2.0,continue,,1706.4000000014785,1702.7999999999884,1706.4000000014785,1706.4000000014785,1702.7999999999884,1706.4000000014785,1.0,0.0,0.0,,Click To Continue,Next button,7.0,object-60,temp_dist_trial,33.0,t_s_08_1,travel_shared,hand lotion,1.0,competing,paired,t_s_08_1.jpg,Travel,$${counterbalance_group},,sub-99
Desktop or Laptop,Windows 10,Chrome 138.0.0.0,1707x1067,1707x1067,Temporal Distance Task,cb_01,81.0,temp_dist_trial,dist_items,qkpkxw,2.0,response,32,800.0,1702.7999999999884,1706.4999999992428,800.0,1702.7999999999884,1706.4999999992428,1.0,906.4999999992433,0.0,,Slider,Slider,4.0,object-56,temp_dist_trial,33.0,t_s_08_1,travel_shared,hand lotion,1.0,competing,paired,t_s_08_1.jpg,Travel,$${counterbalance_group},,sub-99
Desktop or Laptop,Windows 10,Chrome 138.0.0.0,1707x1067,1707x1067,Temporal Distance Task,cb_01,82.0,temp_dist_trial,num_items,zn7si1,1.0,response,1_ITEM,2108.699999999255,2102.700000000012,2108.699999999255,2108.699999999255,2102.700000000012,2108.699999999255,1.0,0.0,0.0,,Click Response,1_count,3.0,object-46,temp_dist_trial,34.0,t_i_15_1,travel_Iceland,compass,1.0,unique,paired,t_i_15_1.jpg,Travel,$${counterbalance_group},,sub-99
Desktop or Laptop,Windows 10,Chrome 138.0.0.0,1707x1067,1707x1067,Temporal Distance Task,cb_01,83.0,temp_dist_trial,num_items,zn7si1,1.0,response,2_ITEM,1260.2999999999886,1254.2999999999886,1260.2999999999886,1260.2999999999886,1254.2999999999886,1260.2999999999886,1.0,0.0,0.0,,Click Response,2_count,5.0,object-49,temp_dist_trial,35.0,t_s_03_1,travel_shared,portable charger,1.0,competing,paired,t_s_03_1.jpg,Travel,$${counterbalance_group},,sub-99
Desktop or Laptop,Windows 10,Chrome 138.0.0.0,1707x1067,1707x1067,Temporal Distance Task,cb_01,83.0,temp_dist_trial,dist_items,qkpkxw,2.0,info,,1.600000001490116,0.0,1.600000001490116,1.600000001490116,0.0,1.600000001490116,1.0,0.0,0.0,,Slider,Slider,4.0,object-56,temp_dist_trial,35.0,t_s_03_1,travel_shared,portable charger,1.0,competing,paired,t_s_03_1.jpg,Travel,$${counterbalance_group},,sub-99
Desktop or Laptop,Windows 10,Chrome 138.0.0.0,1707x1067,1707x1067,Temporal Distance Task,cb_01,83.0,temp_dist_trial,dist_items,qkpkxw,2.0,continue,,2273.0,2272.3999999999937,2273.0,2273.0,2272.3999999999937,2273.0,1.0,0.0,0.0,,Click To Continue,Next button,7.0,object-60,temp_dist_trial,35.0,t_s_03_1,travel_shared,portable charger,1.0,competing,paired,t_s_03_1.jpg,Travel,$${counterbalance_group},,sub-99
Desktop or Laptop,Windows 10,Chrome 138.0.0.0,1707x1067,1707x1067,Temporal Distance Task,cb_01,83.0,temp_dist_trial,dist_items,qkpkxw,2.0,response,64,1399.7999999999884,2272.3999999999937,2273.300000000745,1399.7999999999884,2272.3999999999937,2273.300000000745,1.0,873.5000000007567,0.0,,Slider,Slider,4.0,object-56,temp_dist_trial,35.0,t_s_03_1,travel_shared,portable charger,1.0,competing,paired,t_s_03_1.jpg,Travel,$${counterbalance_group},,sub-99
Desktop or Laptop,Windows 10,Chrome 138.0.0.0,1707x1067,1707x1067,Temporal Distance Task,cb_01,84.0,temp_dist_trial,num_items,zn7si1,1.0,response,1_ITEM,1049.9000000007507,1048.3999999999942,1049.9000000007507,1049.9000000007507,1048.3999999999942,1049.9000000007507,1.0,0.0,0.0,,Click Response,1_count,3.0,object-46,temp_dist_trial,36.0,t_s_19_1,travel_shared,pajamas,1.0,competing,single,t_s_19_1.jpg,Travel,$${counterbalance_group},,sub-99
Desktop or Laptop,Windows 10,Chrome 138.0.0.0,1707x1067,1707x1067,Temporal Distance Task,cb_01,85.0,temp_dist_trial,num_items,zn7si1,1.0,response,1_ITEM,1616.4999999992428,1612.0,1616.4999999992428,1616.4999999992428,1612.0,1616.4999999992428,1.0,0.0,0.0,,Click Response,1_count,3.0,object-46,temp_dist_trial,37.0,t_i_04_1,travel_Iceland,portable camping stove,1.0,unique,single,t_i_04_1.jpg,Travel,$${counterbalance_group},,sub-99
Desktop or Laptop,Windows 10,Chrome 138.0.0.0,1707x1067,1707x1067,Temporal Distance Task,cb_01,86.0,temp_dist_trial,num_items,zn7si1,1.0,response,1_ITEM,988.8000000022294,987.7999999999884,988.8000000022294,988.8000000022294,987.7999999999884,988.8000000022294,1.0,0.0,0.0,,Click Response,1_count,3.0,object-46,temp_dist_trial,38.0,t_s_17_1,travel_shared,toothbrush,1.0,competing,paired,t_s_17_1.jpg,Travel,$${counterbalance_group},,sub-99
Desktop or Laptop,Windows 10,Chrome 138.0.0.0,1707x1067,1707x1067,Temporal Distance Task,cb_01,87.0,temp_dist_trial,num_items,zn7si1,1.0,response,2_ITEM,1340.6000000007334,1339.2999999999886,1340.6000000007334,1340.6000000007334,1339.2999999999886,1340.6000000007334,1.0,0.0,0.0,,Click Response,2_count,5.0,object-49,temp_dist_trial,39.0,t_m_16_1,travel_Miami,flippers,1.0,unique,paired,t_m_16_1.jpg,Travel,$${counterbalance_group},,sub-99
Desktop or Laptop,Windows 10,Chrome 138.0.0.0,1707x1067,1707x1067,Temporal Distance Task,cb_01,87.0,temp_dist_trial,dist_items,qkpkxw,2.0,info,,2.1000000000058208,0.0,2.1000000000058208,2.1000000000058208,0.0,2.1000000000058208,1.0,0.0,0.0,,Slider,Slider,4.0,object-56,temp_dist_trial,39.0,t_m_16_1,travel_Miami,flippers,1.0,unique,paired,t_m_16_1.jpg,Travel,$${counterbalance_group},,sub-99
Desktop or Laptop,Windows 10,Chrome 138.0.0.0,1707x1067,1707x1067,Temporal Distance Task,cb_01,87.0,temp_dist_trial,dist_items,qkpkxw,2.0,continue,,2293.1000000000063,2290.6000000000063,2293.1000000000063,2293.1000000000063,2290.6000000000063,2293.1000000000063,1.0,0.0,0.0,,Click To Continue,Next button,7.0,object-60,temp_dist_trial,39.0,t_m_16_1,travel_Miami,flippers,1.0,unique,paired,t_m_16_1.jpg,Travel,$${counterbalance_group},,sub-99
Desktop or Laptop,Windows 10,Chrome 138.0.0.0,1707x1067,1707x1067,Temporal Distance Task,cb_01,87.0,temp_dist_trial,dist_items,qkpkxw,2.0,response,56,599.8999999999943,2290.6000000000063,2293.2999999992608,599.8999999999943,2290.6000000000063,2293.2999999992608,1.0,1693.3999999992664,0.0,,Slider,Slider,4.0,object-56,temp_dist_trial,39.0,t_m_16_1,travel_Miami,flippers,1.0,unique,paired,t_m_16_1.jpg,Travel,$${counterbalance_group},,sub-99
Desktop or Laptop,Windows 10,Chrome 138.0.0.0,1707x1067,1707x1067,Temporal Distance Task,cb_01,88.0,temp_dist_trial,num_items,zn7si1,1.0,response,1_ITEM,1772.8000000007446,1769.3999999999942,1772.8000000007446,1772.8000000007446,1769.3999999999942,1772.8000000007446,1.0,0.0,0.0,,Click Response,1_count,3.0,object-46,temp_dist_trial,40.0,t_s_11_1,travel_shared,eye mask,1.0,competing,paired,t_s_11_1.jpg,Travel,$${counterbalance_group},,sub-99
Desktop or Laptop,Windows 10,Chrome 138.0.0.0,1707x1067,1707x1067,Temporal Distance Task,cb_01,89.0,temp_dist_trial,num_items,zn7si1,1.0,response,1_ITEM,1721.9000000007507,1721.0,1721.9000000007507,1721.9000000007507,1721.0,1721.9000000007507,1.0,0.0,0.0,,Click Response,1_count,3.0,object-46,temp_dist_trial,41.0,t_s_04_1,travel_shared,instant camera,1.0,competing,single,t_s_04_1.jpg,Travel,$${counterbalance_group},,sub-99
Desktop or Laptop,Windows 10,Chrome 138.0.0.0,1707x1067,1707x1067,Temporal Distance Task,cb_01,90.0,temp_dist_trial,num_items,zn7si1,1.0,response,1_ITEM,1398.2000000000116,1393.7000000000116,1398.2000000000116,1398.2000000000116,1393.7000000000116,1398.2000000000116,1.0,0.0,0.0,,Click Response,1_count,3.0,object-46,temp_dist_trial,42.0,t_m_12_1,travel_Miami,foldable pail and shovel,1.0,unique,paired,t_m_12_1.jpg,Travel,$${counterbalance_group},,sub-99
Desktop or Laptop,Windows 10,Chrome 138.0.0.0,1707x1067,1707x1067,Temporal Distance Task,cb_01,91.0,temp_dist_trial,num_items,zn7si1,1.0,response,2_ITEM,1997.1999999992554,1993.7000000000119,1997.1999999992554,1997.1999999992554,1993.7000000000119,1997.1999999992554,1.0,0.0,0.0,,Click Response,2_count,5.0,object-49,temp_dist_trial,43.0,t_m_19_1,travel_Miami,surfboard,1.0,unique,paired,t_m_19_1.jpg,Travel,$${counterbalance_group},,sub-99
Desktop or Laptop,Windows 10,Chrome 138.0.0.0,1707x1067,1707x1067,Temporal Distance Task,cb_01,91.0,temp_dist_trial,dist_items,qkpkxw,2.0,info,,1.8999999999941792,0.0,1.8999999999941792,1.8999999999941792,0.0,1.8999999999941792,1.0,0.0,0.0,,Slider,Slider,4.0,object-56,temp_dist_trial,43.0,t_m_19_1,travel_Miami,surfboard,1.0,unique,paired,t_m_19_1.jpg,Travel,$${counterbalance_group},,sub-99
Desktop or Laptop,Windows 10,Chrome 138.0.0.0,1707x1067,1707x1067,Temporal Distance Task,cb_01,91.0,temp_dist_trial,dist_items,qkpkxw,2.0,continue,,1631.0999999992493,1630.1999999999825,1631.0999999992493,1631.0999999992493,1630.1999999999825,1631.0999999992493,1.0,0.0,0.0,,Click To Continue,Next button,7.0,object-60,temp_dist_trial,43.0,t_m_19_1,travel_Miami,surfboard,1.0,unique,paired,t_m_19_1.jpg,Travel,$${counterbalance_group},,sub-99
Desktop or Laptop,Windows 10,Chrome 138.0.0.0,1707x1067,1707x1067,Temporal Distance Task,cb_01,91.0,temp_dist_trial,dist_items,qkpkxw,2.0,response,66,811.9999999999709,1630.1999999999825,1631.3000000022296,811.9999999999709,1630.1999999999825,1631.3000000022296,1.0,819.3000000022585,0.0,,Slider,Slider,4.0,object-56,temp_dist_trial,43.0,t_m_19_1,travel_Miami,surfboard,1.0,unique,paired,t_m_19_1.jpg,Travel,$${counterbalance_group},,sub-99
Desktop or Laptop,Windows 10,Chrome 138.0.0.0,1707x1067,1707x1067,Temporal Distance Task,cb_01,92.0,temp_dist_trial,num_items,zn7si1,1.0,response,2_ITEM,1237.3999999992666,1236.0,1237.3999999992666,1237.3999999992666,1236.0,1237.3999999992666,1.0,0.0,0.0,,Click Response,2_count,5.0,object-49,temp_dist_trial,44.0,t_s_18_1,travel_shared,first aid kit,1.0,competing,paired,t_s_18_1.jpg,Travel,$${counterbalance_group},,sub-99
Desktop or Laptop,Windows 10,Chrome 138.0.0.0,1707x1067,1707x1067,Temporal Distance Task,cb_01,92.0,temp_dist_trial,dist_items,qkpkxw,2.0,info,,1.6000000022468155,0.0,1.6000000022468155,1.6000000022468155,0.0,1.6000000022468155,1.0,0.0,0.0,,Slider,Slider,4.0,object-56,temp_dist_trial,44.0,t_s_18_1,travel_shared,first aid kit,1.0,competing,paired,t_s_18_1.jpg,Travel,$${counterbalance_group},,sub-99
Desktop or Laptop,Windows 10,Chrome 138.0.0.0,1707x1067,1707x1067,Temporal Distance Task,cb_01,92.0,temp_dist_trial,dist_items,qkpkxw,2.0,continue,,2446.500000000757,2442.0,2446.500000000757,2446.500000000757,2442.0,2446.500000000757,1.0,0.0,0.0,,Click To Continue,Next button,7.0,object-60,temp_dist_trial,44.0,t_s_18_1,travel_shared,first aid kit,1.0,competing,paired,t_s_18_1.jpg,Travel,$${counterbalance_group},,sub-99
Desktop or Laptop,Windows 10,Chrome 138.0.0.0,1707x1067,1707x1067,Temporal Distance Task,cb_01,92.0,temp_dist_trial,dist_items,qkpkxw,2.0,response,69,1224.100000000035,2442.0,2446.8999999992666,1224.100000000035,2442.0,2446.8999999992666,1.0,1222.7999999992317,0.0,,Slider,Slider,4.0,object-56,temp_dist_trial,44.0,t_s_18_1,travel_shared,first aid kit,1.0,competing,paired,t_s_18_1.jpg,Travel,$${counterbalance_group},,sub-99
Desktop or Laptop,Windows 10,Chrome 138.0.0.0,1707x1067,1707x1067,Temporal Distance Task,cb_01,93.0,temp_dist_trial,num_items,zn7si1,1.0,response,2_ITEM,1216.6000000022468,1212.100000000035,1216.6000000022468,1216.6000000022468,1212.100000000035,1216.6000000022468,1.0,0.0,0.0,,Click Response,2_count,5.0,object-49,temp_dist_trial,45.0,t_m_15_1,travel_Miami,shorts,1.0,unique,paired,t_m_15_1.jpg,Travel,$${counterbalance_group},,sub-99
Desktop or Laptop,Windows 10,Chrome 138.0.0.0,1707x1067,1707x1067,Temporal Distance Task,cb_01,93.0,temp_dist_trial,dist_items,qkpkxw,2.0,info,,1.7000000000116415,0.0,1.7000000000116415,1.7000000000116415,0.0,1.7000000000116415,1.0,0.0,0.0,,Slider,Slider,4.0,object-56,temp_dist_trial,45.0,t_m_15_1,travel_Miami,shorts,1.0,unique,paired,t_m_15_1.jpg,Travel,$${counterbalance_group},,sub-99
Desktop or Laptop,Windows 10,Chrome 138.0.0.0,1707x1067,1707x1067,Temporal Distance Task,cb_01,93.0,temp_dist_trial,dist_items,qkpkxw,2.0,continue,,2511.200000000012,2508.700000000012,2511.200000000012,2511.200000000012,2508.700000000012,2511.200000000012,1.0,0.0,0.0,,Click To Continue,Next button,7.0,object-60,temp_dist_trial,45.0,t_m_15_1,travel_Miami,shorts,1.0,unique,paired,t_m_15_1.jpg,Travel,$${counterbalance_group},,sub-99
Desktop or Laptop,Windows 10,Chrome 138.0.0.0,1707x1067,1707x1067,Temporal Distance Task,cb_01,93.0,temp_dist_trial,dist_items,qkpkxw,2.0,response,34,969.5,2508.700000000012,2513.800000001501,969.5,2508.700000000012,2513.800000001501,1.0,1544.3000000015018,0.0,,Slider,Slider,4.0,object-56,temp_dist_trial,45.0,t_m_15_1,travel_Miami,shorts,1.0,unique,paired,t_m_15_1.jpg,Travel,$${counterbalance_group},,sub-99
Desktop or Laptop,Windows 10,Chrome 138.0.0.0,1707x1067,1707x1067,Temporal Distance Task,cb_01,94.0,temp_dist_trial,num_items,zn7si1,1.0,response,2_ITEM,1464.0,1460.4000000000233,1464.0,1464.0,1460.4000000000233,1464.0,1.0,0.0,0.0,,Click Response,2_count,5.0,object-49,temp_dist_trial,46.0,t_s_15_1,travel_shared,luggage tag,1.0,competing,single,t_s_15_1.jpg,Travel,$${counterbalance_group},,sub-99
Desktop or Laptop,Windows 10,Chrome 138.0.0.0,1707x1067,1707x1067,Temporal Distance Task,cb_01,94.0,temp_dist_trial,dist_items,qkpkxw,2.0,info,,2.200000001466833,0.0,2.200000001466833,2.200000001466833,0.0,2.200000001466833,1.0,0.0,0.0,,Slider,Slider,4.0,object-56,temp_dist_trial,46.0,t_s_15_1,travel_shared,luggage tag,1.0,competing,single,t_s_15_1.jpg,Travel,$${counterbalance_group},,sub-99
Desktop or Laptop,Windows 10,Chrome 138.0.0.0,1707x1067,1707x1067,Temporal Distance Task,cb_01,94.0,temp_dist_trial,dist_items,qkpkxw,2.0,continue,,1672.3999999999646,1666.3999999999646,1672.3999999999646,1672.3999999999646,1666.3999999999646,1672.3999999999646,1.0,0.0,0.0,,Click To Continue,Next button,7.0,object-60,temp_dist_trial,46.0,t_s_15_1,travel_shared,luggage tag,1.0,competing,single,t_s_15_1.jpg,Travel,$${counterbalance_group},,sub-99
Desktop or Laptop,Windows 10,Chrome 138.0.0.0,1707x1067,1707x1067,Temporal Distance Task,cb_01,94.0,temp_dist_trial,dist_items,qkpkxw,2.0,response,62,939.1999999999533,1666.3999999999646,1672.3999999999646,939.1999999999533,1666.3999999999646,1672.3999999999646,1.0,733.2000000000116,0.0,,Slider,Slider,4.0,object-56,temp_dist_trial,46.0,t_s_15_1,travel_shared,luggage tag,1.0,competing,single,t_s_15_1.jpg,Travel,$${counterbalance_group},,sub-99
Desktop or Laptop,Windows 10,Chrome 138.0.0.0,1707x1067,1707x1067,Temporal Distance Task,cb_01,95.0,temp_dist_trial,num_items,zn7si1,1.0,response,2_ITEM,1269.0000000007567,1266.5,1269.0000000007567,1269.0000000007567,1266.5,1269.0000000007567,1.0,0.0,0.0,,Click Response,2_count,5.0,object-49,temp_dist_trial,47.0,t_m_02_1,travel_Miami,t-shirt,1.0,unique,paired,t_m_02_1.jpg,Travel,$${counterbalance_group},,sub-99
Desktop or Laptop,Windows 10,Chrome 138.0.0.0,1707x1067,1707x1067,Temporal Distance Task,cb_01,95.0,temp_dist_trial,dist_items,qkpkxw,2.0,info,,2.2000000022235326,0.0,2.2000000022235326,2.2000000022235326,0.0,2.2000000022235326,1.0,0.0,0.0,,Slider,Slider,4.0,object-56,temp_dist_trial,47.0,t_m_02_1,travel_Miami,t-shirt,1.0,unique,paired,t_m_02_1.jpg,Travel,$${counterbalance_group},,sub-99
Desktop or Laptop,Windows 10,Chrome 138.0.0.0,1707x1067,1707x1067,Temporal Distance Task,cb_01,95.0,temp_dist_trial,dist_items,qkpkxw,2.0,continue,,1812.7000000022235,1811.8999999999646,1812.7000000022235,1812.7000000022235,1811.8999999999646,1812.7000000022235,1.0,0.0,0.0,,Click To Continue,Next button,7.0,object-60,temp_dist_trial,47.0,t_m_02_1,travel_Miami,t-shirt,1.0,unique,paired,t_m_02_1.jpg,Travel,$${counterbalance_group},,sub-99
Desktop or Laptop,Windows 10,Chrome 138.0.0.0,1707x1067,1707x1067,Temporal Distance Task,cb_01,95.0,temp_dist_trial,dist_items,qkpkxw,2.0,response,28,830.2999999999884,1811.8999999999646,1813.1000000007334,830.2999999999884,1811.8999999999646,1813.1000000007334,1.0,982.8000000007453,0.0,,Slider,Slider,4.0,object-56,temp_dist_trial,47.0,t_m_02_1,travel_Miami,t-shirt,1.0,unique,paired,t_m_02_1.jpg,Travel,$${counterbalance_group},,sub-99
Desktop or Laptop,Windows 10,Chrome 138.0.0.0,1707x1067,1707x1067,Temporal Distance Task,cb_01,96.0,temp_dist_trial,num_items,zn7si1,1.0,response,1_ITEM,1173.7000000007683,1169.5,1173.7000000007683,1173.7000000007683,1169.5,1173.7000000007683,1.0,0.0,0.0,,Click Response,1_count,3.0,object-46,temp_dist_trial,48.0,t_m_08_1,travel_Miami,flipflops,1.0,unique,single,t_m_08_1.jpg,Travel,$${counterbalance_group},,sub-99
Desktop or Laptop,Windows 10,Chrome 138.0.0.0,1707x1067,1707x1067,Temporal Distance Task,,,,,,,info,END,,,277454.0,,,,,,,,,,,,,,,,,,,,,,$${counterbalance_group},,sub-99
