Participant Device,Participant OS,Participant Browser,Participant Monitor Size,Participant Viewport Size,Task Name,Current Spreadsheet,Trial Number,Display,Screen,Screen ID,Screen Counter,Response Type,Response,Onset Time,Clock Time,Reaction Time,Absolute Onset Time,Absolute Clock Time,Absolute Reaction Time,Correct,Response Duration,Proportion,Tag,Component Name,Object Name,Object Number,Object ID,Spreadsheet: display,Spreadsheet: trial,Spreadsheet: stimulus_id,Spreadsheet: expected_goal,Spreadsheet: stimulus_name,Spreadsheet: c_group,Spreadsheet: condition,Spreadsheet: paired_status,Spreadsheet: stimulus_path,Spreadsheet: block_type,Manipulation: Spreadsheet,Store: enc_test_acc,sub_label
Desktop or Laptop,Windows 10,Chrome 138.0.0.0,1920x1080,1920x1080,Temporal Distance Task,,,,,,,info,BEGIN,,,,,,,,,,,,,,,,,,,,,,,,,$${counterbalance_group},,sub-78
Desktop or Laptop,Windows 10,Chrome 138.0.0.0,1920x1080,1920x1080,Temporal Distance Task,cb_04,1.0,temp_instructions,intro_screen,3tnme7,1.0,continue,,6940.500000002236,6938.9,6940.500000002236,6940.500000002236,6938.9,6940.500000002236,1.0,0.0,0.0,,Click To Continue,Continue Button,4.0,object-29,temp_instructions,,,Travel,,,,,,,$${counterbalance_group},,sub-78
Desktop or Laptop,Windows 10,Chrome 138.0.0.0,1920x1080,1920x1080,Temporal Distance Task,cb_04,1.0,temp_instructions,intro_screen_2,52v7ur,2.0,continue,,3619.5,3616.700000000001,3619.5,3619.5,3616.700000000001,3619.5,1.0,0.0,0.0,,Click To Continue,Continue Button,4.0,object-39,temp_instructions,,,Travel,,,,,,,$${counterbalance_group},,sub-78
Desktop or Laptop,Windows 10,Chrome 138.0.0.0,1920x1080,1920x1080,Temporal Distance Task,cb_04,1.0,temp_instructions,intro_screen_3,i7lvwx,3.0,continue,,3300.000000000002,3297.200000000001,3300.000000000002,3300.000000000002,3297.200000000001,3300.000000000002,1.0,0.0,0.0,,Click To Continue,Continue Button,4.0,object-67,temp_instructions,,,Travel,,,,,,,$${counterbalance_group},,sub-78
Desktop or Laptop,Windows 10,Chrome 138.0.0.0,1920x1080,1920x1080,Temporal Distance Task,cb_04,1.0,temp_instructions,test_q1,5ieqx1,4.0,response,choice_3,3313.7999999999993,3311.0,3313.7999999999993,3313.7999999999993,3311.0,3313.7999999999993,1.0,0.0,0.0,,Click Response,choice_3,5.0,object-345,temp_instructions,,,Travel,,,,,,,$${counterbalance_group},,sub-78
Desktop or Laptop,Windows 10,Chrome 138.0.0.0,1920x1080,1920x1080,Temporal Distance Task,cb_04,1.0,temp_instructions,score_corr,7ilvjr,5.0,continue,,961.0,958.2999999999993,961.0,961.0,958.2999999999993,961.0,1.0,0.0,0.0,,Click To Continue,Continue Button,3.0,object-23,temp_instructions,,,Travel,,,,,,,$${counterbalance_group},,sub-78
Desktop or Laptop,Windows 10,Chrome 138.0.0.0,1920x1080,1920x1080,Temporal Distance Task,cb_04,1.0,temp_eventStart,Screen 1,dgtyxe,1.0,continue,,1276.2000000029802,1275.0999999999985,1276.2000000029802,1276.2000000029802,1275.0999999999985,1276.2000000029802,1.0,0.0,0.0,,Click To Continue,Next Button,3.0,object-43,temp_eventStart,,,Travel,,,,,,,$${counterbalance_group},,sub-78
Desktop or Laptop,Windows 10,Chrome 138.0.0.0,1920x1080,1920x1080,Temporal Distance Task,cb_04,1.0,temp_dist_trial,num_items,zn7si1,1.0,response,1_ITEM,1850.0,1847.2000000000005,1850.0,1850.0,1847.2000000000005,1850.0,1.0,0.0,0.0,,Click Response,1_count,3.0,object-46,temp_dist_trial,1.0,t_s_13_1,travel_shared,contact lens case,4.0,competing,single,t_s_13_1.jpg,Travel,$${counterbalance_group},,sub-78
Desktop or Laptop,Windows 10,Chrome 138.0.0.0,1920x1080,1920x1080,Temporal Distance Task,cb_04,2.0,temp_dist_trial,num_items,zn7si1,1.0,response,2_ITEM,1090.7999999999993,1088.8999999999978,1090.7999999999993,1090.7999999999993,1088.8999999999978,1090.7999999999993,1.0,0.0,0.0,,Click Response,2_count,5.0,object-49,temp_dist_trial,2.0,t_i_05_1,travel_Iceland,hiking boots,4.0,unique,paired,t_i_05_1.jpg,Travel,$${counterbalance_group},,sub-78
Desktop or Laptop,Windows 10,Chrome 138.0.0.0,1920x1080,1920x1080,Temporal Distance Task,cb_04,2.0,temp_dist_trial,dist_items,qkpkxw,2.0,info,,2.9000000000014547,0.0,2.9000000000014547,2.9000000000014547,0.0,2.9000000000014547,1.0,0.0,0.0,,Slider,Slider,4.0,object-56,temp_dist_trial,2.0,t_i_05_1,travel_Iceland,hiking boots,4.0,unique,paired,t_i_05_1.jpg,Travel,$${counterbalance_group},,sub-78
Desktop or Laptop,Windows 10,Chrome 138.0.0.0,1920x1080,1920x1080,Temporal Distance Task,cb_04,2.0,temp_dist_trial,dist_items,qkpkxw,2.0,continue,,3858.00000000298,3855.5,3858.00000000298,3858.00000000298,3855.5,3858.00000000298,1.0,0.0,0.0,,Click To Continue,Next button,7.0,object-60,temp_dist_trial,2.0,t_i_05_1,travel_Iceland,hiking boots,4.0,unique,paired,t_i_05_1.jpg,Travel,$${counterbalance_group},,sub-78
Desktop or Laptop,Windows 10,Chrome 138.0.0.0,1920x1080,1920x1080,Temporal Distance Task,cb_04,2.0,temp_dist_trial,dist_items,qkpkxw,2.0,response,34,1483.2999999999995,3855.5,3858.299999999999,1483.2999999999995,3855.5,3858.299999999999,1.0,2375.0,0.0,,Slider,Slider,4.0,object-56,temp_dist_trial,2.0,t_i_05_1,travel_Iceland,hiking boots,4.0,unique,paired,t_i_05_1.jpg,Travel,$${counterbalance_group},,sub-78
Desktop or Laptop,Windows 10,Chrome 138.0.0.0,1920x1080,1920x1080,Temporal Distance Task,cb_04,3.0,temp_dist_trial,num_items,zn7si1,1.0,response,2_ITEM,1560.4000000014896,1558.2999999999995,1560.4000000014896,1560.4000000014896,1558.2999999999995,1560.4000000014896,1.0,0.0,0.0,,Click Response,2_count,5.0,object-49,temp_dist_trial,3.0,t_s_07_1,travel_shared,phone charger cable,4.0,competing,paired,t_s_07_1.jpg,Travel,$${counterbalance_group},,sub-78
Desktop or Laptop,Windows 10,Chrome 138.0.0.0,1920x1080,1920x1080,Temporal Distance Task,cb_04,3.0,temp_dist_trial,dist_items,qkpkxw,2.0,info,,2.300000000745058,0.0,2.300000000745058,2.300000000745058,0.0,2.300000000745058,1.0,0.0,0.0,,Slider,Slider,4.0,object-56,temp_dist_trial,3.0,t_s_07_1,travel_shared,phone charger cable,4.0,competing,paired,t_s_07_1.jpg,Travel,$${counterbalance_group},,sub-78
Desktop or Laptop,Windows 10,Chrome 138.0.0.0,1920x1080,1920x1080,Temporal Distance Task,cb_04,3.0,temp_dist_trial,dist_items,qkpkxw,2.0,continue,,2776.2000000029802,2775.0,2776.2000000029802,2776.2000000029802,2775.0,2776.2000000029802,1.0,0.0,0.0,,Click To Continue,Next button,7.0,object-60,temp_dist_trial,3.0,t_s_07_1,travel_shared,phone charger cable,4.0,competing,paired,t_s_07_1.jpg,Travel,$${counterbalance_group},,sub-78
Desktop or Laptop,Windows 10,Chrome 138.0.0.0,1920x1080,1920x1080,Temporal Distance Task,cb_04,3.0,temp_dist_trial,dist_items,qkpkxw,2.0,response,66,1391.7000000000005,2775.0,2777.5,1391.7000000000005,2775.0,2777.5,1.0,1385.7999999999995,0.0,,Slider,Slider,4.0,object-56,temp_dist_trial,3.0,t_s_07_1,travel_shared,phone charger cable,4.0,competing,paired,t_s_07_1.jpg,Travel,$${counterbalance_group},,sub-78
Desktop or Laptop,Windows 10,Chrome 138.0.0.0,1920x1080,1920x1080,Temporal Distance Task,cb_04,4.0,temp_dist_trial,num_items,zn7si1,1.0,response,2_ITEM,1688.1000000014901,1686.0999999999985,1688.1000000014901,1688.1000000014901,1686.0999999999985,1688.1000000014901,1.0,0.0,0.0,,Click Response,2_count,5.0,object-49,temp_dist_trial,4.0,t_m_12_1,travel_Miami,foldable pail and shovel,4.0,unique,paired,t_m_12_1.jpg,Travel,$${counterbalance_group},,sub-78
Desktop or Laptop,Windows 10,Chrome 138.0.0.0,1920x1080,1920x1080,Temporal Distance Task,cb_04,4.0,temp_dist_trial,dist_items,qkpkxw,2.0,info,,1.9000000000014552,0.0,1.9000000000014552,1.9000000000014552,0.0,1.9000000000014552,1.0,0.0,0.0,,Slider,Slider,4.0,object-56,temp_dist_trial,4.0,t_m_12_1,travel_Miami,foldable pail and shovel,4.0,unique,paired,t_m_12_1.jpg,Travel,$${counterbalance_group},,sub-78
Desktop or Laptop,Windows 10,Chrome 138.0.0.0,1920x1080,1920x1080,Temporal Distance Task,cb_04,4.0,temp_dist_trial,dist_items,qkpkxw,2.0,continue,,3082.0000000014916,3080.5,3082.0000000014916,3082.0000000014916,3080.5,3082.0000000014916,1.0,0.0,0.0,,Click To Continue,Next button,7.0,object-60,temp_dist_trial,4.0,t_m_12_1,travel_Miami,foldable pail and shovel,4.0,unique,paired,t_m_12_1.jpg,Travel,$${counterbalance_group},,sub-78
Desktop or Laptop,Windows 10,Chrome 138.0.0.0,1920x1080,1920x1080,Temporal Distance Task,cb_04,4.0,temp_dist_trial,dist_items,qkpkxw,2.0,response,24,1913.9000000000005,3080.5,3082.2000000007465,1913.9000000000005,3080.5,3082.2000000007465,1.0,1168.3000000007448,0.0,,Slider,Slider,4.0,object-56,temp_dist_trial,4.0,t_m_12_1,travel_Miami,foldable pail and shovel,4.0,unique,paired,t_m_12_1.jpg,Travel,$${counterbalance_group},,sub-78
Desktop or Laptop,Windows 10,Chrome 138.0.0.0,1920x1080,1920x1080,Temporal Distance Task,cb_04,5.0,temp_dist_trial,num_items,zn7si1,1.0,response,1_ITEM,1932.3000000022366,1930.5999999999985,1932.3000000022366,1932.3000000022366,1930.5999999999985,1932.3000000022366,1.0,0.0,0.0,,Click Response,1_count,3.0,object-46,temp_dist_trial,5.0,t_s_04_1,travel_shared,instant camera,4.0,competing,single,t_s_04_1.jpg,Travel,$${counterbalance_group},,sub-78
Desktop or Laptop,Windows 10,Chrome 138.0.0.0,1920x1080,1920x1080,Temporal Distance Task,cb_04,6.0,temp_dist_trial,num_items,zn7si1,1.0,response,1_ITEM,1186.8000000000031,1186.0,1186.8000000000031,1186.8000000000031,1186.0,1186.8000000000031,1.0,0.0,0.0,,Click Response,1_count,3.0,object-46,temp_dist_trial,6.0,t_s_12_1,travel_shared,clear toiletry bag,4.0,competing,paired,t_s_12_1.jpg,Travel,$${counterbalance_group},,sub-78
Desktop or Laptop,Windows 10,Chrome 138.0.0.0,1920x1080,1920x1080,Temporal Distance Task,cb_04,7.0,temp_dist_trial,num_items,zn7si1,1.0,response,2_ITEM,984.8000000014873,983.2999999999955,984.8000000014873,984.8000000014873,983.2999999999955,984.8000000014873,1.0,0.0,0.0,,Click Response,2_count,5.0,object-49,temp_dist_trial,7.0,t_s_16_1,travel_shared,chapstick,4.0,competing,paired,t_s_16_1.jpg,Travel,$${counterbalance_group},,sub-78
Desktop or Laptop,Windows 10,Chrome 138.0.0.0,1920x1080,1920x1080,Temporal Distance Task,cb_04,7.0,temp_dist_trial,dist_items,qkpkxw,2.0,info,,2.2000000007465133,0.0,2.2000000007465133,2.2000000007465133,0.0,2.2000000007465133,1.0,0.0,0.0,,Slider,Slider,4.0,object-56,temp_dist_trial,7.0,t_s_16_1,travel_shared,chapstick,4.0,competing,paired,t_s_16_1.jpg,Travel,$${counterbalance_group},,sub-78
Desktop or Laptop,Windows 10,Chrome 138.0.0.0,1920x1080,1920x1080,Temporal Distance Task,cb_04,7.0,temp_dist_trial,dist_items,qkpkxw,2.0,continue,,1991.500000000008,1988.8000000000034,1991.500000000008,1991.500000000008,1988.8000000000034,1991.500000000008,1.0,0.0,0.0,,Click To Continue,Next button,7.0,object-60,temp_dist_trial,7.0,t_s_16_1,travel_shared,chapstick,4.0,competing,paired,t_s_16_1.jpg,Travel,$${counterbalance_group},,sub-78
Desktop or Laptop,Windows 10,Chrome 138.0.0.0,1920x1080,1920x1080,Temporal Distance Task,cb_04,7.0,temp_dist_trial,dist_items,qkpkxw,2.0,response,87,861.0999999999983,1988.8000000000034,1991.500000000008,861.0999999999983,1988.8000000000034,1991.500000000008,1.0,1130.4000000000087,0.0,,Slider,Slider,4.0,object-56,temp_dist_trial,7.0,t_s_16_1,travel_shared,chapstick,4.0,competing,paired,t_s_16_1.jpg,Travel,$${counterbalance_group},,sub-78
Desktop or Laptop,Windows 10,Chrome 138.0.0.0,1920x1080,1920x1080,Temporal Distance Task,cb_04,8.0,temp_dist_trial,num_items,zn7si1,1.0,response,2_ITEM,1705.599999999991,1702.7999999999954,1705.599999999991,1705.599999999991,1702.7999999999954,1705.599999999991,1.0,0.0,0.0,,Click Response,2_count,5.0,object-49,temp_dist_trial,8.0,t_s_21_1,travel_shared,umbrella,4.0,competing,paired,t_s_21_1.jpg,Travel,$${counterbalance_group},,sub-78
Desktop or Laptop,Windows 10,Chrome 138.0.0.0,1920x1080,1920x1080,Temporal Distance Task,cb_04,8.0,temp_dist_trial,dist_items,qkpkxw,2.0,info,,2.3000000000029104,0.0,2.3000000000029104,2.3000000000029104,0.0,2.3000000000029104,1.0,0.0,0.0,,Slider,Slider,4.0,object-56,temp_dist_trial,8.0,t_s_21_1,travel_shared,umbrella,4.0,competing,paired,t_s_21_1.jpg,Travel,$${counterbalance_group},,sub-78
Desktop or Laptop,Windows 10,Chrome 138.0.0.0,1920x1080,1920x1080,Temporal Distance Task,cb_04,8.0,temp_dist_trial,dist_items,qkpkxw,2.0,continue,,2298.000000002983,2297.2000000000044,2298.000000002983,2298.000000002983,2297.2000000000044,2298.000000002983,1.0,0.0,0.0,,Click To Continue,Next button,7.0,object-60,temp_dist_trial,8.0,t_s_21_1,travel_shared,umbrella,4.0,competing,paired,t_s_21_1.jpg,Travel,$${counterbalance_group},,sub-78
Desktop or Laptop,Windows 10,Chrome 138.0.0.0,1920x1080,1920x1080,Temporal Distance Task,cb_04,8.0,temp_dist_trial,dist_items,qkpkxw,2.0,response,28,911.1000000000058,2297.2000000000044,2298.2000000022376,911.1000000000058,2297.2000000000044,2298.2000000022376,1.0,1387.1000000022323,0.0,,Slider,Slider,4.0,object-56,temp_dist_trial,8.0,t_s_21_1,travel_shared,umbrella,4.0,competing,paired,t_s_21_1.jpg,Travel,$${counterbalance_group},,sub-78
Desktop or Laptop,Windows 10,Chrome 138.0.0.0,1920x1080,1920x1080,Temporal Distance Task,cb_04,9.0,temp_dist_trial,num_items,zn7si1,1.0,response,2_ITEM,1010.5000000022336,1008.2999999999955,1010.5000000022336,1010.5000000022336,1008.2999999999955,1010.5000000022336,1.0,0.0,0.0,,Click Response,2_count,5.0,object-49,temp_dist_trial,9.0,t_s_03_1,travel_shared,portable charger,4.0,competing,paired,t_s_03_1.jpg,Travel,$${counterbalance_group},,sub-78
Desktop or Laptop,Windows 10,Chrome 138.0.0.0,1920x1080,1920x1080,Temporal Distance Task,cb_04,9.0,temp_dist_trial,dist_items,qkpkxw,2.0,info,,2.200000002238085,0.0,2.200000002238085,2.200000002238085,0.0,2.200000002238085,1.0,0.0,0.0,,Slider,Slider,4.0,object-56,temp_dist_trial,9.0,t_s_03_1,travel_shared,portable charger,4.0,competing,paired,t_s_03_1.jpg,Travel,$${counterbalance_group},,sub-78
Desktop or Laptop,Windows 10,Chrome 138.0.0.0,1920x1080,1920x1080,Temporal Distance Task,cb_04,9.0,temp_dist_trial,dist_items,qkpkxw,2.0,continue,,1719.3000000000034,1716.6000000000058,1719.3000000000034,1719.3000000000034,1716.6000000000058,1719.3000000000034,1.0,0.0,0.0,,Click To Continue,Next button,7.0,object-60,temp_dist_trial,9.0,t_s_03_1,travel_shared,portable charger,4.0,competing,paired,t_s_03_1.jpg,Travel,$${counterbalance_group},,sub-78
Desktop or Laptop,Windows 10,Chrome 138.0.0.0,1920x1080,1920x1080,Temporal Distance Task,cb_04,9.0,temp_dist_trial,dist_items,qkpkxw,2.0,response,87,416.6000000000058,1716.6000000000058,1719.3000000000104,416.6000000000058,1716.6000000000058,1719.3000000000104,1.0,1302.7000000000044,0.0,,Slider,Slider,4.0,object-56,temp_dist_trial,9.0,t_s_03_1,travel_shared,portable charger,4.0,competing,paired,t_s_03_1.jpg,Travel,$${counterbalance_group},,sub-78
Desktop or Laptop,Windows 10,Chrome 138.0.0.0,1920x1080,1920x1080,Temporal Distance Task,cb_04,10.0,temp_dist_trial,num_items,zn7si1,1.0,response,1_ITEM,2147.1000000022323,2144.799999999996,2147.1000000022323,2147.1000000022323,2144.799999999996,2147.1000000022323,1.0,0.0,0.0,,Click Response,1_count,3.0,object-46,temp_dist_trial,10.0,t_i_19_1,travel_Iceland,rope,4.0,unique,single,t_i_19_1.jpg,Travel,$${counterbalance_group},,sub-78
Desktop or Laptop,Windows 10,Chrome 138.0.0.0,1920x1080,1920x1080,Temporal Distance Task,cb_04,11.0,temp_dist_trial,num_items,zn7si1,1.0,response,1_ITEM,1930.0000000022333,1927.6999999999966,1930.0000000022333,1930.0000000022333,1927.6999999999966,1930.0000000022333,1.0,0.0,0.0,,Click Response,1_count,3.0,object-46,temp_dist_trial,11.0,t_s_15_1,travel_shared,luggage tag,4.0,competing,single,t_s_15_1.jpg,Travel,$${counterbalance_group},,sub-78
Desktop or Laptop,Windows 10,Chrome 138.0.0.0,1920x1080,1920x1080,Temporal Distance Task,cb_04,12.0,temp_dist_trial,num_items,zn7si1,1.0,response,2_ITEM,1007.60000000149,1005.5999999999983,1007.60000000149,1007.60000000149,1005.5999999999983,1007.60000000149,1.0,0.0,0.0,,Click Response,2_count,5.0,object-49,temp_dist_trial,12.0,t_i_07_1,travel_Iceland,hiking backpack,4.0,unique,paired,t_i_07_1.jpg,Travel,$${counterbalance_group},,sub-78
Desktop or Laptop,Windows 10,Chrome 138.0.0.0,1920x1080,1920x1080,Temporal Distance Task,cb_04,12.0,temp_dist_trial,dist_items,qkpkxw,2.0,info,,2.2000000007465133,0.0,2.2000000007465133,2.2000000007465133,0.0,2.2000000007465133,1.0,0.0,0.0,,Slider,Slider,4.0,object-56,temp_dist_trial,12.0,t_i_07_1,travel_Iceland,hiking backpack,4.0,unique,paired,t_i_07_1.jpg,Travel,$${counterbalance_group},,sub-78
Desktop or Laptop,Windows 10,Chrome 138.0.0.0,1920x1080,1920x1080,Temporal Distance Task,cb_04,12.0,temp_dist_trial,dist_items,qkpkxw,2.0,continue,,1851.9000000000005,1850.0,1851.9000000000005,1851.9000000000005,1850.0,1851.9000000000005,1.0,0.0,0.0,,Click To Continue,Next button,7.0,object-60,temp_dist_trial,12.0,t_i_07_1,travel_Iceland,hiking backpack,4.0,unique,paired,t_i_07_1.jpg,Travel,$${counterbalance_group},,sub-78
Desktop or Laptop,Windows 10,Chrome 138.0.0.0,1920x1080,1920x1080,Temporal Distance Task,cb_04,12.0,temp_dist_trial,dist_items,qkpkxw,2.0,response,45,1027.8000000000031,1850.0,1852.2000000007465,1027.8000000000031,1850.0,1852.2000000007465,1.0,824.4000000007436,0.0,,Slider,Slider,4.0,object-56,temp_dist_trial,12.0,t_i_07_1,travel_Iceland,hiking backpack,4.0,unique,paired,t_i_07_1.jpg,Travel,$${counterbalance_group},,sub-78
Desktop or Laptop,Windows 10,Chrome 138.0.0.0,1920x1080,1920x1080,Temporal Distance Task,cb_04,13.0,temp_dist_trial,num_items,zn7si1,1.0,response,1_ITEM,1052.6999999999969,1050.0,1052.6999999999969,1052.6999999999969,1050.0,1052.6999999999969,1.0,0.0,0.0,,Click Response,1_count,3.0,object-46,temp_dist_trial,13.0,t_s_11_1,travel_shared,eye mask,4.0,competing,paired,t_s_11_1.jpg,Travel,$${counterbalance_group},,sub-78
Desktop or Laptop,Windows 10,Chrome 138.0.0.0,1920x1080,1920x1080,Temporal Distance Task,cb_04,14.0,temp_dist_trial,num_items,zn7si1,1.0,response,2_ITEM,1844.9000000000005,1844.4000000000005,1844.9000000000005,1844.9000000000005,1844.4000000000005,1844.9000000000005,1.0,0.0,0.0,,Click Response,2_count,5.0,object-49,temp_dist_trial,14.0,t_m_19_1,travel_Miami,surfboard,4.0,unique,single,t_m_19_1.jpg,Travel,$${counterbalance_group},,sub-78
Desktop or Laptop,Windows 10,Chrome 138.0.0.0,1920x1080,1920x1080,Temporal Distance Task,cb_04,14.0,temp_dist_trial,dist_items,qkpkxw,2.0,info,,2.0,0.0,2.0,2.0,0.0,2.0,1.0,0.0,0.0,,Slider,Slider,4.0,object-56,temp_dist_trial,14.0,t_m_19_1,travel_Miami,surfboard,4.0,unique,single,t_m_19_1.jpg,Travel,$${counterbalance_group},,sub-78
Desktop or Laptop,Windows 10,Chrome 138.0.0.0,1920x1080,1920x1080,Temporal Distance Task,cb_04,14.0,temp_dist_trial,dist_items,qkpkxw,2.0,continue,,2802.5,2800.0,2802.5,2802.5,2800.0,2802.5,1.0,0.0,0.0,,Click To Continue,Next button,7.0,object-60,temp_dist_trial,14.0,t_m_19_1,travel_Miami,surfboard,4.0,unique,single,t_m_19_1.jpg,Travel,$${counterbalance_group},,sub-78
Desktop or Laptop,Windows 10,Chrome 138.0.0.0,1920x1080,1920x1080,Temporal Distance Task,cb_04,14.0,temp_dist_trial,dist_items,qkpkxw,2.0,response,6,1483.3000000000034,2800.0,2802.800000000003,1483.3000000000034,2800.0,2802.800000000003,1.0,1319.5,0.0,,Slider,Slider,4.0,object-56,temp_dist_trial,14.0,t_m_19_1,travel_Miami,surfboard,4.0,unique,single,t_m_19_1.jpg,Travel,$${counterbalance_group},,sub-78
Desktop or Laptop,Windows 10,Chrome 138.0.0.0,1920x1080,1920x1080,Temporal Distance Task,cb_04,15.0,temp_dist_trial,num_items,zn7si1,1.0,response,1_ITEM,1091.5,1088.8000000000031,1091.5,1091.5,1088.8000000000031,1091.5,1.0,0.0,0.0,,Click Response,1_count,3.0,object-46,temp_dist_trial,15.0,t_m_16_1,travel_Miami,flippers,4.0,unique,single,t_m_16_1.jpg,Travel,$${counterbalance_group},,sub-78
Desktop or Laptop,Windows 10,Chrome 138.0.0.0,1920x1080,1920x1080,Temporal Distance Task,cb_04,16.0,temp_dist_trial,num_items,zn7si1,1.0,response,2_ITEM,875.0000000000148,872.2000000000116,875.0000000000148,875.0000000000148,872.2000000000116,875.0000000000148,1.0,0.0,0.0,,Click Response,2_count,5.0,object-49,temp_dist_trial,16.0,t_m_01_1,travel_Miami,sandals,4.0,unique,paired,t_m_01_1.jpg,Travel,$${counterbalance_group},,sub-78
Desktop or Laptop,Windows 10,Chrome 138.0.0.0,1920x1080,1920x1080,Temporal Distance Task,cb_04,16.0,temp_dist_trial,dist_items,qkpkxw,2.0,info,,2.5,0.0,2.5,2.5,0.0,2.5,1.0,0.0,0.0,,Slider,Slider,4.0,object-56,temp_dist_trial,16.0,t_m_01_1,travel_Miami,sandals,4.0,unique,paired,t_m_01_1.jpg,Travel,$${counterbalance_group},,sub-78
Desktop or Laptop,Windows 10,Chrome 138.0.0.0,1920x1080,1920x1080,Temporal Distance Task,cb_04,16.0,temp_dist_trial,dist_items,qkpkxw,2.0,continue,,2635.5,2633.300000000003,2635.5,2635.5,2633.300000000003,2635.5,1.0,0.0,0.0,,Click To Continue,Next button,7.0,object-60,temp_dist_trial,16.0,t_m_01_1,travel_Miami,sandals,4.0,unique,paired,t_m_01_1.jpg,Travel,$${counterbalance_group},,sub-78
Desktop or Laptop,Windows 10,Chrome 138.0.0.0,1920x1080,1920x1080,Temporal Distance Task,cb_04,16.0,temp_dist_trial,dist_items,qkpkxw,2.0,response,63,555.6000000000058,2633.300000000003,2635.7000000029802,555.6000000000058,2633.300000000003,2635.7000000029802,1.0,2080.1000000029744,0.0,,Slider,Slider,4.0,object-56,temp_dist_trial,16.0,t_m_01_1,travel_Miami,sandals,4.0,unique,paired,t_m_01_1.jpg,Travel,$${counterbalance_group},,sub-78
Desktop or Laptop,Windows 10,Chrome 138.0.0.0,1920x1080,1920x1080,Temporal Distance Task,cb_04,17.0,temp_dist_trial,num_items,zn7si1,1.0,response,1_ITEM,2691.400000002977,2689.0,2691.400000002977,2691.400000002977,2689.0,2691.400000002977,1.0,0.0,0.0,,Click Response,1_count,3.0,object-46,temp_dist_trial,17.0,t_s_22_1,travel_shared,belt,4.0,competing,paired,t_s_22_1.jpg,Travel,$${counterbalance_group},,sub-78
Desktop or Laptop,Windows 10,Chrome 138.0.0.0,1920x1080,1920x1080,Temporal Distance Task,cb_04,18.0,temp_dist_trial,num_items,zn7si1,1.0,response,1_ITEM,1028.5000000029831,1027.8000000000031,1028.5000000029831,1028.5000000029831,1027.8000000000031,1028.5000000029831,1.0,0.0,0.0,,Click Response,1_count,3.0,object-46,temp_dist_trial,18.0,t_s_24_1,travel_shared,ear plugs,4.0,competing,single,t_s_24_1.jpg,Travel,$${counterbalance_group},,sub-78
Desktop or Laptop,Windows 10,Chrome 138.0.0.0,1920x1080,1920x1080,Temporal Distance Task,cb_04,19.0,temp_dist_trial,num_items,zn7si1,1.0,response,1_ITEM,1910.5,1908.3999999999944,1910.5,1910.5,1908.3999999999944,1910.5,1.0,0.0,0.0,,Click Response,1_count,3.0,object-46,temp_dist_trial,19.0,t_i_08_1,travel_Iceland,thick socks,4.0,unique,single,t_i_08_1.jpg,Travel,$${counterbalance_group},,sub-78
Desktop or Laptop,Windows 10,Chrome 138.0.0.0,1920x1080,1920x1080,Temporal Distance Task,cb_04,20.0,temp_dist_trial,num_items,zn7si1,1.0,response,1_ITEM,1061.1000000000058,1058.3000000000031,1061.1000000000058,1061.1000000000058,1058.3000000000031,1061.1000000000058,1.0,0.0,0.0,,Click Response,1_count,3.0,object-46,temp_dist_trial,20.0,t_i_03_1,travel_Iceland,winter jacket,4.0,unique,paired,t_i_03_1.jpg,Travel,$${counterbalance_group},,sub-78
Desktop or Laptop,Windows 10,Chrome 138.0.0.0,1920x1080,1920x1080,Temporal Distance Task,cb_04,21.0,temp_dist_trial,num_items,zn7si1,1.0,response,2_ITEM,810.8000000000029,808.3000000000029,810.8000000000029,810.8000000000029,808.3000000000029,810.8000000000029,1.0,0.0,0.0,,Click Response,2_count,5.0,object-49,temp_dist_trial,21.0,t_s_09_1,travel_shared,wallet,4.0,competing,paired,t_s_09_1.jpg,Travel,$${counterbalance_group},,sub-78
Desktop or Laptop,Windows 10,Chrome 138.0.0.0,1920x1080,1920x1080,Temporal Distance Task,cb_04,21.0,temp_dist_trial,dist_items,qkpkxw,2.0,info,,2.4000000022351737,0.0,2.4000000022351737,2.4000000022351737,0.0,2.4000000022351737,1.0,0.0,0.0,,Slider,Slider,4.0,object-56,temp_dist_trial,21.0,t_s_09_1,travel_shared,wallet,4.0,competing,paired,t_s_09_1.jpg,Travel,$${counterbalance_group},,sub-78
Desktop or Laptop,Windows 10,Chrome 138.0.0.0,1920x1080,1920x1080,Temporal Distance Task,cb_04,21.0,temp_dist_trial,dist_items,qkpkxw,2.0,continue,,1475.7000000029807,1475.0,1475.7000000029807,1475.7000000029807,1475.0,1475.7000000029807,1.0,0.0,0.0,,Click To Continue,Next button,7.0,object-60,temp_dist_trial,21.0,t_s_09_1,travel_shared,wallet,4.0,competing,paired,t_s_09_1.jpg,Travel,$${counterbalance_group},,sub-78
Desktop or Laptop,Windows 10,Chrome 138.0.0.0,1920x1080,1920x1080,Temporal Distance Task,cb_04,21.0,temp_dist_trial,dist_items,qkpkxw,2.0,response,87,491.6999999999971,1475.0,1475.9000000022352,491.6999999999971,1475.0,1475.9000000022352,1.0,984.200000002238,0.0,,Slider,Slider,4.0,object-56,temp_dist_trial,21.0,t_s_09_1,travel_shared,wallet,4.0,competing,paired,t_s_09_1.jpg,Travel,$${counterbalance_group},,sub-78
Desktop or Laptop,Windows 10,Chrome 138.0.0.0,1920x1080,1920x1080,Temporal Distance Task,cb_04,22.0,temp_dist_trial,num_items,zn7si1,1.0,response,1_ITEM,932.5,930.5,932.5,932.5,930.5,932.5,1.0,0.0,0.0,,Click Response,1_count,3.0,object-46,temp_dist_trial,22.0,t_s_20_1,travel_shared,travel pill case,4.0,competing,paired,t_s_20_1.jpg,Travel,$${counterbalance_group},,sub-78
Desktop or Laptop,Windows 10,Chrome 138.0.0.0,1920x1080,1920x1080,Temporal Distance Task,cb_04,23.0,temp_dist_trial,num_items,zn7si1,1.0,response,2_ITEM,1573.9000000022352,1572.1999999999966,1573.9000000022352,1573.9000000022352,1572.1999999999966,1573.9000000022352,1.0,0.0,0.0,,Click Response,2_count,5.0,object-49,temp_dist_trial,23.0,t_s_08_1,travel_shared,hand lotion,4.0,competing,paired,t_s_08_1.jpg,Travel,$${counterbalance_group},,sub-78
Desktop or Laptop,Windows 10,Chrome 138.0.0.0,1920x1080,1920x1080,Temporal Distance Task,cb_04,23.0,temp_dist_trial,dist_items,qkpkxw,2.0,info,,2.4000000014930265,0.0,2.4000000014930265,2.4000000014930265,0.0,2.4000000014930265,1.0,0.0,0.0,,Slider,Slider,4.0,object-56,temp_dist_trial,23.0,t_s_08_1,travel_shared,hand lotion,4.0,competing,paired,t_s_08_1.jpg,Travel,$${counterbalance_group},,sub-78
Desktop or Laptop,Windows 10,Chrome 138.0.0.0,1920x1080,1920x1080,Temporal Distance Task,cb_04,23.0,temp_dist_trial,dist_items,qkpkxw,2.0,continue,,1482.0000000029834,1480.5,1482.0000000029834,1482.0000000029834,1480.5,1482.0000000029834,1.0,0.0,0.0,,Click To Continue,Next button,7.0,object-60,temp_dist_trial,23.0,t_s_08_1,travel_shared,hand lotion,4.0,competing,paired,t_s_08_1.jpg,Travel,$${counterbalance_group},,sub-78
Desktop or Laptop,Windows 10,Chrome 138.0.0.0,1920x1080,1920x1080,Temporal Distance Task,cb_04,23.0,temp_dist_trial,dist_items,qkpkxw,2.0,response,64,483.40000000000884,1480.5,1482.2000000022379,483.40000000000884,1480.5,1482.2000000022379,1.0,998.8000000022294,0.0,,Slider,Slider,4.0,object-56,temp_dist_trial,23.0,t_s_08_1,travel_shared,hand lotion,4.0,competing,paired,t_s_08_1.jpg,Travel,$${counterbalance_group},,sub-78
Desktop or Laptop,Windows 10,Chrome 138.0.0.0,1920x1080,1920x1080,Temporal Distance Task,cb_04,24.0,temp_dist_trial,num_items,zn7si1,1.0,response,1_ITEM,1776.3000000000034,1775.1000000000058,1776.3000000000034,1776.3000000000034,1775.1000000000058,1776.3000000000034,1.0,0.0,0.0,,Click Response,1_count,3.0,object-46,temp_dist_trial,24.0,t_m_18_1,travel_Miami,waterproof tote,4.0,unique,single,t_m_18_1.jpg,Travel,$${counterbalance_group},,sub-78
Desktop or Laptop,Windows 10,Chrome 138.0.0.0,1920x1080,1920x1080,Temporal Distance Task,cb_04,25.0,temp_dist_trial,num_items,zn7si1,1.0,response,1_ITEM,806.400000001493,805.6000000000058,806.400000001493,806.400000001493,805.6000000000058,806.400000001493,1.0,0.0,0.0,,Click Response,1_count,3.0,object-46,temp_dist_trial,25.0,t_s_05_1,travel_shared,neck pillow,4.0,competing,paired,t_s_05_1.jpg,Travel,$${counterbalance_group},,sub-78
Desktop or Laptop,Windows 10,Chrome 138.0.0.0,1920x1080,1920x1080,Temporal Distance Task,cb_04,26.0,temp_dist_trial,num_items,zn7si1,1.0,response,1_ITEM,1261.800000002986,1261.1000000000058,1261.800000002986,1261.800000002986,1261.1000000000058,1261.800000002986,1.0,0.0,0.0,,Click Response,1_count,3.0,object-46,temp_dist_trial,26.0,t_s_23_1,travel_shared,ball cap,4.0,competing,single,t_s_23_1.jpg,Travel,$${counterbalance_group},,sub-78
Desktop or Laptop,Windows 10,Chrome 138.0.0.0,1920x1080,1920x1080,Temporal Distance Task,cb_04,27.0,temp_dist_trial,num_items,zn7si1,1.0,response,1_ITEM,1112.7000000029802,1111.0,1112.7000000029802,1112.7000000029802,1111.0,1112.7000000029802,1.0,0.0,0.0,,Click Response,1_count,3.0,object-46,temp_dist_trial,27.0,t_i_20_1,travel_Iceland,lantern,4.0,unique,single,t_i_20_1.jpg,Travel,$${counterbalance_group},,sub-78
Desktop or Laptop,Windows 10,Chrome 138.0.0.0,1920x1080,1920x1080,Temporal Distance Task,cb_04,28.0,temp_dist_trial,num_items,zn7si1,1.0,response,2_ITEM,1083.3000000022294,1080.5,1083.3000000022294,1083.3000000022294,1080.5,1083.3000000022294,1.0,0.0,0.0,,Click Response,2_count,5.0,object-49,temp_dist_trial,28.0,t_i_02_1,travel_Iceland,scarf,4.0,unique,paired,t_i_02_1.jpg,Travel,$${counterbalance_group},,sub-78
Desktop or Laptop,Windows 10,Chrome 138.0.0.0,1920x1080,1920x1080,Temporal Distance Task,cb_04,28.0,temp_dist_trial,dist_items,qkpkxw,2.0,info,,2.0000000014842962,0.0,2.0000000014842962,2.0000000014842962,0.0,2.0000000014842962,1.0,0.0,0.0,,Slider,Slider,4.0,object-56,temp_dist_trial,28.0,t_i_02_1,travel_Iceland,scarf,4.0,unique,paired,t_i_02_1.jpg,Travel,$${counterbalance_group},,sub-78
Desktop or Laptop,Windows 10,Chrome 138.0.0.0,1920x1080,1920x1080,Temporal Distance Task,cb_04,28.0,temp_dist_trial,dist_items,qkpkxw,2.0,continue,,1198.8000000022294,1197.1999999999969,1198.8000000022294,1198.8000000022294,1197.1999999999969,1198.8000000022294,1.0,0.0,0.0,,Click To Continue,Next button,7.0,object-60,temp_dist_trial,28.0,t_i_02_1,travel_Iceland,scarf,4.0,unique,paired,t_i_02_1.jpg,Travel,$${counterbalance_group},,sub-78
Desktop or Laptop,Windows 10,Chrome 138.0.0.0,1920x1080,1920x1080,Temporal Distance Task,cb_04,28.0,temp_dist_trial,dist_items,qkpkxw,2.0,response,82,386.09999999999116,1197.1999999999969,1199.0000000014845,386.09999999999116,1197.1999999999969,1199.0000000014845,1.0,812.900000001493,0.0,,Slider,Slider,4.0,object-56,temp_dist_trial,28.0,t_i_02_1,travel_Iceland,scarf,4.0,unique,paired,t_i_02_1.jpg,Travel,$${counterbalance_group},,sub-78
Desktop or Laptop,Windows 10,Chrome 138.0.0.0,1920x1080,1920x1080,Temporal Distance Task,cb_04,29.0,temp_dist_trial,num_items,zn7si1,1.0,response,2_ITEM,2585.900000002977,2583.300000000003,2585.900000002977,2585.900000002977,2583.300000000003,2585.900000002977,1.0,0.0,0.0,,Click Response,2_count,5.0,object-49,temp_dist_trial,29.0,t_s_10_1,travel_shared,luggage lock,4.0,competing,single,t_s_10_1.jpg,Travel,$${counterbalance_group},,sub-78
Desktop or Laptop,Windows 10,Chrome 138.0.0.0,1920x1080,1920x1080,Temporal Distance Task,cb_04,29.0,temp_dist_trial,dist_items,qkpkxw,2.0,info,,2.3999999999941792,0.0,2.3999999999941792,2.3999999999941792,0.0,2.3999999999941792,1.0,0.0,0.0,,Slider,Slider,4.0,object-56,temp_dist_trial,29.0,t_s_10_1,travel_shared,luggage lock,4.0,competing,single,t_s_10_1.jpg,Travel,$${counterbalance_group},,sub-78
Desktop or Laptop,Windows 10,Chrome 138.0.0.0,1920x1080,1920x1080,Temporal Distance Task,cb_04,29.0,temp_dist_trial,dist_items,qkpkxw,2.0,continue,,2351.2000000007392,2350.0,2351.2000000007392,2351.2000000007392,2350.0,2351.2000000007392,1.0,0.0,0.0,,Click To Continue,Next button,7.0,object-60,temp_dist_trial,29.0,t_s_10_1,travel_shared,luggage lock,4.0,competing,single,t_s_10_1.jpg,Travel,$${counterbalance_group},,sub-78
Desktop or Laptop,Windows 10,Chrome 138.0.0.0,1920x1080,1920x1080,Temporal Distance Task,cb_04,29.0,temp_dist_trial,dist_items,qkpkxw,2.0,response,85,822.2999999999884,2350.0,2352.800000000003,822.2999999999884,2350.0,2352.800000000003,1.0,1530.5000000000146,0.0,,Slider,Slider,4.0,object-56,temp_dist_trial,29.0,t_s_10_1,travel_shared,luggage lock,4.0,competing,single,t_s_10_1.jpg,Travel,$${counterbalance_group},,sub-78
Desktop or Laptop,Windows 10,Chrome 138.0.0.0,1920x1080,1920x1080,Temporal Distance Task,cb_04,30.0,temp_dist_trial,num_items,zn7si1,1.0,response,1_ITEM,1212.2000000007392,1211.0999999999913,1212.2000000007392,1212.2000000007392,1211.0999999999913,1212.2000000007392,1.0,0.0,0.0,,Click Response,1_count,3.0,object-46,temp_dist_trial,30.0,t_m_10_1,travel_Miami,tanktop,4.0,unique,paired,t_m_10_1.jpg,Travel,$${counterbalance_group},,sub-78
Desktop or Laptop,Windows 10,Chrome 138.0.0.0,1920x1080,1920x1080,Temporal Distance Task,cb_04,31.0,temp_dist_trial,num_items,zn7si1,1.0,response,2_ITEM,1281.9000000029773,1280.3999999999942,1281.9000000029773,1281.9000000029773,1280.3999999999942,1281.9000000029773,1.0,0.0,0.0,,Click Response,2_count,5.0,object-49,temp_dist_trial,31.0,t_i_13_1,travel_Iceland,sleeping bag,4.0,unique,paired,t_i_13_1.jpg,Travel,$${counterbalance_group},,sub-78
Desktop or Laptop,Windows 10,Chrome 138.0.0.0,1920x1080,1920x1080,Temporal Distance Task,cb_04,31.0,temp_dist_trial,dist_items,qkpkxw,2.0,info,,1.7000000022380846,0.0,1.7000000022380846,1.7000000022380846,0.0,1.7000000022380846,1.0,0.0,0.0,,Slider,Slider,4.0,object-56,temp_dist_trial,31.0,t_i_13_1,travel_Iceland,sleeping bag,4.0,unique,paired,t_i_13_1.jpg,Travel,$${counterbalance_group},,sub-78
Desktop or Laptop,Windows 10,Chrome 138.0.0.0,1920x1080,1920x1080,Temporal Distance Task,cb_04,31.0,temp_dist_trial,dist_items,qkpkxw,2.0,continue,,2136.800000000003,2136.1000000000063,2136.800000000003,2136.800000000003,2136.1000000000063,2136.800000000003,1.0,0.0,0.0,,Click To Continue,Next button,7.0,object-60,temp_dist_trial,31.0,t_i_13_1,travel_Iceland,sleeping bag,4.0,unique,paired,t_i_13_1.jpg,Travel,$${counterbalance_group},,sub-78
Desktop or Laptop,Windows 10,Chrome 138.0.0.0,1920x1080,1920x1080,Temporal Distance Task,cb_04,31.0,temp_dist_trial,dist_items,qkpkxw,2.0,response,25,1333.3000000000031,2136.1000000000063,2136.900000001493,1333.3000000000031,2136.1000000000063,2136.900000001493,1.0,803.6000000014903,0.0,,Slider,Slider,4.0,object-56,temp_dist_trial,31.0,t_i_13_1,travel_Iceland,sleeping bag,4.0,unique,paired,t_i_13_1.jpg,Travel,$${counterbalance_group},,sub-78
Desktop or Laptop,Windows 10,Chrome 138.0.0.0,1920x1080,1920x1080,Temporal Distance Task,cb_04,32.0,temp_dist_trial,num_items,zn7si1,1.0,response,1_ITEM,2594.2999999999884,2591.5999999999913,2594.2999999999884,2594.2999999999884,2591.5999999999913,2594.2999999999884,1.0,0.0,0.0,,Click Response,1_count,3.0,object-46,temp_dist_trial,32.0,t_i_10_1,travel_Iceland,trekking poles,4.0,unique,single,t_i_10_1.jpg,Travel,$${counterbalance_group},,sub-78
Desktop or Laptop,Windows 10,Chrome 138.0.0.0,1920x1080,1920x1080,Temporal Distance Task,cb_04,33.0,temp_dist_trial,num_items,zn7si1,1.0,response,1_ITEM,1585.9000000022352,1583.3000000000034,1585.9000000022352,1585.9000000022352,1583.3000000000034,1585.9000000022352,1.0,0.0,0.0,,Click Response,1_count,3.0,object-46,temp_dist_trial,33.0,t_i_17_1,travel_Iceland,binoculars,4.0,unique,paired,t_i_17_1.jpg,Travel,$${counterbalance_group},,sub-78
Desktop or Laptop,Windows 10,Chrome 138.0.0.0,1920x1080,1920x1080,Temporal Distance Task,cb_04,34.0,temp_dist_trial,num_items,zn7si1,1.0,response,2_ITEM,1188.700000002238,1186.1000000000058,1188.700000002238,1188.700000002238,1186.1000000000058,1188.700000002238,1.0,0.0,0.0,,Click Response,2_count,5.0,object-49,temp_dist_trial,34.0,t_s_18_1,travel_shared,first aid kit,4.0,competing,paired,t_s_18_1.jpg,Travel,$${counterbalance_group},,sub-78
Desktop or Laptop,Windows 10,Chrome 138.0.0.0,1920x1080,1920x1080,Temporal Distance Task,cb_04,34.0,temp_dist_trial,dist_items,qkpkxw,2.0,info,,2.0000000022409954,0.0,2.0000000022409954,2.0000000022409954,0.0,2.0000000022409954,1.0,0.0,0.0,,Slider,Slider,4.0,object-56,temp_dist_trial,34.0,t_s_18_1,travel_shared,first aid kit,4.0,competing,paired,t_s_18_1.jpg,Travel,$${counterbalance_group},,sub-78
Desktop or Laptop,Windows 10,Chrome 138.0.0.0,1920x1080,1920x1080,Temporal Distance Task,cb_04,34.0,temp_dist_trial,dist_items,qkpkxw,2.0,continue,,1637.6000000000058,1636.1000000000058,1637.6000000000058,1637.6000000000058,1636.1000000000058,1637.6000000000058,1.0,0.0,0.0,,Click To Continue,Next button,7.0,object-60,temp_dist_trial,34.0,t_s_18_1,travel_shared,first aid kit,4.0,competing,paired,t_s_18_1.jpg,Travel,$${counterbalance_group},,sub-78
Desktop or Laptop,Windows 10,Chrome 138.0.0.0,1920x1080,1920x1080,Temporal Distance Task,cb_04,34.0,temp_dist_trial,dist_items,qkpkxw,2.0,response,74,813.9000000000087,1636.1000000000058,1637.800000002986,813.9000000000087,1636.1000000000058,1637.800000002986,1.0,823.9000000029773,0.0,,Slider,Slider,4.0,object-56,temp_dist_trial,34.0,t_s_18_1,travel_shared,first aid kit,4.0,competing,paired,t_s_18_1.jpg,Travel,$${counterbalance_group},,sub-78
Desktop or Laptop,Windows 10,Chrome 138.0.0.0,1920x1080,1920x1080,Temporal Distance Task,cb_04,35.0,temp_dist_trial,num_items,zn7si1,1.0,response,2_ITEM,1126.6000000014901,1124.8999999999942,1126.6000000014901,1126.6000000014901,1124.8999999999942,1126.6000000014901,1.0,0.0,0.0,,Click Response,2_count,5.0,object-49,temp_dist_trial,35.0,t_s_06_1,travel_shared,luggage,4.0,competing,paired,t_s_06_1.jpg,Travel,$${counterbalance_group},,sub-78
Desktop or Laptop,Windows 10,Chrome 138.0.0.0,1920x1080,1920x1080,Temporal Distance Task,cb_04,35.0,temp_dist_trial,dist_items,qkpkxw,2.0,info,,1.9000000007508788,0.0,1.9000000007508788,1.9000000007508788,0.0,1.9000000007508788,1.0,0.0,0.0,,Slider,Slider,4.0,object-56,temp_dist_trial,35.0,t_s_06_1,travel_shared,luggage,4.0,competing,paired,t_s_06_1.jpg,Travel,$${counterbalance_group},,sub-78
Desktop or Laptop,Windows 10,Chrome 138.0.0.0,1920x1080,1920x1080,Temporal Distance Task,cb_04,35.0,temp_dist_trial,dist_items,qkpkxw,2.0,continue,,3366.6000000000067,3363.900000000009,3366.6000000000067,3366.6000000000067,3363.900000000009,3366.6000000000067,1.0,0.0,0.0,,Click To Continue,Next button,7.0,object-60,temp_dist_trial,35.0,t_s_06_1,travel_shared,luggage,4.0,competing,paired,t_s_06_1.jpg,Travel,$${counterbalance_group},,sub-78
Desktop or Laptop,Windows 10,Chrome 138.0.0.0,1920x1080,1920x1080,Temporal Distance Task,cb_04,35.0,temp_dist_trial,dist_items,qkpkxw,2.0,response,51,664.0,3363.900000000009,3366.6000000000067,664.0,3363.900000000009,3366.6000000000067,1.0,2702.6000000000063,0.0,,Slider,Slider,4.0,object-56,temp_dist_trial,35.0,t_s_06_1,travel_shared,luggage,4.0,competing,paired,t_s_06_1.jpg,Travel,$${counterbalance_group},,sub-78
Desktop or Laptop,Windows 10,Chrome 138.0.0.0,1920x1080,1920x1080,Temporal Distance Task,cb_04,36.0,temp_dist_trial,num_items,zn7si1,1.0,response,1_ITEM,1230.6999999999969,1227.8999999999942,1230.6999999999969,1230.6999999999969,1227.8999999999942,1230.6999999999969,1.0,0.0,0.0,,Click Response,1_count,3.0,object-46,temp_dist_trial,36.0,t_m_02_1,travel_Miami,t-shirt,4.0,unique,paired,t_m_02_1.jpg,Travel,$${counterbalance_group},,sub-78
Desktop or Laptop,Windows 10,Chrome 138.0.0.0,1920x1080,1920x1080,Temporal Distance Task,cb_04,37.0,temp_dist_trial,num_items,zn7si1,1.0,response,1_ITEM,953.8999999999942,952.6999999999972,953.8999999999942,953.8999999999942,952.6999999999972,953.8999999999942,1.0,0.0,0.0,,Click Response,1_count,3.0,object-46,temp_dist_trial,37.0,t_m_04_1,travel_Miami,UV jacket,4.0,unique,paired,t_m_04_1.jpg,Travel,$${counterbalance_group},,sub-78
Desktop or Laptop,Windows 10,Chrome 138.0.0.0,1920x1080,1920x1080,Temporal Distance Task,cb_04,38.0,temp_dist_trial,num_items,zn7si1,1.0,response,1_ITEM,2051.300000002986,2049.9000000000087,2051.300000002986,2051.300000002986,2049.9000000000087,2051.300000002986,1.0,0.0,0.0,,Click Response,1_count,3.0,object-46,temp_dist_trial,38.0,t_s_19_1,travel_shared,pajamas,4.0,competing,single,t_s_19_1.jpg,Travel,$${counterbalance_group},,sub-78
Desktop or Laptop,Windows 10,Chrome 138.0.0.0,1920x1080,1920x1080,Temporal Distance Task,cb_04,39.0,temp_dist_trial,num_items,zn7si1,1.0,response,2_ITEM,1089.9000000007507,1088.8000000000031,1089.9000000007507,1089.9000000007507,1088.8000000000031,1089.9000000007507,1.0,0.0,0.0,,Click Response,2_count,5.0,object-49,temp_dist_trial,39.0,t_s_02_1,travel_shared,water bottle,4.0,competing,paired,t_s_02_1.jpg,Travel,$${counterbalance_group},,sub-78
Desktop or Laptop,Windows 10,Chrome 138.0.0.0,1920x1080,1920x1080,Temporal Distance Task,cb_04,39.0,temp_dist_trial,dist_items,qkpkxw,2.0,info,,1.9000000014930265,0.0,1.9000000014930265,1.9000000014930265,0.0,1.9000000014930265,1.0,0.0,0.0,,Slider,Slider,4.0,object-56,temp_dist_trial,39.0,t_s_02_1,travel_shared,water bottle,4.0,competing,paired,t_s_02_1.jpg,Travel,$${counterbalance_group},,sub-78
Desktop or Laptop,Windows 10,Chrome 138.0.0.0,1920x1080,1920x1080,Temporal Distance Task,cb_04,39.0,temp_dist_trial,dist_items,qkpkxw,2.0,continue,,1533.8000000000034,1530.8000000000034,1533.8000000000034,1533.8000000000034,1530.8000000000034,1533.8000000000034,1.0,0.0,0.0,,Click To Continue,Next button,7.0,object-60,temp_dist_trial,39.0,t_s_02_1,travel_shared,water bottle,4.0,competing,paired,t_s_02_1.jpg,Travel,$${counterbalance_group},,sub-78
Desktop or Laptop,Windows 10,Chrome 138.0.0.0,1920x1080,1920x1080,Temporal Distance Task,cb_04,39.0,temp_dist_trial,dist_items,qkpkxw,2.0,response,86,422.3000000000029,1530.8000000000034,1533.8000000000034,422.3000000000029,1530.8000000000034,1533.8000000000034,1.0,1111.5,0.0,,Slider,Slider,4.0,object-56,temp_dist_trial,39.0,t_s_02_1,travel_shared,water bottle,4.0,competing,paired,t_s_02_1.jpg,Travel,$${counterbalance_group},,sub-78
Desktop or Laptop,Windows 10,Chrome 138.0.0.0,1920x1080,1920x1080,Temporal Distance Task,cb_04,40.0,temp_dist_trial,num_items,zn7si1,1.0,response,2_ITEM,760.8000000007451,758.1000000000058,760.8000000007451,760.8000000007451,758.1000000000058,760.8000000007451,1.0,0.0,0.0,,Click Response,2_count,5.0,object-49,temp_dist_trial,40.0,t_m_17_1,travel_Miami,water gun,4.0,unique,paired,t_m_17_1.jpg,Travel,$${counterbalance_group},,sub-78
Desktop or Laptop,Windows 10,Chrome 138.0.0.0,1920x1080,1920x1080,Temporal Distance Task,cb_04,40.0,temp_dist_trial,dist_items,qkpkxw,2.0,info,,1.8000000022293534,0.0,1.8000000022293534,1.8000000022293534,0.0,1.8000000022293534,1.0,0.0,0.0,,Slider,Slider,4.0,object-56,temp_dist_trial,40.0,t_m_17_1,travel_Miami,water gun,4.0,unique,paired,t_m_17_1.jpg,Travel,$${counterbalance_group},,sub-78
Desktop or Laptop,Windows 10,Chrome 138.0.0.0,1920x1080,1920x1080,Temporal Distance Task,cb_04,40.0,temp_dist_trial,dist_items,qkpkxw,2.0,continue,,1693.8999999999942,1691.6999999999966,1693.8999999999942,1693.8999999999942,1691.6999999999966,1693.8999999999942,1.0,0.0,0.0,,Click To Continue,Next button,7.0,object-60,temp_dist_trial,40.0,t_m_17_1,travel_Miami,water gun,4.0,unique,paired,t_m_17_1.jpg,Travel,$${counterbalance_group},,sub-78
Desktop or Laptop,Windows 10,Chrome 138.0.0.0,1920x1080,1920x1080,Temporal Distance Task,cb_04,40.0,temp_dist_trial,dist_items,qkpkxw,2.0,response,78,552.7999999999884,1691.6999999999966,1694.2000000007392,552.7999999999884,1691.6999999999966,1694.2000000007392,1.0,1141.4000000007507,0.0,,Slider,Slider,4.0,object-56,temp_dist_trial,40.0,t_m_17_1,travel_Miami,water gun,4.0,unique,paired,t_m_17_1.jpg,Travel,$${counterbalance_group},,sub-78
Desktop or Laptop,Windows 10,Chrome 138.0.0.0,1920x1080,1920x1080,Temporal Distance Task,cb_04,41.0,temp_dist_trial,num_items,zn7si1,1.0,response,1_ITEM,910.8000000014873,908.3000000000028,910.8000000014873,910.8000000014873,908.3000000000028,910.8000000014873,1.0,0.0,0.0,,Click Response,1_count,3.0,object-46,temp_dist_trial,41.0,t_s_01_1,travel_shared,fanny pack,4.0,competing,single,t_s_01_1.jpg,Travel,$${counterbalance_group},,sub-78
Desktop or Laptop,Windows 10,Chrome 138.0.0.0,1920x1080,1920x1080,Temporal Distance Task,cb_04,42.0,temp_dist_trial,num_items,zn7si1,1.0,response,1_ITEM,1272.1999999999969,1269.3999999999942,1272.1999999999969,1272.1999999999969,1269.3999999999942,1272.1999999999969,1.0,0.0,0.0,,Click Response,1_count,3.0,object-46,temp_dist_trial,42.0,t_m_14_1,travel_Miami,swim goggles,4.0,unique,paired,t_m_14_1.jpg,Travel,$${counterbalance_group},,sub-78
Desktop or Laptop,Windows 10,Chrome 138.0.0.0,1920x1080,1920x1080,Temporal Distance Task,cb_04,43.0,temp_dist_trial,num_items,zn7si1,1.0,response,2_ITEM,766.5999999999768,763.8999999999942,766.5999999999768,766.5999999999768,763.8999999999942,766.5999999999768,1.0,0.0,0.0,,Click Response,2_count,5.0,object-49,temp_dist_trial,43.0,t_s_17_1,travel_shared,toothbrush,4.0,competing,paired,t_s_17_1.jpg,Travel,$${counterbalance_group},,sub-78
Desktop or Laptop,Windows 10,Chrome 138.0.0.0,1920x1080,1920x1080,Temporal Distance Task,cb_04,43.0,temp_dist_trial,dist_items,qkpkxw,2.0,info,,1.9000000007508788,0.0,1.9000000007508788,1.9000000007508788,0.0,1.9000000007508788,1.0,0.0,0.0,,Slider,Slider,4.0,object-56,temp_dist_trial,43.0,t_s_17_1,travel_shared,toothbrush,4.0,competing,paired,t_s_17_1.jpg,Travel,$${counterbalance_group},,sub-78
Desktop or Laptop,Windows 10,Chrome 138.0.0.0,1920x1080,1920x1080,Temporal Distance Task,cb_04,43.0,temp_dist_trial,dist_items,qkpkxw,2.0,continue,,1241.6999999999825,1238.8999999999942,1241.6999999999825,1241.6999999999825,1238.8999999999942,1241.6999999999825,1.0,0.0,0.0,,Click To Continue,Next button,7.0,object-60,temp_dist_trial,43.0,t_s_17_1,travel_shared,toothbrush,4.0,competing,paired,t_s_17_1.jpg,Travel,$${counterbalance_group},,sub-78
Desktop or Laptop,Windows 10,Chrome 138.0.0.0,1920x1080,1920x1080,Temporal Distance Task,cb_04,43.0,temp_dist_trial,dist_items,qkpkxw,2.0,response,67,530.6000000000058,1238.8999999999942,1241.6999999999825,530.6000000000058,1238.8999999999942,1241.6999999999825,1.0,711.0999999999768,0.0,,Slider,Slider,4.0,object-56,temp_dist_trial,43.0,t_s_17_1,travel_shared,toothbrush,4.0,competing,paired,t_s_17_1.jpg,Travel,$${counterbalance_group},,sub-78
Desktop or Laptop,Windows 10,Chrome 138.0.0.0,1920x1080,1920x1080,Temporal Distance Task,cb_04,44.0,temp_dist_trial,num_items,zn7si1,1.0,response,1_ITEM,1365.2000000000114,1363.9000000000233,1365.2000000000114,1365.2000000000114,1363.9000000000233,1365.2000000000114,1.0,0.0,0.0,,Click Response,1_count,3.0,object-46,temp_dist_trial,44.0,t_m_20_1,travel_Miami,inflatable beachball,4.0,unique,paired,t_m_20_1.jpg,Travel,$${counterbalance_group},,sub-78
Desktop or Laptop,Windows 10,Chrome 138.0.0.0,1920x1080,1920x1080,Temporal Distance Task,cb_04,45.0,temp_dist_trial,num_items,zn7si1,1.0,response,1_ITEM,918.2999999999884,916.5999999999768,918.2999999999884,918.2999999999884,916.5999999999768,918.2999999999884,1.0,0.0,0.0,,Click Response,1_count,3.0,object-46,temp_dist_trial,45.0,t_s_14_1,travel_shared,hand sanitizer,4.0,competing,paired,t_s_14_1.jpg,Travel,$${counterbalance_group},,sub-78
Desktop or Laptop,Windows 10,Chrome 138.0.0.0,1920x1080,1920x1080,Temporal Distance Task,cb_04,46.0,temp_dist_trial,num_items,zn7si1,1.0,response,1_ITEM,1151.700000001496,1149.8999999999942,1151.700000001496,1151.700000001496,1149.8999999999942,1151.700000001496,1.0,0.0,0.0,,Click Response,1_count,3.0,object-46,temp_dist_trial,46.0,t_m_15_1,travel_Miami,shorts,4.0,unique,single,t_m_15_1.jpg,Travel,$${counterbalance_group},,sub-78
Desktop or Laptop,Windows 10,Chrome 138.0.0.0,1920x1080,1920x1080,Temporal Distance Task,cb_04,47.0,temp_dist_trial,num_items,zn7si1,1.0,response,2_ITEM,1097.1000000007334,1094.5,1097.1000000007334,1097.1000000007334,1094.5,1097.1000000007334,1.0,0.0,0.0,,Click Response,2_count,5.0,object-49,temp_dist_trial,47.0,t_i_09_1,travel_Iceland,ear muffs,4.0,unique,paired,t_i_09_1.jpg,Travel,$${counterbalance_group},,sub-78
Desktop or Laptop,Windows 10,Chrome 138.0.0.0,1920x1080,1920x1080,Temporal Distance Task,cb_04,47.0,temp_dist_trial,dist_items,qkpkxw,2.0,info,,1.900000002991873,0.0,1.900000002991873,1.900000002991873,0.0,1.900000002991873,1.0,0.0,0.0,,Slider,Slider,4.0,object-56,temp_dist_trial,47.0,t_i_09_1,travel_Iceland,ear muffs,4.0,unique,paired,t_i_09_1.jpg,Travel,$${counterbalance_group},,sub-78
Desktop or Laptop,Windows 10,Chrome 138.0.0.0,1920x1080,1920x1080,Temporal Distance Task,cb_04,47.0,temp_dist_trial,dist_items,qkpkxw,2.0,continue,,1177.7000000000407,1174.9000000000233,1177.7000000000407,1177.7000000000407,1174.9000000000233,1177.7000000000407,1.0,0.0,0.0,,Click To Continue,Next button,7.0,object-60,temp_dist_trial,47.0,t_i_09_1,travel_Iceland,ear muffs,4.0,unique,paired,t_i_09_1.jpg,Travel,$${counterbalance_group},,sub-78
Desktop or Laptop,Windows 10,Chrome 138.0.0.0,1920x1080,1920x1080,Temporal Distance Task,cb_04,47.0,temp_dist_trial,dist_items,qkpkxw,2.0,response,39,519.3000000000175,1174.9000000000233,1177.7000000000407,519.3000000000175,1174.9000000000233,1177.7000000000407,1.0,658.4000000000233,0.0,,Slider,Slider,4.0,object-56,temp_dist_trial,47.0,t_i_09_1,travel_Iceland,ear muffs,4.0,unique,paired,t_i_09_1.jpg,Travel,$${counterbalance_group},,sub-78
Desktop or Laptop,Windows 10,Chrome 138.0.0.0,1920x1080,1920x1080,Temporal Distance Task,cb_04,48.0,temp_dist_trial,num_items,zn7si1,1.0,response,2_ITEM,1367.5000000029684,1366.6999999999825,1367.5000000029684,1367.5000000029684,1366.6999999999825,1367.5000000029684,1.0,0.0,0.0,,Click Response,2_count,5.0,object-49,temp_dist_trial,48.0,t_i_15_1,travel_Iceland,compass,4.0,unique,paired,t_i_15_1.jpg,Travel,$${counterbalance_group},,sub-78
Desktop or Laptop,Windows 10,Chrome 138.0.0.0,1920x1080,1920x1080,Temporal Distance Task,cb_04,48.0,temp_dist_trial,dist_items,qkpkxw,2.0,info,,1.9000000007508788,0.0,1.9000000007508788,1.9000000007508788,0.0,1.9000000007508788,1.0,0.0,0.0,,Slider,Slider,4.0,object-56,temp_dist_trial,48.0,t_i_15_1,travel_Iceland,compass,4.0,unique,paired,t_i_15_1.jpg,Travel,$${counterbalance_group},,sub-78
Desktop or Laptop,Windows 10,Chrome 138.0.0.0,1920x1080,1920x1080,Temporal Distance Task,cb_04,48.0,temp_dist_trial,dist_items,qkpkxw,2.0,continue,,1273.800000002986,1272.2000000000114,1273.800000002986,1273.800000002986,1272.2000000000114,1273.800000002986,1.0,0.0,0.0,,Click To Continue,Next button,7.0,object-60,temp_dist_trial,48.0,t_i_15_1,travel_Iceland,compass,4.0,unique,paired,t_i_15_1.jpg,Travel,$${counterbalance_group},,sub-78
Desktop or Laptop,Windows 10,Chrome 138.0.0.0,1920x1080,1920x1080,Temporal Distance Task,cb_04,48.0,temp_dist_trial,dist_items,qkpkxw,2.0,response,73,577.7000000000116,1272.2000000000114,1274.1000000000058,577.7000000000116,1272.2000000000114,1274.1000000000058,1.0,696.3999999999942,0.0,,Slider,Slider,4.0,object-56,temp_dist_trial,48.0,t_i_15_1,travel_Iceland,compass,4.0,unique,paired,t_i_15_1.jpg,Travel,$${counterbalance_group},,sub-78
Desktop or Laptop,Windows 10,Chrome 138.0.0.0,1920x1080,1920x1080,Temporal Distance Task,cb_04,2.0,temp_eventStart,Screen 1,dgtyxe,1.0,continue,,1276.5000000014845,1274.8999999999942,1276.5000000014845,1276.5000000014845,1274.8999999999942,1276.5000000014845,1.0,0.0,0.0,,Click To Continue,Next Button,3.0,object-43,temp_eventStart,,,Student,,,,,,,$${counterbalance_group},,sub-78
Desktop or Laptop,Windows 10,Chrome 138.0.0.0,1920x1080,1920x1080,Temporal Distance Task,cb_04,49.0,temp_dist_trial,num_items,zn7si1,1.0,response,1_ITEM,987.3000000007453,986.2000000000116,987.3000000007453,987.3000000007453,986.2000000000116,987.3000000007453,1.0,0.0,0.0,,Click Response,1_count,3.0,object-46,temp_dist_trial,1.0,s_a_08_1,student_art,sewing machine,4.0,unique,paired,s_a_08_1.jpg,Student,$${counterbalance_group},,sub-78
Desktop or Laptop,Windows 10,Chrome 138.0.0.0,1920x1080,1920x1080,Temporal Distance Task,cb_04,50.0,temp_dist_trial,num_items,zn7si1,1.0,response,2_ITEM,1443.1000000007336,1441.5999999999767,1443.1000000007336,1443.1000000007336,1441.5999999999767,1443.1000000007336,1.0,0.0,0.0,,Click Response,2_count,5.0,object-49,temp_dist_trial,2.0,s_sh_10_1,student_shared,scissors,4.0,competing,paired,s_sh_10_1.jpg,Student,$${counterbalance_group},,sub-78
Desktop or Laptop,Windows 10,Chrome 138.0.0.0,1920x1080,1920x1080,Temporal Distance Task,cb_04,50.0,temp_dist_trial,dist_items,qkpkxw,2.0,info,,1.7000000000116415,0.0,1.7000000000116415,1.7000000000116415,0.0,1.7000000000116415,1.0,0.0,0.0,,Slider,Slider,4.0,object-56,temp_dist_trial,2.0,s_sh_10_1,student_shared,scissors,4.0,competing,paired,s_sh_10_1.jpg,Student,$${counterbalance_group},,sub-78
Desktop or Laptop,Windows 10,Chrome 138.0.0.0,1920x1080,1920x1080,Temporal Distance Task,cb_04,50.0,temp_dist_trial,dist_items,qkpkxw,2.0,continue,,2043.6000000022468,2041.7000000000119,2043.6000000022468,2043.6000000022468,2041.7000000000119,2043.6000000022468,1.0,0.0,0.0,,Click To Continue,Next button,7.0,object-60,temp_dist_trial,2.0,s_sh_10_1,student_shared,scissors,4.0,competing,paired,s_sh_10_1.jpg,Student,$${counterbalance_group},,sub-78
Desktop or Laptop,Windows 10,Chrome 138.0.0.0,1920x1080,1920x1080,Temporal Distance Task,cb_04,50.0,temp_dist_trial,dist_items,qkpkxw,2.0,response,75,1322.2000000000114,2041.7000000000119,2043.800000001501,1322.2000000000114,2041.7000000000119,2043.800000001501,1.0,721.6000000014903,0.0,,Slider,Slider,4.0,object-56,temp_dist_trial,2.0,s_sh_10_1,student_shared,scissors,4.0,competing,paired,s_sh_10_1.jpg,Student,$${counterbalance_group},,sub-78
Desktop or Laptop,Windows 10,Chrome 138.0.0.0,1920x1080,1920x1080,Temporal Distance Task,cb_04,51.0,temp_dist_trial,num_items,zn7si1,1.0,response,1_ITEM,1001.0,1000.0,1001.0,1001.0,1000.0,1001.0,1.0,0.0,0.0,,Click Response,1_count,3.0,object-46,temp_dist_trial,3.0,s_a_16_1,student_art,piano,4.0,unique,single,s_a_16_1.jpg,Student,$${counterbalance_group},,sub-78
Desktop or Laptop,Windows 10,Chrome 138.0.0.0,1920x1080,1920x1080,Temporal Distance Task,cb_04,52.0,temp_dist_trial,num_items,zn7si1,1.0,response,1_ITEM,909.0,908.2999999999884,909.0,909.0,908.2999999999884,909.0,1.0,0.0,0.0,,Click Response,1_count,3.0,object-46,temp_dist_trial,4.0,s_a_02_1,student_art,canvas,4.0,unique,single,s_a_02_1.jpg,Student,$${counterbalance_group},,sub-78
Desktop or Laptop,Windows 10,Chrome 138.0.0.0,1920x1080,1920x1080,Temporal Distance Task,cb_04,53.0,temp_dist_trial,num_items,zn7si1,1.0,response,1_ITEM,921.4000000022353,919.2000000000116,921.4000000022353,921.4000000022353,919.2000000000116,921.4000000022353,1.0,0.0,0.0,,Click Response,1_count,3.0,object-46,temp_dist_trial,5.0,s_s_01_1,student_stem,microscope,4.0,unique,single,s_s_01_1.jpg,Student,$${counterbalance_group},,sub-78
Desktop or Laptop,Windows 10,Chrome 138.0.0.0,1920x1080,1920x1080,Temporal Distance Task,cb_04,54.0,temp_dist_trial,num_items,zn7si1,1.0,response,2_ITEM,1139.2000000022235,1138.8999999999942,1139.2000000022235,1139.2000000022235,1138.8999999999942,1139.2000000022235,1.0,0.0,0.0,,Click Response,2_count,5.0,object-49,temp_dist_trial,6.0,s_sh_19_1,student_shared,portable plastic drawer,4.0,competing,paired,s_sh_19_1.jpg,Student,$${counterbalance_group},,sub-78
Desktop or Laptop,Windows 10,Chrome 138.0.0.0,1920x1080,1920x1080,Temporal Distance Task,cb_04,54.0,temp_dist_trial,dist_items,qkpkxw,2.0,info,,1.8999999999941792,0.0,1.8999999999941792,1.8999999999941792,0.0,1.8999999999941792,1.0,0.0,0.0,,Slider,Slider,4.0,object-56,temp_dist_trial,6.0,s_sh_19_1,student_shared,portable plastic drawer,4.0,competing,paired,s_sh_19_1.jpg,Student,$${counterbalance_group},,sub-78
Desktop or Laptop,Windows 10,Chrome 138.0.0.0,1920x1080,1920x1080,Temporal Distance Task,cb_04,54.0,temp_dist_trial,dist_items,qkpkxw,2.0,continue,,1497.1999999999825,1494.3999999999942,1497.1999999999825,1497.1999999999825,1494.3999999999942,1497.1999999999825,1.0,0.0,0.0,,Click To Continue,Next button,7.0,object-60,temp_dist_trial,6.0,s_sh_19_1,student_shared,portable plastic drawer,4.0,competing,paired,s_sh_19_1.jpg,Student,$${counterbalance_group},,sub-78
Desktop or Laptop,Windows 10,Chrome 138.0.0.0,1920x1080,1920x1080,Temporal Distance Task,cb_04,54.0,temp_dist_trial,dist_items,qkpkxw,2.0,response,83,591.6999999999825,1494.3999999999942,1497.1999999999825,591.6999999999825,1494.3999999999942,1497.1999999999825,1.0,905.5,0.0,,Slider,Slider,4.0,object-56,temp_dist_trial,6.0,s_sh_19_1,student_shared,portable plastic drawer,4.0,competing,paired,s_sh_19_1.jpg,Student,$${counterbalance_group},,sub-78
Desktop or Laptop,Windows 10,Chrome 138.0.0.0,1920x1080,1920x1080,Temporal Distance Task,cb_04,55.0,temp_dist_trial,num_items,zn7si1,1.0,response,1_ITEM,1004.9000000022353,1002.8999999999942,1004.9000000022353,1004.9000000022353,1002.8999999999942,1004.9000000022353,1.0,0.0,0.0,,Click Response,1_count,3.0,object-46,temp_dist_trial,7.0,s_sh_15_1,student_shared,usb drive,4.0,competing,paired,s_sh_15_1.jpg,Student,$${counterbalance_group},,sub-78
Desktop or Laptop,Windows 10,Chrome 138.0.0.0,1920x1080,1920x1080,Temporal Distance Task,cb_04,56.0,temp_dist_trial,num_items,zn7si1,1.0,response,1_ITEM,1444.1000000022468,1441.7000000000116,1444.1000000022468,1444.1000000022468,1441.7000000000116,1444.1000000022468,1.0,0.0,0.0,,Click Response,1_count,3.0,object-46,temp_dist_trial,8.0,s_sh_06_1,student_shared,clipboard,4.0,competing,paired,s_sh_06_1.jpg,Student,$${counterbalance_group},,sub-78
Desktop or Laptop,Windows 10,Chrome 138.0.0.0,1920x1080,1920x1080,Temporal Distance Task,cb_04,57.0,temp_dist_trial,num_items,zn7si1,1.0,response,2_ITEM,1157.4000000022352,1155.5,1157.4000000022352,1157.4000000022352,1155.5,1157.4000000022352,1.0,0.0,0.0,,Click Response,2_count,5.0,object-49,temp_dist_trial,9.0,s_sh_03_1,student_shared,highlighter,4.0,competing,paired,s_sh_03_1.jpg,Student,$${counterbalance_group},,sub-78
Desktop or Laptop,Windows 10,Chrome 138.0.0.0,1920x1080,1920x1080,Temporal Distance Task,cb_04,57.0,temp_dist_trial,dist_items,qkpkxw,2.0,info,,1.8999999999941792,0.0,1.8999999999941792,1.8999999999941792,0.0,1.8999999999941792,1.0,0.0,0.0,,Slider,Slider,4.0,object-56,temp_dist_trial,9.0,s_sh_03_1,student_shared,highlighter,4.0,competing,paired,s_sh_03_1.jpg,Student,$${counterbalance_group},,sub-78
Desktop or Laptop,Windows 10,Chrome 138.0.0.0,1920x1080,1920x1080,Temporal Distance Task,cb_04,57.0,temp_dist_trial,dist_items,qkpkxw,2.0,continue,,1786.7000000000116,1783.6000000000058,1786.7000000000116,1786.7000000000116,1783.6000000000058,1786.7000000000116,1.0,0.0,0.0,,Click To Continue,Next button,7.0,object-60,temp_dist_trial,9.0,s_sh_03_1,student_shared,highlighter,4.0,competing,paired,s_sh_03_1.jpg,Student,$${counterbalance_group},,sub-78
Desktop or Laptop,Windows 10,Chrome 138.0.0.0,1920x1080,1920x1080,Temporal Distance Task,cb_04,57.0,temp_dist_trial,dist_items,qkpkxw,2.0,response,32,438.7999999999884,1783.6000000000058,1786.7000000000116,438.7999999999884,1783.6000000000058,1786.7000000000116,1.0,1347.9000000000233,0.0,,Slider,Slider,4.0,object-56,temp_dist_trial,9.0,s_sh_03_1,student_shared,highlighter,4.0,competing,paired,s_sh_03_1.jpg,Student,$${counterbalance_group},,sub-78
Desktop or Laptop,Windows 10,Chrome 138.0.0.0,1920x1080,1920x1080,Temporal Distance Task,cb_04,58.0,temp_dist_trial,num_items,zn7si1,1.0,response,2_ITEM,1020.5000000029686,1019.0,1020.5000000029686,1020.5000000029686,1019.0,1020.5000000029686,1.0,0.0,0.0,,Click Response,2_count,5.0,object-49,temp_dist_trial,10.0,s_sh_02_1,student_shared,eraser,4.0,competing,paired,s_sh_02_1.jpg,Student,$${counterbalance_group},,sub-78
Desktop or Laptop,Windows 10,Chrome 138.0.0.0,1920x1080,1920x1080,Temporal Distance Task,cb_04,58.0,temp_dist_trial,dist_items,qkpkxw,2.0,info,,1.900000002991873,0.0,1.900000002991873,1.900000002991873,0.0,1.900000002991873,1.0,0.0,0.0,,Slider,Slider,4.0,object-56,temp_dist_trial,10.0,s_sh_02_1,student_shared,eraser,4.0,competing,paired,s_sh_02_1.jpg,Student,$${counterbalance_group},,sub-78
Desktop or Laptop,Windows 10,Chrome 138.0.0.0,1920x1080,1920x1080,Temporal Distance Task,cb_04,58.0,temp_dist_trial,dist_items,qkpkxw,2.0,continue,,1452.2000000000116,1450.0,1452.2000000000116,1452.2000000000116,1450.0,1452.2000000000116,1.0,0.0,0.0,,Click To Continue,Next button,7.0,object-60,temp_dist_trial,10.0,s_sh_02_1,student_shared,eraser,4.0,competing,paired,s_sh_02_1.jpg,Student,$${counterbalance_group},,sub-78
Desktop or Laptop,Windows 10,Chrome 138.0.0.0,1920x1080,1920x1080,Temporal Distance Task,cb_04,58.0,temp_dist_trial,dist_items,qkpkxw,2.0,response,87,408.30000000001746,1450.0,1452.5000000007572,408.30000000001746,1450.0,1452.5000000007572,1.0,1044.2000000007392,0.0,,Slider,Slider,4.0,object-56,temp_dist_trial,10.0,s_sh_02_1,student_shared,eraser,4.0,competing,paired,s_sh_02_1.jpg,Student,$${counterbalance_group},,sub-78
Desktop or Laptop,Windows 10,Chrome 138.0.0.0,1920x1080,1920x1080,Temporal Distance Task,cb_04,59.0,temp_dist_trial,num_items,zn7si1,1.0,response,2_ITEM,1388.6999999999825,1386.0,1388.6999999999825,1388.6999999999825,1386.0,1388.6999999999825,1.0,0.0,0.0,,Click Response,2_count,5.0,object-49,temp_dist_trial,11.0,s_sh_07_1,student_shared,ruler,4.0,competing,paired,s_sh_07_1.jpg,Student,$${counterbalance_group},,sub-78
Desktop or Laptop,Windows 10,Chrome 138.0.0.0,1920x1080,1920x1080,Temporal Distance Task,cb_04,59.0,temp_dist_trial,dist_items,qkpkxw,2.0,info,,2.1000000000058208,0.0,2.1000000000058208,2.1000000000058208,0.0,2.1000000000058208,1.0,0.0,0.0,,Slider,Slider,4.0,object-56,temp_dist_trial,11.0,s_sh_07_1,student_shared,ruler,4.0,competing,paired,s_sh_07_1.jpg,Student,$${counterbalance_group},,sub-78
Desktop or Laptop,Windows 10,Chrome 138.0.0.0,1920x1080,1920x1080,Temporal Distance Task,cb_04,59.0,temp_dist_trial,dist_items,qkpkxw,2.0,continue,,1318.000000002241,1316.6000000000058,1318.000000002241,1318.000000002241,1316.6000000000058,1318.000000002241,1.0,0.0,0.0,,Click To Continue,Next button,7.0,object-60,temp_dist_trial,11.0,s_sh_07_1,student_shared,ruler,4.0,competing,paired,s_sh_07_1.jpg,Student,$${counterbalance_group},,sub-78
Desktop or Laptop,Windows 10,Chrome 138.0.0.0,1920x1080,1920x1080,Temporal Distance Task,cb_04,59.0,temp_dist_trial,dist_items,qkpkxw,2.0,response,79,400.1000000000058,1316.6000000000058,1318.300000002986,400.1000000000058,1316.6000000000058,1318.300000002986,1.0,918.2000000029802,0.0,,Slider,Slider,4.0,object-56,temp_dist_trial,11.0,s_sh_07_1,student_shared,ruler,4.0,competing,paired,s_sh_07_1.jpg,Student,$${counterbalance_group},,sub-78
Desktop or Laptop,Windows 10,Chrome 138.0.0.0,1920x1080,1920x1080,Temporal Distance Task,cb_04,60.0,temp_dist_trial,num_items,zn7si1,1.0,response,1_ITEM,1065.2000000029802,1063.8999999999942,1065.2000000029802,1065.2000000029802,1063.8999999999942,1065.2000000029802,1.0,0.0,0.0,,Click Response,1_count,3.0,object-46,temp_dist_trial,12.0,s_sh_22_1,student_shared,hole puncher,4.0,competing,single,s_sh_22_1.jpg,Student,$${counterbalance_group},,sub-78
Desktop or Laptop,Windows 10,Chrome 138.0.0.0,1920x1080,1920x1080,Temporal Distance Task,cb_04,61.0,temp_dist_trial,num_items,zn7si1,1.0,response,1_ITEM,856.6000000000058,855.6000000000058,856.6000000000058,856.6000000000058,855.6000000000058,856.6000000000058,1.0,0.0,0.0,,Click Response,1_count,3.0,object-46,temp_dist_trial,13.0,s_s_03_1,student_stem,petri dish,4.0,unique,paired,s_s_03_1.jpg,Student,$${counterbalance_group},,sub-78
Desktop or Laptop,Windows 10,Chrome 138.0.0.0,1920x1080,1920x1080,Temporal Distance Task,cb_04,62.0,temp_dist_trial,num_items,zn7si1,1.0,response,2_ITEM,952.4999999999707,949.7999999999884,952.4999999999707,952.4999999999707,949.7999999999884,952.4999999999707,1.0,0.0,0.0,,Click Response,2_count,5.0,object-49,temp_dist_trial,14.0,s_s_12_1,student_stem,robotic arm,4.0,unique,paired,s_s_12_1.jpg,Student,$${counterbalance_group},,sub-78
Desktop or Laptop,Windows 10,Chrome 138.0.0.0,1920x1080,1920x1080,Temporal Distance Task,cb_04,62.0,temp_dist_trial,dist_items,qkpkxw,2.0,info,,1.9000000007508788,0.0,1.9000000007508788,1.9000000007508788,0.0,1.9000000007508788,1.0,0.0,0.0,,Slider,Slider,4.0,object-56,temp_dist_trial,14.0,s_s_12_1,student_stem,robotic arm,4.0,unique,paired,s_s_12_1.jpg,Student,$${counterbalance_group},,sub-78
Desktop or Laptop,Windows 10,Chrome 138.0.0.0,1920x1080,1920x1080,Temporal Distance Task,cb_04,62.0,temp_dist_trial,dist_items,qkpkxw,2.0,continue,,1758.200000001496,1755.6000000000058,1758.200000001496,1758.200000001496,1755.6000000000058,1758.200000001496,1.0,0.0,0.0,,Click To Continue,Next button,7.0,object-60,temp_dist_trial,14.0,s_s_12_1,student_stem,robotic arm,4.0,unique,paired,s_s_12_1.jpg,Student,$${counterbalance_group},,sub-78
Desktop or Laptop,Windows 10,Chrome 138.0.0.0,1920x1080,1920x1080,Temporal Distance Task,cb_04,62.0,temp_dist_trial,dist_items,qkpkxw,2.0,response,0,458.3999999999942,1755.6000000000058,1758.3999999999942,458.3999999999942,1755.6000000000058,1758.3999999999942,1.0,1300.0,0.0,,Slider,Slider,4.0,object-56,temp_dist_trial,14.0,s_s_12_1,student_stem,robotic arm,4.0,unique,paired,s_s_12_1.jpg,Student,$${counterbalance_group},,sub-78
Desktop or Laptop,Windows 10,Chrome 138.0.0.0,1920x1080,1920x1080,Temporal Distance Task,cb_04,63.0,temp_dist_trial,num_items,zn7si1,1.0,response,1_ITEM,1035.3000000007448,1033.2999999999884,1035.3000000007448,1035.3000000007448,1033.2999999999884,1035.3000000007448,1.0,0.0,0.0,,Click Response,1_count,3.0,object-46,temp_dist_trial,15.0,s_s_09_1,student_stem,multimeter,4.0,unique,single,s_s_09_1.jpg,Student,$${counterbalance_group},,sub-78
Desktop or Laptop,Windows 10,Chrome 138.0.0.0,1920x1080,1920x1080,Temporal Distance Task,cb_04,64.0,temp_dist_trial,num_items,zn7si1,1.0,response,2_ITEM,1528.1000000022468,1527.8000000000175,1528.1000000022468,1528.1000000022468,1527.8000000000175,1528.1000000022468,1.0,0.0,0.0,,Click Response,2_count,5.0,object-49,temp_dist_trial,16.0,s_a_10_1,student_art,tripod,4.0,unique,paired,s_a_10_1.jpg,Student,$${counterbalance_group},,sub-78
Desktop or Laptop,Windows 10,Chrome 138.0.0.0,1920x1080,1920x1080,Temporal Distance Task,cb_04,64.0,temp_dist_trial,dist_items,qkpkxw,2.0,info,,2.0000000014842962,0.0,2.0000000014842962,2.0000000014842962,0.0,2.0000000014842962,1.0,0.0,0.0,,Slider,Slider,4.0,object-56,temp_dist_trial,16.0,s_a_10_1,student_art,tripod,4.0,unique,paired,s_a_10_1.jpg,Student,$${counterbalance_group},,sub-78
Desktop or Laptop,Windows 10,Chrome 138.0.0.0,1920x1080,1920x1080,Temporal Distance Task,cb_04,64.0,temp_dist_trial,dist_items,qkpkxw,2.0,continue,,1360.5000000014845,1358.2999999999886,1360.5000000014845,1360.5000000014845,1358.2999999999886,1360.5000000014845,1.0,0.0,0.0,,Click To Continue,Next button,7.0,object-60,temp_dist_trial,16.0,s_a_10_1,student_art,tripod,4.0,unique,paired,s_a_10_1.jpg,Student,$${counterbalance_group},,sub-78
Desktop or Laptop,Windows 10,Chrome 138.0.0.0,1920x1080,1920x1080,Temporal Distance Task,cb_04,64.0,temp_dist_trial,dist_items,qkpkxw,2.0,response,51,538.8999999999942,1358.2999999999886,1360.6000000029746,538.8999999999942,1358.2999999999886,1360.6000000029746,1.0,821.7000000029802,0.0,,Slider,Slider,4.0,object-56,temp_dist_trial,16.0,s_a_10_1,student_art,tripod,4.0,unique,paired,s_a_10_1.jpg,Student,$${counterbalance_group},,sub-78
Desktop or Laptop,Windows 10,Chrome 138.0.0.0,1920x1080,1920x1080,Temporal Distance Task,cb_04,65.0,temp_dist_trial,num_items,zn7si1,1.0,response,2_ITEM,965.1000000000058,963.8999999999942,965.1000000000058,965.1000000000058,963.8999999999942,965.1000000000058,1.0,0.0,0.0,,Click Response,2_count,5.0,object-49,temp_dist_trial,17.0,s_s_14_1,student_stem,funnel,4.0,unique,paired,s_s_14_1.jpg,Student,$${counterbalance_group},,sub-78
Desktop or Laptop,Windows 10,Chrome 138.0.0.0,1920x1080,1920x1080,Temporal Distance Task,cb_04,65.0,temp_dist_trial,dist_items,qkpkxw,2.0,info,,1.9000000014784744,0.0,1.9000000014784744,1.9000000014784744,0.0,1.9000000014784744,1.0,0.0,0.0,,Slider,Slider,4.0,object-56,temp_dist_trial,17.0,s_s_14_1,student_stem,funnel,4.0,unique,paired,s_s_14_1.jpg,Student,$${counterbalance_group},,sub-78
Desktop or Laptop,Windows 10,Chrome 138.0.0.0,1920x1080,1920x1080,Temporal Distance Task,cb_04,65.0,temp_dist_trial,dist_items,qkpkxw,2.0,continue,,972.1000000000058,969.3999999999942,972.1000000000058,972.1000000000058,969.3999999999942,972.1000000000058,1.0,0.0,0.0,,Click To Continue,Next button,7.0,object-60,temp_dist_trial,17.0,s_s_14_1,student_stem,funnel,4.0,unique,paired,s_s_14_1.jpg,Student,$${counterbalance_group},,sub-78
Desktop or Laptop,Windows 10,Chrome 138.0.0.0,1920x1080,1920x1080,Temporal Distance Task,cb_04,65.0,temp_dist_trial,dist_items,qkpkxw,2.0,response,32,336.29999999998836,969.3999999999942,972.1000000000058,336.29999999998836,969.3999999999942,972.1000000000058,1.0,635.8000000000175,0.0,,Slider,Slider,4.0,object-56,temp_dist_trial,17.0,s_s_14_1,student_stem,funnel,4.0,unique,paired,s_s_14_1.jpg,Student,$${counterbalance_group},,sub-78
Desktop or Laptop,Windows 10,Chrome 138.0.0.0,1920x1080,1920x1080,Temporal Distance Task,cb_04,66.0,temp_dist_trial,num_items,zn7si1,1.0,response,1_ITEM,791.0000000014842,789.1000000000058,791.0000000014842,791.0000000014842,789.1000000000058,791.0000000014842,1.0,0.0,0.0,,Click Response,1_count,3.0,object-46,temp_dist_trial,18.0,s_s_07_1,student_stem,periodic table,4.0,unique,single,s_s_07_1.jpg,Student,$${counterbalance_group},,sub-78
Desktop or Laptop,Windows 10,Chrome 138.0.0.0,1920x1080,1920x1080,Temporal Distance Task,cb_04,67.0,temp_dist_trial,num_items,zn7si1,1.0,response,1_ITEM,1524.0000000014843,1522.1999999999825,1524.0000000014843,1524.0000000014843,1522.1999999999825,1524.0000000014843,1.0,0.0,0.0,,Click Response,1_count,3.0,object-46,temp_dist_trial,19.0,s_a_13_1,student_art,violin,4.0,unique,paired,s_a_13_1.jpg,Student,$${counterbalance_group},,sub-78
Desktop or Laptop,Windows 10,Chrome 138.0.0.0,1920x1080,1920x1080,Temporal Distance Task,cb_04,68.0,temp_dist_trial,num_items,zn7si1,1.0,response,2_ITEM,899.5000000022411,897.1000000000058,899.5000000022411,899.5000000022411,897.1000000000058,899.5000000022411,1.0,0.0,0.0,,Click Response,2_count,5.0,object-49,temp_dist_trial,20.0,s_sh_24_1,student_shared,desk organizer,4.0,competing,paired,s_sh_24_1.jpg,Student,$${counterbalance_group},,sub-78
Desktop or Laptop,Windows 10,Chrome 138.0.0.0,1920x1080,1920x1080,Temporal Distance Task,cb_04,68.0,temp_dist_trial,dist_items,qkpkxw,2.0,info,,1.7000000007392373,0.0,1.7000000007392373,1.7000000007392373,0.0,1.7000000007392373,1.0,0.0,0.0,,Slider,Slider,4.0,object-56,temp_dist_trial,20.0,s_sh_24_1,student_shared,desk organizer,4.0,competing,paired,s_sh_24_1.jpg,Student,$${counterbalance_group},,sub-78
Desktop or Laptop,Windows 10,Chrome 138.0.0.0,1920x1080,1920x1080,Temporal Distance Task,cb_04,68.0,temp_dist_trial,dist_items,qkpkxw,2.0,continue,,976.3000000022294,974.8999999999942,976.3000000022294,976.3000000022294,974.8999999999942,976.3000000022294,1.0,0.0,0.0,,Click To Continue,Next button,7.0,object-60,temp_dist_trial,20.0,s_sh_24_1,student_shared,desk organizer,4.0,competing,paired,s_sh_24_1.jpg,Student,$${counterbalance_group},,sub-78
Desktop or Laptop,Windows 10,Chrome 138.0.0.0,1920x1080,1920x1080,Temporal Distance Task,cb_04,68.0,temp_dist_trial,dist_items,qkpkxw,2.0,response,51,352.69999999998254,974.8999999999942,976.5000000014844,352.69999999998254,974.8999999999942,976.5000000014844,1.0,623.8000000015018,0.0,,Slider,Slider,4.0,object-56,temp_dist_trial,20.0,s_sh_24_1,student_shared,desk organizer,4.0,competing,paired,s_sh_24_1.jpg,Student,$${counterbalance_group},,sub-78
Desktop or Laptop,Windows 10,Chrome 138.0.0.0,1920x1080,1920x1080,Temporal Distance Task,cb_04,69.0,temp_dist_trial,num_items,zn7si1,1.0,response,1_ITEM,1553.2000000029807,1552.7999999999884,1553.2000000029807,1553.2000000029807,1552.7999999999884,1553.2000000029807,1.0,0.0,0.0,,Click Response,1_count,3.0,object-46,temp_dist_trial,21.0,s_sh_08_1,student_shared,post-its,4.0,competing,single,s_sh_08_1.jpg,Student,$${counterbalance_group},,sub-78
Desktop or Laptop,Windows 10,Chrome 138.0.0.0,1920x1080,1920x1080,Temporal Distance Task,cb_04,70.0,temp_dist_trial,num_items,zn7si1,1.0,response,1_ITEM,1139.7999999999886,1139.0,1139.7999999999886,1139.7999999999886,1139.0,1139.7999999999886,1.0,0.0,0.0,,Click Response,1_count,3.0,object-46,temp_dist_trial,22.0,s_a_11_1,student_art,clapperboard,4.0,unique,paired,s_a_11_1.jpg,Student,$${counterbalance_group},,sub-78
Desktop or Laptop,Windows 10,Chrome 138.0.0.0,1920x1080,1920x1080,Temporal Distance Task,cb_04,71.0,temp_dist_trial,num_items,zn7si1,1.0,response,2_ITEM,1805.499999999971,1802.7999999999884,1805.499999999971,1805.499999999971,1802.7999999999884,1805.499999999971,1.0,0.0,0.0,,Click Response,2_count,5.0,object-49,temp_dist_trial,23.0,s_a_20_1,student_art,pin cushion,4.0,unique,paired,s_a_20_1.jpg,Student,$${counterbalance_group},,sub-78
Desktop or Laptop,Windows 10,Chrome 138.0.0.0,1920x1080,1920x1080,Temporal Distance Task,cb_04,71.0,temp_dist_trial,dist_items,qkpkxw,2.0,info,,2.7000000014959373,0.0,2.7000000014959373,2.7000000014959373,0.0,2.7000000014959373,1.0,0.0,0.0,,Slider,Slider,4.0,object-56,temp_dist_trial,23.0,s_a_20_1,student_art,pin cushion,4.0,unique,paired,s_a_20_1.jpg,Student,$${counterbalance_group},,sub-78
Desktop or Laptop,Windows 10,Chrome 138.0.0.0,1920x1080,1920x1080,Temporal Distance Task,cb_04,71.0,temp_dist_trial,dist_items,qkpkxw,2.0,continue,,1197.800000002986,1197.2000000000114,1197.800000002986,1197.800000002986,1197.2000000000114,1197.800000002986,1.0,0.0,0.0,,Click To Continue,Next button,7.0,object-60,temp_dist_trial,23.0,s_a_20_1,student_art,pin cushion,4.0,unique,paired,s_a_20_1.jpg,Student,$${counterbalance_group},,sub-78
Desktop or Laptop,Windows 10,Chrome 138.0.0.0,1920x1080,1920x1080,Temporal Distance Task,cb_04,71.0,temp_dist_trial,dist_items,qkpkxw,2.0,response,26,372.30000000001746,1197.2000000000114,1198.1000000000058,372.30000000001746,1197.2000000000114,1198.1000000000058,1.0,825.7999999999884,0.0,,Slider,Slider,4.0,object-56,temp_dist_trial,23.0,s_a_20_1,student_art,pin cushion,4.0,unique,paired,s_a_20_1.jpg,Student,$${counterbalance_group},,sub-78
Desktop or Laptop,Windows 10,Chrome 138.0.0.0,1920x1080,1920x1080,Temporal Distance Task,cb_04,72.0,temp_dist_trial,num_items,zn7si1,1.0,response,num_miss,3000.1000000000067,3000.1000000000067,3000.1000000000067,3000.1000000000067,3000.1000000000067,3000.1000000000067,1.0,0.0,0.0,num_miss_tag,Time Limit,screen,0.0,screen,temp_dist_trial,24.0,s_sh_04_1,student_shared,laptop stand,4.0,competing,single,s_sh_04_1.jpg,Student,$${counterbalance_group},,sub-78
Desktop or Laptop,Windows 10,Chrome 138.0.0.0,1920x1080,1920x1080,Temporal Distance Task,cb_04,73.0,temp_dist_trial,num_items,zn7si1,1.0,response,1_ITEM,62.40000000075089,61.10000000000582,62.40000000075089,62.40000000075089,61.10000000000582,62.40000000075089,1.0,0.0,0.0,,Click Response,1_count,3.0,object-46,temp_dist_trial,25.0,s_a_03_1,student_art,palette,4.0,unique,paired,s_a_03_1.jpg,Student,$${counterbalance_group},,sub-78
Desktop or Laptop,Windows 10,Chrome 138.0.0.0,1920x1080,1920x1080,Temporal Distance Task,cb_04,74.0,temp_dist_trial,num_items,zn7si1,1.0,response,2_ITEM,1832.3000000007446,1830.5,1832.3000000007446,1832.3000000007446,1830.5,1832.3000000007446,1.0,0.0,0.0,,Click Response,2_count,5.0,object-49,temp_dist_trial,26.0,s_s_02_1,student_stem,flask,4.0,unique,single,s_s_02_1.jpg,Student,$${counterbalance_group},,sub-78
Desktop or Laptop,Windows 10,Chrome 138.0.0.0,1920x1080,1920x1080,Temporal Distance Task,cb_04,74.0,temp_dist_trial,dist_items,qkpkxw,2.0,info,,2.0000000022409954,0.0,2.0000000022409954,2.0000000022409954,0.0,2.0000000022409954,1.0,0.0,0.0,,Slider,Slider,4.0,object-56,temp_dist_trial,26.0,s_s_02_1,student_stem,flask,4.0,unique,single,s_s_02_1.jpg,Student,$${counterbalance_group},,sub-78
Desktop or Laptop,Windows 10,Chrome 138.0.0.0,1920x1080,1920x1080,Temporal Distance Task,cb_04,74.0,temp_dist_trial,dist_items,qkpkxw,2.0,continue,,1829.300000002986,1827.8000000000175,1829.300000002986,1829.300000002986,1827.8000000000175,1829.300000002986,1.0,0.0,0.0,,Click To Continue,Next button,7.0,object-60,temp_dist_trial,26.0,s_s_02_1,student_stem,flask,4.0,unique,single,s_s_02_1.jpg,Student,$${counterbalance_group},,sub-78
Desktop or Laptop,Windows 10,Chrome 138.0.0.0,1920x1080,1920x1080,Temporal Distance Task,cb_04,74.0,temp_dist_trial,dist_items,qkpkxw,2.0,response,28,622.3000000000175,1827.8000000000175,1829.500000002241,622.3000000000175,1827.8000000000175,1829.500000002241,1.0,1207.2000000022235,0.0,,Slider,Slider,4.0,object-56,temp_dist_trial,26.0,s_s_02_1,student_stem,flask,4.0,unique,single,s_s_02_1.jpg,Student,$${counterbalance_group},,sub-78
Desktop or Laptop,Windows 10,Chrome 138.0.0.0,1920x1080,1920x1080,Temporal Distance Task,cb_04,75.0,temp_dist_trial,num_items,zn7si1,1.0,response,1_ITEM,1929.0000000029688,1927.7999999999884,1929.0000000029688,1929.0000000029688,1927.7999999999884,1929.0000000029688,1.0,0.0,0.0,,Click Response,1_count,3.0,object-46,temp_dist_trial,27.0,s_a_17_1,student_art,microphone,4.0,unique,single,s_a_17_1.jpg,Student,$${counterbalance_group},,sub-78
Desktop or Laptop,Windows 10,Chrome 138.0.0.0,1920x1080,1920x1080,Temporal Distance Task,cb_04,76.0,temp_dist_trial,num_items,zn7si1,1.0,response,2_ITEM,956.5,955.5,956.5,956.5,955.5,956.5,1.0,0.0,0.0,,Click Response,2_count,5.0,object-49,temp_dist_trial,28.0,s_sh_21_1,student_shared,file holder,4.0,competing,paired,s_sh_21_1.jpg,Student,$${counterbalance_group},,sub-78
Desktop or Laptop,Windows 10,Chrome 138.0.0.0,1920x1080,1920x1080,Temporal Distance Task,cb_04,76.0,temp_dist_trial,dist_items,qkpkxw,2.0,info,,2.0000000014842962,0.0,2.0000000014842962,2.0000000014842962,0.0,2.0000000014842962,1.0,0.0,0.0,,Slider,Slider,4.0,object-56,temp_dist_trial,28.0,s_sh_21_1,student_shared,file holder,4.0,competing,paired,s_sh_21_1.jpg,Student,$${counterbalance_group},,sub-78
Desktop or Laptop,Windows 10,Chrome 138.0.0.0,1920x1080,1920x1080,Temporal Distance Task,cb_04,76.0,temp_dist_trial,dist_items,qkpkxw,2.0,continue,,2606.7000000007392,2605.5,2606.7000000007392,2606.7000000007392,2605.5,2606.7000000007392,1.0,0.0,0.0,,Click To Continue,Next button,7.0,object-60,temp_dist_trial,28.0,s_sh_21_1,student_shared,file holder,4.0,competing,paired,s_sh_21_1.jpg,Student,$${counterbalance_group},,sub-78
Desktop or Laptop,Windows 10,Chrome 138.0.0.0,1920x1080,1920x1080,Temporal Distance Task,cb_04,76.0,temp_dist_trial,dist_items,qkpkxw,2.0,response,64,1208.2999999999886,2605.5,2607.0000000014843,1208.2999999999886,2605.5,2607.0000000014843,1.0,1398.700000001496,0.0,,Slider,Slider,4.0,object-56,temp_dist_trial,28.0,s_sh_21_1,student_shared,file holder,4.0,competing,paired,s_sh_21_1.jpg,Student,$${counterbalance_group},,sub-78
Desktop or Laptop,Windows 10,Chrome 138.0.0.0,1920x1080,1920x1080,Temporal Distance Task,cb_04,77.0,temp_dist_trial,num_items,zn7si1,1.0,response,2_ITEM,1315.2000000007392,1313.8999999999942,1315.2000000007392,1315.2000000007392,1313.8999999999942,1315.2000000007392,1.0,0.0,0.0,,Click Response,2_count,5.0,object-49,temp_dist_trial,29.0,s_sh_05_1,student_shared,laptop,4.0,competing,paired,s_sh_05_1.jpg,Student,$${counterbalance_group},,sub-78
Desktop or Laptop,Windows 10,Chrome 138.0.0.0,1920x1080,1920x1080,Temporal Distance Task,cb_04,77.0,temp_dist_trial,dist_items,qkpkxw,2.0,info,,1.8000000029860532,0.0,1.8000000029860532,1.8000000029860532,0.0,1.8000000029860532,1.0,0.0,0.0,,Slider,Slider,4.0,object-56,temp_dist_trial,29.0,s_sh_05_1,student_shared,laptop,4.0,competing,paired,s_sh_05_1.jpg,Student,$${counterbalance_group},,sub-78
Desktop or Laptop,Windows 10,Chrome 138.0.0.0,1920x1080,1920x1080,Temporal Distance Task,cb_04,77.0,temp_dist_trial,dist_items,qkpkxw,2.0,continue,,1118.300000002986,1116.8000000000177,1118.300000002986,1118.300000002986,1116.8000000000177,1118.300000002986,1.0,0.0,0.0,,Click To Continue,Next button,7.0,object-60,temp_dist_trial,29.0,s_sh_05_1,student_shared,laptop,4.0,competing,paired,s_sh_05_1.jpg,Student,$${counterbalance_group},,sub-78
Desktop or Laptop,Windows 10,Chrome 138.0.0.0,1920x1080,1920x1080,Temporal Distance Task,cb_04,77.0,temp_dist_trial,dist_items,qkpkxw,2.0,response,49,455.6000000000058,1116.8000000000177,1119.600000000035,455.6000000000058,1116.8000000000177,1119.600000000035,1.0,664.0000000000291,0.0,,Slider,Slider,4.0,object-56,temp_dist_trial,29.0,s_sh_05_1,student_shared,laptop,4.0,competing,paired,s_sh_05_1.jpg,Student,$${counterbalance_group},,sub-78
Desktop or Laptop,Windows 10,Chrome 138.0.0.0,1920x1080,1920x1080,Temporal Distance Task,cb_04,78.0,temp_dist_trial,num_items,zn7si1,1.0,response,1_ITEM,1622.0,1619.2999999999884,1622.0,1622.0,1619.2999999999884,1622.0,1.0,0.0,0.0,,Click Response,1_count,3.0,object-46,temp_dist_trial,30.0,s_sh_01_1,student_shared,notebook,4.0,competing,single,s_sh_01_1.jpg,Student,$${counterbalance_group},,sub-78
Desktop or Laptop,Windows 10,Chrome 138.0.0.0,1920x1080,1920x1080,Temporal Distance Task,cb_04,79.0,temp_dist_trial,num_items,zn7si1,1.0,response,1_ITEM,943.1000000029744,941.6000000000058,943.1000000029744,943.1000000029744,941.6000000000058,943.1000000029744,1.0,0.0,0.0,,Click Response,1_count,3.0,object-46,temp_dist_trial,31.0,s_s_17_1,student_stem,ring stand,4.0,unique,paired,s_s_17_1.jpg,Student,$${counterbalance_group},,sub-78
Desktop or Laptop,Windows 10,Chrome 138.0.0.0,1920x1080,1920x1080,Temporal Distance Task,cb_04,80.0,temp_dist_trial,num_items,zn7si1,1.0,response,1_ITEM,990.6000000007332,989.0999999999768,990.6000000007332,990.6000000007332,989.0999999999768,990.6000000007332,1.0,0.0,0.0,,Click Response,1_count,3.0,object-46,temp_dist_trial,32.0,s_s_04_1,student_stem,bunsen burner,4.0,unique,paired,s_s_04_1.jpg,Student,$${counterbalance_group},,sub-78
Desktop or Laptop,Windows 10,Chrome 138.0.0.0,1920x1080,1920x1080,Temporal Distance Task,cb_04,81.0,temp_dist_trial,num_items,zn7si1,1.0,response,1_ITEM,1061.6000000029744,1061.1000000000058,1061.6000000029744,1061.6000000029744,1061.1000000000058,1061.6000000029744,1.0,0.0,0.0,,Click Response,1_count,3.0,object-46,temp_dist_trial,33.0,s_sh_13_1,student_shared,index cards,4.0,competing,paired,s_sh_13_1.jpg,Student,$${counterbalance_group},,sub-78
Desktop or Laptop,Windows 10,Chrome 138.0.0.0,1920x1080,1920x1080,Temporal Distance Task,cb_04,82.0,temp_dist_trial,num_items,zn7si1,1.0,response,1_ITEM,1366.5,1363.8999999999942,1366.5,1366.5,1363.8999999999942,1366.5,1.0,0.0,0.0,,Click Response,1_count,3.0,object-46,temp_dist_trial,34.0,s_a_04_1,student_art,easel,4.0,unique,paired,s_a_04_1.jpg,Student,$${counterbalance_group},,sub-78
Desktop or Laptop,Windows 10,Chrome 138.0.0.0,1920x1080,1920x1080,Temporal Distance Task,cb_04,83.0,temp_dist_trial,num_items,zn7si1,1.0,response,1_ITEM,771.9000000022353,769.6000000000058,771.9000000022353,771.9000000022353,769.6000000000058,771.9000000022353,1.0,0.0,0.0,,Click Response,1_count,3.0,object-46,temp_dist_trial,35.0,s_s_18_1,student_stem,brain model,4.0,unique,paired,s_s_18_1.jpg,Student,$${counterbalance_group},,sub-78
Desktop or Laptop,Windows 10,Chrome 138.0.0.0,1920x1080,1920x1080,Temporal Distance Task,cb_04,84.0,temp_dist_trial,num_items,zn7si1,1.0,response,1_ITEM,2460.6000000014897,2458.2999999999884,2460.6000000014897,2460.6000000014897,2458.2999999999884,2460.6000000014897,1.0,0.0,0.0,,Click Response,1_count,3.0,object-46,temp_dist_trial,36.0,s_sh_09_1,student_shared,paper clips,4.0,competing,single,s_sh_09_1.jpg,Student,$${counterbalance_group},,sub-78
Desktop or Laptop,Windows 10,Chrome 138.0.0.0,1920x1080,1920x1080,Temporal Distance Task,cb_04,85.0,temp_dist_trial,num_items,zn7si1,1.0,response,2_ITEM,2372.900000002992,2372.200000000012,2372.900000002992,2372.900000002992,2372.200000000012,2372.900000002992,1.0,0.0,0.0,,Click Response,2_count,5.0,object-49,temp_dist_trial,37.0,s_s_05_1,student_stem,lab goggles,4.0,unique,paired,s_s_05_1.jpg,Student,$${counterbalance_group},,sub-78
Desktop or Laptop,Windows 10,Chrome 138.0.0.0,1920x1080,1920x1080,Temporal Distance Task,cb_04,85.0,temp_dist_trial,dist_items,qkpkxw,2.0,info,,2.1000000022468157,0.0,2.1000000022468157,2.1000000022468157,0.0,2.1000000022468157,1.0,0.0,0.0,,Slider,Slider,4.0,object-56,temp_dist_trial,37.0,s_s_05_1,student_stem,lab goggles,4.0,unique,paired,s_s_05_1.jpg,Student,$${counterbalance_group},,sub-78
Desktop or Laptop,Windows 10,Chrome 138.0.0.0,1920x1080,1920x1080,Temporal Distance Task,cb_04,85.0,temp_dist_trial,dist_items,qkpkxw,2.0,continue,,1437.6000000022468,1435.8000000000175,1437.6000000022468,1437.6000000022468,1435.8000000000175,1437.6000000022468,1.0,0.0,0.0,,Click To Continue,Next button,7.0,object-60,temp_dist_trial,37.0,s_s_05_1,student_stem,lab goggles,4.0,unique,paired,s_s_05_1.jpg,Student,$${counterbalance_group},,sub-78
Desktop or Laptop,Windows 10,Chrome 138.0.0.0,1920x1080,1920x1080,Temporal Distance Task,cb_04,85.0,temp_dist_trial,dist_items,qkpkxw,2.0,response,33,630.3000000000175,1435.8000000000175,1437.8000000015018,630.3000000000175,1435.8000000000175,1437.8000000015018,1.0,807.5000000014842,0.0,,Slider,Slider,4.0,object-56,temp_dist_trial,37.0,s_s_05_1,student_stem,lab goggles,4.0,unique,paired,s_s_05_1.jpg,Student,$${counterbalance_group},,sub-78
Desktop or Laptop,Windows 10,Chrome 138.0.0.0,1920x1080,1920x1080,Temporal Distance Task,cb_04,86.0,temp_dist_trial,num_items,zn7si1,1.0,response,2_ITEM,1149.6000000029746,1147.1999999999825,1149.6000000029746,1149.6000000029746,1147.1999999999825,1149.6000000029746,1.0,0.0,0.0,,Click Response,2_count,5.0,object-49,temp_dist_trial,38.0,s_a_09_1,student_art,picture frame,4.0,unique,paired,s_a_09_1.jpg,Student,$${counterbalance_group},,sub-78
Desktop or Laptop,Windows 10,Chrome 138.0.0.0,1920x1080,1920x1080,Temporal Distance Task,cb_04,86.0,temp_dist_trial,dist_items,qkpkxw,2.0,info,,1.8000000029860532,0.0,1.8000000029860532,1.8000000029860532,0.0,1.8000000029860532,1.0,0.0,0.0,,Slider,Slider,4.0,object-56,temp_dist_trial,38.0,s_a_09_1,student_art,picture frame,4.0,unique,paired,s_a_09_1.jpg,Student,$${counterbalance_group},,sub-78
Desktop or Laptop,Windows 10,Chrome 138.0.0.0,1920x1080,1920x1080,Temporal Distance Task,cb_04,86.0,temp_dist_trial,dist_items,qkpkxw,2.0,continue,,1795.700000001496,1794.3000000000175,1795.700000001496,1795.700000001496,1794.3000000000175,1795.700000001496,1.0,0.0,0.0,,Click To Continue,Next button,7.0,object-60,temp_dist_trial,38.0,s_a_09_1,student_art,picture frame,4.0,unique,paired,s_a_09_1.jpg,Student,$${counterbalance_group},,sub-78
Desktop or Laptop,Windows 10,Chrome 138.0.0.0,1920x1080,1920x1080,Temporal Distance Task,cb_04,86.0,temp_dist_trial,dist_items,qkpkxw,2.0,response,78,1122.2000000000116,1794.3000000000175,1796.000000002241,1122.2000000000116,1794.3000000000175,1796.000000002241,1.0,673.8000000022294,0.0,,Slider,Slider,4.0,object-56,temp_dist_trial,38.0,s_a_09_1,student_art,picture frame,4.0,unique,paired,s_a_09_1.jpg,Student,$${counterbalance_group},,sub-78
Desktop or Laptop,Windows 10,Chrome 138.0.0.0,1920x1080,1920x1080,Temporal Distance Task,cb_04,87.0,temp_dist_trial,num_items,zn7si1,1.0,response,2_ITEM,912.1000000007332,911.1999999999823,912.1000000007332,912.1000000007332,911.1999999999823,912.1000000007332,1.0,0.0,0.0,,Click Response,2_count,5.0,object-49,temp_dist_trial,39.0,s_sh_23_1,student_shared,ballpoint pen,4.0,competing,paired,s_sh_23_1.jpg,Student,$${counterbalance_group},,sub-78
Desktop or Laptop,Windows 10,Chrome 138.0.0.0,1920x1080,1920x1080,Temporal Distance Task,cb_04,87.0,temp_dist_trial,dist_items,qkpkxw,2.0,info,,1.900000002991873,0.0,1.900000002991873,1.900000002991873,0.0,1.900000002991873,1.0,0.0,0.0,,Slider,Slider,4.0,object-56,temp_dist_trial,39.0,s_sh_23_1,student_shared,ballpoint pen,4.0,competing,paired,s_sh_23_1.jpg,Student,$${counterbalance_group},,sub-78
Desktop or Laptop,Windows 10,Chrome 138.0.0.0,1920x1080,1920x1080,Temporal Distance Task,cb_04,87.0,temp_dist_trial,dist_items,qkpkxw,2.0,continue,,2441.200000000012,2438.9000000000233,2441.200000000012,2441.200000000012,2438.9000000000233,2441.200000000012,1.0,0.0,0.0,,Click To Continue,Next button,7.0,object-60,temp_dist_trial,39.0,s_sh_23_1,student_shared,ballpoint pen,4.0,competing,paired,s_sh_23_1.jpg,Student,$${counterbalance_group},,sub-78
Desktop or Laptop,Windows 10,Chrome 138.0.0.0,1920x1080,1920x1080,Temporal Distance Task,cb_04,87.0,temp_dist_trial,dist_items,qkpkxw,2.0,response,87,419.40000000002334,2438.9000000000233,2441.600000000035,419.40000000002334,2438.9000000000233,2441.600000000035,1.0,2022.2000000000119,0.0,,Slider,Slider,4.0,object-56,temp_dist_trial,39.0,s_sh_23_1,student_shared,ballpoint pen,4.0,competing,paired,s_sh_23_1.jpg,Student,$${counterbalance_group},,sub-78
Desktop or Laptop,Windows 10,Chrome 138.0.0.0,1920x1080,1920x1080,Temporal Distance Task,cb_04,88.0,temp_dist_trial,num_items,zn7si1,1.0,response,1_ITEM,941.0000000029686,939.0,941.0000000029686,941.0000000029686,939.0,941.0000000029686,1.0,0.0,0.0,,Click Response,1_count,3.0,object-46,temp_dist_trial,40.0,s_sh_17_1,student_shared,wireless mouse,4.0,competing,single,s_sh_17_1.jpg,Student,$${counterbalance_group},,sub-78
Desktop or Laptop,Windows 10,Chrome 138.0.0.0,1920x1080,1920x1080,Temporal Distance Task,cb_04,89.0,temp_dist_trial,num_items,zn7si1,1.0,response,1_ITEM,1154.3000000022294,1152.7999999999886,1154.3000000022294,1154.3000000022294,1152.7999999999886,1154.3000000022294,1.0,0.0,0.0,,Click Response,1_count,3.0,object-46,temp_dist_trial,41.0,s_sh_11_1,student_shared,pencil case,4.0,competing,paired,s_sh_11_1.jpg,Student,$${counterbalance_group},,sub-78
Desktop or Laptop,Windows 10,Chrome 138.0.0.0,1920x1080,1920x1080,Temporal Distance Task,cb_04,90.0,temp_dist_trial,num_items,zn7si1,1.0,response,2_ITEM,878.5000000007567,877.8000000000177,878.5000000007567,878.5000000007567,877.8000000000177,878.5000000007567,1.0,0.0,0.0,,Click Response,2_count,5.0,object-49,temp_dist_trial,42.0,s_sh_14_1,student_shared,printer,4.0,competing,paired,s_sh_14_1.jpg,Student,$${counterbalance_group},,sub-78
Desktop or Laptop,Windows 10,Chrome 138.0.0.0,1920x1080,1920x1080,Temporal Distance Task,cb_04,90.0,temp_dist_trial,dist_items,qkpkxw,2.0,info,,1.7000000007392373,0.0,1.7000000007392373,1.7000000007392373,0.0,1.7000000007392373,1.0,0.0,0.0,,Slider,Slider,4.0,object-56,temp_dist_trial,42.0,s_sh_14_1,student_shared,printer,4.0,competing,paired,s_sh_14_1.jpg,Student,$${counterbalance_group},,sub-78
Desktop or Laptop,Windows 10,Chrome 138.0.0.0,1920x1080,1920x1080,Temporal Distance Task,cb_04,90.0,temp_dist_trial,dist_items,qkpkxw,2.0,continue,,1640.6000000029746,1638.8999999999942,1640.6000000029746,1640.6000000029746,1638.8999999999942,1640.6000000029746,1.0,0.0,0.0,,Click To Continue,Next button,7.0,object-60,temp_dist_trial,42.0,s_sh_14_1,student_shared,printer,4.0,competing,paired,s_sh_14_1.jpg,Student,$${counterbalance_group},,sub-78
Desktop or Laptop,Windows 10,Chrome 138.0.0.0,1920x1080,1920x1080,Temporal Distance Task,cb_04,90.0,temp_dist_trial,dist_items,qkpkxw,2.0,response,59,602.7999999999884,1638.8999999999942,1640.8999999999942,602.7999999999884,1638.8999999999942,1640.8999999999942,1.0,1038.1000000000058,0.0,,Slider,Slider,4.0,object-56,temp_dist_trial,42.0,s_sh_14_1,student_shared,printer,4.0,competing,paired,s_sh_14_1.jpg,Student,$${counterbalance_group},,sub-78
Desktop or Laptop,Windows 10,Chrome 138.0.0.0,1920x1080,1920x1080,Temporal Distance Task,cb_04,91.0,temp_dist_trial,num_items,zn7si1,1.0,response,1_ITEM,1625.000000000029,1622.2000000000116,1625.000000000029,1625.000000000029,1622.2000000000116,1625.000000000029,1.0,0.0,0.0,,Click Response,1_count,3.0,object-46,temp_dist_trial,43.0,s_sh_12_1,student_shared,binder,4.0,competing,paired,s_sh_12_1.jpg,Student,$${counterbalance_group},,sub-78
Desktop or Laptop,Windows 10,Chrome 138.0.0.0,1920x1080,1920x1080,Temporal Distance Task,cb_04,92.0,temp_dist_trial,num_items,zn7si1,1.0,response,2_ITEM,863.9000000014785,861.1999999999823,863.9000000014785,863.9000000014785,861.1999999999823,863.9000000014785,1.0,0.0,0.0,,Click Response,2_count,5.0,object-49,temp_dist_trial,44.0,s_sh_16_1,student_shared,stapler,4.0,competing,paired,s_sh_16_1.jpg,Student,$${counterbalance_group},,sub-78
Desktop or Laptop,Windows 10,Chrome 138.0.0.0,1920x1080,1920x1080,Temporal Distance Task,cb_04,92.0,temp_dist_trial,dist_items,qkpkxw,2.0,info,,1.900000002991873,0.0,1.900000002991873,1.900000002991873,0.0,1.900000002991873,1.0,0.0,0.0,,Slider,Slider,4.0,object-56,temp_dist_trial,44.0,s_sh_16_1,student_shared,stapler,4.0,competing,paired,s_sh_16_1.jpg,Student,$${counterbalance_group},,sub-78
Desktop or Laptop,Windows 10,Chrome 138.0.0.0,1920x1080,1920x1080,Temporal Distance Task,cb_04,92.0,temp_dist_trial,dist_items,qkpkxw,2.0,continue,,2067.600000002247,2066.6000000000063,2067.600000002247,2067.600000002247,2066.6000000000063,2067.600000002247,1.0,0.0,0.0,,Click To Continue,Next button,7.0,object-60,temp_dist_trial,44.0,s_sh_16_1,student_shared,stapler,4.0,competing,paired,s_sh_16_1.jpg,Student,$${counterbalance_group},,sub-78
Desktop or Laptop,Windows 10,Chrome 138.0.0.0,1920x1080,1920x1080,Temporal Distance Task,cb_04,92.0,temp_dist_trial,dist_items,qkpkxw,2.0,response,55,1308.4000000000233,2066.6000000000063,2069.2999999999884,1308.4000000000233,2066.6000000000063,2069.2999999999884,1.0,760.8999999999651,0.0,,Slider,Slider,4.0,object-56,temp_dist_trial,44.0,s_sh_16_1,student_shared,stapler,4.0,competing,paired,s_sh_16_1.jpg,Student,$${counterbalance_group},,sub-78
Desktop or Laptop,Windows 10,Chrome 138.0.0.0,1920x1080,1920x1080,Temporal Distance Task,cb_04,93.0,temp_dist_trial,num_items,zn7si1,1.0,response,1_ITEM,1274.9000000007507,1272.3000000000175,1274.9000000007507,1274.9000000007507,1272.3000000000175,1274.9000000007507,1.0,0.0,0.0,,Click Response,1_count,3.0,object-46,temp_dist_trial,45.0,s_a_19_1,student_art,ballet shoes,4.0,unique,single,s_a_19_1.jpg,Student,$${counterbalance_group},,sub-78
Desktop or Laptop,Windows 10,Chrome 138.0.0.0,1920x1080,1920x1080,Temporal Distance Task,cb_04,94.0,temp_dist_trial,num_items,zn7si1,1.0,response,1_ITEM,812.5000000029686,811.0999999999768,812.5000000029686,812.5000000029686,811.0999999999768,812.5000000029686,1.0,0.0,0.0,,Click Response,1_count,3.0,object-46,temp_dist_trial,46.0,s_s_13_1,student_stem,telescope,4.0,unique,paired,s_s_13_1.jpg,Student,$${counterbalance_group},,sub-78
Desktop or Laptop,Windows 10,Chrome 138.0.0.0,1920x1080,1920x1080,Temporal Distance Task,cb_04,95.0,temp_dist_trial,num_items,zn7si1,1.0,response,1_ITEM,1400.4000000029919,1400.0,1400.4000000029919,1400.4000000029919,1400.0,1400.4000000029919,1.0,0.0,0.0,,Click Response,1_count,3.0,object-46,temp_dist_trial,47.0,s_sh_20_1,student_shared,tape,4.0,competing,single,s_sh_20_1.jpg,Student,$${counterbalance_group},,sub-78
Desktop or Laptop,Windows 10,Chrome 138.0.0.0,1920x1080,1920x1080,Temporal Distance Task,cb_04,96.0,temp_dist_trial,num_items,zn7si1,1.0,response,1_ITEM,2965.800000001501,2963.800000000017,2965.800000001501,2965.800000001501,2963.800000000017,2965.800000001501,1.0,0.0,0.0,,Click Response,1_count,3.0,object-46,temp_dist_trial,48.0,s_sh_18_1,student_shared,wall calendar,4.0,competing,single,s_sh_18_1.jpg,Student,$${counterbalance_group},,sub-78
Desktop or Laptop,Windows 10,Chrome 138.0.0.0,1920x1080,1920x1080,Temporal Distance Task,,,,,,,info,END,,,244070.0,,,,,,,,,,,,,,,,,,,,,,$${counterbalance_group},,sub-78
