Participant Device,Participant OS,Participant Browser,Participant Monitor Size,Participant Viewport Size,Task Name,Current Spreadsheet,Trial Number,Display,Screen,Screen ID,Screen Counter,Response Type,Response,Onset Time,Clock Time,Reaction Time,Absolute Onset Time,Absolute Clock Time,Absolute Reaction Time,Correct,Response Duration,Proportion,Tag,Component Name,Object Name,Object Number,Object ID,Spreadsheet: display,Spreadsheet: trial,Spreadsheet: stimulus_id,Spreadsheet: expected_goal,Spreadsheet: stimulus_name,Spreadsheet: c_group,Spreadsheet: condition,Spreadsheet: paired_status,Spreadsheet: stimulus_path,Spreadsheet: block_type,Manipulation: Spreadsheet,Store: enc_test_acc,sub_label
Desktop or Laptop,Windows 10,Chrome 138.0.0.0,1920x1080,1920x953,Temporal Distance Task,$${counterbalance_group},,,,,,info,BEGIN,,,,,,,0.0,,,,,,,,,,,,,,,,,,,,sub-49
Desktop or Laptop,Windows 10,Chrome 138.0.0.0,1920x1080,1920x953,Temporal Distance Task,cb_01,1.0,temp_instructions,intro_screen,3tnme7,1.0,continue,,6309.89999999702,6306.200000000003,6309.89999999702,6309.89999999702,6306.200000000003,6309.89999999702,1.0,0.0,0.0,,Click To Continue,Continue Button,4.0,object-29,temp_instructions,,,Student,,,,,,,,,sub-49
Desktop or Laptop,Windows 10,Chrome 138.0.0.0,1920x1080,1920x953,Temporal Distance Task,cb_01,1.0,temp_instructions,intro_screen_2,52v7ur,2.0,continue,,6172.700000000003,6156.1,6172.700000000003,6172.700000000003,6156.1,6172.700000000003,1.0,0.0,0.0,,Click To Continue,Continue Button,4.0,object-39,temp_instructions,,,Student,,,,,,,,,sub-49
Desktop or Laptop,Windows 10,Chrome 138.0.0.0,1920x1080,1920x953,Temporal Distance Task,cb_01,1.0,temp_instructions,intro_screen_3,i7lvwx,3.0,continue,,3353.400000000001,3336.700000000001,3353.400000000001,3353.400000000001,3336.700000000001,3353.400000000001,1.0,0.0,0.0,,Click To Continue,Continue Button,4.0,object-67,temp_instructions,,,Student,,,,,,,,,sub-49
Desktop or Laptop,Windows 10,Chrome 138.0.0.0,1920x1080,1920x953,Temporal Distance Task,cb_01,1.0,temp_instructions,test_q1,5ieqx1,4.0,response,choice_3,4614.699999994038,4604.5999999999985,4614.699999994038,4614.699999994038,4604.5999999999985,4614.699999994038,1.0,0.0,0.0,,Click Response,choice_3,5.0,object-345,temp_instructions,,,Student,,,,,,,,,sub-49
Desktop or Laptop,Windows 10,Chrome 138.0.0.0,1920x1080,1920x953,Temporal Distance Task,cb_01,1.0,temp_instructions,score_corr,7ilvjr,5.0,continue,,926.7000000029802,917.5999999999983,926.7000000029802,926.7000000029802,917.5999999999983,926.7000000029802,1.0,0.0,0.0,,Click To Continue,Continue Button,3.0,object-23,temp_instructions,,,Student,,,,,,,,,sub-49
Desktop or Laptop,Windows 10,Chrome 138.0.0.0,1920x1080,1920x953,Temporal Distance Task,cb_01,1.0,temp_eventStart,Screen 1,dgtyxe,1.0,continue,,2627.6000000029817,2619.300000000003,2627.6000000029817,2627.6000000029817,2619.300000000003,2627.6000000029817,1.0,0.0,0.0,,Click To Continue,Next Button,3.0,object-43,temp_eventStart,,,Student,,,,,,,,,sub-49
Desktop or Laptop,Windows 10,Chrome 138.0.0.0,1920x1080,1920x953,Temporal Distance Task,cb_01,1.0,temp_dist_trial,num_items,zn7si1,1.0,response,1_ITEM,2930.999999991058,2919.599999999999,2930.999999991058,2930.999999991058,2919.599999999999,2930.999999991058,1.0,0.0,0.0,,Click Response,1_count,3.0,object-46,temp_dist_trial,1.0,s_sh_22_1,student_shared,hole puncher,1.0,competing,single,s_sh_22_1.jpg,Student,,,sub-49
Desktop or Laptop,Windows 10,Chrome 138.0.0.0,1920x1080,1920x953,Temporal Distance Task,cb_01,2.0,temp_dist_trial,num_items,zn7si1,1.0,response,1_ITEM,1419.5000000029795,1418.2999999999995,1419.5000000029795,1419.5000000029795,1418.2999999999995,1419.5000000029795,1.0,0.0,0.0,,Click Response,1_count,3.0,object-46,temp_dist_trial,2.0,s_sh_08_1,student_shared,post-its,1.0,competing,single,s_sh_08_1.jpg,Student,,,sub-49
Desktop or Laptop,Windows 10,Chrome 138.0.0.0,1920x1080,1920x953,Temporal Distance Task,cb_01,3.0,temp_dist_trial,num_items,zn7si1,1.0,response,1_ITEM,1197.7000000029802,1184.5,1197.7000000029802,1197.7000000029802,1184.5,1197.7000000029802,1.0,0.0,0.0,,Click Response,1_count,3.0,object-46,temp_dist_trial,3.0,s_sh_10_1,student_shared,scissors,1.0,competing,paired,s_sh_10_1.jpg,Student,,,sub-49
Desktop or Laptop,Windows 10,Chrome 138.0.0.0,1920x1080,1920x953,Temporal Distance Task,cb_01,4.0,temp_dist_trial,num_items,zn7si1,1.0,response,2_ITEM,1290.3999999970185,1284.5999999999985,1290.3999999970185,1290.3999999970185,1284.5999999999985,1290.3999999970185,1.0,0.0,0.0,,Click Response,2_count,5.0,object-49,temp_dist_trial,4.0,s_s_07_1,student_stem,periodic table,1.0,unique,paired,s_s_07_1.jpg,Student,,,sub-49
Desktop or Laptop,Windows 10,Chrome 138.0.0.0,1920x1080,1920x953,Temporal Distance Task,cb_01,4.0,temp_dist_trial,dist_items,qkpkxw,2.0,info,,8.599999997022678,0.0,8.599999997022678,8.599999997022678,0.0,8.599999997022678,1.0,0.0,0.0,,Slider,Slider,4.0,object-56,temp_dist_trial,4.0,s_s_07_1,student_stem,periodic table,1.0,unique,paired,s_s_07_1.jpg,Student,,,sub-49
Desktop or Laptop,Windows 10,Chrome 138.0.0.0,1920x1080,1920x953,Temporal Distance Task,cb_01,4.0,temp_dist_trial,dist_items,qkpkxw,2.0,continue,,4269.500000002983,4254.300000000003,4269.500000002983,4269.500000002983,4254.300000000003,4269.500000002983,1.0,0.0,0.0,,Click To Continue,Next button,7.0,object-60,temp_dist_trial,4.0,s_s_07_1,student_stem,periodic table,1.0,unique,paired,s_s_07_1.jpg,Student,,,sub-49
Desktop or Laptop,Windows 10,Chrome 138.0.0.0,1920x1080,1920x953,Temporal Distance Task,cb_01,4.0,temp_dist_trial,dist_items,qkpkxw,2.0,response,62,2052.1000000000063,4254.300000000003,4271.0,2052.1000000000063,4254.300000000003,4271.0,1.0,2218.8999999999937,0.0,,Slider,Slider,4.0,object-56,temp_dist_trial,4.0,s_s_07_1,student_stem,periodic table,1.0,unique,paired,s_s_07_1.jpg,Student,,,sub-49
Desktop or Laptop,Windows 10,Chrome 138.0.0.0,1920x1080,1920x953,Temporal Distance Task,cb_01,5.0,temp_dist_trial,num_items,zn7si1,1.0,response,1_ITEM,1980.0999999940395,1968.5999999999985,1980.0999999940395,1980.0999999940395,1968.5999999999985,1980.0999999940395,1.0,0.0,0.0,,Click Response,1_count,3.0,object-46,temp_dist_trial,5.0,s_sh_04_1,student_shared,laptop stand,1.0,competing,single,s_sh_04_1.jpg,Student,,,sub-49
Desktop or Laptop,Windows 10,Chrome 138.0.0.0,1920x1080,1920x953,Temporal Distance Task,cb_01,6.0,temp_dist_trial,num_items,zn7si1,1.0,response,2_ITEM,1148.8000000029788,1134.5,1148.8000000029788,1148.8000000029788,1134.5,1148.8000000029788,1.0,0.0,0.0,,Click Response,2_count,5.0,object-49,temp_dist_trial,6.0,s_sh_11_1,student_shared,pencil case,1.0,competing,paired,s_sh_11_1.jpg,Student,,,sub-49
Desktop or Laptop,Windows 10,Chrome 138.0.0.0,1920x1080,1920x953,Temporal Distance Task,cb_01,6.0,temp_dist_trial,dist_items,qkpkxw,2.0,info,,5.0,0.0,5.0,5.0,0.0,5.0,1.0,0.0,0.0,,Slider,Slider,4.0,object-56,temp_dist_trial,6.0,s_sh_11_1,student_shared,pencil case,1.0,competing,paired,s_sh_11_1.jpg,Student,,,sub-49
Desktop or Laptop,Windows 10,Chrome 138.0.0.0,1920x1080,1920x953,Temporal Distance Task,cb_01,6.0,temp_dist_trial,dist_items,qkpkxw,2.0,continue,,3640.0,3636.5,3640.0,3640.0,3636.5,3640.0,1.0,0.0,0.0,,Click To Continue,Next button,7.0,object-60,temp_dist_trial,6.0,s_sh_11_1,student_shared,pencil case,1.0,competing,paired,s_sh_11_1.jpg,Student,,,sub-49
Desktop or Laptop,Windows 10,Chrome 138.0.0.0,1920x1080,1920x953,Temporal Distance Task,cb_01,6.0,temp_dist_trial,dist_items,qkpkxw,2.0,response,38,1434.4000000000015,3636.5,3640.70000000298,1434.4000000000015,3636.5,3640.70000000298,1.0,2206.3000000029792,0.0,,Slider,Slider,4.0,object-56,temp_dist_trial,6.0,s_sh_11_1,student_shared,pencil case,1.0,competing,paired,s_sh_11_1.jpg,Student,,,sub-49
Desktop or Laptop,Windows 10,Chrome 138.0.0.0,1920x1080,1920x953,Temporal Distance Task,cb_01,7.0,temp_dist_trial,num_items,zn7si1,1.0,response,2_ITEM,1591.2999999970193,1584.9000000000015,1591.2999999970193,1591.2999999970193,1584.9000000000015,1591.2999999970193,1.0,0.0,0.0,,Click Response,2_count,5.0,object-49,temp_dist_trial,7.0,s_a_10_1,student_art,tripod,1.0,unique,paired,s_a_10_1.jpg,Student,,,sub-49
Desktop or Laptop,Windows 10,Chrome 138.0.0.0,1920x1080,1920x953,Temporal Distance Task,cb_01,7.0,temp_dist_trial,dist_items,qkpkxw,2.0,info,,5.599999997022676,0.0,5.599999997022676,5.599999997022676,0.0,5.599999997022676,1.0,0.0,0.0,,Slider,Slider,4.0,object-56,temp_dist_trial,7.0,s_a_10_1,student_art,tripod,1.0,unique,paired,s_a_10_1.jpg,Student,,,sub-49
Desktop or Laptop,Windows 10,Chrome 138.0.0.0,1920x1080,1920x953,Temporal Distance Task,cb_01,7.0,temp_dist_trial,dist_items,qkpkxw,2.0,continue,,2374.199999991062,2369.1000000000063,2374.199999991062,2374.199999991062,2369.1000000000063,2374.199999991062,1.0,0.0,0.0,,Click To Continue,Next button,7.0,object-60,temp_dist_trial,7.0,s_a_10_1,student_art,tripod,1.0,unique,paired,s_a_10_1.jpg,Student,,,sub-49
Desktop or Laptop,Windows 10,Chrome 138.0.0.0,1920x1080,1920x953,Temporal Distance Task,cb_01,7.0,temp_dist_trial,dist_items,qkpkxw,2.0,response,63,1301.6000000000058,2369.1000000000063,2378.099999997023,1301.6000000000058,2369.1000000000063,2378.099999997023,1.0,1076.4999999970169,0.0,,Slider,Slider,4.0,object-56,temp_dist_trial,7.0,s_a_10_1,student_art,tripod,1.0,unique,paired,s_a_10_1.jpg,Student,,,sub-49
Desktop or Laptop,Windows 10,Chrome 138.0.0.0,1920x1080,1920x953,Temporal Distance Task,cb_01,8.0,temp_dist_trial,num_items,zn7si1,1.0,response,1_ITEM,1231.7999999940366,1217.7999999999956,1231.7999999940366,1231.7999999940366,1217.7999999999956,1231.7999999940366,1.0,0.0,0.0,,Click Response,1_count,3.0,object-46,temp_dist_trial,8.0,s_a_12_1,student_art,saxophone,1.0,unique,single,s_a_12_1.jpg,Student,,,sub-49
Desktop or Laptop,Windows 10,Chrome 138.0.0.0,1920x1080,1920x953,Temporal Distance Task,cb_01,9.0,temp_dist_trial,num_items,zn7si1,1.0,response,2_ITEM,1240.7999999940366,1234.6999999999969,1240.7999999940366,1240.7999999940366,1234.6999999999969,1240.7999999940366,1.0,0.0,0.0,,Click Response,2_count,5.0,object-49,temp_dist_trial,9.0,s_s_02_1,student_stem,flask,1.0,unique,paired,s_s_02_1.jpg,Student,,,sub-49
Desktop or Laptop,Windows 10,Chrome 138.0.0.0,1920x1080,1920x953,Temporal Distance Task,cb_01,9.0,temp_dist_trial,dist_items,qkpkxw,2.0,info,,5.599999997022676,0.0,5.599999997022676,5.599999997022676,0.0,5.599999997022676,1.0,0.0,0.0,,Slider,Slider,4.0,object-56,temp_dist_trial,9.0,s_s_02_1,student_stem,flask,1.0,unique,paired,s_s_02_1.jpg,Student,,,sub-49
Desktop or Laptop,Windows 10,Chrome 138.0.0.0,1920x1080,1920x953,Temporal Distance Task,cb_01,9.0,temp_dist_trial,dist_items,qkpkxw,2.0,continue,,2160.3999999940424,2152.1000000000063,2160.3999999940424,2160.3999999940424,2152.1000000000063,2160.3999999940424,1.0,0.0,0.0,,Click To Continue,Next button,7.0,object-60,temp_dist_trial,9.0,s_s_02_1,student_stem,flask,1.0,unique,paired,s_s_02_1.jpg,Student,,,sub-49
Desktop or Laptop,Windows 10,Chrome 138.0.0.0,1920x1080,1920x953,Temporal Distance Task,cb_01,9.0,temp_dist_trial,dist_items,qkpkxw,2.0,response,82,1334.9000000000015,2152.1000000000063,2160.800000000003,1334.9000000000015,2152.1000000000063,2160.800000000003,1.0,825.9000000000017,0.0,,Slider,Slider,4.0,object-56,temp_dist_trial,9.0,s_s_02_1,student_stem,flask,1.0,unique,paired,s_s_02_1.jpg,Student,,,sub-49
Desktop or Laptop,Windows 10,Chrome 138.0.0.0,1920x1080,1920x953,Temporal Distance Task,cb_01,10.0,temp_dist_trial,num_items,zn7si1,1.0,response,2_ITEM,1662.7999999940366,1651.6999999999966,1662.7999999940366,1662.7999999940366,1651.6999999999966,1662.7999999940366,1.0,0.0,0.0,,Click Response,2_count,5.0,object-49,temp_dist_trial,10.0,s_sh_03_1,student_shared,highlighter,1.0,competing,paired,s_sh_03_1.jpg,Student,,,sub-49
Desktop or Laptop,Windows 10,Chrome 138.0.0.0,1920x1080,1920x953,Temporal Distance Task,cb_01,10.0,temp_dist_trial,dist_items,qkpkxw,2.0,info,,9.600000002981687,0.0,9.600000002981687,9.600000002981687,0.0,9.600000002981687,1.0,0.0,0.0,,Slider,Slider,4.0,object-56,temp_dist_trial,10.0,s_sh_03_1,student_shared,highlighter,1.0,competing,paired,s_sh_03_1.jpg,Student,,,sub-49
Desktop or Laptop,Windows 10,Chrome 138.0.0.0,1920x1080,1920x953,Temporal Distance Task,cb_01,10.0,temp_dist_trial,dist_items,qkpkxw,2.0,continue,,2880.999999994041,2869.7000000000044,2880.999999994041,2880.999999994041,2869.7000000000044,2880.999999994041,1.0,0.0,0.0,,Click To Continue,Next button,7.0,object-60,temp_dist_trial,10.0,s_sh_03_1,student_shared,highlighter,1.0,competing,paired,s_sh_03_1.jpg,Student,,,sub-49
Desktop or Laptop,Windows 10,Chrome 138.0.0.0,1920x1080,1920x953,Temporal Distance Task,cb_01,10.0,temp_dist_trial,dist_items,qkpkxw,2.0,response,72,1451.7000000000046,2869.7000000000044,2881.6000000029817,1451.7000000000046,2869.7000000000044,2881.6000000029817,1.0,1429.9000000029773,0.0,,Slider,Slider,4.0,object-56,temp_dist_trial,10.0,s_sh_03_1,student_shared,highlighter,1.0,competing,paired,s_sh_03_1.jpg,Student,,,sub-49
Desktop or Laptop,Windows 10,Chrome 138.0.0.0,1920x1080,1920x953,Temporal Distance Task,cb_01,11.0,temp_dist_trial,num_items,zn7si1,1.0,response,1_ITEM,2873.9999999970173,2869.5,2873.9999999970173,2873.9999999970173,2869.5,2873.9999999970173,1.0,0.0,0.0,,Click Response,1_count,3.0,object-46,temp_dist_trial,11.0,s_s_05_1,student_stem,lab goggles,1.0,unique,paired,s_s_05_1.jpg,Student,,,sub-49
Desktop or Laptop,Windows 10,Chrome 138.0.0.0,1920x1080,1920x953,Temporal Distance Task,cb_01,12.0,temp_dist_trial,num_items,zn7si1,1.0,response,1_ITEM,1017.7999999999955,1001.0,1017.7999999999955,1017.7999999999955,1001.0,1017.7999999999955,1.0,0.0,0.0,,Click Response,1_count,3.0,object-46,temp_dist_trial,12.0,s_s_01_1,student_stem,microscope,1.0,unique,paired,s_s_01_1.jpg,Student,,,sub-49
Desktop or Laptop,Windows 10,Chrome 138.0.0.0,1920x1080,1920x953,Temporal Distance Task,cb_01,13.0,temp_dist_trial,num_items,zn7si1,1.0,response,2_ITEM,1460.4000000029773,1451.5,1460.4000000029773,1460.4000000029773,1451.5,1460.4000000029773,1.0,0.0,0.0,,Click Response,2_count,5.0,object-49,temp_dist_trial,13.0,s_a_04_1,student_art,easel,1.0,unique,paired,s_a_04_1.jpg,Student,,,sub-49
Desktop or Laptop,Windows 10,Chrome 138.0.0.0,1920x1080,1920x953,Temporal Distance Task,cb_01,13.0,temp_dist_trial,dist_items,qkpkxw,2.0,info,,4.6000000000058225,0.0,4.6000000000058225,4.6000000000058225,0.0,4.6000000000058225,1.0,0.0,0.0,,Slider,Slider,4.0,object-56,temp_dist_trial,13.0,s_a_04_1,student_art,easel,1.0,unique,paired,s_a_04_1.jpg,Student,,,sub-49
Desktop or Laptop,Windows 10,Chrome 138.0.0.0,1920x1080,1920x953,Temporal Distance Task,cb_01,13.0,temp_dist_trial,dist_items,qkpkxw,2.0,continue,,2406.199999994045,2401.6000000000063,2406.199999994045,2406.199999994045,2401.6000000000063,2406.199999994045,1.0,0.0,0.0,,Click To Continue,Next button,7.0,object-60,temp_dist_trial,13.0,s_a_04_1,student_art,easel,1.0,unique,paired,s_a_04_1.jpg,Student,,,sub-49
Desktop or Laptop,Windows 10,Chrome 138.0.0.0,1920x1080,1920x953,Temporal Distance Task,cb_01,13.0,temp_dist_trial,dist_items,qkpkxw,2.0,response,36,1150.3000000000031,2401.6000000000063,2406.6000000000063,1150.3000000000031,2401.6000000000063,2406.6000000000063,1.0,1256.3000000000031,0.0,,Slider,Slider,4.0,object-56,temp_dist_trial,13.0,s_a_04_1,student_art,easel,1.0,unique,paired,s_a_04_1.jpg,Student,,,sub-49
Desktop or Laptop,Windows 10,Chrome 138.0.0.0,1920x1080,1920x953,Temporal Distance Task,cb_01,14.0,temp_dist_trial,num_items,zn7si1,1.0,response,1_ITEM,1792.8999999910593,1785.0,1792.8999999910593,1792.8999999910593,1785.0,1792.8999999910593,1.0,0.0,0.0,,Click Response,1_count,3.0,object-46,temp_dist_trial,14.0,s_sh_17_1,student_shared,wireless mouse,1.0,competing,single,s_sh_17_1.jpg,Student,,,sub-49
Desktop or Laptop,Windows 10,Chrome 138.0.0.0,1920x1080,1920x953,Temporal Distance Task,cb_01,15.0,temp_dist_trial,num_items,zn7si1,1.0,response,2_ITEM,913.0999999910564,900.8999999999942,913.0999999910564,913.0999999910564,900.8999999999942,913.0999999910564,1.0,0.0,0.0,,Click Response,2_count,5.0,object-49,temp_dist_trial,15.0,s_sh_13_1,student_shared,index cards,1.0,competing,paired,s_sh_13_1.jpg,Student,,,sub-49
Desktop or Laptop,Windows 10,Chrome 138.0.0.0,1920x1080,1920x953,Temporal Distance Task,cb_01,15.0,temp_dist_trial,dist_items,qkpkxw,2.0,info,,7.600000000005821,0.0,7.600000000005821,7.600000000005821,0.0,7.600000000005821,1.0,0.0,0.0,,Slider,Slider,4.0,object-56,temp_dist_trial,15.0,s_sh_13_1,student_shared,index cards,1.0,competing,paired,s_sh_13_1.jpg,Student,,,sub-49
Desktop or Laptop,Windows 10,Chrome 138.0.0.0,1920x1080,1920x953,Temporal Distance Task,cb_01,15.0,temp_dist_trial,dist_items,qkpkxw,2.0,continue,,1750.300000002986,1735.1000000000058,1750.300000002986,1750.300000002986,1735.1000000000058,1750.300000002986,1.0,0.0,0.0,,Click To Continue,Next button,7.0,object-60,temp_dist_trial,15.0,s_sh_13_1,student_shared,index cards,1.0,competing,paired,s_sh_13_1.jpg,Student,,,sub-49
Desktop or Laptop,Windows 10,Chrome 138.0.0.0,1920x1080,1920x953,Temporal Distance Task,cb_01,15.0,temp_dist_trial,dist_items,qkpkxw,2.0,response,70,901.0,1735.1000000000058,1751.8000000000034,901.0,1735.1000000000058,1751.8000000000034,1.0,850.8000000000029,0.0,,Slider,Slider,4.0,object-56,temp_dist_trial,15.0,s_sh_13_1,student_shared,index cards,1.0,competing,paired,s_sh_13_1.jpg,Student,,,sub-49
Desktop or Laptop,Windows 10,Chrome 138.0.0.0,1920x1080,1920x953,Temporal Distance Task,cb_01,16.0,temp_dist_trial,num_items,zn7si1,1.0,response,2_ITEM,1062.2999999970198,1051.1000000000058,1062.2999999970198,1062.2999999970198,1051.1000000000058,1062.2999999970198,1.0,0.0,0.0,,Click Response,2_count,5.0,object-49,temp_dist_trial,16.0,s_sh_06_1,student_shared,clipboard,1.0,competing,paired,s_sh_06_1.jpg,Student,,,sub-49
Desktop or Laptop,Windows 10,Chrome 138.0.0.0,1920x1080,1920x953,Temporal Distance Task,cb_01,16.0,temp_dist_trial,dist_items,qkpkxw,2.0,info,,8.19999999999709,0.0,8.19999999999709,8.19999999999709,0.0,8.19999999999709,1.0,0.0,0.0,,Slider,Slider,4.0,object-56,temp_dist_trial,16.0,s_sh_06_1,student_shared,clipboard,1.0,competing,paired,s_sh_06_1.jpg,Student,,,sub-49
Desktop or Laptop,Windows 10,Chrome 138.0.0.0,1920x1080,1920x953,Temporal Distance Task,cb_01,16.0,temp_dist_trial,dist_items,qkpkxw,2.0,continue,,1370.2999999940366,1368.3999999999942,1370.2999999940366,1370.2999999940366,1368.3999999999942,1370.2999999940366,1.0,0.0,0.0,,Click To Continue,Next button,7.0,object-60,temp_dist_trial,16.0,s_sh_06_1,student_shared,clipboard,1.0,competing,paired,s_sh_06_1.jpg,Student,,,sub-49
Desktop or Laptop,Windows 10,Chrome 138.0.0.0,1920x1080,1920x953,Temporal Distance Task,cb_01,16.0,temp_dist_trial,dist_items,qkpkxw,2.0,response,40,650.5999999999913,1368.3999999999942,1370.7999999940366,650.5999999999913,1368.3999999999942,1370.7999999940366,1.0,720.1999999940454,0.0,,Slider,Slider,4.0,object-56,temp_dist_trial,16.0,s_sh_06_1,student_shared,clipboard,1.0,competing,paired,s_sh_06_1.jpg,Student,,,sub-49
Desktop or Laptop,Windows 10,Chrome 138.0.0.0,1920x1080,1920x953,Temporal Distance Task,cb_01,17.0,temp_dist_trial,num_items,zn7si1,1.0,response,2_ITEM,972.0999999970227,967.5,972.0999999970227,972.0999999970227,967.5,972.0999999970227,1.0,0.0,0.0,,Click Response,2_count,5.0,object-49,temp_dist_trial,17.0,s_sh_16_1,student_shared,stapler,1.0,competing,paired,s_sh_16_1.jpg,Student,,,sub-49
Desktop or Laptop,Windows 10,Chrome 138.0.0.0,1920x1080,1920x953,Temporal Distance Task,cb_01,17.0,temp_dist_trial,dist_items,qkpkxw,2.0,info,,6.3000000000029095,0.0,6.3000000000029095,6.3000000000029095,0.0,6.3000000000029095,1.0,0.0,0.0,,Slider,Slider,4.0,object-56,temp_dist_trial,17.0,s_sh_16_1,student_shared,stapler,1.0,competing,paired,s_sh_16_1.jpg,Student,,,sub-49
Desktop or Laptop,Windows 10,Chrome 138.0.0.0,1920x1080,1920x953,Temporal Distance Task,cb_01,17.0,temp_dist_trial,dist_items,qkpkxw,2.0,continue,,1334.6999999999969,1318.0,1334.6999999999969,1334.6999999999969,1318.0,1334.6999999999969,1.0,0.0,0.0,,Click To Continue,Next button,7.0,object-60,temp_dist_trial,17.0,s_sh_16_1,student_shared,stapler,1.0,competing,paired,s_sh_16_1.jpg,Student,,,sub-49
Desktop or Laptop,Windows 10,Chrome 138.0.0.0,1920x1080,1920x953,Temporal Distance Task,cb_01,17.0,temp_dist_trial,dist_items,qkpkxw,2.0,response,46,700.6999999999971,1318.0,1334.6999999999969,700.6999999999971,1318.0,1334.6999999999969,1.0,634.0,0.0,,Slider,Slider,4.0,object-56,temp_dist_trial,17.0,s_sh_16_1,student_shared,stapler,1.0,competing,paired,s_sh_16_1.jpg,Student,,,sub-49
Desktop or Laptop,Windows 10,Chrome 138.0.0.0,1920x1080,1920x953,Temporal Distance Task,cb_01,18.0,temp_dist_trial,num_items,zn7si1,1.0,response,1_ITEM,1223.8999999940424,1217.9000000000087,1223.8999999940424,1223.8999999940424,1217.9000000000087,1223.8999999940424,1.0,0.0,0.0,,Click Response,1_count,3.0,object-46,temp_dist_trial,18.0,s_a_05_1,student_art,clay,1.0,unique,single,s_a_05_1.jpg,Student,,,sub-49
Desktop or Laptop,Windows 10,Chrome 138.0.0.0,1920x1080,1920x953,Temporal Distance Task,cb_01,19.0,temp_dist_trial,num_items,zn7si1,1.0,response,2_ITEM,1066.6999999999969,1051.0999999999913,1066.6999999999969,1066.6999999999969,1051.0999999999913,1066.6999999999969,1.0,0.0,0.0,,Click Response,2_count,5.0,object-49,temp_dist_trial,19.0,s_s_12_1,student_stem,robotic arm,1.0,unique,paired,s_s_12_1.jpg,Student,,,sub-49
Desktop or Laptop,Windows 10,Chrome 138.0.0.0,1920x1080,1920x953,Temporal Distance Task,cb_01,19.0,temp_dist_trial,dist_items,qkpkxw,2.0,info,,5.499999994033715,0.0,5.499999994033715,5.499999994033715,0.0,5.499999994033715,1.0,0.0,0.0,,Slider,Slider,4.0,object-56,temp_dist_trial,19.0,s_s_12_1,student_stem,robotic arm,1.0,unique,paired,s_s_12_1.jpg,Student,,,sub-49
Desktop or Laptop,Windows 10,Chrome 138.0.0.0,1920x1080,1920x953,Temporal Distance Task,cb_01,19.0,temp_dist_trial,dist_items,qkpkxw,2.0,continue,,1571.699999997014,1568.2999999999884,1571.699999997014,1571.699999997014,1568.2999999999884,1571.699999997014,1.0,0.0,0.0,,Click To Continue,Next button,7.0,object-60,temp_dist_trial,19.0,s_s_12_1,student_stem,robotic arm,1.0,unique,paired,s_s_12_1.jpg,Student,,,sub-49
Desktop or Laptop,Windows 10,Chrome 138.0.0.0,1920x1080,1920x953,Temporal Distance Task,cb_01,19.0,temp_dist_trial,dist_items,qkpkxw,2.0,response,73,934.2999999999884,1568.2999999999884,1572.3999999999942,934.2999999999884,1568.2999999999884,1572.3999999999942,1.0,638.1000000000057,0.0,,Slider,Slider,4.0,object-56,temp_dist_trial,19.0,s_s_12_1,student_stem,robotic arm,1.0,unique,paired,s_s_12_1.jpg,Student,,,sub-49
Desktop or Laptop,Windows 10,Chrome 138.0.0.0,1920x1080,1920x953,Temporal Distance Task,cb_01,20.0,temp_dist_trial,num_items,zn7si1,1.0,response,2_ITEM,1988.9999999910647,1985.3000000000034,1988.9999999910647,1988.9999999910647,1985.3000000000034,1988.9999999910647,1.0,0.0,0.0,,Click Response,2_count,5.0,object-49,temp_dist_trial,20.0,s_sh_14_1,student_shared,printer,1.0,competing,paired,s_sh_14_1.jpg,Student,,,sub-49
Desktop or Laptop,Windows 10,Chrome 138.0.0.0,1920x1080,1920x953,Temporal Distance Task,cb_01,20.0,temp_dist_trial,dist_items,qkpkxw,2.0,info,,4.8999999910593015,0.0,4.8999999910593015,4.8999999910593015,0.0,4.8999999910593015,1.0,0.0,0.0,,Slider,Slider,4.0,object-56,temp_dist_trial,20.0,s_sh_14_1,student_shared,printer,1.0,competing,paired,s_sh_14_1.jpg,Student,,,sub-49
Desktop or Laptop,Windows 10,Chrome 138.0.0.0,1920x1080,1920x953,Temporal Distance Task,cb_01,20.0,temp_dist_trial,dist_items,qkpkxw,2.0,continue,,1779.8999999910593,1768.3999999999942,1779.8999999910593,1779.8999999910593,1768.3999999999942,1779.8999999910593,1.0,0.0,0.0,,Click To Continue,Next button,7.0,object-60,temp_dist_trial,20.0,s_sh_14_1,student_shared,printer,1.0,competing,paired,s_sh_14_1.jpg,Student,,,sub-49
Desktop or Laptop,Windows 10,Chrome 138.0.0.0,1920x1080,1920x953,Temporal Distance Task,cb_01,20.0,temp_dist_trial,dist_items,qkpkxw,2.0,response,77,1067.6999999999969,1768.3999999999942,1780.2999999970193,1067.6999999999969,1768.3999999999942,1780.2999999970193,1.0,712.5999999970227,0.0,,Slider,Slider,4.0,object-56,temp_dist_trial,20.0,s_sh_14_1,student_shared,printer,1.0,competing,paired,s_sh_14_1.jpg,Student,,,sub-49
Desktop or Laptop,Windows 10,Chrome 138.0.0.0,1920x1080,1920x953,Temporal Distance Task,cb_01,21.0,temp_dist_trial,num_items,zn7si1,1.0,response,2_ITEM,1318.9999999910651,1317.9000000000087,1318.9999999910651,1318.9999999910651,1317.9000000000087,1318.9999999910651,1.0,0.0,0.0,,Click Response,2_count,5.0,object-49,temp_dist_trial,21.0,s_sh_24_1,student_shared,desk organizer,1.0,competing,paired,s_sh_24_1.jpg,Student,,,sub-49
Desktop or Laptop,Windows 10,Chrome 138.0.0.0,1920x1080,1920x953,Temporal Distance Task,cb_01,21.0,temp_dist_trial,dist_items,qkpkxw,2.0,info,,6.599999997022677,0.0,6.599999997022677,6.599999997022677,0.0,6.599999997022677,1.0,0.0,0.0,,Slider,Slider,4.0,object-56,temp_dist_trial,21.0,s_sh_24_1,student_shared,desk organizer,1.0,competing,paired,s_sh_24_1.jpg,Student,,,sub-49
Desktop or Laptop,Windows 10,Chrome 138.0.0.0,1920x1080,1920x953,Temporal Distance Task,cb_01,21.0,temp_dist_trial,dist_items,qkpkxw,2.0,continue,,1644.8000000000034,1634.900000000009,1644.8000000000034,1644.8000000000034,1634.900000000009,1644.8000000000034,1.0,0.0,0.0,,Click To Continue,Next button,7.0,object-60,temp_dist_trial,21.0,s_sh_24_1,student_shared,desk organizer,1.0,competing,paired,s_sh_24_1.jpg,Student,,,sub-49
Desktop or Laptop,Windows 10,Chrome 138.0.0.0,1920x1080,1920x953,Temporal Distance Task,cb_01,21.0,temp_dist_trial,dist_items,qkpkxw,2.0,response,47,850.8000000000029,1634.900000000009,1645.5000000029834,850.8000000000029,1634.900000000009,1645.5000000029834,1.0,794.7000000029802,0.0,,Slider,Slider,4.0,object-56,temp_dist_trial,21.0,s_sh_24_1,student_shared,desk organizer,1.0,competing,paired,s_sh_24_1.jpg,Student,,,sub-49
Desktop or Laptop,Windows 10,Chrome 138.0.0.0,1920x1080,1920x953,Temporal Distance Task,cb_01,22.0,temp_dist_trial,num_items,zn7si1,1.0,response,2_ITEM,1087.3999999999942,1084.3999999999942,1087.3999999999942,1087.3999999999942,1084.3999999999942,1087.3999999999942,1.0,0.0,0.0,,Click Response,2_count,5.0,object-49,temp_dist_trial,22.0,s_sh_07_1,student_shared,ruler,1.0,competing,paired,s_sh_07_1.jpg,Student,,,sub-49
Desktop or Laptop,Windows 10,Chrome 138.0.0.0,1920x1080,1920x953,Temporal Distance Task,cb_01,22.0,temp_dist_trial,dist_items,qkpkxw,2.0,info,,5.4999999970168565,0.0,5.4999999970168565,5.4999999970168565,0.0,5.4999999970168565,1.0,0.0,0.0,,Slider,Slider,4.0,object-56,temp_dist_trial,22.0,s_sh_07_1,student_shared,ruler,1.0,competing,paired,s_sh_07_1.jpg,Student,,,sub-49
Desktop or Laptop,Windows 10,Chrome 138.0.0.0,1920x1080,1920x953,Temporal Distance Task,cb_01,22.0,temp_dist_trial,dist_items,qkpkxw,2.0,continue,,1236.9999999970169,1234.5,1236.9999999970169,1236.9999999970169,1234.5,1236.9999999970169,1.0,0.0,0.0,,Click To Continue,Next button,7.0,object-60,temp_dist_trial,22.0,s_sh_07_1,student_shared,ruler,1.0,competing,paired,s_sh_07_1.jpg,Student,,,sub-49
Desktop or Laptop,Windows 10,Chrome 138.0.0.0,1920x1080,1920x953,Temporal Distance Task,cb_01,22.0,temp_dist_trial,dist_items,qkpkxw,2.0,response,57,600.5,1234.5,1237.6999999999969,600.5,1234.5,1237.6999999999969,1.0,637.1999999999971,0.0,,Slider,Slider,4.0,object-56,temp_dist_trial,22.0,s_sh_07_1,student_shared,ruler,1.0,competing,paired,s_sh_07_1.jpg,Student,,,sub-49
Desktop or Laptop,Windows 10,Chrome 138.0.0.0,1920x1080,1920x953,Temporal Distance Task,cb_01,23.0,temp_dist_trial,num_items,zn7si1,1.0,response,2_ITEM,1517.4999999970166,1501.599999999991,1517.4999999970166,1517.4999999970166,1501.599999999991,1517.4999999970166,1.0,0.0,0.0,,Click Response,2_count,5.0,object-49,temp_dist_trial,23.0,s_sh_12_1,student_shared,binder,1.0,competing,paired,s_sh_12_1.jpg,Student,,,sub-49
Desktop or Laptop,Windows 10,Chrome 138.0.0.0,1920x1080,1920x953,Temporal Distance Task,cb_01,23.0,temp_dist_trial,dist_items,qkpkxw,2.0,info,,6.500000002983142,0.0,6.500000002983142,6.500000002983142,0.0,6.500000002983142,1.0,0.0,0.0,,Slider,Slider,4.0,object-56,temp_dist_trial,23.0,s_sh_12_1,student_shared,binder,1.0,competing,paired,s_sh_12_1.jpg,Student,,,sub-49
Desktop or Laptop,Windows 10,Chrome 138.0.0.0,1920x1080,1920x953,Temporal Distance Task,cb_01,23.0,temp_dist_trial,dist_items,qkpkxw,2.0,continue,,1896.3999999940424,1885.1000000000056,1896.3999999940424,1896.3999999940424,1885.1000000000056,1896.3999999940424,1.0,0.0,0.0,,Click To Continue,Next button,7.0,object-60,temp_dist_trial,23.0,s_sh_12_1,student_shared,binder,1.0,competing,paired,s_sh_12_1.jpg,Student,,,sub-49
Desktop or Laptop,Windows 10,Chrome 138.0.0.0,1920x1080,1920x953,Temporal Distance Task,cb_01,23.0,temp_dist_trial,dist_items,qkpkxw,2.0,response,58,884.1000000000058,1885.1000000000056,1901.8000000000034,884.1000000000058,1885.1000000000056,1901.8000000000034,1.0,1017.6999999999972,0.0,,Slider,Slider,4.0,object-56,temp_dist_trial,23.0,s_sh_12_1,student_shared,binder,1.0,competing,paired,s_sh_12_1.jpg,Student,,,sub-49
Desktop or Laptop,Windows 10,Chrome 138.0.0.0,1920x1080,1920x953,Temporal Distance Task,cb_01,24.0,temp_dist_trial,num_items,zn7si1,1.0,response,2_ITEM,1015.9999999970167,1001.0,1015.9999999970167,1015.9999999970167,1001.0,1015.9999999970167,1.0,0.0,0.0,,Click Response,2_count,5.0,object-49,temp_dist_trial,24.0,s_sh_23_1,student_shared,ballpoint pen,1.0,competing,paired,s_sh_23_1.jpg,Student,,,sub-49
Desktop or Laptop,Windows 10,Chrome 138.0.0.0,1920x1080,1920x953,Temporal Distance Task,cb_01,24.0,temp_dist_trial,dist_items,qkpkxw,2.0,info,,5.599999994039536,0.0,5.599999994039536,5.599999994039536,0.0,5.599999994039536,1.0,0.0,0.0,,Slider,Slider,4.0,object-56,temp_dist_trial,24.0,s_sh_23_1,student_shared,ballpoint pen,1.0,competing,paired,s_sh_23_1.jpg,Student,,,sub-49
Desktop or Laptop,Windows 10,Chrome 138.0.0.0,1920x1080,1920x953,Temporal Distance Task,cb_01,24.0,temp_dist_trial,dist_items,qkpkxw,2.0,continue,,1144.8999999910593,1134.5,1144.8999999910593,1144.8999999910593,1134.5,1144.8999999910593,1.0,0.0,0.0,,Click To Continue,Next button,7.0,object-60,temp_dist_trial,24.0,s_sh_23_1,student_shared,ballpoint pen,1.0,competing,paired,s_sh_23_1.jpg,Student,,,sub-49
Desktop or Laptop,Windows 10,Chrome 138.0.0.0,1920x1080,1920x953,Temporal Distance Task,cb_01,24.0,temp_dist_trial,dist_items,qkpkxw,2.0,response,61,450.8999999999942,1134.5,1145.0999999940395,450.8999999999942,1134.5,1145.0999999940395,1.0,694.1999999940454,0.0,,Slider,Slider,4.0,object-56,temp_dist_trial,24.0,s_sh_23_1,student_shared,ballpoint pen,1.0,competing,paired,s_sh_23_1.jpg,Student,,,sub-49
Desktop or Laptop,Windows 10,Chrome 138.0.0.0,1920x1080,1920x953,Temporal Distance Task,cb_01,25.0,temp_dist_trial,num_items,zn7si1,1.0,response,2_ITEM,1068.5,1067.6999999999969,1068.5,1068.5,1067.6999999999969,1068.5,1.0,0.0,0.0,,Click Response,2_count,5.0,object-49,temp_dist_trial,25.0,s_a_02_1,student_art,canvas,1.0,unique,paired,s_a_02_1.jpg,Student,,,sub-49
Desktop or Laptop,Windows 10,Chrome 138.0.0.0,1920x1080,1920x953,Temporal Distance Task,cb_01,25.0,temp_dist_trial,dist_items,qkpkxw,2.0,info,,4.199999997013947,0.0,4.199999997013947,4.199999997013947,0.0,4.199999997013947,1.0,0.0,0.0,,Slider,Slider,4.0,object-56,temp_dist_trial,25.0,s_a_02_1,student_art,canvas,1.0,unique,paired,s_a_02_1.jpg,Student,,,sub-49
Desktop or Laptop,Windows 10,Chrome 138.0.0.0,1920x1080,1920x953,Temporal Distance Task,cb_01,25.0,temp_dist_trial,dist_items,qkpkxw,2.0,continue,,1484.6000000000058,1468.0,1484.6000000000058,1484.6000000000058,1468.0,1484.6000000000058,1.0,0.0,0.0,,Click To Continue,Next button,7.0,object-60,temp_dist_trial,25.0,s_a_02_1,student_art,canvas,1.0,unique,paired,s_a_02_1.jpg,Student,,,sub-49
Desktop or Laptop,Windows 10,Chrome 138.0.0.0,1920x1080,1920x953,Temporal Distance Task,cb_01,25.0,temp_dist_trial,dist_items,qkpkxw,2.0,response,35,784.0999999999913,1468.0,1484.6000000000058,784.0999999999913,1468.0,1484.6000000000058,1.0,700.5000000000148,0.0,,Slider,Slider,4.0,object-56,temp_dist_trial,25.0,s_a_02_1,student_art,canvas,1.0,unique,paired,s_a_02_1.jpg,Student,,,sub-49
Desktop or Laptop,Windows 10,Chrome 138.0.0.0,1920x1080,1920x953,Temporal Distance Task,cb_01,26.0,temp_dist_trial,num_items,zn7si1,1.0,response,1_ITEM,1384.1000000029746,1368.0,1384.1000000029746,1384.1000000029746,1368.0,1384.1000000029746,1.0,0.0,0.0,,Click Response,1_count,3.0,object-46,temp_dist_trial,26.0,s_s_19_1,student_stem,circuit board,1.0,unique,single,s_s_19_1.jpg,Student,,,sub-49
Desktop or Laptop,Windows 10,Chrome 138.0.0.0,1920x1080,1920x953,Temporal Distance Task,cb_01,27.0,temp_dist_trial,num_items,zn7si1,1.0,response,1_ITEM,1835.1999999999966,1818.5,1835.1999999999966,1835.1999999999966,1818.5,1835.1999999999966,1.0,0.0,0.0,,Click Response,1_count,3.0,object-46,temp_dist_trial,27.0,s_a_14_1,student_art,guitar pick,1.0,unique,single,s_a_14_1.jpg,Student,,,sub-49
Desktop or Laptop,Windows 10,Chrome 138.0.0.0,1920x1080,1920x953,Temporal Distance Task,cb_01,28.0,temp_dist_trial,num_items,zn7si1,1.0,response,2_ITEM,1115.0000000029831,1101.0,1115.0000000029831,1115.0000000029831,1101.0,1115.0000000029831,1.0,0.0,0.0,,Click Response,2_count,5.0,object-49,temp_dist_trial,28.0,s_s_09_1,student_stem,multimeter,1.0,unique,paired,s_s_09_1.jpg,Student,,,sub-49
Desktop or Laptop,Windows 10,Chrome 138.0.0.0,1920x1080,1920x953,Temporal Distance Task,cb_01,28.0,temp_dist_trial,dist_items,qkpkxw,2.0,info,,6.799999997019768,0.0,6.799999997019768,6.799999997019768,0.0,6.799999997019768,1.0,0.0,0.0,,Slider,Slider,4.0,object-56,temp_dist_trial,28.0,s_s_09_1,student_stem,multimeter,1.0,unique,paired,s_s_09_1.jpg,Student,,,sub-49
Desktop or Laptop,Windows 10,Chrome 138.0.0.0,1920x1080,1920x953,Temporal Distance Task,cb_01,28.0,temp_dist_trial,dist_items,qkpkxw,2.0,continue,,1428.8999999910593,1418.1000000000058,1428.8999999910593,1428.8999999910593,1418.1000000000058,1428.8999999910593,1.0,0.0,0.0,,Click To Continue,Next button,7.0,object-60,temp_dist_trial,28.0,s_s_09_1,student_stem,multimeter,1.0,unique,paired,s_s_09_1.jpg,Student,,,sub-49
Desktop or Laptop,Windows 10,Chrome 138.0.0.0,1920x1080,1920x953,Temporal Distance Task,cb_01,28.0,temp_dist_trial,dist_items,qkpkxw,2.0,response,42,750.6999999999971,1418.1000000000058,1429.3999999910593,750.6999999999971,1418.1000000000058,1429.3999999910593,1.0,678.6999999910622,0.0,,Slider,Slider,4.0,object-56,temp_dist_trial,28.0,s_s_09_1,student_stem,multimeter,1.0,unique,paired,s_s_09_1.jpg,Student,,,sub-49
Desktop or Laptop,Windows 10,Chrome 138.0.0.0,1920x1080,1920x953,Temporal Distance Task,cb_01,29.0,temp_dist_trial,num_items,zn7si1,1.0,response,2_ITEM,1245.2999999910535,1234.5,1245.2999999910535,1245.2999999910535,1234.5,1245.2999999910535,1.0,0.0,0.0,,Click Response,2_count,5.0,object-49,temp_dist_trial,29.0,s_a_20_1,student_art,pin cushion,1.0,unique,paired,s_a_20_1.jpg,Student,,,sub-49
Desktop or Laptop,Windows 10,Chrome 138.0.0.0,1920x1080,1920x953,Temporal Distance Task,cb_01,29.0,temp_dist_trial,dist_items,qkpkxw,2.0,info,,6.499999991065124,0.0,6.499999991065124,6.499999991065124,0.0,6.499999991065124,1.0,0.0,0.0,,Slider,Slider,4.0,object-56,temp_dist_trial,29.0,s_a_20_1,student_art,pin cushion,1.0,unique,paired,s_a_20_1.jpg,Student,,,sub-49
Desktop or Laptop,Windows 10,Chrome 138.0.0.0,1920x1080,1920x953,Temporal Distance Task,cb_01,29.0,temp_dist_trial,dist_items,qkpkxw,2.0,continue,,1888.4999999910647,1885.2000000000119,1888.4999999910647,1888.4999999910647,1885.2000000000119,1888.4999999910647,1.0,0.0,0.0,,Click To Continue,Next button,7.0,object-60,temp_dist_trial,29.0,s_a_20_1,student_art,pin cushion,1.0,unique,paired,s_a_20_1.jpg,Student,,,sub-49
Desktop or Laptop,Windows 10,Chrome 138.0.0.0,1920x1080,1920x953,Temporal Distance Task,cb_01,29.0,temp_dist_trial,dist_items,qkpkxw,2.0,response,41,1117.7000000000116,1885.2000000000119,1889.1000000000056,1117.7000000000116,1885.2000000000119,1889.1000000000056,1.0,771.3999999999942,0.0,,Slider,Slider,4.0,object-56,temp_dist_trial,29.0,s_a_20_1,student_art,pin cushion,1.0,unique,paired,s_a_20_1.jpg,Student,,,sub-49
Desktop or Laptop,Windows 10,Chrome 138.0.0.0,1920x1080,1920x953,Temporal Distance Task,cb_01,30.0,temp_dist_trial,num_items,zn7si1,1.0,response,1_ITEM,1392.4999999940335,1384.6999999999966,1392.4999999940335,1392.4999999940335,1384.6999999999966,1392.4999999940335,1.0,0.0,0.0,,Click Response,1_count,3.0,object-46,temp_dist_trial,30.0,s_s_18_1,student_stem,brain model,1.0,unique,paired,s_s_18_1.jpg,Student,,,sub-49
Desktop or Laptop,Windows 10,Chrome 138.0.0.0,1920x1080,1920x953,Temporal Distance Task,cb_01,31.0,temp_dist_trial,num_items,zn7si1,1.0,response,1_ITEM,1785.3000000000034,1768.5,1785.3000000000034,1785.3000000000034,1768.5,1785.3000000000034,1.0,0.0,0.0,,Click Response,1_count,3.0,object-46,temp_dist_trial,31.0,s_s_04_1,student_stem,bunsen burner,1.0,unique,paired,s_s_04_1.jpg,Student,,,sub-49
Desktop or Laptop,Windows 10,Chrome 138.0.0.0,1920x1080,1920x953,Temporal Distance Task,cb_01,32.0,temp_dist_trial,num_items,zn7si1,1.0,response,2_ITEM,922.1999999910623,917.6000000000058,922.1999999910623,922.1999999910623,917.6000000000058,922.1999999910623,1.0,0.0,0.0,,Click Response,2_count,5.0,object-49,temp_dist_trial,32.0,s_a_19_1,student_art,ballet shoes,1.0,unique,paired,s_a_19_1.jpg,Student,,,sub-49
Desktop or Laptop,Windows 10,Chrome 138.0.0.0,1920x1080,1920x953,Temporal Distance Task,cb_01,32.0,temp_dist_trial,dist_items,qkpkxw,2.0,info,,4.500000002983144,0.0,4.500000002983144,4.500000002983144,0.0,4.500000002983144,1.0,0.0,0.0,,Slider,Slider,4.0,object-56,temp_dist_trial,32.0,s_a_19_1,student_art,ballet shoes,1.0,unique,paired,s_a_19_1.jpg,Student,,,sub-49
Desktop or Laptop,Windows 10,Chrome 138.0.0.0,1920x1080,1920x953,Temporal Distance Task,cb_01,32.0,temp_dist_trial,dist_items,qkpkxw,2.0,continue,,3248.0999999970227,3236.400000000009,3248.0999999970227,3248.0999999970227,3236.400000000009,3248.0999999970227,1.0,0.0,0.0,,Click To Continue,Next button,7.0,object-60,temp_dist_trial,32.0,s_a_19_1,student_art,ballet shoes,1.0,unique,paired,s_a_19_1.jpg,Student,,,sub-49
Desktop or Laptop,Windows 10,Chrome 138.0.0.0,1920x1080,1920x953,Temporal Distance Task,cb_01,32.0,temp_dist_trial,dist_items,qkpkxw,2.0,response,60,600.4000000000087,3236.400000000009,3253.100000000021,600.4000000000087,3236.400000000009,3253.100000000021,1.0,2652.700000000012,0.0,,Slider,Slider,4.0,object-56,temp_dist_trial,32.0,s_a_19_1,student_art,ballet shoes,1.0,unique,paired,s_a_19_1.jpg,Student,,,sub-49
Desktop or Laptop,Windows 10,Chrome 138.0.0.0,1920x1080,1920x953,Temporal Distance Task,cb_01,33.0,temp_dist_trial,num_items,zn7si1,1.0,response,2_ITEM,1301.3999999999942,1284.6999999999969,1301.3999999999942,1301.3999999999942,1284.6999999999969,1301.3999999999942,1.0,0.0,0.0,,Click Response,2_count,5.0,object-49,temp_dist_trial,33.0,s_a_18_1,student_art,tutu,1.0,unique,single,s_a_18_1.jpg,Student,,,sub-49
Desktop or Laptop,Windows 10,Chrome 138.0.0.0,1920x1080,1920x953,Temporal Distance Task,cb_01,33.0,temp_dist_trial,dist_items,qkpkxw,2.0,info,,5.200000002980231,0.0,5.200000002980231,5.200000002980231,0.0,5.200000002980231,1.0,0.0,0.0,,Slider,Slider,4.0,object-56,temp_dist_trial,33.0,s_a_18_1,student_art,tutu,1.0,unique,single,s_a_18_1.jpg,Student,,,sub-49
Desktop or Laptop,Windows 10,Chrome 138.0.0.0,1920x1080,1920x953,Temporal Distance Task,cb_01,33.0,temp_dist_trial,dist_items,qkpkxw,2.0,continue,,2007.20000000298,2002.0,2007.20000000298,2007.20000000298,2002.0,2007.20000000298,1.0,0.0,0.0,,Click To Continue,Next button,7.0,object-60,temp_dist_trial,33.0,s_a_18_1,student_art,tutu,1.0,unique,single,s_a_18_1.jpg,Student,,,sub-49
Desktop or Laptop,Windows 10,Chrome 138.0.0.0,1920x1080,1920x953,Temporal Distance Task,cb_01,33.0,temp_dist_trial,dist_items,qkpkxw,2.0,response,40,1384.6999999999966,2002.0,2007.70000000298,1384.6999999999966,2002.0,2007.70000000298,1.0,623.0000000029831,0.0,,Slider,Slider,4.0,object-56,temp_dist_trial,33.0,s_a_18_1,student_art,tutu,1.0,unique,single,s_a_18_1.jpg,Student,,,sub-49
Desktop or Laptop,Windows 10,Chrome 138.0.0.0,1920x1080,1920x953,Temporal Distance Task,cb_01,34.0,temp_dist_trial,num_items,zn7si1,1.0,response,2_ITEM,1360.2999999970198,1351.3000000000031,1360.2999999970198,1360.2999999970198,1351.3000000000031,1360.2999999970198,1.0,0.0,0.0,,Click Response,2_count,5.0,object-49,temp_dist_trial,34.0,s_sh_02_1,student_shared,eraser,1.0,competing,paired,s_sh_02_1.jpg,Student,,,sub-49
Desktop or Laptop,Windows 10,Chrome 138.0.0.0,1920x1080,1920x953,Temporal Distance Task,cb_01,34.0,temp_dist_trial,dist_items,qkpkxw,2.0,info,,6.3000000000029095,0.0,6.3000000000029095,6.3000000000029095,0.0,6.3000000000029095,1.0,0.0,0.0,,Slider,Slider,4.0,object-56,temp_dist_trial,34.0,s_sh_02_1,student_shared,eraser,1.0,competing,paired,s_sh_02_1.jpg,Student,,,sub-49
Desktop or Laptop,Windows 10,Chrome 138.0.0.0,1920x1080,1920x953,Temporal Distance Task,cb_01,34.0,temp_dist_trial,dist_items,qkpkxw,2.0,continue,,1271.5000000029831,1267.8000000000031,1271.5000000029831,1271.5000000029831,1267.8000000000031,1271.5000000029831,1.0,0.0,0.0,,Click To Continue,Next button,7.0,object-60,temp_dist_trial,34.0,s_sh_02_1,student_shared,eraser,1.0,competing,paired,s_sh_02_1.jpg,Student,,,sub-49
Desktop or Laptop,Windows 10,Chrome 138.0.0.0,1920x1080,1920x953,Temporal Distance Task,cb_01,34.0,temp_dist_trial,dist_items,qkpkxw,2.0,response,63,633.9000000000087,1267.8000000000031,1272.3000000000031,633.9000000000087,1267.8000000000031,1272.3000000000031,1.0,638.3999999999943,0.0,,Slider,Slider,4.0,object-56,temp_dist_trial,34.0,s_sh_02_1,student_shared,eraser,1.0,competing,paired,s_sh_02_1.jpg,Student,,,sub-49
Desktop or Laptop,Windows 10,Chrome 138.0.0.0,1920x1080,1920x953,Temporal Distance Task,cb_01,35.0,temp_dist_trial,num_items,zn7si1,1.0,response,2_ITEM,1154.8999999910593,1151.1999999999969,1154.8999999910593,1154.8999999910593,1151.1999999999969,1154.8999999910593,1.0,0.0,0.0,,Click Response,2_count,5.0,object-49,temp_dist_trial,35.0,s_sh_19_1,student_shared,portable plastic drawer,1.0,competing,paired,s_sh_19_1.jpg,Student,,,sub-49
Desktop or Laptop,Windows 10,Chrome 138.0.0.0,1920x1080,1920x953,Temporal Distance Task,cb_01,35.0,temp_dist_trial,dist_items,qkpkxw,2.0,info,,5.699999994045356,0.0,5.699999994045356,5.699999994045356,0.0,5.699999994045356,1.0,0.0,0.0,,Slider,Slider,4.0,object-56,temp_dist_trial,35.0,s_sh_19_1,student_shared,portable plastic drawer,1.0,competing,paired,s_sh_19_1.jpg,Student,,,sub-49
Desktop or Laptop,Windows 10,Chrome 138.0.0.0,1920x1080,1920x953,Temporal Distance Task,cb_01,35.0,temp_dist_trial,dist_items,qkpkxw,2.0,continue,,1758.800000002986,1751.8000000000034,1758.800000002986,1758.800000002986,1751.8000000000034,1758.800000002986,1.0,0.0,0.0,,Click To Continue,Next button,7.0,object-60,temp_dist_trial,35.0,s_sh_19_1,student_shared,portable plastic drawer,1.0,competing,paired,s_sh_19_1.jpg,Student,,,sub-49
Desktop or Laptop,Windows 10,Chrome 138.0.0.0,1920x1080,1920x953,Temporal Distance Task,cb_01,35.0,temp_dist_trial,dist_items,qkpkxw,2.0,response,43,967.6000000000058,1751.8000000000034,1759.6000000000058,967.6000000000058,1751.8000000000034,1759.6000000000058,1.0,792.0,0.0,,Slider,Slider,4.0,object-56,temp_dist_trial,35.0,s_sh_19_1,student_shared,portable plastic drawer,1.0,competing,paired,s_sh_19_1.jpg,Student,,,sub-49
Desktop or Laptop,Windows 10,Chrome 138.0.0.0,1920x1080,1920x953,Temporal Distance Task,cb_01,36.0,temp_dist_trial,num_items,zn7si1,1.0,response,1_ITEM,1082.3000000000031,1067.6999999999969,1082.3000000000031,1082.3000000000031,1067.6999999999969,1082.3000000000031,1.0,0.0,0.0,,Click Response,1_count,3.0,object-46,temp_dist_trial,36.0,s_sh_20_1,student_shared,tape,1.0,competing,single,s_sh_20_1.jpg,Student,,,sub-49
Desktop or Laptop,Windows 10,Chrome 138.0.0.0,1920x1080,1920x953,Temporal Distance Task,cb_01,37.0,temp_dist_trial,num_items,zn7si1,1.0,response,1_ITEM,1408.7999999940366,1401.1999999999966,1408.7999999940366,1408.7999999940366,1401.1999999999966,1408.7999999940366,1.0,0.0,0.0,,Click Response,1_count,3.0,object-46,temp_dist_trial,37.0,s_sh_09_1,student_shared,paper clips,1.0,competing,single,s_sh_09_1.jpg,Student,,,sub-49
Desktop or Laptop,Windows 10,Chrome 138.0.0.0,1920x1080,1920x953,Temporal Distance Task,cb_01,38.0,temp_dist_trial,num_items,zn7si1,1.0,response,2_ITEM,1239.2000000000114,1234.6000000000058,1239.2000000000114,1239.2000000000114,1234.6000000000058,1239.2000000000114,1.0,0.0,0.0,,Click Response,2_count,5.0,object-49,temp_dist_trial,38.0,s_sh_15_1,student_shared,usb drive,1.0,competing,paired,s_sh_15_1.jpg,Student,,,sub-49
Desktop or Laptop,Windows 10,Chrome 138.0.0.0,1920x1080,1920x953,Temporal Distance Task,cb_01,38.0,temp_dist_trial,dist_items,qkpkxw,2.0,info,,7.399999994027892,0.0,7.399999994027892,7.399999994027892,0.0,7.399999994027892,1.0,0.0,0.0,,Slider,Slider,4.0,object-56,temp_dist_trial,38.0,s_sh_15_1,student_shared,usb drive,1.0,competing,paired,s_sh_15_1.jpg,Student,,,sub-49
Desktop or Laptop,Windows 10,Chrome 138.0.0.0,1920x1080,1920x953,Temporal Distance Task,cb_01,38.0,temp_dist_trial,dist_items,qkpkxw,2.0,continue,,1968.0000000029688,1951.8999999999944,1968.0000000029688,1968.0000000029688,1951.8999999999944,1968.0000000029688,1.0,0.0,0.0,,Click To Continue,Next button,7.0,object-60,temp_dist_trial,38.0,s_sh_15_1,student_shared,usb drive,1.0,competing,paired,s_sh_15_1.jpg,Student,,,sub-49
Desktop or Laptop,Windows 10,Chrome 138.0.0.0,1920x1080,1920x953,Temporal Distance Task,cb_01,38.0,temp_dist_trial,dist_items,qkpkxw,2.0,response,66,984.2999999999884,1951.8999999999944,1968.5000000029688,984.2999999999884,1951.8999999999944,1968.5000000029688,1.0,984.2000000029802,0.0,,Slider,Slider,4.0,object-56,temp_dist_trial,38.0,s_sh_15_1,student_shared,usb drive,1.0,competing,paired,s_sh_15_1.jpg,Student,,,sub-49
Desktop or Laptop,Windows 10,Chrome 138.0.0.0,1920x1080,1920x953,Temporal Distance Task,cb_01,39.0,temp_dist_trial,num_items,zn7si1,1.0,response,2_ITEM,2005.6000000029746,2002.0,2005.6000000029746,2005.6000000029746,2002.0,2005.6000000029746,1.0,0.0,0.0,,Click Response,2_count,5.0,object-49,temp_dist_trial,39.0,s_a_11_1,student_art,clapperboard,1.0,unique,paired,s_a_11_1.jpg,Student,,,sub-49
Desktop or Laptop,Windows 10,Chrome 138.0.0.0,1920x1080,1920x953,Temporal Distance Task,cb_01,39.0,temp_dist_trial,dist_items,qkpkxw,2.0,info,,7.899999994027892,0.0,7.899999994027892,7.899999994027892,0.0,7.899999994027892,1.0,0.0,0.0,,Slider,Slider,4.0,object-56,temp_dist_trial,39.0,s_a_11_1,student_art,clapperboard,1.0,unique,paired,s_a_11_1.jpg,Student,,,sub-49
Desktop or Laptop,Windows 10,Chrome 138.0.0.0,1920x1080,1920x953,Temporal Distance Task,cb_01,39.0,temp_dist_trial,dist_items,qkpkxw,2.0,continue,,1628.6999999910474,1618.0,1628.6999999910474,1628.6999999910474,1618.0,1628.6999999910474,1.0,0.0,0.0,,Click To Continue,Next button,7.0,object-60,temp_dist_trial,39.0,s_a_11_1,student_art,clapperboard,1.0,unique,paired,s_a_11_1.jpg,Student,,,sub-49
Desktop or Laptop,Windows 10,Chrome 138.0.0.0,1920x1080,1920x953,Temporal Distance Task,cb_01,39.0,temp_dist_trial,dist_items,qkpkxw,2.0,response,29,700.3999999999942,1618.0,1629.5000000029684,700.3999999999942,1618.0,1629.5000000029684,1.0,929.1000000029744,0.0,,Slider,Slider,4.0,object-56,temp_dist_trial,39.0,s_a_11_1,student_art,clapperboard,1.0,unique,paired,s_a_11_1.jpg,Student,,,sub-49
Desktop or Laptop,Windows 10,Chrome 138.0.0.0,1920x1080,1920x953,Temporal Distance Task,cb_01,40.0,temp_dist_trial,num_items,zn7si1,1.0,response,1_ITEM,2218.2999999999884,2202.1999999999825,2218.2999999999884,2218.2999999999884,2202.1999999999825,2218.2999999999884,1.0,0.0,0.0,,Click Response,1_count,3.0,object-46,temp_dist_trial,40.0,s_sh_21_1,student_shared,file holder,1.0,competing,paired,s_sh_21_1.jpg,Student,,,sub-49
Desktop or Laptop,Windows 10,Chrome 138.0.0.0,1920x1080,1920x953,Temporal Distance Task,cb_01,41.0,temp_dist_trial,num_items,zn7si1,1.0,response,2_ITEM,1868.3999999999944,1851.7999999999884,1868.3999999999944,1868.3999999999944,1851.7999999999884,1868.3999999999944,1.0,0.0,0.0,,Click Response,2_count,5.0,object-49,temp_dist_trial,41.0,s_sh_05_1,student_shared,laptop,1.0,competing,paired,s_sh_05_1.jpg,Student,,,sub-49
Desktop or Laptop,Windows 10,Chrome 138.0.0.0,1920x1080,1920x953,Temporal Distance Task,cb_01,41.0,temp_dist_trial,dist_items,qkpkxw,2.0,info,,5.899999994027892,0.0,5.899999994027892,5.899999994027892,0.0,5.899999994027892,1.0,0.0,0.0,,Slider,Slider,4.0,object-56,temp_dist_trial,41.0,s_sh_05_1,student_shared,laptop,1.0,competing,paired,s_sh_05_1.jpg,Student,,,sub-49
Desktop or Laptop,Windows 10,Chrome 138.0.0.0,1920x1080,1920x953,Temporal Distance Task,cb_01,41.0,temp_dist_trial,dist_items,qkpkxw,2.0,continue,,1857.0000000029688,1851.7999999999884,1857.0000000029688,1857.0000000029688,1851.7999999999884,1857.0000000029688,1.0,0.0,0.0,,Click To Continue,Next button,7.0,object-60,temp_dist_trial,41.0,s_sh_05_1,student_shared,laptop,1.0,competing,paired,s_sh_05_1.jpg,Student,,,sub-49
Desktop or Laptop,Windows 10,Chrome 138.0.0.0,1920x1080,1920x953,Temporal Distance Task,cb_01,41.0,temp_dist_trial,dist_items,qkpkxw,2.0,response,38,1134.3999999999942,1851.7999999999884,1857.5999999970081,1134.3999999999942,1851.7999999999884,1857.5999999970081,1.0,723.1999999970142,0.0,,Slider,Slider,4.0,object-56,temp_dist_trial,41.0,s_sh_05_1,student_shared,laptop,1.0,competing,paired,s_sh_05_1.jpg,Student,,,sub-49
Desktop or Laptop,Windows 10,Chrome 138.0.0.0,1920x1080,1920x953,Temporal Distance Task,cb_01,42.0,temp_dist_trial,num_items,zn7si1,1.0,response,2_ITEM,2528.5,2519.200000000012,2528.5,2528.5,2519.200000000012,2528.5,1.0,0.0,0.0,,Click Response,2_count,5.0,object-49,temp_dist_trial,42.0,s_s_10_1,student_stem,3d molecule,1.0,unique,single,s_s_10_1.jpg,Student,,,sub-49
Desktop or Laptop,Windows 10,Chrome 138.0.0.0,1920x1080,1920x953,Temporal Distance Task,cb_01,42.0,temp_dist_trial,dist_items,qkpkxw,2.0,info,,6.299999997019768,0.0,6.299999997019768,6.299999997019768,0.0,6.299999997019768,1.0,0.0,0.0,,Slider,Slider,4.0,object-56,temp_dist_trial,42.0,s_s_10_1,student_stem,3d molecule,1.0,unique,single,s_s_10_1.jpg,Student,,,sub-49
Desktop or Laptop,Windows 10,Chrome 138.0.0.0,1920x1080,1920x953,Temporal Distance Task,cb_01,42.0,temp_dist_trial,dist_items,qkpkxw,2.0,continue,,1966.29999999702,1952.0,1966.29999999702,1966.29999999702,1952.0,1966.29999999702,1.0,0.0,0.0,,Click To Continue,Next button,7.0,object-60,temp_dist_trial,42.0,s_s_10_1,student_stem,3d molecule,1.0,unique,single,s_s_10_1.jpg,Student,,,sub-49
Desktop or Laptop,Windows 10,Chrome 138.0.0.0,1920x1080,1920x953,Temporal Distance Task,cb_01,42.0,temp_dist_trial,dist_items,qkpkxw,2.0,response,46,1301.2999999999886,1952.0,1966.8999999910595,1301.2999999999886,1952.0,1966.8999999910595,1.0,665.5999999910711,0.0,,Slider,Slider,4.0,object-56,temp_dist_trial,42.0,s_s_10_1,student_stem,3d molecule,1.0,unique,single,s_s_10_1.jpg,Student,,,sub-49
Desktop or Laptop,Windows 10,Chrome 138.0.0.0,1920x1080,1920x953,Temporal Distance Task,cb_01,43.0,temp_dist_trial,num_items,zn7si1,1.0,response,1_ITEM,1458.7000000029807,1451.3999999999942,1458.7000000029807,1458.7000000029807,1451.3999999999942,1458.7000000029807,1.0,0.0,0.0,,Click Response,1_count,3.0,object-46,temp_dist_trial,43.0,s_s_08_1,student_stem,soldering iron,1.0,unique,single,s_s_08_1.jpg,Student,,,sub-49
Desktop or Laptop,Windows 10,Chrome 138.0.0.0,1920x1080,1920x953,Temporal Distance Task,cb_01,44.0,temp_dist_trial,num_items,zn7si1,1.0,response,2_ITEM,2010.7999999910533,2002.1000000000056,2010.7999999910533,2010.7999999910533,2002.1000000000056,2010.7999999910533,1.0,0.0,0.0,,Click Response,2_count,5.0,object-49,temp_dist_trial,44.0,s_sh_18_1,student_shared,wall calendar,1.0,competing,single,s_sh_18_1.jpg,Student,,,sub-49
Desktop or Laptop,Windows 10,Chrome 138.0.0.0,1920x1080,1920x953,Temporal Distance Task,cb_01,44.0,temp_dist_trial,dist_items,qkpkxw,2.0,info,,5.2000000000116415,0.0,5.2000000000116415,5.2000000000116415,0.0,5.2000000000116415,1.0,0.0,0.0,,Slider,Slider,4.0,object-56,temp_dist_trial,44.0,s_sh_18_1,student_shared,wall calendar,1.0,competing,single,s_sh_18_1.jpg,Student,,,sub-49
Desktop or Laptop,Windows 10,Chrome 138.0.0.0,1920x1080,1920x953,Temporal Distance Task,cb_01,44.0,temp_dist_trial,dist_items,qkpkxw,2.0,continue,,2070.599999991071,2068.3000000000175,2070.599999991071,2070.599999991071,2068.3000000000175,2070.599999991071,1.0,0.0,0.0,,Click To Continue,Next button,7.0,object-60,temp_dist_trial,44.0,s_sh_18_1,student_shared,wall calendar,1.0,competing,single,s_sh_18_1.jpg,Student,,,sub-49
Desktop or Laptop,Windows 10,Chrome 138.0.0.0,1920x1080,1920x953,Temporal Distance Task,cb_01,44.0,temp_dist_trial,dist_items,qkpkxw,2.0,response,68,767.0,2068.3000000000175,2071.099999991071,767.0,2068.3000000000175,2071.099999991071,1.0,1304.099999991071,0.0,,Slider,Slider,4.0,object-56,temp_dist_trial,44.0,s_sh_18_1,student_shared,wall calendar,1.0,competing,single,s_sh_18_1.jpg,Student,,,sub-49
Desktop or Laptop,Windows 10,Chrome 138.0.0.0,1920x1080,1920x953,Temporal Distance Task,cb_01,45.0,temp_dist_trial,num_items,zn7si1,1.0,response,1_ITEM,1140.2999999910535,1134.5,1140.2999999910535,1140.2999999910535,1134.5,1140.2999999910535,1.0,0.0,0.0,,Click Response,1_count,3.0,object-46,temp_dist_trial,45.0,s_s_15_1,student_stem,jumper cables,1.0,unique,single,s_s_15_1.jpg,Student,,,sub-49
Desktop or Laptop,Windows 10,Chrome 138.0.0.0,1920x1080,1920x953,Temporal Distance Task,cb_01,46.0,temp_dist_trial,num_items,zn7si1,1.0,response,2_ITEM,1284.5999999999767,1267.8999999999942,1284.5999999999767,1284.5999999999767,1267.8999999999942,1284.5999999999767,1.0,0.0,0.0,,Click Response,2_count,5.0,object-49,temp_dist_trial,46.0,s_a_17_1,student_art,microphone,1.0,unique,paired,s_a_17_1.jpg,Student,,,sub-49
Desktop or Laptop,Windows 10,Chrome 138.0.0.0,1920x1080,1920x953,Temporal Distance Task,cb_01,46.0,temp_dist_trial,dist_items,qkpkxw,2.0,info,,6.0,0.0,6.0,6.0,0.0,6.0,1.0,0.0,0.0,,Slider,Slider,4.0,object-56,temp_dist_trial,46.0,s_a_17_1,student_art,microphone,1.0,unique,paired,s_a_17_1.jpg,Student,,,sub-49
Desktop or Laptop,Windows 10,Chrome 138.0.0.0,1920x1080,1920x953,Temporal Distance Task,cb_01,46.0,temp_dist_trial,dist_items,qkpkxw,2.0,continue,,1305.0,1301.3999999999942,1305.0,1305.0,1301.3999999999942,1305.0,1.0,0.0,0.0,,Click To Continue,Next button,7.0,object-60,temp_dist_trial,46.0,s_a_17_1,student_art,microphone,1.0,unique,paired,s_a_17_1.jpg,Student,,,sub-49
Desktop or Laptop,Windows 10,Chrome 138.0.0.0,1920x1080,1920x953,Temporal Distance Task,cb_01,46.0,temp_dist_trial,dist_items,qkpkxw,2.0,response,36,717.3999999999942,1301.3999999999942,1305.5,717.3999999999942,1301.3999999999942,1305.5,1.0,588.1000000000057,0.0,,Slider,Slider,4.0,object-56,temp_dist_trial,46.0,s_a_17_1,student_art,microphone,1.0,unique,paired,s_a_17_1.jpg,Student,,,sub-49
Desktop or Laptop,Windows 10,Chrome 138.0.0.0,1920x1080,1920x953,Temporal Distance Task,cb_01,47.0,temp_dist_trial,num_items,zn7si1,1.0,response,1_ITEM,1046.6000000000058,1034.3000000000177,1046.6000000000058,1046.6000000000058,1034.3000000000177,1046.6000000000058,1.0,0.0,0.0,,Click Response,1_count,3.0,object-46,temp_dist_trial,47.0,s_a_16_1,student_art,piano,1.0,unique,paired,s_a_16_1.jpg,Student,,,sub-49
Desktop or Laptop,Windows 10,Chrome 138.0.0.0,1920x1080,1920x953,Temporal Distance Task,cb_01,48.0,temp_dist_trial,num_items,zn7si1,1.0,response,2_ITEM,896.3999999910593,884.1000000000058,896.3999999910593,896.3999999910593,884.1000000000058,896.3999999910593,1.0,0.0,0.0,,Click Response,2_count,5.0,object-49,temp_dist_trial,48.0,s_sh_01_1,student_shared,notebook,1.0,competing,single,s_sh_01_1.jpg,Student,,,sub-49
Desktop or Laptop,Windows 10,Chrome 138.0.0.0,1920x1080,1920x953,Temporal Distance Task,cb_01,48.0,temp_dist_trial,dist_items,qkpkxw,2.0,info,,5.600000000005821,0.0,5.600000000005821,5.600000000005821,0.0,5.600000000005821,1.0,0.0,0.0,,Slider,Slider,4.0,object-56,temp_dist_trial,48.0,s_sh_01_1,student_shared,notebook,1.0,competing,single,s_sh_01_1.jpg,Student,,,sub-49
Desktop or Laptop,Windows 10,Chrome 138.0.0.0,1920x1080,1920x953,Temporal Distance Task,cb_01,48.0,temp_dist_trial,dist_items,qkpkxw,2.0,continue,,1319.6000000000058,1318.3000000000175,1319.6000000000058,1319.6000000000058,1318.3000000000175,1319.6000000000058,1.0,0.0,0.0,,Click To Continue,Next button,7.0,object-60,temp_dist_trial,48.0,s_sh_01_1,student_shared,notebook,1.0,competing,single,s_sh_01_1.jpg,Student,,,sub-49
Desktop or Laptop,Windows 10,Chrome 138.0.0.0,1920x1080,1920x953,Temporal Distance Task,cb_01,48.0,temp_dist_trial,dist_items,qkpkxw,2.0,response,61,667.3000000000175,1318.3000000000175,1319.8999999970254,667.3000000000175,1318.3000000000175,1319.8999999970254,1.0,652.5999999970081,0.0,,Slider,Slider,4.0,object-56,temp_dist_trial,48.0,s_sh_01_1,student_shared,notebook,1.0,competing,single,s_sh_01_1.jpg,Student,,,sub-49
Desktop or Laptop,Windows 10,Chrome 138.0.0.0,1920x1080,1920x953,Temporal Distance Task,cb_01,2.0,temp_eventStart,Screen 1,dgtyxe,1.0,continue,,1541.5999999970081,1534.5999999999767,1541.5999999970081,1541.5999999970081,1534.5999999999767,1541.5999999970081,1.0,0.0,0.0,,Click To Continue,Next Button,3.0,object-43,temp_eventStart,,,Travel,,,,,,,,,sub-49
Desktop or Laptop,Windows 10,Chrome 138.0.0.0,1920x1080,1920x953,Temporal Distance Task,cb_01,49.0,temp_dist_trial,num_items,zn7si1,1.0,response,2_ITEM,2851.2999999940507,2836.1000000000067,2851.2999999940507,2851.2999999940507,2836.1000000000067,2851.2999999940507,1.0,0.0,0.0,,Click Response,2_count,5.0,object-49,temp_dist_trial,1.0,t_s_02_1,travel_shared,water bottle,1.0,competing,paired,t_s_02_1.jpg,Travel,,,sub-49
Desktop or Laptop,Windows 10,Chrome 138.0.0.0,1920x1080,1920x953,Temporal Distance Task,cb_01,49.0,temp_dist_trial,dist_items,qkpkxw,2.0,info,,6.199999991047663,0.0,6.199999991047663,6.199999991047663,0.0,6.199999991047663,1.0,0.0,0.0,,Slider,Slider,4.0,object-56,temp_dist_trial,1.0,t_s_02_1,travel_shared,water bottle,1.0,competing,paired,t_s_02_1.jpg,Travel,,,sub-49
Desktop or Laptop,Windows 10,Chrome 138.0.0.0,1920x1080,1920x953,Temporal Distance Task,cb_01,49.0,temp_dist_trial,dist_items,qkpkxw,2.0,continue,,1877.7999999999884,1868.5,1877.7999999999884,1877.7999999999884,1868.5,1877.7999999999884,1.0,0.0,0.0,,Click To Continue,Next button,7.0,object-60,temp_dist_trial,1.0,t_s_02_1,travel_shared,water bottle,1.0,competing,paired,t_s_02_1.jpg,Travel,,,sub-49
Desktop or Laptop,Windows 10,Chrome 138.0.0.0,1920x1080,1920x953,Temporal Distance Task,cb_01,49.0,temp_dist_trial,dist_items,qkpkxw,2.0,response,40,967.5999999999768,1868.5,1878.3999999940281,967.5999999999768,1868.5,1878.3999999940281,1.0,910.7999999940512,0.0,,Slider,Slider,4.0,object-56,temp_dist_trial,1.0,t_s_02_1,travel_shared,water bottle,1.0,competing,paired,t_s_02_1.jpg,Travel,,,sub-49
Desktop or Laptop,Windows 10,Chrome 138.0.0.0,1920x1080,1920x953,Temporal Distance Task,cb_01,50.0,temp_dist_trial,num_items,zn7si1,1.0,response,2_ITEM,1380.0999999970081,1368.0999999999767,1380.0999999970081,1380.0999999970081,1368.0999999999767,1380.0999999970081,1.0,0.0,0.0,,Click Response,2_count,5.0,object-49,temp_dist_trial,2.0,t_m_18_1,travel_Miami,waterproof tote,1.0,unique,paired,t_m_18_1.jpg,Travel,,,sub-49
Desktop or Laptop,Windows 10,Chrome 138.0.0.0,1920x1080,1920x953,Temporal Distance Task,cb_01,50.0,temp_dist_trial,dist_items,qkpkxw,2.0,info,,4.200000002980231,0.0,4.200000002980231,4.200000002980231,0.0,4.200000002980231,1.0,0.0,0.0,,Slider,Slider,4.0,object-56,temp_dist_trial,2.0,t_m_18_1,travel_Miami,waterproof tote,1.0,unique,paired,t_m_18_1.jpg,Travel,,,sub-49
Desktop or Laptop,Windows 10,Chrome 138.0.0.0,1920x1080,1920x953,Temporal Distance Task,cb_01,50.0,temp_dist_trial,dist_items,qkpkxw,2.0,continue,,2319.1999999999825,2302.3999999999937,2319.1999999999825,2319.1999999999825,2302.3999999999937,2319.1999999999825,1.0,0.0,0.0,,Click To Continue,Next button,7.0,object-60,temp_dist_trial,2.0,t_m_18_1,travel_Miami,waterproof tote,1.0,unique,paired,t_m_18_1.jpg,Travel,,,sub-49
Desktop or Laptop,Windows 10,Chrome 138.0.0.0,1920x1080,1920x953,Temporal Distance Task,cb_01,50.0,temp_dist_trial,dist_items,qkpkxw,2.0,response,63,867.5,2302.3999999999937,2319.1999999999825,867.5,2302.3999999999937,2319.1999999999825,1.0,1451.6999999999825,0.0,,Slider,Slider,4.0,object-56,temp_dist_trial,2.0,t_m_18_1,travel_Miami,waterproof tote,1.0,unique,paired,t_m_18_1.jpg,Travel,,,sub-49
Desktop or Laptop,Windows 10,Chrome 138.0.0.0,1920x1080,1920x953,Temporal Distance Task,cb_01,51.0,temp_dist_trial,num_items,zn7si1,1.0,response,1_ITEM,1568.0999999999767,1551.3999999999942,1568.0999999999767,1568.0999999999767,1551.3999999999942,1568.0999999999767,1.0,0.0,0.0,,Click Response,1_count,3.0,object-46,temp_dist_trial,3.0,t_s_01_1,travel_shared,fanny pack,1.0,competing,single,t_s_01_1.jpg,Travel,,,sub-49
Desktop or Laptop,Windows 10,Chrome 138.0.0.0,1920x1080,1920x953,Temporal Distance Task,cb_01,52.0,temp_dist_trial,num_items,zn7si1,1.0,response,2_ITEM,1316.9999999940335,1301.2999999999886,1316.9999999940335,1316.9999999940335,1301.2999999999886,1316.9999999940335,1.0,0.0,0.0,,Click Response,2_count,5.0,object-49,temp_dist_trial,4.0,t_s_12_1,travel_shared,clear toiletry bag,1.0,competing,paired,t_s_12_1.jpg,Travel,,,sub-49
Desktop or Laptop,Windows 10,Chrome 138.0.0.0,1920x1080,1920x953,Temporal Distance Task,cb_01,52.0,temp_dist_trial,dist_items,qkpkxw,2.0,info,,5.5999999970081245,0.0,5.5999999970081245,5.5999999970081245,0.0,5.5999999970081245,1.0,0.0,0.0,,Slider,Slider,4.0,object-56,temp_dist_trial,4.0,t_s_12_1,travel_shared,clear toiletry bag,1.0,competing,paired,t_s_12_1.jpg,Travel,,,sub-49
Desktop or Laptop,Windows 10,Chrome 138.0.0.0,1920x1080,1920x953,Temporal Distance Task,cb_01,52.0,temp_dist_trial,dist_items,qkpkxw,2.0,continue,,1267.899999999965,1251.1999999999825,1267.899999999965,1267.899999999965,1251.1999999999825,1267.899999999965,1.0,0.0,0.0,,Click To Continue,Next button,7.0,object-60,temp_dist_trial,4.0,t_s_12_1,travel_shared,clear toiletry bag,1.0,competing,paired,t_s_12_1.jpg,Travel,,,sub-49
Desktop or Laptop,Windows 10,Chrome 138.0.0.0,1920x1080,1920x953,Temporal Distance Task,cb_01,52.0,temp_dist_trial,dist_items,qkpkxw,2.0,response,61,583.8999999999943,1251.1999999999825,1267.899999999965,583.8999999999943,1251.1999999999825,1267.899999999965,1.0,683.9999999999709,0.0,,Slider,Slider,4.0,object-56,temp_dist_trial,4.0,t_s_12_1,travel_shared,clear toiletry bag,1.0,competing,paired,t_s_12_1.jpg,Travel,,,sub-49
Desktop or Laptop,Windows 10,Chrome 138.0.0.0,1920x1080,1920x953,Temporal Distance Task,cb_01,53.0,temp_dist_trial,num_items,zn7si1,1.0,response,2_ITEM,2508.6000000000063,2502.5,2508.6000000000063,2508.6000000000063,2502.5,2508.6000000000063,1.0,0.0,0.0,,Click Response,2_count,5.0,object-49,temp_dist_trial,5.0,t_s_06_1,travel_shared,luggage,1.0,competing,paired,t_s_06_1.jpg,Travel,,,sub-49
Desktop or Laptop,Windows 10,Chrome 138.0.0.0,1920x1080,1920x953,Temporal Distance Task,cb_01,53.0,temp_dist_trial,dist_items,qkpkxw,2.0,info,,6.499999994033715,0.0,6.499999994033715,6.499999994033715,0.0,6.499999994033715,1.0,0.0,0.0,,Slider,Slider,4.0,object-56,temp_dist_trial,5.0,t_s_06_1,travel_shared,luggage,1.0,competing,paired,t_s_06_1.jpg,Travel,,,sub-49
Desktop or Laptop,Windows 10,Chrome 138.0.0.0,1920x1080,1920x953,Temporal Distance Task,cb_01,53.0,temp_dist_trial,dist_items,qkpkxw,2.0,continue,,3369.1000000029744,3353.3999999999933,3369.1000000029744,3369.1000000029744,3353.3999999999933,3369.1000000029744,1.0,0.0,0.0,,Click To Continue,Next button,7.0,object-60,temp_dist_trial,5.0,t_s_06_1,travel_shared,luggage,1.0,competing,paired,t_s_06_1.jpg,Travel,,,sub-49
Desktop or Laptop,Windows 10,Chrome 138.0.0.0,1920x1080,1920x953,Temporal Distance Task,cb_01,53.0,temp_dist_trial,dist_items,qkpkxw,2.0,response,69,684.1000000000057,3353.3999999999933,3370.1000000000067,684.1000000000057,3353.3999999999933,3370.1000000000067,1.0,2686.0,0.0,,Slider,Slider,4.0,object-56,temp_dist_trial,5.0,t_s_06_1,travel_shared,luggage,1.0,competing,paired,t_s_06_1.jpg,Travel,,,sub-49
Desktop or Laptop,Windows 10,Chrome 138.0.0.0,1920x1080,1920x953,Temporal Distance Task,cb_01,54.0,temp_dist_trial,num_items,zn7si1,1.0,response,1_ITEM,1029.0999999940395,1017.6000000000058,1029.0999999940395,1029.0999999940395,1017.6000000000058,1029.0999999940395,1.0,0.0,0.0,,Click Response,1_count,3.0,object-46,temp_dist_trial,6.0,t_i_20_1,travel_Iceland,lantern,1.0,unique,paired,t_i_20_1.jpg,Travel,,,sub-49
Desktop or Laptop,Windows 10,Chrome 138.0.0.0,1920x1080,1920x953,Temporal Distance Task,cb_01,55.0,temp_dist_trial,num_items,zn7si1,1.0,response,2_ITEM,981.6000000000058,967.7000000000116,981.6000000000058,981.6000000000058,967.7000000000116,981.6000000000058,1.0,0.0,0.0,,Click Response,2_count,5.0,object-49,temp_dist_trial,7.0,t_s_16_1,travel_shared,chapstick,1.0,competing,paired,t_s_16_1.jpg,Travel,,,sub-49
Desktop or Laptop,Windows 10,Chrome 138.0.0.0,1920x1080,1920x953,Temporal Distance Task,cb_01,55.0,temp_dist_trial,dist_items,qkpkxw,2.0,info,,5.5999999970081245,0.0,5.5999999970081245,5.5999999970081245,0.0,5.5999999970081245,1.0,0.0,0.0,,Slider,Slider,4.0,object-56,temp_dist_trial,7.0,t_s_16_1,travel_shared,chapstick,1.0,competing,paired,t_s_16_1.jpg,Travel,,,sub-49
Desktop or Laptop,Windows 10,Chrome 138.0.0.0,1920x1080,1920x953,Temporal Distance Task,cb_01,55.0,temp_dist_trial,dist_items,qkpkxw,2.0,continue,,1280.2999999999886,1268.0,1280.2999999999886,1280.2999999999886,1268.0,1280.2999999999886,1.0,0.0,0.0,,Click To Continue,Next button,7.0,object-60,temp_dist_trial,7.0,t_s_16_1,travel_shared,chapstick,1.0,competing,paired,t_s_16_1.jpg,Travel,,,sub-49
Desktop or Laptop,Windows 10,Chrome 138.0.0.0,1920x1080,1920x953,Temporal Distance Task,cb_01,55.0,temp_dist_trial,dist_items,qkpkxw,2.0,response,70,567.2999999999884,1268.0,1280.6999999910474,567.2999999999884,1268.0,1280.6999999910474,1.0,713.3999999910593,0.0,,Slider,Slider,4.0,object-56,temp_dist_trial,7.0,t_s_16_1,travel_shared,chapstick,1.0,competing,paired,t_s_16_1.jpg,Travel,,,sub-49
Desktop or Laptop,Windows 10,Chrome 138.0.0.0,1920x1080,1920x953,Temporal Distance Task,cb_01,56.0,temp_dist_trial,num_items,zn7si1,1.0,response,2_ITEM,1479.2999999999884,1468.0999999999767,1479.2999999999884,1479.2999999999884,1468.0999999999767,1479.2999999999884,1.0,0.0,0.0,,Click Response,2_count,5.0,object-49,temp_dist_trial,8.0,t_s_07_1,travel_shared,phone charger cable,1.0,competing,paired,t_s_07_1.jpg,Travel,,,sub-49
Desktop or Laptop,Windows 10,Chrome 138.0.0.0,1920x1080,1920x953,Temporal Distance Task,cb_01,56.0,temp_dist_trial,dist_items,qkpkxw,2.0,info,,6.499999994033715,0.0,6.499999994033715,6.499999994033715,0.0,6.499999994033715,1.0,0.0,0.0,,Slider,Slider,4.0,object-56,temp_dist_trial,8.0,t_s_07_1,travel_shared,phone charger cable,1.0,competing,paired,t_s_07_1.jpg,Travel,,,sub-49
Desktop or Laptop,Windows 10,Chrome 138.0.0.0,1920x1080,1920x953,Temporal Distance Task,cb_01,56.0,temp_dist_trial,dist_items,qkpkxw,2.0,continue,,1456.2999999910535,1451.5,1456.2999999910535,1456.2999999910535,1451.5,1456.2999999910535,1.0,0.0,0.0,,Click To Continue,Next button,7.0,object-60,temp_dist_trial,8.0,t_s_07_1,travel_shared,phone charger cable,1.0,competing,paired,t_s_07_1.jpg,Travel,,,sub-49
Desktop or Laptop,Windows 10,Chrome 138.0.0.0,1920x1080,1920x953,Temporal Distance Task,cb_01,56.0,temp_dist_trial,dist_items,qkpkxw,2.0,response,40,650.6999999999825,1451.5,1456.699999997014,650.6999999999825,1451.5,1456.699999997014,1.0,805.9999999970314,0.0,,Slider,Slider,4.0,object-56,temp_dist_trial,8.0,t_s_07_1,travel_shared,phone charger cable,1.0,competing,paired,t_s_07_1.jpg,Travel,,,sub-49
Desktop or Laptop,Windows 10,Chrome 138.0.0.0,1920x1080,1920x953,Temporal Distance Task,cb_01,57.0,temp_dist_trial,num_items,zn7si1,1.0,response,2_ITEM,1810.3999999999944,1801.7999999999884,1810.3999999999944,1810.3999999999944,1801.7999999999884,1810.3999999999944,1.0,0.0,0.0,,Click Response,2_count,5.0,object-49,temp_dist_trial,9.0,t_m_17_1,travel_Miami,water gun,1.0,unique,paired,t_m_17_1.jpg,Travel,,,sub-49
Desktop or Laptop,Windows 10,Chrome 138.0.0.0,1920x1080,1920x953,Temporal Distance Task,cb_01,57.0,temp_dist_trial,dist_items,qkpkxw,2.0,info,,4.499999994033715,0.0,4.499999994033715,4.499999994033715,0.0,4.499999994033715,1.0,0.0,0.0,,Slider,Slider,4.0,object-56,temp_dist_trial,9.0,t_m_17_1,travel_Miami,water gun,1.0,unique,paired,t_m_17_1.jpg,Travel,,,sub-49
Desktop or Laptop,Windows 10,Chrome 138.0.0.0,1920x1080,1920x953,Temporal Distance Task,cb_01,57.0,temp_dist_trial,dist_items,qkpkxw,2.0,continue,,2106.299999991053,2102.1999999999825,2106.299999991053,2106.299999991053,2102.1999999999825,2106.299999991053,1.0,0.0,0.0,,Click To Continue,Next button,7.0,object-60,temp_dist_trial,9.0,t_m_17_1,travel_Miami,water gun,1.0,unique,paired,t_m_17_1.jpg,Travel,,,sub-49
Desktop or Laptop,Windows 10,Chrome 138.0.0.0,1920x1080,1920x953,Temporal Distance Task,cb_01,57.0,temp_dist_trial,dist_items,qkpkxw,2.0,response,24,917.6000000000058,2102.1999999999825,2113.699999997014,917.6000000000058,2102.1999999999825,2113.699999997014,1.0,1196.0999999970081,0.0,,Slider,Slider,4.0,object-56,temp_dist_trial,9.0,t_m_17_1,travel_Miami,water gun,1.0,unique,paired,t_m_17_1.jpg,Travel,,,sub-49
Desktop or Laptop,Windows 10,Chrome 138.0.0.0,1920x1080,1920x953,Temporal Distance Task,cb_01,58.0,temp_dist_trial,num_items,zn7si1,1.0,response,1_ITEM,1704.9000000029919,1701.6000000000058,1704.9000000029919,1704.9000000029919,1701.6000000000058,1704.9000000029919,1.0,0.0,0.0,,Click Response,1_count,3.0,object-46,temp_dist_trial,10.0,t_m_03_1,travel_Miami,wetsuit,1.0,unique,single,t_m_03_1.jpg,Travel,,,sub-49
Desktop or Laptop,Windows 10,Chrome 138.0.0.0,1920x1080,1920x953,Temporal Distance Task,cb_01,59.0,temp_dist_trial,num_items,zn7si1,1.0,response,1_ITEM,1057.1000000000058,1050.8000000000177,1057.1000000000058,1057.1000000000058,1050.8000000000177,1057.1000000000058,1.0,0.0,0.0,,Click Response,1_count,3.0,object-46,temp_dist_trial,11.0,t_i_16_1,travel_Iceland,skis,1.0,unique,single,t_i_16_1.jpg,Travel,,,sub-49
Desktop or Laptop,Windows 10,Chrome 138.0.0.0,1920x1080,1920x953,Temporal Distance Task,cb_01,60.0,temp_dist_trial,num_items,zn7si1,1.0,response,2_ITEM,1005.0999999910713,1000.7000000000116,1005.0999999910713,1005.0999999910713,1000.7000000000116,1005.0999999910713,1.0,0.0,0.0,,Click Response,2_count,5.0,object-49,temp_dist_trial,12.0,t_s_09_1,travel_shared,wallet,1.0,competing,paired,t_s_09_1.jpg,Travel,,,sub-49
Desktop or Laptop,Windows 10,Chrome 138.0.0.0,1920x1080,1920x953,Temporal Distance Task,cb_01,60.0,temp_dist_trial,dist_items,qkpkxw,2.0,info,,7.0999999970081245,0.0,7.0999999970081245,7.0999999970081245,0.0,7.0999999970081245,1.0,0.0,0.0,,Slider,Slider,4.0,object-56,temp_dist_trial,12.0,t_s_09_1,travel_shared,wallet,1.0,competing,paired,t_s_09_1.jpg,Travel,,,sub-49
Desktop or Laptop,Windows 10,Chrome 138.0.0.0,1920x1080,1920x953,Temporal Distance Task,cb_01,60.0,temp_dist_trial,dist_items,qkpkxw,2.0,continue,,1975.2999999999884,1968.5999999999767,1975.2999999999884,1975.2999999999884,1968.5999999999767,1975.2999999999884,1.0,0.0,0.0,,Click To Continue,Next button,7.0,object-60,temp_dist_trial,12.0,t_s_09_1,travel_shared,wallet,1.0,competing,paired,t_s_09_1.jpg,Travel,,,sub-49
Desktop or Laptop,Windows 10,Chrome 138.0.0.0,1920x1080,1920x953,Temporal Distance Task,cb_01,60.0,temp_dist_trial,dist_items,qkpkxw,2.0,response,36,1268.0,1968.5999999999767,1975.5999999970081,1268.0,1968.5999999999767,1975.5999999970081,1.0,707.599999997008,0.0,,Slider,Slider,4.0,object-56,temp_dist_trial,12.0,t_s_09_1,travel_shared,wallet,1.0,competing,paired,t_s_09_1.jpg,Travel,,,sub-49
Desktop or Laptop,Windows 10,Chrome 138.0.0.0,1920x1080,1920x953,Temporal Distance Task,cb_01,61.0,temp_dist_trial,num_items,zn7si1,1.0,response,1_ITEM,1668.4000000000233,1651.7000000000116,1668.4000000000233,1668.4000000000233,1651.7000000000116,1668.4000000000233,1.0,0.0,0.0,,Click Response,1_count,3.0,object-46,temp_dist_trial,13.0,t_s_13_1,travel_shared,contact lens case,1.0,competing,single,t_s_13_1.jpg,Travel,,,sub-49
Desktop or Laptop,Windows 10,Chrome 138.0.0.0,1920x1080,1920x953,Temporal Distance Task,cb_01,62.0,temp_dist_trial,num_items,zn7si1,1.0,response,1_ITEM,923.400000002992,917.5,923.400000002992,923.400000002992,917.5,923.400000002992,1.0,0.0,0.0,,Click Response,1_count,3.0,object-46,temp_dist_trial,14.0,t_i_18_1,travel_Iceland,ski mask,1.0,unique,single,t_i_18_1.jpg,Travel,,,sub-49
Desktop or Laptop,Windows 10,Chrome 138.0.0.0,1920x1080,1920x953,Temporal Distance Task,cb_01,63.0,temp_dist_trial,num_items,zn7si1,1.0,response,2_ITEM,1086.0999999970081,1084.2999999999884,1086.0999999970081,1086.0999999970081,1084.2999999999884,1086.0999999970081,1.0,0.0,0.0,,Click Response,2_count,5.0,object-49,temp_dist_trial,15.0,t_s_05_1,travel_shared,neck pillow,1.0,competing,paired,t_s_05_1.jpg,Travel,,,sub-49
Desktop or Laptop,Windows 10,Chrome 138.0.0.0,1920x1080,1920x953,Temporal Distance Task,cb_01,63.0,temp_dist_trial,dist_items,qkpkxw,2.0,info,,5.2000000000116415,0.0,5.2000000000116415,5.2000000000116415,0.0,5.2000000000116415,1.0,0.0,0.0,,Slider,Slider,4.0,object-56,temp_dist_trial,15.0,t_s_05_1,travel_shared,neck pillow,1.0,competing,paired,t_s_05_1.jpg,Travel,,,sub-49
Desktop or Laptop,Windows 10,Chrome 138.0.0.0,1920x1080,1920x953,Temporal Distance Task,cb_01,63.0,temp_dist_trial,dist_items,qkpkxw,2.0,continue,,2734.700000000012,2719.300000000017,2734.700000000012,2734.700000000012,2719.300000000017,2734.700000000012,1.0,0.0,0.0,,Click To Continue,Next button,7.0,object-60,temp_dist_trial,15.0,t_s_05_1,travel_shared,neck pillow,1.0,competing,paired,t_s_05_1.jpg,Travel,,,sub-49
Desktop or Laptop,Windows 10,Chrome 138.0.0.0,1920x1080,1920x953,Temporal Distance Task,cb_01,63.0,temp_dist_trial,dist_items,qkpkxw,2.0,response,40,1368.0,2719.300000000017,2734.9999999970314,1368.0,2719.300000000017,2734.9999999970314,1.0,1366.9999999970316,0.0,,Slider,Slider,4.0,object-56,temp_dist_trial,15.0,t_s_05_1,travel_shared,neck pillow,1.0,competing,paired,t_s_05_1.jpg,Travel,,,sub-49
Desktop or Laptop,Windows 10,Chrome 138.0.0.0,1920x1080,1920x953,Temporal Distance Task,cb_01,64.0,temp_dist_trial,num_items,zn7si1,1.0,response,1_ITEM,1143.2999999910535,1134.5,1143.2999999910535,1143.2999999910535,1134.5,1143.2999999910535,1.0,0.0,0.0,,Click Response,1_count,3.0,object-46,temp_dist_trial,16.0,t_i_19_1,travel_Iceland,rope,1.0,unique,paired,t_i_19_1.jpg,Travel,,,sub-49
Desktop or Laptop,Windows 10,Chrome 138.0.0.0,1920x1080,1920x953,Temporal Distance Task,cb_01,65.0,temp_dist_trial,num_items,zn7si1,1.0,response,2_ITEM,1109.4999999910651,1101.1000000000058,1109.4999999910651,1109.4999999910651,1101.1000000000058,1109.4999999910651,1.0,0.0,0.0,,Click Response,2_count,5.0,object-49,temp_dist_trial,17.0,t_i_08_1,travel_Iceland,thick socks,1.0,unique,paired,t_i_08_1.jpg,Travel,,,sub-49
Desktop or Laptop,Windows 10,Chrome 138.0.0.0,1920x1080,1920x953,Temporal Distance Task,cb_01,65.0,temp_dist_trial,dist_items,qkpkxw,2.0,info,,4.599999991070947,0.0,4.599999991070947,4.599999991070947,0.0,4.599999991070947,1.0,0.0,0.0,,Slider,Slider,4.0,object-56,temp_dist_trial,17.0,t_i_08_1,travel_Iceland,thick socks,1.0,unique,paired,t_i_08_1.jpg,Travel,,,sub-49
Desktop or Laptop,Windows 10,Chrome 138.0.0.0,1920x1080,1920x953,Temporal Distance Task,cb_01,65.0,temp_dist_trial,dist_items,qkpkxw,2.0,continue,,1272.599999991071,1267.9000000000233,1272.599999991071,1272.599999991071,1267.9000000000233,1272.599999991071,1.0,0.0,0.0,,Click To Continue,Next button,7.0,object-60,temp_dist_trial,17.0,t_i_08_1,travel_Iceland,thick socks,1.0,unique,paired,t_i_08_1.jpg,Travel,,,sub-49
Desktop or Laptop,Windows 10,Chrome 138.0.0.0,1920x1080,1920x953,Temporal Distance Task,cb_01,65.0,temp_dist_trial,dist_items,qkpkxw,2.0,response,39,700.6000000000058,1267.9000000000233,1273.4000000029919,700.6000000000058,1267.9000000000233,1273.4000000029919,1.0,572.8000000029858,0.0,,Slider,Slider,4.0,object-56,temp_dist_trial,17.0,t_i_08_1,travel_Iceland,thick socks,1.0,unique,paired,t_i_08_1.jpg,Travel,,,sub-49
Desktop or Laptop,Windows 10,Chrome 138.0.0.0,1920x1080,1920x953,Temporal Distance Task,cb_01,66.0,temp_dist_trial,num_items,zn7si1,1.0,response,2_ITEM,1107.5000000029686,1101.0999999999767,1107.5000000029686,1107.5000000029686,1101.0999999999767,1107.5000000029686,1.0,0.0,0.0,,Click Response,2_count,5.0,object-49,temp_dist_trial,18.0,t_m_01_1,travel_Miami,sandals,1.0,unique,paired,t_m_01_1.jpg,Travel,,,sub-49
Desktop or Laptop,Windows 10,Chrome 138.0.0.0,1920x1080,1920x953,Temporal Distance Task,cb_01,66.0,temp_dist_trial,dist_items,qkpkxw,2.0,info,,7.300000002986053,0.0,7.300000002986053,7.300000002986053,0.0,7.300000002986053,1.0,0.0,0.0,,Slider,Slider,4.0,object-56,temp_dist_trial,18.0,t_m_01_1,travel_Miami,sandals,1.0,unique,paired,t_m_01_1.jpg,Travel,,,sub-49
Desktop or Laptop,Windows 10,Chrome 138.0.0.0,1920x1080,1920x953,Temporal Distance Task,cb_01,66.0,temp_dist_trial,dist_items,qkpkxw,2.0,continue,,2200.999999991065,2185.200000000012,2200.999999991065,2200.999999991065,2185.200000000012,2200.999999991065,1.0,0.0,0.0,,Click To Continue,Next button,7.0,object-60,temp_dist_trial,18.0,t_m_01_1,travel_Miami,sandals,1.0,unique,paired,t_m_01_1.jpg,Travel,,,sub-49
Desktop or Laptop,Windows 10,Chrome 138.0.0.0,1920x1080,1920x953,Temporal Distance Task,cb_01,66.0,temp_dist_trial,dist_items,qkpkxw,2.0,response,63,983.8999999999942,2185.200000000012,2202.000000000029,983.8999999999942,2185.200000000012,2202.000000000029,1.0,1218.100000000035,0.0,,Slider,Slider,4.0,object-56,temp_dist_trial,18.0,t_m_01_1,travel_Miami,sandals,1.0,unique,paired,t_m_01_1.jpg,Travel,,,sub-49
Desktop or Laptop,Windows 10,Chrome 138.0.0.0,1920x1080,1920x953,Temporal Distance Task,cb_01,67.0,temp_dist_trial,num_items,zn7si1,1.0,response,1_ITEM,1063.3999999999942,1051.0,1063.3999999999942,1063.3999999999942,1051.0,1063.3999999999942,1.0,0.0,0.0,,Click Response,1_count,3.0,object-46,temp_dist_trial,19.0,t_i_14_1,travel_Iceland,snow pants,1.0,unique,single,t_i_14_1.jpg,Travel,,,sub-49
Desktop or Laptop,Windows 10,Chrome 138.0.0.0,1920x1080,1920x953,Temporal Distance Task,cb_01,68.0,temp_dist_trial,num_items,zn7si1,1.0,response,2_ITEM,1254.8999999970254,1251.2000000000114,1254.8999999970254,1254.8999999970254,1251.2000000000114,1254.8999999970254,1.0,0.0,0.0,,Click Response,2_count,5.0,object-49,temp_dist_trial,20.0,t_s_22_1,travel_shared,belt,1.0,competing,paired,t_s_22_1.jpg,Travel,,,sub-49
Desktop or Laptop,Windows 10,Chrome 138.0.0.0,1920x1080,1920x953,Temporal Distance Task,cb_01,68.0,temp_dist_trial,dist_items,qkpkxw,2.0,info,,5.49999999703141,0.0,5.49999999703141,5.49999999703141,0.0,5.49999999703141,1.0,0.0,0.0,,Slider,Slider,4.0,object-56,temp_dist_trial,20.0,t_s_22_1,travel_shared,belt,1.0,competing,paired,t_s_22_1.jpg,Travel,,,sub-49
Desktop or Laptop,Windows 10,Chrome 138.0.0.0,1920x1080,1920x953,Temporal Distance Task,cb_01,68.0,temp_dist_trial,dist_items,qkpkxw,2.0,continue,,2439.200000000012,2435.9000000000233,2439.200000000012,2439.200000000012,2435.9000000000233,2439.200000000012,1.0,0.0,0.0,,Click To Continue,Next button,7.0,object-60,temp_dist_trial,20.0,t_s_22_1,travel_shared,belt,1.0,competing,paired,t_s_22_1.jpg,Travel,,,sub-49
Desktop or Laptop,Windows 10,Chrome 138.0.0.0,1920x1080,1920x953,Temporal Distance Task,cb_01,68.0,temp_dist_trial,dist_items,qkpkxw,2.0,response,25,1184.5,2435.9000000000233,2439.599999991071,1184.5,2435.9000000000233,2439.599999991071,1.0,1255.099999991071,0.0,,Slider,Slider,4.0,object-56,temp_dist_trial,20.0,t_s_22_1,travel_shared,belt,1.0,competing,paired,t_s_22_1.jpg,Travel,,,sub-49
Desktop or Laptop,Windows 10,Chrome 138.0.0.0,1920x1080,1920x953,Temporal Distance Task,cb_01,69.0,temp_dist_trial,num_items,zn7si1,1.0,response,1_ITEM,1484.5999999970081,1468.0,1484.5999999970081,1484.5999999970081,1468.0,1484.5999999970081,1.0,0.0,0.0,,Click Response,1_count,3.0,object-46,temp_dist_trial,21.0,t_i_13_1,travel_Iceland,sleeping bag,1.0,unique,paired,t_i_13_1.jpg,Travel,,,sub-49
Desktop or Laptop,Windows 10,Chrome 138.0.0.0,1920x1080,1920x953,Temporal Distance Task,cb_01,70.0,temp_dist_trial,num_items,zn7si1,1.0,response,1_ITEM,1761.599999991071,1751.4000000000233,1761.599999991071,1761.599999991071,1751.4000000000233,1761.599999991071,1.0,0.0,0.0,,Click Response,1_count,3.0,object-46,temp_dist_trial,22.0,t_s_24_1,travel_shared,ear plugs,1.0,competing,single,t_s_24_1.jpg,Travel,,,sub-49
Desktop or Laptop,Windows 10,Chrome 138.0.0.0,1920x1080,1920x953,Temporal Distance Task,cb_01,71.0,temp_dist_trial,num_items,zn7si1,1.0,response,1_ITEM,1511.5,1501.5,1511.5,1511.5,1501.5,1511.5,1.0,0.0,0.0,,Click Response,1_count,3.0,object-46,temp_dist_trial,23.0,t_i_10_1,travel_Iceland,trekking poles,1.0,unique,paired,t_i_10_1.jpg,Travel,,,sub-49
Desktop or Laptop,Windows 10,Chrome 138.0.0.0,1920x1080,1920x953,Temporal Distance Task,cb_01,72.0,temp_dist_trial,num_items,zn7si1,1.0,response,2_ITEM,1072.4999999970314,1067.7000000000116,1072.4999999970314,1072.4999999970314,1067.7000000000116,1072.4999999970314,1.0,0.0,0.0,,Click Response,2_count,5.0,object-49,temp_dist_trial,24.0,t_i_05_1,travel_Iceland,hiking boots,1.0,unique,paired,t_i_05_1.jpg,Travel,,,sub-49
Desktop or Laptop,Windows 10,Chrome 138.0.0.0,1920x1080,1920x953,Temporal Distance Task,cb_01,72.0,temp_dist_trial,dist_items,qkpkxw,2.0,info,,5.799999999988358,0.0,5.799999999988358,5.799999999988358,0.0,5.799999999988358,1.0,0.0,0.0,,Slider,Slider,4.0,object-56,temp_dist_trial,24.0,t_i_05_1,travel_Iceland,hiking boots,1.0,unique,paired,t_i_05_1.jpg,Travel,,,sub-49
Desktop or Laptop,Windows 10,Chrome 138.0.0.0,1920x1080,1920x953,Temporal Distance Task,cb_01,72.0,temp_dist_trial,dist_items,qkpkxw,2.0,continue,,1714.2999999999884,1701.6999999999825,1714.2999999999884,1714.2999999999884,1701.6999999999825,1714.2999999999884,1.0,0.0,0.0,,Click To Continue,Next button,7.0,object-60,temp_dist_trial,24.0,t_i_05_1,travel_Iceland,hiking boots,1.0,unique,paired,t_i_05_1.jpg,Travel,,,sub-49
Desktop or Laptop,Windows 10,Chrome 138.0.0.0,1920x1080,1920x953,Temporal Distance Task,cb_01,72.0,temp_dist_trial,dist_items,qkpkxw,2.0,response,33,767.5,1701.6999999999825,1714.6999999910474,767.5,1701.6999999999825,1714.6999999910474,1.0,947.1999999910477,0.0,,Slider,Slider,4.0,object-56,temp_dist_trial,24.0,t_i_05_1,travel_Iceland,hiking boots,1.0,unique,paired,t_i_05_1.jpg,Travel,,,sub-49
Desktop or Laptop,Windows 10,Chrome 138.0.0.0,1920x1080,1920x953,Temporal Distance Task,cb_01,73.0,temp_dist_trial,num_items,zn7si1,1.0,response,1_ITEM,2710.3999999970256,2702.700000000012,2710.3999999970256,2710.3999999970256,2702.700000000012,2710.3999999970256,1.0,0.0,0.0,,Click Response,1_count,3.0,object-46,temp_dist_trial,25.0,t_s_10_1,travel_shared,luggage lock,1.0,competing,single,t_s_10_1.jpg,Travel,,,sub-49
Desktop or Laptop,Windows 10,Chrome 138.0.0.0,1920x1080,1920x953,Temporal Distance Task,cb_01,74.0,temp_dist_trial,num_items,zn7si1,1.0,response,2_ITEM,2684.300000002986,2669.3999999999937,2684.300000002986,2684.300000002986,2669.3999999999937,2684.300000002986,1.0,0.0,0.0,,Click Response,2_count,5.0,object-49,temp_dist_trial,26.0,t_m_07_1,travel_Miami,sunglasses,1.0,unique,single,t_m_07_1.jpg,Travel,,,sub-49
Desktop or Laptop,Windows 10,Chrome 138.0.0.0,1920x1080,1920x953,Temporal Distance Task,cb_01,74.0,temp_dist_trial,dist_items,qkpkxw,2.0,info,,5.899999991059303,0.0,5.899999991059303,5.899999991059303,0.0,5.899999991059303,1.0,0.0,0.0,,Slider,Slider,4.0,object-56,temp_dist_trial,26.0,t_m_07_1,travel_Miami,sunglasses,1.0,unique,single,t_m_07_1.jpg,Travel,,,sub-49
Desktop or Laptop,Windows 10,Chrome 138.0.0.0,1920x1080,1920x953,Temporal Distance Task,cb_01,74.0,temp_dist_trial,dist_items,qkpkxw,2.0,continue,,2541.0,2535.7999999999884,2541.0,2541.0,2535.7999999999884,2541.0,1.0,0.0,0.0,,Click To Continue,Next button,7.0,object-60,temp_dist_trial,26.0,t_m_07_1,travel_Miami,sunglasses,1.0,unique,single,t_m_07_1.jpg,Travel,,,sub-49
Desktop or Laptop,Windows 10,Chrome 138.0.0.0,1920x1080,1920x953,Temporal Distance Task,cb_01,74.0,temp_dist_trial,dist_items,qkpkxw,2.0,response,65,1067.7000000000116,2535.7999999999884,2545.5999999940395,1067.7000000000116,2535.7999999999884,2545.5999999940395,1.0,1477.8999999940281,0.0,,Slider,Slider,4.0,object-56,temp_dist_trial,26.0,t_m_07_1,travel_Miami,sunglasses,1.0,unique,single,t_m_07_1.jpg,Travel,,,sub-49
Desktop or Laptop,Windows 10,Chrome 138.0.0.0,1920x1080,1920x953,Temporal Distance Task,cb_01,75.0,temp_dist_trial,num_items,zn7si1,1.0,response,1_ITEM,1172.7999999940512,1167.9000000000233,1172.7999999940512,1172.7999999940512,1167.9000000000233,1172.7999999940512,1.0,0.0,0.0,,Click Response,1_count,3.0,object-46,temp_dist_trial,27.0,t_i_09_1,travel_Iceland,ear muffs,1.0,unique,paired,t_i_09_1.jpg,Travel,,,sub-49
Desktop or Laptop,Windows 10,Chrome 138.0.0.0,1920x1080,1920x953,Temporal Distance Task,cb_01,76.0,temp_dist_trial,num_items,zn7si1,1.0,response,num_miss,3003.0,3003.0,3003.0,3003.0,3003.0,3003.0,1.0,0.0,0.0,num_miss_tag,Time Limit,screen,0.0,screen,temp_dist_trial,28.0,t_m_06_1,travel_Miami,handheld fan,1.0,unique,single,t_m_06_1.jpg,Travel,,,sub-49
Desktop or Laptop,Windows 10,Chrome 138.0.0.0,1920x1080,1920x953,Temporal Distance Task,cb_01,77.0,temp_dist_trial,num_items,zn7si1,1.0,response,2_ITEM,1871.4999999910647,1868.6000000000056,1871.4999999910647,1871.4999999910647,1868.6000000000056,1871.4999999910647,1.0,0.0,0.0,,Click Response,2_count,5.0,object-49,temp_dist_trial,29.0,t_s_20_1,travel_shared,travel pill case,1.0,competing,paired,t_s_20_1.jpg,Travel,,,sub-49
Desktop or Laptop,Windows 10,Chrome 138.0.0.0,1920x1080,1920x953,Temporal Distance Task,cb_01,77.0,temp_dist_trial,dist_items,qkpkxw,2.0,info,,4.099999991070945,0.0,4.099999991070945,4.099999991070945,0.0,4.099999991070945,1.0,0.0,0.0,,Slider,Slider,4.0,object-56,temp_dist_trial,29.0,t_s_20_1,travel_shared,travel pill case,1.0,competing,paired,t_s_20_1.jpg,Travel,,,sub-49
Desktop or Laptop,Windows 10,Chrome 138.0.0.0,1920x1080,1920x953,Temporal Distance Task,cb_01,77.0,temp_dist_trial,dist_items,qkpkxw,2.0,continue,,1525.4999999970316,1518.1000000000058,1525.4999999970316,1525.4999999970316,1518.1000000000058,1525.4999999970316,1.0,0.0,0.0,,Click To Continue,Next button,7.0,object-60,temp_dist_trial,29.0,t_s_20_1,travel_shared,travel pill case,1.0,competing,paired,t_s_20_1.jpg,Travel,,,sub-49
Desktop or Laptop,Windows 10,Chrome 138.0.0.0,1920x1080,1920x953,Temporal Distance Task,cb_01,77.0,temp_dist_trial,dist_items,qkpkxw,2.0,response,74,817.4000000000232,1518.1000000000058,1525.9999999970316,817.4000000000232,1518.1000000000058,1525.9999999970316,1.0,708.599999997008,0.0,,Slider,Slider,4.0,object-56,temp_dist_trial,29.0,t_s_20_1,travel_shared,travel pill case,1.0,competing,paired,t_s_20_1.jpg,Travel,,,sub-49
Desktop or Laptop,Windows 10,Chrome 138.0.0.0,1920x1080,1920x953,Temporal Distance Task,cb_01,78.0,temp_dist_trial,num_items,zn7si1,1.0,response,2_ITEM,1268.800000002986,1268.0,1268.800000002986,1268.800000002986,1268.0,1268.800000002986,1.0,0.0,0.0,,Click Response,2_count,5.0,object-49,temp_dist_trial,30.0,t_s_23_1,travel_shared,ball cap,1.0,competing,single,t_s_23_1.jpg,Travel,,,sub-49
Desktop or Laptop,Windows 10,Chrome 138.0.0.0,1920x1080,1920x953,Temporal Distance Task,cb_01,78.0,temp_dist_trial,dist_items,qkpkxw,2.0,info,,6.199999997013947,0.0,6.199999997013947,6.199999997013947,0.0,6.199999997013947,1.0,0.0,0.0,,Slider,Slider,4.0,object-56,temp_dist_trial,30.0,t_s_23_1,travel_shared,ball cap,1.0,competing,single,t_s_23_1.jpg,Travel,,,sub-49
Desktop or Laptop,Windows 10,Chrome 138.0.0.0,1920x1080,1920x953,Temporal Distance Task,cb_01,78.0,temp_dist_trial,dist_items,qkpkxw,2.0,continue,,1723.6000000029746,1718.3999999999942,1723.6000000029746,1723.6000000029746,1718.3999999999942,1723.6000000029746,1.0,0.0,0.0,,Click To Continue,Next button,7.0,object-60,temp_dist_trial,30.0,t_s_23_1,travel_shared,ball cap,1.0,competing,single,t_s_23_1.jpg,Travel,,,sub-49
Desktop or Laptop,Windows 10,Chrome 138.0.0.0,1920x1080,1920x953,Temporal Distance Task,cb_01,78.0,temp_dist_trial,dist_items,qkpkxw,2.0,response,42,634.0,1718.3999999999942,1728.6000000029746,634.0,1718.3999999999942,1728.6000000029746,1.0,1094.6000000029744,0.0,,Slider,Slider,4.0,object-56,temp_dist_trial,30.0,t_s_23_1,travel_shared,ball cap,1.0,competing,single,t_s_23_1.jpg,Travel,,,sub-49
Desktop or Laptop,Windows 10,Chrome 138.0.0.0,1920x1080,1920x953,Temporal Distance Task,cb_01,79.0,temp_dist_trial,num_items,zn7si1,1.0,response,2_ITEM,1213.7000000029802,1201.2999999999886,1213.7000000029802,1213.7000000029802,1201.2999999999886,1213.7000000029802,1.0,0.0,0.0,,Click Response,2_count,5.0,object-49,temp_dist_trial,31.0,t_s_14_1,travel_shared,hand sanitizer,1.0,competing,paired,t_s_14_1.jpg,Travel,,,sub-49
Desktop or Laptop,Windows 10,Chrome 138.0.0.0,1920x1080,1920x953,Temporal Distance Task,cb_01,79.0,temp_dist_trial,dist_items,qkpkxw,2.0,info,,6.199999997013947,0.0,6.199999997013947,6.199999997013947,0.0,6.199999997013947,1.0,0.0,0.0,,Slider,Slider,4.0,object-56,temp_dist_trial,31.0,t_s_14_1,travel_shared,hand sanitizer,1.0,competing,paired,t_s_14_1.jpg,Travel,,,sub-49
Desktop or Laptop,Windows 10,Chrome 138.0.0.0,1920x1080,1920x953,Temporal Distance Task,cb_01,79.0,temp_dist_trial,dist_items,qkpkxw,2.0,continue,,1427.8999999999942,1418.0,1427.8999999999942,1427.8999999999942,1418.0,1427.8999999999942,1.0,0.0,0.0,,Click To Continue,Next button,7.0,object-60,temp_dist_trial,31.0,t_s_14_1,travel_shared,hand sanitizer,1.0,competing,paired,t_s_14_1.jpg,Travel,,,sub-49
Desktop or Laptop,Windows 10,Chrome 138.0.0.0,1920x1080,1920x953,Temporal Distance Task,cb_01,79.0,temp_dist_trial,dist_items,qkpkxw,2.0,response,74,633.8999999999943,1418.0,1428.3999999999942,633.8999999999943,1418.0,1428.3999999999942,1.0,794.5,0.0,,Slider,Slider,4.0,object-56,temp_dist_trial,31.0,t_s_14_1,travel_shared,hand sanitizer,1.0,competing,paired,t_s_14_1.jpg,Travel,,,sub-49
Desktop or Laptop,Windows 10,Chrome 138.0.0.0,1920x1080,1920x953,Temporal Distance Task,cb_01,80.0,temp_dist_trial,num_items,zn7si1,1.0,response,2_ITEM,1465.2999999910535,1451.5,1465.2999999910535,1465.2999999910535,1451.5,1465.2999999910535,1.0,0.0,0.0,,Click Response,2_count,5.0,object-49,temp_dist_trial,32.0,t_s_21_1,travel_shared,umbrella,1.0,competing,paired,t_s_21_1.jpg,Travel,,,sub-49
Desktop or Laptop,Windows 10,Chrome 138.0.0.0,1920x1080,1920x953,Temporal Distance Task,cb_01,80.0,temp_dist_trial,dist_items,qkpkxw,2.0,info,,6.099999991070947,0.0,6.099999991070947,6.099999991070947,0.0,6.099999991070947,1.0,0.0,0.0,,Slider,Slider,4.0,object-56,temp_dist_trial,32.0,t_s_21_1,travel_shared,umbrella,1.0,competing,paired,t_s_21_1.jpg,Travel,,,sub-49
Desktop or Laptop,Windows 10,Chrome 138.0.0.0,1920x1080,1920x953,Temporal Distance Task,cb_01,80.0,temp_dist_trial,dist_items,qkpkxw,2.0,continue,,1992.4999999970319,1985.2000000000119,1992.4999999970319,1992.4999999970319,1985.2000000000119,1992.4999999970319,1.0,0.0,0.0,,Click To Continue,Next button,7.0,object-60,temp_dist_trial,32.0,t_s_21_1,travel_shared,umbrella,1.0,competing,paired,t_s_21_1.jpg,Travel,,,sub-49
Desktop or Laptop,Windows 10,Chrome 138.0.0.0,1920x1080,1920x953,Temporal Distance Task,cb_01,80.0,temp_dist_trial,dist_items,qkpkxw,2.0,response,31,984.3000000000177,1985.2000000000119,1992.9000000029919,984.3000000000177,1985.2000000000119,1992.9000000029919,1.0,1008.6000000029744,0.0,,Slider,Slider,4.0,object-56,temp_dist_trial,32.0,t_s_21_1,travel_shared,umbrella,1.0,competing,paired,t_s_21_1.jpg,Travel,,,sub-49
Desktop or Laptop,Windows 10,Chrome 138.0.0.0,1920x1080,1920x953,Temporal Distance Task,cb_01,81.0,temp_dist_trial,num_items,zn7si1,1.0,response,2_ITEM,1000.7999999999884,984.2999999999884,1000.7999999999884,1000.7999999999884,984.2999999999884,1000.7999999999884,1.0,0.0,0.0,,Click Response,2_count,5.0,object-49,temp_dist_trial,33.0,t_s_08_1,travel_shared,hand lotion,1.0,competing,paired,t_s_08_1.jpg,Travel,,,sub-49
Desktop or Laptop,Windows 10,Chrome 138.0.0.0,1920x1080,1920x953,Temporal Distance Task,cb_01,81.0,temp_dist_trial,dist_items,qkpkxw,2.0,info,,5.7999999910534825,0.0,5.7999999910534825,5.7999999910534825,0.0,5.7999999910534825,1.0,0.0,0.0,,Slider,Slider,4.0,object-56,temp_dist_trial,33.0,t_s_08_1,travel_shared,hand lotion,1.0,competing,paired,t_s_08_1.jpg,Travel,,,sub-49
Desktop or Laptop,Windows 10,Chrome 138.0.0.0,1920x1080,1920x953,Temporal Distance Task,cb_01,81.0,temp_dist_trial,dist_items,qkpkxw,2.0,continue,,2544.6000000029744,2535.8999999999937,2544.6000000029744,2544.6000000029744,2535.8999999999937,2544.6000000029744,1.0,0.0,0.0,,Click To Continue,Next button,7.0,object-60,temp_dist_trial,33.0,t_s_08_1,travel_shared,hand lotion,1.0,competing,paired,t_s_08_1.jpg,Travel,,,sub-49
Desktop or Laptop,Windows 10,Chrome 138.0.0.0,1920x1080,1920x953,Temporal Distance Task,cb_01,81.0,temp_dist_trial,dist_items,qkpkxw,2.0,response,56,533.8999999999942,2535.8999999999937,2551.4999999940337,533.8999999999942,2535.8999999999937,2551.4999999940337,1.0,2017.5999999940395,0.0,,Slider,Slider,4.0,object-56,temp_dist_trial,33.0,t_s_08_1,travel_shared,hand lotion,1.0,competing,paired,t_s_08_1.jpg,Travel,,,sub-49
Desktop or Laptop,Windows 10,Chrome 138.0.0.0,1920x1080,1920x953,Temporal Distance Task,cb_01,82.0,temp_dist_trial,num_items,zn7si1,1.0,response,1_ITEM,1001.0,984.2999999999884,1001.0,1001.0,984.2999999999884,1001.0,1.0,0.0,0.0,,Click Response,1_count,3.0,object-46,temp_dist_trial,34.0,t_i_15_1,travel_Iceland,compass,1.0,unique,paired,t_i_15_1.jpg,Travel,,,sub-49
Desktop or Laptop,Windows 10,Chrome 138.0.0.0,1920x1080,1920x953,Temporal Distance Task,cb_01,83.0,temp_dist_trial,num_items,zn7si1,1.0,response,2_ITEM,995.6000000030037,984.3000000000467,995.6000000030037,995.6000000030037,984.3000000000467,995.6000000030037,1.0,0.0,0.0,,Click Response,2_count,5.0,object-49,temp_dist_trial,35.0,t_s_03_1,travel_shared,portable charger,1.0,competing,paired,t_s_03_1.jpg,Travel,,,sub-49
Desktop or Laptop,Windows 10,Chrome 138.0.0.0,1920x1080,1920x953,Temporal Distance Task,cb_01,83.0,temp_dist_trial,dist_items,qkpkxw,2.0,info,,4.2999999999883585,0.0,4.2999999999883585,4.2999999999883585,0.0,4.2999999999883585,1.0,0.0,0.0,,Slider,Slider,4.0,object-56,temp_dist_trial,35.0,t_s_03_1,travel_shared,portable charger,1.0,competing,paired,t_s_03_1.jpg,Travel,,,sub-49
Desktop or Laptop,Windows 10,Chrome 138.0.0.0,1920x1080,1920x953,Temporal Distance Task,cb_01,83.0,temp_dist_trial,dist_items,qkpkxw,2.0,continue,,1440.0000000029684,1434.7000000000116,1440.0000000029684,1440.0000000029684,1434.7000000000116,1440.0000000029684,1.0,0.0,0.0,,Click To Continue,Next button,7.0,object-60,temp_dist_trial,35.0,t_s_03_1,travel_shared,portable charger,1.0,competing,paired,t_s_03_1.jpg,Travel,,,sub-49
Desktop or Laptop,Windows 10,Chrome 138.0.0.0,1920x1080,1920x953,Temporal Distance Task,cb_01,83.0,temp_dist_trial,dist_items,qkpkxw,2.0,response,74,784.0,1434.7000000000116,1440.2999999999884,784.0,1434.7000000000116,1440.2999999999884,1.0,656.2999999999884,0.0,,Slider,Slider,4.0,object-56,temp_dist_trial,35.0,t_s_03_1,travel_shared,portable charger,1.0,competing,paired,t_s_03_1.jpg,Travel,,,sub-49
Desktop or Laptop,Windows 10,Chrome 138.0.0.0,1920x1080,1920x953,Temporal Distance Task,cb_01,84.0,temp_dist_trial,num_items,zn7si1,1.0,response,1_ITEM,1996.800000002957,1985.2999999999884,1996.800000002957,1996.800000002957,1985.2999999999884,1996.800000002957,1.0,0.0,0.0,,Click Response,1_count,3.0,object-46,temp_dist_trial,36.0,t_s_19_1,travel_shared,pajamas,1.0,competing,single,t_s_19_1.jpg,Travel,,,sub-49
Desktop or Laptop,Windows 10,Chrome 138.0.0.0,1920x1080,1920x953,Temporal Distance Task,cb_01,85.0,temp_dist_trial,num_items,zn7si1,1.0,response,1_ITEM,897.7999999970198,884.2000000000116,897.7999999970198,897.7999999970198,884.2000000000116,897.7999999970198,1.0,0.0,0.0,,Click Response,1_count,3.0,object-46,temp_dist_trial,37.0,t_i_04_1,travel_Iceland,portable camping stove,1.0,unique,single,t_i_04_1.jpg,Travel,,,sub-49
Desktop or Laptop,Windows 10,Chrome 138.0.0.0,1920x1080,1920x953,Temporal Distance Task,cb_01,86.0,temp_dist_trial,num_items,zn7si1,1.0,response,num_miss,3003.0999999999767,3003.0999999999767,3003.0999999999767,3003.0999999999767,3003.0999999999767,3003.0999999999767,1.0,0.0,0.0,num_miss_tag,Time Limit,screen,0.0,screen,temp_dist_trial,38.0,t_s_17_1,travel_shared,toothbrush,1.0,competing,paired,t_s_17_1.jpg,Travel,,,sub-49
Desktop or Laptop,Windows 10,Chrome 138.0.0.0,1920x1080,1920x953,Temporal Distance Task,cb_01,87.0,temp_dist_trial,num_items,zn7si1,1.0,response,1_ITEM,1312.7000000029802,1301.2999999999886,1312.7000000029802,1312.7000000029802,1301.2999999999886,1312.7000000029802,1.0,0.0,0.0,,Click Response,1_count,3.0,object-46,temp_dist_trial,39.0,t_m_16_1,travel_Miami,flippers,1.0,unique,paired,t_m_16_1.jpg,Travel,,,sub-49
Desktop or Laptop,Windows 10,Chrome 138.0.0.0,1920x1080,1920x953,Temporal Distance Task,cb_01,88.0,temp_dist_trial,num_items,zn7si1,1.0,response,1_ITEM,1505.1000000030035,1501.4000000000233,1505.1000000030035,1505.1000000030035,1501.4000000000233,1505.1000000030035,1.0,0.0,0.0,,Click Response,1_count,3.0,object-46,temp_dist_trial,40.0,t_s_11_1,travel_shared,eye mask,1.0,competing,paired,t_s_11_1.jpg,Travel,,,sub-49
Desktop or Laptop,Windows 10,Chrome 138.0.0.0,1920x1080,1920x953,Temporal Distance Task,cb_01,89.0,temp_dist_trial,num_items,zn7si1,1.0,response,1_ITEM,1309.4999999970316,1301.2999999999886,1309.4999999970316,1309.4999999970316,1301.2999999999886,1309.4999999970316,1.0,0.0,0.0,,Click Response,1_count,3.0,object-46,temp_dist_trial,41.0,t_s_04_1,travel_shared,instant camera,1.0,competing,single,t_s_04_1.jpg,Travel,,,sub-49
Desktop or Laptop,Windows 10,Chrome 138.0.0.0,1920x1080,1920x953,Temporal Distance Task,cb_01,90.0,temp_dist_trial,num_items,zn7si1,1.0,response,2_ITEM,1462.099999991071,1451.5,1462.099999991071,1462.099999991071,1451.5,1462.099999991071,1.0,0.0,0.0,,Click Response,2_count,5.0,object-49,temp_dist_trial,42.0,t_m_12_1,travel_Miami,foldable pail and shovel,1.0,unique,paired,t_m_12_1.jpg,Travel,,,sub-49
Desktop or Laptop,Windows 10,Chrome 138.0.0.0,1920x1080,1920x953,Temporal Distance Task,cb_01,90.0,temp_dist_trial,dist_items,qkpkxw,2.0,info,,5.499999994062819,0.0,5.499999994062819,5.499999994062819,0.0,5.499999994062819,1.0,0.0,0.0,,Slider,Slider,4.0,object-56,temp_dist_trial,42.0,t_m_12_1,travel_Miami,foldable pail and shovel,1.0,unique,paired,t_m_12_1.jpg,Travel,,,sub-49
Desktop or Laptop,Windows 10,Chrome 138.0.0.0,1920x1080,1920x953,Temporal Distance Task,cb_01,90.0,temp_dist_trial,dist_items,qkpkxw,2.0,continue,,3541.6000000030035,3536.8000000000466,3541.6000000030035,3541.6000000030035,3536.8000000000466,3541.6000000030035,1.0,0.0,0.0,,Click To Continue,Next button,7.0,object-60,temp_dist_trial,42.0,t_m_12_1,travel_Miami,foldable pail and shovel,1.0,unique,paired,t_m_12_1.jpg,Travel,,,sub-49
Desktop or Laptop,Windows 10,Chrome 138.0.0.0,1920x1080,1920x953,Temporal Distance Task,cb_01,90.0,temp_dist_trial,dist_items,qkpkxw,2.0,response,86,1051.0,3536.8000000000466,3544.4000000000237,1051.0,3536.8000000000466,3544.4000000000237,1.0,2493.4000000000233,0.0,,Slider,Slider,4.0,object-56,temp_dist_trial,42.0,t_m_12_1,travel_Miami,foldable pail and shovel,1.0,unique,paired,t_m_12_1.jpg,Travel,,,sub-49
