Current Spreadsheet,Trial Number,Display,Screen,Response Type,Response,Reaction Time,display,block,block_trial,stimulus_id,expected_goal,fold,stimulus_name,c_group,condition,within_block_dist,paired_status,stimulus_path,expected_location,block_split,respStim_1,respStim_2,sub_label,acc,both_enc_acc,assoc_stim1_acc,assoc_stim2_acc,x_pos,y_pos,time_trajectories
cb_06,1.0,enc_trial,stim,response,STEM students,929.4000000238448,enc_trial,1.0,1.0,s_s_14_1,student_stem,fold-e,funnel,6.0,unique,close,paired,s_s_14_1.jpg,stem,student-b1,STEM students,Fine Arts students,sub-70,1.0,1.0,1.0,1.0,0.4993055555555556 0.4993055555555556 0.4993055555555556 0.5 0.5006944444444444 0.5006944444444444 0.4993055555555556 0.4965277777777778 0.49375 0.4923611111111112 0.4923611111111112 0.4965277777777778 0.5055555555555555 0.51875 0.5409722222222222 0.5715277777777777 0.6048611111111111 0.6277777777777778 0.6541666666666667 0.6715277777777777 0.6756944444444445 0.66875 0.6465277777777778 0.6159722222222223 0.5763888888888888 0.5194444444444445 0.4743055555555555 0.4083333333333333 0.3472222222222222 0.2902777777777778 0.2458333333333333 0.21180555555555555 0.18125 0.15555555555555556 0.14444444444444446 0.13680555555555554 0.1361111111111111,0.8222222222222222 0.8212962962962963 0.8166666666666667 0.8092592592592592 0.7953703703703704 0.7712962962962963 0.7425925925925926 0.7055555555555555 0.6657407407407407 0.6361111111111111 0.5925925925925926 0.5527777777777778 0.5166666666666666 0.487037037037037 0.4546296296296296 0.4157407407407408 0.3740740740740741 0.3462962962962963 0.3138888888888889 0.28796296296296303 0.2731481481481481 0.2675925925925926 0.2620370370370371 0.25370370370370365 0.2444444444444445 0.2361111111111112 0.2296296296296297 0.2129629629629629 0.1962962962962963 0.18240740740740746 0.17314814814814816 0.16481481481481486 0.1592592592592592 0.15833333333333333 0.15740740740740744 0.15740740740740744 0.15740740740740744,215.3000000000029 235.3000000000029 255.3000000000029 275.3000000000029 295.30000000000285 315.30000000000285 335.30000000000285 355.3000000000029 375.3000000000029 395.3000000000029 415.3000000000029 435.3000000000029 455.3000000000029 475.3000000000029 495.3000000000029 515.3000000000029 535.3000000000029 555.3000000000029 575.3000000000029 595.3000000000029 615.3000000000029 635.3000000000029 655.3000000000029 675.3000000000029 695.3000000000029 715.3000000000029 735.3000000000029 755.3000000000029 775.3000000000029 795.3000000000029 815.3000000000029 835.3000000000029 855.3000000000029 875.3000000000029 895.3000000000029 915.3000000000028 935.3000000000028
cb_06,2.0,enc_trial,stim,response,Fine Arts students,820.7000000953702,enc_trial,1.0,2.0,s_a_15_1,student_art,fold-d,drum kit,6.0,unique,far,paired,s_a_15_1.jpg,art,student-b1,STEM students,Fine Arts students,sub-70,1.0,1.0,1.0,1.0,0.5034722222222222 0.5034722222222222 0.5041666666666667 0.5041666666666667 0.5034722222222222 0.5034722222222222 0.5034722222222222 0.5034722222222222 0.5034722222222222 0.5034722222222222 0.5027777777777778 0.5027777777777778 0.5020833333333333 0.5013888888888889 0.5006944444444444 0.5 0.5 0.4986111111111111 0.4951388888888889 0.4909722222222222 0.4861111111111111 0.4819444444444445 0.4784722222222222 0.475 0.4673611111111111 0.4506944444444445 0.44027777777777777 0.425 0.4152777777777778 0.4194444444444445 0.4541666666666666 0.5194444444444445 0.5944444444444444 0.6673611111111111 0.7097222222222223 0.7708333333333334 0.81875 0.85 0.8673611111111111 0.8743055555555556 0.8763888888888889,0.8138888888888889 0.8111111111111111 0.8083333333333333 0.8074074074074074 0.8074074074074074 0.8064814814814815 0.8064814814814815 0.8064814814814815 0.8064814814814815 0.8064814814814815 0.8046296296296296 0.8018518518518518 0.7972222222222223 0.7935185185185185 0.7851851851851852 0.7712962962962963 0.7527777777777778 0.7398148148148148 0.7212962962962963 0.7018518518518518 0.6805555555555556 0.6638888888888889 0.6509259259259259 0.6398148148148148 0.625925925925926 0.5972222222222222 0.5694444444444444 0.5083333333333333 0.4481481481481482 0.3907407407407407 0.3203703703703704 0.24722222222222226 0.19259259259259254 0.15370370370370368 0.13703703703703707 0.12129629629629635 0.1166666666666667 0.11759259259259258 0.12037037037037035 0.12129629629629635 0.12222222222222225,0.0 20.0 40.0 60.0 80.0 100.0 120.0 140.0 160.0 180.0 200.0 220.0 240.0 260.0 280.0 300.0 320.0 340.0 360.0 380.0 400.0 420.0 440.0 460.0 480.0 500.0 520.0 540.0 560.0 580.0 600.0 620.0 640.0 660.0 680.0 700.0 720.0 740.0 760.0 780.0 800.0
cb_06,3.0,enc_trial,stim,response,Fine Arts students,1129.8000000000031,enc_trial,1.0,3.0,s_sh_23_1,student_shared,fold-a-single,ballpoint pen,6.0,competing,,single,s_sh_23_1.jpg,,student-b1,STEM students,Fine Arts students,sub-70,1.0,,1.0,,0.5034722222222222 0.5027777777777778 0.5013888888888889 0.5 0.4986111111111111 0.4972222222222222 0.4958333333333334 0.4951388888888889 0.49375 0.4916666666666666 0.4881944444444444 0.4854166666666666 0.4798611111111111 0.4770833333333334 0.4791666666666667 0.4833333333333333 0.4972222222222222 0.5145833333333333 0.5576388888888889 0.6138888888888889 0.6611111111111111 0.6930555555555555 0.7159722222222222 0.7305555555555555 0.7319444444444444 0.7270833333333333 0.7173611111111111 0.6875 0.63125 0.5708333333333333 0.5041666666666667 0.44375 0.3895833333333333 0.3555555555555556 0.34791666666666665 0.3611111111111111 0.4076388888888889 0.4805555555555556 0.5638888888888889 0.6576388888888889 0.7541666666666667 0.8333333333333334 0.8694444444444445 0.8993055555555556,0.8046296296296296 0.8037037037037037 0.8 0.7925925925925926 0.7842592592592592 0.7759259259259259 0.7648148148148148 0.7564814814814815 0.7462962962962962 0.7379629629629629 0.7203703703703703 0.700925925925926 0.6814814814814815 0.6527777777777778 0.6166666666666667 0.5777777777777777 0.5361111111111111 0.5055555555555555 0.4527777777777777 0.4009259259259259 0.3648148148148148 0.3416666666666667 0.3222222222222222 0.30925925925925923 0.3064814814814815 0.3046296296296296 0.3027777777777778 0.3018518518518518 0.29814814814814816 0.28148148148148144 0.2518518518518519 0.21851851851851856 0.18518518518518529 0.15370370370370368 0.13611111111111107 0.1148148148148148 0.10370370370370374 0.0981481481481481 0.09444444444444444 0.09351851851851856 0.09444444444444444 0.09907407407407408 0.10185185185185186 0.10370370370370374,270.6999999999971 290.69999999999715 310.69999999999715 330.69999999999715 350.6999999999971 370.6999999999971 390.6999999999971 410.6999999999971 430.6999999999971 450.6999999999971 470.6999999999971 490.6999999999971 510.6999999999971 530.6999999999971 550.6999999999971 570.6999999999971 590.6999999999971 610.6999999999971 630.6999999999971 650.6999999999971 670.6999999999971 690.6999999999971 710.6999999999971 730.6999999999971 750.6999999999971 770.6999999999971 790.6999999999971 810.6999999999971 830.6999999999971 850.6999999999971 870.6999999999971 890.6999999999971 910.6999999999972 930.6999999999972 950.6999999999972 970.6999999999972 990.6999999999972 1010.6999999999972 1030.6999999999969 1050.6999999999969 1070.6999999999969 1090.6999999999969 1110.6999999999969 1130.6999999999969
cb_06,4.0,enc_trial,stim,response,STEM students,845.7000000476837,enc_trial,1.0,4.0,s_s_20_1,student_stem,fold-d,dna model,6.0,unique,far,paired,s_s_20_1.jpg,stem,student-b1,STEM students,Fine Arts students,sub-70,1.0,1.0,1.0,1.0,0.5222222222222223 0.525 0.53125 0.5361111111111111 0.5395833333333333 0.5409722222222222 0.5409722222222222 0.5409722222222222 0.5409722222222222 0.5409722222222222 0.5409722222222222 0.5409722222222222 0.5409722222222222 0.5409722222222222 0.5402777777777777 0.5395833333333333 0.5388888888888889 0.5388888888888889 0.5375 0.5354166666666667 0.5333333333333333 0.53125 0.5277777777777778 0.5243055555555556 0.5215277777777778 0.5180555555555556 0.5145833333333333 0.5069444444444444 0.4965277777777778 0.48125 0.4576388888888889 0.4298611111111112 0.3979166666666665 0.3631944444444444 0.3402777777777778 0.3020833333333333 0.2604166666666667 0.2215277777777777 0.18958333333333333 0.16041666666666668 0.14166666666666666 0.13125 0.12986111111111112,0.7833333333333333 0.7787037037037037 0.7694444444444444 0.7611111111111111 0.7555555555555555 0.7527777777777778 0.7518518518518519 0.7518518518518519 0.7518518518518519 0.7518518518518519 0.7518518518518519 0.7518518518518519 0.7518518518518519 0.7518518518518519 0.7509259259259259 0.7509259259259259 0.75 0.75 0.749074074074074 0.7453703703703703 0.7407407407407407 0.7351851851851852 0.7240740740740741 0.7092592592592593 0.6944444444444444 0.6814814814814815 0.6731481481481482 0.6555555555555556 0.6305555555555555 0.5990740740740741 0.5638888888888889 0.5259259259259259 0.4787037037037037 0.4268518518518518 0.3953703703703704 0.35185185185185186 0.3083333333333333 0.26481481481481484 0.2324074074074074 0.2055555555555556 0.18888888888888888 0.17962962962962958 0.1787037037037037,0.0 20.0 40.0 60.0 80.0 100.0 120.0 140.0 160.0 180.0 200.0 220.0 240.0 260.0 280.0 300.0 320.0 340.0 360.0 380.0 400.0 420.0 440.0 460.0 480.0 500.0 520.0 540.0 560.0 580.0 600.0 620.0 640.0 660.0 680.0 700.0 720.0 740.0 760.0 780.0 800.0 820.0 840.0
cb_06,5.0,enc_trial,stim,response,STEM students,1312.5999999999913,enc_trial,1.0,5.0,s_sh_24_1,student_shared,fold-b,desk organizer,6.0,competing,far,paired,s_sh_24_1.jpg,,student-b1,STEM students,Fine Arts students,sub-70,1.0,1.0,1.0,1.0,0.5125 0.5131944444444444 0.5138888888888888 0.5145833333333333 0.5145833333333333 0.5145833333333333 0.5145833333333333 0.5145833333333333 0.5145833333333333 0.5145833333333333 0.5145833333333333 0.5145833333333333 0.5145833333333333 0.5145833333333333 0.5138888888888888 0.5131944444444444 0.5125 0.5118055555555555 0.5111111111111111 0.5104166666666666 0.5083333333333333 0.5055555555555555 0.5027777777777778 0.4993055555555556 0.4958333333333334 0.49375 0.4930555555555556 0.4930555555555556 0.4916666666666666 0.4930555555555556 0.5027777777777778 0.5194444444444445 0.5416666666666666 0.5631944444444444 0.575 0.5909722222222222 0.6069444444444444 0.6194444444444445 0.6215277777777778 0.6215277777777778 0.6215277777777778 0.6256944444444444 0.6319444444444444 0.6402777777777777 0.6465277777777778 0.65 0.6506944444444445 0.6479166666666667 0.6368055555555555 0.6145833333333334 0.58125 0.5513888888888889 0.5027777777777778 0.4479166666666667 0.4 0.3555555555555556 0.3125 0.26875 0.22847222222222224 0.2069444444444445 0.18055555555555555 0.16180555555555556 0.14791666666666667 0.14166666666666666 0.14097222222222222,0.8111111111111111 0.8083333333333333 0.8046296296296296 0.8037037037037037 0.8037037037037037 0.8027777777777778 0.8027777777777778 0.8027777777777778 0.8027777777777778 0.8027777777777778 0.8027777777777778 0.8027777777777778 0.8027777777777778 0.8018518518518518 0.8009259259259259 0.7981481481481482 0.7935185185185185 0.7907407407407407 0.7833333333333333 0.775 0.7638888888888888 0.749074074074074 0.7324074074074074 0.7166666666666667 0.6981481481481482 0.675 0.6555555555555556 0.6287037037037038 0.6018518518518519 0.5666666666666667 0.5231481481481481 0.4777777777777778 0.437037037037037 0.4083333333333333 0.3953703703703704 0.3796296296296297 0.3675925925925926 0.3601851851851852 0.3592592592592593 0.3592592592592593 0.3583333333333333 0.3527777777777777 0.3462962962962963 0.3379629629629629 0.3324074074074074 0.3277777777777777 0.32592592592592595 0.3222222222222222 0.3148148148148148 0.3046296296296296 0.29166666666666663 0.2805555555555556 0.2620370370370371 0.2388888888888889 0.21666666666666667 0.19814814814814816 0.18333333333333326 0.17222222222222228 0.16481481481481486 0.1611111111111111 0.15833333333333333 0.15740740740740744 0.15740740740740744 0.15648148148148144 0.15648148148148144,0.0 20.0 40.0 60.0 80.0 100.0 120.0 140.0 160.0 180.0 200.0 220.0 240.0 260.0 280.0 300.0 320.0 340.0 360.0 380.0 400.0 420.0 440.0 460.0 480.0 500.0 520.0 540.0 560.0 580.0 600.0 620.0 640.0 660.0 680.0 700.0 720.0 740.0 760.0 780.0 800.0 820.0 840.0 860.0 880.0 900.0 920.0 940.0 960.0 980.0 1000.0 1020.0 1040.0 1060.0 1080.0 1100.0 1120.0 1140.0 1160.0 1180.0 1200.0 1220.0 1240.0 1260.0 1280.0
cb_06,6.0,enc_trial,stim,response,STEM students,876.7000000953702,enc_trial,1.0,6.0,s_s_14_2,student_stem,fold-e,funnel,6.0,unique,close,paired,s_s_14_2.jpg,stem,student-b1,STEM students,Fine Arts students,sub-70,1.0,1.0,1.0,1.0,0.5180555555555556 0.5201388888888889 0.5236111111111111 0.5277777777777778 0.5305555555555556 0.5333333333333333 0.5347222222222222 0.5368055555555555 0.5375 0.5381944444444444 0.5381944444444444 0.5375 0.5361111111111111 0.5340277777777778 0.53125 0.5284722222222222 0.5222222222222223 0.5173611111111112 0.5104166666666666 0.5041666666666667 0.4986111111111111 0.4951388888888889 0.4930555555555556 0.4944444444444445 0.50625 0.5291666666666667 0.5472222222222223 0.5770833333333333 0.6048611111111111 0.6201388888888889 0.6263888888888889 0.6229166666666667 0.6097222222222223 0.5847222222222223 0.5597222222222222 0.5125 0.4569444444444444 0.39375 0.33541666666666664 0.27847222222222223 0.22291666666666668 0.17569444444444446 0.1527777777777778 0.12916666666666668 0.12291666666666665,0.8027777777777778 0.7981481481481482 0.7907407407407407 0.7833333333333333 0.7768518518518519 0.7712962962962963 0.7648148148148148 0.7592592592592593 0.7546296296296297 0.7518518518518519 0.749074074074074 0.7472222222222222 0.7444444444444445 0.7435185185185185 0.7416666666666667 0.7388888888888889 0.7351851851851852 0.7314814814814814 0.725 0.7185185185185186 0.712962962962963 0.7074074074074075 0.6981481481481482 0.6759259259259259 0.637962962962963 0.5861111111111111 0.5509259259259259 0.500925925925926 0.4546296296296296 0.425 0.40648148148148144 0.3925925925925926 0.3796296296296297 0.3601851851851852 0.3462962962962963 0.3194444444444444 0.2870370370370371 0.2518518518518519 0.21944444444444444 0.1898148148148148 0.1620370370370371 0.13888888888888884 0.12870370370370365 0.12129629629629635 0.12037037037037035,0.0 20.0 40.0 60.0 80.0 100.0 120.0 140.0 160.0 180.0 200.0 220.0 240.0 260.0 280.0 300.0 320.0 340.0 360.0 380.0 400.0 420.0 440.0 460.0 480.0 500.0 520.0 540.0 560.0 580.0 600.0 620.0 640.0 660.0 680.0 700.0 720.0 740.0 760.0 780.0 800.0 820.0 840.0 860.0 880.0
cb_06,7.0,enc_trial,stim,response,STEM students,912.8000000000028,enc_trial,1.0,7.0,s_sh_09_1,student_shared,fold-c,paper clips,6.0,competing,close,paired,s_sh_09_1.jpg,,student-b1,STEM students,Fine Arts students,sub-70,0.0,0.0,0.0,0.0,0.5083333333333333 0.5090277777777777 0.5104166666666666 0.5104166666666666 0.5111111111111111 0.5111111111111111 0.5111111111111111 0.5111111111111111 0.5111111111111111 0.5111111111111111 0.5111111111111111 0.5111111111111111 0.5111111111111111 0.5118055555555555 0.5118055555555555 0.5118055555555555 0.5118055555555555 0.5104166666666666 0.5076388888888889 0.50625 0.5076388888888889 0.5125 0.5131944444444444 0.5111111111111111 0.5145833333333333 0.53125 0.5465277777777777 0.5694444444444444 0.5847222222222223 0.5916666666666667 0.5923611111111111 0.5854166666666667 0.5680555555555555 0.5319444444444444 0.5041666666666667 0.4506944444444445 0.39375 0.3298611111111111 0.26875 0.21944444444444444 0.17777777777777778 0.14097222222222222 0.12013888888888888 0.10277777777777776 0.09722222222222222 0.09652777777777778,0.8212962962962963 0.8212962962962963 0.8203703703703704 0.8203703703703704 0.8203703703703704 0.8203703703703704 0.8203703703703704 0.8203703703703704 0.8203703703703704 0.8203703703703704 0.8203703703703704 0.8194444444444444 0.8185185185185185 0.8148148148148149 0.8092592592592592 0.8027777777777778 0.7944444444444445 0.787037037037037 0.7712962962962963 0.7481481481481482 0.7231481481481481 0.6916666666666667 0.662037037037037 0.6342592592592593 0.5944444444444444 0.5462962962962963 0.5175925925925926 0.4777777777777778 0.4509259259259261 0.43240740740740746 0.42314814814814816 0.4166666666666666 0.4120370370370371 0.4037037037037037 0.3935185185185185 0.3703703703703704 0.34444444444444444 0.312962962962963 0.2768518518518519 0.2435185185185185 0.21666666666666667 0.1972222222222222 0.18518518518518529 0.17500000000000004 0.17222222222222228 0.17129629629629628,0.0 20.0 40.0 60.0 80.0 100.0 120.0 140.0 160.0 180.0 200.0 220.0 240.0 260.0 280.0 300.0 320.0 340.0 360.0 380.0 400.0 420.0 440.0 460.0 480.0 500.0 520.0 540.0 560.0 580.0 600.0 620.0 640.0 660.0 680.0 700.0 720.0 740.0 760.0 780.0 800.0 820.0 840.0 860.0 880.0 900.0
cb_06,8.0,enc_trial,stim,response,Fine Arts students,1098.3000000953616,enc_trial,1.0,8.0,s_a_09_2,student_art,fold-e,picture frame,6.0,unique,close,paired,s_a_09_2.jpg,art,student-b1,STEM students,Fine Arts students,sub-70,1.0,1.0,1.0,1.0,0.5006944444444444 0.5006944444444444 0.5006944444444444 0.5 0.5006944444444444 0.5020833333333333 0.5027777777777778 0.5020833333333333 0.4993055555555556 0.4972222222222222 0.4944444444444445 0.4902777777777778 0.4847222222222222 0.4791666666666667 0.4736111111111111 0.46875 0.4666666666666667 0.4652777777777778 0.4618055555555556 0.4604166666666666 0.4645833333333334 0.4763888888888889 0.4923611111111112 0.5159722222222223 0.5513888888888889 0.5875 0.6048611111111111 0.6222222222222222 0.6298611111111111 0.6333333333333333 0.6361111111111111 0.6416666666666667 0.65 0.6659722222222222 0.6819444444444445 0.7076388888888889 0.7375 0.7770833333333333 0.8201388888888889 0.8576388888888888 0.8861111111111111 0.9027777777777778 0.9083333333333332 0.9097222222222222,0.8222222222222222 0.8194444444444444 0.8166666666666667 0.812037037037037 0.8055555555555556 0.7981481481481482 0.7898148148148147 0.7805555555555556 0.7675925925925926 0.7546296296296297 0.737037037037037 0.7194444444444444 0.7018518518518518 0.6833333333333333 0.6611111111111111 0.6361111111111111 0.6101851851851852 0.5962962962962963 0.5759259259259261 0.5546296296296296 0.5212962962962964 0.4879629629629629 0.4592592592592593 0.4305555555555556 0.39907407407407397 0.3712962962962964 0.3583333333333333 0.34444444444444444 0.33333333333333337 0.3222222222222222 0.30925925925925923 0.2944444444444444 0.275 0.2416666666666667 0.2138888888888889 0.17685185185185182 0.14537037037037034 0.11759259259259258 0.09629629629629632 0.08518518518518514 0.08333333333333337 0.08425925925925926 0.08703703703703702 0.08796296296296291,228.8999999999941 248.8999999999941 268.89999999999407 288.8999999999941 308.8999999999941 328.8999999999941 348.8999999999941 368.8999999999941 388.8999999999941 408.8999999999941 428.8999999999941 448.8999999999941 468.8999999999941 488.8999999999941 508.8999999999941 528.8999999999942 548.8999999999942 568.8999999999943 588.8999999999943 608.8999999999943 628.8999999999943 648.8999999999943 668.8999999999943 688.8999999999942 708.8999999999942 728.8999999999942 748.8999999999942 768.8999999999942 788.8999999999942 808.8999999999942 828.8999999999942 848.8999999999942 868.8999999999942 888.8999999999942 908.8999999999942 928.8999999999942 948.8999999999942 968.8999999999942 988.8999999999942 1008.8999999999942 1028.8999999999942 1048.8999999999942 1068.8999999999942 1088.8999999999942
cb_06,9.0,enc_trial,stim,response,STEM students,833.3000000000029,enc_trial,1.0,9.0,s_s_11_1,student_stem,fold-d,scientific scale,6.0,unique,far,paired,s_s_11_1.jpg,stem,student-b1,STEM students,Fine Arts students,sub-70,1.0,1.0,1.0,1.0,0.5006944444444444 0.4993055555555556 0.4979166666666667 0.4972222222222222 0.4965277777777778 0.4958333333333334 0.49375 0.4895833333333333 0.48125 0.4729166666666666 0.4569444444444444 0.4298611111111112 0.39166666666666666 0.3486111111111111 0.3020833333333333 0.2513888888888889 0.20277777777777767 0.175 0.13819444444444445 0.10972222222222222 0.09166666666666666 0.08402777777777777 0.08055555555555556 0.0798611111111111,0.8231481481481482 0.8212962962962963 0.8157407407407408 0.8101851851851851 0.8046296296296296 0.8 0.7925925925925926 0.7787037037037037 0.7574074074074074 0.7388888888888889 0.7018518518518518 0.6453703703703704 0.5768518518518518 0.4935185185185185 0.4074074074074073 0.3277777777777777 0.2583333333333333 0.2203703703703704 0.1777777777777778 0.1509259259259259 0.13796296296296295 0.13240740740740742 0.12870370370370365 0.12777777777777774,375.0 395.0 415.0 435.0 455.0 475.0 495.0 515.0 535.0 555.0 575.0 595.0 615.0 635.0 655.0 675.0 695.0 715.0 735.0 755.0 775.0 795.0 815.0 835.0
cb_06,10.0,enc_trial,stim,response,Fine Arts students,1173.3000000715256,enc_trial,1.0,10.0,s_sh_04_1,student_shared,fold-c,laptop stand,6.0,competing,close,paired,s_sh_04_1.jpg,,student-b1,STEM students,Fine Arts students,sub-70,0.0,0.0,0.0,1.0,0.5020833333333333 0.5020833333333333 0.5027777777777778 0.5034722222222222 0.5034722222222222 0.5034722222222222 0.5034722222222222 0.5034722222222222 0.5020833333333333 0.5006944444444444 0.4972222222222222 0.49375 0.4895833333333333 0.4840277777777778 0.475 0.4659722222222222 0.45625 0.4506944444444445 0.4430555555555555 0.43472222222222223 0.4243055555555556 0.4111111111111111 0.39652777777777776 0.3819444444444444 0.3673611111111112 0.3513888888888889 0.3402777777777778 0.3201388888888889 0.30277777777777776 0.28402777777777777 0.26805555555555555 0.2513888888888889 0.23541666666666666 0.22013888888888888 0.21319444444444444 0.2048611111111111 0.2013888888888889 0.20555555555555555 0.2277777777777777 0.2756944444444445 0.35625 0.4597222222222222 0.5375 0.6423611111111112 0.7305555555555555 0.7986111111111112 0.8527777777777777 0.8902777777777777 0.9125 0.9201388888888888,0.8287037037037037 0.8277777777777777 0.825925925925926 0.8222222222222222 0.8194444444444444 0.8157407407407408 0.8101851851851851 0.8037037037037037 0.7916666666666666 0.7842592592592592 0.7703703703703704 0.7555555555555555 0.7407407407407407 0.7240740740740741 0.7064814814814815 0.6879629629629629 0.6694444444444445 0.6574074074074074 0.6407407407407407 0.625925925925926 0.6083333333333334 0.5842592592592593 0.5555555555555556 0.5231481481481481 0.4898148148148148 0.4592592592592593 0.4388888888888889 0.4027777777777778 0.3657407407407407 0.325 0.29074074074074074 0.2620370370370371 0.2379629629629629 0.2129629629629629 0.19907407407407407 0.18148148148148147 0.1703703703703704 0.16388888888888886 0.15555555555555556 0.1444444444444445 0.13148148148148153 0.12129629629629635 0.1166666666666667 0.11296296296296293 0.11296296296296293 0.11296296296296293 0.11296296296296293 0.11203703703703703 0.11111111111111116 0.11111111111111116,159.60000000000582 179.6000000000058 199.60000000000585 219.60000000000585 239.60000000000585 259.6000000000058 279.6000000000058 299.6000000000058 319.6000000000058 339.6000000000058 359.6000000000058 379.6000000000058 399.6000000000058 419.6000000000058 439.6000000000058 459.6000000000058 479.6000000000058 499.6000000000058 519.6000000000058 539.6000000000058 559.6000000000058 579.6000000000057 599.6000000000057 619.6000000000057 639.6000000000057 659.6000000000057 679.6000000000057 699.6000000000058 719.6000000000058 739.6000000000058 759.6000000000058 779.6000000000058 799.6000000000058 819.6000000000058 839.6000000000058 859.6000000000058 879.6000000000058 899.6000000000058 919.6000000000058 939.6000000000058 959.6000000000058 979.6000000000058 999.6000000000058 1019.6000000000058 1039.6000000000058 1059.6000000000058 1079.6000000000058 1099.6000000000058 1119.6000000000058 1139.6000000000058
cb_06,11.0,enc_trial,stim,response,STEM students,1233.7000000953706,enc_trial,1.0,11.0,s_sh_09_2,student_shared,fold-c,paper clips,6.0,competing,close,paired,s_sh_09_2.jpg,,student-b1,STEM students,Fine Arts students,sub-70,0.0,0.0,0.0,0.0,0.5013888888888889 0.5006944444444444 0.5 0.5 0.5 0.5006944444444444 0.5020833333333333 0.5034722222222222 0.5041666666666667 0.5048611111111111 0.50625 0.5097222222222222 0.5166666666666667 0.5222222222222223 0.5298611111111111 0.5506944444444445 0.5840277777777778 0.6 0.6194444444444445 0.6395833333333333 0.6659722222222222 0.6923611111111111 0.7090277777777778 0.7180555555555556 0.7270833333333333 0.7361111111111112 0.7416666666666667 0.7472222222222222 0.7486111111111111 0.74375 0.7208333333333333 0.6715277777777777 0.5979166666666667 0.5118055555555555 0.4590277777777778 0.3840277777777778 0.31527777777777777 0.2576388888888889 0.21388888888888888 0.1875 0.17291666666666666 0.1701388888888889,0.8194444444444444 0.8175925925925926 0.812962962962963 0.8074074074074074 0.8018518518518518 0.7944444444444445 0.7861111111111111 0.7796296296296297 0.7731481481481481 0.7694444444444444 0.7620370370370371 0.75 0.7342592592592593 0.7175925925925926 0.6944444444444444 0.6509259259259259 0.5916666666666667 0.5620370370370371 0.5212962962962964 0.4740740740740741 0.4194444444444444 0.3675925925925926 0.3277777777777777 0.29814814814814816 0.27222222222222225 0.2490740740740741 0.2351851851851852 0.21944444444444444 0.21018518518518514 0.2064814814814815 0.20370370370370366 0.21018518518518514 0.2240740740740741 0.2277777777777777 0.2203703703703704 0.20740740740740726 0.1972222222222222 0.18796296296296305 0.17962962962962958 0.17407407407407405 0.1694444444444444 0.1694444444444444,298.5 318.5 338.5 358.5 378.5 398.5 418.5 438.5 458.5 478.5 498.5 518.5 538.5 558.5 578.5 598.5 618.5 638.5 658.5 678.5 698.5 718.5 738.5 758.5 778.5 798.5 818.5 838.5 858.5 878.5 898.5 918.5 938.5 958.5 978.5 998.5 1018.5 1038.5 1058.5 1078.5 1098.5 1118.5
cb_06,12.0,enc_trial,stim,response,Fine Arts students,899.0000000715227,enc_trial,1.0,12.0,s_a_09_1,student_art,fold-e,picture frame,6.0,unique,close,paired,s_a_09_1.jpg,art,student-b1,STEM students,Fine Arts students,sub-70,1.0,1.0,1.0,1.0,0.5013888888888889 0.5020833333333333 0.5027777777777778 0.5027777777777778 0.5027777777777778 0.5027777777777778 0.5027777777777778 0.5027777777777778 0.5020833333333333 0.5006944444444444 0.4972222222222222 0.49375 0.4895833333333333 0.4875 0.4861111111111111 0.4875 0.4993055555555556 0.5166666666666667 0.5486111111111112 0.5833333333333334 0.6208333333333333 0.6548611111111111 0.6770833333333334 0.6895833333333333 0.7020833333333333 0.7145833333333333 0.7229166666666667 0.7354166666666667 0.7493055555555556 0.7680555555555556 0.7909722222222222 0.8118055555555556 0.8326388888888889 0.8513888888888889 0.8590277777777777 0.8604166666666667,0.8231481481481482 0.8222222222222222 0.8203703703703704 0.8194444444444444 0.8166666666666667 0.8101851851851851 0.8027777777777778 0.7925925925925926 0.7805555555555556 0.7722222222222223 0.7564814814814815 0.737037037037037 0.7166666666666667 0.6972222222222222 0.6796296296296296 0.6592592592592592 0.6277777777777778 0.5990740740740741 0.5564814814814815 0.5148148148148148 0.4694444444444445 0.4259259259259259 0.3916666666666667 0.3648148148148148 0.3342592592592593 0.3055555555555556 0.2870370370370371 0.2629629629629629 0.2351851851851852 0.2046296296296296 0.17592592592592593 0.15648148148148144 0.13981481481481484 0.12777777777777774 0.125 0.12407407407407413,215.1999999999971 235.1999999999971 255.1999999999971 275.1999999999971 295.19999999999715 315.19999999999715 335.19999999999715 355.1999999999971 375.1999999999971 395.1999999999971 415.1999999999971 435.1999999999971 455.1999999999971 475.1999999999971 495.1999999999971 515.1999999999971 535.1999999999971 555.1999999999971 575.1999999999971 595.1999999999971 615.1999999999971 635.1999999999971 655.1999999999971 675.1999999999971 695.1999999999971 715.1999999999971 735.1999999999971 755.1999999999971 775.1999999999971 795.1999999999971 815.1999999999971 835.1999999999971 855.1999999999971 875.1999999999971 895.1999999999971 915.1999999999972
cb_06,13.0,enc_trial,stim,response,STEM students,876.3000000715256,enc_trial,1.0,13.0,s_s_04_1,student_stem,fold-a-single,bunsen burner,6.0,unique,,single,s_s_04_1.jpg,stem,student-b1,STEM students,Fine Arts students,sub-70,1.0,,1.0,,0.4986111111111111 0.4986111111111111 0.4986111111111111 0.4986111111111111 0.4986111111111111 0.4986111111111111 0.4986111111111111 0.4979166666666667 0.4965277777777778 0.4944444444444445 0.4888888888888889 0.48125 0.4729166666666666 0.4611111111111112 0.4375 0.4069444444444445 0.37083333333333335 0.34444444444444444 0.3055555555555556 0.2743055555555556 0.2486111111111111 0.23194444444444445 0.22361111111111112 0.22083333333333333 0.21944444444444444 0.21597222222222226 0.2125 0.2013888888888889 0.18263888888888888 0.16805555555555554 0.15902777777777774 0.15486111111111112,0.8296296296296296 0.8277777777777777 0.825 0.8222222222222222 0.8175925925925926 0.8092592592592592 0.8 0.7925925925925926 0.7842592592592592 0.7768518518518519 0.7555555555555555 0.7231481481481481 0.6824074074074074 0.6361111111111111 0.5694444444444444 0.4935185185185185 0.4092592592592592 0.35462962962962963 0.28148148148148144 0.2305555555555555 0.19166666666666665 0.17129629629629628 0.16296296296296298 0.1620370370370371 0.1611111111111111 0.1601851851851852 0.1601851851851852 0.15833333333333333 0.15370370370370368 0.14629629629629626 0.14166666666666672 0.14074074074074072,222.20000000001164 242.20000000001164 262.20000000001164 282.20000000001164 302.20000000001164 322.20000000001164 342.20000000001164 362.2000000000117 382.2000000000117 402.2000000000117 422.2000000000117 442.2000000000117 462.2000000000117 482.2000000000117 502.2000000000117 522.2000000000116 542.2000000000116 562.2000000000116 582.2000000000116 602.2000000000116 622.2000000000116 642.2000000000116 662.2000000000116 682.2000000000116 702.2000000000116 722.2000000000116 742.2000000000116 762.2000000000116 782.2000000000116 802.2000000000116 822.2000000000116 842.2000000000116
cb_06,14.0,enc_trial,stim,response,Fine Arts students,655.9000000715314,enc_trial,1.0,14.0,s_a_03_1,student_art,fold-e,palette,6.0,unique,close,paired,s_a_03_1.jpg,art,student-b1,STEM students,Fine Arts students,sub-70,1.0,1.0,1.0,1.0,0.4993055555555556 0.4993055555555556 0.4993055555555556 0.4993055555555556 0.4993055555555556 0.4993055555555556 0.4993055555555556 0.4986111111111111 0.4979166666666667 0.4979166666666667 0.4972222222222222 0.4965277777777778 0.4951388888888889 0.49375 0.4930555555555556 0.4986111111111111 0.5125 0.5354166666666667 0.5604166666666667 0.6173611111111111 0.6798611111111111 0.7333333333333333 0.7784722222222222 0.81875 0.8506944444444444 0.8666666666666667 0.8729166666666667 0.8736111111111111,0.8287037037037037 0.8287037037037037 0.8277777777777777 0.825925925925926 0.825 0.8240740740740741 0.8231481481481482 0.8222222222222222 0.8194444444444444 0.8175925925925926 0.812962962962963 0.8074074074074074 0.8018518518518518 0.7925925925925926 0.775 0.749074074074074 0.712962962962963 0.662962962962963 0.6148148148148148 0.5185185185185186 0.4222222222222223 0.34259259259259256 0.275 0.21759259259259256 0.1694444444444444 0.14166666666666672 0.12870370370370365 0.12777777777777774,132.10000000000582 152.10000000000582 172.1000000000058 192.10000000000585 212.10000000000585 232.10000000000585 252.10000000000585 272.1000000000058 292.1000000000058 312.1000000000058 332.1000000000058 352.1000000000058 372.1000000000058 392.1000000000058 412.1000000000058 432.1000000000058 452.1000000000058 472.1000000000058 492.1000000000058 512.1000000000058 532.1000000000058 552.1000000000058 572.1000000000057 592.1000000000057 612.1000000000057 632.1000000000057 652.1000000000057 672.1000000000057
cb_06,15.0,enc_trial,stim,response,Fine Arts students,1232.8999999999942,enc_trial,1.0,15.0,s_sh_14_1,student_shared,fold-b,printer,6.0,competing,far,paired,s_sh_14_1.jpg,,student-b1,STEM students,Fine Arts students,sub-70,0.0,0.0,1.0,1.0,0.4993055555555556 0.4986111111111111 0.4979166666666667 0.4972222222222222 0.4972222222222222 0.4972222222222222 0.4965277777777778 0.4888888888888889 0.4763888888888889 0.4659722222222222 0.4444444444444444 0.4166666666666667 0.38333333333333336 0.3513888888888889 0.3159722222222222 0.2833333333333333 0.25625 0.24375 0.2298611111111111 0.22291666666666668 0.21736111111111112 0.2111111111111111 0.20069444444444445 0.18888888888888888 0.17777777777777778 0.16875 0.16458333333333333 0.1597222222222222 0.15694444444444444 0.15694444444444444 0.16111111111111112 0.18055555555555555 0.2243055555555556 0.2861111111111111 0.34375 0.4291666666666665 0.5090277777777777 0.5784722222222223 0.64375 0.6979166666666666 0.74375 0.7923611111111111 0.8201388888888889 0.8493055555555555 0.8701388888888889 0.8784722222222222 0.8798611111111111,0.825 0.8222222222222222 0.8175925925925926 0.8111111111111111 0.799074074074074 0.7824074074074074 0.7666666666666666 0.7462962962962962 0.7185185185185186 0.6935185185185185 0.6462962962962964 0.5898148148148148 0.5212962962962964 0.4592592592592593 0.39907407407407397 0.3472222222222222 0.30740740740740746 0.2851851851851852 0.2592592592592593 0.2481481481481481 0.2435185185185185 0.2379629629629629 0.2277777777777777 0.2129629629629629 0.2 0.19166666666666665 0.18611111111111112 0.17962962962962958 0.17500000000000004 0.17314814814814816 0.17222222222222228 0.17314814814814816 0.17222222222222228 0.1703703703703704 0.1694444444444444 0.1694444444444444 0.16574074074074074 0.1592592592592592 0.1518518518518519 0.14537037037037034 0.13796296296296295 0.12962962962962965 0.125 0.12314814814814813 0.12222222222222225 0.12222222222222225 0.12222222222222225,277.8999999999942 297.8999999999942 317.8999999999942 337.8999999999942 357.8999999999942 377.8999999999942 397.8999999999942 417.8999999999942 437.8999999999942 457.8999999999942 477.8999999999942 497.8999999999942 517.8999999999942 537.8999999999942 557.8999999999942 577.8999999999943 597.8999999999943 617.8999999999943 637.8999999999943 657.8999999999943 677.8999999999943 697.8999999999942 717.8999999999942 737.8999999999942 757.8999999999942 777.8999999999942 797.8999999999942 817.8999999999942 837.8999999999942 857.8999999999942 877.8999999999942 897.8999999999942 917.8999999999942 937.8999999999942 957.8999999999942 977.8999999999942 997.8999999999942 1017.8999999999942 1037.8999999999942 1057.8999999999942 1077.8999999999942 1097.8999999999942 1117.8999999999942 1137.8999999999942 1157.8999999999942 1177.8999999999942 1197.8999999999942
cb_06,16.0,enc_trial,stim,response,Fine Arts students,803.4000000715314,enc_trial,1.0,16.0,s_sh_04_2,student_shared,fold-c,laptop stand,6.0,competing,close,paired,s_sh_04_2.jpg,,student-b1,STEM students,Fine Arts students,sub-70,0.0,0.0,0.0,1.0,0.4986111111111111 0.4986111111111111 0.4986111111111111 0.4993055555555556 0.5 0.4993055555555556 0.4986111111111111 0.5020833333333333 0.5069444444444444 0.5097222222222222 0.5201388888888889 0.5465277777777777 0.5840277777777778 0.6236111111111111 0.6583333333333333 0.6951388888888889 0.7305555555555555 0.7506944444444444 0.7743055555555556 0.7909722222222222 0.8020833333333334 0.8125 0.8201388888888889 0.825 0.8256944444444444,0.8296296296296296 0.825 0.8166666666666667 0.8083333333333333 0.8 0.787037037037037 0.7666666666666666 0.7333333333333334 0.6953703703703704 0.6703703703703704 0.6277777777777778 0.5685185185185185 0.5037037037037038 0.4425925925925925 0.38703703703703707 0.3296296296296296 0.2768518518518519 0.24722222222222226 0.2138888888888889 0.18796296296296305 0.17129629629629628 0.15555555555555556 0.14537037037037034 0.14074074074074072 0.13981481481481484,333.3999999999942 353.3999999999942 373.3999999999942 393.3999999999942 413.3999999999942 433.3999999999942 453.3999999999942 473.3999999999942 493.3999999999942 513.3999999999942 533.3999999999942 553.3999999999942 573.3999999999943 593.3999999999943 613.3999999999943 633.3999999999943 653.3999999999943 673.3999999999943 693.3999999999942 713.3999999999942 733.3999999999942 753.3999999999942 773.3999999999942 793.3999999999942 813.3999999999942
cb_06,17.0,enc_trial,stim,response,Fine Arts students,638.6000000000347,enc_trial,1.0,17.0,s_a_15_2,student_art,fold-d,drum kit,6.0,unique,far,paired,s_a_15_2.jpg,art,student-b1,STEM students,Fine Arts students,sub-70,1.0,1.0,1.0,1.0,0.4958333333333334 0.4965277777777778 0.5013888888888889 0.5069444444444444 0.5131944444444444 0.5215277777777778 0.5263888888888889 0.5291666666666667 0.5409722222222222 0.5541666666666667 0.5756944444444444 0.6055555555555555 0.6458333333333334 0.6958333333333333 0.7479166666666667 0.7916666666666666 0.8263888888888888 0.8430555555555556 0.8527777777777777,0.8305555555555555 0.825 0.812037037037037 0.7972222222222223 0.7777777777777778 0.75 0.7185185185185186 0.674074074074074 0.612037037037037 0.5657407407407408 0.5 0.4314814814814815 0.36203703703703705 0.2944444444444444 0.2361111111111112 0.1953703703703704 0.1685185185185185 0.15833333333333333 0.1527777777777778,284.6000000000058 304.6000000000058 324.6000000000058 344.6000000000058 364.6000000000058 384.6000000000058 404.6000000000058 424.6000000000058 444.6000000000058 464.6000000000058 484.6000000000058 504.6000000000058 524.6000000000058 544.6000000000058 564.6000000000057 584.6000000000057 604.6000000000057 624.6000000000057 644.6000000000057
cb_06,18.0,enc_trial,stim,response,STEM students,687.2999999999884,enc_trial,1.0,18.0,s_s_20_2,student_stem,fold-d,dna model,6.0,unique,far,paired,s_s_20_2.jpg,stem,student-b1,STEM students,Fine Arts students,sub-70,1.0,1.0,1.0,1.0,0.4965277777777778 0.49375 0.4902777777777778 0.4854166666666666 0.4763888888888889 0.4597222222222222 0.4388888888888889 0.41041666666666665 0.3798611111111111 0.3583333333333333 0.31875 0.27847222222222223 0.2423611111111111 0.21180555555555555 0.18958333333333333 0.175 0.1673611111111111 0.16597222222222222,0.8296296296296296 0.8231481481481482 0.8009259259259259 0.7731481481481481 0.7324074074074074 0.6712962962962963 0.6037037037037036 0.5268518518518519 0.4546296296296296 0.4101851851851852 0.34444444444444444 0.2898148148148149 0.24537037037037035 0.21018518518518514 0.18796296296296305 0.17500000000000004 0.1694444444444444 0.16759259259259265,347.1000000000058 367.1000000000058 387.1000000000058 407.1000000000058 427.1000000000058 447.1000000000058 467.1000000000058 487.1000000000058 507.1000000000058 527.1000000000058 547.1000000000058 567.1000000000057 587.1000000000057 607.1000000000057 627.1000000000057 647.1000000000057 667.1000000000057 687.1000000000057
cb_06,19.0,enc_trial,stim,response,Fine Arts students,617.5000000715372,enc_trial,1.0,19.0,s_a_06_1,student_art,fold-d,pastels,6.0,unique,far,paired,s_a_06_1.jpg,art,student-b1,STEM students,Fine Arts students,sub-70,1.0,1.0,1.0,1.0,0.5041666666666667 0.5034722222222222 0.5020833333333333 0.5006944444444444 0.5 0.5034722222222222 0.5145833333333333 0.5319444444444444 0.5541666666666667 0.5722222222222222 0.6097222222222223 0.65 0.6861111111111111 0.7243055555555555 0.7638888888888888 0.7958333333333333 0.8243055555555555 0.8381944444444445 0.8541666666666666 0.8611111111111112 0.8631944444444445,0.8351851851851853 0.8314814814814815 0.825925925925926 0.8212962962962963 0.8157407407407408 0.8027777777777778 0.7796296296296297 0.75 0.712037037037037 0.6805555555555556 0.6212962962962962 0.5574074074074074 0.4981481481481481 0.43333333333333335 0.36203703703703705 0.3018518518518518 0.24629629629629635 0.21666666666666667 0.18148148148148147 0.1611111111111111 0.1518518518518519,222.20000000001164 242.20000000001164 262.20000000001164 282.20000000001164 302.20000000001164 322.20000000001164 342.20000000001164 362.2000000000117 382.2000000000117 402.2000000000117 422.2000000000117 442.2000000000117 462.2000000000117 482.2000000000117 502.2000000000117 522.2000000000116 542.2000000000116 562.2000000000116 582.2000000000116 602.2000000000116 622.2000000000116
cb_06,20.0,enc_trial,stim,response,Fine Arts students,559.4000000715314,enc_trial,1.0,20.0,s_a_03_2,student_art,fold-e,palette,6.0,unique,close,paired,s_a_03_2.jpg,art,student-b1,STEM students,Fine Arts students,sub-70,1.0,1.0,1.0,1.0,0.5020833333333333 0.5020833333333333 0.5020833333333333 0.5041666666666667 0.5076388888888889 0.5125 0.5229166666666667 0.55 0.5875 0.6118055555555556 0.6472222222222223 0.6833333333333333 0.7256944444444444 0.7708333333333334 0.8027777777777778 0.8277777777777777 0.8486111111111111 0.8576388888888888 0.8590277777777777,0.8222222222222222 0.8222222222222222 0.8148148148148149 0.8018518518518518 0.7861111111111111 0.7694444444444444 0.7398148148148148 0.6870370370370371 0.6194444444444445 0.5759259259259261 0.5064814814814815 0.4388888888888889 0.3648148148148148 0.29166666666666663 0.23703703703703705 0.1907407407407408 0.15462962962962967 0.13888888888888884 0.13703703703703707,215.20000000001164 235.20000000001164 255.20000000001164 275.20000000001164 295.20000000001164 315.20000000001164 335.20000000001164 355.2000000000116 375.2000000000117 395.2000000000117 415.2000000000117 435.2000000000117 455.2000000000117 475.2000000000117 495.2000000000117 515.2000000000116 535.2000000000116 555.2000000000116 575.2000000000116
cb_06,21.0,enc_trial,stim,response,STEM students,1632.2000000000116,enc_trial,1.0,21.0,s_s_17_2,student_stem,fold-e,ring stand,6.0,unique,close,paired,s_s_17_2.jpg,stem,student-b1,STEM students,Fine Arts students,sub-70,1.0,1.0,1.0,1.0,0.5006944444444444 0.5006944444444444 0.5013888888888889 0.5020833333333333 0.5020833333333333 0.5027777777777778 0.5027777777777778 0.5034722222222222 0.5034722222222222 0.5034722222222222 0.5034722222222222 0.5034722222222222 0.5041666666666667 0.5 0.4930555555555556 0.4826388888888889 0.4673611111111111 0.4555555555555556 0.4395833333333333 0.4215277777777778 0.40208333333333335 0.38125 0.3611111111111111 0.3458333333333333 0.32916666666666666 0.30972222222222223 0.29791666666666666 0.2833333333333333 0.2701388888888889 0.25555555555555554 0.24097222222222225 0.2277777777777777 0.2152777777777778 0.20416666666666666 0.19722222222222224 0.1868055555555556 0.17847222222222225 0.17222222222222222 0.16597222222222222 0.15902777777777774 0.15416666666666667 0.15 0.14791666666666667 0.14583333333333334 0.1423611111111111 0.1388888888888889 0.1375 0.13680555555555554 0.13680555555555554,0.8351851851851853 0.8351851851851853 0.8342592592592593 0.8333333333333334 0.8324074074074074 0.8314814814814815 0.8296296296296296 0.8268518518518518 0.8212962962962963 0.8185185185185185 0.812962962962963 0.8074074074074074 0.7962962962962963 0.775 0.7481481481481482 0.7194444444444444 0.6842592592592592 0.65 0.5962962962962963 0.5333333333333333 0.4824074074074074 0.4342592592592592 0.3925925925925926 0.3601851851851852 0.3296296296296296 0.3055555555555556 0.2925925925925926 0.2759259259259259 0.2620370370370371 0.2518518518518519 0.2425925925925925 0.2361111111111112 0.2314814814814815 0.2287037037037037 0.225925925925926 0.22129629629629632 0.21666666666666667 0.2129629629629629 0.20925925925925928 0.2055555555555556 0.20092592592592595 0.19814814814814816 0.1962962962962963 0.1944444444444444 0.1898148148148148 0.18611111111111112 0.18425925925925926 0.18425925925925926 0.18333333333333326,125.0 145.0 165.0 185.0 205.0 225.0 245.0 265.0 285.0 305.0 325.0 345.0 365.0 385.0 405.0 425.0 445.0 465.0 485.0 505.0 525.0 545.0 565.0 585.0 605.0 625.0 645.0 665.0 685.0 705.0 725.0 745.0 765.0 785.0 805.0 825.0 845.0 865.0 885.0 905.0 925.0 945.0 965.0 985.0 1005.0 1025.0 1045.0 1065.0 1085.0
cb_06,22.0,enc_trial,stim,response,Fine Arts students,1226.5000000715372,enc_trial,1.0,22.0,s_sh_24_2,student_shared,fold-b,desk organizer,6.0,competing,far,paired,s_sh_24_2.jpg,,student-b1,STEM students,Fine Arts students,sub-70,1.0,1.0,1.0,1.0,0.5166666666666667 0.5173611111111112 0.5180555555555556 0.5173611111111112 0.5215277777777778 0.5277777777777778 0.5319444444444444 0.53125 0.5305555555555556 0.53125 0.5361111111111111 0.5388888888888889 0.5416666666666666 0.5416666666666666 0.5416666666666666 0.5416666666666666 0.5416666666666666 0.5416666666666666 0.5416666666666666 0.5416666666666666 0.5416666666666666 0.5416666666666666 0.5416666666666666 0.5416666666666666 0.5465277777777777 0.5743055555555555 0.5916666666666667 0.6173611111111111 0.6361111111111111 0.6444444444444445 0.6513888888888889 0.6604166666666667 0.6694444444444444 0.6763888888888889 0.6784722222222223 0.6798611111111111 0.6756944444444445 0.6604166666666667 0.6326388888888889 0.5930555555555556 0.5479166666666667 0.4993055555555556 0.4645833333333334 0.4152777777777778 0.3715277777777778 0.3375 0.3173611111111111 0.31527777777777777 0.3243055555555556 0.34930555555555554 0.3861111111111111 0.4194444444444445 0.475 0.5388888888888889 0.6020833333333333 0.6645833333333333 0.7194444444444444 0.7645833333333333 0.7979166666666667 0.8166666666666667 0.8347222222222223 0.8409722222222222,0.8101851851851851 0.8027777777777778 0.7907407407407407 0.7703703703703704 0.7398148148148148 0.7111111111111111 0.6861111111111111 0.6648148148148147 0.6444444444444444 0.6296296296296297 0.612037037037037 0.6018518518518519 0.5944444444444444 0.5944444444444444 0.5944444444444444 0.5944444444444444 0.5944444444444444 0.5944444444444444 0.5944444444444444 0.5944444444444444 0.5944444444444444 0.5944444444444444 0.5944444444444444 0.5944444444444444 0.5898148148148148 0.5638888888888889 0.5453703703703704 0.5083333333333333 0.475 0.45 0.425 0.3972222222222223 0.37222222222222223 0.3490740740740741 0.3379629629629629 0.3231481481481482 0.3138888888888889 0.3037037037037037 0.2898148148148149 0.2731481481481481 0.25370370370370365 0.2305555555555555 0.2157407407407408 0.1944444444444444 0.17222222222222228 0.14907407407407405 0.13240740740740742 0.12777777777777774 0.12685185185185188 0.13148148148148153 0.1342592592592593 0.1351851851851852 0.13703703703703707 0.13888888888888884 0.14166666666666672 0.1435185185185185 0.14722222222222225 0.1518518518518519 0.15648148148148144 0.15833333333333333 0.1611111111111111 0.1611111111111111,0.0 20.0 40.0 60.0 80.0 100.0 120.0 140.0 160.0 180.0 200.0 220.0 240.0 260.0 280.0 300.0 320.0 340.0 360.0 380.0 400.0 420.0 440.0 460.0 480.0 500.0 520.0 540.0 560.0 580.0 600.0 620.0 640.0 660.0 680.0 700.0 720.0 740.0 760.0 780.0 800.0 820.0 840.0 860.0 880.0 900.0 920.0 940.0 960.0 980.0 1000.0 1020.0 1040.0 1060.0 1080.0 1100.0 1120.0 1140.0 1160.0 1180.0 1200.0 1220.0
cb_06,23.0,enc_trial,stim,response,Fine Arts students,916.000000047672,enc_trial,1.0,23.0,s_sh_11_1,student_shared,fold-b,pencil case,6.0,competing,far,paired,s_sh_11_1.jpg,,student-b1,STEM students,Fine Arts students,sub-70,0.0,0.0,0.0,1.0,0.4986111111111111 0.4986111111111111 0.4986111111111111 0.4993055555555556 0.5013888888888889 0.5041666666666667 0.5090277777777777 0.5138888888888888 0.5166666666666667 0.5173611111111112 0.5145833333333333 0.5111111111111111 0.5138888888888888 0.5201388888888889 0.5298611111111111 0.5506944444444445 0.5826388888888889 0.6097222222222223 0.6486111111111111 0.6840277777777778 0.71875 0.7527777777777778 0.7791666666666667 0.8006944444444445 0.8159722222222222 0.8263888888888888,0.8240740740740741 0.8212962962962963 0.8138888888888889 0.8009259259259259 0.7833333333333333 0.7592592592592593 0.7305555555555556 0.6962962962962963 0.6648148148148147 0.6435185185185186 0.6129629629629629 0.5787037037037037 0.5351851851851852 0.4944444444444445 0.4592592592592593 0.4166666666666666 0.3703703703703704 0.3379629629629629 0.2953703703703704 0.2601851851851852 0.2287037037037037 0.20370370370370366 0.18611111111111112 0.17407407407407405 0.16666666666666666 0.1620370370370371,409.59999999997666 429.59999999997666 449.59999999997666 469.59999999997666 489.59999999997666 509.59999999997666 529.5999999999766 549.5999999999766 569.5999999999767 589.5999999999767 609.5999999999767 629.5999999999767 649.5999999999767 669.5999999999767 689.5999999999768 709.5999999999768 729.5999999999768 749.5999999999768 769.5999999999768 789.5999999999768 809.5999999999768 829.5999999999768 849.5999999999768 869.5999999999768 889.5999999999768 909.5999999999768
cb_06,24.0,enc_trial,stim,response,Fine Arts students,715.0000000476721,enc_trial,1.0,24.0,s_sh_10_1,student_shared,fold-b,scissors,6.0,competing,far,paired,s_sh_10_1.jpg,,student-b1,STEM students,Fine Arts students,sub-70,0.0,0.0,1.0,1.0,0.5041666666666667 0.5111111111111111 0.5236111111111111 0.5388888888888889 0.5611111111111111 0.59375 0.6229166666666667 0.6472222222222223 0.6756944444444445 0.6986111111111111 0.7381944444444445 0.7763888888888889 0.8104166666666667 0.8354166666666667 0.8576388888888888 0.8729166666666667 0.8784722222222222,0.825 0.8166666666666667 0.7972222222222223 0.7712962962962963 0.7324074074074074 0.6805555555555556 0.6305555555555555 0.5787037037037037 0.5222222222222221 0.4777777777777778 0.4074074074074073 0.3388888888888889 0.2777777777777778 0.2324074074074074 0.19351851851851853 0.16481481481481486 0.15555555555555556,395.8999999999942 415.8999999999942 435.8999999999942 455.8999999999942 475.8999999999942 495.8999999999942 515.8999999999942 535.8999999999942 555.8999999999942 575.8999999999943 595.8999999999943 615.8999999999943 635.8999999999943 655.8999999999943 675.8999999999943 695.8999999999942 715.8999999999942
cb_06,25.0,enc_trial,stim,response,Fine Arts students,663.7000000715198,enc_trial,1.0,25.0,s_sh_20_1,student_shared,fold-c,tape,6.0,competing,close,paired,s_sh_20_1.jpg,,student-b1,STEM students,Fine Arts students,sub-70,0.0,0.0,1.0,1.0,0.5027777777777778 0.5027777777777778 0.5034722222222222 0.5041666666666667 0.5041666666666667 0.5041666666666667 0.5055555555555555 0.5069444444444444 0.5083333333333333 0.5090277777777777 0.5104166666666666 0.5125 0.5159722222222223 0.5243055555555556 0.5381944444444444 0.5541666666666667 0.5673611111111111 0.5763888888888888 0.5993055555555555 0.63125 0.6680555555555555 0.7048611111111112 0.7395833333333334 0.775 0.8048611111111111 0.8305555555555556 0.8423611111111111 0.8618055555555556 0.8743055555555556 0.875,0.8314814814814815 0.8305555555555555 0.8305555555555555 0.8296296296296296 0.8296296296296296 0.8287037037037037 0.8277777777777777 0.825 0.8212962962962963 0.8185185185185185 0.812962962962963 0.8018518518518518 0.787962962962963 0.7685185185185185 0.7444444444444445 0.7138888888888889 0.6824074074074074 0.6564814814814814 0.6018518518518519 0.5435185185185185 0.4814814814814815 0.4222222222222223 0.3657407407407407 0.3064814814814815 0.25277777777777777 0.2046296296296296 0.1805555555555556 0.14166666666666672 0.1157407407407407 0.11296296296296293,97.19999999998257 117.19999999998257 137.19999999998257 157.19999999998257 177.19999999998257 197.19999999998257 217.19999999998257 237.19999999998257 257.19999999998254 277.19999999998254 297.1999999999825 317.1999999999825 337.1999999999825 357.19999999998254 377.19999999998254 397.19999999998254 417.19999999998254 437.19999999998254 457.19999999998254 477.19999999998254 497.19999999998254 517.1999999999825 537.1999999999825 557.1999999999825 577.1999999999825 597.1999999999825 617.1999999999825 637.1999999999825 657.1999999999825 677.1999999999825
cb_06,26.0,enc_trial,stim,response,STEM students,770.1000000953792,enc_trial,1.0,26.0,s_s_11_2,student_stem,fold-d,scientific scale,6.0,unique,far,paired,s_s_11_2.jpg,stem,student-b1,STEM students,Fine Arts students,sub-70,1.0,1.0,1.0,1.0,0.5013888888888889 0.5020833333333333 0.5027777777777778 0.5027777777777778 0.5034722222222222 0.5041666666666667 0.5055555555555555 0.50625 0.50625 0.50625 0.5076388888888889 0.5083333333333333 0.5083333333333333 0.5090277777777777 0.5111111111111111 0.5152777777777777 0.5173611111111112 0.5180555555555556 0.5180555555555556 0.5138888888888888 0.5069444444444444 0.4965277777777778 0.4805555555555556 0.4479166666666667 0.4111111111111111 0.3743055555555556 0.3472222222222222 0.3090277777777778 0.2659722222222222 0.2263888888888889 0.19166666666666668 0.1638888888888889 0.14791666666666667 0.14027777777777778 0.13958333333333334,0.8361111111111111 0.8351851851851853 0.8342592592592593 0.8333333333333334 0.8314814814814815 0.8287037037037037 0.825 0.8203703703703704 0.8166666666666667 0.8138888888888889 0.8092592592592592 0.8037037037037037 0.7981481481481482 0.7907407407407407 0.7805555555555556 0.7685185185185185 0.7564814814814815 0.7481481481481482 0.7305555555555556 0.7037037037037037 0.6731481481481482 0.6370370370370371 0.5935185185185186 0.537962962962963 0.4796296296296296 0.4203703703703704 0.37777777777777777 0.32592592592592595 0.2787037037037037 0.2388888888888889 0.20740740740740726 0.18888888888888888 0.1805555555555556 0.17685185185185182 0.17592592592592593,97.10000000000582 117.10000000000582 137.10000000000582 157.10000000000582 177.1000000000058 197.10000000000585 217.10000000000585 237.10000000000585 257.1000000000058 277.1000000000058 297.1000000000058 317.1000000000058 337.1000000000058 357.1000000000058 377.1000000000058 397.1000000000058 417.1000000000058 437.1000000000058 457.1000000000058 477.1000000000058 497.1000000000058 517.1000000000058 537.1000000000058 557.1000000000058 577.1000000000057 597.1000000000057 617.1000000000057 637.1000000000057 657.1000000000057 677.1000000000057 697.1000000000058 717.1000000000058 737.1000000000058 757.1000000000058 777.1000000000058
cb_06,27.0,enc_trial,stim,response,STEM students,695.3000000953616,enc_trial,1.0,27.0,s_s_17_1,student_stem,fold-e,ring stand,6.0,unique,close,paired,s_s_17_1.jpg,stem,student-b1,STEM students,Fine Arts students,sub-70,1.0,1.0,1.0,1.0,0.5104166666666666 0.5159722222222223 0.5229166666666667 0.5284722222222222 0.5381944444444444 0.5520833333333334 0.5618055555555556 0.5659722222222222 0.5666666666666667 0.5652777777777778 0.5631944444444444 0.5645833333333333 0.5645833333333333 0.5645833333333333 0.5645833333333333 0.5645833333333333 0.5645833333333333 0.5645833333333333 0.5645833333333333 0.5645833333333333 0.5645833333333333 0.5645833333333333 0.5645833333333333 0.5534722222222223 0.5263888888888889 0.4881944444444444 0.4604166666666666 0.4173611111111111 0.3770833333333333 0.3333333333333333 0.28680555555555554 0.24375 0.20277777777777767 0.17222222222222222 0.15833333333333333 0.15208333333333332,0.8027777777777778 0.7907407407407407 0.7685185185185185 0.7425925925925926 0.7064814814814815 0.6574074074074074 0.6129629629629629 0.5777777777777777 0.5472222222222223 0.5305555555555556 0.5111111111111111 0.5074074074074074 0.5074074074074074 0.5074074074074074 0.5074074074074074 0.5074074074074074 0.5074074074074074 0.5074074074074074 0.5074074074074074 0.5074074074074074 0.5074074074074074 0.5074074074074074 0.5074074074074074 0.5027777777777778 0.4851851851851852 0.4537037037037037 0.4305555555555556 0.38796296296296295 0.3416666666666667 0.2953703703703704 0.25277777777777777 0.21666666666666667 0.18796296296296305 0.16666666666666666 0.15833333333333333 0.15462962962962967,0.0 20.0 40.0 60.0 80.0 100.0 120.0 140.0 160.0 180.0 200.0 220.0 240.0 260.0 280.0 300.0 320.0 340.0 360.0 380.0 400.0 420.0 440.0 460.0 480.0 500.0 520.0 540.0 560.0 580.0 600.0 620.0 640.0 660.0 680.0 700.0
cb_06,28.0,enc_trial,stim,response,Fine Arts students,982.3000000476897,enc_trial,1.0,28.0,s_a_10_1,student_art,fold-a-single,tripod,6.0,unique,,single,s_a_10_1.jpg,art,student-b1,STEM students,Fine Arts students,sub-70,1.0,,0.0,,0.5006944444444444 0.5027777777777778 0.5076388888888889 0.5131944444444444 0.5215277777777778 0.5284722222222222 0.5340277777777778 0.5388888888888889 0.5444444444444444 0.5486111111111112 0.5541666666666667 0.5583333333333333 0.5597222222222222 0.5611111111111111 0.5625 0.5645833333333333 0.5666666666666667 0.5666666666666667 0.5666666666666667 0.5638888888888889 0.5583333333333333 0.5493055555555556 0.5319444444444444 0.5097222222222222 0.4833333333333333 0.4534722222222222 0.4354166666666667 0.4131944444444444 0.3972222222222222 0.38472222222222224 0.3729166666666667 0.3611111111111111 0.34791666666666665 0.3347222222222222 0.325 0.3104166666666667 0.2986111111111111 0.29375 0.30277777777777776 0.3326388888888889 0.3854166666666667 0.4611111111111112 0.5173611111111112 0.6020833333333333 0.6868055555555556 0.7618055555555555 0.8215277777777777 0.8673611111111111 0.8944444444444445 0.9055555555555556,0.8175925925925926 0.812037037037037 0.8009259259259259 0.787962962962963 0.7731481481481481 0.7601851851851852 0.7472222222222222 0.7333333333333334 0.7194444444444444 0.7092592592592593 0.6935185185185185 0.6796296296296296 0.6685185185185185 0.6564814814814814 0.6435185185185186 0.6314814814814815 0.6203703703703703 0.6138888888888889 0.6055555555555556 0.5944444444444444 0.5805555555555555 0.5638888888888889 0.5407407407407407 0.5138888888888888 0.4833333333333333 0.4527777777777777 0.4342592592592592 0.4111111111111111 0.3944444444444445 0.3796296296296297 0.3675925925925926 0.3574074074074074 0.3453703703703703 0.3296296296296296 0.3185185185185185 0.29814814814814816 0.2777777777777778 0.25648148148148153 0.2361111111111112 0.21759259259259256 0.19814814814814816 0.1777777777777778 0.16481481481481486 0.15000000000000002 0.13611111111111107 0.12314814814814813 0.11203703703703703 0.10277777777777776 0.0972222222222222 0.09537037037037033,0.0 20.0 40.0 60.0 80.0 100.0 120.0 140.0 160.0 180.0 200.0 220.0 240.0 260.0 280.0 300.0 320.0 340.0 360.0 380.0 400.0 420.0 440.0 460.0 480.0 500.0 520.0 540.0 560.0 580.0 600.0 620.0 640.0 660.0 680.0 700.0 720.0 740.0 760.0 780.0 800.0 820.0 840.0 860.0 880.0 900.0 920.0 940.0 960.0 980.0
cb_06,29.0,enc_trial,stim,response,Fine Arts students,1279.2000000476835,enc_trial,1.0,29.0,s_sh_07_1,student_shared,fold-a-single,ruler,6.0,competing,,single,s_sh_07_1.jpg,,student-b1,STEM students,Fine Arts students,sub-70,1.0,,1.0,,0.5090277777777777 0.5097222222222222 0.5111111111111111 0.5138888888888888 0.5159722222222223 0.5180555555555556 0.5201388888888889 0.5215277777777778 0.5229166666666667 0.5243055555555556 0.5263888888888889 0.5284722222222222 0.5291666666666667 0.5305555555555556 0.5326388888888889 0.5340277777777778 0.5354166666666667 0.5361111111111111 0.5368055555555555 0.5375 0.5375 0.5375 0.5381944444444444 0.5444444444444444 0.5611111111111111 0.5805555555555556 0.6194444444444445 0.6576388888888889 0.6888888888888889 0.7131944444444445 0.7298611111111111 0.7368055555555556 0.7354166666666667 0.7291666666666666 0.7208333333333333 0.6993055555555555 0.6611111111111111 0.6173611111111111 0.5590277777777778 0.4951388888888889 0.4263888888888889 0.35625 0.3118055555555556 0.24375 0.1902777777777777 0.14305555555555555 0.1111111111111111 0.08611111111111111 0.07708333333333334 0.0763888888888889 0.0763888888888889 0.0763888888888889 0.07847222222222222 0.08819444444444445 0.12152777777777778 0.18333333333333326 0.2708333333333333 0.3798611111111111 0.4986111111111111 0.5645833333333333 0.6666666666666666 0.7493055555555556 0.8097222222222222 0.8493055555555555 0.8638888888888889,0.8268518518518518 0.825 0.8212962962962963 0.8166666666666667 0.812037037037037 0.8064814814814815 0.8027777777777778 0.799074074074074 0.7944444444444445 0.7916666666666666 0.7861111111111111 0.7805555555555556 0.775 0.7703703703703704 0.762962962962963 0.7537037037037038 0.7444444444444445 0.7379629629629629 0.7277777777777779 0.7138888888888889 0.6944444444444444 0.6731481481481482 0.6518518518518519 0.6287037037037038 0.5972222222222222 0.5694444444444444 0.5203703703703704 0.4740740740740741 0.43333333333333335 0.4 0.3712962962962964 0.3527777777777777 0.3416666666666667 0.3342592592592593 0.3314814814814815 0.3287037037037037 0.325 0.3138888888888889 0.30000000000000004 0.2870370370370371 0.2685185185185185 0.2425925925925925 0.225925925925926 0.20185185185185184 0.18425925925925926 0.16759259259259265 0.15833333333333333 0.1518518518518519 0.14907407407407405 0.14907407407407405 0.14907407407407405 0.14907407407407405 0.14907407407407405 0.14814814814814814 0.14629629629629626 0.14074074074074072 0.1342592592592593 0.12962962962962965 0.12777777777777774 0.12777777777777774 0.12777777777777774 0.12777777777777774 0.12777777777777774 0.12870370370370365 0.12870370370370365,0.0 20.0 40.0 60.0 80.0 100.0 120.0 140.0 160.0 180.0 200.0 220.0 240.0 260.0 280.0 300.0 320.0 340.0 360.0 380.0 400.0 420.0 440.0 460.0 480.0 500.0 520.0 540.0 560.0 580.0 600.0 620.0 640.0 660.0 680.0 700.0 720.0 740.0 760.0 780.0 800.0 820.0 840.0 860.0 880.0 900.0 920.0 940.0 960.0 980.0 1000.0 1020.0 1040.0 1060.0 1080.0 1100.0 1120.0 1140.0 1160.0 1180.0 1200.0 1220.0 1240.0 1260.0 1280.0
cb_06,30.0,enc_trial,stim,response,Fine Arts students,1513.7999999999884,enc_trial,1.0,30.0,s_sh_14_2,student_shared,fold-b,printer,6.0,competing,far,paired,s_sh_14_2.jpg,,student-b1,STEM students,Fine Arts students,sub-70,0.0,0.0,1.0,1.0,0.4986111111111111 0.4993055555555556 0.5 0.5006944444444444 0.5006944444444444 0.5013888888888889 0.5020833333333333 0.5041666666666667 0.5055555555555555 0.50625 0.5069444444444444 0.5076388888888889 0.5083333333333333 0.5076388888888889 0.5048611111111111 0.5013888888888889 0.4951388888888889 0.4916666666666666 0.4875 0.4868055555555556 0.4958333333333334 0.5138888888888888 0.5402777777777777 0.5604166666666667 0.575 0.5826388888888889 0.5881944444444445 0.5993055555555555 0.6097222222222223 0.6208333333333333 0.6402777777777777 0.6673611111111111 0.6944444444444444 0.7173611111111111 0.7326388888888888 0.7548611111111111 0.7729166666666667 0.7895833333333333 0.8027777777777778 0.8104166666666667 0.8125 0.8125 0.8125 0.8111111111111111 0.8097222222222222 0.8076388888888889 0.8041666666666667 0.8006944444444445 0.7986111111111112 0.7979166666666667 0.8013888888888889 0.8069444444444445 0.8180555555555555 0.83125 0.84375 0.8548611111111111 0.8583333333333333 0.8583333333333333 0.8583333333333333 0.8583333333333333 0.8569444444444444 0.8548611111111111 0.85 0.8458333333333333 0.8409722222222222 0.8395833333333333 0.8388888888888889,0.8351851851851853 0.8351851851851853 0.8342592592592593 0.8333333333333334 0.8333333333333334 0.8324074074074074 0.8296296296296296 0.825 0.8212962962962963 0.8185185185185185 0.812037037037037 0.8027777777777778 0.7907407407407407 0.7768518518518519 0.7601851851851852 0.7435185185185185 0.7259259259259259 0.712037037037037 0.6898148148148149 0.662962962962963 0.6314814814814815 0.5962962962962963 0.5629629629629629 0.5388888888888889 0.5185185185185186 0.4990740740740741 0.4796296296296296 0.4444444444444444 0.4101851851851852 0.3759259259259259 0.337037037037037 0.2953703703703704 0.2601851851851852 0.2333333333333333 0.21666666666666667 0.19814814814814816 0.18425925925925926 0.17500000000000004 0.1685185185185185 0.16388888888888886 0.16296296296296298 0.16296296296296298 0.16296296296296298 0.1611111111111111 0.1592592592592592 0.15833333333333333 0.15648148148148144 0.15462962962962967 0.1518518518518519 0.14907407407407405 0.1435185185185185 0.13981481481481484 0.1342592592592593 0.13055555555555556 0.12777777777777774 0.12592592592592589 0.125 0.125 0.125 0.125 0.12407407407407413 0.12407407407407413 0.12314814814814813 0.12129629629629635 0.11851851851851848 0.11851851851851848 0.11851851851851848,62.39999999999418 82.3999999999942 102.39999999999418 122.39999999999418 142.39999999999418 162.39999999999418 182.39999999999415 202.39999999999415 222.39999999999415 242.39999999999415 262.3999999999942 282.3999999999942 302.3999999999942 322.3999999999942 342.3999999999942 362.3999999999942 382.3999999999942 402.3999999999942 422.3999999999942 442.3999999999942 462.3999999999942 482.3999999999942 502.3999999999942 522.3999999999942 542.3999999999942 562.3999999999942 582.3999999999943 602.3999999999943 622.3999999999943 642.3999999999943 662.3999999999943 682.3999999999943 702.3999999999942 722.3999999999942 742.3999999999942 762.3999999999942 782.3999999999942 802.3999999999942 822.3999999999942 842.3999999999942 862.3999999999942 882.3999999999942 902.3999999999942 922.3999999999942 942.3999999999942 962.3999999999942 982.3999999999942 1002.3999999999942 1022.3999999999942 1042.3999999999942 1062.3999999999942 1082.3999999999942 1102.3999999999942 1122.3999999999942 1142.3999999999942 1162.3999999999942 1182.3999999999942 1202.3999999999942 1222.3999999999942 1242.3999999999942 1262.3999999999942 1282.3999999999942 1302.3999999999942 1322.3999999999942 1342.3999999999942 1362.3999999999942 1382.3999999999942
cb_06,31.0,enc_trial,stim,response,Fine Arts students,651.2000000715198,enc_trial,1.0,31.0,s_sh_20_2,student_shared,fold-c,tape,6.0,competing,close,paired,s_sh_20_2.jpg,,student-b1,STEM students,Fine Arts students,sub-70,0.0,0.0,1.0,1.0,0.4993055555555556 0.4993055555555556 0.4993055555555556 0.4993055555555556 0.4993055555555556 0.5006944444444444 0.5020833333333333 0.5027777777777778 0.5048611111111111 0.5055555555555555 0.50625 0.5069444444444444 0.5069444444444444 0.5069444444444444 0.5076388888888889 0.5076388888888889 0.5076388888888889 0.5076388888888889 0.5076388888888889 0.5076388888888889 0.5076388888888889 0.5083333333333333 0.5118055555555555 0.5222222222222223 0.5444444444444444 0.5631944444444444 0.5986111111111111 0.6402777777777777 0.68125 0.7270833333333333 0.7770833333333333 0.8236111111111111 0.8534722222222222 0.8583333333333333,0.8175925925925926 0.8148148148148149 0.8101851851851851 0.8046296296296296 0.799074074074074 0.7935185185185185 0.787037037037037 0.7824074074074074 0.7777777777777778 0.7759259259259259 0.7740740740740741 0.7722222222222223 0.7694444444444444 0.7675925925925926 0.7648148148148148 0.7638888888888888 0.7638888888888888 0.762962962962963 0.7620370370370371 0.7611111111111111 0.7592592592592593 0.7527777777777778 0.7398148148148148 0.7166666666666667 0.6814814814814815 0.6509259259259259 0.5916666666666667 0.5222222222222221 0.4518518518518518 0.3787037037037037 0.30925925925925923 0.25 0.21018518518518514 0.20277777777777767,0.0 20.0 40.0 60.0 80.0 100.0 120.0 140.0 160.0 180.0 200.0 220.0 240.0 260.0 280.0 300.0 320.0 340.0 360.0 380.0 400.0 420.0 440.0 460.0 480.0 500.0 520.0 540.0 560.0 580.0 600.0 620.0 640.0 660.0
cb_06,32.0,enc_trial,stim,response,Fine Arts students,615.6000000715139,enc_trial,1.0,32.0,s_a_06_2,student_art,fold-d,pastels,6.0,unique,far,paired,s_a_06_2.jpg,art,student-b1,STEM students,Fine Arts students,sub-70,1.0,1.0,1.0,1.0,0.5013888888888889 0.5020833333333333 0.5020833333333333 0.5020833333333333 0.5027777777777778 0.5027777777777778 0.5027777777777778 0.5034722222222222 0.5034722222222222 0.5034722222222222 0.5027777777777778 0.5027777777777778 0.5076388888888889 0.5194444444444445 0.5340277777777778 0.5541666666666667 0.5840277777777778 0.6069444444444444 0.6430555555555556 0.6791666666666667 0.7243055555555555 0.7743055555555556 0.8201388888888889 0.8493055555555555 0.8625 0.8645833333333334,0.8166666666666667 0.8148148148148149 0.812037037037037 0.8101851851851851 0.8074074074074074 0.8046296296296296 0.8018518518518518 0.7981481481481482 0.7953703703703704 0.7907407407407407 0.7814814814814814 0.7657407407407407 0.7425925925925926 0.7148148148148148 0.6833333333333333 0.6444444444444444 0.5907407407407408 0.5527777777777778 0.4953703703703704 0.44166666666666665 0.3759259259259259 0.30925925925925923 0.25277777777777777 0.21666666666666667 0.2 0.1972222222222222,117.79999999998836 137.79999999998836 157.7999999999884 177.79999999998836 197.79999999998842 217.79999999998842 237.79999999998842 257.7999999999884 277.7999999999884 297.79999999998836 317.79999999998836 337.79999999998836 357.7999999999884 377.7999999999884 397.7999999999884 417.7999999999884 437.7999999999884 457.7999999999884 477.7999999999884 497.7999999999884 517.7999999999884 537.7999999999884 557.7999999999884 577.7999999999884 597.7999999999884 617.7999999999884
cb_06,33.0,enc_trial,stim,response,Fine Arts students,1036.8000000238535,enc_trial,1.0,33.0,s_sh_18_1,student_shared,fold-c,wall calendar,6.0,competing,close,paired,s_sh_18_1.jpg,,student-b1,STEM students,Fine Arts students,sub-70,0.0,0.0,1.0,1.0,0.5027777777777778 0.5034722222222222 0.5041666666666667 0.5048611111111111 0.5048611111111111 0.50625 0.5069444444444444 0.5076388888888889 0.5083333333333333 0.5083333333333333 0.5090277777777777 0.5104166666666666 0.5118055555555555 0.5145833333333333 0.5173611111111112 0.5208333333333334 0.5243055555555556 0.5277777777777778 0.5326388888888889 0.5368055555555555 0.5402777777777777 0.5430555555555555 0.5479166666666667 0.5548611111111111 0.5583333333333333 0.5576388888888889 0.5548611111111111 0.5486111111111112 0.5395833333333333 0.5270833333333333 0.5118055555555555 0.4979166666666667 0.4868055555555556 0.4826388888888889 0.4868055555555556 0.5090277777777777 0.5395833333333333 0.5798611111111112 0.6291666666666667 0.6875 0.7451388888888889 0.7888888888888889 0.8145833333333333 0.8451388888888889 0.8694444444444445 0.8854166666666666 0.8916666666666667,0.825925925925926 0.825 0.8240740740740741 0.8222222222222222 0.8203703703703704 0.8175925925925926 0.8148148148148149 0.812962962962963 0.8111111111111111 0.8092592592592592 0.8055555555555556 0.8 0.7925925925925926 0.7833333333333333 0.7712962962962963 0.7601851851851852 0.749074074074074 0.7398148148148148 0.7240740740740741 0.7092592592592593 0.6953703703703704 0.6787037037037037 0.6537037037037037 0.6231481481481482 0.5972222222222222 0.5722222222222222 0.5574074074074074 0.5324074074074074 0.5064814814814815 0.4787037037037037 0.4490740740740741 0.4148148148148149 0.3787037037037037 0.3453703703703703 0.3231481481481482 0.2898148148148149 0.2657407407407407 0.2435185185185185 0.2203703703703704 0.19814814814814816 0.17962962962962958 0.16481481481481486 0.15648148148148144 0.14537037037037034 0.1351851851851852 0.12870370370370365 0.12592592592592589,117.90000000002328 137.90000000002328 157.90000000002328 177.90000000002328 197.90000000002328 217.90000000002328 237.90000000002328 257.9000000000233 277.9000000000233 297.9000000000233 317.9000000000233 337.9000000000233 357.90000000002334 377.90000000002334 397.90000000002334 417.90000000002334 437.90000000002334 457.90000000002334 477.90000000002334 497.90000000002334 517.9000000000234 537.9000000000234 557.9000000000234 577.9000000000233 597.9000000000233 617.9000000000233 637.9000000000233 657.9000000000233 677.9000000000233 697.9000000000232 717.9000000000232 737.9000000000232 757.9000000000232 777.9000000000232 797.9000000000232 817.9000000000232 837.9000000000232 857.9000000000232 877.9000000000232 897.9000000000232 917.9000000000232 937.9000000000232 957.9000000000232 977.9000000000232 997.9000000000232 1017.9000000000232 1037.9000000000233
cb_06,34.0,enc_trial,stim,response,Fine Arts students,831.8000000715256,enc_trial,1.0,34.0,s_sh_02_1,student_shared,fold-a-single,eraser,6.0,competing,,single,s_sh_02_1.jpg,,student-b1,STEM students,Fine Arts students,sub-70,1.0,,1.0,,0.4916666666666666 0.4916666666666666 0.4916666666666666 0.4916666666666666 0.4916666666666666 0.4923611111111112 0.4930555555555556 0.49375 0.4944444444444445 0.4951388888888889 0.4965277777777778 0.4979166666666667 0.5006944444444444 0.5048611111111111 0.5104166666666666 0.5173611111111112 0.5291666666666667 0.5409722222222222 0.5680555555555555 0.6027777777777777 0.6375 0.6756944444444445 0.7069444444444445 0.7368055555555556 0.7638888888888888 0.7854166666666667 0.7951388888888888 0.8083333333333333 0.8208333333333333 0.8326388888888889 0.8430555555555556 0.8493055555555555 0.8527777777777777 0.8541666666666666,0.8351851851851853 0.8333333333333334 0.8314814814814815 0.8277777777777777 0.8231481481481482 0.8166666666666667 0.8101851851851851 0.8027777777777778 0.7925925925925926 0.7842592592592592 0.7675925925925926 0.75 0.7296296296296296 0.7055555555555555 0.6796296296296296 0.65 0.6138888888888889 0.5851851851851853 0.537962962962963 0.487037037037037 0.4388888888888889 0.3861111111111111 0.3416666666666667 0.2972222222222223 0.2592592592592593 0.2277777777777777 0.2138888888888889 0.1944444444444444 0.17685185185185182 0.1620370370370371 0.1509259259259259 0.14537037037037034 0.1435185185185185 0.1435185185185185,138.70000000001164 158.7000000000116 178.70000000001164 198.70000000001164 218.70000000001164 238.70000000001164 258.70000000001164 278.70000000001164 298.70000000001164 318.70000000001164 338.70000000001164 358.7000000000116 378.7000000000117 398.7000000000117 418.7000000000117 438.7000000000117 458.7000000000117 478.7000000000117 498.7000000000117 518.7000000000116 538.7000000000116 558.7000000000116 578.7000000000116 598.7000000000116 618.7000000000116 638.7000000000116 658.7000000000116 678.7000000000116 698.7000000000116 718.7000000000116 738.7000000000116 758.7000000000116 778.7000000000116 798.7000000000116
cb_06,35.0,enc_trial,stim,response,STEM students,892.1000000715138,enc_trial,1.0,35.0,s_s_12_1,student_stem,fold-a-single,robotic arm,6.0,unique,,single,s_s_12_1.jpg,stem,student-b1,STEM students,Fine Arts students,sub-70,1.0,,1.0,,0.4965277777777778 0.4972222222222222 0.4979166666666667 0.4993055555555556 0.5 0.5034722222222222 0.5083333333333333 0.5138888888888888 0.51875 0.5208333333333334 0.5236111111111111 0.5243055555555556 0.5243055555555556 0.5215277777777778 0.5145833333333333 0.5034722222222222 0.4909722222222222 0.48125 0.4638888888888889 0.4423611111111111 0.41597222222222224 0.39166666666666666 0.3645833333333333 0.3416666666666667 0.3173611111111111 0.29097222222222224 0.2722222222222222 0.2493055555555556 0.2270833333333333 0.20347222222222225 0.1875 0.17847222222222225 0.17152777777777778 0.16458333333333333 0.1597222222222222 0.15763888888888888,0.8212962962962963 0.8194444444444444 0.8138888888888889 0.8074074074074074 0.8 0.7898148148148147 0.7787037037037037 0.7657407407407407 0.7509259259259259 0.7435185185185185 0.7314814814814814 0.7203703703703703 0.7037037037037037 0.6805555555555556 0.6518518518518519 0.6203703703703703 0.587037037037037 0.5620370370370371 0.5194444444444444 0.4740740740740741 0.4305555555555556 0.3925925925925926 0.35 0.312962962962963 0.2805555555555556 0.2509259259259259 0.2296296296296297 0.2055555555555556 0.18611111111111112 0.17129629629629628 0.16388888888888886 0.1592592592592592 0.15740740740740744 0.15740740740740744 0.15648148148148144 0.15555555555555556,201.29999999998842 221.29999999998842 241.29999999998842 261.2999999999884 281.2999999999884 301.29999999998836 321.29999999998836 341.29999999998836 361.2999999999884 381.2999999999884 401.2999999999884 421.2999999999884 441.2999999999884 461.2999999999884 481.2999999999884 501.2999999999884 521.2999999999884 541.2999999999884 561.2999999999884 581.2999999999884 601.2999999999884 621.2999999999884 641.2999999999884 661.2999999999884 681.2999999999884 701.2999999999884 721.2999999999884 741.2999999999884 761.2999999999884 781.2999999999884 801.2999999999884 821.2999999999884 841.2999999999884 861.2999999999884 881.2999999999884 901.2999999999884
cb_06,36.0,enc_trial,stim,response,Fine Arts students,759.0,enc_trial,1.0,36.0,s_sh_03_1,student_shared,fold-a-single,highlighter,6.0,competing,,single,s_sh_03_1.jpg,,student-b1,STEM students,Fine Arts students,sub-70,1.0,,1.0,,0.5111111111111111 0.5131944444444444 0.5166666666666667 0.5180555555555556 0.5201388888888889 0.5236111111111111 0.5270833333333333 0.5291666666666667 0.53125 0.5333333333333333 0.5368055555555555 0.5381944444444444 0.5388888888888889 0.5388888888888889 0.5388888888888889 0.5423611111111111 0.5486111111111112 0.5541666666666667 0.5590277777777778 0.5652777777777778 0.5791666666666667 0.5965277777777778 0.6145833333333334 0.6395833333333333 0.6694444444444444 0.7013888888888888 0.7201388888888889 0.7416666666666667 0.7576388888888889 0.7680555555555556 0.7770833333333333 0.7861111111111111 0.7965277777777777 0.8069444444444445 0.8159722222222222 0.83125 0.8451388888888889 0.8541666666666666 0.85625,0.8222222222222222 0.8203703703703704 0.8157407407407408 0.812037037037037 0.8055555555555556 0.7944444444444445 0.7842592592592592 0.7731481481481481 0.762962962962963 0.7564814814814815 0.7435185185185185 0.7287037037037036 0.7111111111111111 0.6925925925925926 0.6712962962962963 0.6453703703703704 0.6185185185185185 0.5981481481481481 0.575 0.55 0.5185185185185186 0.4851851851851852 0.4555555555555556 0.4175925925925926 0.3731481481481481 0.3287037037037037 0.3018518518518518 0.27222222222222225 0.2509259259259259 0.23703703703703705 0.2240740740740741 0.21018518518518514 0.1953703703703704 0.18148148148148147 0.17222222222222228 0.1592592592592592 0.14814814814814814 0.14166666666666672 0.14074074074074072,0.0 20.0 40.0 60.0 80.0 100.0 120.0 140.0 160.0 180.0 200.0 220.0 240.0 260.0 280.0 300.0 320.0 340.0 360.0 380.0 400.0 420.0 440.0 460.0 480.0 500.0 520.0 540.0 560.0 580.0 600.0 620.0 640.0 660.0 680.0 700.0 720.0 740.0 760.0
cb_06,37.0,enc_trial,stim,response,Fine Arts students,706.1000000238419,enc_trial,1.0,37.0,s_a_04_1,student_art,fold-a-single,easel,6.0,unique,,single,s_a_04_1.jpg,art,student-b1,STEM students,Fine Arts students,sub-70,1.0,,1.0,,0.5 0.5013888888888889 0.5034722222222222 0.50625 0.5097222222222222 0.5125 0.5159722222222223 0.51875 0.5215277777777778 0.5236111111111111 0.5270833333333333 0.5291666666666667 0.5319444444444444 0.5340277777777778 0.5361111111111111 0.5381944444444444 0.5395833333333333 0.5395833333333333 0.5388888888888889 0.5402777777777777 0.54375 0.5465277777777777 0.5548611111111111 0.5763888888888888 0.6131944444444445 0.6513888888888889 0.6770833333333334 0.7097222222222223 0.74375 0.775 0.8006944444444445 0.8208333333333333 0.8368055555555556 0.85 0.8555555555555555 0.8597222222222223,0.8296296296296296 0.8287037037037037 0.825925925925926 0.8222222222222222 0.8175925925925926 0.8138888888888889 0.8092592592592592 0.8055555555555556 0.8 0.7953703703703704 0.7898148148148147 0.7851851851851852 0.7787037037037037 0.7712962962962963 0.7620370370370371 0.7518518518518519 0.7388888888888889 0.7296296296296296 0.7074074074074075 0.6722222222222223 0.6398148148148148 0.6092592592592593 0.5824074074074075 0.55 0.5074074074074074 0.4666666666666667 0.4388888888888889 0.39907407407407397 0.3537037037037037 0.3064814814814815 0.2629629629629629 0.225 0.1944444444444444 0.1694444444444444 0.1601851851851852 0.15462962962962967,6.799999999988357 26.799999999988362 46.79999999998836 66.79999999998836 86.79999999998836 106.79999999998836 126.79999999998836 146.7999999999884 166.7999999999884 186.79999999998842 206.79999999998842 226.79999999998842 246.79999999998842 266.7999999999884 286.79999999998836 306.79999999998836 326.79999999998836 346.7999999999884 366.7999999999884 386.7999999999884 406.7999999999884 426.7999999999884 446.7999999999884 466.7999999999884 486.7999999999884 506.7999999999884 526.7999999999884 546.7999999999884 566.7999999999884 586.7999999999884 606.7999999999884 626.7999999999884 646.7999999999884 666.7999999999884 686.7999999999884 706.7999999999884
cb_06,38.0,enc_trial,stim,response,Fine Arts students,634.8000000953616,enc_trial,1.0,38.0,s_sh_10_2,student_shared,fold-b,scissors,6.0,competing,far,paired,s_sh_10_2.jpg,,student-b1,STEM students,Fine Arts students,sub-70,0.0,0.0,1.0,1.0,0.5097222222222222 0.5131944444444444 0.5166666666666667 0.51875 0.5222222222222223 0.5263888888888889 0.5305555555555556 0.5340277777777778 0.5368055555555555 0.5388888888888889 0.5416666666666666 0.5444444444444444 0.5486111111111112 0.5534722222222223 0.5576388888888889 0.5611111111111111 0.5631944444444444 0.5652777777777778 0.5701388888888889 0.5763888888888888 0.5826388888888889 0.5916666666666667 0.6097222222222223 0.6430555555555556 0.6798611111111111 0.7027777777777777 0.7402777777777778 0.7819444444444444 0.8263888888888888 0.8604166666666667 0.8763888888888889 0.8840277777777777 0.8847222222222222,0.8185185185185185 0.812962962962963 0.8064814814814815 0.799074074074074 0.7907407407407407 0.7824074074074074 0.775 0.7685185185185185 0.762962962962963 0.7583333333333333 0.7518518518518519 0.7444444444444445 0.7361111111111112 0.7268518518518519 0.7175925925925926 0.7092592592592593 0.700925925925926 0.6935185185185185 0.6768518518518518 0.6564814814814814 0.6333333333333333 0.6027777777777779 0.5611111111111111 0.4972222222222222 0.4342592592592592 0.3972222222222223 0.3407407407407408 0.2851851851851852 0.2351851851851852 0.20185185185185184 0.18611111111111112 0.1787037037037037 0.1777777777777778,0.0 20.0 40.0 60.0 80.0 100.0 120.0 140.0 160.0 180.0 200.0 220.0 240.0 260.0 280.0 300.0 320.0 340.0 360.0 380.0 400.0 420.0 440.0 460.0 480.0 500.0 520.0 540.0 560.0 580.0 600.0 620.0 640.0
cb_06,39.0,enc_trial,stim,response,Fine Arts students,634.8000000238535,enc_trial,1.0,39.0,s_sh_18_2,student_shared,fold-c,wall calendar,6.0,competing,close,paired,s_sh_18_2.jpg,,student-b1,STEM students,Fine Arts students,sub-70,0.0,0.0,1.0,1.0,0.5041666666666667 0.5048611111111111 0.5055555555555555 0.50625 0.5069444444444444 0.5076388888888889 0.5090277777777777 0.5104166666666666 0.5118055555555555 0.5125 0.5131944444444444 0.5138888888888888 0.5152777777777777 0.51875 0.5229166666666667 0.5298611111111111 0.5458333333333333 0.5611111111111111 0.5868055555555556 0.6111111111111112 0.6388888888888888 0.6736111111111112 0.7083333333333334 0.7423611111111111 0.7763888888888889 0.8111111111111111 0.83125 0.8506944444444444 0.8597222222222223,0.8231481481481482 0.8231481481481482 0.8212962962962963 0.8194444444444444 0.8166666666666667 0.812037037037037 0.8064814814814815 0.8018518518518518 0.7972222222222223 0.7944444444444445 0.7898148148148147 0.7824074074074074 0.7712962962962963 0.7564814814814815 0.7425925925925926 0.7240740740740741 0.6898148148148149 0.6601851851851852 0.6138888888888889 0.5666666666666667 0.5092592592592593 0.4425925925925925 0.3768518518518519 0.3138888888888889 0.25370370370370365 0.2 0.17222222222222228 0.14629629629629626 0.1342592592592593,76.20000000001164 96.20000000001164 116.20000000001164 136.20000000001164 156.2000000000116 176.20000000001164 196.20000000001164 216.20000000001164 236.20000000001164 256.20000000001164 276.20000000001164 296.20000000001164 316.20000000001164 336.20000000001164 356.2000000000116 376.2000000000117 396.2000000000117 416.2000000000117 436.2000000000117 456.2000000000117 476.2000000000117 496.2000000000117 516.2000000000116 536.2000000000116 556.2000000000116 576.2000000000116 596.2000000000116 616.2000000000116 636.2000000000116
cb_06,40.0,enc_trial,stim,response,Fine Arts students,743.0,enc_trial,1.0,40.0,s_sh_11_2,student_shared,fold-b,pencil case,6.0,competing,far,paired,s_sh_11_2.jpg,,student-b1,STEM students,Fine Arts students,sub-70,0.0,0.0,0.0,1.0,0.5097222222222222 0.5118055555555555 0.5152777777777777 0.5180555555555556 0.5222222222222223 0.5270833333333333 0.5326388888888889 0.5381944444444444 0.54375 0.5465277777777777 0.5520833333333334 0.5576388888888889 0.5652777777777778 0.5729166666666666 0.5777777777777777 0.58125 0.5840277777777778 0.5847222222222223 0.5868055555555556 0.5888888888888889 0.5902777777777778 0.59375 0.5986111111111111 0.60625 0.61875 0.6402777777777777 0.6597222222222222 0.6895833333333333 0.7229166666666667 0.7604166666666666 0.7972222222222223 0.8277777777777777 0.8513888888888889 0.8666666666666667 0.8736111111111111 0.8791666666666667 0.8805555555555555,0.825925925925926 0.8240740740740741 0.8203703703703704 0.8166666666666667 0.8111111111111111 0.8055555555555556 0.799074074074074 0.7916666666666666 0.7851851851851852 0.7814814814814814 0.775 0.7666666666666666 0.7555555555555555 0.7425925925925926 0.7333333333333334 0.725 0.7185185185185186 0.7148148148148148 0.7092592592592593 0.7018518518518518 0.6935185185185185 0.6824074074074074 0.6694444444444445 0.6509259259259259 0.624074074074074 0.5833333333333333 0.5490740740740739 0.4972222222222222 0.437962962962963 0.3731481481481481 0.3111111111111111 0.25648148148148153 0.21203703703703705 0.1805555555555556 0.16759259259259265 0.15648148148148144 0.15555555555555556,0.0 20.0 40.0 60.0 80.0 100.0 120.0 140.0 160.0 180.0 200.0 220.0 240.0 260.0 280.0 300.0 320.0 340.0 360.0 380.0 400.0 420.0 440.0 460.0 480.0 500.0 520.0 540.0 560.0 580.0 600.0 620.0 640.0 660.0 680.0 700.0 720.0
cb_06,41.0,enc_trial,stim,response,Iceland trip,1738.4000000953674,enc_trial,2.0,1.0,t_s_12_2,travel_shared,fold-b,clear toiletry bag,6.0,competing,far,paired,t_s_12_2.jpg,,travel-b1,Iceland trip,Miami trip,sub-70,1.0,1.0,1.0,1.0,0.49375 0.4951388888888889 0.4979166666666667 0.5 0.5027777777777778 0.5048611111111111 0.5076388888888889 0.5090277777777777 0.5097222222222222 0.5097222222222222 0.5097222222222222 0.5097222222222222 0.5097222222222222 0.5097222222222222 0.5090277777777777 0.5090277777777777 0.5104166666666666 0.5125 0.5145833333333333 0.5152777777777777 0.5145833333333333 0.5152777777777777 0.51875 0.5222222222222223 0.525 0.5256944444444445 0.525 0.5229166666666667 0.5222222222222223 0.5229166666666667 0.5229166666666667 0.5201388888888889 0.5125 0.4965277777777778 0.4847222222222222 0.4659722222222222 0.4486111111111111 0.43333333333333335 0.4152777777777778 0.39166666666666666 0.37222222222222223 0.3555555555555556 0.34791666666666665 0.3375 0.32569444444444445 0.3111111111111111 0.2958333333333333 0.28541666666666665 0.2763888888888889 0.2645833333333333 0.2458333333333333 0.2333333333333333 0.2180555555555556 0.2111111111111111 0.21180555555555555 0.22361111111111112 0.2625 0.34097222222222223 0.44722222222222224 0.5291666666666667 0.6368055555555555 0.7347222222222223 0.8048611111111111 0.8548611111111111 0.8784722222222222 0.8819444444444444 0.8819444444444444 0.8819444444444444 0.8819444444444444 0.8819444444444444 0.8819444444444444 0.8819444444444444 0.8819444444444444 0.8805555555555555 0.8722222222222222 0.85625 0.8027777777777778 0.7361111111111112 0.6513888888888889 0.5493055555555556 0.4513888888888889 0.36041666666666666 0.2847222222222222 0.2222222222222222 0.1909722222222222 0.1625 0.15208333333333332 0.15138888888888888,0.8157407407407408 0.8138888888888889 0.8064814814814815 0.7972222222222223 0.7842592592592592 0.7731481481481481 0.7592592592592593 0.7453703703703703 0.7314814814814814 0.7212962962962963 0.7083333333333333 0.6962962962962963 0.6851851851851851 0.6712962962962963 0.6564814814814814 0.6388888888888888 0.6194444444444445 0.6055555555555556 0.587962962962963 0.5731481481481482 0.5546296296296296 0.5333333333333333 0.5111111111111111 0.4907407407407407 0.4768518518518519 0.4657407407407408 0.4592592592592593 0.4462962962962963 0.43240740740740746 0.4194444444444444 0.4111111111111111 0.4018518518518519 0.3907407407407407 0.3787037037037037 0.3685185185185185 0.35185185185185186 0.3324074074074074 0.3148148148148148 0.29814814814814816 0.2796296296296297 0.2629629629629629 0.24629629629629635 0.2379629629629629 0.2287037037037037 0.2203703703703704 0.2129629629629629 0.2055555555555556 0.2 0.1962962962962963 0.19259259259259254 0.18703703703703692 0.1805555555555556 0.17407407407407405 0.17129629629629628 0.1703703703703704 0.17222222222222228 0.17222222222222228 0.1685185185185185 0.16388888888888886 0.16296296296296298 0.1592592592592592 0.15370370370370368 0.1527777777777778 0.15370370370370368 0.15555555555555556 0.15648148148148144 0.15648148148148144 0.15648148148148144 0.15648148148148144 0.15648148148148144 0.15648148148148144 0.15648148148148144 0.15648148148148144 0.15648148148148144 0.15740740740740744 0.15833333333333333 0.16759259259259265 0.17685185185185182 0.18240740740740746 0.1898148148148148 0.1907407407407408 0.18703703703703692 0.18703703703703692 0.18703703703703692 0.18425925925925926 0.17962962962962958 0.17685185185185182 0.17592592592592593,6.899999999994179 26.89999999999418 46.89999999999418 66.89999999999418 86.89999999999418 106.89999999999418 126.89999999999418 146.89999999999418 166.89999999999418 186.89999999999415 206.89999999999415 226.89999999999415 246.89999999999415 266.8999999999942 286.8999999999942 306.8999999999942 326.8999999999942 346.8999999999942 366.8999999999942 386.8999999999942 406.8999999999942 426.8999999999942 446.8999999999942 466.8999999999942 486.8999999999942 506.8999999999942 526.8999999999942 546.8999999999942 566.8999999999943 586.8999999999943 606.8999999999943 626.8999999999943 646.8999999999943 666.8999999999943 686.8999999999943 706.8999999999942 726.8999999999942 746.8999999999942 766.8999999999942 786.8999999999942 806.8999999999942 826.8999999999942 846.8999999999942 866.8999999999942 886.8999999999942 906.8999999999942 926.8999999999942 946.8999999999942 966.8999999999942 986.8999999999942 1006.8999999999942 1026.8999999999942 1046.8999999999942 1066.8999999999942 1086.8999999999942 1106.8999999999942 1126.8999999999942 1146.8999999999942 1166.8999999999942 1186.8999999999942 1206.8999999999942 1226.8999999999942 1246.8999999999942 1266.8999999999942 1286.8999999999942 1306.8999999999942 1326.8999999999942 1346.8999999999942 1366.8999999999942 1386.8999999999942 1406.8999999999942 1426.8999999999942 1446.8999999999942 1466.8999999999942 1486.8999999999942 1506.8999999999942 1526.8999999999942 1546.8999999999942 1566.8999999999942 1586.8999999999942 1606.8999999999942 1626.8999999999942 1646.8999999999942 1666.8999999999942 1686.8999999999942 1706.8999999999942 1726.8999999999942 1746.8999999999942
cb_06,42.0,enc_trial,stim,response,Iceland trip,894.6000000238419,enc_trial,2.0,2.0,t_s_06_1,travel_shared,fold-b,luggage,6.0,competing,far,paired,t_s_06_1.jpg,,travel-b1,Iceland trip,Miami trip,sub-70,1.0,1.0,1.0,0.0,0.4972222222222222 0.4972222222222222 0.4972222222222222 0.4972222222222222 0.4972222222222222 0.4972222222222222 0.4972222222222222 0.4972222222222222 0.4972222222222222 0.4972222222222222 0.4972222222222222 0.4972222222222222 0.4972222222222222 0.4979166666666667 0.4986111111111111 0.5006944444444444 0.5069444444444444 0.5131944444444444 0.5222222222222223 0.5277777777777778 0.5326388888888889 0.54375 0.5611111111111111 0.5763888888888888 0.5833333333333334 0.5868055555555556 0.5909722222222222 0.6020833333333333 0.6118055555555556 0.6145833333333334 0.6111111111111112 0.5875 0.5451388888888888 0.4944444444444445 0.4590277777777778 0.3993055555555556 0.3381944444444445 0.2777777777777778 0.22847222222222224 0.19375 0.16319444444444445 0.1486111111111111 0.1451388888888889 0.14375,0.8333333333333334 0.8333333333333334 0.8333333333333334 0.8333333333333334 0.8333333333333334 0.8333333333333334 0.8333333333333334 0.8333333333333334 0.8333333333333334 0.8324074074074074 0.8314814814814815 0.8296296296296296 0.825 0.8166666666666667 0.8092592592592592 0.7962962962962963 0.7777777777777778 0.7648148148148148 0.7425925925925926 0.7231481481481481 0.6990740740740741 0.6638888888888889 0.625 0.5907407407407408 0.5638888888888889 0.5342592592592592 0.5046296296296297 0.4518518518518518 0.4046296296296297 0.3638888888888889 0.3314814814814815 0.30000000000000004 0.2685185185185185 0.2361111111111112 0.2138888888888889 0.17962962962962958 0.14907407407407405 0.12129629629629635 0.10462962962962964 0.10092592592592596 0.10555555555555553 0.10925925925925928 0.11111111111111116 0.11203703703703703,20.89999999999418 40.89999999999418 60.89999999999418 80.8999999999942 100.89999999999418 120.89999999999418 140.89999999999418 160.89999999999418 180.89999999999415 200.89999999999415 220.89999999999415 240.89999999999415 260.8999999999942 280.8999999999942 300.8999999999942 320.8999999999942 340.8999999999942 360.8999999999942 380.8999999999942 400.8999999999942 420.8999999999942 440.8999999999942 460.8999999999942 480.8999999999942 500.8999999999942 520.8999999999942 540.8999999999942 560.8999999999942 580.8999999999943 600.8999999999943 620.8999999999943 640.8999999999943 660.8999999999943 680.8999999999943 700.8999999999942 720.8999999999942 740.8999999999942 760.8999999999942 780.8999999999942 800.8999999999942 820.8999999999942 840.8999999999942 860.8999999999942 880.8999999999942
cb_06,43.0,enc_trial,stim,response,Iceland trip,1200.0,enc_trial,2.0,3.0,t_m_04_1,travel_Miami,fold-e,UV jacket,6.0,unique,close,paired,t_m_04_1.jpg,Miami,travel-b1,Iceland trip,Miami trip,sub-70,1.0,1.0,0.0,0.0,0.5041666666666667 0.5027777777777778 0.5006944444444444 0.4993055555555556 0.4993055555555556 0.5 0.4986111111111111 0.4944444444444445 0.4868055555555556 0.48125 0.4715277777777778 0.4625 0.4527777777777778 0.44166666666666665 0.42777777777777776 0.4111111111111111 0.3909722222222222 0.37916666666666665 0.3597222222222222 0.3388888888888889 0.31527777777777777 0.2916666666666667 0.26666666666666666 0.24305555555555555 0.2243055555555556 0.2083333333333333 0.2 0.1902777777777777 0.1840277777777778 0.18125 0.18055555555555555 0.18055555555555555 0.18055555555555555 0.17847222222222225 0.17708333333333334 0.17222222222222222 0.16805555555555554 0.16458333333333333 0.16180555555555556 0.16041666666666668 0.1597222222222222 0.15902777777777774 0.15902777777777774 0.15902777777777774 0.15833333333333333 0.15763888888888888,0.8203703703703704 0.8175925925925926 0.8092592592592592 0.7981481481481482 0.7851851851851852 0.7694444444444444 0.7546296296296297 0.737037037037037 0.7138888888888889 0.6935185185185185 0.6583333333333333 0.6268518518518518 0.6 0.5759259259259261 0.5509259259259259 0.5212962962962964 0.487037037037037 0.4675925925925926 0.437962962962963 0.4101851851851852 0.3768518518518519 0.34444444444444444 0.312962962962963 0.2888888888888889 0.27222222222222225 0.25648148148148153 0.2444444444444445 0.225 0.21203703703703705 0.2064814814814815 0.2055555555555556 0.2055555555555556 0.2055555555555556 0.20185185185185184 0.2 0.1953703703703704 0.1898148148148148 0.18611111111111112 0.18333333333333326 0.18148148148148147 0.1805555555555556 0.17962962962962958 0.17962962962962958 0.17962962962962958 0.1787037037037037 0.1787037037037037,257.0 277.0 297.0 317.0 337.0 357.0 377.0 397.0 417.0 437.0 457.0 477.0 497.0 517.0 537.0 557.0 577.0 597.0 617.0 637.0 657.0 677.0 697.0 717.0 737.0 757.0 777.0 797.0 817.0 837.0 857.0 877.0 897.0 917.0 937.0 957.0 977.0 997.0 1017.0 1037.0 1057.0 1077.0 1097.0 1117.0 1137.0 1157.0
cb_06,44.0,enc_trial,stim,response,Iceland trip,887.9000000715314,enc_trial,2.0,4.0,t_s_05_1,travel_shared,fold-a-single,neck pillow,6.0,competing,,single,t_s_05_1.jpg,,travel-b1,Iceland trip,Miami trip,sub-70,1.0,,1.0,,0.4993055555555556 0.4993055555555556 0.4993055555555556 0.4993055555555556 0.4993055555555556 0.4993055555555556 0.4993055555555556 0.4986111111111111 0.4986111111111111 0.4986111111111111 0.4986111111111111 0.4979166666666667 0.4951388888888889 0.4930555555555556 0.4909722222222222 0.4902777777777778 0.4895833333333333 0.4881944444444444 0.4868055555555556 0.4861111111111111 0.4909722222222222 0.4972222222222222 0.5020833333333333 0.5055555555555555 0.5069444444444444 0.5069444444444444 0.5076388888888889 0.5125 0.5201388888888889 0.5236111111111111 0.5243055555555556 0.5173611111111112 0.5034722222222222 0.4763888888888889 0.4583333333333333 0.4256944444444444 0.3902777777777778 0.3527777777777778 0.3111111111111111 0.26875 0.2243055555555556 0.1875 0.16597222222222222 0.14583333333333334 0.1388888888888889,0.8296296296296296 0.825925925925926 0.8194444444444444 0.812962962962963 0.8046296296296296 0.7953703703703704 0.7851851851851852 0.7768518518518519 0.7675925925925926 0.7601851851851852 0.7462962962962962 0.7333333333333334 0.7185185185185186 0.7018518518518518 0.6851851851851851 0.6685185185185185 0.6527777777777778 0.6425925925925926 0.6305555555555555 0.6157407407407407 0.5972222222222222 0.5805555555555555 0.5657407407407408 0.5546296296296296 0.5462962962962963 0.5388888888888889 0.5314814814814814 0.5138888888888888 0.4935185185185185 0.4777777777777778 0.4611111111111112 0.4425925925925925 0.4212962962962963 0.39629629629629626 0.3787037037037037 0.3416666666666667 0.2972222222222223 0.2574074074074074 0.2203703703703704 0.1907407407407408 0.1620370370370371 0.13981481481481484 0.12870370370370365 0.12222222222222225 0.12037037037037035,6.899999999994179 26.89999999999418 46.89999999999418 66.89999999999418 86.89999999999418 106.89999999999418 126.89999999999418 146.89999999999418 166.89999999999418 186.89999999999415 206.89999999999415 226.89999999999415 246.89999999999415 266.8999999999942 286.8999999999942 306.8999999999942 326.8999999999942 346.8999999999942 366.8999999999942 386.8999999999942 406.8999999999942 426.8999999999942 446.8999999999942 466.8999999999942 486.8999999999942 506.8999999999942 526.8999999999942 546.8999999999942 566.8999999999943 586.8999999999943 606.8999999999943 626.8999999999943 646.8999999999943 666.8999999999943 686.8999999999943 706.8999999999942 726.8999999999942 746.8999999999942 766.8999999999942 786.8999999999942 806.8999999999942 826.8999999999942 846.8999999999942 866.8999999999942 886.8999999999942
cb_06,45.0,enc_trial,stim,response,Iceland trip,747.1000000953792,enc_trial,2.0,5.0,t_s_08_1,travel_shared,fold-a-single,hand lotion,6.0,competing,,single,t_s_08_1.jpg,,travel-b1,Iceland trip,Miami trip,sub-70,1.0,,1.0,,0.4965277777777778 0.4958333333333334 0.4944444444444445 0.4923611111111112 0.4902777777777778 0.4875 0.4847222222222222 0.4805555555555556 0.4743055555555555 0.4680555555555556 0.4583333333333333 0.4465277777777778 0.43333333333333335 0.4166666666666667 0.3986111111111112 0.3784722222222222 0.3506944444444444 0.3277777777777778 0.2930555555555556 0.2611111111111111 0.2270833333333333 0.1951388888888889 0.16666666666666666 0.14305555555555555 0.12777777777777774 0.11944444444444445 0.11597222222222225 0.11388888888888887,0.8148148148148149 0.8138888888888889 0.8083333333333333 0.8027777777777778 0.7944444444444445 0.7851851851851852 0.7740740740740741 0.7611111111111111 0.7444444444444445 0.7296296296296296 0.7074074074074075 0.6833333333333333 0.6583333333333333 0.6277777777777778 0.5888888888888889 0.5453703703703704 0.4972222222222222 0.4629629629629629 0.4092592592592592 0.3592592592592593 0.3111111111111111 0.2731481481481481 0.2444444444444445 0.21759259259259256 0.1962962962962963 0.17962962962962958 0.17407407407407405 0.1703703703703704,208.40000000002328 228.40000000002328 248.40000000002328 268.4000000000233 288.4000000000233 308.4000000000233 328.4000000000233 348.40000000002334 368.40000000002334 388.40000000002334 408.40000000002334 428.40000000002334 448.40000000002334 468.40000000002334 488.40000000002334 508.40000000002334 528.4000000000234 548.4000000000234 568.4000000000233 588.4000000000233 608.4000000000233 628.4000000000233 648.4000000000233 668.4000000000233 688.4000000000232 708.4000000000232 728.4000000000232 748.4000000000232
