Current Spreadsheet,Trial Number,Display,Screen,Response Type,Response,Reaction Time,display,block,block_trial,stimulus_id,expected_goal,fold,stimulus_name,c_group,condition,within_block_dist,paired_status,stimulus_path,expected_location,block_split,respStim_1,respStim_2,sub_label,acc,both_enc_acc,assoc_stim1_acc,assoc_stim2_acc,x_pos,y_pos,time_trajectories
cb_01,1.0,enc_trial,stim,response,Miami trip,1287.4000000089434,enc_trial,1.0,1.0,t_m_17_1,travel_Miami,fold-a,water gun,1.0,unique,close,paired,t_m_17_1.jpg,Miami,travel-b1,Iceland trip,Miami trip,sub-49,1.0,1.0,1.0,1.0,0.4842602308499475 0.4850472193074502 0.4850472193074502 0.4850472193074502 0.4850472193074502 0.4850472193074502 0.483473242392445 0.4826862539349423 0.481112277019937 0.4795383001049318 0.4771773347324239 0.4740293809024134 0.4732423924449108 0.4771773347324239 0.4889821615949633 0.5070828961175237 0.585781741867786 0.6408709338929696 0.6975341028331584 0.7510493179433368 0.7896117523609654 0.8321091290661071 0.8391920251836307 0.8431269674711438 0.8462749213011543 0.8517838405036727 0.8667366211962225 0.8706715634837356 0.8722455403987409 0.8722455403987409 0.8722455403987409 0.8722455403987409 0.8722455403987409 0.8722455403987409 0.8722455403987409,0.8289611752360966 0.8258132214060859 0.8216159496327387 0.8174186778593914 0.8121720881427072 0.8058761804826863 0.7922350472193075 0.7869884575026234 0.7817418677859391 0.7754459601259182 0.7691500524658972 0.7513116474291709 0.7313746065057712 0.6998950682056664 0.6547743966421826 0.6012591815320042 0.4575026232948584 0.3830010493179433 0.310598111227702 0.2539349422875131 0.22455403987408185 0.20356768100734526 0.2004197271773347 0.1983210912906611 0.19622245540398744 0.1909758656873033 0.17628541448058765 0.16998950682056668 0.16894018887722986 0.16894018887722986 0.167890870933893 0.16054564533053514 0.15844700944386148 0.15634837355718778 0.15529905561385104,583.8000000000029 603.8000000000029 623.8000000000029 643.8000000000029 663.8000000000029 683.8000000000029 703.8000000000029 723.8000000000029 743.8000000000029 763.8000000000029 783.8000000000029 803.8000000000029 823.8000000000029 843.8000000000029 863.8000000000029 883.8000000000029 903.8000000000028 923.8000000000028 943.8000000000028 963.8000000000028 983.8000000000028 1003.8000000000028 1023.8000000000028 1043.8000000000031 1063.8000000000031 1083.8000000000031 1103.8000000000031 1123.8000000000031 1143.8000000000031 1163.8000000000031 1183.8000000000031 1203.8000000000031 1223.8000000000031 1243.8000000000031 1263.8000000000031
cb_01,2.0,enc_trial,stim,response,Iceland trip,1656.8000000089378,enc_trial,1.0,2.0,t_i_10_1,travel_Iceland,fold-b,trekking poles,1.0,unique,far,paired,t_i_10_1.jpg,Iceland,travel-b1,Iceland trip,Miami trip,sub-49,1.0,1.0,1.0,1.0,0.4960650577124869 0.4960650577124869 0.4960650577124869 0.4960650577124869 0.4960650577124869 0.4968520461699895 0.4968520461699895 0.4976390346274922 0.4984260230849947 0.4992130115424974 0.5015739769150053 0.5047219307450157 0.5070828961175237 0.5094438614900315 0.5125918153200419 0.5157397691500525 0.529118572927597 0.5401364113326338 0.5527282266526757 0.5700419727177335 0.5881427072402938 0.6274921301154249 0.6511017838405037 0.6786463798530955 0.7054039874081847 0.7337355718782791 0.7518363064008394 0.7486883525708291 0.7274396642182581 0.6873032528856243 0.6322140608604407 0.4929171038824764 0.4338929695697796 0.3874606505771249 0.35598111227701995 0.3378803777544596 0.30482686253934943 0.2930220356768101 0.2780692549842602 0.26705141657922354 0.2583945435466947 0.2434417628541448 0.2332109129066107 0.21747114375655827 0.2009443861490032 0.1891395592864638 0.1749737670514166 0.167890870933893 0.16238195173137462 0.15451206715634838 0.14979013641133265 0.1482161594963274,0.8300104931794334 0.8300104931794334 0.8300104931794334 0.8289611752360966 0.8289611752360966 0.8268625393494229 0.8258132214060859 0.8247639034627492 0.8226652675760755 0.8205666316894019 0.8132214060860441 0.8016789087093389 0.7953830010493179 0.789087093389297 0.7806925498426023 0.7691500524658972 0.7303252885624344 0.7040923399790137 0.6757607555089191 0.6421825813221407 0.6054564533053515 0.5267576075550893 0.4774396642182581 0.42287513116474296 0.3693599160545645 0.31479538300104937 0.26337880377754463 0.2528856243441763 0.2329485834207765 0.21091290661070305 0.19307450157397688 0.16054564533053514 0.14375655823714584 0.12801678908709335 0.11962224554039867 0.1175236096537251 0.11017838405036727 0.10912906610703044 0.10912906610703044 0.11122770199370413 0.11332633788037773 0.11647429171038826 0.11962224554039867 0.12277019937040926 0.1269674711437565 0.1290661070304302 0.1311647429171039 0.13221406086044074 0.13221406086044074 0.1332633788037776 0.13431269674711432 0.13431269674711432,450.3999999999942 470.3999999999942 490.3999999999942 510.3999999999942 530.3999999999942 550.3999999999942 570.3999999999943 590.3999999999943 610.3999999999943 630.3999999999943 650.3999999999943 670.3999999999943 690.3999999999942 710.3999999999942 730.3999999999942 750.3999999999942 770.3999999999942 790.3999999999942 810.3999999999942 830.3999999999942 850.3999999999942 870.3999999999942 890.3999999999942 910.3999999999942 930.3999999999942 950.3999999999942 970.3999999999942 990.3999999999942 1010.3999999999942 1030.3999999999942 1050.3999999999942 1070.3999999999942 1090.3999999999942 1110.3999999999942 1130.3999999999942 1150.3999999999942 1170.3999999999942 1190.3999999999942 1210.3999999999942 1230.3999999999942 1250.3999999999942 1270.3999999999942 1290.3999999999942 1310.3999999999942 1330.3999999999942 1350.3999999999942 1370.3999999999942 1390.3999999999942 1410.3999999999942 1430.3999999999942 1450.3999999999942 1470.3999999999942
cb_01,3.0,enc_trial,stim,response,Iceland trip,2135.5,enc_trial,1.0,3.0,t_i_18_1,travel_Iceland,fold-c-single,ski mask,1.0,unique,,single,t_i_18_1.jpg,Iceland,travel-b1,Iceland trip,Miami trip,sub-49,1.0,,1.0,,0.5039349422875131 0.5055089192025184 0.5070828961175237 0.5086568730325288 0.5110178384050367 0.5125918153200419 0.5196747114375656 0.5236096537250787 0.529118572927597 0.5330535152151101 0.5385624344176285 0.5566631689401889 0.5676810073452256 0.5802728226652676 0.5920776495278071 0.6101783840503673 0.6550367261280168 0.6778593913955928 0.6975341028331584 0.7179958027282266 0.7392444910807975 0.7990556138509969 0.8266002098635887 0.8478488982161596 0.8651626442812173 0.8769674711437566 0.8887722980062959 0.8903462749213013 0.8903462749213013 0.8903462749213013 0.882476390346275 0.8321091290661071 0.784102833158447 0.7187827911857293 0.6424449108079748 0.5605981112277021 0.4079223504721931 0.349685204616999 0.3087618048268625 0.28279118572927603 0.2654774396642183 0.25131164742917106 0.2458027282266527 0.2410807974816369 0.2324239244491081 0.22298006295907666 0.20724029380902406 0.2056663168940189 0.2056663168940189 0.2056663168940189 0.2056663168940189 0.2040923399790137 0.2025183630640084 0.1985834207764953 0.19228751311647432 0.186778593913956 0.1749737670514166 0.16946484784889826 0.16395592864637987 0.16080797481636938 0.1584470094438615 0.1584470094438615 0.1584470094438615 0.1576600209863589 0.1576600209863589 0.15687303252885626,0.8079748163693599 0.7985309548793285 0.789087093389297 0.7796432318992654 0.7670514165792235 0.7544596012591815 0.7292759706190977 0.7156348373557188 0.6977964323189927 0.6778593913955928 0.6547743966421826 0.5886673662119623 0.5508919202518363 0.5131164742917104 0.4753410283315844 0.4291710388247639 0.3242392444910808 0.2738719832109129 0.2360965372507869 0.2025183630640084 0.16894018887722986 0.12277019937040926 0.11437565582371455 0.10912906610703044 0.10493179433368316 0.10283315844700948 0.09968520461699892 0.09968520461699892 0.09968520461699892 0.09968520461699892 0.10703043022035674 0.1269674711437565 0.13955928646379856 0.15320041972717735 0.16474291710388245 0.17103882476390342 0.17103882476390342 0.16998950682056668 0.16159496327387202 0.15320041972717735 0.14585519412381953 0.1385099685204617 0.13746065057712487 0.13641133263378802 0.13641133263378802 0.13641133263378802 0.13641133263378802 0.13641133263378802 0.13641133263378802 0.13641133263378802 0.13641133263378802 0.13641133263378802 0.13536201469045114 0.13536201469045114 0.13536201469045114 0.13431269674711432 0.13431269674711432 0.1332633788037776 0.1332633788037776 0.1332633788037776 0.1332633788037776 0.1332633788037776 0.1332633788037776 0.1332633788037776 0.1332633788037776 0.1332633788037776,483.8000000000029 503.8000000000029 523.8000000000029 543.8000000000029 563.8000000000029 583.8000000000029 603.8000000000029 623.8000000000029 643.8000000000029 663.8000000000029 683.8000000000029 703.8000000000029 723.8000000000029 743.8000000000029 763.8000000000029 783.8000000000029 803.8000000000029 823.8000000000029 843.8000000000029 863.8000000000029 883.8000000000029 903.8000000000028 923.8000000000028 943.8000000000028 963.8000000000028 983.8000000000028 1003.8000000000028 1023.8000000000028 1043.8000000000031 1063.8000000000031 1083.8000000000031 1103.8000000000031 1123.8000000000031 1143.8000000000031 1163.8000000000031 1183.8000000000031 1203.8000000000031 1223.8000000000031 1243.8000000000031 1263.8000000000031 1283.8000000000031 1303.8000000000031 1323.8000000000031 1343.8000000000031 1363.8000000000031 1383.8000000000031 1403.8000000000031 1423.8000000000031 1443.8000000000031 1463.8000000000031 1483.8000000000031 1503.8000000000031 1523.8000000000031 1543.8000000000031 1563.8000000000031 1583.8000000000031 1603.8000000000031 1623.8000000000031 1643.8000000000031 1663.8000000000031 1683.8000000000031 1703.8000000000031 1723.8000000000031 1743.8000000000031 1763.8000000000031 1783.8000000000031
cb_01,4.0,enc_trial,stim,response,Miami trip,1211.6000000029746,enc_trial,1.0,4.0,t_m_17_2,travel_Miami,fold-a,water gun,1.0,unique,close,paired,t_m_17_2.jpg,Miami,travel-b1,Iceland trip,Miami trip,sub-49,1.0,1.0,1.0,1.0,0.4960650577124869 0.4992130115424974 0.5031479538300105 0.5047219307450157 0.5031479538300105 0.4944910807974817 0.4826862539349423 0.4763903462749213 0.4716684155299056 0.4693074501573977 0.4693074501573977 0.5070828961175237 0.5519412381951732 0.6109653725078699 0.6715634837355718 0.7337355718782791 0.8273871983210913 0.85099685204617 0.8753934942287513 0.8950682056663171 0.9155299055613852 0.9485834207764954 0.9540923399790135 0.9548793284365164 0.9556663168940188 0.9533053515215112 0.9273347324239244 0.9108079748163694 0.8919202518363065 0.8730325288562435 0.8557187827911859 0.8478488982161596,0.8384050367261279 0.8216159496327387 0.7953830010493179 0.7492130115424973 0.6998950682056664 0.6484784889821615 0.5435466946484785 0.4942287513116474 0.4512067156348374 0.4155299055613851 0.3704092339979014 0.28436516264428124 0.25918153200419725 0.2434417628541448 0.2371458551941238 0.2256033578174187 0.19307450157397688 0.17838405036726124 0.15634837355718778 0.13641133263378802 0.11437565582371455 0.08814270724029383 0.08814270724029383 0.08814270724029383 0.08814270724029383 0.0944386149003148 0.11332633788037773 0.12277019937040926 0.1332633788037776 0.142707240293809 0.1500524658971668 0.15110178384050366,517.2999999999884 537.2999999999884 557.2999999999884 577.2999999999884 597.2999999999884 617.2999999999884 637.2999999999884 657.2999999999884 677.2999999999884 697.2999999999884 717.2999999999884 737.2999999999884 757.2999999999884 777.2999999999884 797.2999999999884 817.2999999999884 837.2999999999884 857.2999999999884 877.2999999999884 897.2999999999884 917.2999999999884 937.2999999999884 957.2999999999884 977.2999999999884 997.2999999999884 1017.2999999999884 1037.2999999999884 1057.2999999999884 1077.2999999999884 1097.2999999999884 1117.2999999999884 1137.2999999999886
cb_01,5.0,enc_trial,stim,response,Miami trip,1066.1000000059576,enc_trial,1.0,5.0,t_m_07_1,travel_Miami,fold-c-single,sunglasses,1.0,unique,,single,t_m_07_1.jpg,Miami,travel-b1,Iceland trip,Miami trip,sub-49,1.0,,1.0,,0.4976390346274922 0.4976390346274922 0.4976390346274922 0.4984260230849947 0.5 0.5007869884575026 0.5039349422875131 0.506295907660021 0.5078698845750262 0.5118048268625394 0.5141657922350472 0.5228226652675759 0.5306925498426023 0.5377754459601259 0.5448583420776495 0.5527282266526757 0.5700419727177335 0.5849947534102833 0.6046694648478489 0.631427072402938 0.662906610703043 0.7305876180482687 0.7707240293809023 0.7998426023084995 0.8352570828961176 0.8588667366211963 0.8832633788037776 0.8927072402938091 0.9021511017838406 0.9100209863588667 0.9147429171038826 0.9155299055613852,0.8247639034627492 0.8184679958027282 0.8132214060860441 0.8058761804826863 0.7953830010493179 0.7796432318992654 0.7471143756558237 0.7355718782791185 0.7229800629590766 0.7061909758656872 0.6915005246589716 0.6526757607555089 0.627492130115425 0.6044071353620146 0.5760755508919202 0.5466946484784889 0.4900314795383001 0.4554039874081847 0.4165792235047221 0.3683105981112277 0.3126967471143757 0.21406086044071349 0.1731374606505771 0.1521511017838405 0.13221406086044074 0.12067156348373552 0.11227701993704098 0.11122770199370413 0.1080797481636936 0.10703043022035674 0.10703043022035674 0.10703043022035674,367.09999999999116 387.09999999999116 407.09999999999116 427.09999999999116 447.09999999999116 467.09999999999116 487.09999999999116 507.09999999999116 527.0999999999912 547.0999999999912 567.0999999999913 587.0999999999913 607.0999999999913 627.0999999999913 647.0999999999913 667.0999999999913 687.0999999999913 707.0999999999913 727.0999999999913 747.0999999999913 767.0999999999913 787.0999999999913 807.0999999999913 827.0999999999913 847.0999999999913 867.0999999999913 887.0999999999913 907.0999999999913 927.0999999999913 947.0999999999913 967.0999999999913 987.0999999999913
cb_01,6.0,enc_trial,stim,response,Miami trip,1967.79999999702,enc_trial,1.0,6.0,t_s_21_1,travel_shared,fold-b,umbrella,1.0,competing,far,paired,t_s_21_1.jpg,,travel-b1,Iceland trip,Miami trip,sub-49,0.0,0.0,1.0,1.0,0.5023609653725079 0.5031479538300105 0.5039349422875131 0.5039349422875131 0.5047219307450157 0.5047219307450157 0.5055089192025184 0.506295907660021 0.506295907660021 0.5070828961175237 0.5070828961175237 0.5078698845750262 0.5086568730325288 0.5086568730325288 0.5094438614900315 0.5102308499475341 0.5110178384050367 0.5110178384050367 0.5118048268625394 0.5125918153200419 0.5125918153200419 0.5141657922350472 0.5149527806925498 0.5157397691500525 0.5165267576075551 0.5181007345225603 0.5204616998950682 0.5220356768100735 0.5236096537250787 0.5259706190975866 0.5283315844700944 0.5393494228751312 0.5456453305351522 0.5527282266526757 0.5605981112277021 0.5708289611752361 0.6109653725078699 0.6361490031479539 0.6621196222455404 0.6928121720881427 0.723504721930745 0.7833158447009444 0.8045645330535152 0.8210912906610703 0.834470094438615 0.8486358866736622 0.8683105981112278 0.8746065057712488 0.8816894018887723 0.8903462749213013 0.8982161594963275 0.9068730325288564 0.9084470094438616 0.9084470094438616 0.9084470094438616 0.9084470094438616 0.9084470094438616 0.9076600209863588 0.9052990556138508 0.9029380902413432 0.9005771248688353 0.8982161594963275 0.8966421825813222 0.8950682056663171 0.8934942287513117 0.8927072402938091 0.8919202518363065,0.8268625393494229 0.8258132214060859 0.8247639034627492 0.8237145855194123 0.8216159496327387 0.8205666316894019 0.8195173137460651 0.8174186778593914 0.8153200419727178 0.8142707240293809 0.8132214060860441 0.8121720881427072 0.8111227701993704 0.8090241343126967 0.8079748163693599 0.8058761804826863 0.8037775445960126 0.8027282266526757 0.8006295907660022 0.7974816369359916 0.7964323189926548 0.7911857292759706 0.789087093389297 0.7859391395592865 0.782791185729276 0.7796432318992654 0.7712486883525709 0.7670514165792235 0.7628541448058762 0.7565582371458552 0.7502623294858342 0.7271773347324241 0.7145855194123821 0.7009443861490032 0.6852046169989507 0.664218258132214 0.5739769150052466 0.5204616998950682 0.4679958027282266 0.40923399790136417 0.35781741867785943 0.2749213011542497 0.2486883525708289 0.22980062959076605 0.2161594963273872 0.20356768100734526 0.18782791185729275 0.18363064008394547 0.17628541448058765 0.167890870933893 0.15739769150052466 0.14480587618048268 0.14165792235047214 0.13746065057712487 0.13431269674711432 0.13221406086044074 0.13011542497376705 0.1290661070304302 0.1290661070304302 0.1290661070304302 0.1290661070304302 0.1290661070304302 0.1290661070304302 0.1290661070304302 0.1290661070304302 0.1290661070304302 0.13011542497376705,583.8999999999943 603.8999999999943 623.8999999999943 643.8999999999943 663.8999999999943 683.8999999999943 703.8999999999942 723.8999999999942 743.8999999999942 763.8999999999942 783.8999999999942 803.8999999999942 823.8999999999942 843.8999999999942 863.8999999999942 883.8999999999942 903.8999999999944 923.8999999999944 943.8999999999944 963.8999999999944 983.8999999999944 1003.8999999999944 1023.8999999999944 1043.8999999999942 1063.8999999999942 1083.8999999999942 1103.8999999999942 1123.8999999999942 1143.8999999999942 1163.8999999999942 1183.8999999999942 1203.8999999999942 1223.8999999999942 1243.8999999999942 1263.8999999999942 1283.8999999999942 1303.8999999999942 1323.8999999999942 1343.8999999999942 1363.8999999999942 1383.8999999999942 1403.8999999999942 1423.8999999999942 1443.8999999999942 1463.8999999999942 1483.8999999999942 1503.8999999999942 1523.8999999999942 1543.8999999999942 1563.8999999999942 1583.8999999999942 1603.8999999999942 1623.8999999999942 1643.8999999999942 1663.8999999999942 1683.8999999999942 1703.8999999999942 1723.8999999999942 1743.8999999999942 1763.8999999999942 1783.8999999999942 1803.8999999999944 1823.8999999999944 1843.8999999999944 1863.8999999999944 1883.8999999999944 1903.8999999999944
cb_01,7.0,enc_trial,stim,response,Iceland trip,2120.1000000089407,enc_trial,1.0,7.0,t_i_13_1,travel_Iceland,fold-a,sleeping bag,1.0,unique,close,paired,t_i_13_1.jpg,Iceland,travel-b1,Iceland trip,Miami trip,sub-49,1.0,1.0,1.0,1.0,0.4968520461699895 0.4968520461699895 0.4968520461699895 0.4968520461699895 0.4968520461699895 0.4968520461699895 0.4968520461699895 0.4968520461699895 0.4968520461699895 0.4976390346274922 0.4976390346274922 0.4976390346274922 0.4984260230849947 0.4992130115424974 0.5015739769150053 0.5031479538300105 0.5039349422875131 0.5047219307450157 0.5055089192025184 0.5055089192025184 0.506295907660021 0.5078698845750262 0.5078698845750262 0.506295907660021 0.5039349422875131 0.5007869884575026 0.4952780692549842 0.4929171038824764 0.4905561385099685 0.4897691500524659 0.4889821615949633 0.4897691500524659 0.4921301154249738 0.4960650577124869 0.5015739769150053 0.5094438614900315 0.5362014690451207 0.5613850996852046 0.5905036726128017 0.6259181532004198 0.6589716684155299 0.710912906610703 0.7290136411332634 0.7423924449108079 0.75498426023085 0.7652151101783841 0.7856768100734522 0.7919727177334732 0.7990556138509969 0.8061385099685205 0.8132214060860441 0.8266002098635887 0.8313221406086044 0.8352570828961176 0.8391920251836307 0.8423399790136412 0.8431269674711438 0.8250262329485835 0.7856768100734522 0.723504721930745 0.6432318992654774 0.4858342077649528 0.4087093389296957 0.35204616998950683 0.3111227701993704 0.28436516264428124 0.2505246589716684 0.2418677859391396 0.2339979013641133 0.22376705141657924 0.2056663168940189 0.17812172088142708 0.16867785939139562 0.16238195173137462 0.15923399790136414 0.1584470094438615,0.8121720881427072 0.8069254984260231 0.8016789087093389 0.7953830010493179 0.7869884575026234 0.7743966421825813 0.7471143756558237 0.7313746065057712 0.7103882476390346 0.6904512067156348 0.6747114375655824 0.6495278069254984 0.6379853095487933 0.6253934942287513 0.6117523609653726 0.5960125918153201 0.5645330535152151 0.5477439664218258 0.5309548793284364 0.5131164742917104 0.4963273871983212 0.4637985309548793 0.4470094438614899 0.4302203567681008 0.4186778593913956 0.4081846799580273 0.3871983210912907 0.3725078698845751 0.3546694648478489 0.3420776495278069 0.32843651626442816 0.304302203567681 0.2969569779643232 0.29590766002098634 0.29590766002098634 0.29590766002098634 0.28961175236096537 0.2780692549842603 0.2602308499475341 0.23819517313746064 0.21825813221406087 0.1909758656873033 0.18048268625393493 0.17418677859391396 0.16894018887722986 0.16474291710388245 0.16159496327387202 0.16159496327387202 0.16159496327387202 0.16159496327387202 0.16159496327387202 0.16159496327387202 0.16159496327387202 0.16159496327387202 0.16159496327387202 0.16159496327387202 0.16264428121720886 0.1773347324239245 0.19622245540398744 0.21406086044071349 0.2318992654774397 0.2486883525708289 0.2486883525708289 0.2486883525708289 0.2360965372507869 0.22350472193074492 0.20356768100734526 0.1951731374606505 0.18782791185729275 0.18258132214060865 0.17628541448058765 0.16894018887722986 0.16894018887722986 0.16684155299055614 0.16474291710388245 0.1636935991605456,583.8999999999943 603.8999999999943 623.8999999999943 643.8999999999943 663.8999999999943 683.8999999999943 703.8999999999942 723.8999999999942 743.8999999999942 763.8999999999942 783.8999999999942 803.8999999999942 823.8999999999942 843.8999999999942 863.8999999999942 883.8999999999942 903.8999999999944 923.8999999999944 943.8999999999944 963.8999999999944 983.8999999999944 1003.8999999999944 1023.8999999999944 1043.8999999999942 1063.8999999999942 1083.8999999999942 1103.8999999999942 1123.8999999999942 1143.8999999999942 1163.8999999999942 1183.8999999999942 1203.8999999999942 1223.8999999999942 1243.8999999999942 1263.8999999999942 1283.8999999999942 1303.8999999999942 1323.8999999999942 1343.8999999999942 1363.8999999999942 1383.8999999999942 1403.8999999999942 1423.8999999999942 1443.8999999999942 1463.8999999999942 1483.8999999999942 1503.8999999999942 1523.8999999999942 1543.8999999999942 1563.8999999999942 1583.8999999999942 1603.8999999999942 1623.8999999999942 1643.8999999999942 1663.8999999999942 1683.8999999999942 1703.8999999999942 1723.8999999999942 1743.8999999999942 1763.8999999999942 1783.8999999999942 1803.8999999999944 1823.8999999999944 1843.8999999999944 1863.8999999999944 1883.8999999999944 1903.8999999999944 1923.8999999999944 1943.8999999999944 1963.8999999999944 1983.8999999999944 2003.8999999999944 2023.8999999999944 2043.8999999999944 2063.8999999999937 2083.8999999999937
cb_01,8.0,enc_trial,stim,response,Iceland trip,2127.9000000029773,enc_trial,1.0,8.0,t_s_12_1,travel_shared,fold-b,clear toiletry bag,1.0,competing,far,paired,t_s_12_1.jpg,,travel-b1,Iceland trip,Miami trip,sub-49,1.0,1.0,0.0,0.0,0.4952780692549842 0.4952780692549842 0.4960650577124869 0.4960650577124869 0.4960650577124869 0.4960650577124869 0.4960650577124869 0.4960650577124869 0.4960650577124869 0.4960650577124869 0.4960650577124869 0.4960650577124869 0.4960650577124869 0.4960650577124869 0.4976390346274922 0.4976390346274922 0.4992130115424974 0.5015739769150053 0.5055089192025184 0.5133788037775446 0.5220356768100735 0.5369884575026233 0.5448583420776495 0.5527282266526757 0.5629590766002098 0.5794858342077649 0.6243441762854145 0.6534627492130115 0.6833683105981112 0.7069779643231899 0.7211437565582371 0.7360965372507869 0.7431794333683106 0.7526232948583421 0.7620671563483735 0.7730849947534103 0.7880377754459601 0.7927597061909758 0.7951206715634838 0.7974816369359916 0.7974816369359916 0.7880377754459601 0.7683630640083945 0.7423924449108079 0.7156348373557188 0.6928121720881427 0.6298530954879329 0.5897166841552991 0.5495802728226653 0.506295907660021 0.4693074501573977 0.4110703043022036 0.38667366211962223 0.3677859391395593 0.3551941238195173 0.3473242392444911 0.33551941238195176 0.330797481636936 0.3276495278069255 0.32214060860440713 0.3150577124868835 0.2961699895068205 0.2867261280167891 0.2796432318992655 0.2694123819517314 0.2505246589716684 0.21353620146904514 0.2009443861490032 0.19228751311647432 0.18048268625393496 0.1655299055613851 0.14349422875131168 0.1411332633788038 0.1411332633788038 0.1411332633788038 0.14034627492130114,0.8289611752360966 0.8279118572927597 0.8279118572927597 0.8279118572927597 0.8279118572927597 0.8279118572927597 0.8279118572927597 0.8279118572927597 0.8279118572927597 0.8279118572927597 0.8279118572927597 0.8279118572927597 0.8268625393494229 0.8237145855194123 0.8174186778593914 0.8121720881427072 0.7974816369359916 0.7796432318992654 0.7534102833158447 0.7187827911857293 0.6831059811122769 0.6222455403987408 0.5928646379853095 0.5666316894018888 0.5330535152151101 0.4931794333683106 0.4008394543546695 0.3525708289611752 0.3084994753410283 0.2759706190975866 0.2560335781741868 0.22980062959076605 0.21720881427072405 0.20461699895068208 0.1909758656873033 0.17628541448058765 0.16054564533053514 0.15634837355718778 0.1542497376705142 0.1521511017838405 0.1521511017838405 0.15320041972717735 0.15739769150052466 0.16159496327387202 0.16159496327387202 0.16159496327387202 0.16159496327387202 0.15529905561385104 0.14585519412381953 0.1406086044071354 0.13955928646379856 0.13955928646379856 0.13955928646379856 0.1385099685204617 0.13536201469045114 0.1332633788037776 0.1332633788037776 0.1332633788037776 0.1332633788037776 0.1332633788037776 0.13431269674711432 0.13536201469045114 0.13536201469045114 0.13536201469045114 0.13641133263378802 0.13955928646379856 0.14690451206715638 0.1500524658971668 0.15320041972717735 0.15634837355718778 0.16054564533053514 0.1636935991605456 0.1636935991605456 0.1636935991605456 0.1636935991605456 0.1636935991605456,166.8000000000029 186.8000000000029 206.8000000000029 226.8000000000029 246.8000000000029 266.8000000000029 286.80000000000285 306.80000000000285 326.80000000000285 346.8000000000029 366.8000000000029 386.8000000000029 406.8000000000029 426.8000000000029 446.8000000000029 466.8000000000029 486.8000000000029 506.8000000000029 526.8000000000029 546.8000000000029 566.8000000000029 586.8000000000029 606.8000000000029 626.8000000000029 646.8000000000029 666.8000000000029 686.8000000000029 706.8000000000029 726.8000000000029 746.8000000000029 766.8000000000029 786.8000000000029 806.8000000000029 826.8000000000029 846.8000000000029 866.8000000000029 886.8000000000029 906.8000000000028 926.8000000000028 946.8000000000028 966.8000000000028 986.8000000000028 1006.8000000000028 1026.8000000000031 1046.8000000000031 1066.8000000000031 1086.8000000000031 1106.8000000000031 1126.8000000000031 1146.8000000000031 1166.8000000000031 1186.8000000000031 1206.8000000000031 1226.8000000000031 1246.8000000000031 1266.8000000000031 1286.8000000000031 1306.8000000000031 1326.8000000000031 1346.8000000000031 1366.8000000000031 1386.8000000000031 1406.8000000000031 1426.8000000000031 1446.8000000000031 1466.8000000000031 1486.8000000000031 1506.8000000000031 1526.8000000000031 1546.8000000000031 1566.8000000000031 1586.8000000000031 1606.8000000000031 1626.8000000000031 1646.8000000000031 1666.8000000000031
cb_01,9.0,enc_trial,stim,response,Miami trip,1434.8999999999942,enc_trial,1.0,9.0,t_m_03_1,travel_Miami,fold-c-single,wetsuit,1.0,unique,,single,t_m_03_1.jpg,Miami,travel-b1,Iceland trip,Miami trip,sub-49,1.0,,1.0,,0.5 0.5007869884575026 0.5007869884575026 0.5007869884575026 0.5007869884575026 0.5007869884575026 0.4992130115424974 0.4992130115424974 0.4992130115424974 0.4976390346274922 0.4960650577124869 0.4929171038824764 0.4881951731374606 0.483473242392445 0.4795383001049318 0.4724554039874082 0.4551416579223505 0.445697796432319 0.4386149003147954 0.4307450157397691 0.4236621196222456 0.41028331584470096 0.4079223504721931 0.4079223504721931 0.41028331584470096 0.42444910807974817 0.483473242392445 0.5259706190975866 0.5708289611752361 0.6180482686253935 0.662906610703043 0.7400314795383001 0.7738719832109129 0.7998426023084995 0.8155823714585521 0.8250262329485835 0.8399790136411334 0.8462749213011543 0.8525708289611753 0.8565057712486884 0.8604407135362016 0.8698845750262331 0.8722455403987409,0.8321091290661071 0.8216159496327387 0.8090241343126967 0.7932843651626442 0.7628541448058762 0.7292759706190977 0.6516264428121721 0.6075550891920252 0.5645330535152151 0.5162644281217209 0.465897166841553 0.385099685204617 0.3525708289611752 0.3126967471143757 0.2759706190975866 0.2476390346274921 0.21406086044071349 0.20356768100734526 0.19412381951731367 0.18572927597061906 0.1773347324239245 0.16264428121720886 0.15949632738719832 0.15739769150052466 0.1542497376705142 0.1500524658971668 0.142707240293809 0.1290661070304302 0.1080797481636936 0.08499475341028329 0.06715634837355723 0.06400839454354668 0.07555089192025187 0.08709338929695698 0.09758656873032534 0.10283315844700948 0.1175236096537251 0.1269674711437565 0.13431269674711432 0.13746065057712487 0.1385099685204617 0.1406086044071354 0.14165792235047214,467.0 487.0 507.0 527.0 547.0 567.0 587.0 607.0 627.0 647.0 667.0 687.0 707.0 727.0 747.0 767.0 787.0 807.0 827.0 847.0 867.0 887.0 907.0 927.0 947.0 967.0 987.0 1007.0 1027.0 1047.0 1067.0 1087.0 1107.0 1127.0 1147.0 1167.0 1187.0 1207.0 1227.0 1247.0 1267.0 1287.0 1307.0
cb_01,10.0,enc_trial,stim,response,Iceland trip,1650.6000000029746,enc_trial,1.0,10.0,t_i_13_2,travel_Iceland,fold-a,sleeping bag,1.0,unique,close,paired,t_i_13_2.jpg,Iceland,travel-b1,Iceland trip,Miami trip,sub-49,1.0,1.0,1.0,1.0,0.4960650577124869 0.5 0.5055089192025184 0.5110178384050367 0.5149527806925498 0.5204616998950682 0.5338405036726128 0.5464323189926548 0.5653200419727177 0.5881427072402938 0.6149003147953829 0.6699895068205666 0.6935991605456453 0.710912906610703 0.7274396642182581 0.7431794333683106 0.7801678908709339 0.7982686253934942 0.8155823714585521 0.8305351521511019 0.8423399790136412 0.8612277019937041 0.8659496327387199 0.8683105981112278 0.8722455403987409 0.8793284365162645 0.8997901364113327 0.9005771248688353 0.9005771248688353 0.8871983210912907 0.857292759706191 0.7345225603357818 0.6330010493179433 0.5220356768100735 0.4118572927597062 0.32292759706190977 0.22298006295907666 0.20645330535152154 0.2009443861490032 0.19779643231899266 0.19307450157397693 0.174186778593914 0.16159496327387202 0.15293809024134314 0.1505771248688353 0.14979013641133265 0.14742917103882475 0.1442812172088143 0.1411332633788038 0.14034627492130114,0.8247639034627492 0.8121720881427072 0.7964323189926548 0.7785939139559286 0.7628541448058762 0.74501573976915 0.7072402938090241 0.6778593913955928 0.6432318992654774 0.602308499475341 0.5540398740818469 0.4575026232948584 0.41133263378803775 0.3767051416579224 0.3431269674711438 0.30954879328436513 0.2308499475341028 0.19937040923399785 0.1773347324239245 0.15844700944386148 0.14690451206715638 0.1311647429171039 0.12801678908709335 0.12486883525708292 0.11857292759706195 0.11017838405036727 0.0923399790136411 0.09129066107030426 0.09129066107030426 0.09129066107030426 0.0944386149003148 0.12067156348373552 0.1385099685204617 0.15634837355718778 0.167890870933893 0.1773347324239245 0.18153200419727167 0.18153200419727167 0.1773347324239245 0.17418677859391396 0.16998950682056668 0.1636935991605456 0.16054564533053514 0.15844700944386148 0.15739769150052466 0.15634837355718778 0.1521511017838405 0.1500524658971668 0.14900314795382996 0.14900314795382996,517.1999999999971 537.1999999999971 557.1999999999971 577.1999999999971 597.1999999999971 617.1999999999971 637.1999999999971 657.1999999999971 677.1999999999971 697.1999999999971 717.1999999999971 737.1999999999971 757.1999999999971 777.1999999999971 797.1999999999971 817.1999999999971 837.1999999999971 857.1999999999971 877.1999999999971 897.1999999999971 917.1999999999972 937.1999999999972 957.1999999999972 977.1999999999972 997.1999999999972 1017.1999999999972 1037.1999999999969 1057.1999999999969 1077.1999999999969 1097.1999999999969 1117.1999999999969 1137.1999999999969 1157.1999999999969 1177.1999999999969 1197.1999999999969 1217.1999999999969 1237.1999999999969 1257.1999999999969 1277.1999999999969 1297.1999999999969 1317.1999999999969 1337.1999999999969 1357.1999999999969 1377.1999999999969 1397.1999999999969 1417.1999999999969 1437.1999999999969 1457.1999999999969 1477.1999999999969 1497.1999999999969
cb_01,11.0,enc_trial,stim,response,Iceland trip,1457.699999997014,enc_trial,1.0,11.0,t_i_19_1,travel_Iceland,fold-b,rope,1.0,unique,far,paired,t_i_19_1.jpg,Iceland,travel-b1,Iceland trip,Miami trip,sub-49,1.0,1.0,1.0,1.0,0.5047219307450157 0.5047219307450157 0.5055089192025184 0.506295907660021 0.5078698845750262 0.5086568730325288 0.5118048268625394 0.5125918153200419 0.5141657922350472 0.5157397691500525 0.5165267576075551 0.5196747114375656 0.5220356768100735 0.525183630640084 0.5330535152151101 0.5393494228751312 0.5668940188877231 0.5849947534102833 0.602308499475341 0.6227701993704092 0.6448058761804827 0.6841552990556138 0.6912381951731374 0.6935991605456453 0.6935991605456453 0.6896642182581322 0.646379853095488 0.602308499475341 0.5401364113326338 0.4756033578174187 0.4071353620146905 0.2890870933892969 0.24737670514165794 0.2190451206715635 0.20645330535152154 0.20015739769150054 0.1938614900314796 0.19071353620146905 0.18363064008394545 0.167890870933893 0.15923399790136414 0.15293809024134314,0.8247639034627492 0.8216159496327387 0.8205666316894019 0.8184679958027282 0.8163693599160545 0.8142707240293809 0.8100734522560336 0.8069254984260231 0.8037775445960126 0.7995802728226653 0.7943336831059811 0.7806925498426023 0.7691500524658972 0.7544596012591815 0.7261280167890871 0.7030430220356768 0.6369359916054564 0.5907660020986358 0.5477439664218258 0.4973767051416579 0.44176285414480587 0.329485834207765 0.28961175236096537 0.2581322140608604 0.2277019937040924 0.19937040923399785 0.14795383001049325 0.12486883525708292 0.1080797481636936 0.10073452256033576 0.10073452256033576 0.10703043022035674 0.11227701993704098 0.11437565582371455 0.11437565582371455 0.11437565582371455 0.11437565582371455 0.11647429171038826 0.11962224554039867 0.12591815320041974 0.1290661070304302 0.13221406086044074,517.0999999999913 537.0999999999913 557.0999999999913 577.0999999999913 597.0999999999913 617.0999999999913 637.0999999999913 657.0999999999913 677.0999999999913 697.0999999999913 717.0999999999913 737.0999999999913 757.0999999999913 777.0999999999913 797.0999999999913 817.0999999999913 837.0999999999913 857.0999999999913 877.0999999999913 897.0999999999913 917.0999999999913 937.0999999999913 957.0999999999913 977.0999999999913 997.0999999999913 1017.0999999999913 1037.0999999999913 1057.0999999999913 1077.0999999999913 1097.0999999999913 1117.0999999999913 1137.0999999999913 1157.0999999999913 1177.0999999999913 1197.0999999999913 1217.0999999999913 1237.0999999999913 1257.0999999999913 1277.0999999999913 1297.0999999999913 1317.0999999999913 1337.0999999999913
cb_01,12.0,enc_trial,stim,response,Iceland trip,1827.0000000089346,enc_trial,1.0,12.0,t_i_14_1,travel_Iceland,fold-c-single,snow pants,1.0,unique,,single,t_i_14_1.jpg,Iceland,travel-b1,Iceland trip,Miami trip,sub-49,1.0,,1.0,,0.5047219307450157 0.5047219307450157 0.5047219307450157 0.5047219307450157 0.5047219307450157 0.5047219307450157 0.5047219307450157 0.5047219307450157 0.5047219307450157 0.5039349422875131 0.5031479538300105 0.5 0.4984260230849947 0.4976390346274922 0.4960650577124869 0.4944910807974817 0.4921301154249738 0.4921301154249738 0.4921301154249738 0.4921301154249738 0.4929171038824764 0.493704092339979 0.4944910807974817 0.4944910807974817 0.4913431269674711 0.4866211962224554 0.4685204616998951 0.4527806925498426 0.4291710388247639 0.3984784889821616 0.35912906610703044 0.263903462749213 0.2151101783840504 0.17025183630640087 0.12854144805876186 0.10335781741867787 0.07502623294858345 0.06873032528856246 0.06794333683105984 0.06794333683105984 0.06794333683105984 0.0703043022035677 0.07423924449108082 0.08447009443861493 0.09863588667366216 0.11280167890870935 0.13168940188877232 0.13326337880377756 0.1340503672612802 0.1348373557187828 0.1348373557187828,0.8121720881427072 0.8100734522560336 0.8069254984260231 0.8058761804826863 0.8048268625393494 0.8027282266526757 0.7985309548793285 0.7953830010493179 0.7911857292759706 0.7859391395592865 0.7775445960125918 0.7597061909758657 0.7513116474291709 0.7439664218258133 0.7355718782791185 0.7282266526757608 0.7082896117523609 0.6998950682056664 0.6915005246589716 0.6789087093389297 0.6705141657922351 0.6526757607555089 0.6421825813221407 0.6327387198321089 0.621196222455404 0.608604407135362 0.5781741867785939 0.55299055613851 0.521511017838405 0.4847848898216161 0.43651626442812175 0.33263378803777544 0.2875131164742917 0.2518363064008394 0.21825813221406087 0.2025183630640084 0.1752360965372508 0.16054564533053514 0.1521511017838405 0.14480587618048268 0.14165792235047214 0.13746065057712487 0.1332633788037776 0.1290661070304302 0.12381951731374607 0.11962224554039867 0.1154249737670514 0.1154249737670514 0.1154249737670514 0.1154249737670514 0.11647429171038826,417.0 437.0 457.0 477.0 497.0 517.0 537.0 557.0 577.0 597.0 617.0 637.0 657.0 677.0 697.0 717.0 737.0 757.0 777.0 797.0 817.0 837.0 857.0 877.0 897.0 917.0 937.0 957.0 977.0 997.0 1017.0 1037.0 1057.0 1077.0 1097.0 1117.0 1137.0 1157.0 1177.0 1197.0 1217.0 1237.0 1257.0 1277.0 1297.0 1317.0 1337.0 1357.0 1377.0 1397.0 1417.0
cb_01,13.0,enc_trial,stim,response,Iceland trip,2428.6000000029744,enc_trial,1.0,13.0,t_s_08_1,travel_shared,fold-a,hand lotion,1.0,competing,close,paired,t_s_08_1.jpg,,travel-b1,Iceland trip,Miami trip,sub-49,1.0,1.0,1.0,1.0,0.5039349422875131 0.5039349422875131 0.5039349422875131 0.5047219307450157 0.5047219307450157 0.5055089192025184 0.5070828961175237 0.5078698845750262 0.5078698845750262 0.5078698845750262 0.5078698845750262 0.5086568730325288 0.5086568730325288 0.5094438614900315 0.5094438614900315 0.5094438614900315 0.5094438614900315 0.5094438614900315 0.5102308499475341 0.5118048268625394 0.5149527806925498 0.5220356768100735 0.5283315844700944 0.5401364113326338 0.5503672612801679 0.5598111227701994 0.5810598111227702 0.5928646379853095 0.6046694648478489 0.6141133263378804 0.6204092339979014 0.6282791185729276 0.6369359916054564 0.6471668415529905 0.6597586568730325 0.6699895068205666 0.6880902413431269 0.6975341028331584 0.7054039874081847 0.710912906610703 0.7124868835257083 0.6935991605456453 0.6542497376705142 0.6054564533053515 0.5322665267576075 0.4496327387198321 0.3134837355718783 0.276495278069255 0.2552465897166842 0.2426547743966422 0.23478488982161605 0.21747114375655827 0.2127492130115425 0.21117523609653727 0.21038824763903466 0.209601259181532 0.2040923399790137 0.199370409233998 0.19228751311647432 0.1852046169989507 0.17654774396642184 0.15529905561385102 0.14585519412381953 0.14270724029380905,0.7901364113326338 0.7869884575026234 0.7838405036726128 0.7806925498426023 0.7775445960125918 0.7743966421825813 0.763903462749213 0.7565582371458552 0.7481636935991606 0.7397691500524659 0.7313746065057712 0.7124868835257083 0.7051416579223504 0.7009443861490032 0.6967471143756558 0.6925498426023085 0.6757607555089191 0.6684155299055614 0.6589716684155299 0.6484784889821615 0.6379853095487933 0.6128016789087094 0.5981112277019938 0.5739769150052466 0.5498426023084995 0.521511017838405 0.4669464847848898 0.43651626442812175 0.4039874081846799 0.3725078698845751 0.3473242392444911 0.3064008394543547 0.2759706190975866 0.2455403987408185 0.2161594963273872 0.1951731374606505 0.16894018887722986 0.15739769150052466 0.14900314795382996 0.1406086044071354 0.13641133263378802 0.11857292759706195 0.10283315844700948 0.08814270724029383 0.08184679958027287 0.08184679958027287 0.09129066107030426 0.0923399790136411 0.0923399790136411 0.0923399790136411 0.0923399790136411 0.0923399790136411 0.0923399790136411 0.0923399790136411 0.0923399790136411 0.0923399790136411 0.0923399790136411 0.0923399790136411 0.0944386149003148 0.09758656873032534 0.10178384050367263 0.10912906610703044 0.11332633788037773 0.11437565582371455,366.8999999999942 386.8999999999942 406.8999999999942 426.8999999999942 446.8999999999942 466.8999999999942 486.8999999999942 506.8999999999942 526.8999999999942 546.8999999999942 566.8999999999943 586.8999999999943 606.8999999999943 626.8999999999943 646.8999999999943 666.8999999999943 686.8999999999943 706.8999999999942 726.8999999999942 746.8999999999942 766.8999999999942 786.8999999999942 806.8999999999942 826.8999999999942 846.8999999999942 866.8999999999942 886.8999999999942 906.8999999999942 926.8999999999942 946.8999999999942 966.8999999999942 986.8999999999942 1006.8999999999942 1026.8999999999942 1046.8999999999942 1066.8999999999942 1086.8999999999942 1106.8999999999942 1126.8999999999942 1146.8999999999942 1166.8999999999942 1186.8999999999942 1206.8999999999942 1226.8999999999942 1246.8999999999942 1266.8999999999942 1286.8999999999942 1306.8999999999942 1326.8999999999942 1346.8999999999942 1366.8999999999942 1386.8999999999942 1406.8999999999942 1426.8999999999942 1446.8999999999942 1466.8999999999942 1486.8999999999942 1506.8999999999942 1526.8999999999942 1546.8999999999942 1566.8999999999942 1586.8999999999942 1606.8999999999942 1626.8999999999942
cb_01,14.0,enc_trial,stim,response,Miami trip,1305.5999999970227,enc_trial,1.0,14.0,t_m_18_1,travel_Miami,fold-b,waterproof tote,1.0,unique,far,paired,t_m_18_1.jpg,Miami,travel-b1,Iceland trip,Miami trip,sub-49,1.0,1.0,1.0,1.0,0.5055089192025184 0.5055089192025184 0.5102308499475341 0.5165267576075551 0.5220356768100735 0.5275445960125918 0.5464323189926548 0.5566631689401889 0.5747639034627492 0.5967995802728226 0.6204092339979014 0.6975341028331584 0.7439664218258132 0.7880377754459601 0.8266002098635887 0.8557187827911859 0.8934942287513117 0.9021511017838406 0.9108079748163694 0.9178908709338928 0.9210388247639036 0.921825813221406 0.921825813221406 0.921825813221406 0.921825813221406 0.921825813221406 0.9210388247639036 0.9171038824763904 0.9131689401888772 0.9108079748163694,0.7796432318992654 0.7649527806925498 0.7366211962224554 0.7009443861490032 0.6600209863588667 0.6159496327387198 0.5183630640083945 0.4690451206715634 0.42287513116474296 0.3746065057712487 0.335781741867786 0.25498426023085 0.2119622245540399 0.17418677859391396 0.14690451206715638 0.1311647429171039 0.10912906610703044 0.10073452256033576 0.09024134312696752 0.0828961175236097 0.07974816369359916 0.07974816369359916 0.07974816369359916 0.07974816369359916 0.07974816369359916 0.08394543546694644 0.09863588667366208 0.10703043022035674 0.11437565582371455 0.1175236096537251,667.1999999999971 687.1999999999971 707.1999999999971 727.1999999999971 747.1999999999971 767.1999999999971 787.1999999999971 807.1999999999971 827.1999999999971 847.1999999999971 867.1999999999971 887.1999999999971 907.1999999999972 927.1999999999972 947.1999999999972 967.1999999999972 987.1999999999972 1007.1999999999972 1027.1999999999969 1047.1999999999969 1067.1999999999969 1087.1999999999969 1107.1999999999969 1127.1999999999969 1147.1999999999969 1167.1999999999969 1187.1999999999969 1207.1999999999969 1227.1999999999969 1247.1999999999969
cb_01,15.0,enc_trial,stim,response,Iceland trip,1986.8999999970251,enc_trial,1.0,15.0,t_s_22_1,travel_shared,fold-a,belt,1.0,competing,close,paired,t_s_22_1.jpg,,travel-b1,Iceland trip,Miami trip,sub-49,0.0,0.0,1.0,1.0,0.5015739769150053 0.5015739769150053 0.5015739769150053 0.5015739769150053 0.5015739769150053 0.5023609653725079 0.5039349422875131 0.5047219307450157 0.506295907660021 0.5070828961175237 0.5110178384050367 0.5141657922350472 0.5165267576075551 0.5196747114375656 0.5220356768100735 0.5243966421825813 0.5369884575026233 0.5456453305351522 0.554302203567681 0.5621720881427072 0.5716159496327388 0.5873557187827911 0.5960125918153201 0.6038824763903463 0.6093913955928646 0.6117523609653726 0.6038824763903463 0.5920776495278071 0.5802728226652676 0.5621720881427072 0.5362014690451207 0.4464847848898216 0.3969045120671564 0.34889821615949634 0.3040398740818468 0.25996852046169994 0.215897166841553 0.20645330535152154 0.20173137460650573 0.19779643231899266 0.1938614900314796 0.18599160545645327 0.1820566631689402 0.17890870933892972 0.17733473242392447 0.17733473242392447 0.17733473242392447 0.17733473242392447 0.17733473242392447 0.17733473242392447 0.17733473242392447 0.17733473242392447 0.17733473242392447 0.17733473242392447 0.18284365162644284 0.1915005246589717 0.2536726128016789 0.31584470094438616 0.3937565582371457 0.4818992654774397 0.5676810073452256 0.7069779643231899 0.7423924449108079 0.7597061909758657 0.7667890870933893 0.7683630640083945 0.7707240293809023 0.7746589716684155 0.784102833158447 0.7966946484784889 0.8053515215110179 0.8069254984260231 0.7864637985309548 0.7494753410283316 0.6888772298006296 0.602308499475341 0.41028331584470096 0.3268625393494229 0.2678384050367261 0.2332109129066107 0.21825813221406087 0.2040923399790137 0.1954354669464848 0.18599160545645327 0.18048268625393496 0.17890870933892972 0.17339979013641135 0.16395592864637987 0.15529905561385102 0.15215110178384053,0.7901364113326338 0.7869884575026234 0.7859391395592865 0.7817418677859391 0.7785939139559286 0.7681007345225603 0.7628541448058762 0.7576075550891921 0.7513116474291709 0.7439664218258133 0.7198321091290659 0.7019937040923401 0.6831059811122769 0.6610703043022036 0.6411332633788038 0.6243441762854145 0.5792235047219307 0.5487932843651626 0.5141657922350472 0.4805876180482687 0.4480587618048269 0.3871983210912907 0.3504721930745016 0.3158447009443861 0.2854144805876181 0.2686253934942288 0.24973767051416584 0.2371458551941238 0.2277019937040924 0.21406086044071349 0.1983210912906611 0.14480587618048268 0.12801678908709335 0.1175236096537251 0.11647429171038826 0.11647429171038826 0.11647429171038826 0.11647429171038826 0.11647429171038826 0.11647429171038826 0.11647429171038826 0.11647429171038826 0.1175236096537251 0.11857292759706195 0.11857292759706195 0.11857292759706195 0.11857292759706195 0.11857292759706195 0.11857292759706195 0.11857292759706195 0.11857292759706195 0.11857292759706195 0.11857292759706195 0.11857292759706195 0.11857292759706195 0.11857292759706195 0.11122770199370413 0.11122770199370413 0.11332633788037773 0.12172088142707238 0.13536201469045114 0.16474291710388245 0.167890870933893 0.16998950682056668 0.17208814270724027 0.17208814270724027 0.17208814270724027 0.16894018887722986 0.15949632738719832 0.1500524658971668 0.14375655823714584 0.1406086044071354 0.1385099685204617 0.13746065057712487 0.13746065057712487 0.1406086044071354 0.1521511017838405 0.15529905561385104 0.15634837355718778 0.15634837355718778 0.15529905561385104 0.1500524658971668 0.14690451206715638 0.14585519412381953 0.14585519412381953 0.14585519412381953 0.14480587618048268 0.14480587618048268 0.14480587618048268 0.14480587618048268,167.0 187.0 207.0 227.0 247.0 267.0 287.0 307.0 327.0 347.0 367.0 387.0 407.0 427.0 447.0 467.0 487.0 507.0 527.0 547.0 567.0 587.0 607.0 627.0 647.0 667.0 687.0 707.0 727.0 747.0 767.0 787.0 807.0 827.0 847.0 867.0 887.0 907.0 927.0 947.0 967.0 987.0 1007.0 1027.0 1047.0 1067.0 1087.0 1107.0 1127.0 1147.0 1167.0 1187.0 1207.0 1227.0 1247.0 1267.0 1287.0 1307.0 1327.0 1347.0 1367.0 1387.0 1407.0 1427.0 1447.0 1467.0 1487.0 1507.0 1527.0 1547.0 1567.0 1587.0 1607.0 1627.0 1647.0 1667.0 1687.0 1707.0 1727.0 1747.0 1767.0 1787.0 1807.0 1827.0 1847.0 1867.0 1887.0 1907.0 1927.0 1947.0
cb_01,16.0,enc_trial,stim,response,Miami trip,1845.5000000029688,enc_trial,1.0,16.0,t_s_08_2,travel_shared,fold-a,hand lotion,1.0,competing,close,paired,t_s_08_2.jpg,,travel-b1,Iceland trip,Miami trip,sub-49,1.0,1.0,1.0,1.0,0.5078698845750262 0.5078698845750262 0.5070828961175237 0.5047219307450157 0.5007869884575026 0.4968520461699895 0.4858342077649528 0.4771773347324239 0.4669464847848898 0.4551416579223505 0.4496327387198321 0.4661594963273872 0.4850472193074502 0.5149527806925498 0.5511542497376705 0.5881427072402938 0.6581846799580273 0.6841552990556138 0.7101259181532004 0.7337355718782791 0.7557712486883525 0.80299055613851 0.8242392444910809 0.8399790136411334 0.8549317943336832 0.8628016789087094 0.8714585519412382 0.8738195173137462 0.876180482686254 0.8785414480587619 0.8801154249737672 0.8816894018887723 0.8816894018887723 0.882476390346275 0.882476390346275 0.8832633788037776 0.8832633788037776 0.8832633788037776 0.8832633788037776 0.8832633788037776 0.8832633788037776 0.8832633788037776 0.8832633788037776 0.8832633788037776 0.8832633788037776 0.8832633788037776 0.8832633788037776 0.8832633788037776 0.8832633788037776 0.8832633788037776 0.8832633788037776 0.8832633788037776 0.8832633788037776,0.8079748163693599 0.8037775445960126 0.7964323189926548 0.7806925498426023 0.7544596012591815 0.7240293809024134 0.6358866736621196 0.5802728226652676 0.5257082896117524 0.4669464847848898 0.4123819517313746 0.3126967471143757 0.2854144805876181 0.2602308499475341 0.2360965372507869 0.2161594963273872 0.1983210912906611 0.19412381951731367 0.18992654774396645 0.18782791185729275 0.1867785939139559 0.18048268625393493 0.17628541448058765 0.17103882476390342 0.1636935991605456 0.15739769150052466 0.14795383001049325 0.14375655823714584 0.13955928646379856 0.13431269674711432 0.1311647429171039 0.12801678908709335 0.12591815320041974 0.12486883525708292 0.12277019937040926 0.12172088142707238 0.12172088142707238 0.12172088142707238 0.12172088142707238 0.12172088142707238 0.12172088142707238 0.12172088142707238 0.12172088142707238 0.12172088142707238 0.12172088142707238 0.12172088142707238 0.12172088142707238 0.12172088142707238 0.12172088142707238 0.12172088142707238 0.12172088142707238 0.12172088142707238 0.12067156348373552,634.0 654.0 674.0 694.0 714.0 734.0 754.0 774.0 794.0 814.0 834.0 854.0 874.0 894.0 914.0 934.0 954.0 974.0 994.0 1014.0 1034.0 1054.0 1074.0 1094.0 1114.0 1134.0 1154.0 1174.0 1194.0 1214.0 1234.0 1254.0 1274.0 1294.0 1314.0 1334.0 1354.0 1374.0 1394.0 1414.0 1434.0 1454.0 1474.0 1494.0 1514.0 1534.0 1554.0 1574.0 1594.0 1614.0 1634.0 1654.0 1674.0
cb_01,17.0,enc_trial,stim,response,Iceland trip,1057.2000000089463,enc_trial,1.0,17.0,t_i_10_2,travel_Iceland,fold-b,trekking poles,1.0,unique,far,paired,t_i_10_2.jpg,Iceland,travel-b1,Iceland trip,Miami trip,sub-49,1.0,1.0,1.0,1.0,0.5031479538300105 0.5031479538300105 0.5031479538300105 0.5031479538300105 0.5031479538300105 0.5031479538300105 0.5031479538300105 0.5039349422875131 0.5039349422875131 0.5039349422875131 0.5039349422875131 0.5055089192025184 0.5070828961175237 0.5094438614900315 0.5149527806925498 0.5196747114375656 0.5204616998950682 0.5078698845750262 0.4866211962224554 0.4496327387198321 0.40477439664218257 0.3001049317943337 0.2591815320041973 0.23006295907660024 0.209601259181532 0.19700944386149005 0.1891395592864638 0.1875655823714585 0.186778593913956 0.18441762854144808 0.1812696747114376 0.16395592864637987 0.15608604407135365 0.15372507869884575,0.7817418677859391 0.7817418677859391 0.7806925498426023 0.7796432318992654 0.7785939139559286 0.7743966421825813 0.7722980062959077 0.7712486883525709 0.7691500524658972 0.7660020986358866 0.7597061909758657 0.74501573976915 0.7345225603357817 0.7166841552990556 0.6820566631689402 0.6358866736621196 0.534102833158447 0.4816369359916055 0.4291710388247639 0.3756558237145855 0.3221406086044072 0.23399790136411336 0.20461699895068208 0.18992654774396645 0.17628541448058765 0.1657922350472193 0.14690451206715638 0.14375655823714584 0.1406086044071354 0.1385099685204617 0.13746065057712487 0.13221406086044074 0.13011542497376705 0.1290661070304302,350.3999999999942 370.3999999999942 390.3999999999942 410.3999999999942 430.3999999999942 450.3999999999942 470.3999999999942 490.3999999999942 510.3999999999942 530.3999999999942 550.3999999999942 570.3999999999943 590.3999999999943 610.3999999999943 630.3999999999943 650.3999999999943 670.3999999999943 690.3999999999942 710.3999999999942 730.3999999999942 750.3999999999942 770.3999999999942 790.3999999999942 810.3999999999942 830.3999999999942 850.3999999999942 870.3999999999942 890.3999999999942 910.3999999999942 930.3999999999942 950.3999999999942 970.3999999999942 990.3999999999942 1010.3999999999942
cb_01,18.0,enc_trial,stim,response,Iceland trip,1295.2000000089465,enc_trial,1.0,18.0,t_s_22_2,travel_shared,fold-a,belt,1.0,competing,close,paired,t_s_22_2.jpg,,travel-b1,Iceland trip,Miami trip,sub-49,0.0,0.0,1.0,1.0,0.5007869884575026 0.5039349422875131 0.5070828961175237 0.5102308499475341 0.5125918153200419 0.5149527806925498 0.5165267576075551 0.5181007345225603 0.5188877229800629 0.5196747114375656 0.5204616998950682 0.5236096537250787 0.5243966421825813 0.5243966421825813 0.5243966421825813 0.5220356768100735 0.5196747114375656 0.5110178384050367 0.4929171038824764 0.4724554039874082 0.4598635886673662 0.4567156348373557 0.4598635886673662 0.4693074501573977 0.4818992654774397 0.4929171038824764 0.5031479538300105 0.5031479538300105 0.5031479538300105 0.5 0.481112277019937 0.3819517313746065 0.3197796432318993 0.2458027282266527 0.1749737670514166 0.1206715634837356 0.057712486883525725 0.04905561385099688 0.04748163693599163 0.04748163693599163 0.04748163693599163 0.04748163693599163 0.0498426023084995 0.052203567681007375 0.06164742917103885 0.07266526757607558 0.10335781741867787 0.11358866736621198 0.12618048268625395 0.13641133263378805 0.14034627492130114 0.1411332633788038,0.7911857292759706 0.7859391395592865 0.7817418677859391 0.7775445960125918 0.7733473242392445 0.7660020986358866 0.7597061909758657 0.7523609653725079 0.7387198321091291 0.7198321091290659 0.6988457502623295 0.6421825813221407 0.6107030430220357 0.5792235047219307 0.5477439664218258 0.5099685204616999 0.4375655823714586 0.3966421825813221 0.3494228751311648 0.3001049317943337 0.2518363064008394 0.1888772298006296 0.1657922350472193 0.1385099685204617 0.11647429171038826 0.1059811122770199 0.10073452256033576 0.09968520461699892 0.09863588667366208 0.09548793284365163 0.09129066107030426 0.08919202518363067 0.08919202518363067 0.08919202518363067 0.09129066107030426 0.09129066107030426 0.09129066107030426 0.09129066107030426 0.09129066107030426 0.09129066107030426 0.09129066107030426 0.09129066107030426 0.09338929695697797 0.0965372507869885 0.10073452256033576 0.10493179433368316 0.11332633788037773 0.11647429171038826 0.11962224554039867 0.12277019937040926 0.12486883525708292 0.12591815320041974,200.30000000001743 220.30000000001743 240.30000000001743 260.3000000000174 280.3000000000174 300.3000000000174 320.3000000000174 340.3000000000174 360.30000000001746 380.30000000001746 400.30000000001746 420.30000000001746 440.30000000001746 460.30000000001746 480.30000000001746 500.30000000001746 520.3000000000175 540.3000000000175 560.3000000000175 580.3000000000175 600.3000000000175 620.3000000000175 640.3000000000175 660.3000000000175 680.3000000000175 700.3000000000176 720.3000000000176 740.3000000000176 760.3000000000176 780.3000000000176 800.3000000000176 820.3000000000176 840.3000000000176 860.3000000000176 880.3000000000176 900.3000000000176 920.3000000000177 940.3000000000177 960.3000000000177 980.3000000000177 1000.3000000000177 1020.3000000000177 1040.3000000000177 1060.3000000000177 1080.3000000000177 1100.3000000000177 1120.3000000000177 1140.3000000000175 1160.3000000000175 1180.3000000000175 1200.3000000000175 1220.3000000000175
cb_01,19.0,enc_trial,stim,response,Miami trip,1434.799999999959,enc_trial,1.0,19.0,t_m_01_1,travel_Miami,fold-a,sandals,1.0,unique,close,paired,t_m_01_1.jpg,Miami,travel-b1,Iceland trip,Miami trip,sub-49,1.0,1.0,1.0,1.0,0.4968520461699895 0.4976390346274922 0.4984260230849947 0.5 0.5007869884575026 0.5015739769150053 0.5 0.493704092339979 0.4842602308499475 0.4700944386149003 0.4559286463798531 0.4315320041972718 0.4181532004197272 0.4000524658971669 0.378803777544596 0.3622770199370409 0.34889821615949634 0.3551941238195173 0.3819517313746065 0.4236621196222456 0.4803252885624344 0.6180482686253935 0.6880902413431269 0.7439664218258132 0.7872507869884575 0.8171563483735572 0.8541448058761806 0.8588667366211963 0.8604407135362016 0.8620146904512068 0.8651626442812173 0.8730325288562435 0.8738195173137462 0.8746065057712488,0.782791185729276 0.7796432318992654 0.776495278069255 0.7733473242392445 0.7681007345225603 0.7555089192025184 0.6988457502623295 0.6400839454354671 0.584470094438615 0.5183630640083945 0.4575026232948584 0.33997901364113325 0.3022035676810073 0.26652675760755506 0.23819517313746064 0.21930745015739767 0.1888772298006296 0.18048268625393493 0.1752360965372508 0.1752360965372508 0.17418677859391396 0.16684155299055614 0.1542497376705142 0.15110178384050366 0.14585519412381953 0.13955928646379856 0.12801678908709335 0.1269674711437565 0.1269674711437565 0.1269674711437565 0.1269674711437565 0.1290661070304302 0.1290661070304302 0.1290661070304302,767.3999999999942 787.3999999999942 807.3999999999942 827.3999999999942 847.3999999999942 867.3999999999942 887.3999999999942 907.3999999999942 927.3999999999942 947.3999999999942 967.3999999999942 987.3999999999942 1007.3999999999942 1027.3999999999942 1047.3999999999942 1067.3999999999942 1087.3999999999942 1107.3999999999942 1127.3999999999942 1147.3999999999942 1167.3999999999942 1187.3999999999942 1207.3999999999942 1227.3999999999942 1247.3999999999942 1267.3999999999942 1287.3999999999942 1307.3999999999942 1327.3999999999942 1347.3999999999942 1367.3999999999942 1387.3999999999942 1407.3999999999942 1427.3999999999942
cb_01,20.0,enc_trial,stim,response,Miami trip,1618.1999999999825,enc_trial,1.0,20.0,t_m_19_1,travel_Miami,fold-b,surfboard,1.0,unique,far,paired,t_m_19_1.jpg,Miami,travel-b1,Iceland trip,Miami trip,sub-49,1.0,1.0,1.0,1.0,0.5007869884575026 0.5 0.4992130115424974 0.4944910807974817 0.4881951731374606 0.481112277019937 0.4693074501573977 0.4630115424973767 0.4551416579223505 0.445697796432319 0.43940188877229797 0.4189401888772298 0.40634837355718784 0.391395592864638 0.3772298006295908 0.3630640083945436 0.34181532004197274 0.33158447009443864 0.318205666316894 0.3032528856243442 0.2890870933892969 0.2583945435466947 0.2434417628541448 0.23006295907660024 0.2151101783840504 0.2025183630640084 0.17654774396642184 0.16867785939139562 0.1647429171038825 0.16316894018887726 0.16238195173137462 0.16002098635886675 0.1576600209863589 0.15608604407135365 0.15529905561385102 0.15923399790136414 0.2410807974816369 0.33551941238195176 0.4543546694648479 0.5661070304302204 0.6739244491080797 0.8108604407135362 0.8415529905561385 0.8549317943336832 0.8596537250786989 0.8604407135362016,0.8027282266526757 0.7995802728226653 0.7943336831059811 0.7775445960125918 0.7555089192025184 0.7208814270724029 0.6253934942287513 0.5676810073452256 0.5204616998950682 0.4753410283315844 0.4459601259181532 0.3924449108079748 0.3735571878279118 0.3525708289611752 0.3336831059811123 0.3116474291710388 0.2738719832109129 0.2560335781741868 0.2371458551941238 0.2203567681007345 0.20881427072402936 0.1888772298006296 0.17943336831059808 0.17103882476390342 0.16264428121720886 0.15634837355718778 0.14585519412381953 0.142707240293809 0.14165792235047214 0.1406086044071354 0.1406086044071354 0.13955928646379856 0.1385099685204617 0.13641133263378802 0.13641133263378802 0.13431269674711432 0.12381951731374607 0.1175236096537251 0.1175236096537251 0.1175236096537251 0.1175236096537251 0.1175236096537251 0.1175236096537251 0.1175236096537251 0.1175236096537251 0.1175236096537251,617.2000000000116 637.2000000000116 657.2000000000116 677.2000000000116 697.2000000000116 717.2000000000116 737.2000000000116 757.2000000000116 777.2000000000116 797.2000000000116 817.2000000000116 837.2000000000116 857.2000000000116 877.2000000000116 897.2000000000116 917.2000000000116 937.2000000000116 957.2000000000116 977.2000000000116 997.2000000000116 1017.2000000000116 1037.2000000000116 1057.2000000000116 1077.2000000000116 1097.2000000000116 1117.2000000000116 1137.2000000000114 1157.2000000000114 1177.2000000000114 1197.2000000000114 1217.2000000000114 1237.2000000000114 1257.2000000000114 1277.2000000000114 1297.2000000000114 1317.2000000000114 1337.2000000000114 1357.2000000000114 1377.2000000000116 1397.2000000000116 1417.2000000000116 1437.2000000000116 1457.2000000000116 1477.2000000000116 1497.2000000000116 1517.2000000000116
cb_01,21.0,enc_trial,stim,response,Iceland trip,1348.0000000059665,enc_trial,1.0,21.0,t_s_02_1,travel_shared,fold-b,water bottle,1.0,competing,far,paired,t_s_02_1.jpg,,travel-b1,Iceland trip,Miami trip,sub-49,0.0,0.0,0.0,1.0,0.5007869884575026 0.5047219307450157 0.5086568730325288 0.5102308499475341 0.5110178384050367 0.5141657922350472 0.5173137460650578 0.5212486883525709 0.5236096537250787 0.5243966421825813 0.5243966421825813 0.5243966421825813 0.5243966421825813 0.5243966421825813 0.5243966421825813 0.5243966421825813 0.5243966421825813 0.5243966421825813 0.5212486883525709 0.5188877229800629 0.5157397691500525 0.5094438614900315 0.506295907660021 0.5007869884575026 0.493704092339979 0.4842602308499475 0.4700944386149003 0.4763903462749213 0.5 0.5495802728226653 0.6038824763903463 0.7479013641133263 0.8092864637985309 0.8399790136411334 0.8541448058761806 0.8620146904512068 0.8667366211962225 0.8714585519412382 0.8801154249737672 0.8856243441762854 0.8864113326337881 0.8864113326337881 0.8864113326337881 0.8864113326337881 0.8864113326337881 0.8864113326337881 0.8864113326337881 0.8864113326337881 0.8864113326337881 0.8832633788037776 0.8753934942287513 0.8266002098635887 0.7644281217208814 0.6747114375655824 0.5637460650577125 0.4409758656873032 0.2883001049317944 0.26469045120671564 0.24737670514165794 0.2324239244491081 0.21353620146904514 0.19307450157397693 0.1883525708289612 0.17261280167890872 0.15372507869884575 0.13719832109129068 0.13168940188877232,0.7324239244491081 0.7166841552990556 0.6998950682056664 0.6841552990556139 0.6673662119622246 0.6253934942287513 0.6065057712486883 0.5928646379853095 0.5865687303252886 0.584470094438615 0.584470094438615 0.584470094438615 0.5834207764952781 0.5802728226652676 0.5708289611752361 0.559286463798531 0.5225603357817419 0.5005246589716684 0.4774396642182581 0.4616998950682056 0.4501573976915005 0.42707240293809023 0.4176285414480587 0.4050367261280168 0.3924449108079748 0.3777544596012592 0.3378803777544596 0.3137460650577125 0.29171038824763906 0.2686253934942288 0.2507869884575026 0.21406086044071349 0.1951731374606505 0.18048268625393493 0.17208814270724027 0.16474291710388245 0.1542497376705142 0.14585519412381953 0.13746065057712487 0.1332633788037776 0.1332633788037776 0.1332633788037776 0.1332633788037776 0.1332633788037776 0.1332633788037776 0.1332633788037776 0.1332633788037776 0.1332633788037776 0.1332633788037776 0.1332633788037776 0.1332633788037776 0.1332633788037776 0.1406086044071354 0.1500524658971668 0.15529905561385104 0.15739769150052466 0.15739769150052466 0.15634837355718778 0.15634837355718778 0.15634837355718778 0.15320041972717735 0.14690451206715638 0.14585519412381953 0.14375655823714584 0.14165792235047214 0.14165792235047214 0.13955928646379856,0.0 20.0 40.0 60.0 80.0 100.0 120.0 140.0 160.0 180.0 200.0 220.0 240.0 260.0 280.0 300.0 320.0 340.0 360.0 380.0 400.0 420.0 440.0 460.0 480.0 500.0 520.0 540.0 560.0 580.0 600.0 620.0 640.0 660.0 680.0 700.0 720.0 740.0 760.0 780.0 800.0 820.0 840.0 860.0 880.0 900.0 920.0 940.0 960.0 980.0 1000.0 1020.0 1040.0 1060.0 1080.0 1100.0 1120.0 1140.0 1160.0 1180.0 1200.0 1220.0 1240.0 1260.0 1280.0 1300.0 1320.0
cb_01,22.0,enc_trial,stim,response,Miami trip,1156.1000000089407,enc_trial,1.0,22.0,t_s_21_2,travel_shared,fold-b,umbrella,1.0,competing,far,paired,t_s_21_2.jpg,,travel-b1,Iceland trip,Miami trip,sub-49,0.0,0.0,1.0,1.0,0.5023609653725079 0.5039349422875131 0.5070828961175237 0.5094438614900315 0.5133788037775446 0.5157397691500525 0.5188877229800629 0.5188877229800629 0.5188877229800629 0.5196747114375656 0.5204616998950682 0.5228226652675759 0.5243966421825813 0.5267576075550892 0.529118572927597 0.5306925498426023 0.5338405036726128 0.5346274921301154 0.5362014690451207 0.5369884575026233 0.5377754459601259 0.5385624344176285 0.5393494228751312 0.5440713536201469 0.5480062959076599 0.5503672612801679 0.5519412381951732 0.5519412381951732 0.5480062959076599 0.5393494228751312 0.5299055613850997 0.5031479538300105 0.483473242392445 0.4567156348373557 0.4338929695697796 0.4079223504721931 0.3748688352570829 0.3646379853095488 0.3575550891920252 0.35598111227701995 0.3607030430220357 0.4205141657922351 0.464585519412382 0.5299055613850997 0.6125393494228751 0.69202518363064 0.8022035676810073 0.8171563483735572 0.8210912906610703 0.8210912906610703 0.8226652675760756 0.8328961175236097 0.8423399790136412 0.8486358866736622 0.8502098635886675,0.8247639034627492 0.8216159496327387 0.8174186778593914 0.8121720881427072 0.8058761804826863 0.8027282266526757 0.7985309548793285 0.7985309548793285 0.7985309548793285 0.7974816369359916 0.7953830010493179 0.7911857292759706 0.7880377754459601 0.7848898216159497 0.7806925498426023 0.7775445960125918 0.7712486883525709 0.7691500524658972 0.7660020986358866 0.763903462749213 0.7628541448058762 0.7586568730325288 0.7523609653725079 0.7366211962224554 0.7208814270724029 0.7051416579223504 0.6558237145855195 0.6190975865687303 0.5802728226652676 0.5393494228751312 0.5110178384050368 0.478488982161595 0.4648478488982162 0.4438614900314796 0.4312696747114375 0.4197271773347324 0.3955928646379853 0.3798530954879329 0.3620146904512067 0.3410283315844701 0.3158447009443861 0.23819517313746064 0.20881427072402936 0.1773347324239245 0.15844700944386148 0.142707240293809 0.13431269674711432 0.13431269674711432 0.13641133263378802 0.13955928646379856 0.14165792235047214 0.14165792235047214 0.14165792235047214 0.14375655823714584 0.14480587618048268,33.29999999998836 53.29999999998836 73.29999999998836 93.29999999998836 113.29999999998836 133.29999999998836 153.2999999999884 173.29999999998836 193.29999999998842 213.29999999998842 233.29999999998842 253.29999999998842 273.2999999999884 293.29999999998836 313.29999999998836 333.29999999998836 353.2999999999884 373.2999999999884 393.2999999999884 413.2999999999884 433.2999999999884 453.2999999999884 473.2999999999884 493.2999999999884 513.2999999999884 533.2999999999884 553.2999999999884 573.2999999999884 593.2999999999884 613.2999999999884 633.2999999999884 653.2999999999884 673.2999999999884 693.2999999999884 713.2999999999884 733.2999999999884 753.2999999999884 773.2999999999884 793.2999999999884 813.2999999999884 833.2999999999884 853.2999999999884 873.2999999999884 893.2999999999884 913.2999999999884 933.2999999999884 953.2999999999884 973.2999999999884 993.2999999999884 1013.2999999999884 1033.2999999999884 1053.2999999999884 1073.2999999999884 1093.2999999999884 1113.2999999999884
cb_01,23.0,enc_trial,stim,response,Miami trip,1363.0000000089349,enc_trial,1.0,23.0,t_s_12_2,travel_shared,fold-b,clear toiletry bag,1.0,competing,far,paired,t_s_12_2.jpg,,travel-b1,Iceland trip,Miami trip,sub-49,1.0,1.0,0.0,0.0,0.5070828961175237 0.5188877229800629 0.529118572927597 0.5393494228751312 0.5503672612801679 0.5613850996852046 0.5763378803777545 0.5826337880377754 0.5865687303252886 0.5889296956977964 0.5912906610703043 0.5920776495278071 0.5936516264428122 0.5967995802728226 0.5999475341028332 0.6046694648478489 0.6070304302203567 0.6070304302203567 0.6070304302203567 0.6070304302203567 0.6062434417628542 0.6015215110178384 0.5975865687303252 0.5967995802728226 0.5991605456453305 0.608604407135362 0.6534627492130115 0.6849422875131165 0.7069779643231899 0.7156348373557188 0.7211437565582371 0.7274396642182581 0.729800629590766 0.7305876180482687 0.7313746065057712 0.7313746065057712 0.7360965372507869 0.7408184679958028 0.7479013641133263 0.75498426023085 0.7612801678908709 0.7730849947534103 0.7785939139559286 0.7825288562434417 0.7856768100734522 0.7896117523609654 0.7966946484784889 0.7990556138509969 0.7998426023084995 0.8014165792235047 0.8014165792235047 0.8014165792235047 0.8014165792235047 0.80299055613851 0.8037775445960126 0.8053515215110179 0.8108604407135362 0.8147953830010494 0.8171563483735572 0.8195173137460652 0.8195173137460652 0.8234522560335782 0.8258132214060862 0.8273871983210913 0.8281741867785941 0.8289611752360966 0.8297481636935993,0.7932843651626442 0.782791185729276 0.7712486883525709 0.7586568730325288 0.74501573976915 0.7313746065057712 0.7093389296956978 0.6998950682056664 0.6935991605456453 0.6894018887722979 0.6852046169989507 0.6768100734522561 0.6663168940188877 0.6505771248688352 0.6337880377754459 0.6096537250786989 0.5487932843651626 0.5225603357817419 0.5036726128016789 0.4837355718782791 0.4575026232948584 0.41133263378803775 0.3966421825813221 0.3830010493179433 0.3693599160545645 0.3525708289611752 0.30954879328436513 0.2864637985309548 0.2717733473242392 0.2675760755508919 0.2623294858342078 0.23819517313746064 0.2277019937040924 0.2214060860440713 0.21406086044071349 0.2077649527806925 0.19412381951731367 0.1909758656873033 0.18992654774396645 0.18992654774396645 0.18992654774396645 0.18363064008394547 0.18258132214060865 0.18258132214060865 0.18258132214060865 0.18258132214060865 0.18467995802728232 0.1867785939139559 0.18992654774396645 0.1920251836306401 0.1920251836306401 0.1909758656873033 0.1909758656873033 0.18782791185729275 0.18467995802728232 0.18153200419727167 0.1752360965372508 0.1752360965372508 0.1752360965372508 0.1752360965372508 0.1752360965372508 0.1752360965372508 0.1752360965372508 0.1752360965372508 0.17628541448058765 0.17628541448058765 0.1773347324239245,0.0 20.0 40.0 60.0 80.0 100.0 120.0 140.0 160.0 180.0 200.0 220.0 240.0 260.0 280.0 300.0 320.0 340.0 360.0 380.0 400.0 420.0 440.0 460.0 480.0 500.0 520.0 540.0 560.0 580.0 600.0 620.0 640.0 660.0 680.0 700.0 720.0 740.0 760.0 780.0 800.0 820.0 840.0 860.0 880.0 900.0 920.0 940.0 960.0 980.0 1000.0 1020.0 1040.0 1060.0 1080.0 1100.0 1120.0 1140.0 1160.0 1180.0 1200.0 1220.0 1240.0 1260.0 1280.0 1300.0 1320.0
cb_01,24.0,enc_trial,stim,response,Iceland trip,1561.7999999970193,enc_trial,1.0,24.0,t_s_06_1,travel_shared,fold-b,luggage,1.0,competing,far,paired,t_s_06_1.jpg,,travel-b1,Iceland trip,Miami trip,sub-49,1.0,1.0,0.0,0.0,0.5110178384050367 0.5204616998950682 0.531479538300105 0.5409233997901364 0.5480062959076599 0.5511542497376705 0.5550891920251836 0.5574501573976915 0.5598111227701994 0.5637460650577125 0.5668940188877231 0.5763378803777545 0.5810598111227702 0.585781741867786 0.585781741867786 0.585781741867786 0.585781741867786 0.585781741867786 0.5865687303252886 0.6062434417628542 0.6125393494228751 0.6141133263378804 0.6156873032528856 0.6156873032528856 0.6164742917103883 0.6164742917103883 0.6204092339979014 0.621196222455404 0.6243441762854145 0.6322140608604407 0.6408709338929696 0.6636935991605456 0.6786463798530955 0.69202518363064 0.7046169989506821 0.7140608604407135 0.7400314795383001 0.7541972717733473 0.7612801678908709 0.7636411332633788 0.7636411332633788 0.7408184679958028 0.7030430220356768 0.6511017838405037 0.5818467995802729 0.5094438614900315 0.3622770199370409 0.2906610703043022 0.21117523609653727 0.14585519412381953 0.08840503672612804 0.0396117523609654 0.03410283315844704 0.03410283315844704 0.03410283315844704 0.038824763903462775 0.0663693599160546 0.07502623294858345 0.07817418677859395 0.08053515215110181 0.08289611752360967 0.08525708289611755 0.08604407135362017 0.0868310598111228 0.08761804826862543 0.08761804826862543 0.08761804826862543 0.08761804826862543 0.08761804826862543 0.08761804826862543 0.08761804826862543 0.08761804826862543 0.08761804826862543 0.08761804826862543 0.08761804826862543 0.08761804826862543 0.08761804826862543,0.8069254984260231 0.8037775445960126 0.7985309548793285 0.7922350472193075 0.7848898216159497 0.7796432318992654 0.7712486883525709 0.7681007345225603 0.7660020986358866 0.7628541448058762 0.7586568730325288 0.7544596012591815 0.7565582371458552 0.7576075550891921 0.7576075550891921 0.7576075550891921 0.7576075550891921 0.7576075550891921 0.7586568730325288 0.7544596012591815 0.7513116474291709 0.7565582371458552 0.7586568730325288 0.7586568730325288 0.7597061909758657 0.7607555089192025 0.7513116474291709 0.7366211962224554 0.7145855194123821 0.6768100734522561 0.621196222455404 0.5047219307450157 0.4291710388247639 0.3473242392444911 0.2780692549842603 0.2277019937040924 0.1332633788037776 0.09548793284365163 0.07030430220356765 0.05561385099685201 0.04512067156348376 0.02098635886673661 0.011542497376705095 0.011542497376705095 0.011542497376705095 0.011542497376705095 0.011542497376705095 0.011542497376705095 0.01364113326337879 0.01364113326337879 0.012591815320041944 0.011542497376705095 0.011542497376705095 0.011542497376705095 0.014690451206715638 0.030430220356768126 0.09758656873032534 0.12591815320041974 0.14165792235047214 0.1500524658971668 0.15529905561385104 0.16264428121720886 0.1636935991605456 0.1636935991605456 0.1636935991605456 0.1636935991605456 0.1636935991605456 0.1636935991605456 0.1636935991605456 0.1636935991605456 0.1636935991605456 0.1636935991605456 0.1636935991605456 0.1636935991605456 0.1636935991605456 0.1636935991605456 0.16474291710388245,0.0 20.0 40.0 60.0 80.0 100.0 120.0 140.0 160.0 180.0 200.0 220.0 240.0 260.0 280.0 300.0 320.0 340.0 360.0 380.0 400.0 420.0 440.0 460.0 480.0 500.0 520.0 540.0 560.0 580.0 600.0 620.0 640.0 660.0 680.0 700.0 720.0 740.0 760.0 780.0 800.0 820.0 840.0 860.0 880.0 900.0 920.0 940.0 960.0 980.0 1000.0 1020.0 1040.0 1060.0 1080.0 1100.0 1120.0 1140.0 1160.0 1180.0 1200.0 1220.0 1240.0 1260.0 1280.0 1300.0 1320.0 1340.0 1360.0 1380.0 1400.0 1420.0 1440.0 1460.0 1480.0 1500.0 1520.0
cb_01,25.0,enc_trial,stim,response,Iceland trip,1184.0000000089349,enc_trial,1.0,25.0,t_s_18_1,travel_shared,fold-a,first aid kit,1.0,competing,close,paired,t_s_18_1.jpg,,travel-b1,Iceland trip,Miami trip,sub-49,1.0,1.0,1.0,1.0,0.5495802728226653 0.5826337880377754 0.6172612801678908 0.6455928646379853 0.6636935991605456 0.6762854144805877 0.6873032528856243 0.6873032528856243 0.6880902413431269 0.6880902413431269 0.6880902413431269 0.6880902413431269 0.6880902413431269 0.6880902413431269 0.6880902413431269 0.6880902413431269 0.6880902413431269 0.6880902413431269 0.6880902413431269 0.6880902413431269 0.6865162644281217 0.6849422875131165 0.6849422875131165 0.6825813221406086 0.6786463798530955 0.6778593913955928 0.6849422875131165 0.6935991605456453 0.7093389296956978 0.7187827911857293 0.723504721930745 0.7392444910807975 0.75498426023085 0.777806925498426 0.7943336831059811 0.8037775445960126 0.8210912906610703 0.8297481636935993 0.834470094438615 0.8368310598111228 0.8376180482686255 0.8297481636935993 0.7990556138509969 0.7353095487932844 0.6274921301154249 0.5023609653725079 0.2749213011542497 0.20015739769150054 0.17261280167890872 0.16631689401888775 0.16631689401888775 0.16080797481636938 0.14742917103882475 0.1348373557187828 0.13168940188877232,0.7492130115424973 0.7124868835257083 0.6705141657922351 0.6369359916054564 0.6159496327387198 0.608604407135362 0.608604407135362 0.6149003147953829 0.6169989506820567 0.6169989506820567 0.6169989506820567 0.6169989506820567 0.6169989506820567 0.6169989506820567 0.6169989506820567 0.6169989506820567 0.6169989506820567 0.6169989506820567 0.6201469045120671 0.6232948583420777 0.6253934942287513 0.6285414480587619 0.6285414480587619 0.627492130115425 0.6264428121720882 0.6222455403987408 0.5928646379853095 0.5634837355718783 0.5131164742917104 0.453305351521511 0.4060860440713536 0.2791185729275969 0.2277019937040924 0.1888772298006296 0.1657922350472193 0.1521511017838405 0.1154249737670514 0.09968520461699892 0.09338929695697797 0.0923399790136411 0.0923399790136411 0.0965372507869885 0.11017838405036727 0.1290661070304302 0.15110178384050366 0.17208814270724027 0.20566631689401893 0.2119622245540399 0.2119622245540399 0.20881427072402936 0.20881427072402936 0.2077649527806925 0.2077649527806925 0.2077649527806925 0.2077649527806925,0.0 20.0 40.0 60.0 80.0 100.0 120.0 140.0 160.0 180.0 200.0 220.0 240.0 260.0 280.0 300.0 320.0 340.0 360.0 380.0 400.0 420.0 440.0 460.0 480.0 500.0 520.0 540.0 560.0 580.0 600.0 620.0 640.0 660.0 680.0 700.0 720.0 740.0 760.0 780.0 800.0 820.0 840.0 860.0 880.0 900.0 920.0 940.0 960.0 980.0 1000.0 1020.0 1040.0 1060.0 1080.0
cb_01,26.0,enc_trial,stim,response,Miami trip,1516.0000000059665,enc_trial,1.0,26.0,t_m_01_2,travel_Miami,fold-a,sandals,1.0,unique,close,paired,t_m_01_2.jpg,Miami,travel-b1,Iceland trip,Miami trip,sub-49,1.0,1.0,1.0,1.0,0.4952780692549842 0.4960650577124869 0.4976390346274922 0.5 0.5015739769150053 0.5047219307450157 0.5125918153200419 0.5236096537250787 0.5440713536201469 0.5661070304302204 0.5889296956977964 0.6432318992654774 0.6652675760755509 0.6904512067156349 0.7101259181532004 0.7313746065057712 0.771511017838405 0.7927597061909758 0.8171563483735572 0.8454879328436516 0.8706715634837356 0.8911332633788038 0.8990031479538301 0.9060860440713536 0.9147429171038826 0.920251836306401 0.926547743966422 0.9273347324239244 0.9281217208814272 0.9281217208814272 0.9281217208814272 0.9281217208814272 0.9273347324239244 0.9273347324239244 0.9273347324239244 0.9273347324239244 0.9273347324239244 0.926547743966422 0.9257607555089192 0.9249737670514168 0.9249737670514168 0.9249737670514168 0.9249737670514168 0.9249737670514168 0.9233997901364114 0.9226128016789088 0.9210388247639036 0.9210388247639036 0.920251836306401 0.9194648478488984 0.9178908709338928 0.9178908709338928,0.8100734522560336 0.8037775445960126 0.7974816369359916 0.789087093389297 0.7775445960125918 0.7607555089192025 0.7072402938090241 0.6663168940188877 0.6065057712486883 0.5540398740818469 0.5057712486883525 0.39769150052465896 0.3504721930745016 0.2906610703043022 0.2360965372507869 0.1867785939139559 0.11962224554039867 0.09758656873032534 0.0828961175236097 0.07240293809024134 0.0692549842602308 0.07974816369359916 0.08394543546694644 0.09024134312696752 0.09758656873032534 0.10283315844700948 0.10912906610703044 0.11017838405036727 0.11122770199370413 0.11122770199370413 0.11122770199370413 0.11332633788037773 0.1154249737670514 0.1154249737670514 0.1154249737670514 0.1154249737670514 0.1154249737670514 0.11647429171038826 0.11647429171038826 0.1175236096537251 0.1175236096537251 0.1175236096537251 0.1175236096537251 0.1175236096537251 0.11857292759706195 0.11962224554039867 0.12067156348373552 0.12067156348373552 0.12067156348373552 0.12172088142707238 0.12277019937040926 0.12381951731374607,417.1000000000058 437.1000000000058 457.1000000000058 477.1000000000058 497.1000000000058 517.1000000000058 537.1000000000058 557.1000000000058 577.1000000000057 597.1000000000057 617.1000000000057 637.1000000000057 657.1000000000057 677.1000000000057 697.1000000000058 717.1000000000058 737.1000000000058 757.1000000000058 777.1000000000058 797.1000000000058 817.1000000000058 837.1000000000058 857.1000000000058 877.1000000000058 897.1000000000058 917.1000000000058 937.1000000000058 957.1000000000058 977.1000000000058 997.1000000000058 1017.1000000000058 1037.1000000000058 1057.1000000000058 1077.1000000000058 1097.1000000000058 1117.1000000000058 1137.1000000000058 1157.1000000000058 1177.1000000000058 1197.1000000000058 1217.1000000000058 1237.1000000000058 1257.1000000000058 1277.1000000000058 1297.1000000000058 1317.1000000000058 1337.1000000000058 1357.1000000000058 1377.1000000000058 1397.1000000000058 1417.1000000000058 1437.1000000000058
cb_01,27.0,enc_trial,stim,response,Iceland trip,2065.100000005972,enc_trial,1.0,27.0,t_i_19_2,travel_Iceland,fold-b,rope,1.0,unique,far,paired,t_i_19_2.jpg,Iceland,travel-b1,Iceland trip,Miami trip,sub-49,1.0,1.0,1.0,1.0,0.5118048268625394 0.5118048268625394 0.5118048268625394 0.5118048268625394 0.5118048268625394 0.5118048268625394 0.5125918153200419 0.5125918153200419 0.5125918153200419 0.5110178384050367 0.5086568730325288 0.5007869884575026 0.4929171038824764 0.4858342077649528 0.4803252885624344 0.4763903462749213 0.4693074501573977 0.4661594963273872 0.4614375655823715 0.4567156348373557 0.45199370409234 0.4354669464847849 0.4228751311647429 0.4094963273871983 0.3929695697796433 0.3740818467995803 0.3213536201469045 0.28436516264428124 0.2434417628541448 0.20724029380902406 0.17812172088142708 0.14349422875131168 0.13641133263378805 0.1309024134312697 0.1277544596012592 0.12460650577124872 0.12145855194123822 0.1206715634837356 0.12460650577124872 0.13798530954879332 0.16080797481636938 0.20330535152151105 0.22140608604407136 0.2418677859391396 0.2607555089192025 0.2725603357817419 0.3071878279118573 0.349685204616999 0.4118572927597062 0.4929171038824764 0.5834207764952779 0.7888247639034627 0.8643756558237147 0.9037250786988458 0.9131689401888772 0.9131689401888772 0.9108079748163694 0.9084470094438616 0.9005771248688353 0.8753934942287513 0.8415529905561385 0.7565582371458551 0.6802203567681008 0.5975865687303252 0.5070828961175237 0.4252360965372508 0.2922350472193075 0.2568205666316894 0.2410807974816369 0.2387198321091291 0.2387198321091291 0.2339979013641133 0.2253410283315845 0.21747114375655827 0.21432318992654767 0.21432318992654767 0.21038824763903466 0.2040923399790137 0.20015739769150054 0.199370409233998 0.1985834207764953 0.1647429171038825 0.13168940188877232 0.11201469045120674 0.10807974816369363,0.8090241343126967 0.8058761804826863 0.8037775445960126 0.8006295907660022 0.7985309548793285 0.7953830010493179 0.789087093389297 0.7796432318992654 0.7670514165792235 0.7534102833158447 0.7387198321091291 0.6988457502623295 0.6705141657922351 0.646379853095488 0.6306400839454355 0.6201469045120671 0.6033578174186778 0.5949632738719832 0.5876180482686254 0.5802728226652676 0.5687303252885625 0.5351521511017838 0.5099685204616999 0.4826862539349422 0.4543546694648478 0.42287513116474296 0.35362014690451204 0.3158447009443861 0.2812172088142707 0.2539349422875131 0.2329485834207765 0.2077649527806925 0.19937040923399785 0.19412381951731367 0.1888772298006296 0.18572927597061906 0.17628541448058765 0.16998950682056668 0.16159496327387202 0.1521511017838405 0.14375655823714584 0.1332633788037776 0.1290661070304302 0.12591815320041974 0.12486883525708292 0.12277019937040926 0.11437565582371455 0.11017838405036727 0.10703043022035674 0.1059811122770199 0.1059811122770199 0.1059811122770199 0.1059811122770199 0.1059811122770199 0.1080797481636936 0.1080797481636936 0.10912906610703044 0.11017838405036727 0.11017838405036727 0.11122770199370413 0.11227701993704098 0.11962224554039867 0.12801678908709335 0.13955928646379856 0.14900314795382996 0.1542497376705142 0.15844700944386148 0.15844700944386148 0.15844700944386148 0.15844700944386148 0.15844700944386148 0.15739769150052466 0.15739769150052466 0.15739769150052466 0.15739769150052466 0.15739769150052466 0.15634837355718778 0.15634837355718778 0.15634837355718778 0.15634837355718778 0.15634837355718778 0.15110178384050366 0.15110178384050366 0.1521511017838405 0.15320041972717735,333.70000000001164 353.7000000000116 373.7000000000117 393.7000000000117 413.7000000000117 433.7000000000117 453.7000000000117 473.7000000000117 493.7000000000117 513.7000000000116 533.7000000000116 553.7000000000116 573.7000000000116 593.7000000000116 613.7000000000116 633.7000000000116 653.7000000000116 673.7000000000116 693.7000000000116 713.7000000000116 733.7000000000116 753.7000000000116 773.7000000000116 793.7000000000116 813.7000000000116 833.7000000000116 853.7000000000116 873.7000000000116 893.7000000000116 913.7000000000116 933.7000000000116 953.7000000000116 973.7000000000116 993.7000000000116 1013.7000000000116 1033.7000000000116 1053.7000000000116 1073.7000000000116 1093.7000000000116 1113.7000000000116 1133.7000000000114 1153.7000000000114 1173.7000000000114 1193.7000000000114 1213.7000000000114 1233.7000000000114 1253.7000000000114 1273.7000000000114 1293.7000000000114 1313.7000000000114 1333.7000000000114 1353.7000000000114 1373.7000000000114 1393.7000000000116 1413.7000000000116 1433.7000000000116 1453.7000000000116 1473.7000000000116 1493.7000000000116 1513.7000000000116 1533.7000000000116 1553.7000000000116 1573.7000000000116 1593.7000000000116 1613.7000000000116 1633.7000000000116 1653.7000000000116 1673.7000000000116 1693.7000000000116 1713.7000000000116 1733.7000000000116 1753.7000000000116 1773.7000000000116 1793.7000000000116 1813.7000000000119 1833.7000000000119 1853.7000000000119 1873.7000000000119 1893.7000000000119 1913.7000000000119 1933.7000000000119 1953.7000000000119 1973.7000000000119 1993.7000000000119 2013.7000000000119
cb_01,28.0,enc_trial,stim,response,Iceland trip,1399.2000000029807,enc_trial,1.0,28.0,t_s_13_1,travel_shared,fold-c-single,contact lens case,1.0,competing,,single,t_s_13_1.jpg,,travel-b1,Iceland trip,Miami trip,sub-49,1.0,,1.0,,0.5023609653725079 0.5023609653725079 0.5023609653725079 0.5023609653725079 0.5023609653725079 0.5023609653725079 0.5023609653725079 0.5031479538300105 0.5031479538300105 0.5031479538300105 0.5031479538300105 0.5031479538300105 0.5031479538300105 0.5031479538300105 0.5031479538300105 0.5031479538300105 0.4992130115424974 0.4984260230849947 0.4984260230849947 0.5023609653725079 0.5086568730325288 0.529118572927597 0.5385624344176285 0.5519412381951732 0.5645330535152151 0.5739769150052466 0.5802728226652676 0.5786988457502623 0.5716159496327388 0.5550891920251836 0.5196747114375656 0.42444910807974817 0.3717208814270725 0.3252885624344176 0.2733473242392445 0.2269150052465897 0.167890870933893 0.14742917103882475 0.13326337880377756 0.12224554039874085 0.10965372507869887 0.09548793284365163 0.09548793284365163 0.09548793284365163 0.09548793284365163 0.09548793284365163 0.09548793284365163 0.09548793284365163 0.09548793284365163 0.09548793284365163 0.09548793284365163 0.10178384050367263 0.10650577124868836 0.11122770199370413 0.11673662119622248 0.11988457502623295 0.12224554039874085 0.12303252885624348,0.8027282266526757 0.7974816369359916 0.7943336831059811 0.789087093389297 0.7838405036726128 0.7785939139559286 0.7670514165792235 0.7597061909758657 0.7439664218258133 0.7292759706190977 0.7124868835257083 0.6621196222455403 0.6327387198321089 0.6002098635886673 0.5781741867785939 0.559286463798531 0.5225603357817419 0.5078698845750262 0.4900314795383001 0.4732423924449109 0.4543546694648478 0.4102833158447009 0.38824763903462745 0.35781741867785943 0.33473242392444913 0.3179433368310598 0.2948583420776495 0.2854144805876181 0.27282266526757604 0.25498426023085 0.2287513116474291 0.16474291710388245 0.13955928646379856 0.12381951731374607 0.1154249737670514 0.1154249737670514 0.1154249737670514 0.1154249737670514 0.1154249737670514 0.1154249737670514 0.1154249737670514 0.1154249737670514 0.1154249737670514 0.1154249737670514 0.1154249737670514 0.1154249737670514 0.1154249737670514 0.1154249737670514 0.1154249737670514 0.1154249737670514 0.1154249737670514 0.12067156348373552 0.12172088142707238 0.12381951731374607 0.12591815320041974 0.1269674711437565 0.12801678908709335 0.1290661070304302,233.5 253.5 273.5 293.5 313.5 333.5 353.5 373.5 393.5 413.5 433.5 453.5 473.5 493.5 513.5 533.5 553.5 573.5 593.5 613.5 633.5 653.5 673.5 693.5 713.5 733.5 753.5 773.5 793.5 813.5 833.5 853.5 873.5 893.5 913.5 933.5 953.5 973.5 993.5 1013.5 1033.5 1053.5 1073.5 1093.5 1113.5 1133.5 1153.5 1173.5 1193.5 1213.5 1233.5 1253.5 1273.5 1293.5 1313.5 1333.5 1353.5 1373.5
cb_01,29.0,enc_trial,stim,response,Iceland trip,1038.0999999970081,enc_trial,1.0,29.0,t_i_15_1,travel_Iceland,fold-a,compass,1.0,unique,close,paired,t_i_15_1.jpg,Iceland,travel-b1,Iceland trip,Miami trip,sub-49,1.0,1.0,1.0,1.0,0.5023609653725079 0.5023609653725079 0.5015739769150053 0.5015739769150053 0.5015739769150053 0.5015739769150053 0.5 0.4992130115424974 0.4984260230849947 0.4984260230849947 0.4976390346274922 0.4960650577124869 0.4944910807974817 0.493704092339979 0.4929171038824764 0.4921301154249738 0.4897691500524659 0.48740818467995795 0.4842602308499475 0.481112277019937 0.4779643231899266 0.4700944386149003 0.4661594963273872 0.4630115424973767 0.4598635886673662 0.4575026232948584 0.4543546694648479 0.45199370409234 0.4488457502623295 0.44176285414480587 0.4323189926547744 0.40320041972717735 0.3882476390346275 0.3693599160545645 0.349685204616999 0.3276495278069255 0.2662644281217209 0.2269150052465897 0.19622245540398744 0.17103882476390347 0.15372507869884575 0.13247639034627495 0.12539349422875135 0.11909758656873035 0.11516264428121725 0.11280167890870935 0.11201469045120674,0.7943336831059811 0.7911857292759706 0.789087093389297 0.7869884575026234 0.7848898216159497 0.7838405036726128 0.7796432318992654 0.776495278069255 0.7754459601259182 0.7743966421825813 0.7733473242392445 0.7670514165792235 0.7628541448058762 0.7597061909758657 0.7565582371458552 0.7544596012591815 0.7387198321091291 0.7271773347324241 0.7166841552990556 0.7030430220356768 0.6894018887722979 0.6600209863588667 0.6432318992654774 0.627492130115425 0.6128016789087094 0.6002098635886673 0.5781741867785939 0.5687303252885625 0.5550891920251837 0.5372507869884575 0.5120671563483736 0.453305351521511 0.4281217208814271 0.3955928646379853 0.3630640083945436 0.3315844700944386 0.2602308499475341 0.2256033578174187 0.20356768100734526 0.18153200419727167 0.1657922350472193 0.14585519412381953 0.13955928646379856 0.13536201469045114 0.1311647429171039 0.1290661070304302 0.1290661070304302,33.39999999999418 53.39999999999418 73.3999999999942 93.39999999999418 113.39999999999418 133.39999999999418 153.39999999999418 173.3999999999942 193.39999999999415 213.39999999999415 233.39999999999415 253.39999999999415 273.3999999999942 293.3999999999942 313.3999999999942 333.3999999999942 353.3999999999942 373.3999999999942 393.3999999999942 413.3999999999942 433.3999999999942 453.3999999999942 473.3999999999942 493.3999999999942 513.3999999999942 533.3999999999942 553.3999999999942 573.3999999999943 593.3999999999943 613.3999999999943 633.3999999999943 653.3999999999943 673.3999999999943 693.3999999999942 713.3999999999942 733.3999999999942 753.3999999999942 773.3999999999942 793.3999999999942 813.3999999999942 833.3999999999942 853.3999999999942 873.3999999999942 893.3999999999942 913.3999999999942 933.3999999999942 953.3999999999942
cb_01,30.0,enc_trial,stim,response,Iceland trip,1408.2999999970193,enc_trial,1.0,30.0,t_s_15_1,travel_shared,fold-c-single,luggage tag,1.0,competing,,single,t_s_15_1.jpg,,travel-b1,Iceland trip,Miami trip,sub-49,1.0,,1.0,,0.5110178384050367 0.5094438614900315 0.5086568730325288 0.5078698845750262 0.5078698845750262 0.5094438614900315 0.5212486883525709 0.5259706190975866 0.5267576075550892 0.5267576075550892 0.5267576075550892 0.5267576075550892 0.5267576075550892 0.5267576075550892 0.5267576075550892 0.5267576075550892 0.531479538300105 0.5354144805876181 0.5417103882476391 0.5448583420776495 0.5456453305351522 0.5456453305351522 0.5448583420776495 0.5424973767051416 0.5377754459601259 0.5299055613850997 0.5188877229800629 0.5149527806925498 0.5110178384050367 0.506295907660021 0.5015739769150053 0.4897691500524659 0.4897691500524659 0.5086568730325288 0.5330535152151101 0.554302203567681 0.5944386149003148 0.6219832109129066 0.6440188877229801 0.6495278069254984 0.6487408184679958 0.5661070304302204 0.4881951731374606 0.4134312696747113 0.3441762854144806 0.3095487932843652 0.3095487932843652 0.33630640083945434 0.3803777544596013 0.4260230849947534 0.4606505771248688 0.4685204616998951 0.43940188877229797 0.4016264428121721 0.3599160545645331 0.3166316894018888 0.23006295907660024 0.209601259181532 0.1985834207764953 0.1915005246589717 0.18441762854144808 0.16946484784889826 0.16316894018887726 0.15529905561385102 0.13955928646379856 0.11673662119622248 0.0939139559286464 0.09312696747114378,0.7911857292759706 0.7901364113326338 0.7880377754459601 0.7838405036726128 0.776495278069255 0.763903462749213 0.7513116474291709 0.7502623294858342 0.7502623294858342 0.7502623294858342 0.7502623294858342 0.7502623294858342 0.7502623294858342 0.7502623294858342 0.7502623294858342 0.7502623294858342 0.7555089192025184 0.7597061909758657 0.7649527806925498 0.7660020986358866 0.7681007345225603 0.770199370409234 0.770199370409234 0.770199370409234 0.7670514165792235 0.7586568730325288 0.7313746065057712 0.7019937040923401 0.6684155299055614 0.6295907660020986 0.5834207764952781 0.4763903462749213 0.4081846799580273 0.3242392444910808 0.25918153200419725 0.2256033578174187 0.1983210912906611 0.18782791185729275 0.18467995802728232 0.18467995802728232 0.18467995802728232 0.18467995802728232 0.1867785939139559 0.1888772298006296 0.18782791185729275 0.17418677859391396 0.15844700944386148 0.1500524658971668 0.13955928646379856 0.13641133263378802 0.13641133263378802 0.13641133263378802 0.1406086044071354 0.14585519412381953 0.14795383001049325 0.14795383001049325 0.14795383001049325 0.14795383001049325 0.14690451206715638 0.14585519412381953 0.14480587618048268 0.14375655823714584 0.14375655823714584 0.14375655823714584 0.14375655823714584 0.14375655823714584 0.14375655823714584 0.14375655823714584,0.0 20.0 40.0 60.0 80.0 100.0 120.0 140.0 160.0 180.0 200.0 220.0 240.0 260.0 280.0 300.0 320.0 340.0 360.0 380.0 400.0 420.0 440.0 460.0 480.0 500.0 520.0 540.0 560.0 580.0 600.0 620.0 640.0 660.0 680.0 700.0 720.0 740.0 760.0 780.0 800.0 820.0 840.0 860.0 880.0 900.0 920.0 940.0 960.0 980.0 1000.0 1020.0 1040.0 1060.0 1080.0 1100.0 1120.0 1140.0 1160.0 1180.0 1200.0 1220.0 1240.0 1260.0 1280.0 1300.0 1320.0 1340.0
cb_01,31.0,enc_trial,stim,response,Miami trip,1411.7999999970193,enc_trial,1.0,31.0,t_m_18_2,travel_Miami,fold-b,waterproof tote,1.0,unique,far,paired,t_m_18_2.jpg,Miami,travel-b1,Iceland trip,Miami trip,sub-49,1.0,1.0,1.0,1.0,0.5 0.5 0.5039349422875131 0.5086568730325288 0.5118048268625394 0.5118048268625394 0.5039349422875131 0.4960650577124869 0.4858342077649528 0.4716684155299056 0.4551416579223505 0.43310598111227705 0.42759706190975866 0.426810073452256 0.426810073452256 0.42759706190975866 0.4283840503672613 0.4283840503672613 0.4283840503672613 0.4283840503672613 0.4283840503672613 0.4283840503672613 0.4283840503672613 0.4283840503672613 0.4283840503672613 0.4283840503672613 0.4315320041972718 0.4315320041972718 0.4315320041972718 0.4291710388247639 0.4220881427072403 0.3701469045120672 0.34338929695697795 0.31584470094438616 0.2875131164742917 0.263903462749213 0.2465897166841553 0.24422875131164745 0.2402938090241344 0.2316369359916055 0.21825813221406087 0.19228751311647432 0.17890870933892972 0.1655299055613851 0.1584470094438615 0.1584470094438615 0.23714585519412384 0.34260230849947537 0.4913431269674711 0.6534627492130115 0.7817418677859391 0.8415529905561385 0.8423399790136412 0.8423399790136412 0.8423399790136412 0.8423399790136412 0.8423399790136412 0.8423399790136412 0.8423399790136412 0.8431269674711438 0.8439139559286465 0.8447009443861491,0.7974816369359916 0.7817418677859391 0.7618048268625394 0.7355718782791185 0.7051416579223504 0.6768100734522561 0.6096537250786989 0.5697796432318993 0.5320041972717733 0.5005246589716684 0.4732423924449109 0.4396642182581322 0.4312696747114375 0.4291710388247639 0.4302203567681008 0.4344176285414481 0.43651626442812175 0.43651626442812175 0.43651626442812175 0.43651626442812175 0.43651626442812175 0.43651626442812175 0.43651626442812175 0.43651626442812175 0.43651626442812175 0.4396642182581322 0.4480587618048269 0.4480587618048269 0.4459601259181532 0.44176285414480587 0.4333683105981112 0.38824763903462745 0.3525708289611752 0.30954879328436513 0.2612801678908709 0.21406086044071349 0.14480587618048268 0.13221406086044074 0.12172088142707238 0.10703043022035674 0.09548793284365163 0.0828961175236097 0.07869884575026231 0.07660020986358862 0.07660020986358862 0.07660020986358862 0.09548793284365163 0.09863588667366208 0.09863588667366208 0.09863588667366208 0.09863588667366208 0.12172088142707238 0.12277019937040926 0.12277019937040926 0.12277019937040926 0.12277019937040926 0.12277019937040926 0.12277019937040926 0.12277019937040926 0.12381951731374607 0.12381951731374607 0.12486883525708292,183.60000000000585 203.60000000000585 223.60000000000585 243.60000000000585 263.6000000000058 283.6000000000058 303.6000000000058 323.6000000000058 343.6000000000058 363.6000000000058 383.6000000000058 403.6000000000058 423.6000000000058 443.6000000000058 463.6000000000058 483.6000000000058 503.6000000000058 523.6000000000058 543.6000000000058 563.6000000000057 583.6000000000057 603.6000000000057 623.6000000000057 643.6000000000057 663.6000000000057 683.6000000000057 703.6000000000058 723.6000000000058 743.6000000000058 763.6000000000058 783.6000000000058 803.6000000000058 823.6000000000058 843.6000000000058 863.6000000000058 883.6000000000058 903.6000000000058 923.6000000000058 943.6000000000058 963.6000000000058 983.6000000000058 1003.6000000000058 1023.6000000000058 1043.6000000000058 1063.6000000000058 1083.6000000000058 1103.6000000000058 1123.6000000000058 1143.6000000000058 1163.6000000000058 1183.6000000000058 1203.6000000000058 1223.6000000000058 1243.6000000000058 1263.6000000000058 1283.6000000000058 1303.6000000000058 1323.6000000000058 1343.6000000000058 1363.6000000000058 1383.6000000000058 1403.6000000000058
