Current Spreadsheet,Trial Number,Display,Screen,Response Type,Response,Reaction Time,display,block,block_trial,stimulus_id,expected_goal,fold,stimulus_name,c_group,condition,within_block_dist,paired_status,stimulus_path,expected_location,block_split,respStim_1,respStim_2,sub_label,acc,both_enc_acc,assoc_stim1_acc,assoc_stim2_acc,x_pos,y_pos,time_trajectories
cb_03,1.0,enc_trial,stim,response,Iceland trip,1886.699999997014,enc_trial,1.0,1.0,t_i_20_1,travel_Iceland,fold-b-single,lantern,3.0,unique,,single,t_i_20_1.jpg,Iceland,travel-b1,Iceland trip,Miami trip,sub-84,1.0,,1.0,,0.5121875 0.5115625 0.5115625 0.5146875 0.5159375 0.5190625 0.5190625 0.5190625 0.5184375 0.5178125 0.5165625 0.5165625 0.5165625 0.5159375 0.5153125 0.5165625 0.5196875 0.5259375 0.5359375 0.5446875 0.5696875 0.5903125 0.6128125 0.6128125 0.6759375 0.6909375 0.6909375 0.6909375 0.6909375 0.6909375 0.6909375 0.6909375 0.6909375 0.6909375 0.6909375 0.6909375 0.7271875 0.7771875 0.7984375 0.8071875 0.8121875 0.8121875 0.8121875 0.8059375 0.7940625 0.7178125 0.6653125 0.6009375 0.5040625 0.4528125 0.3928125 0.3740625 0.3659375 0.3659375 0.3659375 0.3659375 0.3659375 0.3659375 0.3659375 0.3659375 0.3659375 0.3659375 0.3659375 0.3659375 0.3659375 0.2978125 0.2796875 0.2353125 0.2153125 0.1984375 0.1728125 0.1665625 0.1596875 0.1565625 0.1546875,0.8616666666666667 0.84 0.8241666666666667 0.7975 0.78 0.755 0.7466666666666666 0.7433333333333334 0.7408333333333333 0.74 0.7391666666666667 0.7391666666666667 0.7391666666666667 0.7383333333333333 0.7316666666666667 0.6916666666666667 0.6666666666666667 0.6383333333333333 0.6025 0.5783333333333334 0.5266666666666666 0.4933333333333333 0.4575 0.4575 0.3783333333333333 0.3641666666666665 0.3641666666666665 0.3641666666666665 0.3641666666666665 0.3641666666666665 0.3641666666666665 0.3641666666666665 0.3641666666666665 0.3641666666666665 0.3641666666666665 0.3641666666666665 0.31499999999999995 0.255 0.23 0.22 0.2125 0.21166666666666667 0.21166666666666667 0.21166666666666667 0.21416666666666664 0.2333333333333333 0.2433333333333333 0.25249999999999995 0.25749999999999995 0.26 0.25749999999999995 0.2516666666666667 0.2458333333333333 0.2458333333333333 0.2458333333333333 0.2458333333333333 0.2458333333333333 0.2458333333333333 0.2458333333333333 0.2458333333333333 0.2458333333333333 0.2458333333333333 0.2458333333333333 0.2458333333333333 0.2458333333333333 0.21833333333333327 0.21083333333333326 0.18999999999999995 0.1825 0.1775 0.1658333333333334 0.16249999999999998 0.15749999999999995 0.15583333333333338 0.15333333333333332,233.29999999998842 253.29999999998842 273.2999999999884 293.29999999998836 313.29999999998836 333.29999999998836 353.2999999999884 373.2999999999884 393.2999999999884 413.2999999999884 433.2999999999884 453.2999999999884 473.2999999999884 493.2999999999884 513.2999999999884 533.2999999999884 553.2999999999884 573.2999999999884 593.2999999999884 613.2999999999884 633.2999999999884 653.2999999999884 673.2999999999884 693.2999999999884 713.2999999999884 733.2999999999884 753.2999999999884 773.2999999999884 793.2999999999884 813.2999999999884 833.2999999999884 853.2999999999884 873.2999999999884 893.2999999999884 913.2999999999884 933.2999999999884 953.2999999999884 973.2999999999884 993.2999999999884 1013.2999999999884 1033.2999999999884 1053.2999999999884 1073.2999999999884 1093.2999999999884 1113.2999999999884 1133.2999999999886 1153.2999999999886 1173.2999999999886 1193.2999999999886 1213.2999999999886 1233.2999999999886 1253.2999999999886 1273.2999999999886 1293.2999999999886 1313.2999999999886 1333.2999999999886 1353.2999999999886 1373.2999999999886 1393.2999999999884 1413.2999999999884 1433.2999999999884 1453.2999999999884 1473.2999999999884 1493.2999999999884 1513.2999999999884 1533.2999999999884 1553.2999999999884 1573.2999999999884 1593.2999999999884 1613.2999999999884 1633.2999999999884 1653.2999999999884 1673.2999999999884 1693.2999999999884 1713.2999999999884
cb_03,2.0,enc_trial,stim,response,Iceland trip,2943.699999998499,enc_trial,1.0,2.0,t_s_24_1,travel_shared,fold-c,ear plugs,3.0,competing,far,paired,t_s_24_1.jpg,,travel-b1,Iceland trip,Miami trip,sub-84,0.0,0.0,0.0,0.0,0.4934375 0.4946875 0.5028125 0.5096875 0.5165625 0.5296875 0.5334375 0.5378125 0.5553125 0.5671875 0.5871875 0.6009375 0.6103125 0.6165625 0.6209375 0.6228125 0.6234375 0.6259375 0.6309375 0.6371875 0.6809375 0.7103125 0.7346875 0.7346875 0.7346875 0.7346875 0.7346875 0.7346875 0.7346875 0.7346875 0.7346875 0.7346875 0.7346875 0.7346875 0.7346875 0.7346875 0.7346875 0.7346875 0.7371875 0.7428125 0.7496875 0.7528125 0.7540625 0.7540625 0.7540625 0.7540625 0.7540625 0.7571875 0.7596875 0.7628125 0.7784375 0.7840625 0.7884375 0.7915625 0.7940625 0.7996875 0.8003125 0.8009375 0.8009375 0.8009375 0.7659375 0.6878125 0.6190625 0.5409375 0.4603125 0.2746875 0.2321875 0.2096875 0.2046875 0.2046875 0.2046875 0.2046875 0.2046875 0.2046875 0.2046875 0.2046875 0.2046875 0.2046875 0.2046875 0.2046875 0.1759375 0.1671875 0.1603125 0.1546875 0.1528125 0.1528125 0.1521875 0.1521875 0.1521875 0.1521875 0.1521875 0.1521875 0.1528125 0.1559375 0.1603125 0.1678125 0.1684375 0.1684375 0.1684375 0.1684375 0.1659375 0.1653125,0.8658333333333333 0.8433333333333333 0.7866666666666666 0.7433333333333334 0.7050000000000001 0.6516666666666666 0.6441666666666667 0.6366666666666667 0.6241666666666666 0.615 0.5974999999999999 0.5775 0.5641666666666667 0.5525 0.5441666666666667 0.5391666666666667 0.5391666666666667 0.5316666666666667 0.5216666666666667 0.5075000000000001 0.4016666666666666 0.3208333333333333 0.2466666666666667 0.2466666666666667 0.2466666666666667 0.2466666666666667 0.2466666666666667 0.2466666666666667 0.2466666666666667 0.2466666666666667 0.2466666666666667 0.2466666666666667 0.2466666666666667 0.2466666666666667 0.2466666666666667 0.2466666666666667 0.2466666666666667 0.2466666666666667 0.2433333333333333 0.235 0.22 0.2125 0.2075 0.205 0.20333333333333334 0.1975 0.1941666666666667 0.18833333333333327 0.18333333333333326 0.18000000000000005 0.1691666666666667 0.1658333333333334 0.16416666666666668 0.16249999999999998 0.16083333333333338 0.15666666666666662 0.15666666666666662 0.15583333333333338 0.15583333333333338 0.15500000000000005 0.15583333333333338 0.1725 0.18333333333333326 0.18666666666666665 0.1808333333333333 0.14500000000000002 0.13583333333333336 0.13083333333333336 0.13083333333333336 0.13083333333333336 0.13083333333333336 0.13083333333333336 0.13083333333333336 0.13083333333333336 0.13083333333333336 0.13083333333333336 0.13083333333333336 0.13083333333333336 0.13083333333333336 0.13083333333333336 0.13 0.1316666666666667 0.135 0.13749999999999996 0.1383333333333333 0.13916666666666666 0.13916666666666666 0.13916666666666666 0.13916666666666666 0.13916666666666666 0.13916666666666666 0.14 0.14 0.14083333333333334 0.14083333333333334 0.1433333333333333 0.1433333333333333 0.1433333333333333 0.1433333333333333 0.14166666666666672 0.14166666666666672 0.14166666666666672,416.5 436.5 456.5 476.5 496.5 516.5 536.5 556.5 576.5 596.5 616.5 636.5 656.5 676.5 696.5 716.5 736.5 756.5 776.5 796.5 816.5 836.5 856.5 876.5 896.5 916.5 936.5 956.5 976.5 996.5 1016.5 1036.5 1056.5 1076.5 1096.5 1116.5 1136.5 1156.5 1176.5 1196.5 1216.5 1236.5 1256.5 1276.5 1296.5 1316.5 1336.5 1356.5 1376.5 1396.5 1416.5 1436.5 1456.5 1476.5 1496.5 1516.5 1536.5 1556.5 1576.5 1596.5 1616.5 1636.5 1656.5 1676.5 1696.5 1716.5 1736.5 1756.5 1776.5 1796.5 1816.5 1836.5 1856.5 1876.5 1896.5 1916.5 1936.5 1956.5 1976.5 1996.5 2016.5 2036.5 2056.5 2076.5 2096.5 2116.5 2136.5 2156.5 2176.5 2196.5 2216.5 2236.5 2256.5 2276.5 2296.5 2316.5 2336.5 2356.5 2376.5 2396.5 2416.5 2436.5
cb_03,3.0,enc_trial,stim,response,Miami trip,1783.5,enc_trial,1.0,3.0,t_s_02_1,travel_shared,fold-b,water bottle,3.0,competing,close,paired,t_s_02_1.jpg,,travel-b1,Iceland trip,Miami trip,sub-84,0.0,0.0,1.0,1.0,0.4984375 0.4971875 0.4959375 0.4921875 0.4884375 0.4846875 0.4878125 0.4921875 0.4978125 0.5090625 0.5284375 0.5284375 0.5284375 0.5284375 0.5284375 0.5284375 0.5284375 0.5284375 0.5284375 0.5284375 0.5284375 0.5284375 0.5284375 0.5284375 0.5284375 0.5284375 0.5284375 0.5284375 0.5284375 0.5284375 0.5284375 0.5284375 0.5284375 0.5421875 0.5790625 0.6871875 0.7096875 0.7190625 0.7234375 0.7234375 0.7234375 0.7234375 0.7234375 0.7234375 0.7234375 0.7234375 0.7234375 0.7234375 0.7234375 0.7234375 0.7321875 0.7909375 0.8053125 0.8165625 0.8221875 0.8259375 0.8271875 0.8290625 0.8321875 0.8378125 0.8534375,0.8441666666666667 0.825 0.8058333333333334 0.7825 0.7433333333333334 0.6683333333333333 0.6033333333333333 0.5666666666666667 0.5358333333333334 0.495 0.4475 0.4475 0.4475 0.4475 0.4475 0.4475 0.4475 0.4475 0.4475 0.4475 0.4475 0.4475 0.4475 0.4475 0.4475 0.4475 0.4475 0.4475 0.4475 0.4475 0.4475 0.4475 0.4475 0.4350000000000001 0.395 0.2775 0.25249999999999995 0.2383333333333333 0.23 0.23 0.23 0.23 0.23 0.23 0.23 0.23 0.23 0.23 0.23 0.23 0.22333333333333336 0.18333333333333326 0.1775 0.1725 0.17000000000000004 0.16833333333333333 0.16833333333333333 0.16833333333333333 0.16833333333333333 0.16666666666666666 0.16666666666666666,400.0 420.0 440.0 460.0 480.0 500.0 520.0 540.0 560.0 580.0 600.0 620.0 640.0 660.0 680.0 700.0 720.0 740.0 760.0 780.0 800.0 820.0 840.0 860.0 880.0 900.0 920.0 940.0 960.0 980.0 1000.0 1020.0 1040.0 1060.0 1080.0 1100.0 1120.0 1140.0 1160.0 1180.0 1200.0 1220.0 1240.0 1260.0 1280.0 1300.0 1320.0 1340.0 1360.0 1380.0 1400.0 1420.0 1440.0 1460.0 1480.0 1500.0 1520.0 1540.0 1560.0 1580.0 1600.0
cb_03,4.0,enc_trial,stim,response,Iceland trip,1967.3999999985092,enc_trial,1.0,4.0,t_i_15_1,travel_Iceland,fold-a,compass,3.0,unique,far,paired,t_i_15_1.jpg,Iceland,travel-b1,Iceland trip,Miami trip,sub-84,1.0,1.0,0.0,1.0,0.4946875 0.4946875 0.4959375 0.4959375 0.4965625 0.4978125 0.4984375 0.5003125 0.5009375 0.5009375 0.5021875 0.5028125 0.5028125 0.5028125 0.5028125 0.5028125 0.5034375 0.5040625 0.5040625 0.5040625 0.5040625 0.5040625 0.5040625 0.5040625 0.5040625 0.5034375 0.5021875 0.4965625 0.4734375 0.4484375 0.3909375 0.3659375 0.3571875 0.3534375 0.3521875 0.3521875 0.3521875 0.3521875 0.3521875 0.3521875 0.3528125 0.3528125 0.3528125 0.3528125 0.3528125 0.3528125 0.3534375 0.3534375 0.3534375 0.3534375 0.3534375 0.3534375 0.3534375 0.3534375 0.3534375 0.3534375 0.3534375 0.3465625 0.3040625 0.2759375 0.2384375 0.2278125 0.2240625 0.2209375 0.2134375 0.1978125 0.1878125 0.1728125 0.1621875 0.1509375 0.1321875 0.1284375 0.1278125,0.8525 0.8416666666666667 0.8333333333333334 0.8275 0.8208333333333333 0.8025 0.7941666666666667 0.7833333333333333 0.7783333333333333 0.7741666666666667 0.7716666666666667 0.7716666666666667 0.7716666666666667 0.7716666666666667 0.7716666666666667 0.7716666666666667 0.77 0.7691666666666667 0.7683333333333333 0.7683333333333333 0.7683333333333333 0.7683333333333333 0.7683333333333333 0.7666666666666666 0.7666666666666666 0.76 0.7458333333333333 0.7150000000000001 0.63 0.56 0.44666666666666666 0.4125 0.4058333333333334 0.4033333333333333 0.4033333333333333 0.4033333333333333 0.405 0.405 0.405 0.4058333333333334 0.4058333333333334 0.4058333333333334 0.4058333333333334 0.4058333333333334 0.4058333333333334 0.4058333333333334 0.4058333333333334 0.4058333333333334 0.4058333333333334 0.4058333333333334 0.4058333333333334 0.4058333333333334 0.4058333333333334 0.4058333333333334 0.4058333333333334 0.4058333333333334 0.4058333333333334 0.3975 0.35 0.3133333333333333 0.26416666666666666 0.2483333333333333 0.24416666666666664 0.24 0.235 0.2266666666666667 0.2225000000000001 0.21416666666666664 0.20666666666666667 0.19916666666666671 0.1891666666666667 0.1875 0.18666666666666665,350.1000000000058 370.1000000000058 390.1000000000058 410.1000000000058 430.1000000000058 450.1000000000058 470.1000000000058 490.1000000000058 510.1000000000058 530.1000000000058 550.1000000000058 570.1000000000057 590.1000000000057 610.1000000000057 630.1000000000057 650.1000000000057 670.1000000000057 690.1000000000058 710.1000000000058 730.1000000000058 750.1000000000058 770.1000000000058 790.1000000000058 810.1000000000058 830.1000000000058 850.1000000000058 870.1000000000058 890.1000000000058 910.1000000000058 930.1000000000058 950.1000000000058 970.1000000000058 990.1000000000058 1010.1000000000058 1030.1000000000058 1050.1000000000058 1070.1000000000058 1090.1000000000058 1110.1000000000058 1130.1000000000058 1150.1000000000058 1170.1000000000058 1190.1000000000058 1210.1000000000058 1230.1000000000058 1250.1000000000058 1270.1000000000058 1290.1000000000058 1310.1000000000058 1330.1000000000058 1350.1000000000058 1370.1000000000058 1390.1000000000058 1410.1000000000058 1430.1000000000058 1450.1000000000058 1470.1000000000058 1490.1000000000058 1510.1000000000058 1530.1000000000058 1550.1000000000058 1570.1000000000058 1590.1000000000058 1610.1000000000058 1630.1000000000058 1650.1000000000058 1670.1000000000058 1690.1000000000058 1710.1000000000058 1730.1000000000058 1750.1000000000058 1770.1000000000058 1790.1000000000058
cb_03,5.0,enc_trial,stim,response,Miami trip,1620.0000000029684,enc_trial,1.0,5.0,t_s_23_1,travel_shared,fold-c,ball cap,3.0,competing,far,paired,t_s_23_1.jpg,,travel-b1,Iceland trip,Miami trip,sub-84,0.0,0.0,1.0,1.0,0.5003125 0.4990625 0.4990625 0.4990625 0.4990625 0.4996875 0.5003125 0.5009375 0.5021875 0.5034375 0.5034375 0.5046875 0.5053125 0.5065625 0.5084375 0.5096875 0.5115625 0.5128125 0.5134375 0.5159375 0.5165625 0.5178125 0.5178125 0.5178125 0.5184375 0.5246875 0.5290625 0.5353125 0.5446875 0.5790625 0.6459375 0.6803125 0.7146875 0.7434375 0.7434375 0.7434375 0.7434375 0.7434375 0.7434375 0.7434375 0.7434375 0.7434375 0.7434375 0.7434375 0.7434375 0.7434375 0.7434375 0.7434375 0.7434375 0.7484375 0.7859375 0.7978125 0.8159375 0.8271875 0.8409375 0.8509375 0.8540625 0.8553125 0.8571875 0.8590625 0.8609375 0.8615625,0.8641666666666666 0.8525 0.8441666666666667 0.8333333333333334 0.83 0.8266666666666667 0.8141666666666667 0.8049999999999999 0.7958333333333334 0.7875 0.7816666666666667 0.7783333333333333 0.7733333333333333 0.7608333333333334 0.75 0.74 0.72 0.7133333333333334 0.7083333333333333 0.6991666666666667 0.6958333333333333 0.6883333333333334 0.6875 0.6875 0.6875 0.6775 0.6708333333333334 0.6608333333333334 0.6441666666666667 0.5941666666666667 0.4891666666666666 0.4308333333333333 0.3658333333333333 0.31000000000000005 0.31000000000000005 0.31000000000000005 0.31000000000000005 0.31000000000000005 0.31000000000000005 0.31000000000000005 0.31000000000000005 0.31000000000000005 0.31000000000000005 0.31000000000000005 0.31000000000000005 0.31000000000000005 0.31000000000000005 0.31000000000000005 0.31000000000000005 0.3025 0.2533333333333333 0.23916666666666664 0.21916666666666665 0.2075 0.19499999999999995 0.18333333333333326 0.18000000000000005 0.17666666666666664 0.17083333333333328 0.1658333333333334 0.15583333333333338 0.15500000000000005,199.5 219.5 239.5 259.5 279.5 299.5 319.5 339.5 359.5 379.5 399.5 419.5 439.5 459.5 479.5 499.5 519.5 539.5 559.5 579.5 599.5 619.5 639.5 659.5 679.5 699.5 719.5 739.5 759.5 779.5 799.5 819.5 839.5 859.5 879.5 899.5 919.5 939.5 959.5 979.5 999.5 1019.5 1039.5 1059.5 1079.5 1099.5 1119.5 1139.5 1159.5 1179.5 1199.5 1219.5 1239.5 1259.5 1279.5 1299.5 1319.5 1339.5 1359.5 1379.5 1399.5 1419.5
cb_03,6.0,enc_trial,stim,response,Miami trip,1790.5000000014843,enc_trial,1.0,6.0,t_s_04_2,travel_shared,fold-c,instant camera,3.0,competing,far,paired,t_s_04_2.jpg,,travel-b1,Iceland trip,Miami trip,sub-84,0.0,0.0,1.0,1.0,0.5096875 0.5096875 0.5096875 0.5090625 0.5090625 0.5090625 0.5090625 0.5090625 0.5090625 0.5090625 0.5090625 0.5084375 0.5084375 0.5071875 0.5071875 0.5084375 0.5084375 0.5090625 0.5096875 0.5096875 0.5115625 0.5153125 0.5196875 0.5271875 0.5509375 0.6290625 0.7090625 0.7584375 0.7884375 0.7884375 0.7884375 0.7884375 0.7884375 0.7884375 0.7884375 0.7884375 0.7884375 0.7884375 0.7884375 0.7884375 0.7990625 0.8096875 0.8240625 0.8340625 0.8421875 0.8584375 0.8603125 0.8628125 0.8646875 0.8665625 0.8690625 0.8696875 0.8696875 0.8696875 0.8709375,0.83 0.8241666666666667 0.8200000000000001 0.8158333333333333 0.8141666666666667 0.8133333333333334 0.8133333333333334 0.8133333333333334 0.8133333333333334 0.8108333333333333 0.8058333333333334 0.8033333333333333 0.7983333333333333 0.795 0.7908333333333333 0.785 0.7816666666666667 0.7808333333333333 0.7791666666666667 0.7783333333333333 0.775 0.7658333333333334 0.7525 0.7266666666666667 0.625 0.3766666666666667 0.1858333333333333 0.08916666666666663 0.03666666666666663 0.03666666666666663 0.03666666666666663 0.03666666666666663 0.03666666666666663 0.03666666666666663 0.03666666666666663 0.03666666666666663 0.03666666666666663 0.03666666666666663 0.03666666666666663 0.03666666666666663 0.03833333333333333 0.04500000000000004 0.06166666666666665 0.07416666666666671 0.08916666666666663 0.11916666666666666 0.125 0.12916666666666665 0.13083333333333336 0.13249999999999995 0.135 0.13583333333333336 0.13583333333333336 0.13583333333333336 0.13583333333333336,533.1000000000058 553.1000000000058 573.1000000000057 593.1000000000057 613.1000000000057 633.1000000000057 653.1000000000057 673.1000000000057 693.1000000000058 713.1000000000058 733.1000000000058 753.1000000000058 773.1000000000058 793.1000000000058 813.1000000000058 833.1000000000058 853.1000000000058 873.1000000000058 893.1000000000058 913.1000000000058 933.1000000000058 953.1000000000058 973.1000000000058 993.1000000000058 1013.1000000000058 1033.1000000000058 1053.1000000000058 1073.1000000000058 1093.1000000000058 1113.1000000000058 1133.1000000000058 1153.1000000000058 1173.1000000000058 1193.1000000000058 1213.1000000000058 1233.1000000000058 1253.1000000000058 1273.1000000000058 1293.1000000000058 1313.1000000000058 1333.1000000000058 1353.1000000000058 1373.1000000000058 1393.1000000000058 1413.1000000000058 1433.1000000000058 1453.1000000000058 1473.1000000000058 1493.1000000000058 1513.1000000000058 1533.1000000000058 1553.1000000000058 1573.1000000000058 1593.1000000000058 1613.1000000000058
cb_03,7.0,enc_trial,stim,response,Miami trip,1873.599999998521,enc_trial,1.0,7.0,t_m_04_1,travel_Miami,fold-e,UV jacket,3.0,unique,close,paired,t_m_04_1.jpg,Miami,travel-b1,Iceland trip,Miami trip,sub-84,1.0,1.0,1.0,1.0,0.5053125 0.5053125 0.5053125 0.5053125 0.5053125 0.5053125 0.5053125 0.5053125 0.5040625 0.5028125 0.4996875 0.4996875 0.4996875 0.4996875 0.4996875 0.4996875 0.4996875 0.4996875 0.4996875 0.4996875 0.4996875 0.4996875 0.4996875 0.4996875 0.4996875 0.4996875 0.4996875 0.4996875 0.4996875 0.4996875 0.4996875 0.4990625 0.4978125 0.4965625 0.4959375 0.5128125 0.5371875 0.5915625 0.6928125 0.7553125 0.8434375 0.8528125 0.8559375 0.8571875 0.8571875 0.8571875 0.8571875 0.8565625 0.8559375 0.8559375 0.8559375 0.8559375 0.8571875 0.8603125 0.8659375 0.8784375 0.8809375 0.8840625 0.8840625,0.8525 0.8525 0.8525 0.8525 0.8525 0.8525 0.8525 0.8516666666666667 0.8483333333333334 0.8466666666666667 0.8408333333333333 0.8408333333333333 0.84 0.84 0.84 0.84 0.84 0.84 0.84 0.84 0.84 0.84 0.84 0.84 0.84 0.84 0.84 0.84 0.84 0.84 0.84 0.8391666666666666 0.8358333333333333 0.8216666666666667 0.7833333333333333 0.6766666666666667 0.6108333333333333 0.5158333333333334 0.3733333333333333 0.29000000000000004 0.1741666666666667 0.16166666666666665 0.15500000000000005 0.15249999999999994 0.15249999999999994 0.15166666666666662 0.15249999999999994 0.15416666666666667 0.15666666666666662 0.16083333333333338 0.16416666666666668 0.1658333333333334 0.17000000000000004 0.17166666666666666 0.17333333333333334 0.16833333333333333 0.16333333333333333 0.15583333333333338 0.15249999999999994,532.8000000000175 552.8000000000175 572.8000000000175 592.8000000000175 612.8000000000175 632.8000000000175 652.8000000000175 672.8000000000175 692.8000000000176 712.8000000000176 732.8000000000176 752.8000000000176 772.8000000000176 792.8000000000176 812.8000000000176 832.8000000000176 852.8000000000176 872.8000000000176 892.8000000000176 912.8000000000177 932.8000000000177 952.8000000000177 972.8000000000177 992.8000000000177 1012.8000000000177 1032.8000000000177 1052.8000000000177 1072.8000000000177 1092.8000000000177 1112.8000000000177 1132.8000000000175 1152.8000000000175 1172.8000000000175 1192.8000000000175 1212.8000000000175 1232.8000000000175 1252.8000000000175 1272.8000000000175 1292.8000000000175 1312.8000000000175 1332.8000000000175 1352.8000000000175 1372.8000000000175 1392.8000000000175 1412.8000000000175 1432.8000000000175 1452.8000000000175 1472.8000000000175 1492.8000000000175 1512.8000000000175 1532.8000000000175 1552.8000000000175 1572.8000000000175 1592.8000000000175 1612.8000000000175 1632.8000000000175 1652.8000000000175 1672.8000000000175 1692.8000000000175
cb_03,8.0,enc_trial,stim,response,Iceland trip,1807.9000000029919,enc_trial,1.0,8.0,t_i_19_1,travel_Iceland,fold-b-single,rope,3.0,unique,,single,t_i_19_1.jpg,Iceland,travel-b1,Iceland trip,Miami trip,sub-84,1.0,,1.0,,0.4896875 0.4928125 0.5046875 0.5115625 0.5184375 0.5503125 0.5634375 0.5753125 0.5821875 0.5803125 0.5534375 0.5071875 0.4709375 0.4296875 0.3559375 0.2528125 0.2165625 0.1796875 0.1715625 0.1715625 0.1715625 0.1715625 0.1715625 0.1715625 0.1715625 0.1715625 0.1715625 0.1715625 0.1715625 0.1715625 0.1715625 0.1715625 0.1715625 0.1678125 0.1646875 0.1546875 0.1503125 0.1465625 0.1403125 0.1365625 0.1309375,0.8525 0.845 0.825 0.8133333333333334 0.7966666666666666 0.7158333333333333 0.6766666666666667 0.6325000000000001 0.575 0.5391666666666667 0.4725 0.4300000000000001 0.4025 0.3766666666666667 0.335 0.2975 0.2908333333333334 0.2941666666666667 0.2958333333333333 0.2958333333333333 0.2958333333333333 0.2958333333333333 0.2958333333333333 0.2958333333333333 0.2958333333333333 0.2958333333333333 0.2958333333333333 0.2958333333333333 0.2958333333333333 0.2958333333333333 0.2958333333333333 0.2958333333333333 0.2958333333333333 0.2808333333333334 0.26416666666666666 0.2275000000000001 0.21333333333333326 0.20166666666666666 0.18500000000000005 0.17333333333333334 0.15833333333333333,816.0 836.0 856.0 876.0 896.0 916.0 936.0 956.0 976.0 996.0 1016.0 1036.0 1056.0 1076.0 1096.0 1116.0 1136.0 1156.0 1176.0 1196.0 1216.0 1236.0 1256.0 1276.0 1296.0 1316.0 1336.0 1356.0 1376.0 1396.0 1416.0 1436.0 1456.0 1476.0 1496.0 1516.0 1536.0 1556.0 1576.0 1596.0 1616.0
cb_03,9.0,enc_trial,stim,response,Iceland trip,2436.2000000029802,enc_trial,1.0,9.0,t_s_11_1,travel_shared,fold-a-single,eye mask,3.0,competing,,single,t_s_11_1.jpg,,travel-b1,Iceland trip,Miami trip,sub-84,1.0,,1.0,,0.4971875 0.4978125 0.4978125 0.4978125 0.4978125 0.4978125 0.4978125 0.4984375 0.4984375 0.4984375 0.4984375 0.4990625 0.5028125 0.5146875 0.5253125 0.6109375 0.6771875 0.7509375 0.8065625 0.8446875 0.8446875 0.8446875 0.8446875 0.8446875 0.8446875 0.8446875 0.8446875 0.8446875 0.8446875 0.8446875 0.8446875 0.8446875 0.8446875 0.8446875 0.8446875 0.8665625 0.8740625 0.8753125 0.8759375 0.8771875 0.8771875 0.8771875 0.8771875 0.8753125 0.8753125 0.8746875 0.8746875 0.8746875 0.8746875 0.8740625 0.8715625 0.8621875 0.8221875 0.7496875 0.6465625 0.3571875 0.2740625 0.2209375 0.1903125 0.1853125 0.1840625 0.1840625 0.1840625 0.1840625 0.1840625 0.1840625 0.1840625 0.1840625 0.1840625 0.1840625 0.1840625 0.1840625 0.1840625 0.1678125 0.1571875 0.1378125 0.1321875 0.1303125,0.8875 0.8866666666666667 0.8866666666666667 0.8866666666666667 0.8866666666666667 0.8866666666666667 0.8866666666666667 0.8866666666666667 0.8866666666666667 0.8866666666666667 0.8866666666666667 0.8858333333333334 0.8816666666666667 0.8641666666666666 0.845 0.6775 0.5449999999999999 0.39583333333333337 0.2891666666666667 0.2075 0.2075 0.2075 0.2075 0.2075 0.2075 0.2075 0.2075 0.2075 0.2075 0.2075 0.2075 0.2075 0.2075 0.2075 0.2075 0.1691666666666667 0.15166666666666662 0.14833333333333332 0.1466666666666666 0.1466666666666666 0.14583333333333334 0.14583333333333334 0.14583333333333334 0.14749999999999994 0.14833333333333332 0.14833333333333332 0.14833333333333332 0.14833333333333332 0.14833333333333332 0.14833333333333332 0.14916666666666667 0.14916666666666667 0.15333333333333332 0.17000000000000004 0.18833333333333327 0.22416666666666665 0.2308333333333333 0.2358333333333333 0.2366666666666667 0.2358333333333333 0.2358333333333333 0.2358333333333333 0.2358333333333333 0.2358333333333333 0.2358333333333333 0.2358333333333333 0.2358333333333333 0.2358333333333333 0.2358333333333333 0.2358333333333333 0.2358333333333333 0.2358333333333333 0.2358333333333333 0.21416666666666664 0.19833333333333336 0.1658333333333334 0.15583333333333338 0.15166666666666662,715.8999999999942 735.8999999999942 755.8999999999942 775.8999999999942 795.8999999999942 815.8999999999942 835.8999999999942 855.8999999999942 875.8999999999942 895.8999999999942 915.8999999999942 935.8999999999942 955.8999999999942 975.8999999999942 995.8999999999942 1015.8999999999942 1035.8999999999942 1055.8999999999942 1075.8999999999942 1095.8999999999942 1115.8999999999942 1135.8999999999942 1155.8999999999942 1175.8999999999942 1195.8999999999942 1215.8999999999942 1235.8999999999942 1255.8999999999942 1275.8999999999942 1295.8999999999942 1315.8999999999942 1335.8999999999942 1355.8999999999942 1375.8999999999942 1395.8999999999942 1415.8999999999942 1435.8999999999942 1455.8999999999942 1475.8999999999942 1495.8999999999942 1515.8999999999942 1535.8999999999942 1555.8999999999942 1575.8999999999942 1595.8999999999942 1615.8999999999942 1635.8999999999942 1655.8999999999942 1675.8999999999942 1695.8999999999942 1715.8999999999942 1735.8999999999942 1755.8999999999942 1775.8999999999942 1795.8999999999942 1815.8999999999944 1835.8999999999944 1855.8999999999944 1875.8999999999944 1895.8999999999944 1915.8999999999944 1935.8999999999944 1955.8999999999944 1975.8999999999944 1995.8999999999944 2015.8999999999944 2035.8999999999944 2055.8999999999937 2075.8999999999937 2095.8999999999937 2115.8999999999937 2135.8999999999937 2155.8999999999937 2175.8999999999937 2195.8999999999937 2215.8999999999937 2235.8999999999937 2255.8999999999937
cb_03,10.0,enc_trial,stim,response,Miami trip,1592.199999997014,enc_trial,1.0,10.0,t_s_02_2,travel_shared,fold-b,water bottle,3.0,competing,close,paired,t_s_02_2.jpg,,travel-b1,Iceland trip,Miami trip,sub-84,0.0,0.0,1.0,1.0,0.4940625 0.4871875 0.4815625 0.4734375 0.4596875 0.3921875 0.3296875 0.2815625 0.2359375 0.1996875 0.1628125 0.1615625 0.1609375 0.1609375 0.1609375 0.1615625 0.1615625 0.1615625 0.1615625 0.1621875 0.1690625 0.1796875 0.2040625 0.2759375 0.3421875 0.5671875 0.6471875 0.6934375 0.7146875 0.7146875 0.7146875 0.7146875 0.7146875 0.7146875 0.7146875 0.7146875 0.7146875 0.7146875 0.7146875 0.7321875 0.7759375 0.7884375 0.8059375 0.8178125 0.8284375 0.8428125 0.8459375,0.8291666666666666 0.8066666666666666 0.7908333333333333 0.7733333333333333 0.7466666666666666 0.65 0.5766666666666667 0.52 0.4608333333333333 0.4075 0.35416666666666663 0.35250000000000004 0.3516666666666667 0.3516666666666667 0.3516666666666667 0.35250000000000004 0.3533333333333334 0.3533333333333334 0.3533333333333334 0.3533333333333334 0.35750000000000004 0.3616666666666667 0.3625 0.3533333333333334 0.33 0.2125 0.16416666666666668 0.135 0.1216666666666667 0.1216666666666667 0.1216666666666667 0.1216666666666667 0.1216666666666667 0.1216666666666667 0.1216666666666667 0.1216666666666667 0.1216666666666667 0.1216666666666667 0.1216666666666667 0.12416666666666665 0.13083333333333336 0.13083333333333336 0.12916666666666665 0.125 0.1216666666666667 0.1166666666666667 0.11583333333333334,499.7999999999884 519.7999999999884 539.7999999999884 559.7999999999881 579.7999999999881 599.7999999999881 619.7999999999881 639.799999999988 659.7999999999879 679.7999999999879 699.7999999999879 719.7999999999878 739.7999999999878 759.7999999999878 779.7999999999878 799.7999999999877 819.7999999999873 839.7999999999873 859.7999999999873 879.7999999999872 899.7999999999872 919.7999999999872 939.7999999999872 959.7999999999872 979.799999999987 999.799999999987 1019.799999999987 1039.7999999999868 1059.7999999999868 1079.7999999999868 1099.7999999999868 1119.7999999999863 1139.7999999999865 1159.7999999999865 1179.7999999999865 1199.7999999999865 1219.7999999999865 1239.7999999999865 1259.7999999999865 1279.7999999999859 1299.7999999999859 1319.7999999999859 1339.7999999999859 1359.7999999999859 1379.7999999999859 1399.7999999999859 1419.7999999999859
cb_03,11.0,enc_trial,stim,response,Miami trip,1706.1000000000058,enc_trial,1.0,11.0,t_m_20_1,travel_Miami,fold-e,inflatable beachball,3.0,unique,close,paired,t_m_20_1.jpg,Miami,travel-b1,Iceland trip,Miami trip,sub-84,1.0,1.0,1.0,1.0,0.5246875 0.5440625 0.6109375 0.6546875 0.6928125 0.7446875 0.7496875 0.7596875 0.7609375 0.7609375 0.7609375 0.7609375 0.7609375 0.7609375 0.7609375 0.7659375 0.7690625 0.7746875 0.7778125 0.7915625 0.8084375 0.8134375 0.8221875 0.8284375 0.8346875 0.8421875,0.795 0.7608333333333334 0.6466666666666667 0.5658333333333334 0.4883333333333333 0.3466666666666667 0.32833333333333337 0.2858333333333334 0.2741666666666667 0.2725 0.2716666666666666 0.2716666666666666 0.2716666666666666 0.2716666666666666 0.2716666666666666 0.2625 0.25583333333333336 0.2483333333333333 0.245 0.22333333333333336 0.1975 0.18999999999999995 0.17833333333333334 0.1691666666666667 0.15833333333333333 0.14833333333333332,1016.7000000000116 1036.7000000000116 1056.7000000000116 1076.7000000000116 1096.7000000000116 1116.7000000000116 1136.7000000000114 1156.7000000000114 1176.7000000000114 1196.7000000000114 1216.7000000000114 1236.7000000000114 1256.7000000000114 1276.7000000000114 1296.7000000000114 1316.7000000000114 1336.7000000000114 1356.7000000000114 1376.7000000000116 1396.7000000000116 1416.7000000000116 1436.7000000000116 1456.7000000000116 1476.7000000000116 1496.7000000000116 1516.7000000000116
cb_03,12.0,enc_trial,stim,response,Miami trip,1257.8999999999942,enc_trial,1.0,12.0,t_m_01_1,travel_Miami,fold-a,sandals,3.0,unique,far,paired,t_m_01_1.jpg,Miami,travel-b1,Iceland trip,Miami trip,sub-84,1.0,1.0,1.0,1.0,0.5209375 0.5209375 0.5209375 0.5209375 0.5209375 0.5209375 0.5209375 0.5209375 0.5209375 0.5209375 0.5209375 0.5209375 0.5209375 0.5209375 0.5209375 0.5209375 0.5209375 0.5209375 0.5209375 0.5209375 0.5209375 0.5209375 0.5209375 0.5209375 0.5215625 0.5228125 0.5378125 0.5540625 0.5759375 0.6003125 0.6378125 0.6465625 0.6484375 0.6503125 0.6534375 0.6596875 0.6646875 0.6740625 0.6796875 0.7309375 0.7715625 0.7784375 0.7796875 0.7803125 0.7803125 0.7878125 0.7978125 0.8084375 0.8321875 0.8496875 0.8684375 0.8715625 0.8721875 0.8728125,0.7933333333333333 0.7933333333333333 0.7933333333333333 0.7933333333333333 0.7933333333333333 0.7933333333333333 0.7933333333333333 0.7933333333333333 0.7933333333333333 0.7933333333333333 0.7933333333333333 0.7933333333333333 0.7933333333333333 0.7933333333333333 0.7933333333333333 0.7933333333333333 0.7933333333333333 0.7933333333333333 0.7933333333333333 0.7933333333333333 0.7933333333333333 0.7933333333333333 0.7933333333333333 0.7858333333333334 0.7608333333333334 0.74 0.6541666666666667 0.5983333333333334 0.5366666666666666 0.4791666666666666 0.3966666666666666 0.3816666666666667 0.38 0.3766666666666667 0.37416666666666665 0.37 0.365 0.3558333333333333 0.34750000000000003 0.2775 0.21666666666666667 0.2025 0.19916666666666671 0.19833333333333336 0.19833333333333336 0.1891666666666667 0.1808333333333333 0.17166666666666666 0.14833333333333332 0.13083333333333336 0.11250000000000004 0.11 0.10750000000000004 0.10666666666666667,16.60000000000582 36.60000000000582 56.60000000000582 76.6000000000058 96.60000000000582 116.60000000000582 136.60000000000582 156.60000000000582 176.6000000000058 196.60000000000585 216.60000000000585 236.60000000000585 256.6000000000058 276.6000000000058 296.6000000000058 316.6000000000058 336.6000000000058 356.6000000000058 376.6000000000058 396.6000000000058 416.6000000000058 436.6000000000058 456.6000000000058 476.6000000000058 496.6000000000058 516.6000000000058 536.6000000000058 556.6000000000058 576.6000000000057 596.6000000000057 616.6000000000057 636.6000000000057 656.6000000000057 676.6000000000057 696.6000000000058 716.6000000000058 736.6000000000058 756.6000000000058 776.6000000000058 796.6000000000058 816.6000000000058 836.6000000000058 856.6000000000058 876.6000000000058 896.6000000000058 916.6000000000058 936.6000000000058 956.6000000000058 976.6000000000058 996.6000000000058 1016.6000000000058 1036.6000000000058 1056.6000000000058 1076.6000000000058
cb_03,13.0,enc_trial,stim,response,Miami trip,1347.300000002986,enc_trial,1.0,13.0,t_m_04_2,travel_Miami,fold-e,UV jacket,3.0,unique,close,paired,t_m_04_2.jpg,Miami,travel-b1,Iceland trip,Miami trip,sub-84,1.0,1.0,1.0,1.0,0.5034375 0.5034375 0.5034375 0.5034375 0.5034375 0.5034375 0.5090625 0.5153125 0.5246875 0.5353125 0.5678125 0.6003125 0.6371875 0.6728125 0.7065625 0.7596875 0.7665625 0.7665625 0.7665625 0.7665625 0.7665625 0.7665625 0.7665625 0.7665625 0.7665625 0.7665625 0.7665625 0.7665625 0.7665625 0.7665625 0.7665625 0.7665625 0.7771875 0.7921875 0.8028125 0.8415625 0.8609375 0.8734375 0.8803125 0.8834375,0.8075 0.795 0.7833333333333333 0.7691666666666667 0.7566666666666666 0.7433333333333334 0.6983333333333333 0.6791666666666667 0.6525000000000001 0.6291666666666667 0.5641666666666667 0.5075000000000001 0.4491666666666667 0.3916666666666667 0.3366666666666667 0.2516666666666667 0.24 0.24 0.24 0.24 0.24 0.24 0.24 0.24 0.24 0.24 0.24 0.24 0.24 0.24 0.24 0.24 0.2308333333333333 0.22 0.21333333333333326 0.17833333333333334 0.15666666666666662 0.14083333333333334 0.12916666666666665 0.1266666666666667,383.0 403.0 423.0 443.0 463.0 483.0 503.0 523.0 543.0 563.0 583.0 603.0 623.0 643.0 663.0 683.0 703.0 723.0 743.0 763.0 783.0 803.0 823.0 843.0 863.0 883.0 903.0 923.0 943.0 963.0 983.0 1003.0 1023.0 1043.0 1063.0 1083.0 1103.0 1123.0 1143.0 1163.0
cb_03,14.0,enc_trial,stim,response,Miami trip,1517.2000000029807,enc_trial,1.0,14.0,t_s_06_1,travel_shared,fold-b,luggage,3.0,competing,close,paired,t_s_06_1.jpg,,travel-b1,Iceland trip,Miami trip,sub-84,1.0,1.0,1.0,1.0,0.4971875 0.4971875 0.4984375 0.4996875 0.5021875 0.5171875 0.5253125 0.5546875 0.5671875 0.6221875 0.6540625 0.6540625 0.6540625 0.6540625 0.6540625 0.6540625 0.6540625 0.6540625 0.6540625 0.6540625 0.6540625 0.6540625 0.6634375 0.6809375 0.7096875 0.7496875 0.7784375 0.7928125 0.8040625 0.8128125 0.8253125 0.8259375 0.8271875 0.8284375 0.8284375 0.8290625 0.8290625 0.8290625 0.8296875 0.8340625 0.8434375 0.8465625,0.8049999999999999 0.79 0.775 0.75 0.7316666666666667 0.6458333333333333 0.6166666666666667 0.5133333333333333 0.4741666666666666 0.3366666666666667 0.2808333333333334 0.2808333333333334 0.2808333333333334 0.2808333333333334 0.2808333333333334 0.2808333333333334 0.2808333333333334 0.2808333333333334 0.2808333333333334 0.2808333333333334 0.2808333333333334 0.2808333333333334 0.2725 0.26 0.23750000000000004 0.20416666666666672 0.1791666666666667 0.16666666666666666 0.16000000000000006 0.15500000000000005 0.14833333333333332 0.1466666666666666 0.1466666666666666 0.14583333333333334 0.14583333333333334 0.14500000000000002 0.14500000000000002 0.14500000000000002 0.1433333333333333 0.1383333333333333 0.1283333333333333 0.125,516.2000000000116 536.2000000000116 556.2000000000116 576.2000000000116 596.2000000000116 616.2000000000116 636.2000000000116 656.2000000000116 676.2000000000116 696.2000000000116 716.2000000000116 736.2000000000116 756.2000000000116 776.2000000000116 796.2000000000116 816.2000000000116 836.2000000000116 856.2000000000116 876.2000000000116 896.2000000000116 916.2000000000116 936.2000000000116 956.2000000000116 976.2000000000116 996.2000000000116 1016.2000000000116 1036.2000000000116 1056.2000000000116 1076.2000000000116 1096.2000000000116 1116.2000000000116 1136.2000000000114 1156.2000000000114 1176.2000000000114 1196.2000000000114 1216.2000000000114 1236.2000000000114 1256.2000000000114 1276.2000000000114 1296.2000000000114 1316.2000000000114 1336.2000000000114
cb_03,15.0,enc_trial,stim,response,Miami trip,1267.2000000000407,enc_trial,1.0,15.0,t_m_17_1,travel_Miami,fold-a,water gun,3.0,unique,far,paired,t_m_17_1.jpg,Miami,travel-b1,Iceland trip,Miami trip,sub-84,1.0,1.0,1.0,1.0,0.4971875 0.5046875 0.5165625 0.5446875 0.5734375 0.6103125 0.7184375 0.7590625 0.7809375 0.7915625 0.7915625 0.7915625 0.7915625 0.7915625 0.7915625 0.7915625 0.7915625 0.7915625 0.7915625 0.7915625 0.7971875 0.8021875 0.8090625 0.8153125 0.8259375 0.8378125 0.8409375 0.8428125 0.8440625 0.8459375 0.8496875,0.8108333333333333 0.7683333333333333 0.7216666666666667 0.6516666666666666 0.6 0.5491666666666667 0.4125 0.3558333333333333 0.32666666666666666 0.31000000000000005 0.31000000000000005 0.31000000000000005 0.31000000000000005 0.31000000000000005 0.31000000000000005 0.31000000000000005 0.31000000000000005 0.31000000000000005 0.31000000000000005 0.31000000000000005 0.30166666666666664 0.2941666666666667 0.28500000000000003 0.2716666666666666 0.2458333333333333 0.20416666666666672 0.1891666666666667 0.16666666666666666 0.15500000000000005 0.14166666666666672 0.125,499.6000000000058 519.6000000000058 539.6000000000058 559.6000000000058 579.6000000000057 599.6000000000057 619.6000000000057 639.6000000000057 659.6000000000057 679.6000000000057 699.6000000000058 719.6000000000058 739.6000000000058 759.6000000000058 779.6000000000058 799.6000000000058 819.6000000000058 839.6000000000058 859.6000000000058 879.6000000000058 899.6000000000058 919.6000000000058 939.6000000000058 959.6000000000058 979.6000000000058 999.6000000000058 1019.6000000000058 1039.6000000000058 1059.6000000000058 1079.6000000000058 1099.6000000000058
cb_03,16.0,enc_trial,stim,response,Miami trip,1108.2999999970198,enc_trial,1.0,16.0,t_m_20_2,travel_Miami,fold-e,inflatable beachball,3.0,unique,close,paired,t_m_20_2.jpg,Miami,travel-b1,Iceland trip,Miami trip,sub-84,1.0,1.0,1.0,1.0,0.4971875 0.5184375 0.5384375 0.5628125 0.5878125 0.6528125 0.6809375 0.7153125 0.7778125 0.7778125 0.7778125 0.7778125 0.7778125 0.7778125 0.7778125 0.7778125 0.7778125 0.7778125 0.7778125 0.7778125 0.7940625 0.8040625 0.8109375 0.8190625 0.8228125 0.8303125 0.8340625 0.8371875 0.8371875 0.8503125,0.8358333333333333 0.7916666666666666 0.745 0.6858333333333333 0.6191666666666666 0.44833333333333336 0.38583333333333336 0.31499999999999995 0.20666666666666667 0.20666666666666667 0.20666666666666667 0.20666666666666667 0.20666666666666667 0.20666666666666667 0.20666666666666667 0.20666666666666667 0.20666666666666667 0.20666666666666667 0.20666666666666667 0.20666666666666667 0.1875 0.17833333333333334 0.17083333333333328 0.16500000000000006 0.16416666666666668 0.16166666666666665 0.16166666666666665 0.16083333333333338 0.16083333333333338 0.15833333333333333,367.2999999999884 387.2999999999884 407.2999999999884 427.2999999999884 447.2999999999884 467.2999999999884 487.2999999999884 507.2999999999884 527.2999999999884 547.2999999999884 567.2999999999884 587.2999999999884 607.2999999999884 627.2999999999884 647.2999999999884 667.2999999999884 687.2999999999884 707.2999999999884 727.2999999999884 747.2999999999884 767.2999999999884 787.2999999999884 807.2999999999884 827.2999999999884 847.2999999999884 867.2999999999884 887.2999999999884 907.2999999999884 927.2999999999884 947.2999999999884
cb_03,17.0,enc_trial,stim,response,Iceland trip,1486.5000000029684,enc_trial,1.0,17.0,t_i_15_2,travel_Iceland,fold-a,compass,3.0,unique,far,paired,t_i_15_2.jpg,Iceland,travel-b1,Iceland trip,Miami trip,sub-84,1.0,1.0,0.0,1.0,0.4946875 0.5053125 0.5165625 0.5303125 0.5378125 0.5528125 0.5628125 0.5746875 0.5946875 0.6053125 0.6115625 0.6103125 0.5959375 0.5815625 0.5615625 0.4540625 0.3815625 0.3153125 0.2509375 0.2321875 0.2290625 0.2290625 0.2290625 0.2290625 0.2290625 0.2290625 0.2290625 0.2290625 0.2290625 0.2290625 0.2290625 0.2215625 0.1940625 0.1746875 0.1584375 0.1378125 0.1334375 0.1290625 0.1271875 0.1221875 0.1178125 0.1159375 0.1146875,0.8049999999999999 0.7808333333333333 0.76 0.7208333333333333 0.7025 0.6533333333333333 0.625 0.5916666666666667 0.5441666666666667 0.515 0.4916666666666667 0.4575 0.4391666666666667 0.4325 0.4316666666666665 0.4291666666666667 0.4275 0.4225 0.4125 0.4083333333333333 0.4075 0.4075 0.4075 0.4075 0.4075 0.4075 0.4075 0.4075 0.4075 0.4075 0.4075 0.39583333333333337 0.3466666666666667 0.31000000000000005 0.2766666666666666 0.21833333333333327 0.2025 0.1891666666666667 0.1808333333333333 0.16833333333333333 0.15333333333333332 0.14166666666666672 0.1383333333333333,449.69999999998254 469.69999999998254 489.69999999998254 509.69999999998254 529.6999999999825 549.6999999999825 569.6999999999825 589.6999999999825 609.6999999999825 629.6999999999825 649.6999999999825 669.6999999999825 689.6999999999824 709.6999999999824 729.6999999999824 749.6999999999824 769.6999999999824 789.6999999999824 809.6999999999824 829.6999999999824 849.6999999999824 869.6999999999824 889.6999999999824 909.6999999999823 929.6999999999823 949.6999999999823 969.6999999999823 989.6999999999823 1009.6999999999823 1029.6999999999823 1049.6999999999823 1069.6999999999823 1089.6999999999823 1109.6999999999823 1129.6999999999825 1149.6999999999825 1169.6999999999825 1189.6999999999825 1209.6999999999825 1229.6999999999825 1249.6999999999825 1269.6999999999825 1289.6999999999825
cb_03,18.0,enc_trial,stim,response,Iceland trip,1606.8999999999942,enc_trial,1.0,18.0,t_s_24_2,travel_shared,fold-c,ear plugs,3.0,competing,far,paired,t_s_24_2.jpg,,travel-b1,Iceland trip,Miami trip,sub-84,0.0,0.0,0.0,0.0,0.5034375 0.5034375 0.5034375 0.5028125 0.5034375 0.5121875 0.5278125 0.5478125 0.5728125 0.6003125 0.6553125 0.6634375 0.6678125 0.6684375 0.6678125 0.6428125 0.6253125 0.5978125 0.5653125 0.5115625 0.4215625 0.3503125 0.3053125 0.2653125 0.2378125 0.2090625 0.2090625 0.2090625 0.2090625 0.2090625 0.2090625 0.2090625 0.2090625 0.2090625 0.2090625 0.2090625 0.2090625 0.2090625 0.2090625 0.1978125 0.1709375 0.1609375 0.1528125 0.1421875 0.1371875 0.1353125,0.8 0.7858333333333334 0.7716666666666667 0.7608333333333334 0.7408333333333333 0.71 0.6791666666666667 0.6475 0.61 0.5658333333333334 0.4725 0.4558333333333333 0.44666666666666666 0.44166666666666665 0.4408333333333333 0.445 0.4541666666666667 0.465 0.4741666666666666 0.48 0.4575 0.4158333333333334 0.38083333333333336 0.3483333333333334 0.3208333333333333 0.2883333333333333 0.2883333333333333 0.2883333333333333 0.2883333333333333 0.2883333333333333 0.2883333333333333 0.2883333333333333 0.2883333333333333 0.2883333333333333 0.2883333333333333 0.2883333333333333 0.2883333333333333 0.2883333333333333 0.2883333333333333 0.2766666666666666 0.2408333333333333 0.2225000000000001 0.20416666666666672 0.17333333333333334 0.15666666666666662 0.14500000000000002,516.2999999999884 536.2999999999884 556.2999999999884 576.2999999999884 596.2999999999884 616.2999999999884 636.2999999999884 656.2999999999884 676.2999999999884 696.2999999999884 716.2999999999884 736.2999999999884 756.2999999999884 776.2999999999884 796.2999999999884 816.2999999999884 836.2999999999884 856.2999999999884 876.2999999999884 896.2999999999884 916.2999999999884 936.2999999999884 956.2999999999884 976.2999999999884 996.2999999999884 1016.2999999999884 1036.2999999999884 1056.2999999999884 1076.2999999999884 1096.2999999999884 1116.2999999999884 1136.2999999999886 1156.2999999999886 1176.2999999999886 1196.2999999999886 1216.2999999999886 1236.2999999999886 1256.2999999999886 1276.2999999999886 1296.2999999999886 1316.2999999999886 1336.2999999999886 1356.2999999999886 1376.2999999999884 1396.2999999999884 1416.2999999999884
cb_03,19.0,enc_trial,stim,response,Miami trip,1187.0000000029684,enc_trial,1.0,19.0,t_s_23_2,travel_shared,fold-c,ball cap,3.0,competing,far,paired,t_s_23_2.jpg,,travel-b1,Iceland trip,Miami trip,sub-84,0.0,0.0,1.0,1.0,0.4859375 0.4771875 0.4721875 0.4684375 0.4665625 0.4496875 0.4359375 0.4190625 0.4171875 0.4190625 0.4996875 0.5521875 0.6109375 0.6659375 0.7153125 0.7284375 0.7315625 0.7315625 0.7503125 0.7915625 0.8290625 0.8753125 0.8965625 0.9028125 0.9046875 0.9053125,0.81 0.7716666666666667 0.7383333333333333 0.7133333333333334 0.6966666666666667 0.6383333333333333 0.6041666666666667 0.5458333333333334 0.53 0.4875 0.3816666666666667 0.35416666666666663 0.3275 0.3083333333333333 0.2941666666666667 0.29166666666666663 0.2908333333333334 0.2908333333333334 0.2775 0.2408333333333333 0.21 0.16500000000000006 0.14083333333333334 0.13 0.1233333333333333 0.12250000000000005,416.69999999998254 436.69999999998254 456.69999999998254 476.69999999998254 496.69999999998254 516.6999999999825 536.6999999999825 556.6999999999825 576.6999999999825 596.6999999999825 616.6999999999825 636.6999999999825 656.6999999999825 676.6999999999825 696.6999999999824 716.6999999999824 736.6999999999824 756.6999999999824 776.6999999999824 796.6999999999824 816.6999999999824 836.6999999999824 856.6999999999824 876.6999999999824 896.6999999999824 916.6999999999823
cb_03,20.0,enc_trial,stim,response,Iceland trip,1819.3999999999944,enc_trial,1.0,20.0,t_s_06_2,travel_shared,fold-b,luggage,3.0,competing,close,paired,t_s_06_2.jpg,,travel-b1,Iceland trip,Miami trip,sub-84,1.0,1.0,1.0,1.0,0.5071875 0.5109375 0.5178125 0.5278125 0.5371875 0.5684375 0.6253125 0.6959375 0.7434375 0.7753125 0.7753125 0.7753125 0.7753125 0.7753125 0.7753125 0.7753125 0.7753125 0.7753125 0.7753125 0.7753125 0.7753125 0.7753125 0.7503125 0.7040625 0.6378125 0.4728125 0.4309375 0.4071875 0.3959375 0.3959375 0.3959375 0.3959375 0.3959375 0.3959375 0.3959375 0.3959375 0.3959375 0.3959375 0.3959375 0.3959375 0.3365625 0.3096875 0.2896875 0.2721875 0.2615625 0.2409375 0.2246875 0.2146875 0.2053125 0.1971875 0.1803125 0.1740625 0.1653125 0.1596875 0.1540625 0.1428125 0.1409375 0.1403125,0.8125 0.78 0.74 0.7033333333333334 0.6641666666666667 0.5733333333333333 0.4658333333333333 0.355 0.2791666666666667 0.2358333333333333 0.2358333333333333 0.2358333333333333 0.2358333333333333 0.2358333333333333 0.2358333333333333 0.2358333333333333 0.2358333333333333 0.2358333333333333 0.2358333333333333 0.2358333333333333 0.2358333333333333 0.2358333333333333 0.2308333333333333 0.2225000000000001 0.215 0.19833333333333336 0.19499999999999995 0.1941666666666667 0.1958333333333333 0.1958333333333333 0.1958333333333333 0.1958333333333333 0.1958333333333333 0.1958333333333333 0.1958333333333333 0.1958333333333333 0.1958333333333333 0.1958333333333333 0.1958333333333333 0.1958333333333333 0.17666666666666664 0.16666666666666666 0.16083333333333338 0.16000000000000006 0.16000000000000006 0.16500000000000006 0.17083333333333328 0.1741666666666667 0.1775 0.1808333333333333 0.1825 0.1808333333333333 0.17833333333333334 0.17833333333333334 0.17833333333333334 0.17666666666666664 0.17666666666666664 0.17666666666666664,500.3999999999942 520.3999999999942 540.3999999999942 560.3999999999942 580.3999999999943 600.3999999999943 620.3999999999943 640.3999999999943 660.3999999999943 680.3999999999943 700.3999999999942 720.3999999999942 740.3999999999942 760.3999999999942 780.3999999999942 800.3999999999942 820.3999999999942 840.3999999999942 860.3999999999942 880.3999999999942 900.3999999999942 920.3999999999942 940.3999999999942 960.3999999999942 980.3999999999942 1000.3999999999942 1020.3999999999942 1040.3999999999942 1060.3999999999942 1080.3999999999942 1100.3999999999942 1120.3999999999942 1140.3999999999942 1160.3999999999942 1180.3999999999942 1200.3999999999942 1220.3999999999942 1240.3999999999942 1260.3999999999942 1280.3999999999942 1300.3999999999942 1320.3999999999942 1340.3999999999942 1360.3999999999942 1380.3999999999942 1400.3999999999942 1420.3999999999942 1440.3999999999942 1460.3999999999942 1480.3999999999942 1500.3999999999942 1520.3999999999942 1540.3999999999942 1560.3999999999942 1580.3999999999942 1600.3999999999942 1620.3999999999942 1640.3999999999942
cb_03,21.0,enc_trial,stim,response,Miami trip,2373.8999999999937,enc_trial,1.0,21.0,t_s_04_1,travel_shared,fold-c,instant camera,3.0,competing,far,paired,t_s_04_1.jpg,,travel-b1,Iceland trip,Miami trip,sub-84,0.0,0.0,1.0,1.0,0.5115625 0.5359375 0.5809375 0.6590625 0.6984375 0.7428125 0.7503125 0.7509375 0.7509375 0.7490625 0.7403125 0.7378125 0.7365625 0.7359375 0.7359375 0.7359375 0.7409375 0.7609375 0.7696875 0.7771875 0.7859375 0.7896875 0.7909375 0.7921875 0.7946875 0.8009375 0.8040625 0.8053125 0.8059375 0.8059375 0.7921875 0.7734375 0.7271875 0.6103125 0.5240625 0.3621875 0.2440625 0.1878125 0.1509375 0.1334375 0.1334375 0.1334375 0.1334375 0.1334375 0.1334375 0.1334375 0.1334375 0.1334375 0.1334375 0.1334375 0.1290625 0.1171875 0.1128125 0.1115625 0.1115625 0.1115625 0.1146875 0.1434375 0.1903125 0.2596875 0.4740625 0.5334375 0.5540625 0.6353125 0.6646875 0.6646875 0.6646875 0.6646875 0.6646875 0.6646875 0.6646875 0.6646875 0.6646875 0.6646875 0.6646875 0.6646875 0.6646875 0.7090625 0.7409375 0.7778125 0.8409375 0.8590625 0.8634375 0.8653125 0.8659375,0.8358333333333333 0.7533333333333333 0.6416666666666666 0.4691666666666666 0.38 0.275 0.24750000000000005 0.2408333333333333 0.24 0.24 0.25749999999999995 0.265 0.2716666666666666 0.2733333333333333 0.2741666666666667 0.2766666666666666 0.2783333333333333 0.2733333333333333 0.2691666666666667 0.265 0.25249999999999995 0.2433333333333333 0.2358333333333333 0.225 0.2075 0.18000000000000005 0.17166666666666666 0.16166666666666665 0.15583333333333338 0.15249999999999994 0.14083333333333334 0.13916666666666666 0.14416666666666667 0.17166666666666666 0.1891666666666667 0.20333333333333334 0.19833333333333336 0.1908333333333333 0.18999999999999995 0.1908333333333333 0.1908333333333333 0.1908333333333333 0.1908333333333333 0.1908333333333333 0.1908333333333333 0.1908333333333333 0.1908333333333333 0.1908333333333333 0.1908333333333333 0.1908333333333333 0.18666666666666665 0.1725 0.1658333333333334 0.16500000000000006 0.16416666666666668 0.16416666666666668 0.16416666666666668 0.1725 0.1791666666666667 0.1825 0.15333333333333332 0.1383333333333333 0.13083333333333336 0.09416666666666662 0.07416666666666671 0.07416666666666671 0.07416666666666671 0.07416666666666671 0.07416666666666671 0.07416666666666671 0.07416666666666671 0.07416666666666671 0.07416666666666671 0.07416666666666671 0.07416666666666671 0.07416666666666671 0.07416666666666671 0.07666666666666666 0.07499999999999996 0.07333333333333336 0.0708333333333333 0.0708333333333333 0.07166666666666666 0.07166666666666666 0.07250000000000001,516.1000000000058 536.1000000000058 556.1000000000058 576.1000000000057 596.1000000000057 616.1000000000057 636.1000000000057 656.1000000000057 676.1000000000057 696.1000000000058 716.1000000000058 736.1000000000058 756.1000000000058 776.1000000000058 796.1000000000058 816.1000000000058 836.1000000000058 856.1000000000058 876.1000000000058 896.1000000000058 916.1000000000058 936.1000000000058 956.1000000000058 976.1000000000058 996.1000000000058 1016.1000000000058 1036.1000000000058 1056.1000000000058 1076.1000000000058 1096.1000000000058 1116.1000000000058 1136.1000000000058 1156.1000000000058 1176.1000000000058 1196.1000000000058 1216.1000000000058 1236.1000000000058 1256.1000000000058 1276.1000000000058 1296.1000000000058 1316.1000000000058 1336.1000000000058 1356.1000000000058 1376.1000000000058 1396.1000000000058 1416.1000000000058 1436.1000000000058 1456.1000000000058 1476.1000000000058 1496.1000000000058 1516.1000000000058 1536.1000000000058 1556.1000000000058 1576.1000000000058 1596.1000000000058 1616.1000000000058 1636.1000000000058 1656.1000000000058 1676.1000000000058 1696.1000000000058 1716.1000000000058 1736.1000000000058 1756.1000000000058 1776.1000000000058 1796.1000000000058 1816.1000000000056 1836.1000000000056 1856.1000000000056 1876.1000000000056 1896.1000000000056 1916.1000000000056 1936.1000000000056 1956.1000000000056 1976.1000000000056 1996.1000000000056 2016.1000000000056 2036.1000000000056 2056.1000000000063 2076.1000000000063 2096.1000000000063 2116.1000000000063 2136.1000000000063 2156.1000000000063 2176.1000000000063 2196.1000000000063
cb_03,22.0,enc_trial,stim,response,Iceland trip,1743.0,enc_trial,1.0,22.0,t_i_13_1,travel_Iceland,fold-a,sleeping bag,3.0,unique,far,paired,t_i_13_1.jpg,Iceland,travel-b1,Iceland trip,Miami trip,sub-84,1.0,1.0,1.0,1.0,0.5059375 0.5053125 0.5053125 0.5053125 0.5053125 0.5053125 0.5053125 0.5053125 0.5053125 0.5053125 0.5053125 0.5053125 0.5053125 0.5053125 0.5053125 0.5053125 0.5059375 0.5065625 0.5071875 0.5084375 0.5053125 0.5009375 0.4878125 0.4721875 0.4459375 0.3496875 0.3159375 0.3046875 0.3046875 0.3046875 0.3046875 0.3046875 0.3046875 0.3046875 0.3046875 0.3046875 0.3046875 0.3046875 0.3046875 0.2940625 0.2209375 0.1909375 0.1603125 0.1490625 0.1421875 0.1365625 0.1340625 0.1334375 0.1321875 0.1309375 0.1303125 0.1296875 0.1284375 0.1253125 0.1240625,0.8216666666666667 0.8191666666666666 0.8166666666666667 0.8158333333333333 0.815 0.815 0.815 0.815 0.815 0.815 0.815 0.815 0.815 0.815 0.815 0.8125 0.8049999999999999 0.7958333333333334 0.785 0.7691666666666667 0.7208333333333333 0.6950000000000001 0.6491666666666667 0.61 0.565 0.4458333333333333 0.41 0.3983333333333333 0.3983333333333333 0.3983333333333333 0.3983333333333333 0.3983333333333333 0.3983333333333333 0.3983333333333333 0.3983333333333333 0.3983333333333333 0.3983333333333333 0.3983333333333333 0.3983333333333333 0.3825 0.28500000000000003 0.25 0.21583333333333327 0.20416666666666672 0.1958333333333333 0.18999999999999995 0.18833333333333327 0.18833333333333327 0.1875 0.1875 0.1875 0.18666666666666665 0.18333333333333326 0.18166666666666664 0.18000000000000005,483.0 503.0 523.0 543.0 563.0 583.0 603.0 623.0 643.0 663.0 683.0 703.0 723.0 743.0 763.0 783.0 803.0 823.0 843.0 863.0 883.0 903.0 923.0 943.0 963.0 983.0 1003.0 1023.0 1043.0 1063.0 1083.0 1103.0 1123.0 1143.0 1163.0 1183.0 1203.0 1223.0 1243.0 1263.0 1283.0 1303.0 1323.0 1343.0 1363.0 1383.0 1403.0 1423.0 1443.0 1463.0 1483.0 1503.0 1523.0 1543.0 1563.0
cb_03,23.0,enc_trial,stim,response,Iceland trip,1789.6999999984982,enc_trial,1.0,23.0,t_s_05_1,travel_shared,fold-a-single,neck pillow,3.0,competing,,single,t_s_05_1.jpg,,travel-b1,Iceland trip,Miami trip,sub-84,1.0,,1.0,,0.5084375 0.5084375 0.5084375 0.5084375 0.5084375 0.5084375 0.5084375 0.5084375 0.5084375 0.5084375 0.5084375 0.5084375 0.5084375 0.5084375 0.5084375 0.5084375 0.5084375 0.5084375 0.5084375 0.5084375 0.5090625 0.5090625 0.5090625 0.5090625 0.5096875 0.5009375 0.4771875 0.4346875 0.3378125 0.2678125 0.1809375 0.1809375 0.1809375 0.1809375 0.1809375 0.1809375 0.1809375 0.1809375 0.1809375 0.1809375 0.1809375 0.1809375 0.1809375 0.1809375 0.1809375 0.1809375 0.1809375 0.1771875 0.1740625 0.1709375 0.1628125 0.1546875 0.1490625 0.1446875 0.1415625 0.1371875,0.8575 0.8575 0.8575 0.8575 0.8575 0.8575 0.8575 0.8575 0.8575 0.8575 0.8575 0.8575 0.8575 0.8575 0.8575 0.8575 0.8575 0.8575 0.8575 0.8575 0.8575 0.8575 0.8575 0.8575 0.8575 0.8433333333333333 0.8066666666666666 0.745 0.5916666666666667 0.4541666666666667 0.2383333333333333 0.2383333333333333 0.2383333333333333 0.2383333333333333 0.2383333333333333 0.2383333333333333 0.2383333333333333 0.2383333333333333 0.2383333333333333 0.2383333333333333 0.2383333333333333 0.2383333333333333 0.2383333333333333 0.2383333333333333 0.2383333333333333 0.2383333333333333 0.2383333333333333 0.235 0.2308333333333333 0.2283333333333334 0.21583333333333327 0.2058333333333333 0.20166666666666666 0.1941666666666667 0.1875 0.17666666666666664,499.8999999999942 519.8999999999942 539.8999999999942 559.8999999999942 579.8999999999943 599.8999999999943 619.8999999999943 639.8999999999943 659.8999999999943 679.8999999999943 699.8999999999942 719.8999999999942 739.8999999999942 759.8999999999942 779.8999999999942 799.8999999999942 819.8999999999942 839.8999999999942 859.8999999999942 879.8999999999942 899.8999999999942 919.8999999999942 939.8999999999942 959.8999999999942 979.8999999999942 999.8999999999942 1019.8999999999942 1039.8999999999942 1059.8999999999942 1079.8999999999942 1099.8999999999942 1119.8999999999942 1139.8999999999942 1159.8999999999942 1179.8999999999942 1199.8999999999942 1219.8999999999942 1239.8999999999942 1259.8999999999942 1279.8999999999942 1299.8999999999942 1319.8999999999942 1339.8999999999942 1359.8999999999942 1379.8999999999942 1399.8999999999942 1419.8999999999942 1439.8999999999942 1459.8999999999942 1479.8999999999942 1499.8999999999942 1519.8999999999942 1539.8999999999942 1559.8999999999942 1579.8999999999942 1599.8999999999942
cb_03,24.0,enc_trial,stim,response,Iceland trip,1662.0000000029684,enc_trial,1.0,24.0,t_i_17_1,travel_Iceland,fold-e,binoculars,3.0,unique,close,paired,t_i_17_1.jpg,Iceland,travel-b1,Iceland trip,Miami trip,sub-84,0.0,0.0,1.0,1.0,0.5046875 0.5046875 0.5053125 0.5059375 0.5071875 0.5134375 0.5234375 0.5303125 0.5359375 0.5403125 0.5446875 0.5446875 0.5446875 0.5446875 0.5446875 0.5303125 0.5021875 0.4559375 0.3634375 0.3021875 0.2184375 0.2071875 0.2040625 0.2040625 0.2040625 0.2040625 0.2040625 0.2040625 0.2034375 0.2003125 0.1915625 0.1821875 0.1778125 0.1728125 0.1628125 0.1434375 0.1309375 0.1171875 0.1134375,0.8416666666666667 0.835 0.8275 0.8208333333333333 0.8141666666666667 0.8025 0.7833333333333333 0.7733333333333333 0.7641666666666667 0.7566666666666666 0.75 0.7491666666666666 0.7491666666666666 0.7491666666666666 0.7483333333333333 0.7150000000000001 0.6666666666666667 0.5916666666666667 0.4491666666666667 0.345 0.2058333333333333 0.18999999999999995 0.18333333333333326 0.18333333333333326 0.18333333333333326 0.18333333333333326 0.18333333333333326 0.18333333333333326 0.18333333333333326 0.17500000000000004 0.15333333333333332 0.13916666666666666 0.13 0.12083333333333335 0.11166666666666668 0.10666666666666667 0.11 0.1166666666666667 0.11916666666666666,716.3999999999651 736.3999999999651 756.3999999999651 776.3999999999651 796.3999999999651 816.3999999999651 836.3999999999651 856.3999999999651 876.3999999999651 896.3999999999651 916.3999999999652 936.3999999999652 956.3999999999652 976.3999999999652 996.3999999999652 1016.3999999999652 1036.399999999965 1056.399999999965 1076.399999999965 1096.399999999965 1116.399999999965 1136.399999999965 1156.399999999965 1176.399999999965 1196.399999999965 1216.399999999965 1236.399999999965 1256.399999999965 1276.399999999965 1296.399999999965 1316.399999999965 1336.399999999965 1356.399999999965 1376.3999999999648 1396.3999999999648 1416.3999999999648 1436.3999999999648 1456.3999999999648 1476.3999999999648
cb_03,25.0,enc_trial,stim,response,Miami trip,1321.5999999999767,enc_trial,1.0,25.0,t_m_01_2,travel_Miami,fold-a,sandals,3.0,unique,far,paired,t_m_01_2.jpg,Miami,travel-b1,Iceland trip,Miami trip,sub-84,1.0,1.0,1.0,1.0,0.5478125 0.5940625 0.6478125 0.7065625 0.7921875 0.8484375 0.8596875 0.8596875 0.8596875 0.8596875 0.8596875 0.8596875 0.8596875 0.8596875 0.8596875 0.8596875 0.8596875 0.8596875 0.8615625 0.8659375 0.8696875 0.8746875 0.8771875 0.8790625 0.8796875 0.8803125,0.7241666666666666 0.6266666666666667 0.5225 0.4183333333333333 0.2691666666666667 0.17166666666666666 0.1466666666666666 0.1433333333333333 0.1433333333333333 0.1433333333333333 0.1433333333333333 0.1433333333333333 0.1433333333333333 0.1433333333333333 0.1433333333333333 0.1433333333333333 0.1433333333333333 0.1433333333333333 0.1433333333333333 0.14166666666666672 0.14500000000000002 0.15500000000000005 0.16500000000000006 0.1741666666666667 0.1791666666666667 0.1825,583.2999999999884 603.2999999999884 623.2999999999884 643.2999999999884 663.2999999999884 683.2999999999884 703.2999999999884 723.2999999999884 743.2999999999884 763.2999999999884 783.2999999999884 803.2999999999884 823.2999999999884 843.2999999999884 863.2999999999884 883.2999999999884 903.2999999999884 923.2999999999884 943.2999999999884 963.2999999999884 983.2999999999884 1003.2999999999884 1023.2999999999884 1043.2999999999884 1063.2999999999884 1083.2999999999884
cb_03,26.0,enc_trial,stim,response,Miami trip,1381.0000000000582,enc_trial,1.0,26.0,t_m_18_1,travel_Miami,fold-b-single,waterproof tote,3.0,unique,,single,t_m_18_1.jpg,Miami,travel-b1,Iceland trip,Miami trip,sub-84,1.0,,1.0,,0.4921875 0.4921875 0.4928125 0.4971875 0.5034375 0.5190625 0.5228125 0.5240625 0.5253125 0.5271875 0.5296875 0.5628125 0.6746875 0.7471875 0.8090625 0.8615625 0.8615625 0.8615625 0.8615625 0.8615625 0.8615625 0.8615625 0.8615625 0.8615625 0.8615625 0.8615625 0.8603125 0.8565625 0.8540625 0.8534375 0.8528125 0.8528125,0.835 0.815 0.7933333333333333 0.76 0.735 0.6950000000000001 0.6875 0.6833333333333333 0.6791666666666667 0.6741666666666667 0.665 0.61 0.4625 0.3641666666666665 0.2816666666666666 0.20333333333333334 0.20333333333333334 0.20333333333333334 0.20333333333333334 0.20333333333333334 0.20333333333333334 0.20333333333333334 0.20333333333333334 0.20333333333333334 0.20333333333333334 0.20333333333333334 0.18999999999999995 0.16083333333333338 0.13666666666666671 0.11833333333333328 0.09916666666666664 0.09833333333333336,549.2999999999884 569.2999999999884 589.2999999999884 609.2999999999884 629.2999999999884 649.2999999999884 669.2999999999884 689.2999999999884 709.2999999999884 729.2999999999884 749.2999999999884 769.2999999999884 789.2999999999884 809.2999999999884 829.2999999999884 849.2999999999884 869.2999999999884 889.2999999999884 909.2999999999884 929.2999999999884 949.2999999999884 969.2999999999884 989.2999999999884 1009.2999999999884 1029.2999999999884 1049.2999999999884 1069.2999999999884 1089.2999999999884 1109.2999999999884 1129.2999999999886 1149.2999999999886 1169.2999999999886
cb_03,27.0,enc_trial,stim,response,Iceland trip,1916.2000000000696,enc_trial,1.0,27.0,t_s_10_2,travel_shared,fold-c,luggage lock,3.0,competing,far,paired,t_s_10_2.jpg,,travel-b1,Iceland trip,Miami trip,sub-84,1.0,1.0,0.0,0.0,0.4946875 0.4978125 0.4996875 0.5034375 0.5065625 0.5221875 0.5278125 0.5321875 0.5409375 0.5446875 0.5496875 0.5584375 0.5590625 0.5609375 0.5615625 0.5621875 0.5628125 0.5646875 0.5659375 0.5684375 0.5771875 0.5796875 0.5809375 0.5840625 0.5840625 0.5634375 0.5409375 0.5034375 0.4546875 0.3715625 0.2671875 0.2321875 0.2321875 0.2321875 0.2321875 0.2321875 0.2321875 0.2321875 0.2321875 0.2321875 0.2321875 0.2321875 0.2321875 0.2321875 0.2321875 0.2321875 0.2034375 0.1834375 0.1653125 0.1465625 0.1309375 0.1253125 0.1178125 0.1153125 0.1121875 0.1053125 0.1021875 0.1009375,0.8525 0.8433333333333333 0.8375 0.8316666666666667 0.825 0.8025 0.7933333333333333 0.7825 0.7658333333333334 0.7558333333333334 0.7466666666666666 0.73 0.725 0.7208333333333333 0.7191666666666667 0.7158333333333333 0.7125 0.71 0.7058333333333333 0.7033333333333334 0.6866666666666666 0.6816666666666666 0.6775 0.6666666666666667 0.655 0.5891666666666666 0.5491666666666667 0.5041666666666667 0.455 0.39083333333333337 0.3325 0.31999999999999995 0.31999999999999995 0.31999999999999995 0.31999999999999995 0.31999999999999995 0.31999999999999995 0.31999999999999995 0.31999999999999995 0.31999999999999995 0.31999999999999995 0.31999999999999995 0.31999999999999995 0.31999999999999995 0.31999999999999995 0.31999999999999995 0.2858333333333334 0.26 0.24 0.22166666666666668 0.20416666666666672 0.19666666666666666 0.18833333333333327 0.18500000000000005 0.1808333333333333 0.1658333333333334 0.15749999999999995 0.15583333333333338,582.8000000000466 602.8000000000466 622.8000000000466 642.8000000000466 662.8000000000466 682.8000000000466 702.8000000000467 722.8000000000467 742.8000000000467 762.8000000000467 782.8000000000467 802.8000000000467 822.8000000000467 842.8000000000467 862.8000000000467 882.8000000000467 902.8000000000467 922.8000000000467 942.8000000000467 962.8000000000467 982.8000000000467 1002.8000000000467 1022.8000000000467 1042.8000000000468 1062.8000000000468 1082.8000000000468 1102.8000000000468 1122.8000000000468 1142.8000000000466 1162.8000000000466 1182.8000000000466 1202.8000000000466 1222.8000000000466 1242.8000000000466 1262.8000000000466 1282.8000000000466 1302.8000000000466 1322.8000000000466 1342.8000000000466 1362.8000000000466 1382.8000000000463 1402.8000000000463 1422.8000000000463 1442.8000000000463 1462.8000000000463 1482.8000000000463 1502.8000000000463 1522.8000000000463 1542.8000000000463 1562.8000000000463 1582.8000000000463 1602.8000000000463 1622.8000000000463 1642.8000000000463 1662.8000000000463 1682.8000000000463 1702.8000000000463 1722.8000000000463
cb_03,28.0,enc_trial,stim,response,Iceland trip,1415.6000000030035,enc_trial,1.0,28.0,t_i_02_1,travel_Iceland,fold-e,scarf,3.0,unique,close,paired,t_i_02_1.jpg,Iceland,travel-b1,Iceland trip,Miami trip,sub-84,1.0,1.0,1.0,1.0,0.5071875 0.4746875 0.4278125 0.3353125 0.2690625 0.2046875 0.1478125 0.1478125 0.1478125 0.1478125 0.1478125 0.1478125 0.1478125 0.1478125 0.1478125 0.1478125 0.1478125 0.1478125 0.1478125 0.1478125 0.1371875 0.1334375 0.1309375 0.1290625 0.1271875 0.1271875 0.1271875,0.8375 0.8016666666666666 0.7483333333333333 0.635 0.5366666666666666 0.4283333333333333 0.3158333333333333 0.3158333333333333 0.3158333333333333 0.3158333333333333 0.3158333333333333 0.3158333333333333 0.3158333333333333 0.3158333333333333 0.3158333333333333 0.3158333333333333 0.3158333333333333 0.3158333333333333 0.3158333333333333 0.3158333333333333 0.2733333333333333 0.25 0.2316666666666667 0.21333333333333326 0.18666666666666665 0.15500000000000005 0.14833333333333332,699.7000000000116 719.7000000000116 739.7000000000116 759.7000000000116 779.7000000000116 799.7000000000116 819.7000000000116 839.7000000000116 859.7000000000116 879.7000000000116 899.7000000000116 919.7000000000116 939.7000000000116 959.7000000000116 979.7000000000116 999.7000000000116 1019.7000000000116 1039.7000000000116 1059.7000000000116 1079.7000000000116 1099.7000000000116 1119.7000000000116 1139.7000000000114 1159.7000000000114 1179.7000000000114 1199.7000000000114 1219.7000000000114
cb_03,29.0,enc_trial,stim,response,Miami trip,1749.0,enc_trial,1.0,29.0,t_i_17_2,travel_Iceland,fold-e,binoculars,3.0,unique,close,paired,t_i_17_2.jpg,Iceland,travel-b1,Iceland trip,Miami trip,sub-84,0.0,0.0,1.0,1.0,0.5028125 0.5046875 0.5053125 0.5059375 0.5071875 0.5071875 0.5096875 0.5184375 0.5340625 0.5584375 0.6209375 0.6303125 0.6653125 0.6653125 0.6653125 0.6653125 0.6653125 0.6653125 0.6653125 0.6653125 0.6653125 0.6653125 0.6653125 0.6653125 0.6653125 0.6728125 0.6790625 0.6871875 0.6928125 0.7009375 0.7409375 0.7484375 0.7540625 0.7559375 0.7565625 0.7615625 0.7659375 0.7728125 0.7821875 0.7903125 0.8090625 0.8159375 0.8309375 0.8428125 0.8553125 0.8753125 0.8790625 0.8803125 0.8809375,0.8491666666666666 0.8358333333333333 0.8233333333333334 0.815 0.81 0.8049999999999999 0.7991666666666667 0.7791666666666667 0.7491666666666666 0.6975 0.5383333333333333 0.5075000000000001 0.39583333333333337 0.39583333333333337 0.39583333333333337 0.39583333333333337 0.39583333333333337 0.39583333333333337 0.39583333333333337 0.39583333333333337 0.39583333333333337 0.39583333333333337 0.39583333333333337 0.39583333333333337 0.39583333333333337 0.3658333333333333 0.3483333333333334 0.33 0.31833333333333336 0.3033333333333333 0.2383333333333333 0.225 0.21666666666666667 0.21416666666666664 0.21333333333333326 0.21 0.2075 0.2025 0.19666666666666666 0.19166666666666665 0.17833333333333334 0.1725 0.16166666666666665 0.14916666666666667 0.13749999999999996 0.1166666666666667 0.11333333333333327 0.11166666666666668 0.11083333333333334,599.7999999999884 619.7999999999884 639.7999999999884 659.7999999999884 679.7999999999884 699.7999999999884 719.7999999999884 739.7999999999884 759.7999999999884 779.7999999999884 799.7999999999884 819.7999999999884 839.7999999999884 859.7999999999884 879.7999999999884 899.7999999999884 919.7999999999884 939.7999999999884 959.7999999999884 979.7999999999884 999.7999999999884 1019.7999999999884 1039.7999999999884 1059.7999999999884 1079.7999999999884 1099.7999999999884 1119.7999999999884 1139.7999999999886 1159.7999999999886 1179.7999999999886 1199.7999999999886 1219.7999999999886 1239.7999999999886 1259.7999999999886 1279.7999999999886 1299.7999999999886 1319.7999999999886 1339.7999999999886 1359.7999999999886 1379.7999999999884 1399.7999999999884 1419.7999999999884 1439.7999999999884 1459.7999999999884 1479.7999999999884 1499.7999999999884 1519.7999999999884 1539.7999999999884 1559.7999999999884
cb_03,30.0,enc_trial,stim,response,Iceland trip,2151.7000000029802,enc_trial,1.0,30.0,t_s_22_1,travel_shared,fold-a-single,belt,3.0,competing,,single,t_s_22_1.jpg,,travel-b1,Iceland trip,Miami trip,sub-84,1.0,,1.0,,0.5046875 0.5084375 0.5109375 0.5153125 0.5196875 0.5321875 0.5409375 0.5465625 0.5521875 0.5565625 0.5665625 0.5709375 0.5784375 0.5815625 0.5884375 0.5909375 0.5909375 0.5909375 0.5909375 0.5909375 0.5909375 0.5909375 0.5909375 0.5909375 0.5909375 0.5909375 0.5909375 0.5909375 0.5909375 0.5909375 0.5909375 0.5909375 0.5909375 0.5909375 0.5909375 0.5909375 0.5909375 0.5778125 0.5253125 0.4559375 0.2553125 0.1878125 0.1440625 0.1209375 0.1209375 0.1209375 0.1209375 0.1209375 0.1209375 0.1209375 0.1209375 0.1209375 0.1209375 0.1209375 0.1209375 0.1209375 0.1209375 0.1240625 0.1271875 0.1290625 0.1340625 0.1353125 0.1353125 0.1359375 0.1365625 0.1378125 0.1378125,0.8133333333333334 0.8058333333333334 0.7975 0.79 0.7791666666666667 0.7491666666666666 0.7266666666666667 0.7116666666666667 0.6916666666666667 0.675 0.6316666666666666 0.6125 0.5816666666666667 0.5725 0.5475 0.5433333333333333 0.5433333333333333 0.5433333333333333 0.5433333333333333 0.5433333333333333 0.5433333333333333 0.5433333333333333 0.5433333333333333 0.5433333333333333 0.5433333333333333 0.5433333333333333 0.5433333333333333 0.5433333333333333 0.5433333333333333 0.5433333333333333 0.5433333333333333 0.5433333333333333 0.5433333333333333 0.5433333333333333 0.5433333333333333 0.5433333333333333 0.5433333333333333 0.5366666666666666 0.5083333333333333 0.4766666666666667 0.35750000000000004 0.3041666666666667 0.2616666666666667 0.23750000000000004 0.23750000000000004 0.23750000000000004 0.23750000000000004 0.23750000000000004 0.23750000000000004 0.23750000000000004 0.23750000000000004 0.23750000000000004 0.23750000000000004 0.23750000000000004 0.23750000000000004 0.23750000000000004 0.2333333333333333 0.21833333333333327 0.2058333333333333 0.1941666666666667 0.17333333333333334 0.16833333333333333 0.16666666666666666 0.1658333333333334 0.16500000000000006 0.16333333333333333 0.16249999999999998,599.5999999999767 619.5999999999767 639.5999999999767 659.5999999999767 679.5999999999767 699.5999999999768 719.5999999999768 739.5999999999768 759.5999999999768 779.5999999999768 799.5999999999768 819.5999999999768 839.5999999999768 859.5999999999768 879.5999999999768 899.5999999999768 919.5999999999768 939.5999999999768 959.5999999999768 979.5999999999768 999.5999999999768 1019.5999999999768 1039.5999999999767 1059.5999999999767 1079.5999999999767 1099.5999999999767 1119.5999999999767 1139.5999999999767 1159.5999999999767 1179.5999999999767 1199.5999999999767 1219.5999999999767 1239.5999999999767 1259.5999999999767 1279.5999999999767 1299.5999999999767 1319.5999999999767 1339.5999999999767 1359.5999999999767 1379.5999999999767 1399.5999999999767 1419.5999999999767 1439.5999999999767 1459.5999999999767 1479.5999999999767 1499.5999999999767 1519.5999999999767 1539.5999999999767 1559.5999999999767 1579.5999999999767 1599.5999999999767 1619.5999999999767 1639.5999999999767 1659.5999999999767 1679.5999999999767 1699.5999999999767 1719.5999999999767 1739.5999999999767 1759.5999999999767 1779.5999999999767 1799.5999999999767 1819.5999999999767 1839.5999999999767 1859.5999999999767 1879.5999999999767 1899.5999999999767 1919.5999999999767
cb_03,31.0,enc_trial,stim,response,Miami trip,2451.799999998533,enc_trial,1.0,31.0,t_s_12_1,travel_shared,fold-b,clear toiletry bag,3.0,competing,close,paired,t_s_12_1.jpg,,travel-b1,Iceland trip,Miami trip,sub-84,0.0,0.0,1.0,1.0,0.5046875 0.5084375 0.5128125 0.5159375 0.5171875 0.5196875 0.5209375 0.5221875 0.5228125 0.5234375 0.5234375 0.5246875 0.5253125 0.5271875 0.5296875 0.5340625 0.5359375 0.5365625 0.5378125 0.5440625 0.5840625 0.6128125 0.6353125 0.6421875 0.6428125 0.6428125 0.6428125 0.6428125 0.6428125 0.6428125 0.6428125 0.6428125 0.6428125 0.6428125 0.6428125 0.6428125 0.6428125 0.6428125 0.6428125 0.6428125 0.6428125 0.6428125 0.6428125 0.6428125 0.6428125 0.6428125 0.6428125 0.7040625 0.7434375 0.7715625 0.8021875 0.8059375 0.8065625 0.8071875 0.8071875 0.8053125 0.8053125 0.8053125 0.8053125 0.8053125 0.8053125 0.8053125 0.8053125 0.8053125 0.8053125 0.8053125 0.8053125 0.8053125 0.8053125 0.8053125 0.8065625 0.8146875 0.8271875 0.8371875 0.8509375 0.8634375 0.8659375,0.8066666666666666 0.7983333333333333 0.7858333333333334 0.7791666666666667 0.7766666666666666 0.7683333333333333 0.765 0.7625 0.7608333333333334 0.7583333333333333 0.7583333333333333 0.7533333333333333 0.7525 0.74 0.7316666666666667 0.7050000000000001 0.6908333333333334 0.6566666666666667 0.615 0.5583333333333333 0.3975 0.33333333333333337 0.29666666666666663 0.2883333333333333 0.2875 0.2875 0.2875 0.2875 0.2875 0.2875 0.2875 0.2875 0.2875 0.2875 0.2875 0.2875 0.2875 0.2875 0.2875 0.2875 0.2875 0.2875 0.2875 0.2875 0.2875 0.2875 0.2875 0.2316666666666667 0.1908333333333333 0.16249999999999998 0.1316666666666667 0.1266666666666667 0.12416666666666665 0.1233333333333333 0.12416666666666665 0.12749999999999995 0.12749999999999995 0.12749999999999995 0.12749999999999995 0.12749999999999995 0.12749999999999995 0.12749999999999995 0.12749999999999995 0.12749999999999995 0.12749999999999995 0.12749999999999995 0.12749999999999995 0.12749999999999995 0.12749999999999995 0.12749999999999995 0.12749999999999995 0.125 0.12250000000000005 0.12250000000000005 0.1233333333333333 0.12416666666666665 0.12416666666666665,766.0 786.0 806.0 826.0 846.0 866.0 886.0 906.0 926.0 946.0 966.0 986.0 1006.0 1026.0 1046.0 1066.0 1086.0 1106.0 1126.0 1146.0 1166.0 1186.0 1206.0 1226.0 1246.0 1266.0 1286.0 1306.0 1326.0 1346.0 1366.0 1386.0 1406.0 1426.0 1446.0 1466.0 1486.0 1506.0 1526.0 1546.0 1566.0 1586.0 1606.0 1626.0 1646.0 1666.0 1686.0 1706.0 1726.0 1746.0 1766.0 1786.0 1806.0 1826.0 1846.0 1866.0 1886.0 1906.0 1926.0 1946.0 1966.0 1986.0 2006.0 2026.0 2046.0 2066.0 2086.0 2106.0 2126.0 2146.0 2166.0 2186.0 2206.0 2226.0 2246.0 2266.0 2286.0
cb_03,32.0,enc_trial,stim,response,Miami trip,1422.5999999970081,enc_trial,1.0,32.0,t_m_17_2,travel_Miami,fold-a,water gun,3.0,unique,far,paired,t_m_17_2.jpg,Miami,travel-b1,Iceland trip,Miami trip,sub-84,1.0,1.0,1.0,1.0,0.5065625 0.5209375 0.5371875 0.5603125 0.6146875 0.7121875 0.7440625 0.7628125 0.7628125 0.7628125 0.7628125 0.7628125 0.7628125 0.7628125 0.7628125 0.7628125 0.7628125 0.7628125 0.7628125 0.7659375 0.7778125 0.7871875 0.7959375 0.8071875 0.8190625 0.8434375 0.8503125 0.8546875 0.8690625 0.8746875 0.8821875,0.8241666666666667 0.7541666666666667 0.7058333333333333 0.6525000000000001 0.5449999999999999 0.3391666666666666 0.2625 0.2083333333333333 0.2083333333333333 0.2083333333333333 0.2083333333333333 0.2083333333333333 0.2083333333333333 0.2083333333333333 0.2083333333333333 0.2083333333333333 0.2083333333333333 0.2083333333333333 0.2083333333333333 0.2025 0.1775 0.16333333333333333 0.15500000000000005 0.14583333333333334 0.13583333333333336 0.1233333333333333 0.1216666666666667 0.1216666666666667 0.125 0.1266666666666667 0.12916666666666665,616.3999999999653 636.3999999999653 656.3999999999653 676.3999999999653 696.3999999999652 716.3999999999652 736.3999999999652 756.3999999999652 776.3999999999652 796.3999999999652 816.3999999999652 836.3999999999652 856.3999999999652 876.3999999999652 896.3999999999652 916.3999999999652 936.3999999999652 956.3999999999652 976.3999999999652 996.3999999999652 1016.3999999999652 1036.3999999999653 1056.3999999999653 1076.3999999999653 1096.3999999999653 1116.3999999999653 1136.3999999999653 1156.3999999999653 1176.3999999999653 1196.3999999999653 1216.3999999999653
cb_03,33.0,enc_trial,stim,response,Iceland trip,1265.0,enc_trial,1.0,33.0,t_i_02_2,travel_Iceland,fold-e,scarf,3.0,unique,close,paired,t_i_02_2.jpg,Iceland,travel-b1,Iceland trip,Miami trip,sub-84,1.0,1.0,1.0,1.0,0.5009375 0.5021875 0.5028125 0.5040625 0.5096875 0.5153125 0.5278125 0.5471875 0.5553125 0.5628125 0.5721875 0.5709375 0.5609375 0.5440625 0.5196875 0.3821875 0.3065625 0.2421875 0.1946875 0.1603125 0.1603125 0.1603125 0.1603125 0.1603125 0.1603125 0.1603125 0.1603125 0.1603125 0.1603125 0.1603125 0.1603125 0.1603125 0.1603125 0.1603125 0.1553125 0.1484375 0.1465625,0.8241666666666667 0.8208333333333333 0.8158333333333333 0.8058333333333334 0.7858333333333334 0.7708333333333334 0.7333333333333334 0.6683333333333333 0.6283333333333334 0.585 0.5158333333333334 0.5016666666666667 0.4816666666666667 0.4683333333333334 0.45 0.355 0.2958333333333333 0.2366666666666667 0.1908333333333333 0.15333333333333332 0.15333333333333332 0.15333333333333332 0.15333333333333332 0.15333333333333332 0.15333333333333332 0.15333333333333332 0.15333333333333332 0.15333333333333332 0.15333333333333332 0.15333333333333332 0.15333333333333332 0.15333333333333332 0.15333333333333332 0.15333333333333332 0.15249999999999994 0.15166666666666662 0.15249999999999994,349.90000000002334 369.90000000002334 389.90000000002334 409.90000000002334 429.90000000002334 449.90000000002334 469.90000000002334 489.90000000002334 509.90000000002334 529.9000000000234 549.9000000000234 569.9000000000233 589.9000000000233 609.9000000000233 629.9000000000233 649.9000000000233 669.9000000000233 689.9000000000232 709.9000000000232 729.9000000000232 749.9000000000232 769.9000000000232 789.9000000000232 809.9000000000232 829.9000000000232 849.9000000000232 869.9000000000232 889.9000000000232 909.9000000000232 929.9000000000232 949.9000000000232 969.9000000000232 989.9000000000232 1009.9000000000232 1029.9000000000233 1049.9000000000233 1069.9000000000233
cb_03,34.0,enc_trial,stim,response,Miami trip,1411.8000000015018,enc_trial,1.0,34.0,t_s_12_2,travel_shared,fold-b,clear toiletry bag,3.0,competing,close,paired,t_s_12_2.jpg,,travel-b1,Iceland trip,Miami trip,sub-84,0.0,0.0,1.0,1.0,0.5159375 0.5278125 0.5415625 0.5646875 0.5778125 0.6009375 0.6490625 0.6690625 0.6853125 0.6990625 0.6990625 0.6990625 0.6990625 0.6990625 0.6990625 0.6990625 0.6990625 0.6990625 0.6990625 0.6990625 0.6990625 0.7234375 0.7565625 0.7896875 0.8190625 0.8315625 0.8596875 0.8715625 0.8746875 0.8759375 0.8771875 0.8778125,0.8200000000000001 0.7875 0.7483333333333333 0.6808333333333334 0.63 0.5375 0.38916666666666666 0.335 0.2941666666666667 0.26416666666666666 0.26416666666666666 0.26416666666666666 0.26416666666666666 0.26416666666666666 0.26416666666666666 0.26416666666666666 0.26416666666666666 0.26416666666666666 0.26416666666666666 0.26416666666666666 0.26416666666666666 0.25583333333333336 0.2416666666666667 0.2275000000000001 0.21333333333333326 0.205 0.17833333333333334 0.16500000000000006 0.16083333333333338 0.15833333333333333 0.15749999999999995 0.15749999999999995,616.1000000000347 636.1000000000347 656.1000000000347 676.1000000000347 696.1000000000348 716.1000000000348 736.1000000000348 756.1000000000348 776.1000000000348 796.1000000000348 816.1000000000348 836.1000000000348 856.1000000000348 876.1000000000348 896.1000000000348 916.1000000000348 936.1000000000348 956.1000000000348 976.1000000000348 996.1000000000348 1016.1000000000348 1036.1000000000347 1056.1000000000347 1076.1000000000347 1096.1000000000347 1116.1000000000347 1136.1000000000347 1156.1000000000347 1176.1000000000347 1196.1000000000347 1216.1000000000347 1236.1000000000347
cb_03,35.0,enc_trial,stim,response,Iceland trip,1212.6000000014901,enc_trial,1.0,35.0,t_i_13_2,travel_Iceland,fold-a,sleeping bag,3.0,unique,far,paired,t_i_13_2.jpg,Iceland,travel-b1,Iceland trip,Miami trip,sub-84,1.0,1.0,1.0,1.0,0.4990625 0.4915625 0.4778125 0.4584375 0.4146875 0.3365625 0.2859375 0.2584375 0.2396875 0.2240625 0.2109375 0.2059375 0.1984375 0.1934375 0.1865625 0.1715625 0.1659375 0.1609375 0.1559375 0.1540625 0.1503125 0.1484375 0.1478125 0.1459375 0.1440625 0.1421875,0.8033333333333333 0.7883333333333333 0.765 0.7316666666666667 0.6616666666666666 0.54 0.4575 0.4141666666666667 0.3866666666666667 0.365 0.3491666666666666 0.3433333333333334 0.335 0.325 0.3133333333333333 0.28500000000000003 0.2716666666666666 0.26 0.24416666666666664 0.2333333333333333 0.21416666666666664 0.20166666666666666 0.19666666666666666 0.1908333333333333 0.18500000000000005 0.1725,533.0999999999766 553.0999999999766 573.0999999999766 593.0999999999766 613.0999999999766 633.0999999999766 653.0999999999766 673.0999999999766 693.0999999999766 713.0999999999766 733.0999999999766 753.0999999999766 773.0999999999766 793.0999999999766 813.0999999999766 833.0999999999766 853.0999999999766 873.0999999999766 893.0999999999766 913.0999999999766 933.0999999999766 953.0999999999766 973.0999999999766 993.0999999999766 1013.0999999999766 1033.0999999999767
cb_03,36.0,enc_trial,stim,response,Miami trip,1287.0000000029684,enc_trial,1.0,36.0,t_s_21_1,travel_shared,fold-b,umbrella,3.0,competing,close,paired,t_s_21_1.jpg,,travel-b1,Iceland trip,Miami trip,sub-84,0.0,0.0,1.0,1.0,0.5009375 0.5221875 0.5553125 0.5771875 0.6115625 0.6596875 0.6784375 0.6784375 0.6784375 0.6784375 0.6784375 0.6784375 0.6784375 0.6784375 0.6784375 0.6784375 0.6784375 0.6878125 0.7184375 0.7534375 0.8171875 0.8434375 0.8534375 0.8596875 0.8621875 0.8671875 0.8678125,0.845 0.8049999999999999 0.7275 0.665 0.5458333333333334 0.3683333333333333 0.31000000000000005 0.31000000000000005 0.31000000000000005 0.31000000000000005 0.31000000000000005 0.31000000000000005 0.31000000000000005 0.31000000000000005 0.31000000000000005 0.31000000000000005 0.31000000000000005 0.3041666666666667 0.2833333333333333 0.265 0.22166666666666668 0.19833333333333336 0.18999999999999995 0.18333333333333326 0.1808333333333333 0.1775 0.1775,567.2000000000116 587.2000000000116 607.2000000000116 627.2000000000116 647.2000000000116 667.2000000000116 687.2000000000116 707.2000000000116 727.2000000000116 747.2000000000116 767.2000000000116 787.2000000000116 807.2000000000116 827.2000000000116 847.2000000000116 867.2000000000116 887.2000000000116 907.2000000000116 927.2000000000116 947.2000000000116 967.2000000000116 987.2000000000116 1007.2000000000116 1027.2000000000116 1047.2000000000116 1067.2000000000116 1087.2000000000116
cb_03,37.0,enc_trial,stim,response,Miami trip,1831.8999999999646,enc_trial,1.0,37.0,t_s_08_1,travel_shared,fold-a-single,hand lotion,3.0,competing,,single,t_s_08_1.jpg,,travel-b1,Iceland trip,Miami trip,sub-84,1.0,,1.0,,0.4934375 0.4946875 0.4971875 0.4978125 0.4984375 0.4984375 0.4984375 0.4984375 0.4984375 0.5034375 0.5234375 0.5409375 0.5690625 0.6096875 0.6753125 0.7240625 0.7240625 0.7240625 0.7240625 0.7240625 0.7240625 0.7240625 0.7240625 0.7240625 0.7240625 0.7240625 0.7240625 0.7278125 0.7396875 0.7528125 0.7846875 0.7971875 0.8146875 0.8228125 0.8296875 0.8365625 0.8396875 0.8415625 0.8434375 0.8459375 0.8484375 0.8490625 0.8509375 0.8540625 0.8546875 0.8615625,0.7908333333333333 0.785 0.78 0.775 0.7733333333333333 0.7733333333333333 0.7725 0.7725 0.7716666666666667 0.7575000000000001 0.7033333333333334 0.6558333333333333 0.595 0.5083333333333333 0.3733333333333333 0.275 0.275 0.275 0.275 0.275 0.275 0.275 0.275 0.275 0.275 0.275 0.275 0.2666666666666667 0.245 0.22333333333333336 0.17000000000000004 0.15166666666666662 0.12916666666666665 0.11916666666666666 0.11166666666666668 0.10750000000000004 0.10750000000000004 0.10833333333333328 0.11083333333333334 0.11416666666666665 0.1216666666666667 0.1233333333333333 0.12749999999999995 0.13083333333333336 0.1316666666666667 0.1383333333333333,749.7999999999884 769.7999999999884 789.7999999999884 809.7999999999884 829.7999999999884 849.7999999999884 869.7999999999884 889.7999999999884 909.7999999999884 929.7999999999884 949.7999999999884 969.7999999999884 989.7999999999884 1009.7999999999884 1029.7999999999884 1049.7999999999884 1069.7999999999884 1089.7999999999884 1109.7999999999884 1129.7999999999886 1149.7999999999886 1169.7999999999886 1189.7999999999886 1209.7999999999886 1229.7999999999886 1249.7999999999886 1269.7999999999886 1289.7999999999886 1309.7999999999886 1329.7999999999886 1349.7999999999886 1369.7999999999886 1389.7999999999884 1409.7999999999884 1429.7999999999884 1449.7999999999884 1469.7999999999884 1489.7999999999884 1509.7999999999884 1529.7999999999884 1549.7999999999884 1569.7999999999884 1589.7999999999884 1609.7999999999884 1629.7999999999884 1649.7999999999884
cb_03,38.0,enc_trial,stim,response,Miami trip,1814.6999999999528,enc_trial,1.0,38.0,t_m_16_1,travel_Miami,fold-b-single,flippers,3.0,unique,,single,t_m_16_1.jpg,Miami,travel-b1,Iceland trip,Miami trip,sub-84,1.0,,1.0,,0.4965625 0.4990625 0.5003125 0.5028125 0.5071875 0.5190625 0.5321875 0.5396875 0.5465625 0.5528125 0.5621875 0.5653125 0.5671875 0.5684375 0.5715625 0.6259375 0.6728125 0.7153125 0.7784375 0.8090625 0.8346875 0.8346875 0.8346875 0.8346875 0.8346875 0.8346875 0.8346875 0.8346875 0.8346875 0.8346875 0.8346875 0.8346875 0.8346875 0.8446875 0.8728125 0.9040625 0.9096875 0.9109375 0.9109375 0.9115625 0.9115625 0.9109375 0.9103125 0.9103125 0.9103125 0.9059375 0.9046875 0.9034375 0.9021875 0.9021875 0.9009375,0.8183333333333334 0.81 0.8041666666666667 0.7975 0.7775 0.7391666666666667 0.6991666666666667 0.6708333333333334 0.6458333333333333 0.6266666666666667 0.5958333333333333 0.5875 0.5791666666666666 0.5725 0.5641666666666667 0.4733333333333334 0.4025 0.34 0.2433333333333333 0.19499999999999995 0.14583333333333334 0.14583333333333334 0.14583333333333334 0.14583333333333334 0.14583333333333334 0.14583333333333334 0.14583333333333334 0.14583333333333334 0.14583333333333334 0.14583333333333334 0.14583333333333334 0.14583333333333334 0.14583333333333334 0.1383333333333333 0.11416666666666665 0.08916666666666663 0.08583333333333333 0.08499999999999996 0.08499999999999996 0.08499999999999996 0.08583333333333333 0.08833333333333337 0.08999999999999997 0.09083333333333332 0.09083333333333332 0.09750000000000003 0.10166666666666667 0.1033333333333334 0.10416666666666664 0.10499999999999997 0.10583333333333332,616.2000000000116 636.2000000000116 656.2000000000116 676.2000000000116 696.2000000000116 716.2000000000116 736.2000000000116 756.2000000000116 776.2000000000116 796.2000000000116 816.2000000000116 836.2000000000116 856.2000000000116 876.2000000000116 896.2000000000116 916.2000000000116 936.2000000000116 956.2000000000116 976.2000000000116 996.2000000000116 1016.2000000000116 1036.2000000000116 1056.2000000000116 1076.2000000000116 1096.2000000000116 1116.2000000000116 1136.2000000000114 1156.2000000000114 1176.2000000000114 1196.2000000000114 1216.2000000000114 1236.2000000000114 1256.2000000000114 1276.2000000000114 1296.2000000000114 1316.2000000000114 1336.2000000000114 1356.2000000000114 1376.2000000000116 1396.2000000000116 1416.2000000000116 1436.2000000000116 1456.2000000000116 1476.2000000000116 1496.2000000000116 1516.2000000000116 1536.2000000000116 1556.2000000000116 1576.2000000000116 1596.2000000000116 1616.2000000000116
cb_03,39.0,enc_trial,stim,response,Miami trip,1400.7999999970193,enc_trial,1.0,39.0,t_s_21_2,travel_shared,fold-b,umbrella,3.0,competing,close,paired,t_s_21_2.jpg,,travel-b1,Iceland trip,Miami trip,sub-84,0.0,0.0,1.0,1.0,0.4903125 0.4903125 0.4903125 0.4896875 0.4871875 0.4865625 0.4909375 0.4946875 0.4996875 0.5040625 0.5115625 0.5121875 0.5128125 0.5146875 0.5159375 0.5815625 0.6215625 0.6215625 0.7184375 0.7559375 0.7696875 0.7853125 0.7865625 0.7865625 0.7865625 0.7865625 0.7865625 0.7865625 0.7865625 0.7865625 0.7865625 0.7865625 0.7865625 0.7971875 0.8059375 0.8196875 0.8296875 0.8365625 0.8421875 0.8465625 0.8521875 0.8534375 0.8540625,0.8216666666666667 0.81 0.7966666666666666 0.78 0.7575000000000001 0.7408333333333333 0.6991666666666667 0.685 0.6683333333333333 0.65 0.6025 0.5875 0.5766666666666667 0.5700000000000001 0.5658333333333334 0.4975000000000001 0.4575 0.4575 0.35250000000000004 0.3025 0.2816666666666666 0.24916666666666665 0.245 0.245 0.245 0.245 0.245 0.245 0.245 0.245 0.245 0.245 0.245 0.22166666666666668 0.20666666666666667 0.18166666666666664 0.16333333333333333 0.15249999999999994 0.14583333333333334 0.14 0.13749999999999996 0.13749999999999996 0.13749999999999996,383.09999999997666 403.09999999997666 423.09999999997666 443.09999999997666 463.09999999997666 483.09999999997666 503.09999999997666 523.0999999999766 543.0999999999766 563.0999999999767 583.0999999999767 603.0999999999767 623.0999999999767 643.0999999999767 663.0999999999767 683.0999999999767 703.0999999999768 723.0999999999768 743.0999999999768 763.0999999999768 783.0999999999768 803.0999999999768 823.0999999999768 843.0999999999768 863.0999999999768 883.0999999999768 903.0999999999768 923.0999999999768 943.0999999999768 963.0999999999768 983.0999999999768 1003.0999999999768 1023.0999999999768 1043.0999999999767 1063.0999999999767 1083.0999999999767 1103.0999999999767 1123.0999999999767 1143.0999999999767 1163.0999999999767 1183.0999999999767 1203.0999999999767 1223.0999999999767
cb_03,40.0,enc_trial,stim,response,Miami trip,1623.2999999970193,enc_trial,1.0,40.0,t_s_10_1,travel_shared,fold-c,luggage lock,3.0,competing,far,paired,t_s_10_1.jpg,,travel-b1,Iceland trip,Miami trip,sub-84,1.0,1.0,0.0,0.0,0.4903125 0.4915625 0.4928125 0.4934375 0.4946875 0.4971875 0.4984375 0.4990625 0.4990625 0.4996875 0.5009375 0.5028125 0.5028125 0.5034375 0.5034375 0.5034375 0.5034375 0.5034375 0.5040625 0.5040625 0.5046875 0.5065625 0.5071875 0.5084375 0.5084375 0.5090625 0.5090625 0.5090625 0.5096875 0.5109375 0.5159375 0.5353125 0.5496875 0.5665625 0.5821875 0.6153125 0.6221875 0.6565625 0.6653125 0.6715625 0.6759375 0.6759375 0.6759375 0.6759375 0.6759375 0.6759375 0.6759375 0.6759375 0.6759375 0.6759375 0.6759375 0.6759375 0.6759375 0.6759375 0.6759375 0.7534375 0.8053125 0.8496875 0.8915625 0.9053125 0.9178125 0.9184375 0.9184375 0.9159375,0.81 0.8041666666666667 0.7991666666666667 0.7958333333333334 0.7933333333333333 0.7866666666666666 0.7858333333333334 0.7825 0.7808333333333333 0.7783333333333333 0.7708333333333334 0.7666666666666666 0.765 0.7633333333333333 0.7625 0.7616666666666667 0.7608333333333334 0.7608333333333334 0.7608333333333334 0.7608333333333334 0.7575000000000001 0.755 0.7525 0.7491666666666666 0.7491666666666666 0.7483333333333333 0.7475 0.7475 0.7458333333333333 0.74 0.7275 0.6683333333333333 0.6225 0.5700000000000001 0.5191666666666667 0.4141666666666667 0.395 0.31000000000000005 0.29166666666666663 0.2791666666666667 0.27 0.27 0.27 0.27 0.27 0.27 0.27 0.27 0.27 0.27 0.27 0.27 0.27 0.27 0.27 0.2025 0.16333333333333333 0.1333333333333333 0.11333333333333327 0.10583333333333332 0.09833333333333336 0.09833333333333336 0.09833333333333336 0.09833333333333336,167.29999999998842 187.29999999998842 207.29999999998842 227.29999999998842 247.29999999998842 267.2999999999884 287.29999999998836 307.29999999998836 327.29999999998836 347.2999999999884 367.2999999999884 387.2999999999884 407.2999999999884 427.2999999999884 447.2999999999884 467.2999999999884 487.2999999999884 507.2999999999884 527.2999999999884 547.2999999999884 567.2999999999884 587.2999999999884 607.2999999999884 627.2999999999884 647.2999999999884 667.2999999999884 687.2999999999884 707.2999999999884 727.2999999999884 747.2999999999884 767.2999999999884 787.2999999999884 807.2999999999884 827.2999999999884 847.2999999999884 867.2999999999884 887.2999999999884 907.2999999999884 927.2999999999884 947.2999999999884 967.2999999999884 987.2999999999884 1007.2999999999884 1027.2999999999884 1047.2999999999884 1067.2999999999884 1087.2999999999884 1107.2999999999884 1127.2999999999886 1147.2999999999886 1167.2999999999886 1187.2999999999886 1207.2999999999886 1227.2999999999886 1247.2999999999886 1267.2999999999886 1287.2999999999886 1307.2999999999886 1327.2999999999886 1347.2999999999886 1367.2999999999886 1387.2999999999884 1407.2999999999884 1427.2999999999884
cb_03,41.0,enc_trial,stim,response,Fine Arts students,1722.1999999984982,enc_trial,2.0,1.0,s_a_09_1,student_art,fold-e,picture frame,3.0,unique,close,paired,s_a_09_1.jpg,art,student-b1,STEM students,Fine Arts students,sub-84,1.0,1.0,1.0,1.0,0.5021875 0.5040625 0.5046875 0.5046875 0.5053125 0.5096875 0.5215625 0.5378125 0.5615625 0.5984375 0.7146875 0.7509375 0.7771875 0.7946875 0.8009375 0.8059375 0.8059375 0.8059375 0.8065625 0.8090625 0.8178125 0.8234375 0.8296875 0.8340625 0.8340625 0.8340625 0.8340625 0.8340625 0.8340625 0.8340625 0.8340625 0.8340625 0.8340625 0.8340625 0.8340625 0.8446875 0.8659375 0.8753125 0.8809375 0.8846875 0.8853125 0.8853125 0.8853125 0.8853125 0.8846875,0.8641666666666666 0.8475 0.8391666666666666 0.8325 0.8225 0.7683333333333333 0.7 0.6433333333333333 0.5858333333333333 0.52 0.38083333333333336 0.3458333333333333 0.32166666666666666 0.30666666666666664 0.3025 0.2991666666666667 0.2991666666666667 0.2991666666666667 0.2991666666666667 0.2975 0.2883333333333333 0.2816666666666666 0.2725 0.26583333333333337 0.26583333333333337 0.26583333333333337 0.26583333333333337 0.26583333333333337 0.26583333333333337 0.26583333333333337 0.26583333333333337 0.26583333333333337 0.26583333333333337 0.26583333333333337 0.26583333333333337 0.23916666666666664 0.18500000000000005 0.15666666666666662 0.13916666666666666 0.1283333333333333 0.12250000000000005 0.1216666666666667 0.1216666666666667 0.12083333333333335 0.12083333333333335,367.2999999999884 387.2999999999884 407.2999999999884 427.2999999999884 447.2999999999884 467.2999999999884 487.2999999999884 507.2999999999884 527.2999999999884 547.2999999999884 567.2999999999884 587.2999999999884 607.2999999999884 627.2999999999884 647.2999999999884 667.2999999999884 687.2999999999884 707.2999999999884 727.2999999999884 747.2999999999884 767.2999999999884 787.2999999999884 807.2999999999884 827.2999999999884 847.2999999999884 867.2999999999884 887.2999999999884 907.2999999999884 927.2999999999884 947.2999999999884 967.2999999999884 987.2999999999884 1007.2999999999884 1027.2999999999884 1047.2999999999884 1067.2999999999884 1087.2999999999884 1107.2999999999884 1127.2999999999886 1147.2999999999886 1167.2999999999886 1187.2999999999886 1207.2999999999886 1227.2999999999886 1247.2999999999886
cb_03,42.0,enc_trial,stim,response,STEM students,2229.4000000014785,enc_trial,2.0,2.0,s_s_17_2,student_stem,fold-e,ring stand,3.0,unique,close,paired,s_s_17_2.jpg,stem,student-b1,STEM students,Fine Arts students,sub-84,1.0,1.0,1.0,1.0,0.5046875 0.5046875 0.5046875 0.5053125 0.5059375 0.5065625 0.5071875 0.5084375 0.5084375 0.5084375 0.5121875 0.5159375 0.5221875 0.5284375 0.5365625 0.5559375 0.5628125 0.5709375 0.5784375 0.5896875 0.5984375 0.6228125 0.6278125 0.6421875 0.6465625 0.6465625 0.6465625 0.6465625 0.6465625 0.6465625 0.6465625 0.6465625 0.6465625 0.6465625 0.6465625 0.6465625 0.6465625 0.6465625 0.6465625 0.6465625 0.6359375 0.5803125 0.5346875 0.4878125 0.4440625 0.3803125 0.3671875 0.3571875 0.3503125 0.3478125 0.3384375 0.3340625 0.3271875 0.3196875 0.3028125 0.2746875 0.2590625 0.2421875 0.2340625 0.2271875 0.2096875 0.2046875 0.1978125 0.1846875 0.1746875 0.1534375 0.1409375 0.1340625 0.1278125 0.1196875 0.1146875 0.1128125 0.1121875 0.1121875 0.1115625,0.8308333333333333 0.8200000000000001 0.81 0.7975 0.785 0.78 0.7708333333333334 0.7658333333333334 0.7608333333333334 0.755 0.735 0.7216666666666667 0.6975 0.6775 0.6575 0.6158333333333333 0.6016666666666667 0.5858333333333333 0.5700000000000001 0.5449999999999999 0.5275000000000001 0.48 0.4725 0.45 0.4458333333333333 0.4458333333333333 0.4458333333333333 0.4458333333333333 0.4458333333333333 0.4458333333333333 0.4458333333333333 0.4458333333333333 0.4458333333333333 0.4458333333333333 0.4458333333333333 0.4458333333333333 0.4458333333333333 0.4458333333333333 0.4458333333333333 0.4458333333333333 0.44 0.4116666666666666 0.3866666666666667 0.35750000000000004 0.33 0.2908333333333334 0.2833333333333333 0.2783333333333333 0.2733333333333333 0.2716666666666666 0.2633333333333333 0.26 0.25583333333333336 0.25249999999999995 0.2458333333333333 0.2366666666666667 0.2316666666666667 0.2266666666666667 0.22083333333333333 0.21583333333333327 0.20166666666666666 0.19499999999999995 0.18833333333333327 0.17833333333333334 0.17166666666666666 0.16166666666666665 0.15583333333333338 0.15000000000000002 0.14583333333333334 0.14 0.13583333333333336 0.13583333333333336 0.13583333333333336 0.13583333333333336 0.13583333333333336,532.7000000000116 552.7000000000116 572.7000000000116 592.7000000000116 612.7000000000116 632.7000000000116 652.7000000000116 672.7000000000116 692.7000000000116 712.7000000000116 732.7000000000116 752.7000000000116 772.7000000000116 792.7000000000116 812.7000000000116 832.7000000000116 852.7000000000116 872.7000000000116 892.7000000000116 912.7000000000116 932.7000000000116 952.7000000000116 972.7000000000116 992.7000000000116 1012.7000000000116 1032.7000000000116 1052.7000000000116 1072.7000000000116 1092.7000000000116 1112.7000000000116 1132.7000000000114 1152.7000000000114 1172.7000000000114 1192.7000000000114 1212.7000000000114 1232.7000000000114 1252.7000000000114 1272.7000000000114 1292.7000000000114 1312.7000000000114 1332.7000000000114 1352.7000000000114 1372.7000000000114 1392.7000000000116 1412.7000000000116 1432.7000000000116 1452.7000000000116 1472.7000000000116 1492.7000000000116 1512.7000000000116 1532.7000000000116 1552.7000000000116 1572.7000000000116 1592.7000000000116 1612.7000000000116 1632.7000000000116 1652.7000000000116 1672.7000000000116 1692.7000000000116 1712.7000000000116 1732.7000000000116 1752.7000000000116 1772.7000000000116 1792.7000000000116 1812.7000000000119 1832.7000000000119 1852.7000000000119 1872.7000000000119 1892.7000000000119 1912.7000000000119 1932.7000000000119 1952.7000000000119 1972.7000000000119 1992.7000000000119 2012.7000000000119
cb_03,43.0,enc_trial,stim,response,Fine Arts students,1206.2000000029802,enc_trial,2.0,3.0,s_a_03_1,student_art,fold-e,palette,3.0,unique,close,paired,s_a_03_1.jpg,art,student-b1,STEM students,Fine Arts students,sub-84,1.0,1.0,1.0,1.0,0.5034375 0.5053125 0.5059375 0.5071875 0.5084375 0.5084375 0.5090625 0.5090625 0.5090625 0.5090625 0.5090625 0.5090625 0.5109375 0.5128125 0.5159375 0.5403125 0.5528125 0.5690625 0.5934375 0.6040625 0.6884375 0.6884375 0.6884375 0.6884375 0.6884375 0.6884375 0.6884375 0.6884375 0.6884375 0.6884375 0.6884375 0.6884375 0.7084375 0.7484375 0.7709375 0.8121875 0.8253125 0.8303125 0.8315625 0.8346875 0.8409375 0.8459375 0.8490625,0.8383333333333334 0.825 0.815 0.8033333333333333 0.7975 0.795 0.7875 0.7866666666666666 0.785 0.785 0.7825 0.7791666666666667 0.7666666666666666 0.7533333333333333 0.7324999999999999 0.6266666666666667 0.575 0.5291666666666667 0.4666666666666667 0.445 0.3108333333333333 0.3108333333333333 0.3108333333333333 0.3108333333333333 0.3108333333333333 0.3108333333333333 0.3108333333333333 0.3108333333333333 0.3108333333333333 0.3108333333333333 0.3108333333333333 0.3108333333333333 0.2975 0.27083333333333337 0.255 0.21166666666666667 0.19666666666666666 0.1908333333333333 0.18833333333333327 0.18333333333333326 0.17083333333333328 0.16166666666666665 0.15749999999999995,183.0 203.0 223.0 243.0 263.0 283.0 303.0 323.0 343.0 363.0 383.0 403.0 423.0 443.0 463.0 483.0 503.0 523.0 543.0 563.0 583.0 603.0 623.0 643.0 663.0 683.0 703.0 723.0 743.0 763.0 783.0 803.0 823.0 843.0 863.0 883.0 903.0 923.0 943.0 963.0 983.0 1003.0 1023.0
