Current Spreadsheet,Trial Number,Display,Screen,Response Type,Response,Reaction Time,display,block,block_trial,stimulus_id,expected_goal,fold,stimulus_name,c_group,condition,within_block_dist,paired_status,stimulus_path,expected_location,block_split,respStim_1,respStim_2,sub_label,acc,both_enc_acc,assoc_stim1_acc,assoc_stim2_acc,x_pos,y_pos,time_trajectories
cb_03,1.0,enc_trial,stim,response,Iceland trip,1521.1999999910622,enc_trial,1.0,1.0,t_i_20_1,travel_Iceland,fold-b-single,lantern,3.0,unique,,single,t_i_20_1.jpg,Iceland,travel-b1,Iceland trip,Miami trip,sub-42,1.0,,1.0,,0.5 0.5 0.5 0.5 0.5 0.5061643835616438 0.5143835616438356 0.5205479452054794 0.5205479452054794 0.5215753424657534 0.5082191780821917 0.4917808219178082 0.465068493150685 0.4291095890410959 0.3849315068493151 0.31917808219178084 0.2852739726027397 0.2400684931506849 0.22054794520547946 0.20821917808219176 0.19178082191780824 0.1897260273972603 0.1876712328767124 0.1876712328767124 0.1866438356164384 0.1866438356164384 0.1866438356164384 0.1856164383561644 0.1845890410958904 0.18356164383561646 0.18253424657534248 0.18253424657534248 0.18253424657534248 0.18253424657534248 0.17945205479452056 0.17636986301369864 0.16404109589041094 0.15376712328767125 0.14657534246575346 0.13835616438356166 0.13732876712328768,0.8506849315068493 0.8452054794520548 0.8383561643835616 0.8150684931506851 0.7931506849315069 0.7410958904109589 0.678082191780822 0.6315068493150685 0.5986301369863014 0.5547945205479452 0.4726027397260274 0.4452054794520548 0.4164383561643835 0.3904109589041096 0.363013698630137 0.3082191780821918 0.2767123287671233 0.2301369863013699 0.2095890410958904 0.1931506849315069 0.16027397260273968 0.15479452054794518 0.14931506849315068 0.147945205479452 0.147945205479452 0.147945205479452 0.147945205479452 0.14657534246575346 0.14520547945205475 0.14520547945205475 0.14520547945205475 0.14520547945205475 0.14520547945205475 0.14520547945205475 0.14520547945205475 0.14520547945205475 0.14109589041095896 0.13835616438356169 0.136986301369863 0.13561643835616444 0.13561643835616444,366.6999999999971 386.6999999999971 406.6999999999971 426.6999999999971 446.6999999999971 466.6999999999971 486.6999999999971 506.6999999999971 526.6999999999971 546.6999999999971 566.6999999999971 586.6999999999971 606.6999999999971 626.6999999999971 646.6999999999971 666.6999999999971 686.6999999999971 706.6999999999971 726.6999999999971 746.6999999999971 766.6999999999971 786.6999999999971 806.6999999999971 826.6999999999971 846.6999999999971 866.6999999999971 886.6999999999971 906.6999999999972 926.6999999999972 946.6999999999972 966.6999999999972 986.6999999999972 1006.6999999999972 1026.6999999999969 1046.6999999999969 1066.6999999999969 1086.6999999999969 1106.6999999999969 1126.6999999999969 1146.6999999999969 1166.6999999999969
cb_03,2.0,enc_trial,stim,response,Iceland trip,2041.8999999910595,enc_trial,1.0,2.0,t_s_24_1,travel_shared,fold-c,ear plugs,3.0,competing,far,paired,t_s_24_1.jpg,,travel-b1,Iceland trip,Miami trip,sub-42,0.0,0.0,1.0,1.0,0.5226027397260274 0.5195205479452055 0.497945205479452 0.4589041095890411 0.4085616438356165 0.19897260273972608 0.16404109589041094 0.13835616438356166 0.12500000000000006 0.1178082191780822 0.11678082191780825 0.11575342465753426 0.11369863013698632 0.11164383561643837 0.11164383561643837 0.11164383561643837 0.11164383561643837 0.11164383561643837 0.11164383561643837 0.11164383561643837 0.11164383561643837 0.11267123287671235 0.11369863013698632 0.11369863013698632 0.11369863013698632 0.11369863013698632 0.11369863013698632 0.11369863013698632 0.11369863013698632 0.11369863013698632 0.11369863013698632 0.11472602739726027 0.11472602739726027 0.11472602739726027 0.11472602739726027 0.11472602739726027 0.11472602739726027 0.11472602739726027 0.11472602739726027 0.11472602739726027 0.11472602739726027 0.11472602739726027 0.11472602739726027 0.11472602739726027 0.11472602739726027 0.11472602739726027 0.11472602739726027 0.11472602739726027 0.11472602739726027 0.11472602739726027 0.11575342465753426 0.11678082191780825,0.8191780821917808 0.8082191780821918 0.747945205479452 0.6630136986301369 0.5712328767123287 0.26164383561643834 0.2136986301369863 0.1712328767123288 0.14931506849315068 0.13835616438356169 0.12876712328767126 0.12328767123287675 0.1150684931506849 0.1095890410958904 0.10684931506849316 0.10684931506849316 0.10684931506849316 0.10684931506849316 0.10684931506849316 0.10684931506849316 0.10684931506849316 0.10684931506849316 0.10684931506849316 0.10684931506849316 0.10684931506849316 0.10684931506849316 0.10684931506849316 0.10684931506849316 0.10684931506849316 0.10821917808219184 0.10821917808219184 0.10821917808219184 0.10821917808219184 0.10821917808219184 0.10821917808219184 0.10821917808219184 0.10821917808219184 0.10821917808219184 0.10821917808219184 0.10821917808219184 0.10821917808219184 0.10821917808219184 0.10821917808219184 0.10821917808219184 0.10821917808219184 0.10821917808219184 0.10821917808219184 0.10821917808219184 0.10821917808219184 0.1095890410958904 0.1095890410958904 0.11095890410958907,717.3999999999942 737.3999999999942 757.3999999999942 777.3999999999942 797.3999999999942 817.3999999999942 837.3999999999942 857.3999999999942 877.3999999999942 897.3999999999942 917.3999999999942 937.3999999999942 957.3999999999942 977.3999999999942 997.3999999999942 1017.3999999999942 1037.3999999999942 1057.3999999999942 1077.3999999999942 1097.3999999999942 1117.3999999999942 1137.3999999999942 1157.3999999999942 1177.3999999999942 1197.3999999999942 1217.3999999999942 1237.3999999999942 1257.3999999999942 1277.3999999999942 1297.3999999999942 1317.3999999999942 1337.3999999999942 1357.3999999999942 1377.3999999999942 1397.3999999999942 1417.3999999999942 1437.3999999999942 1457.3999999999942 1477.3999999999942 1497.3999999999942 1517.3999999999942 1537.3999999999942 1557.3999999999942 1577.3999999999942 1597.3999999999942 1617.3999999999942 1637.3999999999942 1657.3999999999942 1677.3999999999942 1697.3999999999942 1717.3999999999942 1737.3999999999942
cb_03,3.0,enc_trial,stim,response,Miami trip,1970.300000002986,enc_trial,1.0,3.0,t_s_02_1,travel_shared,fold-b,water bottle,3.0,competing,close,paired,t_s_02_1.jpg,,travel-b1,Iceland trip,Miami trip,sub-42,1.0,1.0,0.0,1.0,0.5082191780821917 0.5082191780821917 0.5092465753424658 0.5092465753424658 0.5092465753424658 0.5092465753424658 0.5092465753424658 0.5092465753424658 0.5092465753424658 0.5092465753424658 0.5092465753424658 0.5092465753424658 0.5092465753424658 0.5082191780821917 0.5071917808219178 0.5 0.497945205479452 0.497945205479452 0.497945205479452 0.4969178082191781 0.4958904109589041 0.4958904109589041 0.4958904109589041 0.4958904109589041 0.4958904109589041 0.4948630136986301 0.4948630136986301 0.4948630136986301 0.4948630136986301 0.4938356164383562 0.4917808219178082 0.4876712328767123 0.4835616438356165 0.4773972602739726 0.460958904109589 0.4291095890410959 0.4095890410958904 0.3849315068493151 0.3592465753424657 0.3253424657534247 0.3017123287671233 0.2708904109589041 0.2544520547945205 0.2493150684931507 0.24315068493150685 0.238013698630137 0.2277397260273973 0.22157534246575344 0.21746575342465754 0.2154109589041096 0.19897260273972608 0.18869863013698632 0.17534246575342466 0.16609589041095893 0.15684931506849314 0.14760273972602742 0.14349315068493151 0.14246575342465756 0.1404109589041096 0.13938356164383564 0.13938356164383564 0.13938356164383564 0.13938356164383564 0.13938356164383564 0.13938356164383564 0.13938356164383564 0.13938356164383564 0.1404109589041096 0.14143835616438358 0.14246575342465756 0.15068493150684933 0.15787671232876713 0.16609589041095893 0.1969178082191781 0.2493150684931507 0.33458904109589044 0.541095890410959 0.6438356164383562 0.7034246575342467 0.7342465753424658 0.7845890410958904 0.7886986301369864 0.7948630136986302 0.8010273972602739 0.8071917808219179 0.8082191780821918 0.8082191780821918 0.8082191780821918 0.8082191780821918 0.8123287671232877 0.8154109589041096 0.8205479452054795 0.8205479452054795 0.8215753424657535 0.8246575342465754 0.8410958904109591 0.8452054794520548 0.8462328767123288,0.8356164383561644 0.8315068493150685 0.8315068493150685 0.8301369863013699 0.8301369863013699 0.8301369863013699 0.8301369863013699 0.8301369863013699 0.8301369863013699 0.8301369863013699 0.8287671232876712 0.826027397260274 0.8232876712328767 0.8082191780821918 0.7986301369863014 0.7561643835616438 0.7342465753424657 0.7205479452054795 0.7109589041095891 0.7041095890410959 0.6821917808219178 0.6753424657534246 0.6684931506849314 0.6643835616438356 0.6575342465753424 0.6465753424657534 0.6369863013698629 0.6260273972602739 0.6178082191780823 0.6109589041095891 0.5972602739726027 0.5849315068493149 0.5767123287671233 0.5671232876712329 0.5438356164383562 0.4931506849315068 0.4671232876712329 0.4383561643835616 0.410958904109589 0.3794520547945206 0.34931506849315064 0.31095890410958904 0.2863013698630137 0.2767123287671233 0.26712328767123283 0.2589041095890411 0.24520547945205484 0.2383561643835617 0.2342465753424657 0.2315068493150685 0.21095890410958906 0.2 0.18767123287671228 0.17808219178082196 0.16849315068493154 0.15753424657534246 0.15205479452054793 0.14931506849315068 0.14931506849315068 0.147945205479452 0.147945205479452 0.147945205479452 0.147945205479452 0.147945205479452 0.147945205479452 0.147945205479452 0.147945205479452 0.14931506849315068 0.14931506849315068 0.15068493150684936 0.15068493150684936 0.15068493150684936 0.14931506849315068 0.13972602739726026 0.12602739726027398 0.10547945205479448 0.08493150684931505 0.08493150684931505 0.09452054794520548 0.10273972602739724 0.11780821917808215 0.11917808219178085 0.12191780821917808 0.12465753424657533 0.12739726027397258 0.12876712328767126 0.12876712328767126 0.12876712328767126 0.12876712328767126 0.13013698630136986 0.1315068493150685 0.13287671232876708 0.13287671232876708 0.13287671232876708 0.13561643835616444 0.13972602739726026 0.14109589041095896 0.14109589041095896,0.0 20.0 40.0 60.0 80.0 100.0 120.0 140.0 160.0 180.0 200.0 220.0 240.0 260.0 280.0 300.0 320.0 340.0 360.0 380.0 400.0 420.0 440.0 460.0 480.0 500.0 520.0 540.0 560.0 580.0 600.0 620.0 640.0 660.0 680.0 700.0 720.0 740.0 760.0 780.0 800.0 820.0 840.0 860.0 880.0 900.0 920.0 940.0 960.0 980.0 1000.0 1020.0 1040.0 1060.0 1080.0 1100.0 1120.0 1140.0 1160.0 1180.0 1200.0 1220.0 1240.0 1260.0 1280.0 1300.0 1320.0 1340.0 1360.0 1380.0 1400.0 1420.0 1440.0 1460.0 1480.0 1500.0 1520.0 1540.0 1560.0 1580.0 1600.0 1620.0 1640.0 1660.0 1680.0 1700.0 1720.0 1740.0 1760.0 1780.0 1800.0 1820.0 1840.0 1860.0 1880.0 1900.0 1920.0 1940.0
cb_03,4.0,enc_trial,stim,response,Iceland trip,1221.6999999940456,enc_trial,1.0,4.0,t_i_15_1,travel_Iceland,fold-a,compass,3.0,unique,far,paired,t_i_15_1.jpg,Iceland,travel-b1,Iceland trip,Miami trip,sub-42,1.0,1.0,1.0,1.0,0.501027397260274 0.501027397260274 0.501027397260274 0.4989726027397261 0.4886986301369863 0.465068493150685 0.4434931506849315 0.41986301369863016 0.3839041095890411 0.35205479452054794 0.2904109589041096 0.2493150684931507 0.2164383561643836 0.2 0.18253424657534248 0.15787671232876713 0.15376712328767125 0.15068493150684933 0.14965753424657535 0.14657534246575346 0.13938356164383564 0.13835616438356166 0.13732876712328768 0.13630136986301372,0.8397260273972602 0.8123287671232877 0.7780821917808219 0.7232876712328767 0.6287671232876713 0.526027397260274 0.4684931506849314 0.4191780821917809 0.35890410958904106 0.3136986301369863 0.2465753424657534 0.2095890410958904 0.1808219178082192 0.16712328767123286 0.15479452054794518 0.136986301369863 0.13424657534246576 0.1315068493150685 0.13013698630136986 0.12739726027397258 0.1205479452054794 0.11917808219178085 0.11780821917808215 0.11780821917808215,600.2000000000116 620.2000000000116 640.2000000000116 660.2000000000116 680.2000000000116 700.2000000000116 720.2000000000116 740.2000000000116 760.2000000000116 780.2000000000116 800.2000000000116 820.2000000000116 840.2000000000116 860.2000000000116 880.2000000000116 900.2000000000116 920.2000000000116 940.2000000000116 960.2000000000116 980.2000000000116 1000.2000000000116 1020.2000000000116 1040.2000000000116 1060.2000000000116
cb_03,5.0,enc_trial,stim,response,Miami trip,2028.6000000029746,enc_trial,1.0,5.0,t_s_23_1,travel_shared,fold-c,ball cap,3.0,competing,far,paired,t_s_23_1.jpg,,travel-b1,Iceland trip,Miami trip,sub-42,0.0,0.0,1.0,1.0,0.5061643835616438 0.5061643835616438 0.5051369863013698 0.501027397260274 0.4958904109589041 0.4794520547945205 0.4547945205479452 0.4414383561643835 0.4178082191780822 0.38904109589041097 0.31095890410958904 0.2873287671232877 0.2698630136986301 0.23287671232876714 0.22054794520547946 0.1876712328767124 0.17739726027397262 0.16815068493150687 0.1558219178082192 0.14863013698630134 0.13630136986301372 0.13219178082191782 0.13013698630136988 0.12808219178082192 0.12808219178082192 0.12808219178082192 0.12808219178082192 0.12808219178082192 0.12808219178082192 0.12808219178082192 0.12808219178082192 0.12808219178082192 0.12705479452054794 0.12705479452054794 0.12602739726027398 0.12602739726027398 0.12602739726027398 0.12602739726027398 0.12602739726027398 0.12602739726027398 0.12602739726027398 0.12602739726027398 0.12602739726027398 0.12602739726027398 0.12602739726027398 0.12602739726027398 0.12602739726027398 0.12602739726027398 0.12602739726027398 0.12602739726027398 0.12602739726027398 0.12602739726027398 0.12602739726027398 0.13013698630136988 0.13219178082191782 0.13835616438356166 0.14246575342465756 0.14760273972602742 0.1599315068493151 0.1815068493150685 0.3561643835616438 0.423972602739726 0.501027397260274 0.5780821917808221 0.6099315068493151 0.6849315068493151 0.7167808219178082 0.7321917808219178 0.7465753424657535 0.7609589041095891 0.7886986301369864 0.7979452054794521 0.804109589041096 0.8164383561643836 0.8277397260273973 0.8308219178082192 0.8318493150684932 0.8349315068493152 0.8421232876712329 0.8523972602739727 0.8544520547945206,0.8150684931506851 0.8068493150684931 0.7931506849315069 0.7671232876712328 0.7452054794520548 0.6958904109589041 0.6438356164383562 0.6191780821917808 0.5821917808219178 0.5465753424657533 0.4671232876712329 0.4452054794520548 0.4246575342465754 0.3780821917808219 0.363013698630137 0.3246575342465754 0.3123287671232877 0.2972602739726027 0.28356164383561644 0.2712328767123288 0.2520547945205479 0.2424657534246575 0.23698630136986296 0.2342465753424657 0.22876712328767124 0.2246575342465753 0.2246575342465753 0.2246575342465753 0.2246575342465753 0.2246575342465753 0.22328767123287674 0.2205479452054795 0.2205479452054795 0.21780821917808224 0.21506849315068488 0.21095890410958906 0.2095890410958904 0.2068493150684932 0.2068493150684932 0.20410958904109588 0.20136986301369866 0.1986301369863014 0.1986301369863014 0.1986301369863014 0.1986301369863014 0.1986301369863014 0.1986301369863014 0.1986301369863014 0.1986301369863014 0.1986301369863014 0.1986301369863014 0.1986301369863014 0.1986301369863014 0.1931506849315069 0.1917808219178082 0.18356164383561646 0.1808219178082192 0.17671232876712328 0.1712328767123288 0.1643835616438356 0.13972602739726026 0.13835616438356169 0.13835616438356169 0.13835616438356169 0.13835616438356169 0.13972602739726026 0.14109589041095896 0.14109589041095896 0.14109589041095896 0.1424657534246575 0.14383561643835618 0.14520547945205475 0.14520547945205475 0.14520547945205475 0.14520547945205475 0.14520547945205475 0.14520547945205475 0.14520547945205475 0.14520547945205475 0.14657534246575346 0.14657534246575346,416.6999999999971 436.6999999999971 456.6999999999971 476.6999999999971 496.6999999999971 516.6999999999971 536.6999999999971 556.6999999999971 576.6999999999971 596.6999999999971 616.6999999999971 636.6999999999971 656.6999999999971 676.6999999999971 696.6999999999971 716.6999999999971 736.6999999999971 756.6999999999971 776.6999999999971 796.6999999999971 816.6999999999971 836.6999999999971 856.6999999999971 876.6999999999971 896.6999999999971 916.6999999999972 936.6999999999972 956.6999999999972 976.6999999999972 996.6999999999972 1016.6999999999972 1036.6999999999969 1056.6999999999969 1076.6999999999969 1096.6999999999969 1116.6999999999969 1136.6999999999969 1156.6999999999969 1176.6999999999969 1196.6999999999969 1216.6999999999969 1236.6999999999969 1256.6999999999969 1276.6999999999969 1296.6999999999969 1316.6999999999969 1336.6999999999969 1356.6999999999969 1376.6999999999969 1396.6999999999969 1416.6999999999969 1436.6999999999969 1456.6999999999969 1476.6999999999969 1496.6999999999969 1516.6999999999969 1536.6999999999969 1556.6999999999969 1576.6999999999969 1596.6999999999969 1616.6999999999969 1636.6999999999969 1656.6999999999969 1676.6999999999969 1696.6999999999969 1716.6999999999969 1736.6999999999969 1756.6999999999969 1776.6999999999969 1796.6999999999969 1816.6999999999969 1836.6999999999969 1856.6999999999969 1876.6999999999969 1896.6999999999969 1916.6999999999969 1936.6999999999969 1956.6999999999969 1976.6999999999969 1996.6999999999969 2016.6999999999969
cb_03,6.0,enc_trial,stim,response,Iceland trip,1300.0999999999913,enc_trial,1.0,6.0,t_s_04_2,travel_shared,fold-c,instant camera,3.0,competing,far,paired,t_s_04_2.jpg,,travel-b1,Iceland trip,Miami trip,sub-42,1.0,1.0,0.0,1.0,0.5030821917808219 0.5030821917808219 0.501027397260274 0.5 0.4958904109589041 0.4784246575342466 0.4671232876712329 0.4537671232876712 0.4424657534246576 0.4178082191780822 0.38595890410958905 0.3684931506849315 0.351027397260274 0.32636986301369864 0.3089041095890411 0.2976027397260274 0.2678082191780822 0.2575342465753425 0.2503424657534247 0.2462328767123288 0.23287671232876714 0.22876712328767124 0.22465753424657536 0.22054794520547946 0.2164383561643836 0.2123287671232877 0.2092465753424657 0.20821917808219176 0.20513698630136987 0.20308219178082199 0.201027397260274 0.1876712328767124 0.18253424657534248 0.17636986301369864 0.1712328767123288 0.16609589041095893 0.16404109589041094 0.16301369863013698,0.8397260273972602 0.8328767123287671 0.821917808219178 0.8068493150684931 0.7794520547945205 0.6958904109589041 0.6506849315068493 0.6041095890410959 0.5712328767123287 0.510958904109589 0.4424657534246576 0.40410958904109584 0.36575342465753424 0.3191780821917808 0.2863013698630137 0.2643835616438356 0.21506849315068488 0.1972602739726027 0.18767123287671228 0.18219178082191773 0.1657534246575343 0.16301369863013704 0.1589041095890411 0.15479452054794518 0.14931506849315068 0.14383561643835618 0.14109589041095896 0.13835616438356169 0.136986301369863 0.13561643835616444 0.13287671232876708 0.12876712328767126 0.12739726027397258 0.12602739726027398 0.12465753424657533 0.12328767123287675 0.12328767123287675 0.12328767123287675,449.8000000000029 469.8000000000029 489.8000000000029 509.8000000000029 529.8000000000029 549.8000000000029 569.8000000000029 589.8000000000029 609.8000000000029 629.8000000000029 649.8000000000029 669.8000000000029 689.8000000000029 709.8000000000029 729.8000000000029 749.8000000000029 769.8000000000029 789.8000000000029 809.8000000000029 829.8000000000029 849.8000000000029 869.8000000000029 889.8000000000029 909.8000000000028 929.8000000000028 949.8000000000028 969.8000000000028 989.8000000000028 1009.8000000000028 1029.8000000000031 1049.8000000000031 1069.8000000000031 1089.8000000000031 1109.8000000000031 1129.8000000000031 1149.8000000000031 1169.8000000000031 1189.8000000000031
cb_03,7.0,enc_trial,stim,response,Iceland trip,1298.5999999970227,enc_trial,1.0,7.0,t_m_04_1,travel_Miami,fold-e,UV jacket,3.0,unique,close,paired,t_m_04_1.jpg,Miami,travel-b1,Iceland trip,Miami trip,sub-42,1.0,1.0,0.0,0.0,0.5123287671232877 0.5123287671232877 0.5123287671232877 0.5123287671232877 0.5113013698630137 0.5071917808219178 0.4989726027397261 0.4845890410958904 0.4681506849315069 0.4476027397260274 0.4301369863013699 0.3931506849315069 0.34178082191780823 0.3058219178082192 0.28013698630136985 0.2164383561643836 0.1969178082191781 0.1856164383561644 0.1804794520547945 0.17945205479452056 0.17842465753424658 0.17636986301369864 0.17534246575342466 0.17226027397260274 0.1712328767123288 0.16712328767123288 0.16609589041095893 0.16404109589041094 0.16301369863013698 0.16095890410958905 0.1589041095890411 0.1589041095890411 0.1589041095890411 0.1589041095890411 0.1589041095890411 0.1589041095890411 0.1589041095890411 0.1589041095890411 0.1589041095890411 0.15787671232876713,0.8342465753424657 0.8287671232876712 0.826027397260274 0.8232876712328767 0.8164383561643835 0.7849315068493149 0.7493150684931507 0.7068493150684931 0.6616438356164384 0.6123287671232877 0.5753424657534247 0.5041095890410958 0.4287671232876712 0.3767123287671232 0.3410958904109589 0.2589041095890411 0.2342465753424657 0.2205479452054795 0.2123287671232877 0.2095890410958904 0.2068493150684932 0.20410958904109588 0.1972602739726027 0.1917808219178082 0.18767123287671228 0.17945205479452053 0.1753424657534246 0.17260273972602735 0.16849315068493154 0.1643835616438356 0.16027397260273968 0.16027397260273968 0.16027397260273968 0.16027397260273968 0.16027397260273968 0.16027397260273968 0.16027397260273968 0.1589041095890411 0.15616438356164386 0.15616438356164386,349.8000000000029 369.8000000000029 389.8000000000029 409.8000000000029 429.8000000000029 449.8000000000029 469.8000000000029 489.8000000000029 509.8000000000029 529.8000000000029 549.8000000000029 569.8000000000029 589.8000000000029 609.8000000000029 629.8000000000029 649.8000000000029 669.8000000000029 689.8000000000029 709.8000000000029 729.8000000000029 749.8000000000029 769.8000000000029 789.8000000000029 809.8000000000029 829.8000000000029 849.8000000000029 869.8000000000029 889.8000000000029 909.8000000000028 929.8000000000028 949.8000000000028 969.8000000000028 989.8000000000028 1009.8000000000028 1029.8000000000031 1049.8000000000031 1069.8000000000031 1089.8000000000031 1109.8000000000031 1129.8000000000031
cb_03,8.0,enc_trial,stim,response,Iceland trip,1054.6000000000058,enc_trial,1.0,8.0,t_i_19_1,travel_Iceland,fold-b-single,rope,3.0,unique,,single,t_i_19_1.jpg,Iceland,travel-b1,Iceland trip,Miami trip,sub-42,1.0,,1.0,,0.5082191780821917 0.5082191780821917 0.5071917808219178 0.5051369863013698 0.501027397260274 0.4928082191780822 0.4845890410958904 0.4712328767123288 0.44965753424657534 0.4208904109589041 0.3643835616438356 0.3232876712328767 0.2678082191780822 0.2452054794520548 0.22054794520547946 0.1876712328767124 0.1804794520547945 0.17534246575342466 0.1712328767123288 0.16712328767123288 0.16095890410958905,0.8424657534246576 0.8369863013698631 0.8315068493150685 0.8205479452054795 0.8013698630136986 0.7712328767123288 0.7424657534246575 0.7082191780821918 0.6534246575342466 0.5986301369863014 0.5027397260273972 0.4369863013698631 0.352054794520548 0.3136986301369863 0.2712328767123288 0.21780821917808224 0.2068493150684932 0.1972602739726027 0.18767123287671228 0.18219178082191773 0.1712328767123288,482.7000000000117 502.7000000000117 522.7000000000116 542.7000000000116 562.7000000000116 582.7000000000116 602.7000000000116 622.7000000000116 642.7000000000116 662.7000000000116 682.7000000000116 702.7000000000116 722.7000000000116 742.7000000000116 762.7000000000116 782.7000000000116 802.7000000000116 822.7000000000116 842.7000000000116 862.7000000000116 882.7000000000116
cb_03,9.0,enc_trial,stim,response,Iceland trip,1754.9999999910654,enc_trial,1.0,9.0,t_s_11_1,travel_shared,fold-a-single,eye mask,3.0,competing,,single,t_s_11_1.jpg,,travel-b1,Iceland trip,Miami trip,sub-42,1.0,,1.0,,0.5051369863013698 0.5030821917808219 0.501027397260274 0.497945205479452 0.4958904109589041 0.4794520547945205 0.4671232876712329 0.4506849315068493 0.4229452054794521 0.4095890410958904 0.3684931506849315 0.33458904109589044 0.3068493150684932 0.2821917808219178 0.2657534246575343 0.22054794520547946 0.20513698630136987 0.2 0.1958904109589041 0.1958904109589041 0.2123287671232877 0.24315068493150685 0.3058219178082192 0.37054794520547946 0.4486301369863014 0.5832191780821918 0.7332191780821918 0.7794520547945206 0.8061643835616439 0.8277397260273973 0.8554794520547946 0.8708904109589042 0.8945205479452055 0.9058219178082192 0.9160958904109592 0.9315068493150686 0.9356164383561644 0.9366438356164384 0.9366438356164384 0.9366438356164384 0.9006849315068494 0.8657534246575342 0.804109589041096 0.7383561643835617 0.6561643835616439 0.5359589041095891 0.4938356164383562 0.463013698630137 0.4208904109589041 0.3592465753424657 0.3273972602739726 0.3171232876712329 0.3058219178082192 0.2924657534246575 0.2791095890410959 0.2688356164383562 0.2575342465753425 0.2493150684931507 0.2410958904109589 0.22465753424657536 0.22054794520547946 0.2164383561643836 0.20616438356164385 0.1897260273972603 0.17534246575342466 0.15684931506849314 0.14657534246575346 0.13938356164383564,0.8397260273972602 0.8315068493150685 0.821917808219178 0.8068493150684931 0.7958904109589041 0.7424657534246575 0.7164383561643836 0.6753424657534246 0.6205479452054794 0.5958904109589039 0.5328767123287671 0.4835616438356164 0.4424657534246576 0.4068493150684932 0.3849315068493151 0.3191780821917808 0.2931506849315069 0.2808219178082192 0.2657534246575343 0.2506849315068493 0.22328767123287674 0.20410958904109588 0.17945205479452053 0.1589041095890411 0.13835616438356169 0.10547945205479448 0.07397260273972606 0.06849315068493156 0.06712328767123288 0.06712328767123288 0.06849315068493156 0.07397260273972606 0.08356164383561647 0.08630136986301372 0.09178082191780823 0.0986301369863014 0.09999999999999998 0.10136986301369866 0.10136986301369866 0.10136986301369866 0.11780821917808215 0.13013698630136986 0.14383561643835618 0.14931506849315068 0.14931506849315068 0.14931506849315068 0.14931506849315068 0.1534246575342466 0.15616438356164386 0.15753424657534246 0.15753424657534246 0.15753424657534246 0.15753424657534246 0.15753424657534246 0.1589041095890411 0.1589041095890411 0.1589041095890411 0.1589041095890411 0.1589041095890411 0.15753424657534246 0.15753424657534246 0.15616438356164386 0.15479452054794518 0.1534246575342466 0.14931506849315068 0.14520547945205475 0.14383561643835618 0.1424657534246575,383.7000000000117 403.7000000000117 423.7000000000117 443.7000000000117 463.7000000000117 483.7000000000117 503.7000000000117 523.7000000000116 543.7000000000116 563.7000000000116 583.7000000000116 603.7000000000116 623.7000000000116 643.7000000000116 663.7000000000116 683.7000000000116 703.7000000000116 723.7000000000116 743.7000000000116 763.7000000000116 783.7000000000116 803.7000000000116 823.7000000000116 843.7000000000116 863.7000000000116 883.7000000000116 903.7000000000116 923.7000000000116 943.7000000000116 963.7000000000116 983.7000000000116 1003.7000000000116 1023.7000000000116 1043.7000000000116 1063.7000000000116 1083.7000000000116 1103.7000000000116 1123.7000000000116 1143.7000000000114 1163.7000000000114 1183.7000000000114 1203.7000000000114 1223.7000000000114 1243.7000000000114 1263.7000000000114 1283.7000000000114 1303.7000000000114 1323.7000000000114 1343.7000000000114 1363.7000000000114 1383.7000000000116 1403.7000000000116 1423.7000000000116 1443.7000000000116 1463.7000000000116 1483.7000000000116 1503.7000000000116 1523.7000000000116 1543.7000000000116 1563.7000000000116 1583.7000000000116 1603.7000000000116 1623.7000000000116 1643.7000000000116 1663.7000000000116 1683.7000000000116 1703.7000000000116 1723.7000000000116
cb_03,10.0,enc_trial,stim,response,Iceland trip,1363.2000000000114,enc_trial,1.0,10.0,t_s_02_2,travel_shared,fold-b,water bottle,3.0,competing,close,paired,t_s_02_2.jpg,,travel-b1,Iceland trip,Miami trip,sub-42,1.0,1.0,0.0,1.0,0.4958904109589041 0.4917808219178082 0.4866438356164384 0.4712328767123288 0.463013698630137 0.4434931506849315 0.427054794520548 0.3962328767123288 0.3736301369863014 0.3294520547945205 0.275 0.2565068493150685 0.2410958904109589 0.22876712328767124 0.21952054794520548 0.2143835616438356 0.20616438356164385 0.19794520547945207 0.1958904109589041 0.19178082191780824 0.18356164383561646 0.17636986301369864 0.17534246575342466 0.16815068493150687 0.16712328767123288 0.1599315068493151 0.1547945205479452 0.15068493150684933 0.14965753424657535 0.14760273972602742 0.14657534246575346 0.14657534246575346 0.14554794520547948,0.8301369863013699 0.8164383561643835 0.7986301369863014 0.7575342465753425 0.7301369863013698 0.6835616438356165 0.6506849315068493 0.5986301369863014 0.5630136986301371 0.4931506849315068 0.4 0.36986301369863017 0.3452054794520548 0.32191780821917804 0.3027397260273973 0.2863013698630137 0.2698630136986301 0.25616438356164384 0.2534246575342466 0.2479452054794521 0.23698630136986296 0.22739726027397256 0.226027397260274 0.2164383561643836 0.21506849315068488 0.20410958904109588 0.19452054794520546 0.18767123287671228 0.18219178082191773 0.1808219178082192 0.17671232876712328 0.1753424657534246 0.17397260273972606,500.2000000000117 520.2000000000116 540.2000000000116 560.2000000000115 580.2000000000114 600.2000000000114 620.2000000000114 640.2000000000112 660.2000000000112 680.2000000000112 700.2000000000113 720.2000000000112 740.200000000011 760.200000000011 780.200000000011 800.2000000000107 820.2000000000107 840.2000000000107 860.2000000000107 880.2000000000107 900.2000000000105 920.2000000000104 940.2000000000104 960.2000000000104 980.2000000000104 1000.2000000000104 1020.2000000000104 1040.2000000000098 1060.2000000000098 1080.2000000000098 1100.2000000000098 1120.2000000000098 1140.2000000000098
cb_03,11.0,enc_trial,stim,response,Miami trip,1214.1000000029746,enc_trial,1.0,11.0,t_m_20_1,travel_Miami,fold-e,inflatable beachball,3.0,unique,close,paired,t_m_20_1.jpg,Miami,travel-b1,Iceland trip,Miami trip,sub-42,1.0,1.0,1.0,1.0,0.5082191780821917 0.5082191780821917 0.5092465753424658 0.5184931506849315 0.5339041095890411 0.577054794520548 0.6304794520547946 0.6828767123287671 0.7106164383561644 0.7455479452054795 0.7928082191780822 0.8102739726027398 0.8226027397260275 0.8380136986301371 0.8565068493150685 0.8667808219178083 0.8667808219178083 0.8698630136986302 0.8739726027397261 0.875 0.8780821917808219,0.8561643835616438 0.8452054794520548 0.8315068493150685 0.8013698630136986 0.7589041095890411 0.6520547945205479 0.5287671232876712 0.4013698630136986 0.33287671232876714 0.2657534246575343 0.2027397260273973 0.18219178082191773 0.16712328767123286 0.15068493150684936 0.13287671232876708 0.12191780821917808 0.12191780821917808 0.11643835616438356 0.10821917808219184 0.1041095890410959 0.09726027397260273,716.6999999999823 736.6999999999823 756.6999999999823 776.6999999999823 796.6999999999823 816.6999999999823 836.6999999999823 856.6999999999823 876.6999999999823 896.6999999999823 916.6999999999823 936.6999999999823 956.6999999999823 976.6999999999823 996.6999999999823 1016.6999999999823 1036.6999999999823 1056.6999999999823 1076.6999999999823 1096.6999999999823 1116.6999999999823
cb_03,12.0,enc_trial,stim,response,Miami trip,1215.7999999940512,enc_trial,1.0,12.0,t_m_01_1,travel_Miami,fold-a,sandals,3.0,unique,far,paired,t_m_01_1.jpg,Miami,travel-b1,Iceland trip,Miami trip,sub-42,1.0,1.0,1.0,1.0,0.5 0.5 0.4989726027397261 0.4958904109589041 0.4886986301369863 0.463013698630137 0.4465753424657534 0.4280821917808219 0.4095890410958904 0.3962328767123288 0.3767123287671233 0.3623287671232877 0.3787671232876713 0.40136986301369865 0.4753424657534247 0.5534246575342466 0.6623287671232877 0.727054794520548 0.7702054794520549 0.802054794520548 0.8369863013698631 0.8452054794520548 0.8513698630136987 0.8647260273972603 0.8739726027397261 0.8986301369863015 0.9027397260273972 0.9047945205479452 0.9047945205479452,0.8397260273972602 0.8273972602739725 0.7945205479452055 0.7712328767123288 0.7383561643835617 0.6438356164383562 0.5986301369863014 0.5575342465753425 0.5219178082191781 0.4945205479452055 0.4547945205479452 0.39178082191780816 0.3452054794520548 0.3191780821917808 0.2684931506849315 0.226027397260274 0.18219178082191773 0.16712328767123286 0.15479452054794518 0.14657534246575346 0.1424657534246575 0.1424657534246575 0.14520547945205475 0.15068493150684936 0.15479452054794518 0.16027397260273968 0.16027397260273968 0.16164383561643836 0.16301369863013704,533.0 553.0 573.0 593.0 613.0 633.0 653.0 673.0 693.0 713.0 733.0 753.0 773.0 793.0 813.0 833.0 853.0 873.0 893.0 913.0 933.0 953.0 973.0 993.0 1013.0 1033.0 1053.0 1073.0 1093.0
cb_03,13.0,enc_trial,stim,response,Iceland trip,1330.4999999910651,enc_trial,1.0,13.0,t_m_04_2,travel_Miami,fold-e,UV jacket,3.0,unique,close,paired,t_m_04_2.jpg,Miami,travel-b1,Iceland trip,Miami trip,sub-42,1.0,1.0,0.0,0.0,0.5051369863013698 0.5051369863013698 0.5051369863013698 0.5041095890410959 0.5041095890410959 0.4938356164383562 0.4876712328767123 0.4753424657534247 0.4517123287671233 0.4383561643835616 0.41575342465753423 0.3674657534246576 0.3273972602739726 0.3027397260273973 0.2945205479452055 0.28835616438356165 0.2904109589041096 0.2976027397260274 0.3202054794520548 0.3561643835616438 0.44554794520547947 0.4753424657534247 0.4876712328767123 0.4928082191780822 0.4928082191780822 0.4794520547945205 0.464041095890411 0.4301369863013699 0.4054794520547945 0.3592465753424657 0.2534246575342466 0.22157534246575344 0.2 0.19075342465753425 0.1815068493150685 0.1743150684931507 0.1712328767123288 0.16609589041095893 0.15273972602739727 0.14554794520547948 0.14246575342465756 0.13630136986301372,0.8383561643835616 0.821917808219178 0.8095890410958904 0.8013698630136986 0.7917808219178082 0.747945205479452 0.7301369863013698 0.6986301369863014 0.6465753424657534 0.6191780821917808 0.5794520547945206 0.5013698630136987 0.4383561643835616 0.3986301369863013 0.3849315068493151 0.3684931506849315 0.36575342465753424 0.363013698630137 0.35479452054794525 0.3410958904109589 0.3191780821917808 0.3136986301369863 0.3095890410958904 0.3054794520547945 0.3013698630136986 0.2904109589041096 0.28356164383561644 0.2753424657534247 0.2684931506849315 0.25616438356164384 0.226027397260274 0.2136986301369863 0.2027397260273973 0.1972602739726027 0.19041095890410964 0.18219178082191773 0.17671232876712328 0.1712328767123288 0.16027397260273968 0.15479452054794518 0.1534246575342466 0.14931506849315068,466.80000000001746 486.80000000001746 506.80000000001746 526.8000000000175 546.8000000000175 566.8000000000175 586.8000000000175 606.8000000000175 626.8000000000175 646.8000000000175 666.8000000000175 686.8000000000175 706.8000000000176 726.8000000000176 746.8000000000176 766.8000000000176 786.8000000000176 806.8000000000176 826.8000000000176 846.8000000000176 866.8000000000176 886.8000000000176 906.8000000000177 926.8000000000177 946.8000000000177 966.8000000000177 986.8000000000177 1006.8000000000177 1026.8000000000177 1046.8000000000177 1066.8000000000177 1086.8000000000177 1106.8000000000177 1126.8000000000175 1146.8000000000175 1166.8000000000175 1186.8000000000175 1206.8000000000175 1226.8000000000175 1246.8000000000175 1266.8000000000175 1286.8000000000175
cb_03,14.0,enc_trial,stim,response,Iceland trip,1706.300000002986,enc_trial,1.0,14.0,t_s_06_1,travel_shared,fold-b,luggage,3.0,competing,close,paired,t_s_06_1.jpg,,travel-b1,Iceland trip,Miami trip,sub-42,1.0,1.0,1.0,0.0,0.4989726027397261 0.4989726027397261 0.5 0.5 0.5030821917808219 0.5092465753424658 0.5123287671232877 0.5205479452054794 0.5236301369863013 0.5256849315068494 0.538013698630137 0.5452054794520549 0.5565068493150686 0.5688356164383562 0.5852739726027398 0.6243150684931508 0.6397260273972604 0.6530821917808219 0.6726027397260275 0.6808219178082192 0.7003424657534247 0.7106164383561644 0.7219178082191782 0.7311643835616439 0.7393835616438357 0.7558219178082193 0.767123287671233 0.7712328767123288 0.7712328767123288 0.7732876712328768 0.7815068493150685 0.7866438356164384 0.7917808219178083 0.7928082191780822 0.7938356164383562 0.7938356164383562 0.7928082191780822 0.7753424657534247 0.7219178082191782 0.6695205479452055 0.4804794520547945 0.4424657534246576 0.3952054794520548 0.3602739726027397 0.33356164383561643 0.31095890410958904 0.3006849315068493 0.2791095890410959 0.2606164383561644 0.2441780821917809 0.2164383561643836 0.2041095890410959 0.2 0.1958904109589041 0.1897260273972603 0.16506849315068495 0.14554794520547948 0.13527397260273974 0.1332191780821918,0.8452054794520548 0.8438356164383561 0.8410958904109589 0.8369863013698631 0.8287671232876712 0.8082191780821918 0.7958904109589041 0.7684931506849315 0.7575342465753425 0.7534246575342466 0.7232876712328767 0.7082191780821918 0.6808219178082191 0.6534246575342466 0.6191780821917808 0.5301369863013699 0.4904109589041096 0.4616438356164384 0.40821917808219177 0.38219178082191785 0.3356164383561644 0.31643835616438354 0.2958904109589041 0.2794520547945205 0.2643835616438356 0.2383561643835617 0.2246575342465753 0.2191780821917808 0.21780821917808224 0.21506849315068488 0.2095890410958904 0.2068493150684932 0.2027397260273973 0.20136986301369866 0.2 0.2 0.2 0.1986301369863014 0.1986301369863014 0.1986301369863014 0.18219178082191773 0.1753424657534246 0.16712328767123286 0.1643835616438356 0.16027397260273968 0.15068493150684936 0.147945205479452 0.1424657534246575 0.13835616438356169 0.13287671232876708 0.12739726027397258 0.12602739726027398 0.12465753424657533 0.12465753424657533 0.12328767123287675 0.1205479452054794 0.11780821917808215 0.11643835616438356 0.11643835616438356,499.8999999999942 519.8999999999942 539.8999999999942 559.8999999999942 579.8999999999943 599.8999999999943 619.8999999999943 639.8999999999943 659.8999999999943 679.8999999999943 699.8999999999942 719.8999999999942 739.8999999999942 759.8999999999942 779.8999999999942 799.8999999999942 819.8999999999942 839.8999999999942 859.8999999999942 879.8999999999942 899.8999999999942 919.8999999999942 939.8999999999942 959.8999999999942 979.8999999999942 999.8999999999942 1019.8999999999942 1039.8999999999942 1059.8999999999942 1079.8999999999942 1099.8999999999942 1119.8999999999942 1139.8999999999942 1159.8999999999942 1179.8999999999942 1199.8999999999942 1219.8999999999942 1239.8999999999942 1259.8999999999942 1279.8999999999942 1299.8999999999942 1319.8999999999942 1339.8999999999942 1359.8999999999942 1379.8999999999942 1399.8999999999942 1419.8999999999942 1439.8999999999942 1459.8999999999942 1479.8999999999942 1499.8999999999942 1519.8999999999942 1539.8999999999942 1559.8999999999942 1579.8999999999942 1599.8999999999942 1619.8999999999942 1639.8999999999942 1659.8999999999942
cb_03,15.0,enc_trial,stim,response,Miami trip,1138.6999999940456,enc_trial,1.0,15.0,t_m_17_1,travel_Miami,fold-a,water gun,3.0,unique,far,paired,t_m_17_1.jpg,Miami,travel-b1,Iceland trip,Miami trip,sub-42,1.0,1.0,1.0,1.0,0.4989726027397261 0.5051369863013698 0.5184931506849315 0.538013698630137 0.5698630136986302 0.6756849315068494 0.7229452054794521 0.7537671232876713 0.7938356164383562 0.8400684931506851 0.8657534246575342 0.8698630136986302 0.8729452054794521 0.8729452054794521 0.8729452054794521 0.8739726027397261 0.8780821917808219 0.8791095890410959 0.8791095890410959 0.8791095890410959 0.8791095890410959 0.8791095890410959 0.8780821917808219 0.8780821917808219,0.8410958904109589 0.8178082191780822 0.7849315068493149 0.7369863013698629 0.6794520547945205 0.4986301369863013 0.42054794520547945 0.3767123287671232 0.326027397260274 0.2753424657534247 0.2424657534246575 0.2342465753424657 0.2301369863013699 0.22739726027397256 0.226027397260274 0.2191780821917808 0.2068493150684932 0.2 0.1986301369863014 0.19589041095890414 0.1931506849315069 0.19041095890410964 0.18767123287671228 0.18219178082191773,633.1000000000057 653.1000000000057 673.1000000000057 693.1000000000058 713.1000000000058 733.1000000000058 753.1000000000058 773.1000000000058 793.1000000000058 813.1000000000058 833.1000000000058 853.1000000000058 873.1000000000058 893.1000000000058 913.1000000000056 933.1000000000056 953.1000000000056 973.1000000000056 993.1000000000056 1013.1000000000056 1033.1000000000058 1053.1000000000058 1073.1000000000058 1093.1000000000058
cb_03,16.0,enc_trial,stim,response,Miami trip,948.3000000029859,enc_trial,1.0,16.0,t_m_20_2,travel_Miami,fold-e,inflatable beachball,3.0,unique,close,paired,t_m_20_2.jpg,Miami,travel-b1,Iceland trip,Miami trip,sub-42,1.0,1.0,1.0,1.0,0.5133561643835617 0.5359589041095891 0.5554794520547945 0.5976027397260274 0.6684931506849315 0.7619863013698631 0.8010273972602739 0.8410958904109591 0.8688356164383562 0.8893835616438357 0.9068493150684932 0.9109589041095892 0.9119863013698628 0.9130136986301371 0.9140410958904108 0.9150684931506852 0.9150684931506852 0.9150684931506852 0.9150684931506852 0.9150684931506852 0.9150684931506852 0.9150684931506852 0.9150684931506852 0.9150684931506852 0.9160958904109592,0.8465753424657534 0.8068493150684931 0.7684931506849315 0.6917808219178082 0.5753424657534247 0.4260273972602739 0.363013698630137 0.2972602739726027 0.25616438356164384 0.22328767123287674 0.19452054794520546 0.18767123287671228 0.18219178082191773 0.17808219178082196 0.17260273972602735 0.1657534246575343 0.1643835616438356 0.16027397260273968 0.1534246575342466 0.147945205479452 0.14383561643835618 0.14383561643835618 0.14383561643835618 0.14383561643835618 0.14383561643835618,466.5 486.5 506.5 526.5 546.5 566.5 586.5 606.5 626.5 646.5 666.5 686.5 706.5 726.5 746.5 766.5 786.5 806.5 826.5 846.5 866.5 886.5 906.5 926.5 946.5
cb_03,17.0,enc_trial,stim,response,Iceland trip,1053.4999999970314,enc_trial,1.0,17.0,t_i_15_2,travel_Iceland,fold-a,compass,3.0,unique,far,paired,t_i_15_2.jpg,Iceland,travel-b1,Iceland trip,Miami trip,sub-42,1.0,1.0,1.0,1.0,0.5041095890410959 0.501027397260274 0.4825342465753424 0.4547945205479452 0.4219178082191781 0.3571917808219178 0.3273972602739726 0.3068493150684932 0.29349315068493154 0.276027397260274 0.2400684931506849 0.2267123287671233 0.2164383561643836 0.20821917808219176 0.201027397260274 0.1958904109589041 0.1928082191780822 0.19178082191780824 0.19075342465753425 0.18869863013698632 0.17842465753424658 0.16917808219178085 0.16301369863013698 0.15787671232876713 0.1558219178082192 0.15273972602739727,0.8438356164383561 0.8287671232876712 0.7849315068493149 0.7232876712328767 0.6534246575342466 0.5205479452054795 0.4561643835616438 0.4123287671232877 0.38219178082191785 0.3465753424657534 0.2876712328767124 0.2698630136986301 0.2534246575342466 0.23972602739726026 0.2315068493150685 0.2219178082191781 0.2191780821917808 0.21780821917808224 0.21506849315068488 0.2123287671232877 0.2 0.19041095890410964 0.18356164383561646 0.17671232876712328 0.1753424657534246 0.1712328767123288,500.1000000000058 520.1000000000058 540.1000000000058 560.1000000000058 580.1000000000057 600.1000000000057 620.1000000000057 640.1000000000057 660.1000000000057 680.1000000000057 700.1000000000058 720.1000000000058 740.1000000000058 760.1000000000058 780.1000000000058 800.1000000000058 820.1000000000058 840.1000000000058 860.1000000000058 880.1000000000058 900.1000000000058 920.1000000000058 940.1000000000058 960.1000000000058 980.1000000000058 1000.1000000000058
cb_03,18.0,enc_trial,stim,response,Iceland trip,1074.2999999910537,enc_trial,1.0,18.0,t_s_24_2,travel_shared,fold-c,ear plugs,3.0,competing,far,paired,t_s_24_2.jpg,,travel-b1,Iceland trip,Miami trip,sub-42,0.0,0.0,1.0,1.0,0.4958904109589041 0.4938356164383562 0.4876712328767123 0.4784246575342466 0.4691780821917808 0.4414383561643835 0.43424657534246575 0.426027397260274 0.4126712328767123 0.3972602739726027 0.3746575342465753 0.31404109589041096 0.28321917808219177 0.2534246575342466 0.22876712328767124 0.1866438356164384 0.17226027397260274 0.16609589041095893 0.1589041095890411 0.14863013698630134 0.1404109589041096 0.13424657534246576 0.13013698630136988 0.12397260273972605 0.1219178082191781 0.12089041095890413 0.11883561643835618 0.1178082191780822 0.1178082191780822,0.8273972602739725 0.8054794520547945 0.7726027397260273 0.7342465753424657 0.7041095890410959 0.6219178082191781 0.6041095890410959 0.5821917808219178 0.5493150684931507 0.5219178082191781 0.4904109589041096 0.42054794520547945 0.3890410958904109 0.3575342465753425 0.3301369863013699 0.28219178082191776 0.2643835616438356 0.2547945205479452 0.2424657534246575 0.226027397260274 0.2123287671232877 0.2027397260273973 0.1986301369863014 0.18767123287671228 0.18219178082191773 0.17808219178082196 0.17260273972602735 0.1712328767123288 0.16849315068493154,449.8999999999942 469.8999999999942 489.8999999999942 509.8999999999942 529.8999999999942 549.8999999999942 569.8999999999943 589.8999999999943 609.8999999999943 629.8999999999943 649.8999999999943 669.8999999999943 689.8999999999942 709.8999999999942 729.8999999999942 749.8999999999942 769.8999999999942 789.8999999999942 809.8999999999942 829.8999999999942 849.8999999999942 869.8999999999942 889.8999999999942 909.8999999999942 929.8999999999942 949.8999999999942 969.8999999999942 989.8999999999942 1009.8999999999942
cb_03,19.0,enc_trial,stim,response,Miami trip,1135.8999999970254,enc_trial,1.0,19.0,t_s_23_2,travel_shared,fold-c,ball cap,3.0,competing,far,paired,t_s_23_2.jpg,,travel-b1,Iceland trip,Miami trip,sub-42,0.0,0.0,1.0,1.0,0.5143835616438356 0.5267123287671234 0.5452054794520549 0.5636986301369864 0.6089041095890412 0.6808219178082192 0.727054794520548 0.7589041095890412 0.8082191780821918 0.8297945205479452 0.8565068493150685 0.8595890410958904 0.8616438356164384 0.8636986301369863 0.8678082191780823 0.8739726027397261 0.8739726027397261 0.875 0.876027397260274 0.877054794520548 0.8780821917808219 0.8791095890410959,0.8506849315068493 0.821917808219178 0.7794520547945205 0.7424657534246575 0.6479452054794521 0.5082191780821919 0.4232876712328767 0.36986301369863017 0.2849315068493151 0.2506849315068493 0.2095890410958904 0.20547945205479454 0.20136986301369866 0.1986301369863014 0.1917808219178082 0.18219178082191773 0.1808219178082192 0.17808219178082196 0.1753424657534246 0.1712328767123288 0.1657534246575343 0.1657534246575343,649.8000000000175 669.8000000000175 689.8000000000176 709.8000000000176 729.8000000000176 749.8000000000176 769.8000000000176 789.8000000000176 809.8000000000176 829.8000000000176 849.8000000000176 869.8000000000176 889.8000000000176 909.8000000000177 929.8000000000177 949.8000000000177 969.8000000000177 989.8000000000177 1009.8000000000177 1029.8000000000177 1049.8000000000177 1069.8000000000177
cb_03,20.0,enc_trial,stim,response,Miami trip,1087.9999999910651,enc_trial,1.0,20.0,t_s_06_2,travel_shared,fold-b,luggage,3.0,competing,close,paired,t_s_06_2.jpg,,travel-b1,Iceland trip,Miami trip,sub-42,1.0,1.0,1.0,0.0,0.5143835616438356 0.5123287671232877 0.5092465753424658 0.5061643835616438 0.5020547945205479 0.4989726027397261 0.5041095890410959 0.5215753424657534 0.541095890410959 0.5852739726027398 0.6695205479452055 0.7126712328767124 0.7517123287671234 0.7897260273972603 0.8102739726027398 0.8277397260273973 0.8328767123287671 0.8359589041095891 0.8380136986301371 0.8410958904109591 0.8462328767123288 0.8472602739726028 0.8482876712328767 0.8493150684931507 0.8503424657534246 0.8513698630136987 0.8513698630136987,0.8520547945205479 0.8397260273972602 0.8287671232876712 0.8068493150684931 0.7890410958904109 0.7438356164383562 0.7191780821917808 0.678082191780822 0.6479452054794521 0.5863013698630137 0.4726027397260274 0.4164383561643835 0.3671232876712329 0.3123287671232877 0.2794520547945205 0.23972602739726026 0.22328767123287674 0.21095890410958906 0.20410958904109588 0.19452054794520546 0.18219178082191773 0.1808219178082192 0.17945205479452053 0.17808219178082196 0.17671232876712328 0.17671232876712328 0.1753424657534246,550.0 570.0 590.0 610.0 630.0 650.0 670.0 690.0 710.0 730.0 750.0 770.0 790.0 810.0 830.0 850.0 870.0 890.0 910.0 930.0 950.0 970.0 990.0 1010.0 1030.0 1050.0 1070.0
cb_03,21.0,enc_trial,stim,response,Miami trip,1066.3999999999942,enc_trial,1.0,21.0,t_s_04_1,travel_shared,fold-c,instant camera,3.0,competing,far,paired,t_s_04_1.jpg,,travel-b1,Iceland trip,Miami trip,sub-42,1.0,1.0,0.0,1.0,0.5154109589041096 0.5123287671232877 0.5082191780821917 0.5071917808219178 0.5071917808219178 0.5256849315068494 0.5452054794520549 0.5760273972602741 0.615068493150685 0.6582191780821919 0.7250000000000001 0.7547945205479453 0.7712328767123288 0.7958904109589041 0.8082191780821918 0.8215753424657535 0.8318493150684932 0.8349315068493152 0.8400684931506851 0.8431506849315069 0.8441780821917809 0.8462328767123288 0.8482876712328767 0.8493150684931507 0.8503424657534246 0.8513698630136987 0.8513698630136987 0.8523972602739727,0.8383561643835616 0.8164383561643835 0.7917808219178082 0.7684931506849315 0.7465753424657534 0.6767123287671233 0.6397260273972603 0.5808219178082192 0.5136986301369864 0.4465753424657535 0.352054794520548 0.3123287671232877 0.2890410958904109 0.25616438356164384 0.2383561643835617 0.22328767123287674 0.21506849315068488 0.2095890410958904 0.20410958904109588 0.20136986301369866 0.1986301369863014 0.1972602739726027 0.1931506849315069 0.19041095890410964 0.18904109589041096 0.18767123287671228 0.18767123287671228 0.18767123287671228,516.7999999999884 536.7999999999884 556.7999999999884 576.7999999999884 596.7999999999884 616.7999999999884 636.7999999999884 656.7999999999884 676.7999999999884 696.7999999999884 716.7999999999884 736.7999999999884 756.7999999999884 776.7999999999884 796.7999999999884 816.7999999999884 836.7999999999884 856.7999999999884 876.7999999999884 896.7999999999884 916.7999999999884 936.7999999999884 956.7999999999884 976.7999999999884 996.7999999999884 1016.7999999999884 1036.7999999999884 1056.7999999999884
cb_03,22.0,enc_trial,stim,response,Iceland trip,1365.0000000029684,enc_trial,1.0,22.0,t_i_13_1,travel_Iceland,fold-a,sleeping bag,3.0,unique,far,paired,t_i_13_1.jpg,Iceland,travel-b1,Iceland trip,Miami trip,sub-42,1.0,1.0,1.0,1.0,0.5 0.4989726027397261 0.4917808219178082 0.4835616438356165 0.4753424657534247 0.4393835616438356 0.4136986301369863 0.3900684931506849 0.351027397260274 0.3130136986301369 0.2565068493150685 0.2441780821917809 0.236986301369863 0.2308219178082192 0.22876712328767124 0.2256849315068493 0.21952054794520548 0.2154109589041096 0.2143835616438356 0.2123287671232877 0.2113013698630137 0.20308219178082199 0.19897260273972608 0.19486301369863016 0.1897260273972603 0.18356164383561646 0.17534246575342466 0.1712328767123288 0.16712328767123288 0.16198630136986306 0.15787671232876713 0.15376712328767125 0.15273972602739727,0.8547945205479452 0.8369863013698631 0.8068493150684931 0.7780821917808219 0.7438356164383562 0.6589041095890411 0.6095890410958904 0.5657534246575342 0.5054794520547945 0.4465753424657535 0.3671232876712329 0.3465753424657534 0.3356164383561644 0.32191780821917804 0.3136986301369863 0.3068493150684931 0.2917808219178082 0.2849315068493151 0.2808219178082192 0.27808219178082194 0.2712328767123288 0.2534246575342466 0.2465753424657534 0.23698630136986296 0.22739726027397256 0.2191780821917808 0.2068493150684932 0.20136986301369866 0.1931506849315069 0.18767123287671228 0.18219178082191773 0.17671232876712328 0.1753424657534246,699.7999999999884 719.7999999999884 739.7999999999884 759.7999999999884 779.7999999999884 799.7999999999884 819.7999999999884 839.7999999999884 859.7999999999884 879.7999999999884 899.7999999999884 919.7999999999884 939.7999999999884 959.7999999999884 979.7999999999884 999.7999999999884 1019.7999999999884 1039.7999999999884 1059.7999999999884 1079.7999999999884 1099.7999999999884 1119.7999999999884 1139.7999999999886 1159.7999999999886 1179.7999999999886 1199.7999999999886 1219.7999999999886 1239.7999999999886 1259.7999999999886 1279.7999999999886 1299.7999999999886 1319.7999999999886 1339.7999999999886
cb_03,23.0,enc_trial,stim,response,Iceland trip,1699.7999999999884,enc_trial,1.0,23.0,t_s_05_1,travel_shared,fold-a-single,neck pillow,3.0,competing,,single,t_s_05_1.jpg,,travel-b1,Iceland trip,Miami trip,sub-42,1.0,,1.0,,0.4958904109589041 0.4958904109589041 0.4958904109589041 0.4958904109589041 0.4958904109589041 0.4969178082191781 0.4989726027397261 0.5102739726027398 0.5318493150684932 0.5595890410958905 0.6376712328767123 0.6828767123287671 0.7383561643835617 0.7722602739726028 0.7897260273972603 0.8277397260273973 0.8359589041095891 0.8452054794520548 0.8534246575342466 0.8585616438356165 0.8657534246575342 0.8698630136986302 0.8719178082191781 0.8739726027397261 0.8739726027397261 0.8739726027397261 0.8739726027397261 0.8739726027397261 0.8739726027397261 0.8739726027397261 0.8554794520547946 0.7763698630136987 0.7095890410958905 0.65513698630137 0.5719178082191781 0.4126712328767123 0.3623287671232877 0.31404109589041096 0.2698630136986301 0.2513698630136986 0.23287671232876714 0.2277397260273973 0.22054794520547946 0.2164383561643836 0.2123287671232877 0.2 0.2 0.19897260273972608 0.1969178082191781 0.19178082191780824 0.1743150684931507 0.16301369863013698 0.15068493150684933 0.1332191780821918 0.12500000000000006 0.12294520547945205,0.8616438356164384 0.8602739726027397 0.8575342465753425 0.8561643835616438 0.8561643835616438 0.8479452054794521 0.8452054794520548 0.8178082191780822 0.7794520547945205 0.7356164383561643 0.6 0.5219178082191781 0.4287671232876712 0.3684931506849315 0.3356164383561644 0.2534246575342466 0.23698630136986296 0.2205479452054795 0.20410958904109588 0.19589041095890414 0.18219178082191773 0.1753424657534246 0.1712328767123288 0.1657534246575343 0.1643835616438356 0.1643835616438356 0.1643835616438356 0.1643835616438356 0.1643835616438356 0.1643835616438356 0.16849315068493154 0.1808219178082192 0.1808219178082192 0.17671232876712328 0.1712328767123288 0.14931506849315068 0.14520547945205475 0.14383561643835618 0.14383561643835618 0.1424657534246575 0.13972602739726026 0.13972602739726026 0.13835616438356169 0.13835616438356169 0.13835616438356169 0.13972602739726026 0.13972602739726026 0.13972602739726026 0.13972602739726026 0.13972602739726026 0.13835616438356169 0.13561643835616444 0.13287671232876708 0.13013698630136986 0.12739726027397258 0.12739726027397258,567.2999999999884 587.2999999999884 607.2999999999884 627.2999999999884 647.2999999999884 667.2999999999884 687.2999999999884 707.2999999999884 727.2999999999884 747.2999999999884 767.2999999999884 787.2999999999884 807.2999999999884 827.2999999999884 847.2999999999884 867.2999999999884 887.2999999999884 907.2999999999884 927.2999999999884 947.2999999999884 967.2999999999884 987.2999999999884 1007.2999999999884 1027.2999999999884 1047.2999999999884 1067.2999999999884 1087.2999999999884 1107.2999999999884 1127.2999999999886 1147.2999999999886 1167.2999999999886 1187.2999999999886 1207.2999999999886 1227.2999999999886 1247.2999999999886 1267.2999999999886 1287.2999999999886 1307.2999999999886 1327.2999999999886 1347.2999999999886 1367.2999999999886 1387.2999999999884 1407.2999999999884 1427.2999999999884 1447.2999999999884 1467.2999999999884 1487.2999999999884 1507.2999999999884 1527.2999999999884 1547.2999999999884 1567.2999999999884 1587.2999999999884 1607.2999999999884 1627.2999999999884 1647.2999999999884 1667.2999999999884
cb_03,24.0,enc_trial,stim,response,Iceland trip,1124.4000000029919,enc_trial,1.0,24.0,t_i_17_1,travel_Iceland,fold-e,binoculars,3.0,unique,close,paired,t_i_17_1.jpg,Iceland,travel-b1,Iceland trip,Miami trip,sub-42,0.0,0.0,1.0,1.0,0.5041095890410959 0.4938356164383562 0.4794520547945205 0.4691780821917808 0.4486301369863014 0.40136986301369865 0.3726027397260274 0.3438356164383562 0.31917808219178084 0.29554794520547945 0.2493150684931507 0.236986301369863 0.22157534246575344 0.21027397260273967 0.2041095890410959 0.19897260273972608 0.1876712328767124 0.18253424657534248 0.17534246575342466 0.1712328767123288 0.16301369863013698 0.15787671232876713 0.15273972602739727 0.1445205479452055 0.13938356164383564 0.13630136986301372 0.13527397260273974,0.8191780821917808 0.7890410958904109 0.747945205479452 0.7164383561643836 0.6698630136986301 0.5547945205479452 0.5027397260273972 0.4534246575342466 0.41506849315068495 0.3794520547945206 0.3191780821917808 0.3054794520547945 0.2917808219178082 0.27808219178082194 0.27260273972602744 0.2643835616438356 0.2424657534246575 0.2328767123287672 0.2246575342465753 0.2191780821917808 0.2068493150684932 0.2 0.19589041095890414 0.1863013698630137 0.18219178082191773 0.17808219178082196 0.17808219178082196,566.7000000000116 586.7000000000116 606.7000000000116 626.7000000000116 646.7000000000116 666.7000000000116 686.7000000000116 706.7000000000116 726.7000000000116 746.7000000000116 766.7000000000116 786.7000000000116 806.7000000000116 826.7000000000116 846.7000000000116 866.7000000000116 886.7000000000116 906.7000000000116 926.7000000000116 946.7000000000116 966.7000000000116 986.7000000000116 1006.7000000000116 1026.7000000000116 1046.7000000000116 1066.7000000000116 1086.7000000000116
cb_03,25.0,enc_trial,stim,response,Miami trip,1266.1999999999825,enc_trial,1.0,25.0,t_m_01_2,travel_Miami,fold-a,sandals,3.0,unique,far,paired,t_m_01_2.jpg,Miami,travel-b1,Iceland trip,Miami trip,sub-42,1.0,1.0,1.0,1.0,0.501027397260274 0.4722602739726027 0.4434931506849315 0.3931506849315069 0.34178082191780823 0.28321917808219177 0.2688356164383562 0.2657534246575343 0.2678082191780822 0.27808219178082194 0.3273972602739726 0.3715753424657534 0.4568493150684931 0.5041095890410959 0.5657534246575343 0.6602739726027398 0.6756849315068494 0.7178082191780822 0.7352739726027397 0.7465753424657535 0.767123287671233 0.7712328767123288 0.7773972602739726 0.7794520547945206 0.7794520547945206 0.7794520547945206 0.7794520547945206 0.7815068493150685 0.7835616438356164 0.798972602739726 0.8184931506849316 0.8308219178082192 0.8380136986301371 0.8431506849315069 0.8452054794520548 0.8462328767123288,0.8041095890410959 0.7136986301369863 0.6369863013698629 0.526027397260274 0.4232876712328767 0.32191780821917804 0.29863013698630136 0.2863013698630137 0.2808219178082192 0.2808219178082192 0.273972602739726 0.2657534246575343 0.2479452054794521 0.2356164383561644 0.2205479452054795 0.1972602739726027 0.1931506849315069 0.18219178082191773 0.18219178082191773 0.18219178082191773 0.1808219178082192 0.1808219178082192 0.1808219178082192 0.18219178082191773 0.18219178082191773 0.18219178082191773 0.18219178082191773 0.18219178082191773 0.18219178082191773 0.1808219178082192 0.17945205479452053 0.17671232876712328 0.1753424657534246 0.17397260273972606 0.17397260273972606 0.17397260273972606,550.1999999999825 570.1999999999825 590.1999999999825 610.1999999999825 630.1999999999825 650.1999999999825 670.1999999999825 690.1999999999824 710.1999999999824 730.1999999999824 750.1999999999824 770.1999999999824 790.1999999999824 810.1999999999824 830.1999999999824 850.1999999999824 870.1999999999824 890.1999999999824 910.1999999999823 930.1999999999823 950.1999999999823 970.1999999999823 990.1999999999823 1010.1999999999823 1030.1999999999823 1050.1999999999823 1070.1999999999823 1090.1999999999823 1110.1999999999823 1130.1999999999825 1150.1999999999825 1170.1999999999825 1190.1999999999825 1210.1999999999825 1230.1999999999825 1250.1999999999825
cb_03,26.0,enc_trial,stim,response,Miami trip,1198.9999999970316,enc_trial,1.0,26.0,t_m_18_1,travel_Miami,fold-b-single,waterproof tote,3.0,unique,,single,t_m_18_1.jpg,Miami,travel-b1,Iceland trip,Miami trip,sub-42,1.0,,1.0,,0.5143835616438356 0.5143835616438356 0.5143835616438356 0.5143835616438356 0.5143835616438356 0.5143835616438356 0.5143835616438356 0.5133561643835617 0.5133561643835617 0.5133561643835617 0.5133561643835617 0.5133561643835617 0.5133561643835617 0.5133561643835617 0.5133561643835617 0.5133561643835617 0.5133561643835617 0.5133561643835617 0.5133561643835617 0.5133561643835617 0.5133561643835617 0.5133561643835617 0.5133561643835617 0.5123287671232877 0.5123287671232877 0.5123287671232877 0.5143835616438356 0.5267123287671234 0.540068493150685 0.5606164383561645 0.6078767123287672 0.6530821917808219 0.6767123287671234 0.6962328767123288 0.7075342465753425 0.7229452054794521 0.7363013698630138 0.7424657534246576 0.7465753424657535 0.7486301369863014 0.7506849315068493 0.7547945205479453 0.7568493150684932 0.7568493150684932 0.7568493150684932 0.7589041095890412 0.7660958904109589 0.7681506849315068 0.7722602739726028 0.7804794520547945 0.8010273972602739 0.8154109589041096 0.8246575342465754 0.8287671232876713 0.8297945205479452,0.8027397260273973 0.8 0.7958904109589041 0.7958904109589041 0.7958904109589041 0.7958904109589041 0.7958904109589041 0.7986301369863014 0.7986301369863014 0.7986301369863014 0.7986301369863014 0.7986301369863014 0.7986301369863014 0.7986301369863014 0.7986301369863014 0.7986301369863014 0.7986301369863014 0.7986301369863014 0.7986301369863014 0.7986301369863014 0.7986301369863014 0.7986301369863014 0.7972602739726027 0.7945205479452055 0.7849315068493149 0.773972602739726 0.7630136986301371 0.7342465753424657 0.6972602739726028 0.6479452054794521 0.5328767123287671 0.4178082191780822 0.3561643835616438 0.3054794520547945 0.27808219178082194 0.23972602739726026 0.2136986301369863 0.2027397260273973 0.19452054794520546 0.18904109589041096 0.1863013698630137 0.17808219178082196 0.17671232876712328 0.1753424657534246 0.1753424657534246 0.17397260273972606 0.16849315068493154 0.16712328767123286 0.1657534246575343 0.16301369863013704 0.15616438356164386 0.15479452054794518 0.1534246575342466 0.15205479452054793 0.15205479452054793,33.30000000001746 53.30000000001746 73.30000000001745 93.30000000001745 113.30000000001745 133.30000000001746 153.30000000001746 173.30000000001746 193.30000000001743 213.30000000001743 233.30000000001743 253.30000000001743 273.3000000000174 293.3000000000174 313.3000000000174 333.3000000000174 353.30000000001746 373.30000000001746 393.30000000001746 413.30000000001746 433.30000000001746 453.30000000001746 473.30000000001746 493.30000000001746 513.3000000000175 533.3000000000175 553.3000000000175 573.3000000000175 593.3000000000175 613.3000000000175 633.3000000000175 653.3000000000175 673.3000000000175 693.3000000000176 713.3000000000176 733.3000000000176 753.3000000000176 773.3000000000176 793.3000000000176 813.3000000000176 833.3000000000176 853.3000000000176 873.3000000000176 893.3000000000176 913.3000000000177 933.3000000000177 953.3000000000177 973.3000000000177 993.3000000000177 1013.3000000000177 1033.3000000000177 1053.3000000000177 1073.3000000000177 1093.3000000000177 1113.3000000000177
cb_03,27.0,enc_trial,stim,response,Iceland trip,1505.7999999910535,enc_trial,1.0,27.0,t_s_10_2,travel_shared,fold-c,luggage lock,3.0,competing,far,paired,t_s_10_2.jpg,,travel-b1,Iceland trip,Miami trip,sub-42,1.0,1.0,0.0,1.0,0.4907534246575342 0.4876712328767123 0.4712328767123288 0.4506849315068493 0.4301369863013699 0.35205479452054794 0.3243150684931507 0.2863013698630137 0.24726027397260275 0.20719178082191786 0.16095890410958905 0.14554794520547948 0.13424657534246576 0.12705479452054794 0.1219178082191781 0.11678082191780825 0.11575342465753426 0.11575342465753426 0.11575342465753426 0.11472602739726027,0.7835616438356164 0.7684931506849315 0.7082191780821918 0.6534246575342466 0.6027397260273972 0.4315068493150685 0.3849315068493151 0.3315068493150685 0.2863013698630137 0.2424657534246575 0.19452054794520546 0.17808219178082196 0.1643835616438356 0.15616438356164386 0.14931506849315068 0.13972602739726026 0.13835616438356169 0.13835616438356169 0.13835616438356169 0.136986301369863,851.1000000000058 871.1000000000058 891.1000000000058 911.1000000000058 931.1000000000058 951.1000000000058 971.1000000000058 991.1000000000058 1011.1000000000058 1031.1000000000058 1051.1000000000058 1071.1000000000058 1091.1000000000058 1111.1000000000058 1131.1000000000058 1151.1000000000058 1171.1000000000058 1191.1000000000058 1211.1000000000058 1231.1000000000058
cb_03,28.0,enc_trial,stim,response,Iceland trip,1458.4000000029919,enc_trial,1.0,28.0,t_i_02_1,travel_Iceland,fold-e,scarf,3.0,unique,close,paired,t_i_02_1.jpg,Iceland,travel-b1,Iceland trip,Miami trip,sub-42,1.0,1.0,1.0,1.0,0.5082191780821917 0.5123287671232877 0.5143835616438356 0.5154109589041096 0.5154109589041096 0.5154109589041096 0.5133561643835617 0.5041095890410959 0.4876712328767123 0.4660958904109589 0.3952054794520548 0.3150684931506849 0.2544520547945205 0.2164383561643836 0.16917808219178085 0.1404109589041096 0.13424657534246576 0.13013698630136988 0.12808219178082192 0.12602739726027398 0.12294520547945205 0.11986301369863014 0.11164383561643837 0.10753424657534247 0.10547945205479453 0.10547945205479453 0.10547945205479453 0.10547945205479453 0.10547945205479453 0.10547945205479453 0.10753424657534247 0.10958904109589043 0.1106164383561644 0.11678082191780825 0.1219178082191781 0.12397260273972605 0.12500000000000006,0.8397260273972602 0.8315068493150685 0.8287671232876712 0.8273972602739725 0.826027397260274 0.826027397260274 0.8191780821917808 0.7972602739726027 0.7630136986301371 0.7095890410958905 0.5643835616438356 0.4273972602739726 0.3342465753424657 0.273972602739726 0.1986301369863014 0.1315068493150685 0.11095890410958907 0.09589041095890416 0.08630136986301372 0.08082191780821912 0.07260273972602738 0.06712328767123288 0.05616438356164388 0.050684931506849266 0.050684931506849266 0.050684931506849266 0.050684931506849266 0.050684931506849266 0.050684931506849266 0.05205479452054795 0.06164383561643836 0.06712328767123288 0.07123287671232881 0.08356164383561647 0.0931506849315068 0.09999999999999998 0.10136986301369866,683.7000000000116 703.7000000000116 723.7000000000116 743.7000000000116 763.7000000000116 783.7000000000116 803.7000000000116 823.7000000000116 843.7000000000116 863.7000000000116 883.7000000000116 903.7000000000116 923.7000000000116 943.7000000000116 963.7000000000116 983.7000000000116 1003.7000000000116 1023.7000000000116 1043.7000000000116 1063.7000000000116 1083.7000000000116 1103.7000000000116 1123.7000000000116 1143.7000000000114 1163.7000000000114 1183.7000000000114 1203.7000000000114 1223.7000000000114 1243.7000000000114 1263.7000000000114 1283.7000000000114 1303.7000000000114 1323.7000000000114 1343.7000000000114 1363.7000000000114 1383.7000000000116 1403.7000000000116
cb_03,29.0,enc_trial,stim,response,Miami trip,1144.5999999970081,enc_trial,1.0,29.0,t_i_17_2,travel_Iceland,fold-e,binoculars,3.0,unique,close,paired,t_i_17_2.jpg,Iceland,travel-b1,Iceland trip,Miami trip,sub-42,0.0,0.0,1.0,1.0,0.4989726027397261 0.5082191780821917 0.5431506849315069 0.579109589041096 0.6037671232876712 0.6818493150684932 0.728082191780822 0.7599315068493151 0.7876712328767124 0.8010273972602739 0.8133561643835617 0.8164383561643836 0.8164383561643836 0.8164383561643836 0.8164383561643836 0.8164383561643836 0.8174657534246575 0.8184931506849316 0.8205479452054795 0.8226027397260275 0.8236301369863014 0.8236301369863014 0.8246575342465754 0.8256849315068494 0.8256849315068494,0.8013698630136986 0.7794520547945205 0.7246575342465753 0.6616438356164384 0.6205479452054794 0.4780821917808219 0.3904109589041096 0.3356164383561644 0.28356164383561644 0.2520547945205479 0.22328767123287674 0.2219178082191781 0.2219178082191781 0.2205479452054795 0.2191780821917808 0.2191780821917808 0.21780821917808224 0.2164383561643836 0.2136986301369863 0.21095890410958906 0.2095890410958904 0.2095890410958904 0.2082191780821918 0.2068493150684932 0.20547945205479454,650.0999999999767 670.0999999999767 690.0999999999768 710.0999999999768 730.0999999999768 750.0999999999768 770.0999999999768 790.0999999999768 810.0999999999768 830.0999999999768 850.0999999999768 870.0999999999768 890.0999999999768 910.0999999999768 930.0999999999768 950.0999999999768 970.0999999999768 990.0999999999768 1010.0999999999768 1030.0999999999767 1050.0999999999767 1070.0999999999767 1090.0999999999767 1110.0999999999767 1130.0999999999767
cb_03,30.0,enc_trial,stim,response,Iceland trip,1127.2000000029802,enc_trial,1.0,30.0,t_s_22_1,travel_shared,fold-a-single,belt,3.0,competing,,single,t_s_22_1.jpg,,travel-b1,Iceland trip,Miami trip,sub-42,1.0,,1.0,,0.4958904109589041 0.4897260273972603 0.4763698630136986 0.464041095890411 0.4424657534246576 0.3571917808219178 0.29863013698630136 0.2503424657534247 0.2113013698630137 0.19075342465753425 0.17945205479452056 0.1712328767123288 0.16815068493150687 0.16712328767123288 0.16712328767123288 0.16712328767123288 0.16609589041095893 0.16506849315068495 0.16301369863013698 0.16301369863013698 0.16301369863013698,0.8150684931506851 0.7767123287671233 0.726027397260274 0.6835616438356165 0.6205479452054794 0.4479452054794521 0.35342465753424657 0.28356164383561644 0.226027397260274 0.1986301369863014 0.18356164383561646 0.16849315068493154 0.16164383561643836 0.16027397260273968 0.1589041095890411 0.15753424657534246 0.15753424657534246 0.15616438356164386 0.1534246575342466 0.1534246575342466 0.15205479452054793,683.0 703.0 723.0 743.0 763.0 783.0 803.0 823.0 843.0 863.0 883.0 903.0 923.0 943.0 963.0 983.0 1003.0 1023.0 1043.0 1063.0 1083.0
cb_03,31.0,enc_trial,stim,response,Iceland trip,1432.0999999970081,enc_trial,1.0,31.0,t_s_12_1,travel_shared,fold-b,clear toiletry bag,3.0,competing,close,paired,t_s_12_1.jpg,,travel-b1,Iceland trip,Miami trip,sub-42,1.0,1.0,1.0,0.0,0.5041095890410959 0.501027397260274 0.497945205479452 0.4794520547945205 0.4547945205479452 0.4054794520547945 0.3602739726027397 0.33664383561643835 0.3027397260273973 0.2554794520547945 0.21746575342465754 0.2 0.1876712328767124 0.1815068493150685 0.17226027397260274 0.16815068493150687 0.16712328767123288 0.16609589041095893 0.16301369863013698 0.15376712328767125 0.14657534246575346 0.14657534246575346 0.14657534246575346 0.14657534246575346 0.14657534246575346 0.14657534246575346,0.8109589041095892 0.7917808219178082 0.7684931506849315 0.7041095890410959 0.6479452054794521 0.552054794520548 0.4726027397260274 0.4356164383561644 0.3849315068493151 0.31506849315068497 0.263013698630137 0.24383561643835616 0.2315068493150685 0.226027397260274 0.2136986301369863 0.2068493150684932 0.20410958904109588 0.2027397260273973 0.1986301369863014 0.18219178082191773 0.17260273972602735 0.17260273972602735 0.17260273972602735 0.1712328767123288 0.1712328767123288 0.1698630136986301,933.1999999999823 953.1999999999823 973.1999999999823 993.1999999999823 1013.1999999999823 1033.1999999999823 1053.1999999999823 1073.1999999999823 1093.1999999999823 1113.1999999999823 1133.1999999999825 1153.1999999999825 1173.1999999999825 1193.1999999999825 1213.1999999999825 1233.1999999999825 1253.1999999999825 1273.1999999999825 1293.1999999999825 1313.1999999999825 1333.1999999999825 1353.1999999999825 1373.1999999999825 1393.1999999999825 1413.1999999999825 1433.1999999999825
cb_03,32.0,enc_trial,stim,response,Miami trip,1264.8999999910593,enc_trial,1.0,32.0,t_m_17_2,travel_Miami,fold-a,water gun,3.0,unique,far,paired,t_m_17_2.jpg,Miami,travel-b1,Iceland trip,Miami trip,sub-42,1.0,1.0,1.0,1.0,0.5061643835616438 0.5164383561643836 0.5339041095890411 0.5780821917808221 0.6109589041095891 0.7013698630136986 0.7332191780821918 0.7886986301369864 0.8215753424657535 0.8349315068493152 0.8657534246575342 0.8883561643835617 0.8914383561643836 0.8945205479452055 0.8945205479452055 0.8945205479452055 0.8945205479452055 0.8955479452054795 0.8965753424657534 0.8976027397260274 0.8976027397260274 0.8976027397260274 0.8976027397260274 0.8976027397260274 0.8976027397260274 0.8976027397260274 0.8976027397260274 0.8976027397260274 0.8976027397260274 0.8965753424657534 0.8945205479452055 0.8945205479452055 0.8945205479452055 0.8945205479452055,0.7849315068493149 0.7643835616438356 0.726027397260274 0.6369863013698629 0.5712328767123287 0.3863013698630137 0.326027397260274 0.22328767123287674 0.1657534246575343 0.13972602739726026 0.09178082191780823 0.058904109589041125 0.05616438356164388 0.05205479452054795 0.05205479452054795 0.05205479452054795 0.05205479452054795 0.05205479452054795 0.05205479452054795 0.05205479452054795 0.05205479452054795 0.05205479452054795 0.05205479452054795 0.05205479452054795 0.05205479452054795 0.05205479452054795 0.05205479452054795 0.05205479452054795 0.0547945205479452 0.05753424657534245 0.07260273972602738 0.07534246575342463 0.07808219178082187 0.0821917808219178,566.6000000000057 586.6000000000057 606.6000000000057 626.6000000000057 646.6000000000057 666.6000000000057 686.6000000000057 706.6000000000058 726.6000000000058 746.6000000000058 766.6000000000058 786.6000000000058 806.6000000000058 826.6000000000058 846.6000000000058 866.6000000000058 886.6000000000058 906.6000000000056 926.6000000000056 946.6000000000056 966.6000000000056 986.6000000000056 1006.6000000000056 1026.6000000000058 1046.6000000000058 1066.6000000000058 1086.6000000000058 1106.6000000000058 1126.6000000000058 1146.6000000000058 1166.6000000000058 1186.6000000000058 1206.6000000000058 1226.6000000000058
cb_03,33.0,enc_trial,stim,response,Iceland trip,1064.2999999970198,enc_trial,1.0,33.0,t_i_02_2,travel_Iceland,fold-e,scarf,3.0,unique,close,paired,t_i_02_2.jpg,Iceland,travel-b1,Iceland trip,Miami trip,sub-42,1.0,1.0,1.0,1.0,0.5041095890410959 0.4753424657534247 0.4445205479452055 0.40136986301369865 0.3561643835616438 0.2904109589041096 0.2534246575342466 0.23287671232876714 0.22054794520547946 0.2 0.1897260273972603 0.1897260273972603 0.1897260273972603 0.18869863013698632 0.18869863013698632 0.18869863013698632 0.18869863013698632 0.18869863013698632 0.1876712328767124 0.1876712328767124 0.1804794520547945 0.17226027397260274 0.16712328767123288 0.16198630136986306 0.1589041095890411,0.7958904109589041 0.7356164383561643 0.6643835616438356 0.5808219178082192 0.4958904109589041 0.3863013698630137 0.3191780821917808 0.2767123287671233 0.2479452054794521 0.2095890410958904 0.18767123287671228 0.1863013698630137 0.1863013698630137 0.1863013698630137 0.1863013698630137 0.1863013698630137 0.18356164383561646 0.18219178082191773 0.18219178082191773 0.1808219178082192 0.17397260273972606 0.1698630136986301 0.1657534246575343 0.1643835616438356 0.16301369863013704,533.3999999999942 553.3999999999942 573.3999999999943 593.3999999999943 613.3999999999943 633.3999999999943 653.3999999999943 673.3999999999943 693.3999999999942 713.3999999999942 733.3999999999942 753.3999999999942 773.3999999999942 793.3999999999942 813.3999999999942 833.3999999999942 853.3999999999942 873.3999999999942 893.3999999999942 913.3999999999942 933.3999999999942 953.3999999999942 973.3999999999942 993.3999999999942 1013.3999999999942
cb_03,34.0,enc_trial,stim,response,Miami trip,1383.2000000000116,enc_trial,1.0,34.0,t_s_12_2,travel_shared,fold-b,clear toiletry bag,3.0,competing,close,paired,t_s_12_2.jpg,,travel-b1,Iceland trip,Miami trip,sub-42,1.0,1.0,1.0,0.0,0.5041095890410959 0.4948630136986301 0.4794520547945205 0.465068493150685 0.4291095890410959 0.38904109589041097 0.3561643835616438 0.3458904109589041 0.3315068493150685 0.29863013698630136 0.2636986301369863 0.2565068493150685 0.2544520547945205 0.2534246575342466 0.2534246575342466 0.2698630136986301 0.2863013698630137 0.3253424657534247 0.3797945205479452 0.461986301369863 0.6202054794520548 0.6695205479452055 0.7486301369863014 0.7753424657534247 0.7897260273972603 0.7958904109589041 0.7958904109589041 0.7979452054794521 0.8 0.804109589041096 0.8113013698630137 0.8164383561643836 0.8215753424657535 0.8308219178082192 0.8400684931506851 0.8410958904109591 0.8410958904109591 0.8410958904109591 0.8421232876712329 0.8431506849315069 0.8452054794520548,0.8287671232876712 0.8 0.7520547945205479 0.7082191780821918 0.6164383561643836 0.5178082191780822 0.4424657534246576 0.42054794520547945 0.3890410958904109 0.31506849315068497 0.2547945205479452 0.2424657534246575 0.23972602739726026 0.23972602739726026 0.23972602739726026 0.2424657534246575 0.24520547945205484 0.24383561643835616 0.23972602739726026 0.2315068493150685 0.2123287671232877 0.2068493150684932 0.20410958904109588 0.20410958904109588 0.2027397260273973 0.2027397260273973 0.20136986301369866 0.1986301369863014 0.1986301369863014 0.19589041095890414 0.1931506849315069 0.18904109589041096 0.1863013698630137 0.18493150684931506 0.18219178082191773 0.18219178082191773 0.18219178082191773 0.18219178082191773 0.18219178082191773 0.18219178082191773 0.18219178082191773,567.1000000000057 587.1000000000057 607.1000000000057 627.1000000000057 647.1000000000057 667.1000000000057 687.1000000000057 707.1000000000058 727.1000000000058 747.1000000000058 767.1000000000058 787.1000000000058 807.1000000000058 827.1000000000058 847.1000000000058 867.1000000000058 887.1000000000058 907.1000000000056 927.1000000000056 947.1000000000056 967.1000000000056 987.1000000000056 1007.1000000000056 1027.1000000000058 1047.1000000000058 1067.1000000000058 1087.1000000000058 1107.1000000000058 1127.1000000000058 1147.1000000000058 1167.1000000000058 1187.1000000000058 1207.1000000000058 1227.1000000000058 1247.1000000000058 1267.1000000000058 1287.1000000000058 1307.1000000000058 1327.1000000000058 1347.1000000000058 1367.1000000000058
cb_03,35.0,enc_trial,stim,response,Iceland trip,1485.1999999910474,enc_trial,1.0,35.0,t_i_13_2,travel_Iceland,fold-a,sleeping bag,3.0,unique,far,paired,t_i_13_2.jpg,Iceland,travel-b1,Iceland trip,Miami trip,sub-42,1.0,1.0,1.0,1.0,0.5071917808219178 0.5133561643835617 0.5226027397260274 0.5328767123287672 0.5493150684931507 0.5832191780821918 0.5873287671232877 0.5904109589041097 0.5904109589041097 0.5904109589041097 0.5729452054794522 0.5482876712328768 0.5164383561643836 0.4712328767123288 0.4383561643835616 0.3931506849315069 0.3602739726027397 0.3407534246575343 0.3130136986301369 0.2821917808219178 0.2164383561643836 0.20205479452054795 0.19178082191780824 0.1856164383561644 0.1702054794520548 0.1558219178082192 0.15376712328767125 0.15273972602739727 0.15068493150684933 0.14965753424657535 0.1404109589041096 0.13938356164383564,0.8232876712328767 0.8082191780821918 0.7863013698630137 0.7643835616438356 0.7287671232876712 0.6520547945205479 0.6410958904109589 0.6328767123287671 0.6301369863013699 0.6273972602739726 0.6123287671232877 0.5931506849315069 0.5630136986301371 0.5136986301369864 0.4739726027397261 0.4013698630136986 0.3356164383561644 0.30410958904109586 0.2684931506849315 0.23972602739726026 0.1986301369863014 0.1917808219178082 0.18904109589041096 0.18767123287671228 0.18219178082191773 0.1808219178082192 0.1808219178082192 0.1808219178082192 0.1808219178082192 0.1808219178082192 0.17808219178082196 0.17671232876712328,799.8999999999942 819.8999999999942 839.8999999999942 859.8999999999942 879.8999999999942 899.8999999999942 919.8999999999942 939.8999999999942 959.8999999999942 979.8999999999942 999.8999999999942 1019.8999999999942 1039.8999999999942 1059.8999999999942 1079.8999999999942 1099.8999999999942 1119.8999999999942 1139.8999999999942 1159.8999999999942 1179.8999999999942 1199.8999999999942 1219.8999999999942 1239.8999999999942 1259.8999999999942 1279.8999999999942 1299.8999999999942 1319.8999999999942 1339.8999999999942 1359.8999999999942 1379.8999999999942 1399.8999999999942 1419.8999999999942
cb_03,36.0,enc_trial,stim,response,Miami trip,1297.8999999910593,enc_trial,1.0,36.0,t_s_21_1,travel_shared,fold-b,umbrella,3.0,competing,close,paired,t_s_21_1.jpg,,travel-b1,Iceland trip,Miami trip,sub-42,1.0,1.0,1.0,0.0,0.4958904109589041 0.5 0.5030821917808219 0.5143835616438356 0.5246575342465754 0.5544520547945206 0.5698630136986302 0.5821917808219179 0.6027397260273973 0.6222602739726028 0.6736301369863015 0.6972602739726028 0.7167808219178082 0.7424657534246576 0.7589041095890412 0.7948630136986302 0.8092465753424658 0.8256849315068494 0.8318493150684932 0.8380136986301371 0.8441780821917809 0.8523972602739727 0.8534246575342466 0.8534246575342466 0.8534246575342466 0.8534246575342466 0.8534246575342466 0.8534246575342466 0.8534246575342466 0.8534246575342466 0.8544520547945206 0.8544520547945206 0.8544520547945206,0.8191780821917808 0.8123287671232877 0.8041095890410959 0.7863013698630137 0.7726027397260273 0.7287671232876712 0.7054794520547945 0.6849315068493151 0.6547945205479452 0.6260273972602739 0.5493150684931507 0.5164383561643835 0.4835616438356164 0.4438356164383561 0.4178082191780822 0.3506849315068493 0.3205479452054795 0.2794520547945205 0.26027397260273977 0.2383561643835617 0.2219178082191781 0.1931506849315069 0.18767123287671228 0.1863013698630137 0.1863013698630137 0.1863013698630137 0.1863013698630137 0.1863013698630137 0.18493150684931506 0.18219178082191773 0.17808219178082196 0.17808219178082196 0.17671232876712328,599.7000000000116 619.7000000000116 639.7000000000116 659.7000000000116 679.7000000000116 699.7000000000116 719.7000000000116 739.7000000000116 759.7000000000116 779.7000000000116 799.7000000000116 819.7000000000116 839.7000000000116 859.7000000000116 879.7000000000116 899.7000000000116 919.7000000000116 939.7000000000116 959.7000000000116 979.7000000000116 999.7000000000116 1019.7000000000116 1039.7000000000116 1059.7000000000116 1079.7000000000116 1099.7000000000116 1119.7000000000116 1139.7000000000114 1159.7000000000114 1179.7000000000114 1199.7000000000114 1219.7000000000114 1239.7000000000114
cb_03,37.0,enc_trial,stim,response,Iceland trip,2258.700000000012,enc_trial,1.0,37.0,t_s_08_1,travel_shared,fold-a-single,hand lotion,3.0,competing,,single,t_s_08_1.jpg,,travel-b1,Iceland trip,Miami trip,sub-42,1.0,,1.0,,0.5092465753424658 0.5143835616438356 0.5390410958904109 0.5719178082191781 0.5945205479452055 0.6746575342465754 0.7342465753424658 0.7804794520547945 0.8236301369863014 0.8503424657534246 0.8780821917808219 0.8811643835616438 0.8821917808219178 0.8821917808219178 0.8832191780821919 0.8842465753424658 0.8842465753424658 0.8842465753424658 0.8842465753424658 0.8842465753424658 0.8842465753424658 0.8842465753424658 0.8842465753424658 0.8842465753424658 0.8842465753424658 0.8842465753424658 0.8842465753424658 0.8842465753424658 0.8842465753424658 0.8842465753424658 0.875 0.8626712328767123 0.8123287671232877 0.7465753424657535 0.7116438356164384 0.6736301369863015 0.6736301369863015 0.6736301369863015 0.6715753424657535 0.6643835616438357 0.6109589041095891 0.5606164383561645 0.5082191780821917 0.4311643835616438 0.3376712328767124 0.27705479452054793 0.2585616438356165 0.2452054794520548 0.238013698630137 0.23287671232876714 0.22465753424657536 0.2164383561643836 0.20821917808219176 0.2041095890410959 0.20308219178082199 0.20308219178082199 0.20308219178082199 0.20308219178082199 0.2 0.19383561643835606 0.16609589041095893 0.14863013698630134 0.13013698630136988 0.1219178082191781 0.1178082191780822,0.8534246575342466 0.8424657534246576 0.8013698630136986 0.7424657534246575 0.7027397260273973 0.5547945205479452 0.4506849315068493 0.3726027397260274 0.2972602739726027 0.24520547945205484 0.18493150684931506 0.17397260273972606 0.1712328767123288 0.1657534246575343 0.16164383561643836 0.16027397260273968 0.16027397260273968 0.16027397260273968 0.16027397260273968 0.16027397260273968 0.16027397260273968 0.16027397260273968 0.16027397260273968 0.16027397260273968 0.16027397260273968 0.16027397260273968 0.16027397260273968 0.16027397260273968 0.16027397260273968 0.16027397260273968 0.16027397260273968 0.15616438356164386 0.147945205479452 0.136986301369863 0.12739726027397258 0.11643835616438356 0.1150684931506849 0.1150684931506849 0.1150684931506849 0.1150684931506849 0.11232876712328764 0.11643835616438356 0.1205479452054794 0.13013698630136986 0.13287671232876708 0.13287671232876708 0.1315068493150685 0.12876712328767126 0.12739726027397258 0.12739726027397258 0.12602739726027398 0.12602739726027398 0.12739726027397258 0.12739726027397258 0.12739726027397258 0.13013698630136986 0.13013698630136986 0.13013698630136986 0.13013698630136986 0.13013698630136986 0.1315068493150685 0.1315068493150685 0.1315068493150685 0.1315068493150685 0.1315068493150685,950.2000000000116 970.2000000000116 990.2000000000116 1010.2000000000116 1030.2000000000116 1050.2000000000116 1070.2000000000116 1090.2000000000116 1110.2000000000116 1130.2000000000114 1150.2000000000114 1170.2000000000114 1190.2000000000114 1210.2000000000114 1230.2000000000114 1250.2000000000114 1270.2000000000114 1290.2000000000114 1310.2000000000114 1330.2000000000114 1350.2000000000114 1370.2000000000114 1390.2000000000116 1410.2000000000116 1430.2000000000116 1450.2000000000116 1470.2000000000116 1490.2000000000116 1510.2000000000116 1530.2000000000116 1550.2000000000116 1570.2000000000116 1590.2000000000116 1610.2000000000116 1630.2000000000116 1650.2000000000116 1670.2000000000116 1690.2000000000116 1710.2000000000116 1730.2000000000116 1750.2000000000116 1770.2000000000116 1790.2000000000116 1810.2000000000119 1830.2000000000119 1850.2000000000119 1870.2000000000119 1890.2000000000119 1910.2000000000119 1930.2000000000119 1950.2000000000119 1970.2000000000119 1990.2000000000119 2010.2000000000119 2030.2000000000119 2050.200000000012 2070.200000000012 2090.200000000012 2110.200000000012 2130.200000000012 2150.200000000012 2170.200000000012 2190.200000000012 2210.200000000012 2230.200000000012
cb_03,38.0,enc_trial,stim,response,Miami trip,1266.7999999999886,enc_trial,1.0,38.0,t_m_16_1,travel_Miami,fold-b-single,flippers,3.0,unique,,single,t_m_16_1.jpg,Miami,travel-b1,Iceland trip,Miami trip,sub-42,1.0,,1.0,,0.4958904109589041 0.4845890410958904 0.4660958904109589 0.43424657534246575 0.40445205479452057 0.3541095890410959 0.3479452054794521 0.3469178082191781 0.3479452054794521 0.3541095890410959 0.4280821917808219 0.4938356164383562 0.5534246575342466 0.6294520547945206 0.7095890410958905 0.7835616438356164 0.8071917808219179 0.8205479452054795 0.8277397260273973 0.8287671232876713 0.8308219178082192 0.8328767123287671 0.8390410958904109 0.8421232876712329 0.8452054794520548 0.8544520547945206 0.8585616438356165 0.8616438356164384 0.8647260273972603 0.8657534246575342 0.8688356164383562 0.8688356164383562 0.8698630136986302 0.8698630136986302,0.821917808219178 0.7835616438356164 0.7287671232876712 0.6589041095890411 0.5945205479452055 0.489041095890411 0.4671232876712329 0.458904109589041 0.4438356164383561 0.4287671232876712 0.3794520547945206 0.3575342465753425 0.3397260273972603 0.3191780821917808 0.3013698630136986 0.2767123287671233 0.26712328767123283 0.2589041095890411 0.2575342465753425 0.25616438356164384 0.2534246575342466 0.2506849315068493 0.24383561643835616 0.2424657534246575 0.2383561643835617 0.2301369863013699 0.2219178082191781 0.21506849315068488 0.2095890410958904 0.20136986301369866 0.18493150684931506 0.17945205479452053 0.17671232876712328 0.17397260273972606,600.0 620.0 640.0 660.0 680.0 700.0 720.0 740.0 760.0 780.0 800.0 820.0 840.0 860.0 880.0 900.0 920.0 940.0 960.0 980.0 1000.0 1020.0 1040.0 1060.0 1080.0 1100.0 1120.0 1140.0 1160.0 1180.0 1200.0 1220.0 1240.0 1260.0
cb_03,39.0,enc_trial,stim,response,Iceland trip,2192.599999997008,enc_trial,1.0,39.0,t_s_21_2,travel_shared,fold-b,umbrella,3.0,competing,close,paired,t_s_21_2.jpg,,travel-b1,Iceland trip,Miami trip,sub-42,1.0,1.0,1.0,0.0,0.5041095890410959 0.5113013698630137 0.5164383561643836 0.5246575342465754 0.5318493150684932 0.5606164383561645 0.5780821917808221 0.5986301369863014 0.6232876712328768 0.6561643835616439 0.7003424657534247 0.7250000000000001 0.7589041095890412 0.7732876712328768 0.7917808219178083 0.8226027397260275 0.8328767123287671 0.8410958904109591 0.8452054794520548 0.8482876712328767 0.8513698630136987 0.8513698630136987 0.8513698630136987 0.8523972602739727 0.8523972602739727 0.8534246575342466 0.8534246575342466 0.8534246575342466 0.8544520547945206 0.8544520547945206 0.8575342465753425 0.8585616438356165 0.8595890410958904 0.8606164383561644 0.8616438356164384 0.8647260273972603 0.8647260273972603 0.8647260273972603 0.8657534246575342 0.8657534246575342 0.8657534246575342 0.8606164383561644 0.8452054794520548 0.7815068493150685 0.6880136986301371 0.4732876712328768 0.2914383561643836 0.2143835616438356 0.16506849315068495 0.11883561643835618 0.08287671232876714 0.08287671232876714 0.08287671232876714 0.08390410958904111,0.7958904109589041 0.7849315068493149 0.773972602739726 0.7575342465753425 0.7397260273972603 0.6808219178082191 0.6479452054794521 0.6095890410958904 0.5726027397260274 0.5246575342465754 0.463013698630137 0.4301369863013699 0.3904109589041096 0.3712328767123288 0.3506849315068493 0.3095890410958904 0.2958904109589041 0.2849315068493151 0.2767123287671233 0.27260273972602744 0.26712328767123283 0.26712328767123283 0.2643835616438356 0.26164383561643834 0.2589041095890411 0.2547945205479452 0.2534246575342466 0.2534246575342466 0.24931506849315066 0.2465753424657534 0.2315068493150685 0.226027397260274 0.2205479452054795 0.2123287671232877 0.20410958904109588 0.18904109589041096 0.1863013698630137 0.18356164383561646 0.18219178082191773 0.18219178082191773 0.1808219178082192 0.1808219178082192 0.18356164383561646 0.1931506849315069 0.20136986301369866 0.2082191780821918 0.1931506849315069 0.1863013698630137 0.18219178082191773 0.17260273972602735 0.16301369863013704 0.16301369863013704 0.16027397260273968 0.16027397260273968,800.7999999999884 820.7999999999884 840.7999999999884 860.7999999999884 880.7999999999884 900.7999999999884 920.7999999999884 940.7999999999884 960.7999999999884 980.7999999999884 1000.7999999999884 1020.7999999999884 1040.7999999999884 1060.7999999999884 1080.7999999999884 1100.7999999999884 1120.7999999999884 1140.7999999999886 1160.7999999999886 1180.7999999999886 1200.7999999999886 1220.7999999999886 1240.7999999999886 1260.7999999999886 1280.7999999999886 1300.7999999999886 1320.7999999999886 1340.7999999999886 1360.7999999999886 1380.7999999999884 1400.7999999999884 1420.7999999999884 1440.7999999999884 1460.7999999999884 1480.7999999999884 1500.7999999999884 1520.7999999999884 1540.7999999999884 1560.7999999999884 1580.7999999999884 1600.7999999999884 1620.7999999999884 1640.7999999999884 1660.7999999999884 1680.7999999999884 1700.7999999999884 1720.7999999999884 1740.7999999999884 1760.7999999999884 1780.7999999999884 1800.7999999999884 1820.7999999999884 1840.7999999999884 1860.7999999999884
cb_03,40.0,enc_trial,stim,response,Miami trip,1998.2999999940512,enc_trial,1.0,40.0,t_s_10_1,travel_shared,fold-c,luggage lock,3.0,competing,far,paired,t_s_10_1.jpg,,travel-b1,Iceland trip,Miami trip,sub-42,1.0,1.0,0.0,1.0,0.5215753424657534 0.5215753424657534 0.5215753424657534 0.5215753424657534 0.5215753424657534 0.5205479452054794 0.5205479452054794 0.5205479452054794 0.5205479452054794 0.5205479452054794 0.5195205479452055 0.5164383561643836 0.5123287671232877 0.5020547945205479 0.4917808219178082 0.460958904109589 0.4404109589041096 0.426027397260274 0.41883561643835615 0.41883561643835615 0.4404109589041096 0.4547945205479452 0.5082191780821917 0.5452054794520549 0.5760273972602741 0.6839041095890411 0.7219178082191782 0.7434931506849316 0.7712328767123288 0.7773972602739726 0.7784246575342466 0.7794520547945206 0.7825342465753425 0.7845890410958904 0.7958904109589041 0.8123287671232877 0.8164383561643836 0.8205479452054795 0.8236301369863014 0.8267123287671233 0.8297945205479452 0.8318493150684932 0.8318493150684932 0.8328767123287671 0.8339041095890412 0.8339041095890412 0.8339041095890412,0.8616438356164384 0.8575342465753425 0.8561643835616438 0.8547945205479452 0.8520547945205479 0.8452054794520548 0.8410958904109589 0.8369863013698631 0.8315068493150685 0.8178082191780822 0.8068493150684931 0.7780821917808219 0.7547945205479452 0.7150684931506851 0.6821917808219178 0.6136986301369862 0.5712328767123287 0.5383561643835617 0.5123287671232877 0.4986301369863013 0.463013698630137 0.4506849315068493 0.4068493150684932 0.3835616438356164 0.363013698630137 0.3054794520547945 0.2876712328767124 0.2767123287671233 0.2657534246575343 0.263013698630137 0.263013698630137 0.26164383561643834 0.26027397260273977 0.2589041095890411 0.2520547945205479 0.23972602739726026 0.2342465753424657 0.2301369863013699 0.226027397260274 0.2164383561643836 0.2082191780821918 0.20410958904109588 0.1986301369863014 0.19589041095890414 0.1931506849315069 0.19041095890410964 0.18904109589041096,1049.8000000000177 1069.8000000000177 1089.8000000000177 1109.8000000000177 1129.8000000000175 1149.8000000000175 1169.8000000000175 1189.8000000000175 1209.8000000000175 1229.8000000000175 1249.8000000000175 1269.8000000000175 1289.8000000000175 1309.8000000000175 1329.8000000000175 1349.8000000000175 1369.8000000000175 1389.8000000000175 1409.8000000000175 1429.8000000000175 1449.8000000000175 1469.8000000000175 1489.8000000000175 1509.8000000000175 1529.8000000000175 1549.8000000000175 1569.8000000000175 1589.8000000000175 1609.8000000000175 1629.8000000000175 1649.8000000000175 1669.8000000000175 1689.8000000000175 1709.8000000000175 1729.8000000000175 1749.8000000000175 1769.8000000000175 1789.8000000000175 1809.8000000000175 1829.8000000000175 1849.8000000000175 1869.8000000000175 1889.8000000000175 1909.8000000000175 1929.8000000000175 1949.8000000000175 1969.8000000000175
cb_03,41.0,enc_trial,stim,response,Fine Arts students,1385.2000000000116,enc_trial,2.0,1.0,s_a_09_1,student_art,fold-e,picture frame,3.0,unique,close,paired,s_a_09_1.jpg,art,student-b1,STEM students,Fine Arts students,sub-42,1.0,1.0,1.0,1.0,0.5 0.5184931506849315 0.541095890410959 0.5904109589041097 0.6438356164383562 0.6880136986301371 0.7476027397260274 0.7773972602739726 0.7856164383561645 0.7897260273972603 0.7979452054794521 0.798972602739726 0.8010273972602739 0.8061643835616439 0.8123287671232877 0.8164383561643836 0.8164383561643836 0.8164383561643836 0.8205479452054795 0.8236301369863014 0.8267123287671233 0.8308219178082192 0.8328767123287671 0.8359589041095891 0.8390410958904109 0.8410958904109591 0.8410958904109591 0.8421232876712329 0.8431506849315069,0.8630136986301371 0.8205479452054795 0.773972602739726 0.6808219178082191 0.5904109589041096 0.5082191780821919 0.3931506849315069 0.3315068493150685 0.3136986301369863 0.3013698630136986 0.2657534246575343 0.25616438356164384 0.2424657534246575 0.226027397260274 0.2136986301369863 0.20410958904109588 0.2 0.1986301369863014 0.1931506849315069 0.18767123287671228 0.18219178082191773 0.17260273972602735 0.1712328767123288 0.1657534246575343 0.16027397260273968 0.16027397260273968 0.1589041095890411 0.1589041095890411 0.1589041095890411,816.4000000000232 836.4000000000232 856.4000000000232 876.4000000000232 896.4000000000232 916.4000000000232 936.4000000000232 956.4000000000232 976.4000000000232 996.4000000000232 1016.4000000000232 1036.4000000000233 1056.4000000000233 1076.4000000000233 1096.4000000000233 1116.4000000000233 1136.4000000000233 1156.4000000000233 1176.4000000000233 1196.4000000000233 1216.4000000000233 1236.4000000000233 1256.4000000000233 1276.4000000000233 1296.4000000000233 1316.4000000000233 1336.4000000000233 1356.4000000000233 1376.4000000000233
cb_03,42.0,enc_trial,stim,response,STEM students,1784.8999999910593,enc_trial,2.0,2.0,s_s_17_2,student_stem,fold-e,ring stand,3.0,unique,close,paired,s_s_17_2.jpg,stem,student-b1,STEM students,Fine Arts students,sub-42,1.0,1.0,1.0,1.0,0.4958904109589041 0.4907534246575342 0.4773972602739726 0.4568493150684931 0.4373287671232877 0.3643835616438356 0.348972602739726 0.3325342465753425 0.3078767123287671 0.2976027397260274 0.275 0.2657534246575343 0.2585616438356165 0.2534246575342466 0.2493150684931507 0.2421232876712329 0.238013698630137 0.2349315068493151 0.22876712328767124 0.22054794520547946 0.2164383561643836 0.21335616438356164 0.20719178082191786 0.2 0.19178082191780824 0.17534246575342466 0.16815068493150687 0.1589041095890411 0.15684931506849314 0.1547945205479452 0.1547945205479452,0.8369863013698631 0.8068493150684931 0.747945205479452 0.6753424657534246 0.6178082191780823 0.4835616438356164 0.4616438356164384 0.4342465753424658 0.3904109589041096 0.36575342465753424 0.3136986301369863 0.2917808219178082 0.2753424657534247 0.26164383561643834 0.2520547945205479 0.2410958904109589 0.2328767123287672 0.226027397260274 0.21780821917808224 0.2068493150684932 0.20136986301369866 0.1986301369863014 0.1931506849315069 0.18767123287671228 0.1808219178082192 0.1712328767123288 0.1657534246575343 0.16027397260273968 0.16027397260273968 0.1589041095890411 0.15753424657534246,832.9000000000232 852.9000000000232 872.9000000000232 892.9000000000232 912.9000000000232 932.9000000000232 952.9000000000232 972.9000000000232 992.9000000000232 1012.9000000000232 1032.9000000000233 1052.9000000000233 1072.9000000000233 1092.9000000000233 1112.9000000000233 1132.9000000000233 1152.9000000000233 1172.9000000000233 1192.9000000000233 1212.9000000000233 1232.9000000000233 1252.9000000000233 1272.9000000000233 1292.9000000000233 1312.9000000000233 1332.9000000000233 1352.9000000000233 1372.9000000000233 1392.9000000000233 1412.9000000000233 1432.9000000000233
cb_03,43.0,enc_trial,stim,response,Fine Arts students,954.5999999940396,enc_trial,2.0,3.0,s_a_03_1,student_art,fold-e,palette,3.0,unique,close,paired,s_a_03_1.jpg,art,student-b1,STEM students,Fine Arts students,sub-42,1.0,1.0,1.0,1.0,0.5051369863013698 0.5236301369863013 0.5678082191780822 0.5986301369863014 0.6602739726027398 0.7866438356164384 0.8482876712328767 0.8780821917808219 0.8986301369863015 0.9068493150684932 0.9150684931506852 0.9150684931506852 0.9150684931506852 0.9150684931506852 0.9150684931506852 0.9150684931506852 0.9150684931506852 0.9150684931506852 0.9150684931506852 0.9150684931506852 0.9150684931506852,0.8493150684931507 0.8109589041095892 0.7232876712328767 0.6684931506849314 0.5602739726027397 0.363013698630137 0.26712328767123283 0.21780821917808224 0.18767123287671228 0.1698630136986301 0.147945205479452 0.147945205479452 0.147945205479452 0.147945205479452 0.147945205479452 0.13835616438356169 0.13835616438356169 0.136986301369863 0.13561643835616444 0.13561643835616444 0.13424657534246576,467.0 487.0 507.0 527.0 547.0 567.0 587.0 607.0 627.0 647.0 667.0 687.0 707.0 727.0 747.0 767.0 787.0 807.0 827.0 847.0 867.0
cb_03,44.0,enc_trial,stim,response,Fine Arts students,991.900000002992,enc_trial,2.0,4.0,s_a_09_2,student_art,fold-e,picture frame,3.0,unique,close,paired,s_a_09_2.jpg,art,student-b1,STEM students,Fine Arts students,sub-42,1.0,1.0,1.0,1.0,0.4969178082191781 0.5215753424657534 0.5688356164383562 0.614041095890411 0.6602739726027398 0.7434931506849316 0.8092465753424658 0.8318493150684932 0.8523972602739727 0.8657534246575342 0.877054794520548 0.8780821917808219 0.8780821917808219 0.8780821917808219 0.8780821917808219 0.8780821917808219 0.8780821917808219 0.8780821917808219 0.8780821917808219 0.8780821917808219,0.8369863013698631 0.8 0.7342465753424657 0.6602739726027398 0.5821917808219178 0.4342465753424658 0.3205479452054795 0.2808219178082192 0.23698630136986296 0.20547945205479454 0.17808219178082196 0.1753424657534246 0.1753424657534246 0.1753424657534246 0.1753424657534246 0.1753424657534246 0.17260273972602735 0.1712328767123288 0.1698630136986301 0.16712328767123286,567.0 587.0 607.0 627.0 647.0 667.0 687.0 707.0 727.0 747.0 767.0 787.0 807.0 827.0 847.0 867.0 887.0 907.0 927.0 947.0
