Current Spreadsheet,Trial Number,Display,Screen,Response Type,Response,Reaction Time,display,block,block_trial,stimulus_id,expected_goal,fold,stimulus_name,c_group,condition,within_block_dist,paired_status,stimulus_path,expected_location,block_split,respStim_1,respStim_2,sub_label,acc,both_enc_acc,assoc_stim1_acc,assoc_stim2_acc,x_pos,y_pos,time_trajectories
cb_02,1.0,enc_trial,stim,response,STEM students,1886.4599999999994,enc_trial,1.0,1.0,s_s_10_1,student_stem,fold-c-single,3d molecule,2.0,unique,,single,s_s_10_1.jpg,stem,student-b1,STEM students,Fine Arts students,sub-08,1.0,,1.0,,0.5033312182741116 0.5185596446700508 0.5804251269035533 0.6946383248730964 0.7479378172588832 0.7945748730964467 0.7964784263959391 0.7964784263959391 0.7964784263959391 0.7964784263959391 0.7964784263959391 0.7964784263959391 0.7964784263959391 0.7964784263959391 0.7964784263959391 0.8040926395939086 0.8107550761421319 0.8240799492385786 0.830742385786802 0.8383565989847716 0.8431154822335025 0.8469225888324873 0.8440672588832487 0.830742385786802 0.8078997461928934 0.7622144670050761 0.6318210659898477 0.5632931472081218 0.5271256345177665 0.5033312182741116 0.4861992385786802 0.4861992385786802 0.4861992385786802 0.4861992385786802 0.4861992385786802 0.4861992385786802 0.4861992385786802 0.4861992385786802 0.4861992385786802 0.4861992385786802 0.4719225888324873 0.3615164974619289 0.2796637055837564 0.1806789340101523 0.13404187817258886 0.10358502538071067 0.08359771573604062 0.08169416243654826 0.08169416243654826 0.08359771573604062 0.08550126903553303 0.0883565989847716 0.0893083756345178 0.0893083756345178 0.0893083756345178,0.8274111675126904 0.7855329949238579 0.6307106598984771 0.3756345177664975 0.25 0.13197969543147206 0.12690355329949246 0.12690355329949246 0.12690355329949246 0.12690355329949246 0.12690355329949246 0.12690355329949246 0.12690355329949246 0.12690355329949246 0.12690355329949246 0.12690355329949246 0.12944162436548226 0.13451776649746194 0.13705583756345174 0.1383248730964467 0.13959390862944165 0.14213197969543145 0.14467005076142134 0.14974619289340094 0.15228426395939088 0.15228426395939088 0.13451776649746194 0.13451776649746194 0.14720812182741114 0.15355329949238586 0.15609137055837566 0.15609137055837566 0.15609137055837566 0.15609137055837566 0.15609137055837566 0.15609137055837566 0.15609137055837566 0.15609137055837566 0.15609137055837566 0.15609137055837566 0.1598984771573604 0.17766497461928932 0.184010152284264 0.18781725888324874 0.18781725888324874 0.18274111675126906 0.17512690355329952 0.17131979695431476 0.1675126903553299 0.16370558375634514 0.15862944162436546 0.15228426395939088 0.14847715736040612 0.1459390862944162 0.1434010152284264,783.3799999999974 803.3799999999974 823.3799999999974 843.3799999999974 863.3799999999974 883.3799999999974 903.3799999999974 923.3799999999974 943.3799999999974 963.3799999999974 983.3799999999974 1003.3799999999974 1023.3799999999974 1043.3799999999974 1063.3799999999974 1083.3799999999974 1103.3799999999974 1123.3799999999974 1143.3799999999976 1163.3799999999976 1183.3799999999976 1203.3799999999976 1223.3799999999976 1243.3799999999976 1263.3799999999976 1283.3799999999976 1303.3799999999976 1323.3799999999976 1343.3799999999976 1363.3799999999976 1383.3799999999976 1403.3799999999976 1423.3799999999976 1443.3799999999976 1463.3799999999976 1483.3799999999976 1503.3799999999976 1523.3799999999976 1543.3799999999976 1563.3799999999976 1583.3799999999976 1603.3799999999976 1623.3799999999976 1643.3799999999976 1663.3799999999976 1683.3799999999976 1703.3799999999976 1723.3799999999976 1743.3799999999976 1763.3799999999976 1783.3799999999976 1803.3799999999972 1823.3799999999972 1843.3799999999972 1863.3799999999972
cb_02,2.0,enc_trial,stim,response,Fine Arts students,1404.9400000000023,enc_trial,1.0,2.0,s_a_05_1,student_art,fold-c-single,clay,2.0,unique,,single,s_a_05_1.jpg,art,student-b1,STEM students,Fine Arts students,sub-08,1.0,,1.0,,0.4995241116751269 0.5014276649746193 0.509993654822335 0.6203997461928934 0.7098667512690355 0.7869606598984772 0.860247461928934 0.8697652284263959 0.8697652284263959 0.8697652284263959 0.8697652284263959 0.8697652284263959 0.8697652284263959 0.8697652284263959 0.8697652284263959 0.8697652284263959 0.8735723350253807 0.8764276649746192 0.8773794416243654 0.8792829949238579 0.8792829949238579 0.8802347715736041 0.8802347715736041 0.8802347715736041 0.8802347715736041 0.8802347715736041 0.8802347715736041 0.8802347715736041 0.8802347715736041 0.8792829949238579 0.8792829949238579 0.8792829949238579,0.8362944162436549 0.8299492385786802 0.8020304568527918 0.5748730964467005 0.4137055837563451 0.27284263959390864 0.1307106598984772 0.1091370558375635 0.1091370558375635 0.1091370558375635 0.1091370558375635 0.1091370558375635 0.1091370558375635 0.1091370558375635 0.1091370558375635 0.1091370558375635 0.10786802030456856 0.1065989847715736 0.10532994923857864 0.10532994923857864 0.1040609137055838 0.1040609137055838 0.1040609137055838 0.10532994923857864 0.10532994923857864 0.1065989847715736 0.1065989847715736 0.1065989847715736 0.1065989847715736 0.10786802030456856 0.10786802030456856 0.1091370558375635,700.0 720.0 740.0 760.0 780.0 800.0 820.0 840.0 860.0 880.0 900.0 920.0 940.0 960.0 980.0 1000.0 1020.0 1040.0 1060.0 1080.0 1100.0 1120.0 1140.0 1160.0 1180.0 1200.0 1220.0 1240.0 1260.0 1280.0 1300.0 1320.0
cb_02,3.0,enc_trial,stim,response,Fine Arts students,2804.800000000003,enc_trial,1.0,3.0,s_sh_20_1,student_shared,fold-c,tape,2.0,competing,far,paired,s_sh_20_1.jpg,,student-b1,STEM students,Fine Arts students,sub-08,0.0,0.0,1.0,0.0,0.4995241116751269 0.4995241116751269 0.4985723350253807 0.4985723350253807 0.4985723350253807 0.4976205583756345 0.4966687817258883 0.4966687817258883 0.4966687817258883 0.4966687817258883 0.4966687817258883 0.4966687817258883 0.4890545685279188 0.4785850253807107 0.4157677664974619 0.2891814720812183 0.2492068527918781 0.2235088832487309 0.21018401015228427 0.20352157360406087 0.20352157360406087 0.20352157360406087 0.20352157360406087 0.20352157360406087 0.20352157360406087 0.20352157360406087 0.20352157360406087 0.20352157360406087 0.20352157360406087 0.20352157360406087 0.21399111675126906 0.3424809644670051 0.5290291878172588 0.7412753807106599 0.8155139593908629 0.8535850253807107 0.9068845177664976 0.9068845177664976 0.9068845177664976 0.9068845177664976 0.9068845177664976 0.9068845177664976 0.9068845177664976 0.9068845177664976 0.9068845177664976 0.9068845177664976 0.9068845177664976 0.9068845177664976 0.9068845177664976 0.9040291878172588 0.9011738578680204 0.8973667512690355 0.8964149746192893 0.8964149746192893 0.8964149746192893 0.8964149746192893 0.8964149746192893 0.8964149746192893 0.8964149746192893 0.8964149746192893 0.8964149746192893 0.8964149746192893 0.8964149746192893 0.8964149746192893 0.8964149746192893 0.8964149746192893 0.8964149746192893 0.8964149746192893 0.8964149746192893 0.8964149746192893 0.8964149746192893 0.8964149746192893 0.8954631979695431 0.8954631979695431 0.8954631979695431 0.8954631979695431 0.8954631979695431 0.8954631979695431 0.8954631979695431 0.8954631979695431 0.8954631979695431 0.8945114213197969 0.8945114213197969 0.8945114213197969 0.8945114213197969 0.8945114213197969 0.8945114213197969,0.8312182741116751 0.8312182741116751 0.8312182741116751 0.8312182741116751 0.8312182741116751 0.8274111675126904 0.8274111675126904 0.8261421319796954 0.8261421319796954 0.8261421319796954 0.8261421319796954 0.8261421319796954 0.8185279187817259 0.8071065989847716 0.7309644670050761 0.5368020304568528 0.4593908629441624 0.3972081218274112 0.3604060913705584 0.33121827411167515 0.3274111675126904 0.3274111675126904 0.3274111675126904 0.3274111675126904 0.3274111675126904 0.3274111675126904 0.3274111675126904 0.3274111675126904 0.3274111675126904 0.3274111675126904 0.3274111675126904 0.3375634517766497 0.3032994923857868 0.17893401015228427 0.1142131979695431 0.08121827411167515 0.035532994923857864 0.035532994923857864 0.035532994923857864 0.035532994923857864 0.035532994923857864 0.035532994923857864 0.035532994923857864 0.035532994923857864 0.035532994923857864 0.035532994923857864 0.03680203045685282 0.04441624365482233 0.0532994923857868 0.06598984771573603 0.08121827411167515 0.1065989847715736 0.11548223350253806 0.11548223350253806 0.11548223350253806 0.11548223350253806 0.11548223350253806 0.11548223350253806 0.11548223350253806 0.11548223350253806 0.11548223350253806 0.11548223350253806 0.11548223350253806 0.11548223350253806 0.11548223350253806 0.11548223350253806 0.11548223350253806 0.11548223350253806 0.11548223350253806 0.11548223350253806 0.116751269035533 0.12055837563451775 0.12055837563451775 0.12182741116751272 0.12182741116751272 0.12182741116751272 0.12182741116751272 0.12182741116751272 0.12309644670050755 0.12309644670050755 0.12436548223350252 0.12690355329949246 0.12817258883248728 0.12944162436548226 0.12944162436548226 0.12944162436548226 0.12944162436548226,900.0400000000079 920.0400000000079 940.0400000000079 960.0400000000079 980.0400000000079 1000.0400000000079 1020.0400000000079 1040.040000000008 1060.040000000008 1080.040000000008 1100.040000000008 1120.040000000008 1140.040000000008 1160.040000000008 1180.040000000008 1200.040000000008 1220.040000000008 1240.040000000008 1260.040000000008 1280.040000000008 1300.040000000008 1320.040000000008 1340.040000000008 1360.040000000008 1380.040000000008 1400.040000000008 1420.040000000008 1440.040000000008 1460.040000000008 1480.040000000008 1500.040000000008 1520.040000000008 1540.040000000008 1560.040000000008 1580.040000000008 1600.040000000008 1620.040000000008 1640.040000000008 1660.040000000008 1680.040000000008 1700.040000000008 1720.040000000008 1740.040000000008 1760.040000000008 1780.040000000008 1800.040000000008 1820.040000000008 1840.040000000008 1860.040000000008 1880.040000000008 1900.040000000008 1920.040000000008 1940.040000000008 1960.040000000008 1980.040000000008 2000.040000000008 2020.040000000008 2040.040000000008 2060.040000000008 2080.040000000008 2100.040000000008 2120.040000000008 2140.040000000008 2160.040000000008 2180.040000000008 2200.040000000008 2220.040000000008 2240.040000000008 2260.040000000008 2280.040000000008 2300.040000000008 2320.040000000008 2340.040000000008 2360.040000000008 2380.040000000008 2400.040000000008 2420.040000000008 2440.040000000008 2460.040000000008 2480.040000000008 2500.040000000008 2520.040000000008 2540.040000000008 2560.040000000008 2580.040000000008 2600.040000000008 2620.040000000008
cb_02,4.0,enc_trial,stim,response,STEM students,1988.6000000000056,enc_trial,1.0,4.0,s_sh_23_1,student_shared,fold-a,ballpoint pen,2.0,competing,close,paired,s_sh_23_1.jpg,,student-b1,STEM students,Fine Arts students,sub-08,1.0,1.0,0.0,0.0,0.5061865482233503 0.5071383248730964 0.5080901015228426 0.5080901015228426 0.5080901015228426 0.5080901015228426 0.5090418781725888 0.5271256345177665 0.6099302030456852 0.7688769035532995 0.8412119289340101 0.8802347715736041 0.8802347715736041 0.8802347715736041 0.8802347715736041 0.8802347715736041 0.8802347715736041 0.8802347715736041 0.8802347715736041 0.8802347715736041 0.8802347715736041 0.8802347715736041 0.8802347715736041 0.8754758883248731 0.8707170050761421 0.8611992385786802 0.8573921319796954 0.850729695431472 0.8174175126903553 0.7555520304568528 0.667988578680203 0.5023794416243654 0.4538388324873097 0.42338197969543145 0.4091053299492386 0.3976840101522843 0.3976840101522843 0.3976840101522843 0.3976840101522843 0.3976840101522843 0.3976840101522843 0.3976840101522843 0.3681789340101523 0.3120241116751269 0.2558692893401016 0.20637690355329952 0.15688451776649748 0.13784898477157362 0.13784898477157362,0.8350253807106599 0.8388324873096447 0.8426395939086294 0.8439086294416244 0.8451776649746193 0.8451776649746193 0.8426395939086294 0.7969543147208122 0.6383248730964467 0.3489847715736041 0.20812182741116747 0.12944162436548226 0.12944162436548226 0.12944162436548226 0.12944162436548226 0.12944162436548226 0.12944162436548226 0.12944162436548226 0.12944162436548226 0.12944162436548226 0.12944162436548226 0.12944162436548226 0.12944162436548226 0.13324873096446702 0.1383248730964467 0.1459390862944162 0.14847715736040612 0.14847715736040612 0.1598984771573604 0.18020304568527928 0.19543147208121825 0.20558375634517767 0.2017766497461929 0.19289340101522845 0.18781725888324874 0.18274111675126906 0.18274111675126906 0.18274111675126906 0.18274111675126906 0.18274111675126906 0.18274111675126906 0.18274111675126906 0.184010152284264 0.1890862944162437 0.1890862944162437 0.18527918781725888 0.17131979695431476 0.16370558375634514 0.16370558375634514,816.7000000000116 836.7000000000116 856.7000000000116 876.7000000000116 896.7000000000116 916.7000000000116 936.7000000000116 956.7000000000116 976.7000000000116 996.7000000000116 1016.7000000000116 1036.7000000000116 1056.7000000000116 1076.7000000000116 1096.7000000000116 1116.7000000000116 1136.7000000000114 1156.7000000000114 1176.7000000000114 1196.7000000000114 1216.7000000000114 1236.7000000000114 1256.7000000000114 1276.7000000000114 1296.7000000000114 1316.7000000000114 1336.7000000000114 1356.7000000000114 1376.7000000000116 1396.7000000000116 1416.7000000000116 1436.7000000000116 1456.7000000000116 1476.7000000000116 1496.7000000000116 1516.7000000000116 1536.7000000000116 1556.7000000000116 1576.7000000000116 1596.7000000000116 1616.7000000000116 1636.7000000000116 1656.7000000000116 1676.7000000000116 1696.7000000000116 1716.7000000000116 1736.7000000000116 1756.7000000000116 1776.7000000000116
cb_02,5.0,enc_trial,stim,response,Fine Arts students,1887.0800000000013,enc_trial,1.0,5.0,s_a_20_1,student_art,fold-a,pin cushion,2.0,unique,far,paired,s_a_20_1.jpg,art,student-b1,STEM students,Fine Arts students,sub-08,1.0,1.0,1.0,1.0,0.5014276649746193 0.5014276649746193 0.5014276649746193 0.5014276649746193 0.5014276649746193 0.5014276649746193 0.5014276649746193 0.5014276649746193 0.5014276649746193 0.5014276649746193 0.5014276649746193 0.5014276649746193 0.5052347715736041 0.5214149746192893 0.5680520304568528 0.7355647208121827 0.7955266497461929 0.8393083756345178 0.8669098984771574 0.8821383248730964 0.8916560913705583 0.8916560913705583 0.8916560913705583 0.8916560913705583 0.8916560913705583 0.8916560913705583 0.8916560913705583 0.8916560913705583 0.8916560913705583 0.8916560913705583 0.8916560913705583 0.8916560913705583 0.8907043147208121 0.8897525380710659 0.8878489847715736 0.8868972081218274 0.8859454314720812 0.8859454314720812 0.8859454314720812 0.8859454314720812 0.8859454314720812,0.8350253807106599 0.8350253807106599 0.8362944162436549 0.8375634517766497 0.8375634517766497 0.8375634517766497 0.8375634517766497 0.8375634517766497 0.8375634517766497 0.8375634517766497 0.8375634517766497 0.8375634517766497 0.8312182741116751 0.799492385786802 0.7144670050761421 0.450507614213198 0.3540609137055838 0.2817258883248731 0.2322335025380711 0.20685279187817265 0.19035532994923854 0.19035532994923854 0.19035532994923854 0.19035532994923854 0.19035532994923854 0.19035532994923854 0.19035532994923854 0.19035532994923854 0.19035532994923854 0.19035532994923854 0.19035532994923854 0.19035532994923854 0.18781725888324874 0.18274111675126906 0.17766497461928932 0.17385786802030456 0.1675126903553299 0.16624365482233505 0.1649746192893401 0.16370558375634514 0.16370558375634514,883.3600000000006 903.3600000000006 923.3600000000006 943.3600000000006 963.3600000000006 983.3600000000006 1003.3600000000006 1023.3600000000006 1043.3600000000006 1063.3600000000006 1083.3600000000006 1103.3600000000006 1123.3600000000006 1143.3600000000004 1163.3600000000004 1183.3600000000004 1203.3600000000004 1223.3600000000004 1243.3600000000004 1263.3600000000004 1283.3600000000004 1303.3600000000004 1323.3600000000004 1343.3600000000004 1363.3600000000004 1383.3600000000006 1403.3600000000006 1423.3600000000006 1443.3600000000006 1463.3600000000006 1483.3600000000006 1503.3600000000006 1523.3600000000006 1543.3600000000006 1563.3600000000006 1583.3600000000006 1603.3600000000006 1623.3600000000006 1643.3600000000006 1663.3600000000006 1683.3600000000006
cb_02,6.0,enc_trial,stim,response,Fine Arts students,1502.5800000000015,enc_trial,1.0,6.0,s_a_16_1,student_art,fold-b,piano,2.0,unique,close,paired,s_a_16_1.jpg,art,student-b1,STEM students,Fine Arts students,sub-08,1.0,1.0,1.0,1.0,0.5014276649746193 0.5547271573604061 0.6375317258883249 0.7079631979695431 0.7603109137055838 0.7974302030456852 0.8107550761421319 0.8107550761421319 0.8107550761421319 0.8107550761421319 0.8107550761421319 0.8107550761421319 0.8107550761421319 0.8107550761421319 0.8107550761421319 0.8164657360406091 0.8250317258883249 0.840260152284264 0.8621510152284264 0.8773794416243654 0.8964149746192893 0.8992703045685279 0.9002220812182741 0.9002220812182741 0.9002220812182741 0.9002220812182741 0.8992703045685279,0.8261421319796954 0.6903553299492386 0.516497461928934 0.3781725888324873 0.27791878172588835 0.20558375634517767 0.18020304568527928 0.18020304568527928 0.18020304568527928 0.18020304568527928 0.18020304568527928 0.18020304568527928 0.18020304568527928 0.18020304568527928 0.18020304568527928 0.18020304568527928 0.17766497461928932 0.17131979695431476 0.1598984771573604 0.15101522842639592 0.13959390862944165 0.1383248730964467 0.13705583756345174 0.13705583756345174 0.13705583756345174 0.13705583756345174 0.13705583756345174,966.6999999999972 986.6999999999972 1006.6999999999972 1026.6999999999969 1046.6999999999969 1066.6999999999969 1086.6999999999969 1106.6999999999969 1126.6999999999969 1146.6999999999969 1166.6999999999969 1186.6999999999969 1206.6999999999969 1226.6999999999969 1246.6999999999969 1266.6999999999969 1286.6999999999969 1306.6999999999969 1326.6999999999969 1346.6999999999969 1366.6999999999969 1386.6999999999969 1406.6999999999969 1426.6999999999969 1446.6999999999969 1466.6999999999969 1486.6999999999969
cb_02,7.0,enc_trial,stim,response,STEM students,1403.4400000000023,enc_trial,1.0,7.0,s_s_02_1,student_stem,fold-b,flask,2.0,unique,close,paired,s_s_02_1.jpg,stem,student-b1,STEM students,Fine Arts students,sub-08,1.0,1.0,1.0,1.0,0.5052347715736041 0.5052347715736041 0.5052347715736041 0.5052347715736041 0.5052347715736041 0.5052347715736041 0.5052347715736041 0.5052347715736041 0.5052347715736041 0.5052347715736041 0.5052347715736041 0.5052347715736041 0.5052347715736041 0.5052347715736041 0.5052347715736041 0.5052347715736041 0.5052347715736041 0.5052347715736041 0.5052347715736041 0.5052347715736041 0.5052347715736041 0.5052347715736041 0.5052347715736041 0.5052347715736041 0.5052347715736041 0.5052347715736041 0.5052347715736041 0.5052347715736041 0.5052347715736041 0.5052347715736041 0.5052347715736041 0.5052347715736041 0.5052347715736041 0.5052347715736041 0.5052347715736041 0.5052347715736041 0.5052347715736041 0.5052347715736041 0.5052347715736041 0.5052347715736041 0.5052347715736041 0.5052347715736041 0.5052347715736041 0.5052347715736041 0.5052347715736041 0.5052347715736041 0.5052347715736041 0.4947652284263959 0.4804885786802031 0.4509835025380711 0.29489213197969544 0.2235088832487309 0.14451142131979694 0.11024746192893403 0.09597081218274114 0.09406725888324877 0.10644035532994926 0.1140545685279188 0.1140545685279188 0.1140545685279188 0.1140545685279188 0.1140545685279188 0.1140545685279188 0.1140545685279188 0.1140545685279188 0.1140545685279188 0.1140545685279188 0.1140545685279188 0.115006345177665 0.1159581218274112,0.8401015228426396 0.8401015228426396 0.8401015228426396 0.8401015228426396 0.8388324873096447 0.8388324873096447 0.8388324873096447 0.8388324873096447 0.8388324873096447 0.8388324873096447 0.8388324873096447 0.8388324873096447 0.8388324873096447 0.8388324873096447 0.8388324873096447 0.8388324873096447 0.8388324873096447 0.8388324873096447 0.8388324873096447 0.8388324873096447 0.8388324873096447 0.8388324873096447 0.8388324873096447 0.8388324873096447 0.8388324873096447 0.8388324873096447 0.8388324873096447 0.8388324873096447 0.8388324873096447 0.8388324873096447 0.8388324873096447 0.8388324873096447 0.8388324873096447 0.8388324873096447 0.8388324873096447 0.8388324873096447 0.8388324873096447 0.8388324873096447 0.8388324873096447 0.8388324873096447 0.8388324873096447 0.8388324873096447 0.8388324873096447 0.8388324873096447 0.8388324873096447 0.8388324873096447 0.8388324873096447 0.8375634517766497 0.8337563451776651 0.8197969543147208 0.6459390862944163 0.5177664974619289 0.3362944162436549 0.2246192893401016 0.15228426395939088 0.11548223350253806 0.07614213197969544 0.07614213197969544 0.07614213197969544 0.07614213197969544 0.07614213197969544 0.07614213197969544 0.07614213197969544 0.07614213197969544 0.07614213197969544 0.07614213197969544 0.07614213197969544 0.07614213197969544 0.07614213197969544 0.07614213197969544,0.0 20.0 40.0 60.0 80.0 100.0 120.0 140.0 160.0 180.0 200.0 220.0 240.0 260.0 280.0 300.0 320.0 340.0 360.0 380.0 400.0 420.0 440.0 460.0 480.0 500.0 520.0 540.0 560.0 580.0 600.0 620.0 640.0 660.0 680.0 700.0 720.0 740.0 760.0 780.0 800.0 820.0 840.0 860.0 880.0 900.0 920.0 940.0 960.0 980.0 1000.0 1020.0 1040.0 1060.0 1080.0 1100.0 1120.0 1140.0 1160.0 1180.0 1200.0 1220.0 1240.0 1260.0 1280.0 1300.0 1320.0 1340.0 1360.0 1380.0
cb_02,8.0,enc_trial,stim,response,Fine Arts students,1354.3000000000031,enc_trial,1.0,8.0,s_sh_23_2,student_shared,fold-a,ballpoint pen,2.0,competing,close,paired,s_sh_23_2.jpg,,student-b1,STEM students,Fine Arts students,sub-08,1.0,1.0,0.0,0.0,0.4957170050761421 0.4938134517766498 0.4919098984771574 0.4909581218274112 0.490006345177665 0.490006345177665 0.4909581218274112 0.4909581218274112 0.4909581218274112 0.4909581218274112 0.4938134517766498 0.5214149746192893 0.618496192893401 0.7507931472081218 0.8450190355329948 0.8811865482233502 0.9249682741116751 0.9249682741116751 0.9249682741116751 0.9249682741116751 0.9249682741116751 0.9249682741116751 0.9249682741116751 0.9249682741116751 0.9249682741116751 0.9249682741116751 0.9240164974619288 0.9211611675126904 0.9183058375634516 0.9125951776649746 0.9078362944162436 0.8992703045685279 0.8964149746192893 0.8945114213197969 0.8935596446700508 0.8935596446700508 0.8926078680203046,0.8350253807106599 0.8350253807106599 0.8337563451776651 0.8324873096446701 0.8324873096446701 0.8312182741116751 0.8312182741116751 0.8312182741116751 0.8312182741116751 0.8324873096446701 0.8324873096446701 0.8197969543147208 0.7296954314720812 0.5596446700507614 0.4073604060913706 0.33883248730964466 0.2423857868020305 0.2423857868020305 0.2423857868020305 0.2423857868020305 0.2423857868020305 0.2423857868020305 0.2423857868020305 0.2423857868020305 0.2423857868020305 0.2423857868020305 0.2347715736040609 0.2258883248730964 0.2157360406091371 0.20431472081218272 0.1916243654822335 0.1700507614213198 0.1624365482233503 0.1573604060913706 0.15482233502538068 0.15355329949238586 0.15228426395939088,600.040000000008 620.040000000008 640.040000000008 660.040000000008 680.040000000008 700.0400000000079 720.0400000000079 740.0400000000079 760.0400000000079 780.0400000000079 800.0400000000079 820.0400000000079 840.0400000000079 860.0400000000079 880.0400000000079 900.0400000000079 920.0400000000079 940.0400000000079 960.0400000000079 980.0400000000079 1000.0400000000079 1020.0400000000079 1040.040000000008 1060.040000000008 1080.040000000008 1100.040000000008 1120.040000000008 1140.040000000008 1160.040000000008 1180.040000000008 1200.040000000008 1220.040000000008 1240.040000000008 1260.040000000008 1280.040000000008 1300.040000000008 1320.040000000008
cb_02,9.0,enc_trial,stim,response,STEM students,2237.1600000000035,enc_trial,1.0,9.0,s_sh_04_1,student_shared,fold-c,laptop stand,2.0,competing,far,paired,s_sh_04_1.jpg,,student-b1,STEM students,Fine Arts students,sub-08,1.0,1.0,1.0,0.0,0.5004758883248731 0.5090418781725888 0.5623413705583756 0.702252538071066 0.8088515228426396 0.8573921319796954 0.8783312182741116 0.8783312182741116 0.8783312182741116 0.8783312182741116 0.8783312182741116 0.8783312182741116 0.8783312182741116 0.8783312182741116 0.8783312182741116 0.8783312182741116 0.8783312182741116 0.8754758883248731 0.8659581218274112 0.8516814720812182 0.8335977157360406 0.7898159898477157 0.7764911167512691 0.7764911167512691 0.7764911167512691 0.7764911167512691 0.7764911167512691 0.7764911167512691 0.7764911167512691 0.7764911167512691 0.7764911167512691 0.6422906091370558 0.4386104060913706 0.29774746192893403 0.21018401015228427 0.18543781725888328 0.14736675126903556 0.14736675126903556 0.14736675126903556 0.14736675126903556 0.14736675126903556 0.14736675126903556 0.14736675126903556 0.14736675126903556 0.14736675126903556 0.14736675126903556 0.14546319796954318 0.1426078680203046 0.13880076142131986 0.13594543147208124 0.13499365482233505 0.13404187817258886,0.8375634517766497 0.8223350253807107 0.7106598984771574 0.4035532994923858 0.1649746192893401 0.0583756345177665 0.011421319796954266 0.011421319796954266 0.011421319796954266 0.011421319796954266 0.011421319796954266 0.011421319796954266 0.011421319796954266 0.011421319796954266 0.011421319796954266 0.011421319796954266 0.012690355329949221 0.019035532994923887 0.03680203045685282 0.06091370558375631 0.08883248730964466 0.12690355329949246 0.1307106598984772 0.1307106598984772 0.1307106598984772 0.1307106598984772 0.1307106598984772 0.1307106598984772 0.1307106598984772 0.1307106598984772 0.1307106598984772 0.18654822335025376 0.2385786802030457 0.2398477157360405 0.2296954314720813 0.21192893401015234 0.17766497461928932 0.1725888324873096 0.1725888324873096 0.1725888324873096 0.1725888324873096 0.1725888324873096 0.1725888324873096 0.1725888324873096 0.1725888324873096 0.1725888324873096 0.17131979695431476 0.1675126903553299 0.16370558375634514 0.16116751269035534 0.15862944162436546 0.1573604060913706,1200.0599999999977 1220.0599999999977 1240.0599999999977 1260.0599999999977 1280.0599999999977 1300.0599999999977 1320.0599999999977 1340.0599999999977 1360.0599999999977 1380.0599999999977 1400.0599999999977 1420.0599999999977 1440.0599999999977 1460.0599999999977 1480.0599999999977 1500.0599999999977 1520.0599999999977 1540.0599999999977 1560.0599999999977 1580.0599999999977 1600.0599999999977 1620.0599999999977 1640.0599999999977 1660.0599999999977 1680.0599999999977 1700.0599999999977 1720.0599999999977 1740.0599999999977 1760.0599999999977 1780.0599999999977 1800.0599999999977 1820.0599999999977 1840.0599999999977 1860.0599999999977 1880.0599999999977 1900.0599999999977 1920.0599999999977 1940.0599999999977 1960.0599999999977 1980.0599999999977 2000.0599999999977 2020.0599999999977 2040.0599999999977 2060.0599999999977 2080.0599999999977 2100.0599999999977 2120.0599999999977 2140.0599999999977 2160.0599999999977 2180.0599999999977 2200.0599999999977 2220.0599999999977
cb_02,10.0,enc_trial,stim,response,STEM students,1387.6199999999951,enc_trial,1.0,10.0,s_s_02_2,student_stem,fold-b,flask,2.0,unique,close,paired,s_s_02_2.jpg,stem,student-b1,STEM students,Fine Arts students,sub-08,1.0,1.0,1.0,1.0,0.4966687817258883 0.4747779187817258 0.4119606598984772 0.3358185279187817 0.2644352791878173 0.2254124365482233 0.16925761421319802 0.16069162436548226 0.15878807106598988 0.15878807106598988 0.15878807106598988 0.15878807106598988 0.15878807106598988 0.15878807106598988 0.15878807106598988 0.15878807106598988 0.15878807106598988 0.15878807106598988 0.1559327411167513 0.1549809644670051 0.15212563451776653 0.15022208121827413 0.15022208121827413,0.8426395939086294 0.8147208121827412 0.7195431472081218 0.5964467005076142 0.4657360406091371 0.3769035532994924 0.20939086294416245 0.1675126903553299 0.15355329949238586 0.14720812182741114 0.14720812182741114 0.14720812182741114 0.14720812182741114 0.14720812182741114 0.14720812182741114 0.14720812182741114 0.14720812182741114 0.14720812182741114 0.1459390862944162 0.14467005076142134 0.1434010152284264 0.14213197969543145 0.1408629441624365,916.679999999993 936.679999999993 956.679999999993 976.679999999993 996.679999999993 1016.679999999993 1036.679999999993 1056.679999999993 1076.679999999993 1096.679999999993 1116.679999999993 1136.679999999993 1156.679999999993 1176.679999999993 1196.679999999993 1216.679999999993 1236.679999999993 1256.679999999993 1276.679999999993 1296.679999999993 1316.679999999993 1336.679999999993 1356.679999999993
cb_02,11.0,enc_trial,stim,response,Fine Arts students,1187.1600000000035,enc_trial,1.0,11.0,s_a_16_2,student_art,fold-b,piano,2.0,unique,close,paired,s_a_16_2.jpg,art,student-b1,STEM students,Fine Arts students,sub-08,1.0,1.0,1.0,1.0,0.4966687817258883 0.4966687817258883 0.4966687817258883 0.4966687817258883 0.4966687817258883 0.4966687817258883 0.4966687817258883 0.4966687817258883 0.4966687817258883 0.4966687817258883 0.4938134517766498 0.4938134517766498 0.5109454314720813 0.6042195431472082 0.6955901015228426 0.8212246192893401 0.8478743654822335 0.8659581218274112 0.8659581218274112 0.8659581218274112 0.8659581218274112 0.8659581218274112 0.8659581218274112 0.8659581218274112 0.8659581218274112 0.8659581218274112 0.8659581218274112 0.8659581218274112 0.8659581218274112 0.8659581218274112 0.8659581218274112 0.8669098984771574 0.8669098984771574,0.8401015228426396 0.8401015228426396 0.8401015228426396 0.8413705583756346 0.8426395939086294 0.8426395939086294 0.8426395939086294 0.8426395939086294 0.8426395939086294 0.8426395939086294 0.8413705583756346 0.8299492385786802 0.7817258883248731 0.6345177664974619 0.4974619289340102 0.27791878172588835 0.2208121827411168 0.17131979695431476 0.17131979695431476 0.17131979695431476 0.17131979695431476 0.17131979695431476 0.17131979695431476 0.17131979695431476 0.17131979695431476 0.17131979695431476 0.17131979695431476 0.17131979695431476 0.17131979695431476 0.1700507614213198 0.1675126903553299 0.16370558375634514 0.1624365482233503,516.6999999999971 536.6999999999971 556.6999999999971 576.6999999999971 596.6999999999971 616.6999999999971 636.6999999999971 656.6999999999971 676.6999999999971 696.6999999999971 716.6999999999971 736.6999999999971 756.6999999999971 776.6999999999971 796.6999999999971 816.6999999999971 836.6999999999971 856.6999999999971 876.6999999999971 896.6999999999971 916.6999999999972 936.6999999999972 956.6999999999972 976.6999999999972 996.6999999999972 1016.6999999999972 1036.6999999999969 1056.6999999999969 1076.6999999999969 1096.6999999999969 1116.6999999999969 1136.6999999999969 1156.6999999999969
cb_02,12.0,enc_trial,stim,response,STEM students,1387.679999999993,enc_trial,1.0,12.0,s_sh_18_1,student_shared,fold-c,wall calendar,2.0,competing,far,paired,s_sh_18_1.jpg,,student-b1,STEM students,Fine Arts students,sub-08,1.0,1.0,1.0,1.0,0.4985723350253807 0.4995241116751269 0.4995241116751269 0.4995241116751269 0.4985723350253807 0.4909581218274112 0.4662119289340101 0.4471763959390863 0.4300444162436548 0.3986357868020305 0.3158312182741117 0.28156725888324874 0.2672906091370559 0.25301395939086296 0.2473032994923858 0.2425444162436549 0.2377855329949239 0.2368337563451777 0.2368337563451777 0.2368337563451777 0.2368337563451777 0.2368337563451777 0.2368337563451777 0.2368337563451777 0.2368337563451777 0.2368337563451777 0.2368337563451777 0.2368337563451777 0.2368337563451777 0.2368337563451777 0.19876269035533 0.16354695431472085 0.13975253807106602 0.12452411167512692 0.115006345177665 0.11119923857868023 0.11024746192893403,0.8362944162436549 0.8375634517766497 0.8388324873096447 0.8388324873096447 0.8388324873096447 0.8337563451776651 0.8096446700507615 0.7868020304568528 0.7626903553299492 0.7182741116751269 0.5697969543147208 0.4885786802030457 0.4428934010152285 0.3934010152284264 0.3680203045685279 0.3426395939086294 0.3197969543147208 0.3121827411167513 0.30964467005076146 0.3083756345177665 0.3083756345177665 0.3083756345177665 0.3083756345177665 0.3083756345177665 0.3083756345177665 0.3083756345177665 0.3083756345177665 0.3083756345177665 0.3083756345177665 0.3083756345177665 0.24619289340101524 0.19035532994923854 0.15228426395939088 0.12817258883248728 0.11040609137055836 0.10152284263959388 0.10025380710659904,550.0199999999895 570.0199999999895 590.0199999999895 610.0199999999895 630.0199999999895 650.0199999999895 670.0199999999895 690.0199999999895 710.0199999999895 730.0199999999895 750.0199999999895 770.0199999999895 790.0199999999895 810.0199999999895 830.0199999999895 850.0199999999895 870.0199999999895 890.0199999999895 910.0199999999896 930.0199999999896 950.0199999999896 970.0199999999896 990.0199999999896 1010.0199999999896 1030.0199999999895 1050.0199999999895 1070.0199999999895 1090.0199999999895 1110.0199999999895 1130.0199999999895 1150.0199999999895 1170.0199999999895 1190.0199999999895 1210.0199999999895 1230.0199999999895 1250.0199999999895 1270.0199999999895
cb_02,13.0,enc_trial,stim,response,STEM students,1437.1999999999966,enc_trial,1.0,13.0,s_sh_09_1,student_shared,fold-c,paper clips,2.0,competing,far,paired,s_sh_09_1.jpg,,student-b1,STEM students,Fine Arts students,sub-08,1.0,1.0,0.0,0.0,0.4909581218274112 0.4319479695431472 0.3263007614213198 0.2368337563451777 0.16449873096446702 0.10358502538071067 0.09597081218274114 0.09216370558375638 0.09216370558375638 0.09216370558375638 0.09501903553299497,0.8312182741116751 0.7576142131979695 0.6142131979695431 0.4695431472081218 0.34137055837563457 0.20939086294416245 0.18654822335025376 0.17131979695431476 0.1675126903553299 0.16624365482233505 0.1675126903553299,1016.7200000000012 1036.7200000000012 1056.7200000000012 1076.7200000000012 1096.7200000000012 1116.7200000000012 1136.7200000000012 1156.7200000000012 1176.7200000000012 1196.7200000000012 1216.7200000000012
cb_02,14.0,enc_trial,stim,response,STEM students,2170.7200000000007,enc_trial,1.0,14.0,s_sh_07_1,student_shared,fold-a,ruler,2.0,competing,close,paired,s_sh_07_1.jpg,,student-b1,STEM students,Fine Arts students,sub-08,1.0,1.0,0.0,0.0,0.5004758883248731 0.5109454314720813 0.5157043147208121 0.5185596446700508 0.5223667512690355 0.4976205583756345 0.4214784263959391 0.3196383248730965 0.2492068527918781 0.1825824873096447 0.15688451776649748 0.13499365482233505 0.13118654822335027 0.13023477157360408 0.13023477157360408 0.13023477157360408 0.13023477157360408 0.13023477157360408 0.13023477157360408 0.13023477157360408 0.13023477157360408 0.13023477157360408 0.13023477157360408 0.1292829949238579 0.1283312182741117 0.12642766497461932 0.12452411167512692 0.12357233502538074 0.12262055837563456 0.12262055837563456 0.12262055837563456 0.12262055837563456 0.12262055837563456 0.12262055837563456 0.12262055837563456 0.12262055837563456 0.12262055837563456 0.12262055837563456 0.12262055837563456 0.12357233502538074 0.12357233502538074 0.12357233502538074 0.12357233502538074 0.12357233502538074 0.12357233502538074 0.12357233502538074 0.12357233502538074 0.12357233502538074 0.12357233502538074 0.12357233502538074 0.12357233502538074 0.12357233502538074 0.12357233502538074 0.12357233502538074 0.12357233502538074,0.8337563451776651 0.8489847715736041 0.8565989847715736 0.8604060913705583 0.8667512690355329 0.8375634517766497 0.7423857868020305 0.6104060913705585 0.5114213197969544 0.4035532994923858 0.34644670050761417 0.2804568527918781 0.2588832487309645 0.24619289340101524 0.24619289340101524 0.24619289340101524 0.24619289340101524 0.24619289340101524 0.24619289340101524 0.24619289340101524 0.24619289340101524 0.24619289340101524 0.2423857868020305 0.2373096446700508 0.2309644670050761 0.21954314720812185 0.19543147208121825 0.17639593908629436 0.1700507614213198 0.1624365482233503 0.15862944162436546 0.15609137055837566 0.15609137055837566 0.15609137055837566 0.15609137055837566 0.15482233502538068 0.15482233502538068 0.15482233502538068 0.15482233502538068 0.15609137055837566 0.15609137055837566 0.15609137055837566 0.15609137055837566 0.15609137055837566 0.15609137055837566 0.15609137055837566 0.15609137055837566 0.15609137055837566 0.15609137055837566 0.15609137055837566 0.15609137055837566 0.15609137055837566 0.15609137055837566 0.15609137055837566 0.15609137055837566,783.0 803.0 823.0 843.0 863.0 883.0 903.0 923.0 943.0 963.0 983.0 1003.0 1023.0 1043.0 1063.0 1083.0 1103.0 1123.0 1143.0 1163.0 1183.0 1203.0 1223.0 1243.0 1263.0 1283.0 1303.0 1323.0 1343.0 1363.0 1383.0 1403.0 1423.0 1443.0 1463.0 1483.0 1503.0 1523.0 1543.0 1563.0 1583.0 1603.0 1623.0 1643.0 1663.0 1683.0 1703.0 1723.0 1743.0 1763.0 1783.0 1803.0 1823.0 1843.0 1863.0
cb_02,15.0,enc_trial,stim,response,Fine Arts students,1353.8399999999965,enc_trial,1.0,15.0,s_a_17_1,student_art,fold-b,microphone,2.0,unique,close,paired,s_a_17_1.jpg,art,student-b1,STEM students,Fine Arts students,sub-08,1.0,1.0,1.0,1.0,0.5023794416243654 0.5128489847715736 0.5747144670050761 0.6841687817258884 0.7879124365482233 0.8335977157360406 0.8669098984771574 0.8669098984771574 0.8669098984771574 0.8669098984771574 0.8669098984771574 0.8669098984771574 0.8669098984771574 0.8669098984771574 0.8669098984771574 0.8669098984771574 0.8669098984771574 0.8669098984771574 0.8669098984771574 0.8669098984771574 0.8669098984771574 0.8669098984771574 0.8669098984771574 0.8669098984771574 0.8669098984771574,0.8274111675126904 0.7982233502538071 0.6827411167512691 0.5088832487309645 0.33883248730964466 0.2639593908629442 0.20812182741116747 0.20812182741116747 0.20812182741116747 0.20812182741116747 0.20812182741116747 0.20812182741116747 0.20812182741116747 0.20812182741116747 0.20812182741116747 0.20812182741116747 0.20812182741116747 0.20812182741116747 0.20812182741116747 0.20812182741116747 0.20812182741116747 0.200507614213198 0.199238578680203 0.1967005076142132 0.1967005076142132,850.0199999999895 870.0199999999895 890.0199999999895 910.0199999999896 930.0199999999896 950.0199999999896 970.0199999999896 990.0199999999896 1010.0199999999896 1030.0199999999895 1050.0199999999895 1070.0199999999895 1090.0199999999895 1110.0199999999895 1130.0199999999895 1150.0199999999895 1170.0199999999895 1190.0199999999895 1210.0199999999895 1230.0199999999895 1250.0199999999895 1270.0199999999895 1290.0199999999895 1310.0199999999895 1330.0199999999895
cb_02,16.0,enc_trial,stim,response,Fine Arts students,1302.6999999999969,enc_trial,1.0,16.0,s_a_14_1,student_art,fold-c-single,guitar pick,2.0,unique,,single,s_a_14_1.jpg,art,student-b1,STEM students,Fine Arts students,sub-08,1.0,,1.0,,0.5061865482233503 0.5642449238578681 0.6717956852791878 0.7612626903553299 0.8240799492385786 0.8773794416243654 0.8802347715736041 0.8802347715736041 0.8802347715736041 0.8802347715736041 0.8802347715736041 0.8802347715736041 0.8802347715736041 0.8792829949238579 0.8792829949238579 0.8783312182741116 0.8773794416243654 0.8773794416243654 0.8773794416243654 0.8773794416243654 0.8773794416243654 0.8773794416243654 0.8773794416243654 0.8773794416243654,0.8223350253807107 0.7309644670050761 0.5774111675126903 0.4441624365482234 0.3426395939086294 0.24873096446700504 0.2436548223350253 0.2436548223350253 0.2436548223350253 0.2436548223350253 0.2436548223350253 0.2436548223350253 0.2436548223350253 0.2398477157360405 0.2347715736040609 0.21954314720812185 0.20812182741116747 0.1967005076142132 0.18781725888324874 0.18020304568527928 0.1725888324873096 0.16370558375634514 0.16116751269035534 0.16116751269035534,833.3600000000006 853.3600000000006 873.3600000000006 893.3600000000006 913.3600000000006 933.3600000000006 953.3600000000006 973.3600000000006 993.3600000000006 1013.3600000000006 1033.3600000000006 1053.3600000000006 1073.3600000000006 1093.3600000000006 1113.3600000000006 1133.3600000000004 1153.3600000000004 1173.3600000000004 1193.3600000000004 1213.3600000000004 1233.3600000000004 1253.3600000000004 1273.3600000000004 1293.3600000000004
cb_02,17.0,enc_trial,stim,response,Fine Arts students,1821.5800000000013,enc_trial,1.0,17.0,s_sh_20_2,student_shared,fold-c,tape,2.0,competing,far,paired,s_sh_20_2.jpg,,student-b1,STEM students,Fine Arts students,sub-08,0.0,0.0,1.0,0.0,0.5090418781725888 0.5385469543147208 0.6756027918781726 0.7802982233502538 0.830742385786802 0.8916560913705583 0.9125951776649746 0.9125951776649746 0.9125951776649746 0.9125951776649746 0.9125951776649746 0.9125951776649746 0.9125951776649746 0.9125951776649746 0.9125951776649746 0.9125951776649746 0.9125951776649746 0.9125951776649746 0.9030774111675126 0.8783312182741116 0.8297906091370558 0.8126586294416244 0.8069479695431472 0.8069479695431472 0.8069479695431472 0.8069479695431472 0.8069479695431472 0.8069479695431472 0.8069479695431472 0.8069479695431472 0.8069479695431472 0.8088515228426396 0.8107550761421319 0.8136104060913706 0.8193210659898477 0.8250317258883249 0.8412119289340101 0.8469225888324873 0.8516814720812182 0.8545368020304568 0.855488578680203 0.8564403553299492,0.8337563451776651 0.7880710659898478 0.5520304568527918 0.33883248730964466 0.2233502538071066 0.07360406091370564 0.015228426395939132 0.015228426395939132 0.015228426395939132 0.015228426395939132 0.015228426395939132 0.015228426395939132 0.015228426395939132 0.015228426395939132 0.015228426395939132 0.015228426395939132 0.015228426395939132 0.016497461928933976 0.03807106598984766 0.08629441624365486 0.18020304568527928 0.21700507614213194 0.2284263959390863 0.2284263959390863 0.2284263959390863 0.2284263959390863 0.2284263959390863 0.2284263959390863 0.2284263959390863 0.2284263959390863 0.2284263959390863 0.2284263959390863 0.2284263959390863 0.2284263959390863 0.22715736040609136 0.2233502538071066 0.20812182741116747 0.200507614213198 0.1916243654822335 0.18527918781725888 0.18020304568527928 0.17766497461928932,833.3800000000048 853.3800000000048 873.3800000000048 893.3800000000048 913.3800000000048 933.3800000000048 953.3800000000048 973.3800000000048 993.3800000000048 1013.3800000000048 1033.3800000000047 1053.3800000000047 1073.3800000000047 1093.3800000000047 1113.3800000000047 1133.3800000000047 1153.3800000000047 1173.3800000000047 1193.3800000000047 1213.3800000000047 1233.3800000000047 1253.3800000000047 1273.3800000000047 1293.3800000000047 1313.3800000000047 1333.3800000000047 1353.3800000000047 1373.3800000000047 1393.3800000000049 1413.3800000000049 1433.3800000000049 1453.3800000000049 1473.3800000000049 1493.3800000000049 1513.3800000000049 1533.3800000000049 1553.3800000000049 1573.3800000000049 1593.3800000000049 1613.3800000000049 1633.3800000000049 1653.3800000000049
cb_02,18.0,enc_trial,stim,response,Fine Arts students,1421.7399999999911,enc_trial,1.0,18.0,s_sh_07_2,student_shared,fold-a,ruler,2.0,competing,close,paired,s_sh_07_2.jpg,,student-b1,STEM students,Fine Arts students,sub-08,1.0,1.0,0.0,0.0,0.5261738578680203 0.5461611675126904 0.5642449238578681 0.5756662436548223 0.5842322335025381 0.5870875634517766 0.5880393401015228 0.5880393401015228 0.6061230964467005 0.667988578680203 0.7546002538071066 0.8535850253807107 0.8764276649746192 0.8764276649746192 0.8764276649746192 0.8764276649746192 0.8764276649746192 0.8764276649746192 0.8764276649746192 0.8764276649746192 0.8764276649746192 0.8821383248730964 0.8859454314720812 0.8878489847715736 0.8888007614213198 0.8897525380710659 0.8897525380710659 0.8897525380710659 0.8897525380710659 0.8907043147208121 0.8907043147208121 0.8907043147208121 0.8907043147208121 0.8907043147208121 0.8907043147208121 0.8907043147208121,0.8565989847715736 0.8769035532994924 0.8959390862944162 0.9086294416243654 0.91751269035533 0.9200507614213198 0.9124365482233504 0.8934010152284264 0.8134517766497462 0.6789340101522843 0.5126903553299492 0.3324873096446701 0.2982233502538071 0.2982233502538071 0.2982233502538071 0.2982233502538071 0.2982233502538071 0.2982233502538071 0.2982233502538071 0.2982233502538071 0.2982233502538071 0.2906091370558376 0.2817258883248731 0.2690355329949239 0.2550761421319797 0.2411167512690356 0.2131979695431472 0.20558375634517767 0.19796954314720816 0.1941624365482234 0.1916243654822335 0.18781725888324874 0.18654822335025376 0.18654822335025376 0.18654822335025376 0.18527918781725888,700.0199999999895 720.0199999999895 740.0199999999895 760.0199999999895 780.0199999999895 800.0199999999895 820.0199999999895 840.0199999999895 860.0199999999895 880.0199999999895 900.0199999999895 920.0199999999896 940.0199999999896 960.0199999999896 980.0199999999896 1000.0199999999896 1020.0199999999896 1040.0199999999895 1060.0199999999895 1080.0199999999895 1100.0199999999895 1120.0199999999895 1140.0199999999895 1160.0199999999895 1180.0199999999895 1200.0199999999895 1220.0199999999895 1240.0199999999895 1260.0199999999895 1280.0199999999895 1300.0199999999895 1320.0199999999895 1340.0199999999895 1360.0199999999895 1380.0199999999895 1400.0199999999895
cb_02,19.0,enc_trial,stim,response,Fine Arts students,1305.7999999999886,enc_trial,1.0,19.0,s_a_20_2,student_art,fold-a,pin cushion,2.0,unique,far,paired,s_a_20_2.jpg,art,student-b1,STEM students,Fine Arts students,sub-08,1.0,1.0,1.0,1.0,0.5004758883248731 0.5128489847715736 0.6289657360406091 0.7060596446700508 0.7669733502538071 0.830742385786802 0.8393083756345178 0.8393083756345178 0.8393083756345178 0.8393083756345178 0.8393083756345178 0.8393083756345178 0.8393083756345178 0.8393083756345178 0.8393083756345178 0.8393083756345178 0.8393083756345178 0.8393083756345178 0.8393083756345178 0.840260152284264 0.8450190355329948 0.850729695431472 0.8516814720812182 0.8516814720812182 0.8516814720812182 0.8516814720812182 0.8516814720812182 0.8516814720812182 0.8526332487309645,0.8375634517766497 0.8134517766497462 0.5609137055837563 0.3781725888324873 0.2208121827411168 0.04441624365482233 0.015228426395939132 0.015228426395939132 0.015228426395939132 0.015228426395939132 0.015228426395939132 0.015228426395939132 0.015228426395939132 0.015228426395939132 0.015228426395939132 0.015228426395939132 0.015228426395939132 0.015228426395939132 0.015228426395939132 0.0241116751269036 0.04060913705583757 0.08121827411167515 0.1040609137055838 0.11802030456852795 0.1307106598984772 0.14213197969543145 0.14213197969543145 0.14213197969543145 0.14213197969543145,700.8999999999942 720.8999999999942 740.8999999999942 760.8999999999942 780.8999999999942 800.8999999999942 820.8999999999942 840.8999999999942 860.8999999999942 880.8999999999942 900.8999999999942 920.8999999999942 940.8999999999942 960.8999999999942 980.8999999999942 1000.8999999999942 1020.8999999999942 1040.8999999999942 1060.8999999999942 1080.8999999999942 1100.8999999999942 1120.8999999999942 1140.8999999999942 1160.8999999999942 1180.8999999999942 1200.8999999999942 1220.8999999999942 1240.8999999999942 1260.8999999999942
cb_02,20.0,enc_trial,stim,response,Fine Arts students,1020.7600000000093,enc_trial,1.0,20.0,s_a_17_2,student_art,fold-b,microphone,2.0,unique,close,paired,s_a_17_2.jpg,art,student-b1,STEM students,Fine Arts students,sub-08,1.0,1.0,1.0,1.0,0.5214149746192893 0.618496192893401 0.7355647208121827 0.78125 0.8040926395939086 0.8326459390862944,0.7652284263959391 0.5875634517766497 0.3616751269035533 0.2677664974619289 0.2182741116751269 0.15355329949238586,666.6800000000221 686.6800000000221 706.6800000000221 726.6800000000221 746.6800000000221 766.6800000000221
cb_02,21.0,enc_trial,stim,response,STEM students,1403.9800000000105,enc_trial,1.0,21.0,s_s_12_1,student_stem,fold-a,robotic arm,2.0,unique,far,paired,s_s_12_1.jpg,stem,student-b1,STEM students,Fine Arts students,sub-08,1.0,1.0,1.0,1.0,0.5014276649746193 0.4842956852791878 0.4414657360406091 0.3853109137055838 0.3424809644670051 0.2492068527918781 0.2387373096446701 0.2349302030456853 0.2349302030456853 0.2349302030456853 0.2349302030456853 0.2349302030456853 0.2349302030456853 0.2349302030456853 0.2349302030456853 0.2206535532994924 0.2025697969543148 0.18353426395939088 0.1407043147208122 0.12166878172588835 0.11119923857868023 0.1016814720812183 0.10072969543147213,0.8324873096446701 0.8147208121827412 0.7677664974619289 0.6890862944162437 0.6205583756345178 0.4302030456852792 0.3984771573604061 0.3756345177664975 0.3756345177664975 0.3756345177664975 0.3756345177664975 0.3756345177664975 0.3756345177664975 0.3756345177664975 0.3756345177664975 0.3350253807106599 0.2956852791878173 0.2588832487309645 0.18147208121827407 0.15101522842639592 0.13324873096446702 0.11294416243654826 0.1116751269035533,766.7000000000116 786.7000000000116 806.7000000000116 826.7000000000116 846.7000000000116 866.7000000000116 886.7000000000116 906.7000000000116 926.7000000000116 946.7000000000116 966.7000000000116 986.7000000000116 1006.7000000000116 1026.7000000000116 1046.7000000000116 1066.7000000000116 1086.7000000000116 1106.7000000000116 1126.7000000000114 1146.7000000000114 1166.7000000000114 1186.7000000000114 1206.7000000000114
cb_02,22.0,enc_trial,stim,response,STEM students,1536.7999999999884,enc_trial,1.0,22.0,s_sh_13_1,student_shared,fold-b-single,index cards,2.0,competing,,single,s_sh_13_1.jpg,,student-b1,STEM students,Fine Arts students,sub-08,1.0,,1.0,,0.4938134517766498 0.4919098984771574 0.4909581218274112 0.4871510152284264 0.4776332487309645 0.4538388324873097 0.4024428934010152 0.38911802030456855 0.3805520304568528 0.3805520304568528 0.3805520304568528 0.3805520304568528 0.3805520304568528 0.3805520304568528 0.3805520304568528 0.3805520304568528 0.351998730964467 0.3205901015228427 0.248255076142132 0.2006662436548224 0.16449873096446702 0.12071700507614215 0.11786167512690356 0.11786167512690356 0.11786167512690356 0.11786167512690356 0.11786167512690356 0.11786167512690356 0.11786167512690356 0.11786167512690356 0.11786167512690356 0.11786167512690356 0.11786167512690356 0.11786167512690356 0.11786167512690356 0.11786167512690356,0.8312182741116751 0.8312182741116751 0.8312182741116751 0.8299492385786802 0.8223350253807107 0.7969543147208122 0.7246192893401016 0.6979695431472082 0.6675126903553299 0.6675126903553299 0.6675126903553299 0.6675126903553299 0.6675126903553299 0.6675126903553299 0.6675126903553299 0.6675126903553299 0.6281725888324874 0.5812182741116751 0.4720812182741117 0.3959390862944162 0.3299492385786802 0.21954314720812185 0.19796954314720816 0.18654822335025376 0.18654822335025376 0.18654822335025376 0.18654822335025376 0.18654822335025376 0.18654822335025376 0.18654822335025376 0.18654822335025376 0.17893401015228427 0.17131979695431476 0.16624365482233505 0.16116751269035534 0.1573604060913706,800.0 820.0 840.0 860.0 880.0 900.0 920.0 940.0 960.0 980.0 1000.0 1020.0 1040.0 1060.0 1080.0 1100.0 1120.0 1140.0 1160.0 1180.0 1200.0 1220.0 1240.0 1260.0 1280.0 1300.0 1320.0 1340.0 1360.0 1380.0 1400.0 1420.0 1440.0 1460.0 1480.0 1500.0
cb_02,23.0,enc_trial,stim,response,Fine Arts students,1604.320000000007,enc_trial,1.0,23.0,s_sh_04_2,student_shared,fold-c,laptop stand,2.0,competing,far,paired,s_sh_04_2.jpg,,student-b1,STEM students,Fine Arts students,sub-08,1.0,1.0,1.0,0.0,0.5023794416243654 0.5023794416243654 0.5023794416243654 0.5023794416243654 0.5023794416243654 0.5023794416243654 0.5023794416243654 0.5023794416243654 0.5023794416243654 0.5023794416243654 0.5023794416243654 0.5023794416243654 0.5023794416243654 0.5023794416243654 0.5023794416243654 0.5023794416243654 0.5023794416243654 0.5023794416243654 0.5023794416243654 0.5023794416243654 0.5023794416243654 0.5023794416243654 0.5023794416243654 0.5023794416243654 0.5023794416243654 0.5023794416243654 0.5023794416243654 0.5023794416243654 0.5023794416243654 0.5023794416243654 0.5023794416243654 0.5023794416243654 0.5023794416243654 0.5023794416243654 0.5023794416243654 0.5023794416243654 0.5023794416243654 0.5023794416243654 0.5023794416243654 0.5023794416243654 0.5023794416243654 0.4928616751269035 0.4833439086294416 0.4757296954314721 0.4671637055837564 0.4557423857868021 0.4252855329949239 0.3929251269035533 0.3529505076142132 0.3101205583756345 0.2558692893401016 0.2492068527918781 0.24064086294416245 0.2368337563451777 0.2368337563451777 0.2368337563451777 0.2368337563451777 0.2368337563451777 0.2368337563451777 0.2368337563451777 0.2511104060913706 0.4671637055837564 0.6775063451776651 0.7546002538071066 0.7964784263959391 0.8374048223350253 0.8374048223350253 0.8374048223350253 0.8374048223350253 0.8374048223350253 0.8374048223350253 0.8374048223350253 0.8374048223350253 0.8374048223350253 0.8374048223350253 0.8374048223350253 0.8374048223350253 0.8383565989847716 0.8383565989847716 0.8383565989847716,0.8286802030456852 0.8286802030456852 0.8286802030456852 0.8286802030456852 0.8286802030456852 0.8286802030456852 0.8286802030456852 0.8286802030456852 0.8286802030456852 0.8286802030456852 0.8286802030456852 0.8286802030456852 0.8286802030456852 0.8286802030456852 0.8286802030456852 0.8286802030456852 0.8286802030456852 0.8286802030456852 0.8286802030456852 0.8286802030456852 0.8286802030456852 0.8286802030456852 0.8286802030456852 0.8286802030456852 0.8286802030456852 0.8286802030456852 0.8286802030456852 0.8286802030456852 0.8286802030456852 0.8286802030456852 0.8286802030456852 0.8286802030456852 0.8286802030456852 0.8286802030456852 0.8286802030456852 0.8286802030456852 0.8286802030456852 0.8286802030456852 0.8286802030456852 0.8286802030456852 0.8286802030456852 0.815989847715736 0.8020304568527918 0.7842639593908629 0.7626903553299492 0.7258883248730965 0.6281725888324874 0.5761421319796954 0.5126903553299492 0.4416243654822335 0.33883248730964466 0.3248730964467005 0.3045685279187817 0.2969543147208121 0.2969543147208121 0.2969543147208121 0.2969543147208121 0.2969543147208121 0.2969543147208121 0.2969543147208121 0.3045685279187817 0.29949238578680204 0.21446700507614214 0.1725888324873096 0.15355329949238586 0.13959390862944165 0.13959390862944165 0.13959390862944165 0.13959390862944165 0.13959390862944165 0.13959390862944165 0.13959390862944165 0.13959390862944165 0.13959390862944165 0.13959390862944165 0.13959390862944165 0.14213197969543145 0.14213197969543145 0.14213197969543145 0.14213197969543145,0.0 20.0 40.0 60.0 80.0 100.0 120.0 140.0 160.0 180.0 200.0 220.0 240.0 260.0 280.0 300.0 320.0 340.0 360.0 380.0 400.0 420.0 440.0 460.0 480.0 500.0 520.0 540.0 560.0 580.0 600.0 620.0 640.0 660.0 680.0 700.0 720.0 740.0 760.0 780.0 800.0 820.0 840.0 860.0 880.0 900.0 920.0 940.0 960.0 980.0 1000.0 1020.0 1040.0 1060.0 1080.0 1100.0 1120.0 1140.0 1160.0 1180.0 1200.0 1220.0 1240.0 1260.0 1280.0 1300.0 1320.0 1340.0 1360.0 1380.0 1400.0 1420.0 1440.0 1460.0 1480.0 1500.0 1520.0 1540.0 1560.0 1580.0
cb_02,24.0,enc_trial,stim,response,STEM students,1704.7000000000116,enc_trial,1.0,24.0,s_s_05_1,student_stem,fold-a,lab goggles,2.0,unique,far,paired,s_s_05_1.jpg,stem,student-b1,STEM students,Fine Arts students,sub-08,1.0,1.0,1.0,1.0,0.5052347715736041 0.5061865482233503 0.5061865482233503 0.5071383248730964 0.5071383248730964 0.5071383248730964 0.5071383248730964 0.5071383248730964 0.5071383248730964 0.5071383248730964 0.5061865482233503 0.5061865482233503 0.5061865482233503 0.5157043147208121 0.5490164974619289 0.6232550761421319 0.7365164974619289 0.7479378172588832 0.7631662436548223 0.7660215736040609 0.7660215736040609 0.7660215736040609 0.7660215736040609 0.7660215736040609 0.7660215736040609 0.7660215736040609 0.7336611675126904 0.6775063451776651 0.5604378172588832 0.4348032994923858 0.3358185279187817 0.21399111675126906 0.20447335025380714 0.19210025380710666 0.18734137055837569 0.18734137055837569 0.18734137055837569 0.18734137055837569 0.18734137055837569 0.18734137055837569 0.18734137055837569 0.18734137055837569 0.18734137055837569 0.18734137055837569 0.18734137055837569 0.18734137055837569 0.18734137055837569 0.18734137055837569 0.18543781725888328 0.1825824873096447 0.17782360406091374 0.16925761421319802 0.16545050761421326 0.16259517766497464 0.15973984771573607 0.15878807106598988,0.8248730964467005 0.8261421319796954 0.8286802030456852 0.8299492385786802 0.8299492385786802 0.8299492385786802 0.8299492385786802 0.8299492385786802 0.8299492385786802 0.8299492385786802 0.8299492385786802 0.8299492385786802 0.8299492385786802 0.8210659898477157 0.7652284263959391 0.6357868020304569 0.4213197969543148 0.3959390862944162 0.3565989847715736 0.3477157360406091 0.3477157360406091 0.3477157360406091 0.3477157360406091 0.3477157360406091 0.3477157360406091 0.3477157360406091 0.3477157360406091 0.3477157360406091 0.3324873096446701 0.2880710659898477 0.233502538071066 0.13324873096446702 0.1192893401015228 0.10279187817258884 0.09771573604060912 0.09771573604060912 0.09771573604060912 0.09771573604060912 0.09771573604060912 0.09771573604060912 0.09771573604060912 0.09771573604060912 0.09771573604060912 0.09771573604060912 0.09771573604060912 0.09771573604060912 0.09771573604060912 0.09771573604060912 0.09898477157360408 0.10152284263959388 0.10279187817258884 0.10786802030456856 0.11040609137055836 0.1142131979695431 0.116751269035533 0.1192893401015228,583.2400000000198 603.2400000000198 623.2400000000198 643.2400000000198 663.2400000000198 683.2400000000198 703.2400000000197 723.2400000000197 743.2400000000197 763.2400000000197 783.2400000000197 803.2400000000197 823.2400000000197 843.2400000000197 863.2400000000197 883.2400000000197 903.2400000000197 923.2400000000197 943.2400000000197 963.2400000000197 983.2400000000197 1003.2400000000197 1023.2400000000197 1043.2400000000198 1063.2400000000198 1083.2400000000198 1103.2400000000198 1123.2400000000198 1143.2400000000198 1163.2400000000198 1183.2400000000198 1203.2400000000198 1223.2400000000198 1243.2400000000198 1263.2400000000198 1283.2400000000198 1303.2400000000198 1323.2400000000198 1343.2400000000198 1363.2400000000198 1383.2400000000198 1403.2400000000198 1423.2400000000198 1443.2400000000198 1463.2400000000198 1483.2400000000198 1503.2400000000198 1523.2400000000198 1543.2400000000198 1563.2400000000198 1583.2400000000198 1603.2400000000198 1623.2400000000198 1643.2400000000198 1663.2400000000198 1683.2400000000198
cb_02,25.0,enc_trial,stim,response,STEM students,2219.0199999999895,enc_trial,1.0,25.0,s_sh_19_1,student_shared,fold-a,portable plastic drawer,2.0,competing,close,paired,s_sh_19_1.jpg,,student-b1,STEM students,Fine Arts students,sub-08,1.0,1.0,0.0,0.0,0.5014276649746193 0.5004758883248731 0.5004758883248731 0.5004758883248731 0.5004758883248731 0.5004758883248731 0.5004758883248731 0.5004758883248731 0.5004758883248731 0.5004758883248731 0.5004758883248731 0.5004758883248731 0.5004758883248731 0.5004758883248731 0.5004758883248731 0.5004758883248731 0.4985723350253807 0.4957170050761421 0.4871510152284264 0.4757296954314721 0.4509835025380711 0.3929251269035533 0.3748413705583756 0.3624682741116752 0.3539022842639594 0.351998730964467 0.351998730964467 0.351998730964467 0.351998730964467 0.351998730964467 0.351998730964467 0.351998730964467 0.351998730964467 0.351998730964467 0.351998730964467 0.3377220812182741 0.27680837563451777 0.2254124365482233 0.19876269035533 0.1825824873096447 0.17496827411167515 0.16925761421319802 0.16925761421319802 0.16925761421319802 0.16925761421319802 0.16925761421319802 0.16925761421319802 0.16925761421319802 0.16925761421319802 0.16925761421319802 0.16925761421319802 0.16925761421319802 0.16925761421319802 0.16925761421319802 0.16925761421319802 0.16925761421319802 0.16925761421319802 0.16925761421319802 0.1683058375634518 0.16545050761421326 0.16259517766497464 0.1549809644670051 0.1549809644670051 0.15307741116751272 0.15212563451776653 0.15212563451776653,0.8210659898477157 0.8210659898477157 0.8210659898477157 0.8210659898477157 0.8210659898477157 0.8210659898477157 0.8210659898477157 0.8210659898477157 0.8210659898477157 0.8210659898477157 0.8197969543147208 0.8197969543147208 0.8197969543147208 0.8197969543147208 0.8197969543147208 0.8185279187817259 0.815989847715736 0.8121827411167513 0.8020304568527918 0.7880710659898478 0.7538071065989848 0.6586294416243654 0.6205583756345178 0.5875634517766497 0.5558375634517767 0.5317258883248731 0.5304568527918782 0.5304568527918782 0.5304568527918782 0.5304568527918782 0.5304568527918782 0.5304568527918782 0.5304568527918782 0.5304568527918782 0.5304568527918782 0.5050761421319797 0.3857868020304569 0.28553299492385786 0.2296954314720813 0.1916243654822335 0.17131979695431476 0.15355329949238586 0.15355329949238586 0.15355329949238586 0.15355329949238586 0.15355329949238586 0.15355329949238586 0.15355329949238586 0.15355329949238586 0.15355329949238586 0.15355329949238586 0.15355329949238586 0.15355329949238586 0.15355329949238586 0.15355329949238586 0.15355329949238586 0.15355329949238586 0.15355329949238586 0.15228426395939088 0.15101522842639592 0.14847715736040612 0.14467005076142134 0.14467005076142134 0.14467005076142134 0.14467005076142134 0.14467005076142134,866.6999999999823 886.6999999999823 906.6999999999823 926.6999999999823 946.6999999999823 966.6999999999823 986.6999999999823 1006.6999999999823 1026.6999999999823 1046.6999999999823 1066.6999999999823 1086.6999999999823 1106.6999999999823 1126.6999999999825 1146.6999999999825 1166.6999999999825 1186.6999999999825 1206.6999999999825 1226.6999999999825 1246.6999999999825 1266.6999999999825 1286.6999999999825 1306.6999999999825 1326.6999999999825 1346.6999999999825 1366.6999999999825 1386.6999999999825 1406.6999999999825 1426.6999999999825 1446.6999999999825 1466.6999999999825 1486.6999999999825 1506.6999999999825 1526.6999999999825 1546.6999999999825 1566.6999999999825 1586.6999999999825 1606.6999999999825 1626.6999999999825 1646.6999999999825 1666.6999999999825 1686.6999999999825 1706.6999999999825 1726.6999999999825 1746.6999999999825 1766.6999999999825 1786.6999999999825 1806.6999999999825 1826.6999999999825 1846.6999999999825 1866.6999999999825 1886.6999999999825 1906.6999999999825 1926.6999999999825 1946.6999999999825 1966.6999999999825 1986.6999999999825 2006.6999999999825 2026.6999999999825 2046.6999999999825 2066.6999999999825 2086.6999999999825 2106.6999999999825 2126.6999999999825 2146.6999999999825 2166.6999999999825
cb_02,26.0,enc_trial,stim,response,Fine Arts students,1970.179999999993,enc_trial,1.0,26.0,s_sh_18_2,student_shared,fold-c,wall calendar,2.0,competing,far,paired,s_sh_18_2.jpg,,student-b1,STEM students,Fine Arts students,sub-08,1.0,1.0,1.0,1.0,0.5023794416243654 0.4995241116751269 0.4976205583756345 0.4947652284263959 0.4938134517766498 0.4938134517766498 0.4938134517766498 0.4938134517766498 0.4938134517766498 0.4976205583756345 0.6470494923857868 0.7108185279187818 0.7565038071065989 0.7822017766497462 0.7955266497461929 0.80123730964467 0.8031408629441624 0.8031408629441624 0.8031408629441624 0.8031408629441624 0.8031408629441624 0.8031408629441624 0.8031408629441624 0.8031408629441624 0.8031408629441624 0.8031408629441624 0.8136104060913706 0.8221763959390863 0.830742385786802 0.8431154822335025 0.8564403553299492 0.8745241116751269 0.8773794416243654 0.8773794416243654 0.8773794416243654 0.8773794416243654 0.8773794416243654 0.8773794416243654 0.8773794416243654 0.8773794416243654 0.8773794416243654 0.8773794416243654 0.8773794416243654 0.8773794416243654 0.8773794416243654 0.8773794416243654 0.8773794416243654 0.8773794416243654 0.8773794416243654 0.8773794416243654 0.8773794416243654 0.8773794416243654 0.8773794416243654 0.8764276649746192,0.8388324873096447 0.8388324873096447 0.8375634517766497 0.8362944162436549 0.8350253807106599 0.8350253807106599 0.8350253807106599 0.8337563451776651 0.8337563451776651 0.8286802030456852 0.616751269035533 0.4974619289340102 0.4035532994923858 0.34137055837563457 0.30203045685279184 0.2791878172588832 0.2538071065989848 0.2538071065989848 0.2538071065989848 0.2538071065989848 0.2538071065989848 0.2538071065989848 0.2538071065989848 0.2538071065989848 0.2538071065989848 0.2538071065989848 0.2385786802030457 0.2309644670050761 0.2258883248730964 0.21954314720812185 0.21065989847715733 0.1941624365482234 0.19035532994923854 0.19035532994923854 0.19035532994923854 0.19035532994923854 0.19035532994923854 0.19035532994923854 0.19035532994923854 0.19035532994923854 0.19035532994923854 0.19035532994923854 0.19035532994923854 0.19035532994923854 0.19035532994923854 0.19035532994923854 0.19035532994923854 0.19035532994923854 0.1890862944162437 0.18654822335025376 0.18147208121827407 0.18020304568527928 0.17893401015228427 0.17766497461928932,866.6999999999823 886.6999999999823 906.6999999999823 926.6999999999823 946.6999999999823 966.6999999999823 986.6999999999823 1006.6999999999823 1026.6999999999823 1046.6999999999823 1066.6999999999823 1086.6999999999823 1106.6999999999823 1126.6999999999825 1146.6999999999825 1166.6999999999825 1186.6999999999825 1206.6999999999825 1226.6999999999825 1246.6999999999825 1266.6999999999825 1286.6999999999825 1306.6999999999825 1326.6999999999825 1346.6999999999825 1366.6999999999825 1386.6999999999825 1406.6999999999825 1426.6999999999825 1446.6999999999825 1466.6999999999825 1486.6999999999825 1506.6999999999825 1526.6999999999825 1546.6999999999825 1566.6999999999825 1586.6999999999825 1606.6999999999825 1626.6999999999825 1646.6999999999825 1666.6999999999825 1686.6999999999825 1706.6999999999825 1726.6999999999825 1746.6999999999825 1766.6999999999825 1786.6999999999825 1806.6999999999825 1826.6999999999825 1846.6999999999825 1866.6999999999825 1886.6999999999825 1906.6999999999825 1926.6999999999825
cb_02,27.0,enc_trial,stim,response,Fine Arts students,1738.3399999999967,enc_trial,1.0,27.0,s_a_10_1,student_art,fold-a,tripod,2.0,unique,far,paired,s_a_10_1.jpg,art,student-b1,STEM students,Fine Arts students,sub-08,1.0,1.0,1.0,1.0,0.5128489847715736 0.5842322335025381 0.7127220812182741 0.8136104060913706 0.8535850253807107 0.8897525380710659 0.9087880710659898,0.8286802030456852 0.7322335025380711 0.5253807106598984 0.3375634517766497 0.2563451776649747 0.17385786802030456 0.12182741116751272,1333.3800000000047 1353.3800000000047 1373.3800000000047 1393.3800000000049 1413.3800000000049 1433.3800000000049 1453.3800000000049
cb_02,28.0,enc_trial,stim,response,Fine Arts students,1187.859999999986,enc_trial,1.0,28.0,s_sh_09_2,student_shared,fold-c,paper clips,2.0,competing,far,paired,s_sh_09_2.jpg,,student-b1,STEM students,Fine Arts students,sub-08,1.0,1.0,0.0,0.0,0.5128489847715736 0.5747144670050761 0.6889276649746193 0.7860088832487309 0.8221763959390863 0.8374048223350253 0.8640545685279187,0.800761421319797 0.6789340101522843 0.4733502538071066 0.300761421319797 0.233502538071066 0.20304568527918787 0.15482233502538068,816.2199999999721 836.2199999999721 856.2199999999721 876.2199999999721 896.2199999999721 916.219999999972 936.219999999972
cb_02,29.0,enc_trial,stim,response,STEM students,1471.3800000000049,enc_trial,1.0,29.0,s_sh_16_2,student_shared,fold-a,stapler,2.0,competing,close,paired,s_sh_16_2.jpg,,student-b1,STEM students,Fine Arts students,sub-08,1.0,1.0,1.0,0.0,0.4957170050761421 0.4957170050761421 0.4957170050761421 0.4957170050761421 0.4957170050761421 0.4957170050761421 0.4957170050761421 0.4957170050761421 0.4957170050761421 0.4957170050761421 0.4957170050761421 0.4957170050761421 0.4957170050761421 0.4957170050761421 0.4957170050761421 0.4957170050761421 0.4957170050761421 0.4957170050761421 0.4957170050761421 0.4957170050761421 0.4957170050761421 0.4957170050761421 0.4957170050761421 0.4957170050761421 0.4957170050761421 0.4957170050761421 0.4957170050761421 0.4957170050761421 0.4957170050761421 0.4957170050761421 0.4957170050761421 0.4957170050761421 0.4957170050761421 0.4957170050761421 0.4957170050761421 0.4957170050761421 0.4957170050761421 0.4957170050761421 0.4957170050761421 0.4957170050761421 0.4957170050761421 0.4957170050761421 0.4957170050761421 0.4957170050761421 0.4957170050761421 0.4957170050761421 0.4947652284263959 0.4947652284263959 0.4947652284263959 0.4947652284263959 0.4947652284263959 0.4947652284263959 0.4947652284263959 0.4871510152284264 0.4443210659898477 0.38911802030456855 0.2368337563451777 0.19019670050761425 0.16354695431472085 0.15688451776649748 0.14641497461928935 0.1407043147208122 0.1407043147208122,0.8286802030456852 0.8286802030456852 0.8286802030456852 0.8286802030456852 0.8286802030456852 0.8286802030456852 0.8286802030456852 0.8286802030456852 0.8286802030456852 0.8286802030456852 0.8286802030456852 0.8286802030456852 0.8286802030456852 0.8286802030456852 0.8286802030456852 0.8286802030456852 0.8286802030456852 0.8286802030456852 0.8286802030456852 0.8286802030456852 0.8286802030456852 0.8286802030456852 0.8286802030456852 0.8286802030456852 0.8286802030456852 0.8286802030456852 0.8286802030456852 0.8286802030456852 0.8286802030456852 0.8286802030456852 0.8286802030456852 0.8286802030456852 0.8286802030456852 0.8286802030456852 0.8286802030456852 0.8286802030456852 0.8286802030456852 0.8286802030456852 0.8286802030456852 0.8286802030456852 0.8286802030456852 0.8286802030456852 0.8286802030456852 0.8286802030456852 0.8286802030456852 0.8286802030456852 0.8286802030456852 0.8286802030456852 0.8286802030456852 0.8286802030456852 0.8286802030456852 0.8286802030456852 0.8286802030456852 0.8210659898477157 0.7601522842639594 0.6662436548223349 0.3730964467005076 0.26522842639593913 0.2017766497461929 0.184010152284264 0.1573604060913706 0.14720812182741114 0.14974619289340094,16.700000000011638 36.70000000001164 56.70000000001164 76.70000000001166 96.70000000001166 116.70000000001166 136.7000000000117 156.7000000000117 176.70000000001167 196.70000000001167 216.70000000001167 236.70000000001167 256.7000000000117 276.7000000000117 296.7000000000117 316.7000000000117 336.7000000000117 356.7000000000117 376.7000000000117 396.7000000000117 416.7000000000117 436.7000000000117 456.7000000000117 476.7000000000117 496.70000000001176 516.7000000000119 536.7000000000119 556.7000000000119 576.7000000000118 596.7000000000118 616.7000000000118 636.7000000000118 656.7000000000118 676.7000000000118 696.7000000000118 716.7000000000118 736.7000000000118 756.7000000000118 776.7000000000118 796.7000000000118 816.7000000000118 836.7000000000118 856.7000000000118 876.7000000000118 896.7000000000118 916.7000000000118 936.7000000000118 956.7000000000118 976.7000000000121 996.7000000000121 1016.7000000000121 1036.700000000012 1056.700000000012 1076.700000000012 1096.700000000012 1116.700000000012 1136.700000000012 1156.700000000012 1176.700000000012 1196.700000000012 1216.700000000012 1236.700000000012 1256.700000000012
cb_02,30.0,enc_trial,stim,response,STEM students,1436.5599999999977,enc_trial,1.0,30.0,s_sh_24_1,student_shared,fold-b-single,desk organizer,2.0,competing,,single,s_sh_24_1.jpg,,student-b1,STEM students,Fine Arts students,sub-08,1.0,,1.0,,0.5014276649746193 0.4795368020304568 0.4214784263959391 0.3405774111675127 0.2558692893401016 0.17877538071065993 0.16259517766497464 0.15212563451776653 0.14736675126903556 0.14451142131979694 0.1426078680203046 0.1407043147208122 0.1407043147208122 0.1407043147208122 0.1407043147208122 0.1407043147208122 0.1407043147208122 0.1407043147208122 0.1407043147208122 0.1407043147208122 0.1407043147208122 0.13975253807106602 0.13975253807106602 0.13975253807106602 0.13975253807106602 0.13880076142131986 0.13880076142131986 0.13880076142131986 0.13880076142131986 0.13880076142131986,0.8337563451776651 0.8071065989847716 0.7233502538071066 0.5977157360406091 0.4619289340101523 0.3134517766497462 0.27284263959390864 0.2423857868020305 0.2296954314720813 0.2246192893401016 0.2233502538071066 0.2246192893401016 0.2246192893401016 0.2246192893401016 0.2246192893401016 0.2246192893401016 0.2246192893401016 0.2246192893401016 0.2246192893401016 0.2233502538071066 0.2182741116751269 0.19796954314720816 0.19035532994923854 0.18654822335025376 0.17512690355329952 0.1700507614213198 0.1649746192893401 0.16370558375634514 0.16370558375634514 0.1624365482233503,833.3599999999858 853.3599999999858 873.3599999999858 893.3599999999858 913.3599999999858 933.3599999999858 953.3599999999858 973.3599999999858 993.3599999999858 1013.3599999999858 1033.3599999999858 1053.3599999999858 1073.3599999999858 1093.3599999999858 1113.3599999999858 1133.3599999999858 1153.3599999999858 1173.3599999999858 1193.3599999999858 1213.3599999999858 1233.3599999999858 1253.3599999999858 1273.3599999999858 1293.3599999999858 1313.3599999999858 1333.3599999999858 1353.3599999999858 1373.3599999999858 1393.3599999999856 1413.3599999999856
cb_02,31.0,enc_trial,stim,response,STEM students,1337.0799999999872,enc_trial,1.0,31.0,s_sh_12_1,student_shared,fold-b-single,binder,2.0,competing,,single,s_sh_12_1.jpg,,student-b1,STEM students,Fine Arts students,sub-08,1.0,,1.0,,0.5166560913705583 0.5261738578680203 0.5309327411167513 0.5337880710659898 0.534739847715736 0.5157043147208121 0.3510469543147208 0.2596763959390863 0.21589467005076146 0.18924492385786806 0.17020939086294418 0.1683058375634518 0.1683058375634518 0.1683058375634518 0.16925761421319802 0.16925761421319802 0.16925761421319802 0.16925761421319802 0.16925761421319802 0.16925761421319802 0.16925761421319802 0.16925761421319802 0.16545050761421326 0.16069162436548226 0.1549809644670051 0.15212563451776653 0.14736675126903556 0.14736675126903556 0.14641497461928935 0.14641497461928935 0.14546319796954318 0.14546319796954318,0.8337563451776651 0.850253807106599 0.8616751269035533 0.8692893401015228 0.8730964467005076 0.8591370558375635 0.5913705583756346 0.4213197969543148 0.3248730964467005 0.2639593908629442 0.20558375634517767 0.1916243654822335 0.18781725888324874 0.18781725888324874 0.19035532994923854 0.19035532994923854 0.19035532994923854 0.19035532994923854 0.19035532994923854 0.19035532994923854 0.19035532994923854 0.19035532994923854 0.18527918781725888 0.17639593908629436 0.16624365482233505 0.16116751269035534 0.15228426395939088 0.14974619289340094 0.14974619289340094 0.14847715736040612 0.14847715736040612 0.14847715736040612,666.679999999993 686.679999999993 706.679999999993 726.679999999993 746.679999999993 766.679999999993 786.679999999993 806.679999999993 826.679999999993 846.679999999993 866.679999999993 886.679999999993 906.679999999993 926.679999999993 946.679999999993 966.679999999993 986.679999999993 1006.679999999993 1026.679999999993 1046.679999999993 1066.679999999993 1086.679999999993 1106.679999999993 1126.679999999993 1146.679999999993 1166.679999999993 1186.679999999993 1206.679999999993 1226.679999999993 1246.679999999993 1266.679999999993 1286.679999999993
cb_02,32.0,enc_trial,stim,response,Fine Arts students,1536.6000000000058,enc_trial,1.0,32.0,s_sh_19_2,student_shared,fold-a,portable plastic drawer,2.0,competing,close,paired,s_sh_19_2.jpg,,student-b1,STEM students,Fine Arts students,sub-08,1.0,1.0,0.0,0.0,0.4995241116751269 0.5014276649746193 0.5014276649746193 0.5023794416243654 0.5023794416243654 0.4823921319796954 0.33486675126903553 0.2473032994923858 0.2330266497461929 0.21970177664974624 0.2111357868020305 0.2111357868020305 0.2225571065989848 0.2568210659898477 0.3358185279187817 0.4395621827411168 0.7203362944162437 0.7631662436548223 0.8117068527918782 0.8183692893401014 0.8183692893401014 0.8183692893401014 0.8183692893401014 0.8183692893401014 0.8183692893401014 0.8183692893401014 0.8183692893401014 0.8183692893401014 0.8183692893401014 0.8193210659898477 0.8231281725888324 0.8364530456852791 0.8440672588832487 0.8488261421319797 0.8516814720812182 0.8545368020304568 0.8545368020304568,0.8439086294416244 0.8464467005076142 0.8489847715736041 0.850253807106599 0.8515228426395939 0.8261421319796954 0.5812182741116751 0.4035532994923858 0.3680203045685279 0.32868020304568524 0.3032994923857868 0.2918781725888325 0.3045685279187817 0.3426395939086294 0.3959390862944162 0.40862944162436543 0.2982233502538071 0.26522842639593913 0.2309644670050761 0.22715736040609136 0.22715736040609136 0.22715736040609136 0.22715736040609136 0.22715736040609136 0.22715736040609136 0.22715736040609136 0.22715736040609136 0.22715736040609136 0.2258883248730964 0.2208121827411168 0.21192893401015234 0.19035532994923854 0.17766497461928932 0.1700507614213198 0.16370558375634514 0.15862944162436546 0.1573604060913706,783.3600000000151 803.3600000000151 823.3600000000151 843.3600000000151 863.3600000000151 883.3600000000151 903.3600000000152 923.3600000000152 943.3600000000152 963.3600000000152 983.3600000000152 1003.3600000000152 1023.3600000000152 1043.3600000000154 1063.3600000000154 1083.3600000000154 1103.3600000000154 1123.3600000000154 1143.3600000000154 1163.3600000000154 1183.3600000000154 1203.3600000000154 1223.3600000000154 1243.3600000000154 1263.3600000000154 1283.3600000000154 1303.3600000000154 1323.3600000000154 1343.3600000000154 1363.3600000000154 1383.3600000000154 1403.3600000000154 1423.3600000000154 1443.3600000000154 1463.3600000000154 1483.3600000000154 1503.3600000000154
cb_02,33.0,enc_trial,stim,response,STEM students,1420.1199999999951,enc_trial,1.0,33.0,s_s_01_1,student_stem,fold-b,microscope,2.0,unique,close,paired,s_s_01_1.jpg,stem,student-b1,STEM students,Fine Arts students,sub-08,1.0,1.0,1.0,1.0,0.4995241116751269 0.514752538071066 0.5661484771573604 0.6451459390862944 0.7013007614213198 0.7745875634517766 0.7850571065989848 0.7907677664974619 0.7917195431472079 0.7917195431472079 0.7917195431472079 0.7917195431472079 0.7917195431472079 0.7917195431472079 0.7917195431472079 0.7898159898477157 0.6613261421319797 0.4928616751269035 0.3424809644670051 0.17401649746192896 0.13499365482233505 0.0893083756345178 0.08074238578680205 0.08074238578680205 0.08074238578680205 0.08074238578680205 0.08074238578680205 0.08074238578680205 0.08074238578680205 0.08074238578680205 0.08074238578680205 0.08550126903553303 0.0893083756345178 0.09216370558375638 0.09311548223350256 0.09406725888324877,0.8096446700507615 0.7931472081218274 0.7182741116751269 0.5850253807106599 0.4720812182741117 0.3045685279187817 0.27284263959390864 0.2525380710659898 0.2449238578680203 0.2449238578680203 0.2449238578680203 0.2449238578680203 0.2449238578680203 0.2449238578680203 0.2449238578680203 0.2449238578680203 0.2741116751269036 0.29441624365482233 0.29441624365482233 0.2436548223350253 0.20939086294416245 0.16370558375634514 0.15355329949238586 0.15355329949238586 0.15355329949238586 0.15355329949238586 0.15355329949238586 0.15355329949238586 0.15355329949238586 0.15355329949238586 0.15101522842639592 0.1459390862944162 0.14213197969543145 0.1383248730964467 0.1357868020304569 0.13451776649746194,716.6999999999823 736.6999999999823 756.6999999999823 776.6999999999823 796.6999999999823 816.6999999999823 836.6999999999823 856.6999999999823 876.6999999999823 896.6999999999823 916.6999999999823 936.6999999999823 956.6999999999823 976.6999999999823 996.6999999999823 1016.6999999999823 1036.6999999999823 1056.6999999999823 1076.6999999999823 1096.6999999999823 1116.6999999999823 1136.6999999999825 1156.6999999999825 1176.6999999999825 1196.6999999999825 1216.6999999999825 1236.6999999999825 1256.6999999999825 1276.6999999999825 1296.6999999999825 1316.6999999999825 1336.6999999999825 1356.6999999999825 1376.6999999999825 1396.6999999999825 1416.6999999999825
cb_02,34.0,enc_trial,stim,response,STEM students,1323.2600000000093,enc_trial,1.0,34.0,s_sh_11_1,student_shared,fold-b-single,pencil case,2.0,competing,,single,s_sh_11_1.jpg,,student-b1,STEM students,Fine Arts students,sub-08,1.0,,1.0,,0.4966687817258883 0.465260152284264 0.4186230964467005 0.3205901015228427 0.2558692893401016 0.16259517766497464 0.14927030456852794 0.1407043147208122 0.13689720812182746 0.13594543147208124 0.13594543147208124 0.13499365482233505 0.13499365482233505 0.13499365482233505 0.13499365482233505 0.13499365482233505 0.13499365482233505 0.13499365482233505 0.13499365482233505 0.13499365482233505 0.13499365482233505,0.8134517766497462 0.7741116751269035 0.7093908629441624 0.5444162436548223 0.4162436548223351 0.2182741116751269 0.18527918781725888 0.1624365482233503 0.15228426395939088 0.14974619289340094 0.14974619289340094 0.14847715736040612 0.14847715736040612 0.14847715736040612 0.14847715736040612 0.14847715736040612 0.14847715736040612 0.14847715736040612 0.14847715736040612 0.1459390862944162 0.1459390862944162,901.0 921.0 941.0 961.0 981.0 1001.0 1021.0 1041.0 1061.0 1081.0 1101.0 1121.0 1141.0 1161.0 1181.0 1201.0 1221.0 1241.0 1261.0 1281.0 1301.0
cb_02,35.0,enc_trial,stim,response,STEM students,1304.4800000000105,enc_trial,1.0,35.0,s_s_12_2,student_stem,fold-a,robotic arm,2.0,unique,far,paired,s_s_12_2.jpg,stem,student-b1,STEM students,Fine Arts students,sub-08,1.0,1.0,1.0,1.0,0.5080901015228426 0.5080901015228426 0.4966687817258883 0.4595494923857868 0.38911802030456855 0.2615799492385787 0.22826776649746194 0.20923223350253808 0.2006662436548224 0.1949555837563452 0.1949555837563452 0.1949555837563452 0.1949555837563452 0.1949555837563452 0.1949555837563452 0.1949555837563452 0.1949555837563452 0.1949555837563452 0.1949555837563452 0.1949555837563452 0.1949555837563452 0.18638959390862947 0.1806789340101523 0.17116116751269034 0.16449873096446702 0.15783629441624367 0.14736675126903556 0.14546319796954318 0.14451142131979694 0.14451142131979694,0.8210659898477157 0.8210659898477157 0.8083756345177665 0.7512690355329951 0.6192893401015229 0.3426395939086294 0.2588832487309645 0.20558375634517767 0.18020304568527928 0.15862944162436546 0.1598984771573604 0.1598984771573604 0.1598984771573604 0.1598984771573604 0.1598984771573604 0.1598984771573604 0.1598984771573604 0.1598984771573604 0.1598984771573604 0.1598984771573604 0.1598984771573604 0.1573604060913706 0.15482233502538068 0.14847715736040612 0.14467005076142134 0.13959390862944165 0.13324873096446702 0.13197969543147206 0.1307106598984772 0.1307106598984772,700.0200000000186 720.0200000000186 740.0200000000186 760.0200000000186 780.0200000000186 800.0200000000186 820.0200000000186 840.0200000000186 860.0200000000186 880.0200000000186 900.0200000000186 920.0200000000186 940.0200000000186 960.0200000000186 980.0200000000186 1000.0200000000186 1020.0200000000186 1040.0200000000186 1060.0200000000186 1080.0200000000186 1100.0200000000186 1120.0200000000186 1140.0200000000184 1160.0200000000184 1180.0200000000184 1200.0200000000184 1220.0200000000184 1240.0200000000184 1260.0200000000184 1280.0200000000184
cb_02,36.0,enc_trial,stim,response,Fine Arts students,1270.3399999999965,enc_trial,1.0,36.0,s_sh_16_1,student_shared,fold-a,stapler,2.0,competing,close,paired,s_sh_16_1.jpg,,student-b1,STEM students,Fine Arts students,sub-08,1.0,1.0,1.0,0.0,0.5014276649746193 0.5004758883248731 0.5004758883248731 0.5004758883248731 0.5004758883248731 0.5004758883248731 0.5004758883248731 0.5004758883248731 0.5004758883248731 0.5004758883248731 0.5632931472081218 0.6898794416243654 0.7802982233502538 0.8155139593908629 0.850729695431472 0.8735723350253807 0.8735723350253807 0.8735723350253807 0.8735723350253807 0.8735723350253807 0.8735723350253807 0.8735723350253807 0.8735723350253807 0.8735723350253807 0.8783312182741116 0.8830901015228426 0.8878489847715736 0.8878489847715736 0.8878489847715736 0.8868972081218274 0.8859454314720812 0.8849936548223349 0.8849936548223349 0.8840418781725888,0.8172588832487309 0.8172588832487309 0.8185279187817259 0.8210659898477157 0.8210659898477157 0.8210659898477157 0.8210659898477157 0.8210659898477157 0.8210659898477157 0.8210659898477157 0.7474619289340101 0.5989847715736041 0.4784263959390863 0.42385786802030456 0.3680203045685279 0.2956852791878173 0.2956852791878173 0.2956852791878173 0.2956852791878173 0.2956852791878173 0.2956852791878173 0.2956852791878173 0.2956852791878173 0.29441624365482233 0.27538071065989844 0.25 0.200507614213198 0.17766497461928932 0.1649746192893401 0.1573604060913706 0.15228426395939088 0.15101522842639592 0.15101522842639592 0.15101522842639592,583.3599999999859 603.3599999999859 623.3599999999859 643.3599999999859 663.3599999999859 683.3599999999859 703.3599999999858 723.3599999999858 743.3599999999858 763.3599999999858 783.3599999999858 803.3599999999858 823.3599999999858 843.3599999999858 863.3599999999858 883.3599999999858 903.3599999999859 923.3599999999859 943.3599999999859 963.3599999999859 983.3599999999859 1003.3599999999859 1023.3599999999859 1043.359999999986 1063.359999999986 1083.359999999986 1103.359999999986 1123.359999999986 1143.359999999986 1163.359999999986 1183.359999999986 1203.359999999986 1223.359999999986 1243.359999999986
cb_02,37.0,enc_trial,stim,response,STEM students,1502.540000000008,enc_trial,1.0,37.0,s_s_15_1,student_stem,fold-c-single,jumper cables,2.0,unique,,single,s_s_15_1.jpg,stem,student-b1,STEM students,Fine Arts students,sub-08,1.0,,1.0,,0.5042829949238579 0.5261738578680203 0.5356916243654822 0.539498730964467 0.5414022842639594 0.5433058375634517 0.5233185279187818 0.4814403553299492 0.4186230964467005 0.3738895939086295 0.277760152284264 0.22826776649746194 0.20923223350253808 0.19210025380710666 0.18543781725888328 0.1816307106598985 0.17782360406091374 0.17782360406091374 0.17782360406091374 0.17782360406091374 0.17782360406091374 0.17782360406091374 0.17782360406091374 0.17782360406091374 0.17782360406091374 0.17782360406091374 0.17782360406091374 0.17782360406091374 0.17211294416243658 0.16545050761421326 0.15688451776649748 0.14927030456852794 0.14641497461928935 0.14546319796954318 0.14546319796954318 0.14546319796954318,0.8413705583756346 0.8692893401015228 0.8807106598984772 0.8857868020304569 0.8883248730964467 0.8908629441624365 0.8705583756345178 0.8261421319796954 0.7449238578680203 0.6776649746192893 0.5025380710659899 0.3883248730964467 0.3337563451776649 0.2741116751269036 0.2449238578680203 0.22715736040609136 0.20939086294416245 0.20812182741116747 0.20812182741116747 0.20812182741116747 0.20812182741116747 0.20812182741116747 0.20812182741116747 0.20812182741116747 0.20812182741116747 0.20812182741116747 0.20812182741116747 0.20812182741116747 0.199238578680203 0.1890862944162437 0.17639593908629436 0.1598984771573604 0.15609137055837566 0.15482233502538068 0.15355329949238586 0.15228426395939088,766.7000000000116 786.7000000000116 806.7000000000116 826.7000000000116 846.7000000000116 866.7000000000116 886.7000000000116 906.7000000000116 926.7000000000116 946.7000000000116 966.7000000000116 986.7000000000116 1006.7000000000116 1026.7000000000116 1046.7000000000116 1066.7000000000116 1086.7000000000116 1106.7000000000116 1126.7000000000114 1146.7000000000114 1166.7000000000114 1186.7000000000114 1206.7000000000114 1226.7000000000114 1246.7000000000114 1266.7000000000114 1286.7000000000114 1306.7000000000114 1326.7000000000114 1346.7000000000114 1366.7000000000114 1386.7000000000116 1406.7000000000116 1426.7000000000116 1446.7000000000116 1466.7000000000116
cb_02,38.0,enc_trial,stim,response,STEM students,1221.3800000000047,enc_trial,1.0,38.0,s_s_01_2,student_stem,fold-b,microscope,2.0,unique,close,paired,s_s_01_2.jpg,stem,student-b1,STEM students,Fine Arts students,sub-08,1.0,1.0,1.0,1.0,0.5023794416243654 0.4700190355329949 0.4005393401015229 0.30536167512690354 0.21875000000000008 0.1540291878172589 0.13404187817258886 0.12547588832487316 0.12071700507614215 0.11881345177664974 0.11786167512690356,0.8261421319796954 0.7855329949238579 0.6802030456852792 0.516497461928934 0.35025380710659904 0.19035532994923854 0.13324873096446702 0.10279187817258884 0.08629441624365486 0.07868020304568524 0.0774111675126904,850.0599999999977 870.0599999999977 890.0599999999977 910.0599999999976 930.0599999999976 950.0599999999976 970.0599999999976 990.0599999999976 1010.0599999999976 1030.0599999999977 1050.0599999999977
cb_02,39.0,enc_trial,stim,response,STEM students,1253.5599999999977,enc_trial,1.0,39.0,s_s_05_2,student_stem,fold-a,lab goggles,2.0,unique,far,paired,s_s_05_2.jpg,stem,student-b1,STEM students,Fine Arts students,sub-08,1.0,1.0,1.0,1.0,0.4976205583756345 0.4614530456852792 0.3415291878172589 0.2615799492385787 0.20161802030456846 0.13689720812182746 0.11976522842639595 0.1140545685279188 0.11119923857868023 0.11119923857868023 0.11119923857868023 0.11119923857868023 0.11119923857868023 0.11119923857868023 0.11119923857868023 0.11119923857868023 0.11119923857868023 0.11119923857868023 0.11119923857868023 0.11119923857868023,0.8312182741116751 0.7829949238578678 0.6065989847715736 0.4708121827411168 0.3604060913705584 0.2246192893401016 0.18020304568527928 0.16370558375634514 0.15228426395939088 0.15101522842639592 0.15101522842639592 0.15101522842639592 0.15101522842639592 0.15101522842639592 0.15101522842639592 0.15101522842639592 0.15101522842639592 0.15101522842639592 0.14974619289340094 0.14847715736040612,850.0199999999895 870.0199999999895 890.0199999999895 910.0199999999896 930.0199999999896 950.0199999999896 970.0199999999896 990.0199999999896 1010.0199999999896 1030.0199999999895 1050.0199999999895 1070.0199999999895 1090.0199999999895 1110.0199999999895 1130.0199999999895 1150.0199999999895 1170.0199999999895 1190.0199999999895 1210.0199999999895 1230.0199999999895
cb_02,40.0,enc_trial,stim,response,Fine Arts students,1654.4400000000023,enc_trial,1.0,40.0,s_a_10_2,student_art,fold-a,tripod,2.0,unique,far,paired,s_a_10_2.jpg,art,student-b1,STEM students,Fine Arts students,sub-08,1.0,1.0,1.0,1.0,0.4985723350253807 0.4671637055837564 0.3824555837563452 0.3158312182741117 0.25777284263959394 0.18543781725888328 0.16449873096446702 0.15783629441624367 0.1540291878172589 0.15117385786802032 0.14927030456852794 0.14927030456852794 0.14927030456852794 0.16069162436548226 0.20161802030456846 0.31107233502538073 0.5747144670050761 0.7279505076142132 0.8107550761421319 0.8393083756345178 0.8650063451776651 0.8868972081218274 0.8868972081218274 0.8868972081218274 0.8868972081218274 0.8849936548223349 0.8821383248730964 0.8792829949238579 0.8754758883248731 0.8697652284263959 0.8631027918781725 0.860247461928934 0.8592956852791878 0.8592956852791878 0.8592956852791878 0.8592956852791878 0.8592956852791878 0.8592956852791878 0.8592956852791878 0.8592956852791878 0.860247461928934 0.860247461928934,0.8236040609137056 0.7728426395939086 0.6192893401015229 0.4758883248730964 0.3426395939086294 0.1598984771573604 0.10279187817258884 0.08375634517766495 0.07233502538071067 0.06979695431472077 0.0824873096446701 0.0926395939086294 0.10279187817258884 0.12944162436548226 0.18781725888324874 0.2918781725888325 0.3718274111675127 0.3578680203045685 0.32868020304568524 0.3134517766497462 0.29949238578680204 0.2817258883248731 0.2817258883248731 0.2817258883248731 0.2817258883248731 0.27538071065989844 0.27030456852791873 0.2639593908629442 0.2563451776649747 0.2423857868020305 0.2208121827411168 0.21192893401015234 0.20431472081218272 0.199238578680203 0.1916243654822335 0.18147208121827407 0.17639593908629436 0.1725888324873096 0.1725888324873096 0.17131979695431476 0.1700507614213198 0.1700507614213198,783.3800000000048 803.3800000000048 823.3800000000048 843.3800000000048 863.3800000000048 883.3800000000048 903.3800000000048 923.3800000000048 943.3800000000048 963.3800000000048 983.3800000000048 1003.3800000000048 1023.3800000000048 1043.3800000000047 1063.3800000000047 1083.3800000000047 1103.3800000000047 1123.3800000000047 1143.3800000000047 1163.3800000000047 1183.3800000000047 1203.3800000000047 1223.3800000000047 1243.3800000000047 1263.3800000000047 1283.3800000000047 1303.3800000000047 1323.3800000000047 1343.3800000000047 1363.3800000000047 1383.3800000000049 1403.3800000000049 1423.3800000000049 1443.3800000000049 1463.3800000000049 1483.3800000000049 1503.3800000000049 1523.3800000000049 1543.3800000000049 1563.3800000000049 1583.3800000000049 1603.3800000000049
cb_02,41.0,enc_trial,stim,response,Iceland trip,1987.4400000000023,enc_trial,2.0,1.0,t_i_13_1,travel_Iceland,fold-a,sleeping bag,2.0,unique,far,paired,t_i_13_1.jpg,Iceland,travel-b1,Iceland trip,Miami trip,sub-08,1.0,1.0,1.0,1.0,0.5157043147208121 0.5080901015228426 0.4966687817258883 0.4785850253807107 0.4395621827411168 0.3919733502538072 0.3367703045685279 0.32154187817258884 0.302506345177665 0.273001269035533 0.2349302030456853 0.1426078680203046 0.09787436548223354 0.06551395939086298 0.03981598984771577 0.02649111675126907 0.007455583756345212 0.002696700507614249 0.0017449238578680565 0.0017449238578680565 0.014118020304568563 0.2082804568527919 0.3691307106598985 0.5832804568527918 0.7279505076142132 0.8269352791878173 0.860247461928934 0.8745241116751269 0.8783312182741116 0.8792829949238579 0.8773794416243654 0.8754758883248731 0.8745241116751269 0.8745241116751269 0.8735723350253807 0.8726205583756345 0.8659581218274112 0.8621510152284264 0.8592956852791878 0.8573921319796954 0.8564403553299492 0.855488578680203 0.855488578680203 0.855488578680203 0.855488578680203 0.855488578680203 0.8564403553299492 0.8564403553299492 0.8573921319796954 0.8573921319796954 0.8573921319796954 0.8526332487309645 0.8345494923857868 0.7736357868020305 0.6613261421319797 0.4671637055837564 0.21303934010152287 0.13784898477157362 0.09501903553299497 0.07788705583756349 0.06361040609137059 0.06741751269035537 0.07693527918781727 0.08359771573604062 0.0893083756345178 0.09311548223350256 0.09406725888324877 0.09406725888324877 0.09216370558375638 0.0912119289340102 0.09026015228426396,0.8515228426395939 0.850253807106599 0.8401015228426396 0.8210659898477157 0.766497461928934 0.6649746192893401 0.37944162436548223 0.26522842639593913 0.1700507614213198 0.10025380710659904 0.06725888324873097 0.05456852791878175 0.05964467005076146 0.06345177664974623 0.06345177664974623 0.06091370558375631 0.0532994923857868 0.0532994923857868 0.0532994923857868 0.05964467005076146 0.07994923857868019 0.24619289340101524 0.3274111675126904 0.3756345177664975 0.3769035532994924 0.3439086294416244 0.3223350253807107 0.300761421319797 0.2829949238578681 0.2677664974619289 0.2538071065989848 0.25 0.2474619289340102 0.2474619289340102 0.24619289340101524 0.2449238578680203 0.2296954314720813 0.2182741116751269 0.20431472081218272 0.1941624365482234 0.184010152284264 0.17131979695431476 0.16878172588832485 0.1675126903553299 0.16624365482233505 0.1624365482233503 0.1598984771573604 0.1573604060913706 0.1573604060913706 0.1573604060913706 0.1573604060913706 0.16116751269035534 0.1725888324873096 0.19035532994923854 0.21192893401015234 0.2258883248730964 0.2284263959390863 0.2131979695431472 0.200507614213198 0.1916243654822335 0.17893401015228427 0.17385786802030456 0.1675126903553299 0.1624365482233503 0.15609137055837566 0.15228426395939088 0.14847715736040612 0.14467005076142134 0.1408629441624365 0.13705583756345174 0.13324873096446702,566.679999999993 586.679999999993 606.679999999993 626.679999999993 646.679999999993 666.679999999993 686.679999999993 706.679999999993 726.679999999993 746.679999999993 766.679999999993 786.679999999993 806.679999999993 826.679999999993 846.679999999993 866.679999999993 886.679999999993 906.679999999993 926.679999999993 946.679999999993 966.679999999993 986.679999999993 1006.679999999993 1026.679999999993 1046.679999999993 1066.679999999993 1086.679999999993 1106.679999999993 1126.679999999993 1146.679999999993 1166.679999999993 1186.679999999993 1206.679999999993 1226.679999999993 1246.679999999993 1266.679999999993 1286.679999999993 1306.679999999993 1326.679999999993 1346.679999999993 1366.679999999993 1386.679999999993 1406.679999999993 1426.679999999993 1446.679999999993 1466.679999999993 1486.679999999993 1506.679999999993 1526.679999999993 1546.679999999993 1566.679999999993 1586.679999999993 1606.679999999993 1626.679999999993 1646.679999999993 1666.679999999993 1686.679999999993 1706.679999999993 1726.679999999993 1746.679999999993 1766.679999999993 1786.679999999993 1806.679999999993 1826.679999999993 1846.679999999993 1866.679999999993 1886.679999999993 1906.679999999993 1926.679999999993 1946.679999999993 1966.679999999993
cb_02,42.0,enc_trial,stim,response,Miami trip,1402.9400000000023,enc_trial,2.0,2.0,t_m_07_1,travel_Miami,fold-c-single,sunglasses,2.0,unique,,single,t_m_07_1.jpg,Miami,travel-b1,Iceland trip,Miami trip,sub-08,1.0,,1.0,,0.5023794416243654 0.5023794416243654 0.5023794416243654 0.5023794416243654 0.5318845177664975 0.7660215736040609 0.8250317258883249 0.8497779187817258 0.8688134517766497 0.8907043147208121 0.8907043147208121 0.8907043147208121 0.8907043147208121 0.8907043147208121 0.8907043147208121 0.8907043147208121 0.8907043147208121 0.8907043147208121 0.8907043147208121 0.8907043147208121 0.8859454314720812 0.8821383248730964 0.8773794416243654 0.8735723350253807 0.8716687817258884 0.8688134517766497 0.8669098984771574 0.8669098984771574,0.8324873096446701 0.8337563451776651 0.8337563451776651 0.8337563451776651 0.7652284263959391 0.315989847715736 0.19543147208121825 0.13705583756345174 0.09390862944162437 0.03680203045685282 0.03680203045685282 0.03680203045685282 0.03680203045685282 0.03680203045685282 0.03680203045685282 0.03680203045685282 0.03680203045685282 0.03680203045685282 0.03680203045685282 0.04060913705583757 0.05710659898477155 0.07106598984771573 0.0850253807106599 0.09898477157360408 0.10786802030456856 0.11802030456852795 0.12690355329949246 0.12817258883248728,750.0400000000079 770.0400000000079 790.0400000000079 810.0400000000079 830.0400000000079 850.0400000000079 870.0400000000079 890.0400000000079 910.0400000000079 930.0400000000079 950.0400000000079 970.0400000000079 990.0400000000079 1010.0400000000079 1030.040000000008 1050.040000000008 1070.040000000008 1090.040000000008 1110.040000000008 1130.040000000008 1150.040000000008 1170.040000000008 1190.040000000008 1210.040000000008 1230.040000000008 1250.040000000008 1270.040000000008 1290.040000000008
