Current Spreadsheet,Trial Number,Display,Screen,Response Type,Response,Reaction Time,display,block,block_trial,stimulus_id,expected_goal,fold,stimulus_name,c_group,condition,within_block_dist,paired_status,stimulus_path,expected_location,block_split,respStim_1,respStim_2,sub_label,acc,both_enc_acc,assoc_stim1_acc,assoc_stim2_acc,x_pos,y_pos,time_trajectories
cb_01,1.0,enc_trial,stim,response,Miami trip,1116.5999999940395,enc_trial,1.0,1.0,t_m_17_1,travel_Miami,fold-a,water gun,1.0,unique,close,paired,t_m_17_1.jpg,Miami,travel-b1,Iceland trip,Miami trip,sub-92,1.0,1.0,1.0,1.0,0.4963541666666666 0.4786458333333333 0.4609375 0.44166666666666665 0.41458333333333336 0.346875 0.31354166666666666 0.2791666666666667 0.2427083333333333 0.22291666666666668 0.21145833333333333 0.20729166666666668 0.20729166666666668 0.215625 0.21979166666666666 0.2307291666666667 0.2421875 0.2677083333333333 0.31197916666666664 0.37552083333333336 0.5463541666666667 0.6317708333333333 0.7161458333333334 0.8005208333333333 0.8526041666666667 0.8895833333333333 0.8895833333333333 0.8895833333333333 0.8895833333333333 0.8895833333333333 0.8895833333333333 0.8895833333333333 0.8901041666666667,0.81875 0.79375 0.7645833333333334 0.7305555555555556 0.6888888888888889 0.5944444444444444 0.5527777777777778 0.5166666666666666 0.4805555555555555 0.4472222222222222 0.4111111111111111 0.34791666666666665 0.31805555555555554 0.2861111111111111 0.2673611111111112 0.2305555555555555 0.2118055555555556 0.18958333333333333 0.17013888888888884 0.15763888888888888 0.1479166666666667 0.1465277777777778 0.14513888888888893 0.14513888888888893 0.14513888888888893 0.14722222222222225 0.14722222222222225 0.14722222222222225 0.14722222222222225 0.14722222222222225 0.14722222222222225 0.14722222222222225 0.14722222222222225,436.3999999999942 456.3999999999942 476.3999999999942 496.3999999999942 516.3999999999942 536.3999999999942 556.3999999999942 576.3999999999943 596.3999999999943 616.3999999999943 636.3999999999943 656.3999999999943 676.3999999999943 696.3999999999942 716.3999999999942 736.3999999999942 756.3999999999942 776.3999999999942 796.3999999999942 816.3999999999942 836.3999999999942 856.3999999999942 876.3999999999942 896.3999999999942 916.3999999999942 936.3999999999942 956.3999999999942 976.3999999999942 996.3999999999942 1016.3999999999942 1036.3999999999942 1056.3999999999942 1076.3999999999942
cb_01,2.0,enc_trial,stim,response,Iceland trip,1354.6999999940456,enc_trial,1.0,2.0,t_i_10_1,travel_Iceland,fold-b,trekking poles,1.0,unique,far,paired,t_i_10_1.jpg,Iceland,travel-b1,Iceland trip,Miami trip,sub-92,1.0,1.0,1.0,1.0,0.50625 0.5046875 0.5041666666666667 0.5046875 0.5046875 0.5046875 0.5046875 0.5046875 0.5067708333333333 0.5088541666666667 0.5078125 0.5046875 0.4984375 0.4848958333333334 0.4734375 0.4619791666666666 0.4630208333333333 0.4729166666666666 0.4911458333333333 0.5213541666666667 0.5510416666666667 0.5510416666666667 0.5411458333333333 0.5135416666666667 0.4895833333333333 0.4989583333333333 0.534375 0.5609375 0.5630208333333333 0.5604166666666667 0.5 0.4520833333333333 0.4052083333333333 0.3859375 0.38645833333333335 0.42604166666666665 0.4541666666666666 0.4692708333333334 0.4661458333333333 0.44583333333333336 0.334375 0.26979166666666665 0.21354166666666666 0.17708333333333334 0.171875 0.16770833333333332 0.16354166666666667 0.15677083333333333 0.1484375 0.14427083333333332 0.14270833333333333,0.8263888888888888 0.8180555555555555 0.80625 0.7923611111111111 0.7819444444444444 0.7555555555555555 0.7388888888888889 0.7152777777777778 0.6861111111111111 0.65625 0.5763888888888888 0.5347222222222222 0.4916666666666667 0.4430555555555555 0.4069444444444445 0.3618055555555556 0.3548611111111111 0.3451388888888889 0.3375 0.3319444444444445 0.3305555555555556 0.3305555555555556 0.3291666666666667 0.31805555555555554 0.2972222222222223 0.23263888888888884 0.2048611111111112 0.19513888888888886 0.19513888888888886 0.19513888888888886 0.2104166666666667 0.2104166666666667 0.1993055555555555 0.18194444444444446 0.17222222222222228 0.15763888888888888 0.15763888888888888 0.16180555555555556 0.1645833333333333 0.17361111111111116 0.2 0.2 0.19861111111111107 0.18888888888888888 0.1875 0.1826388888888889 0.18125 0.1805555555555556 0.1805555555555556 0.18125 0.18125,353.1000000000058 373.1000000000058 393.1000000000058 413.1000000000058 433.1000000000058 453.1000000000058 473.1000000000058 493.1000000000058 513.1000000000058 533.1000000000058 553.1000000000058 573.1000000000057 593.1000000000057 613.1000000000057 633.1000000000057 653.1000000000057 673.1000000000057 693.1000000000058 713.1000000000058 733.1000000000058 753.1000000000058 773.1000000000058 793.1000000000058 813.1000000000058 833.1000000000058 853.1000000000058 873.1000000000058 893.1000000000058 913.1000000000058 933.1000000000058 953.1000000000058 973.1000000000058 993.1000000000058 1013.1000000000058 1033.1000000000058 1053.1000000000058 1073.1000000000058 1093.1000000000058 1113.1000000000058 1133.1000000000058 1153.1000000000058 1173.1000000000058 1193.1000000000058 1213.1000000000058 1233.1000000000058 1253.1000000000058 1273.1000000000058 1293.1000000000058 1313.1000000000058 1333.1000000000058 1353.1000000000058
cb_01,3.0,enc_trial,stim,response,Miami trip,1065.1999999999969,enc_trial,1.0,3.0,t_i_18_1,travel_Iceland,fold-c-single,ski mask,1.0,unique,,single,t_i_18_1.jpg,Iceland,travel-b1,Iceland trip,Miami trip,sub-92,0.0,,0.0,,0.4916666666666666 0.4890625 0.4875 0.4864583333333333 0.4859375 0.4875 0.4927083333333334 0.5 0.5166666666666667 0.54375 0.571875 0.6395833333333333 0.68125 0.7229166666666667 0.7677083333333333 0.803125 0.8635416666666667 0.8848958333333333 0.903125 0.9260416666666668 0.940625 0.940625 0.940625 0.940625 0.940625 0.9395833333333332 0.9328125 0.9234375 0.9098958333333332 0.8963541666666667 0.8796875 0.8791666666666667,0.8395833333333333 0.8326388888888889 0.8277777777777777 0.8208333333333333 0.8118055555555556 0.7777777777777778 0.7479166666666667 0.7159722222222222 0.66875 0.6090277777777777 0.5520833333333333 0.4243055555555556 0.36458333333333337 0.3104166666666667 0.26041666666666663 0.22291666666666665 0.15902777777777774 0.13611111111111107 0.11597222222222225 0.09375 0.08194444444444449 0.08194444444444449 0.08194444444444449 0.08333333333333337 0.0854166666666667 0.08819444444444446 0.09166666666666667 0.09583333333333333 0.10138888888888886 0.10902777777777772 0.11805555555555558 0.11875000000000002,386.3999999999942 406.3999999999942 426.3999999999942 446.3999999999942 466.3999999999942 486.3999999999942 506.3999999999942 526.3999999999942 546.3999999999942 566.3999999999943 586.3999999999943 606.3999999999943 626.3999999999943 646.3999999999943 666.3999999999943 686.3999999999943 706.3999999999942 726.3999999999942 746.3999999999942 766.3999999999942 786.3999999999942 806.3999999999942 826.3999999999942 846.3999999999942 866.3999999999942 886.3999999999942 906.3999999999942 926.3999999999942 946.3999999999942 966.3999999999942 986.3999999999942 1006.3999999999942
cb_01,4.0,enc_trial,stim,response,Miami trip,1519.8999999940424,enc_trial,1.0,4.0,t_m_17_2,travel_Miami,fold-a,water gun,1.0,unique,close,paired,t_m_17_2.jpg,Miami,travel-b1,Iceland trip,Miami trip,sub-92,1.0,1.0,1.0,1.0,0.4973958333333333 0.4916666666666666 0.4807291666666666 0.4619791666666666 0.44635416666666666 0.4265625 0.3890625 0.3609375 0.32760416666666664 0.2953125 0.2401041666666667 0.2260416666666667 0.21822916666666667 0.2109375 0.20364583333333333 0.18645833333333334 0.17708333333333334 0.1625 0.15104166666666666 0.14166666666666666 0.134375 0.13177083333333334 0.13177083333333334 0.13177083333333334 0.13333333333333333 0.153125 0.2489583333333333 0.31979166666666664 0.41041666666666665 0.4927083333333334 0.5708333333333333 0.71875 0.778125 0.81875 0.8479166666666667 0.865625 0.878125 0.8786458333333333 0.8786458333333333 0.8796875 0.88125 0.884375,0.8270833333333334 0.8131944444444444 0.7861111111111111 0.7555555555555555 0.7125 0.6458333333333333 0.5097222222222222 0.4486111111111111 0.3888888888888888 0.3458333333333333 0.2861111111111111 0.2659722222222223 0.25416666666666665 0.24375 0.2354166666666667 0.2222222222222222 0.21597222222222226 0.20763888888888893 0.20347222222222228 0.1993055555555555 0.1972222222222222 0.1958333333333333 0.1958333333333333 0.1958333333333333 0.1958333333333333 0.1958333333333333 0.1958333333333333 0.1958333333333333 0.1958333333333333 0.1958333333333333 0.1875 0.14583333333333334 0.12361111111111113 0.11111111111111116 0.10555555555555553 0.10555555555555553 0.10972222222222228 0.11041666666666672 0.11111111111111116 0.1118055555555556 0.11388888888888893 0.1166666666666667,680.3000000000029 700.3000000000029 720.3000000000029 740.3000000000029 760.3000000000029 780.3000000000029 800.3000000000029 820.3000000000029 840.3000000000029 860.3000000000029 880.3000000000029 900.3000000000029 920.3000000000028 940.3000000000028 960.3000000000028 980.3000000000028 1000.3000000000028 1020.3000000000028 1040.3000000000031 1060.3000000000031 1080.3000000000031 1100.3000000000031 1120.3000000000031 1140.3000000000031 1160.3000000000031 1180.3000000000031 1200.3000000000031 1220.3000000000031 1240.3000000000031 1260.3000000000031 1280.3000000000031 1300.3000000000031 1320.3000000000031 1340.3000000000031 1360.3000000000031 1380.3000000000031 1400.3000000000031 1420.3000000000031 1440.3000000000031 1460.3000000000031 1480.3000000000031 1500.3000000000031
cb_01,5.0,enc_trial,stim,response,Miami trip,1248.5999999761552,enc_trial,1.0,5.0,t_m_07_1,travel_Miami,fold-c-single,sunglasses,1.0,unique,,single,t_m_07_1.jpg,Miami,travel-b1,Iceland trip,Miami trip,sub-92,1.0,,1.0,,0.5036458333333333 0.5036458333333333 0.5046875 0.5052083333333334 0.5052083333333334 0.5052083333333334 0.5052083333333334 0.5052083333333334 0.5052083333333334 0.5052083333333334 0.5052083333333334 0.5052083333333334 0.5052083333333334 0.5052083333333334 0.5052083333333334 0.5052083333333334 0.50625 0.5104166666666666 0.515625 0.5197916666666667 0.5197916666666667 0.5020833333333333 0.484375 0.4625 0.4447916666666665 0.43072916666666666 0.4161458333333333 0.415625 0.41822916666666665 0.43385416666666665 0.4692708333333334 0.5838541666666667 0.6463541666666667 0.7088541666666667 0.7713541666666667 0.8109375 0.8463541666666666 0.8479166666666667 0.85 0.8515625 0.8557291666666667 0.8572916666666667 0.8578125 0.8588541666666667 0.859375,0.8229166666666666 0.8111111111111111 0.8006944444444444 0.7909722222222222 0.7868055555555555 0.7854166666666667 0.7826388888888889 0.78125 0.7805555555555556 0.7791666666666667 0.7784722222222222 0.7777777777777778 0.7770833333333333 0.7743055555555556 0.7701388888888889 0.7604166666666666 0.7138888888888889 0.6722222222222223 0.6236111111111111 0.5708333333333333 0.5263888888888889 0.4569444444444445 0.4305555555555556 0.4069444444444445 0.3847222222222222 0.3638888888888889 0.3291666666666667 0.3145833333333333 0.3006944444444445 0.28125 0.2618055555555555 0.22013888888888888 0.19791666666666666 0.17847222222222225 0.15902777777777774 0.14375000000000004 0.13611111111111107 0.13611111111111107 0.1368055555555555 0.1381944444444444 0.13958333333333328 0.14027777777777772 0.14097222222222228 0.14166666666666672 0.14166666666666672,369.59999999999116 389.59999999999116 409.59999999999116 429.59999999999116 449.59999999999116 469.59999999999116 489.59999999999116 509.59999999999116 529.5999999999912 549.5999999999912 569.5999999999913 589.5999999999913 609.5999999999913 629.5999999999913 649.5999999999913 669.5999999999913 689.5999999999913 709.5999999999913 729.5999999999913 749.5999999999913 769.5999999999913 789.5999999999913 809.5999999999913 829.5999999999913 849.5999999999913 869.5999999999913 889.5999999999913 909.5999999999913 929.5999999999913 949.5999999999913 969.5999999999913 989.5999999999913 1009.5999999999913 1029.5999999999913 1049.5999999999913 1069.5999999999913 1089.5999999999913 1109.5999999999913 1129.5999999999913 1149.5999999999913 1169.5999999999913 1189.5999999999913 1209.5999999999913 1229.5999999999913 1249.5999999999913
cb_01,6.0,enc_trial,stim,response,Miami trip,1299.899999976158,enc_trial,1.0,6.0,t_s_21_1,travel_shared,fold-b,umbrella,1.0,competing,far,paired,t_s_21_1.jpg,,travel-b1,Iceland trip,Miami trip,sub-92,0.0,0.0,1.0,1.0,0.4989583333333333 0.4994791666666666 0.5 0.5015625 0.5020833333333333 0.5057291666666667 0.5291666666666667 0.5541666666666667 0.5864583333333333 0.628125 0.66875 0.740625 0.7739583333333333 0.8052083333333333 0.8260416666666667 0.8380208333333333 0.8505208333333333 0.8510416666666667 0.8510416666666667 0.8515625 0.8552083333333333 0.8578125 0.8609375 0.8614583333333333 0.8619791666666666,0.8152777777777778 0.8125 0.8076388888888889 0.8027777777777778 0.7979166666666666 0.7881944444444444 0.7263888888888889 0.6763888888888889 0.6083333333333334 0.5277777777777778 0.45 0.3013888888888889 0.2388888888888889 0.18333333333333326 0.14861111111111114 0.12638888888888888 0.10624999999999996 0.10555555555555553 0.10555555555555553 0.10555555555555553 0.10763888888888884 0.10833333333333328 0.10902777777777772 0.10972222222222228 0.10972222222222228,819.6999999999971 839.6999999999971 859.6999999999971 879.6999999999971 899.6999999999971 919.6999999999972 939.6999999999972 959.6999999999972 979.6999999999972 999.6999999999972 1019.6999999999972 1039.6999999999969 1059.6999999999969 1079.6999999999969 1099.6999999999969 1119.6999999999969 1139.6999999999969 1159.6999999999969 1179.6999999999969 1199.6999999999969 1219.6999999999969 1239.6999999999969 1259.6999999999969 1279.6999999999969 1299.6999999999969
cb_01,7.0,enc_trial,stim,response,Iceland trip,1217.4999999821155,enc_trial,1.0,7.0,t_i_13_1,travel_Iceland,fold-a,sleeping bag,1.0,unique,close,paired,t_i_13_1.jpg,Iceland,travel-b1,Iceland trip,Miami trip,sub-92,1.0,1.0,1.0,1.0,0.503125 0.5026041666666666 0.5026041666666666 0.5020833333333333 0.5020833333333333 0.5020833333333333 0.5020833333333333 0.5020833333333333 0.5020833333333333 0.5020833333333333 0.5020833333333333 0.5020833333333333 0.5020833333333333 0.5020833333333333 0.5020833333333333 0.5020833333333333 0.5020833333333333 0.5020833333333333 0.5020833333333333 0.5020833333333333 0.4901041666666667 0.4807291666666666 0.4661458333333333 0.4369791666666665 0.40677083333333336 0.3338541666666667 0.3015625 0.28072916666666664 0.26197916666666665 0.25052083333333336 0.23697916666666666 0.2317708333333333 0.228125 0.2239583333333333 0.21875 0.20729166666666668 0.19895833333333326 0.18802083333333333 0.18020833333333333 0.17760416666666667,0.8388888888888889 0.8409722222222222 0.8423611111111111 0.8430555555555556 0.84375 0.84375 0.84375 0.84375 0.84375 0.84375 0.84375 0.84375 0.84375 0.84375 0.84375 0.84375 0.84375 0.84375 0.84375 0.84375 0.8125 0.7784722222222222 0.7243055555555555 0.6548611111111111 0.5881944444444445 0.4381944444444445 0.3743055555555556 0.31319444444444444 0.2659722222222223 0.2340277777777777 0.19513888888888886 0.1875 0.1840277777777778 0.17986111111111114 0.17638888888888893 0.17013888888888884 0.1694444444444444 0.1694444444444444 0.17083333333333328 0.17152777777777772,381.8999999999942 401.8999999999942 421.8999999999942 441.8999999999942 461.8999999999942 481.8999999999942 501.8999999999942 521.8999999999942 541.8999999999942 561.8999999999942 581.8999999999943 601.8999999999943 621.8999999999943 641.8999999999943 661.8999999999943 681.8999999999943 701.8999999999942 721.8999999999942 741.8999999999942 761.8999999999942 781.8999999999942 801.8999999999942 821.8999999999942 841.8999999999942 861.8999999999942 881.8999999999942 901.8999999999942 921.8999999999942 941.8999999999942 961.8999999999942 981.8999999999942 1001.8999999999942 1021.8999999999942 1041.8999999999942 1061.8999999999942 1081.8999999999942 1101.8999999999942 1121.8999999999942 1141.8999999999942 1161.8999999999942
cb_01,8.0,enc_trial,stim,response,Iceland trip,2141.399999976158,enc_trial,1.0,8.0,t_s_12_1,travel_shared,fold-b,clear toiletry bag,1.0,competing,far,paired,t_s_12_1.jpg,,travel-b1,Iceland trip,Miami trip,sub-92,0.0,0.0,1.0,0.0,0.4984375 0.4984375 0.4984375 0.4989583333333333 0.5015625 0.5036458333333333 0.5125 0.5260416666666666 0.54375 0.5645833333333333 0.5895833333333333 0.6489583333333333 0.6802083333333333 0.71875 0.759375 0.7989583333333333 0.8489583333333334 0.8494791666666667 0.8494791666666667 0.8494791666666667 0.8432291666666667 0.8395833333333333 0.8364583333333333 0.8364583333333333 0.8364583333333333 0.8364583333333333 0.8395833333333333 0.8421875 0.8458333333333333 0.8489583333333334 0.8526041666666667 0.8526041666666667 0.8526041666666667 0.8479166666666667 0.834375 0.75 0.6739583333333333 0.5958333333333333 0.509375 0.41770833333333335 0.31875 0.3125 0.3125 0.3125 0.3125 0.29322916666666665 0.2838541666666667 0.2682291666666667 0.2567708333333333 0.25 0.2489583333333333 0.25104166666666666 0.2536458333333333 0.25416666666666665 0.253125 0.2453125 0.2359375 0.2255208333333333 0.1921875 0.1640625 0.11822916666666665 0.11354166666666668,0.8395833333333333 0.8347222222222223 0.8270833333333334 0.8145833333333333 0.8013888888888889 0.7805555555555556 0.7222222222222222 0.6708333333333334 0.6152777777777778 0.5555555555555556 0.4972222222222222 0.3875 0.33333333333333337 0.2694444444444445 0.20972222222222225 0.15833333333333333 0.09999999999999998 0.09930555555555554 0.09930555555555554 0.09930555555555554 0.10763888888888884 0.11250000000000004 0.1166666666666667 0.11736111111111115 0.11736111111111115 0.11736111111111115 0.12083333333333335 0.12222222222222225 0.12430555555555554 0.12569444444444444 0.12638888888888888 0.12638888888888888 0.12638888888888888 0.12916666666666665 0.1347222222222222 0.1597222222222222 0.1777777777777778 0.1875 0.1875 0.1875 0.17361111111111116 0.17152777777777772 0.17152777777777772 0.17152777777777772 0.17152777777777772 0.16249999999999998 0.16041666666666665 0.15833333333333333 0.15694444444444444 0.15694444444444444 0.15694444444444444 0.15902777777777774 0.1611111111111111 0.16249999999999998 0.16319444444444442 0.16666666666666666 0.16736111111111107 0.16736111111111107 0.16736111111111107 0.16736111111111107 0.16736111111111107 0.16736111111111107,901.5 921.5 941.5 961.5 981.5 1001.5 1021.5 1041.5 1061.5 1081.5 1101.5 1121.5 1141.5 1161.5 1181.5 1201.5 1221.5 1241.5 1261.5 1281.5 1301.5 1321.5 1341.5 1361.5 1381.5 1401.5 1421.5 1441.5 1461.5 1481.5 1501.5 1521.5 1541.5 1561.5 1581.5 1601.5 1621.5 1641.5 1661.5 1681.5 1701.5 1721.5 1741.5 1761.5 1781.5 1801.5 1821.5 1841.5 1861.5 1881.5 1901.5 1921.5 1941.5 1961.5 1981.5 2001.5 2021.5 2041.5 2061.5 2081.5 2101.5 2121.5
cb_01,9.0,enc_trial,stim,response,Miami trip,1256.8999999880907,enc_trial,1.0,9.0,t_m_03_1,travel_Miami,fold-c-single,wetsuit,1.0,unique,,single,t_m_03_1.jpg,Miami,travel-b1,Iceland trip,Miami trip,sub-92,1.0,,1.0,,0.5 0.5036458333333333 0.5046875 0.5098958333333333 0.5171875 0.5453125 0.5630208333333333 0.5796875 0.5859375 0.5848958333333333 0.5729166666666666 0.56875 0.5614583333333333 0.5515625 0.5385416666666667 0.4875 0.4661458333333333 0.4578125 0.4583333333333333 0.4708333333333333 0.5489583333333333 0.603125 0.6614583333333334 0.7125 0.759375 0.8244791666666667 0.8322916666666667 0.834375 0.8354166666666667 0.8359375 0.8390625 0.840625 0.8411458333333334 0.8411458333333334,0.825 0.8020833333333334 0.7770833333333333 0.7402777777777778 0.6916666666666667 0.5763888888888888 0.5277777777777778 0.4805555555555555 0.4472222222222222 0.4201388888888888 0.36458333333333337 0.3305555555555556 0.30486111111111114 0.2826388888888889 0.2673611111111112 0.22013888888888888 0.19791666666666666 0.17847222222222225 0.1680555555555555 0.15486111111111112 0.12916666666666665 0.1166666666666667 0.10138888888888886 0.0902777777777778 0.08194444444444449 0.07777777777777772 0.07847222222222228 0.0805555555555556 0.08125000000000004 0.08263888888888893 0.08611111111111114 0.08819444444444446 0.0888888888888889 0.08958333333333335,581.9000000000233 601.9000000000233 621.9000000000233 641.9000000000233 661.9000000000233 681.9000000000233 701.9000000000232 721.9000000000232 741.9000000000232 761.9000000000232 781.9000000000232 801.9000000000232 821.9000000000232 841.9000000000232 861.9000000000232 881.9000000000232 901.9000000000232 921.9000000000232 941.9000000000232 961.9000000000232 981.9000000000232 1001.9000000000232 1021.9000000000232 1041.9000000000233 1061.9000000000233 1081.9000000000233 1101.9000000000233 1121.9000000000233 1141.9000000000233 1161.9000000000233 1181.9000000000233 1201.9000000000233 1221.9000000000233 1241.9000000000233
cb_01,10.0,enc_trial,stim,response,Iceland trip,1366.7999999999886,enc_trial,1.0,10.0,t_i_13_2,travel_Iceland,fold-a,sleeping bag,1.0,unique,close,paired,t_i_13_2.jpg,Iceland,travel-b1,Iceland trip,Miami trip,sub-92,1.0,1.0,1.0,1.0,0.4796875 0.490625 0.5026041666666666 0.5161458333333333 0.5328125 0.5796875 0.6036458333333333 0.6338541666666667 0.6609375 0.6890625 0.7479166666666667 0.7802083333333333 0.809375 0.8322916666666667 0.8447916666666667 0.8723958333333334 0.8848958333333333 0.8901041666666667 0.8911458333333333 0.8911458333333333 0.8828125 0.8765625 0.8677083333333333 0.8458333333333333 0.8083333333333333 0.6947916666666667 0.6208333333333333 0.534375 0.44375 0.36770833333333336 0.24479166666666666 0.2 0.15729166666666666 0.12604166666666666 0.115625 0.1140625 0.1125 0.11041666666666666 0.10625 0.10520833333333332,0.8083333333333333 0.7847222222222222 0.7534722222222222 0.7229166666666667 0.6868055555555556 0.6090277777777777 0.5770833333333334 0.5409722222222222 0.5104166666666667 0.48125 0.4222222222222223 0.3930555555555556 0.3666666666666667 0.3458333333333333 0.3326388888888889 0.2986111111111112 0.28194444444444444 0.27361111111111114 0.2701388888888889 0.26875000000000004 0.2611111111111111 0.25416666666666665 0.2458333333333333 0.23263888888888884 0.21875 0.21597222222222226 0.21597222222222226 0.2104166666666667 0.19513888888888886 0.1756944444444445 0.1368055555555555 0.12708333333333333 0.12430555555555554 0.12430555555555554 0.12430555555555554 0.12361111111111113 0.12361111111111113 0.12361111111111113 0.125 0.12569444444444444,547.0999999999766 567.0999999999766 587.0999999999766 607.0999999999766 627.0999999999766 647.0999999999766 667.0999999999766 687.0999999999766 707.0999999999766 727.0999999999766 747.0999999999766 767.0999999999766 787.0999999999766 807.0999999999766 827.0999999999766 847.0999999999766 867.0999999999766 887.0999999999766 907.0999999999766 927.0999999999766 947.0999999999766 967.0999999999766 987.0999999999766 1007.0999999999766 1027.0999999999767 1047.0999999999767 1067.0999999999767 1087.0999999999767 1107.0999999999767 1127.0999999999767 1147.0999999999767 1167.0999999999767 1187.0999999999767 1207.0999999999767 1227.0999999999767 1247.0999999999767 1267.0999999999767 1287.0999999999767 1307.0999999999767 1327.0999999999767
cb_01,11.0,enc_trial,stim,response,Iceland trip,1126.4999999880674,enc_trial,1.0,11.0,t_i_19_1,travel_Iceland,fold-b,rope,1.0,unique,far,paired,t_i_19_1.jpg,Iceland,travel-b1,Iceland trip,Miami trip,sub-92,1.0,1.0,1.0,0.0,0.5010416666666667 0.4958333333333334 0.4921875 0.4885416666666666 0.484375 0.4625 0.44583333333333336 0.41770833333333335 0.384375 0.34791666666666665 0.29375 0.271875 0.25729166666666664 0.234375 0.2140625 0.19114583333333326 0.18125 0.17239583333333333 0.165625 0.15885416666666666 0.153125,0.8208333333333333 0.8006944444444444 0.7743055555555556 0.7479166666666667 0.7208333333333333 0.6395833333333334 0.59375 0.5451388888888888 0.5076388888888889 0.4618055555555556 0.3715277777777778 0.3243055555555555 0.2770833333333333 0.2520833333333333 0.2236111111111111 0.19513888888888886 0.17708333333333334 0.1611111111111111 0.14583333333333334 0.1368055555555555 0.13263888888888886,669.6999999999825 689.6999999999824 709.6999999999824 729.6999999999824 749.6999999999824 769.6999999999824 789.6999999999824 809.6999999999824 829.6999999999824 849.6999999999824 869.6999999999824 889.6999999999824 909.6999999999823 929.6999999999823 949.6999999999823 969.6999999999823 989.6999999999823 1009.6999999999823 1029.6999999999823 1049.6999999999823 1069.6999999999823
cb_01,12.0,enc_trial,stim,response,Iceland trip,1088.399999976158,enc_trial,1.0,12.0,t_i_14_1,travel_Iceland,fold-c-single,snow pants,1.0,unique,,single,t_i_14_1.jpg,Iceland,travel-b1,Iceland trip,Miami trip,sub-92,1.0,,1.0,,0.4984375 0.4911458333333333 0.484375 0.478125 0.4635416666666667 0.415625 0.384375 0.3489583333333333 0.303125 0.2677083333333333 0.234375 0.18958333333333333 0.16822916666666668 0.15625 0.1484375 0.14479166666666668 0.13958333333333334,0.8319444444444444 0.8215277777777777 0.79375 0.7611111111111111 0.7138888888888889 0.5833333333333333 0.5125 0.4375 0.3569444444444444 0.2930555555555555 0.2333333333333333 0.16527777777777775 0.14861111111111114 0.13611111111111107 0.12916666666666665 0.12638888888888888 0.125,565.1000000000057 585.1000000000057 605.1000000000057 625.1000000000057 645.1000000000057 665.1000000000057 685.1000000000057 705.1000000000058 725.1000000000058 745.1000000000058 765.1000000000058 785.1000000000058 805.1000000000058 825.1000000000058 845.1000000000058 865.1000000000058 885.1000000000058
cb_01,13.0,enc_trial,stim,response,Miami trip,1231.6999999821128,enc_trial,1.0,13.0,t_s_08_1,travel_shared,fold-a,hand lotion,1.0,competing,close,paired,t_s_08_1.jpg,,travel-b1,Iceland trip,Miami trip,sub-92,1.0,1.0,1.0,0.0,0.5067708333333333 0.50625 0.50625 0.50625 0.50625 0.5057291666666667 0.5052083333333334 0.50625 0.5104166666666666 0.5239583333333333 0.55 0.6083333333333333 0.640625 0.675 0.7125 0.7760416666666666 0.8020833333333334 0.81875 0.8255208333333334 0.8260416666666667 0.8260416666666667 0.8260416666666667 0.8270833333333333 0.8286458333333333 0.8296875 0.8317708333333333 0.8322916666666667 0.8322916666666667 0.8328125 0.8338541666666667 0.8364583333333333 0.8369791666666667,0.8277777777777777 0.8263888888888888 0.8263888888888888 0.825 0.8236111111111111 0.8194444444444444 0.79375 0.7618055555555556 0.71875 0.6631944444444444 0.5895833333333333 0.4548611111111112 0.3868055555555555 0.33125000000000004 0.28125 0.21319444444444446 0.1909722222222222 0.17847222222222225 0.17361111111111116 0.17291666666666672 0.17291666666666672 0.17291666666666672 0.17291666666666672 0.1743055555555556 0.17500000000000004 0.17500000000000004 0.17500000000000004 0.17500000000000004 0.17500000000000004 0.17500000000000004 0.17500000000000004 0.17500000000000004,536.3999999999942 556.3999999999942 576.3999999999943 596.3999999999943 616.3999999999943 636.3999999999943 656.3999999999943 676.3999999999943 696.3999999999942 716.3999999999942 736.3999999999942 756.3999999999942 776.3999999999942 796.3999999999942 816.3999999999942 836.3999999999942 856.3999999999942 876.3999999999942 896.3999999999942 916.3999999999942 936.3999999999942 956.3999999999942 976.3999999999942 996.3999999999942 1016.3999999999942 1036.3999999999942 1056.3999999999942 1076.3999999999942 1096.3999999999942 1116.3999999999942 1136.3999999999942 1156.3999999999942
cb_01,14.0,enc_trial,stim,response,Miami trip,1610.499999976164,enc_trial,1.0,14.0,t_m_18_1,travel_Miami,fold-b,waterproof tote,1.0,unique,far,paired,t_m_18_1.jpg,Miami,travel-b1,Iceland trip,Miami trip,sub-92,1.0,1.0,1.0,1.0,0.4833333333333333 0.4838541666666666 0.484375 0.4869791666666667 0.4911458333333333 0.5104166666666666 0.5291666666666667 0.55 0.5760416666666667 0.6104166666666667 0.6760416666666667 0.7114583333333333 0.7385416666666667 0.7541666666666667 0.7682291666666666 0.7786458333333334 0.7864583333333334 0.7984375 0.8109375 0.81875 0.8239583333333333 0.8270833333333333 0.8296875 0.8338541666666667 0.8421875 0.8609375 0.8677083333333333 0.8703125 0.8723958333333334 0.8734375,0.8159722222222222 0.8104166666666667 0.8041666666666667 0.7868055555555555 0.7645833333333334 0.6895833333333333 0.63125 0.5770833333333334 0.5243055555555556 0.4673611111111111 0.3756944444444445 0.3340277777777778 0.30625 0.2888888888888889 0.2756944444444445 0.2625 0.25277777777777777 0.2388888888888889 0.225 0.21666666666666667 0.2125 0.20972222222222225 0.20763888888888893 0.20347222222222228 0.1944444444444444 0.17986111111111114 0.17500000000000004 0.17291666666666672 0.17222222222222228 0.17222222222222228,831.8000000000177 851.8000000000177 871.8000000000177 891.8000000000177 911.8000000000177 931.8000000000177 951.8000000000177 971.8000000000177 991.8000000000177 1011.8000000000177 1031.8000000000177 1051.8000000000177 1071.8000000000177 1091.8000000000177 1111.8000000000177 1131.8000000000175 1151.8000000000175 1171.8000000000175 1191.8000000000175 1211.8000000000175 1231.8000000000175 1251.8000000000175 1271.8000000000175 1291.8000000000175 1311.8000000000175 1331.8000000000175 1351.8000000000175 1371.8000000000175 1391.8000000000175 1411.8000000000175
cb_01,15.0,enc_trial,stim,response,Iceland trip,1369.7999999999886,enc_trial,1.0,15.0,t_s_22_1,travel_shared,fold-a,belt,1.0,competing,close,paired,t_s_22_1.jpg,,travel-b1,Iceland trip,Miami trip,sub-92,1.0,1.0,1.0,1.0,0.4869791666666667 0.4875 0.4875 0.4875 0.4875 0.4875 0.4875 0.4848958333333334 0.4802083333333334 0.4755208333333333 0.4625 0.4520833333333333 0.43854166666666666 0.415625 0.3979166666666665 0.3770833333333333 0.371875 0.3671875 0.3645833333333333 0.3609375 0.346875 0.3348958333333333 0.31979166666666664 0.2958333333333333 0.271875 0.22083333333333333 0.2046875 0.19114583333333326 0.1796875 0.171875 0.16979166666666667 0.16979166666666667 0.16979166666666667 0.16979166666666667 0.16875 0.16510416666666666 0.1640625,0.8229166666666666 0.8208333333333333 0.8194444444444444 0.81875 0.8180555555555555 0.8152777777777778 0.8104166666666667 0.8027777777777778 0.7826388888888889 0.7576388888888889 0.6923611111111111 0.6534722222222222 0.6145833333333333 0.56875 0.5256944444444445 0.4597222222222223 0.4451388888888889 0.4326388888888889 0.4243055555555556 0.4145833333333333 0.3861111111111111 0.3673611111111112 0.3458333333333333 0.31666666666666665 0.2888888888888889 0.2277777777777777 0.2069444444444445 0.18888888888888888 0.17222222222222228 0.1611111111111111 0.15555555555555556 0.15555555555555556 0.15555555555555556 0.15555555555555556 0.15486111111111112 0.15416666666666667 0.15347222222222226,636.5 656.5 676.5 696.5 716.5 736.5 756.5 776.5 796.5 816.5 836.5 856.5 876.5 896.5 916.5 936.5 956.5 976.5 996.5 1016.5 1036.5 1056.5 1076.5 1096.5 1116.5 1136.5 1156.5 1176.5 1196.5 1216.5 1236.5 1256.5 1276.5 1296.5 1316.5 1336.5 1356.5
cb_01,16.0,enc_trial,stim,response,Iceland trip,1138.1000000000058,enc_trial,1.0,16.0,t_s_08_2,travel_shared,fold-a,hand lotion,1.0,competing,close,paired,t_s_08_2.jpg,,travel-b1,Iceland trip,Miami trip,sub-92,1.0,1.0,1.0,0.0,0.4802083333333334 0.4802083333333334 0.4802083333333334 0.478125 0.4692708333333334 0.4473958333333333 0.3953125 0.36822916666666666 0.3359375 0.30572916666666666 0.2713541666666667 0.2005208333333333 0.17552083333333332 0.15260416666666668 0.1390625 0.13125 0.11927083333333335 0.11302083333333332 0.10625 0.10416666666666667,0.8388888888888889 0.8375 0.8354166666666667 0.83125 0.8229166666666666 0.81875 0.7548611111111111 0.6951388888888889 0.6118055555555555 0.5284722222222222 0.44652777777777775 0.30347222222222225 0.2645833333333333 0.23125 0.2104166666666667 0.19652777777777766 0.18125 0.17291666666666672 0.1659722222222222 0.16388888888888886,630.3000000000175 650.3000000000175 670.3000000000175 690.3000000000176 710.3000000000176 730.3000000000176 750.3000000000176 770.3000000000176 790.3000000000176 810.3000000000176 830.3000000000176 850.3000000000176 870.3000000000176 890.3000000000176 910.3000000000177 930.3000000000177 950.3000000000177 970.3000000000177 990.3000000000177 1010.3000000000177
cb_01,17.0,enc_trial,stim,response,Iceland trip,1040.399999976158,enc_trial,1.0,17.0,t_i_10_2,travel_Iceland,fold-b,trekking poles,1.0,unique,far,paired,t_i_10_2.jpg,Iceland,travel-b1,Iceland trip,Miami trip,sub-92,1.0,1.0,1.0,1.0,0.5 0.4973958333333333 0.4901041666666667 0.4744791666666667 0.4546875 0.4296875 0.3651041666666667 0.3359375 0.31197916666666664 0.2911458333333333 0.2734375 0.2567708333333333 0.253125 0.2416666666666667 0.23125 0.21927083333333333 0.18854166666666666 0.17239583333333333 0.15677083333333333 0.14583333333333334 0.14010416666666667 0.1359375,0.84375 0.8256944444444445 0.7972222222222223 0.7652777777777777 0.725 0.6763888888888889 0.5444444444444445 0.4875 0.44027777777777777 0.3930555555555556 0.3555555555555555 0.2763888888888889 0.25 0.21944444444444444 0.20347222222222228 0.1868055555555556 0.15416666666666667 0.14166666666666672 0.13055555555555556 0.12430555555555554 0.1215277777777778 0.1201388888888889,580.2999999999884 600.2999999999884 620.2999999999884 640.2999999999884 660.2999999999884 680.2999999999884 700.2999999999884 720.2999999999884 740.2999999999884 760.2999999999884 780.2999999999884 800.2999999999884 820.2999999999884 840.2999999999884 860.2999999999884 880.2999999999884 900.2999999999884 920.2999999999884 940.2999999999884 960.2999999999884 980.2999999999884 1000.2999999999884
cb_01,18.0,enc_trial,stim,response,Miami trip,1073.3999999880907,enc_trial,1.0,18.0,t_s_22_2,travel_shared,fold-a,belt,1.0,competing,close,paired,t_s_22_2.jpg,,travel-b1,Iceland trip,Miami trip,sub-92,1.0,1.0,1.0,1.0,0.4984375 0.4994791666666666 0.5036458333333333 0.5182291666666666 0.5421875 0.5744791666666667 0.6578125 0.6921875 0.7328125 0.7619791666666667 0.7901041666666667 0.8359375 0.8442708333333333 0.8447916666666667 0.8447916666666667 0.8447916666666667 0.8447916666666667 0.8473958333333333 0.8510416666666667 0.8541666666666666 0.8546875,0.8208333333333333 0.7881944444444444 0.7527777777777778 0.6930555555555555 0.6277777777777778 0.5555555555555556 0.3972222222222223 0.3305555555555556 0.2597222222222222 0.2055555555555556 0.15833333333333333 0.09444444444444444 0.08333333333333337 0.08194444444444449 0.08194444444444449 0.08194444444444449 0.08194444444444449 0.08333333333333337 0.0854166666666667 0.08611111111111114 0.08611111111111114,663.6000000000057 683.6000000000057 703.6000000000058 723.6000000000058 743.6000000000058 763.6000000000058 783.6000000000058 803.6000000000058 823.6000000000058 843.6000000000058 863.6000000000058 883.6000000000058 903.6000000000056 923.6000000000056 943.6000000000056 963.6000000000056 983.6000000000056 1003.6000000000056 1023.6000000000056 1043.6000000000058 1063.6000000000058
cb_01,19.0,enc_trial,stim,response,Miami trip,1394.2999999880853,enc_trial,1.0,19.0,t_m_01_1,travel_Miami,fold-a,sandals,1.0,unique,close,paired,t_m_01_1.jpg,Miami,travel-b1,Iceland trip,Miami trip,sub-92,1.0,1.0,1.0,1.0,0.4927083333333334 0.4921875 0.4880208333333334 0.4807291666666666 0.4651041666666666 0.4369791666666665 0.4276041666666667 0.4244791666666667 0.42552083333333335 0.4354166666666667 0.44947916666666665 0.4864583333333333 0.5052083333333334 0.5135416666666667 0.5151041666666667 0.5151041666666667 0.5171875 0.5234375 0.5333333333333333 0.5479166666666667 0.5630208333333333 0.6015625 0.6182291666666667 0.6239583333333333 0.6239583333333333 0.6239583333333333 0.6239583333333333 0.6244791666666667 0.6255208333333333 0.6270833333333333 0.6671875 0.6994791666666667 0.7328125 0.7682291666666666 0.7973958333333333 0.8557291666666667 0.8765625 0.8833333333333333 0.8864583333333333 0.8875 0.8880208333333334,0.8166666666666667 0.8027777777777778 0.7798611111111111 0.74375 0.69375 0.5840277777777778 0.5243055555555556 0.48125 0.44652777777777775 0.4180555555555555 0.4027777777777778 0.3819444444444444 0.3756944444444445 0.3729166666666667 0.37222222222222223 0.37222222222222223 0.3659722222222223 0.35763888888888884 0.34652777777777777 0.3326388888888889 0.3215277777777777 0.2944444444444444 0.28125 0.2756944444444445 0.2756944444444445 0.2756944444444445 0.275 0.27361111111111114 0.27222222222222225 0.27083333333333337 0.2534722222222222 0.2395833333333333 0.2270833333333333 0.21458333333333326 0.20625000000000004 0.1923611111111111 0.1875 0.1875 0.1875 0.1875 0.1875,586.3000000000175 606.3000000000175 626.3000000000175 646.3000000000175 666.3000000000175 686.3000000000175 706.3000000000176 726.3000000000176 746.3000000000176 766.3000000000176 786.3000000000176 806.3000000000176 826.3000000000176 846.3000000000176 866.3000000000176 886.3000000000176 906.3000000000177 926.3000000000177 946.3000000000177 966.3000000000177 986.3000000000177 1006.3000000000177 1026.3000000000177 1046.3000000000177 1066.3000000000177 1086.3000000000177 1106.3000000000177 1126.3000000000175 1146.3000000000175 1166.3000000000175 1186.3000000000175 1206.3000000000175 1226.3000000000175 1246.3000000000175 1266.3000000000175 1286.3000000000175 1306.3000000000175 1326.3000000000175 1346.3000000000175 1366.3000000000175 1386.3000000000175
cb_01,20.0,enc_trial,stim,response,Miami trip,1277.8999999940281,enc_trial,1.0,20.0,t_m_19_1,travel_Miami,fold-b,surfboard,1.0,unique,far,paired,t_m_19_1.jpg,Miami,travel-b1,Iceland trip,Miami trip,sub-92,1.0,1.0,1.0,1.0,0.4963541666666666 0.4838541666666666 0.4651041666666666 0.4369791666666665 0.40989583333333335 0.3380208333333333 0.3036458333333333 0.2786458333333333 0.2692708333333333 0.26614583333333336 0.2682291666666667 0.2692708333333333 0.2692708333333333 0.2692708333333333 0.2692708333333333 0.2682291666666667 0.25625 0.2416666666666667 0.2239583333333333 0.2083333333333333 0.18177083333333333 0.16666666666666666 0.15989583333333332 0.15729166666666666 0.15677083333333333 0.1578125 0.21458333333333326 0.2770833333333333 0.3666666666666665 0.44375 0.6125 0.684375 0.74375 0.7947916666666667 0.8213541666666667 0.8328125 0.8348958333333333 0.8364583333333333 0.8390625 0.8421875 0.8484375 0.85,0.825 0.7986111111111112 0.7583333333333333 0.7013888888888888 0.6388888888888888 0.4972222222222222 0.4361111111111111 0.375 0.33333333333333337 0.30625 0.29166666666666663 0.2909722222222222 0.2909722222222222 0.2909722222222222 0.2909722222222222 0.2888888888888889 0.26875000000000004 0.25 0.2333333333333333 0.21597222222222226 0.1909722222222222 0.17500000000000004 0.16874999999999996 0.16388888888888886 0.16388888888888886 0.16388888888888886 0.16527777777777775 0.1694444444444444 0.1694444444444444 0.1694444444444444 0.1444444444444445 0.12638888888888888 0.10833333333333328 0.09305555555555556 0.0888888888888889 0.0902777777777778 0.09097222222222223 0.09166666666666667 0.09236111111111113 0.09444444444444444 0.10069444444444442 0.1020833333333333,430.19999999998254 450.19999999998254 470.19999999998254 490.19999999998254 510.19999999998254 530.1999999999825 550.1999999999825 570.1999999999825 590.1999999999825 610.1999999999825 630.1999999999825 650.1999999999825 670.1999999999825 690.1999999999824 710.1999999999824 730.1999999999824 750.1999999999824 770.1999999999824 790.1999999999824 810.1999999999824 830.1999999999824 850.1999999999824 870.1999999999824 890.1999999999824 910.1999999999823 930.1999999999823 950.1999999999823 970.1999999999823 990.1999999999823 1010.1999999999823 1030.1999999999823 1050.1999999999823 1070.1999999999823 1090.1999999999823 1110.1999999999823 1130.1999999999825 1150.1999999999825 1170.1999999999825 1190.1999999999825 1210.1999999999825 1230.1999999999825 1250.1999999999825
cb_01,21.0,enc_trial,stim,response,Miami trip,1320.9999999880674,enc_trial,1.0,21.0,t_s_02_1,travel_shared,fold-b,water bottle,1.0,competing,far,paired,t_s_02_1.jpg,,travel-b1,Iceland trip,Miami trip,sub-92,1.0,1.0,1.0,1.0,0.4927083333333334 0.4901041666666667 0.4890625 0.4875 0.4864583333333333 0.4848958333333334 0.4859375 0.4875 0.4890625 0.490625 0.4979166666666667 0.5052083333333334 0.5171875 0.5317708333333333 0.5479166666666667 0.596875 0.621875 0.6479166666666667 0.6770833333333334 0.7052083333333333 0.7645833333333333 0.7958333333333333 0.8161458333333333 0.8328125 0.8385416666666666 0.8432291666666667 0.8447916666666667 0.8458333333333333 0.8479166666666667 0.8505208333333333 0.8609375 0.865625 0.86875 0.8708333333333333 0.8713541666666667 0.8713541666666667,0.8298611111111112 0.8243055555555556 0.8152777777777778 0.8048611111111111 0.7909722222222222 0.7638888888888888 0.7486111111111111 0.7319444444444445 0.7138888888888889 0.6986111111111111 0.6652777777777779 0.6430555555555555 0.61875 0.5930555555555556 0.5666666666666667 0.4944444444444445 0.4569444444444445 0.4166666666666666 0.3763888888888889 0.34444444444444444 0.2847222222222222 0.2569444444444444 0.2416666666666667 0.2305555555555555 0.2263888888888889 0.2243055555555556 0.2236111111111111 0.22291666666666665 0.2215277777777777 0.21875 0.19652777777777766 0.1868055555555556 0.1805555555555556 0.17638888888888893 0.17638888888888893 0.1756944444444445,503.0 523.0 543.0 563.0 583.0 603.0 623.0 643.0 663.0 683.0 703.0 723.0 743.0 763.0 783.0 803.0 823.0 843.0 863.0 883.0 903.0 923.0 943.0 963.0 983.0 1003.0 1023.0 1043.0 1063.0 1083.0 1103.0 1123.0 1143.0 1163.0 1183.0 1203.0
cb_01,22.0,enc_trial,stim,response,Miami trip,1177.1000000000058,enc_trial,1.0,22.0,t_s_21_2,travel_shared,fold-b,umbrella,1.0,competing,far,paired,t_s_21_2.jpg,,travel-b1,Iceland trip,Miami trip,sub-92,0.0,0.0,1.0,1.0,0.5052083333333334 0.50625 0.5067708333333333 0.5067708333333333 0.5067708333333333 0.5078125 0.5104166666666666 0.515625 0.5239583333333333 0.5395833333333333 0.6020833333333333 0.640625 0.6739583333333333 0.6989583333333333 0.7260416666666667 0.78125 0.7979166666666667 0.8161458333333333 0.8286458333333333 0.840625 0.846875 0.8567708333333334 0.8630208333333333 0.8708333333333333 0.8760416666666667 0.8802083333333334,0.8270833333333334 0.8215277777777777 0.8138888888888889 0.80625 0.7972222222222223 0.7715277777777778 0.7486111111111111 0.7159722222222222 0.6840277777777778 0.6423611111111112 0.5368055555555555 0.4840277777777777 0.4423611111111111 0.41041666666666665 0.3826388888888889 0.3326388888888889 0.3125 0.2895833333333333 0.27222222222222225 0.2548611111111111 0.2451388888888889 0.2222222222222222 0.20763888888888893 0.1902777777777777 0.17638888888888893 0.1645833333333333,581.8000000000175 601.8000000000175 621.8000000000175 641.8000000000175 661.8000000000175 681.8000000000175 701.8000000000176 721.8000000000176 741.8000000000176 761.8000000000176 781.8000000000176 801.8000000000176 821.8000000000176 841.8000000000176 861.8000000000176 881.8000000000176 901.8000000000177 921.8000000000177 941.8000000000177 961.8000000000177 981.8000000000177 1001.8000000000177 1021.8000000000177 1041.8000000000177 1061.8000000000177 1081.8000000000177
cb_01,23.0,enc_trial,stim,response,Iceland trip,1855.8999999880907,enc_trial,1.0,23.0,t_s_12_2,travel_shared,fold-b,clear toiletry bag,1.0,competing,far,paired,t_s_12_2.jpg,,travel-b1,Iceland trip,Miami trip,sub-92,0.0,0.0,1.0,0.0,0.5046875 0.503125 0.5005208333333333 0.4973958333333333 0.4911458333333333 0.4708333333333333 0.4625 0.4604166666666666 0.4583333333333333 0.4625 0.509375 0.5395833333333333 0.55 0.5510416666666667 0.5510416666666667 0.5489583333333333 0.5421875 0.5213541666666667 0.5041666666666667 0.4666666666666667 0.384375 0.3385416666666667 0.3020833333333333 0.2708333333333333 0.25104166666666666 0.2375 0.2302083333333333 0.2260416666666667 0.2171875 0.20729166666666668 0.190625 0.18385416666666668 0.17916666666666667 0.175 0.1703125 0.16197916666666667 0.15833333333333333 0.15416666666666667 0.1515625 0.15 0.14739583333333334 0.146875 0.146875 0.146875 0.14635416666666667,0.8076388888888889 0.7972222222222223 0.7784722222222222 0.7576388888888889 0.7215277777777778 0.6611111111111111 0.6236111111111111 0.5909722222222222 0.5618055555555556 0.5381944444444444 0.4847222222222223 0.4652777777777778 0.4611111111111112 0.4611111111111112 0.4611111111111112 0.4583333333333334 0.4506944444444444 0.44027777777777777 0.4298611111111112 0.4118055555555555 0.3854166666666666 0.3729166666666667 0.36458333333333337 0.3548611111111111 0.3486111111111111 0.3375 0.3305555555555556 0.325 0.3159722222222222 0.3006944444444445 0.26388888888888884 0.24236111111111114 0.2263888888888889 0.2104166666666667 0.19375 0.17152777777777772 0.1659722222222222 0.16041666666666665 0.15694444444444444 0.15555555555555556 0.15416666666666667 0.15347222222222226 0.15347222222222226 0.15347222222222226 0.15347222222222226,753.1000000000058 773.1000000000058 793.1000000000058 813.1000000000058 833.1000000000058 853.1000000000058 873.1000000000058 893.1000000000058 913.1000000000058 933.1000000000058 953.1000000000058 973.1000000000058 993.1000000000058 1013.1000000000058 1033.1000000000058 1053.1000000000058 1073.1000000000058 1093.1000000000058 1113.1000000000058 1133.1000000000058 1153.1000000000058 1173.1000000000058 1193.1000000000058 1213.1000000000058 1233.1000000000058 1253.1000000000058 1273.1000000000058 1293.1000000000058 1313.1000000000058 1333.1000000000058 1353.1000000000058 1373.1000000000058 1393.1000000000058 1413.1000000000058 1433.1000000000058 1453.1000000000058 1473.1000000000058 1493.1000000000058 1513.1000000000058 1533.1000000000058 1553.1000000000058 1573.1000000000058 1593.1000000000058 1613.1000000000058 1633.1000000000058
cb_01,24.0,enc_trial,stim,response,Miami trip,1246.3999999880907,enc_trial,1.0,24.0,t_s_06_1,travel_shared,fold-b,luggage,1.0,competing,far,paired,t_s_06_1.jpg,,travel-b1,Iceland trip,Miami trip,sub-92,1.0,1.0,0.0,0.0,0.4947916666666667 0.4984375 0.5015625 0.5057291666666667 0.5109375 0.5182291666666666 0.5359375 0.5463541666666667 0.5557291666666667 0.5682291666666667 0.575 0.578125 0.5755208333333334 0.5734375 0.5723958333333333 0.571875 0.571875 0.5744791666666667 0.5796875 0.5869791666666667 0.5973958333333333 0.6458333333333334 0.6791666666666667 0.7145833333333333 0.7520833333333333 0.8229166666666666 0.8484375 0.8552083333333333 0.859375 0.8614583333333333 0.8645833333333334 0.8703125 0.8723958333333334 0.8729166666666667,0.8152777777777778 0.8076388888888889 0.7909722222222222 0.7659722222222223 0.7326388888888888 0.6895833333333333 0.5840277777777778 0.5340277777777778 0.4951388888888889 0.4534722222222223 0.4215277777777777 0.38402777777777775 0.3701388888888889 0.36458333333333337 0.3590277777777777 0.3548611111111111 0.3472222222222222 0.3395833333333333 0.3305555555555556 0.3215277777777777 0.3104166666666667 0.2701388888888889 0.2465277777777778 0.2256944444444444 0.2048611111111112 0.17013888888888884 0.15902777777777774 0.15694444444444444 0.15694444444444444 0.15625 0.15555555555555556 0.1513888888888889 0.1513888888888889 0.1513888888888889,569.6000000000057 589.6000000000057 609.6000000000057 629.6000000000057 649.6000000000057 669.6000000000057 689.6000000000058 709.6000000000058 729.6000000000058 749.6000000000058 769.6000000000058 789.6000000000058 809.6000000000058 829.6000000000058 849.6000000000058 869.6000000000058 889.6000000000058 909.6000000000056 929.6000000000056 949.6000000000056 969.6000000000056 989.6000000000056 1009.6000000000056 1029.6000000000058 1049.6000000000058 1069.6000000000058 1089.6000000000058 1109.6000000000058 1129.6000000000058 1149.6000000000058 1169.6000000000058 1189.6000000000058 1209.6000000000058 1229.6000000000058
cb_01,25.0,enc_trial,stim,response,Iceland trip,1143.7999999821186,enc_trial,1.0,25.0,t_s_18_1,travel_shared,fold-a,first aid kit,1.0,competing,close,paired,t_s_18_1.jpg,,travel-b1,Iceland trip,Miami trip,sub-92,1.0,1.0,1.0,1.0,0.4942708333333333 0.4932291666666666 0.4932291666666666 0.4932291666666666 0.4932291666666666 0.4932291666666666 0.4932291666666666 0.4942708333333333 0.4942708333333333 0.4942708333333333 0.4911458333333333 0.4864583333333333 0.478125 0.4677083333333333 0.4536458333333334 0.4046875 0.3765625 0.3567708333333333 0.3348958333333333 0.3182291666666667 0.29010416666666666 0.28072916666666664 0.26979166666666665 0.259375 0.2463541666666667 0.2255208333333333 0.21458333333333326 0.2046875 0.19427083333333334 0.18697916666666667 0.17708333333333334 0.17447916666666666 0.17291666666666666 0.17239583333333333,0.7972222222222223 0.7847222222222222 0.7722222222222223 0.75625 0.7416666666666667 0.7090277777777778 0.6944444444444444 0.6777777777777778 0.6631944444444444 0.65 0.6138888888888889 0.59375 0.575 0.5527777777777778 0.53125 0.4604166666666667 0.4215277777777777 0.3881944444444444 0.34930555555555554 0.3201388888888889 0.27222222222222225 0.25555555555555554 0.2368055555555556 0.2236111111111111 0.20972222222222225 0.1944444444444444 0.18819444444444444 0.18541666666666667 0.1826388888888889 0.18194444444444446 0.18194444444444446 0.18194444444444446 0.18194444444444446 0.18194444444444446,480.2999999999884 500.2999999999884 520.2999999999884 540.2999999999884 560.2999999999884 580.2999999999884 600.2999999999884 620.2999999999884 640.2999999999884 660.2999999999884 680.2999999999884 700.2999999999884 720.2999999999884 740.2999999999884 760.2999999999884 780.2999999999884 800.2999999999884 820.2999999999884 840.2999999999884 860.2999999999884 880.2999999999884 900.2999999999884 920.2999999999884 940.2999999999884 960.2999999999884 980.2999999999884 1000.2999999999884 1020.2999999999884 1040.2999999999884 1060.2999999999884 1080.2999999999884 1100.2999999999884 1120.2999999999884 1140.2999999999886
cb_01,26.0,enc_trial,stim,response,Miami trip,999.6999999761464,enc_trial,1.0,26.0,t_m_01_2,travel_Miami,fold-a,sandals,1.0,unique,close,paired,t_m_01_2.jpg,Miami,travel-b1,Iceland trip,Miami trip,sub-92,1.0,1.0,1.0,1.0,0.4973958333333333 0.4973958333333333 0.4973958333333333 0.4984375 0.5010416666666667 0.5208333333333334 0.5395833333333333 0.5604166666666667 0.5822916666666667 0.6052083333333333 0.6520833333333333 0.6729166666666667 0.6979166666666666 0.7130208333333333 0.7317708333333334 0.765625 0.7796875 0.7942708333333334 0.8067708333333333 0.8229166666666666 0.8505208333333333 0.8619791666666666 0.8671875 0.86875 0.8697916666666666 0.8697916666666666 0.8703125,0.8138888888888889 0.8104166666666667 0.8041666666666667 0.7951388888888888 0.7708333333333334 0.7076388888888889 0.6659722222222222 0.6118055555555555 0.5618055555555556 0.5118055555555556 0.4118055555555555 0.3673611111111112 0.3243055555555555 0.30000000000000004 0.27222222222222225 0.2298611111111111 0.21597222222222226 0.20138888888888884 0.18958333333333333 0.1756944444444445 0.15486111111111112 0.14722222222222225 0.14513888888888893 0.1444444444444445 0.1444444444444445 0.1444444444444445 0.1444444444444445,447.0 467.0 487.0 507.0 527.0 547.0 567.0 587.0 607.0 627.0 647.0 667.0 687.0 707.0 727.0 747.0 767.0 787.0 807.0 827.0 847.0 867.0 887.0 907.0 927.0 947.0 967.0
cb_01,27.0,enc_trial,stim,response,Iceland trip,1246.7999999999886,enc_trial,1.0,27.0,t_i_19_2,travel_Iceland,fold-b,rope,1.0,unique,far,paired,t_i_19_2.jpg,Iceland,travel-b1,Iceland trip,Miami trip,sub-92,1.0,1.0,1.0,0.0,0.4828125 0.4833333333333333 0.48125 0.4734375 0.4713541666666667 0.4614583333333334 0.4583333333333333 0.4541666666666666 0.4484375 0.4473958333333333 0.4453125 0.4447916666666665 0.4432291666666667 0.4401041666666667 0.4364583333333333 0.4296875 0.42604166666666665 0.4213541666666665 0.4161458333333333 0.4125 0.3984375 0.3880208333333333 0.37552083333333336 0.36302083333333335 0.34322916666666664 0.2921875 0.2677083333333333 0.24479166666666666 0.23125 0.21979166666666666 0.20208333333333334 0.1927083333333333 0.18177083333333333 0.1734375 0.16302083333333334 0.15885416666666666,0.8236111111111111 0.8076388888888889 0.7847222222222222 0.7611111111111111 0.73125 0.6597222222222222 0.6222222222222222 0.5805555555555555 0.5569444444444445 0.5319444444444444 0.5006944444444444 0.4902777777777778 0.4756944444444444 0.4631944444444445 0.4493055555555555 0.4229166666666667 0.4131944444444444 0.40347222222222223 0.39583333333333337 0.3888888888888888 0.375 0.3659722222222223 0.3555555555555555 0.3451388888888889 0.32638888888888884 0.2847222222222222 0.2652777777777777 0.2493055555555556 0.2368055555555556 0.2277777777777777 0.2138888888888889 0.20972222222222225 0.20416666666666672 0.2006944444444444 0.19513888888888886 0.1930555555555556,530.2999999999884 550.2999999999884 570.2999999999884 590.2999999999884 610.2999999999884 630.2999999999884 650.2999999999884 670.2999999999884 690.2999999999884 710.2999999999884 730.2999999999884 750.2999999999884 770.2999999999884 790.2999999999884 810.2999999999884 830.2999999999884 850.2999999999884 870.2999999999884 890.2999999999884 910.2999999999884 930.2999999999884 950.2999999999884 970.2999999999884 990.2999999999884 1010.2999999999884 1030.2999999999884 1050.2999999999884 1070.2999999999884 1090.2999999999884 1110.2999999999884 1130.2999999999886 1150.2999999999886 1170.2999999999886 1190.2999999999886 1210.2999999999886 1230.2999999999886
cb_01,28.0,enc_trial,stim,response,Miami trip,1136.2999999880851,enc_trial,1.0,28.0,t_s_13_1,travel_shared,fold-c-single,contact lens case,1.0,competing,,single,t_s_13_1.jpg,,travel-b1,Iceland trip,Miami trip,sub-92,1.0,,1.0,,0.5005208333333333 0.4932291666666666 0.4859375 0.4802083333333334 0.4744791666666667 0.4661458333333333 0.4625 0.4552083333333333 0.4541666666666666 0.4520833333333333 0.43854166666666666 0.43020833333333336 0.4270833333333333 0.4203125 0.4088541666666667 0.3848958333333333 0.37552083333333336 0.3625 0.35208333333333336 0.34479166666666666 0.3421875 0.3494791666666667 0.36770833333333336 0.4125 0.4802083333333334 0.6354166666666666 0.7135416666666666 0.7864583333333334 0.8364583333333333 0.8791666666666667 0.8984375 0.8989583333333333 0.8989583333333333 0.8994791666666667 0.9 0.9005208333333333,0.8381944444444445 0.8284722222222223 0.8125 0.7930555555555556 0.7659722222222223 0.7055555555555555 0.6736111111111112 0.6416666666666666 0.6055555555555556 0.5597222222222222 0.4847222222222223 0.4444444444444444 0.4055555555555556 0.38402777777777775 0.34375 0.2902777777777777 0.2729166666666667 0.2479166666666667 0.22916666666666666 0.2104166666666667 0.1902777777777777 0.18194444444444446 0.17291666666666672 0.15763888888888888 0.1368055555555555 0.09652777777777777 0.08402777777777781 0.0756944444444444 0.0756944444444444 0.0756944444444444 0.07916666666666672 0.07986111111111116 0.08194444444444449 0.08333333333333337 0.08472222222222225 0.08611111111111114,413.7000000000117 433.7000000000117 453.7000000000117 473.7000000000117 493.7000000000117 513.7000000000116 533.7000000000116 553.7000000000116 573.7000000000116 593.7000000000116 613.7000000000116 633.7000000000116 653.7000000000116 673.7000000000116 693.7000000000116 713.7000000000116 733.7000000000116 753.7000000000116 773.7000000000116 793.7000000000116 813.7000000000116 833.7000000000116 853.7000000000116 873.7000000000116 893.7000000000116 913.7000000000116 933.7000000000116 953.7000000000116 973.7000000000116 993.7000000000116 1013.7000000000116 1033.7000000000116 1053.7000000000116 1073.7000000000116 1093.7000000000116 1113.7000000000116
cb_01,29.0,enc_trial,stim,response,Iceland trip,1222.4999999940335,enc_trial,1.0,29.0,t_i_15_1,travel_Iceland,fold-a,compass,1.0,unique,close,paired,t_i_15_1.jpg,Iceland,travel-b1,Iceland trip,Miami trip,sub-92,1.0,1.0,1.0,1.0,0.4927083333333334 0.4927083333333334 0.4927083333333334 0.4927083333333334 0.4927083333333334 0.4916666666666666 0.4916666666666666 0.4916666666666666 0.4916666666666666 0.4911458333333333 0.4880208333333334 0.4854166666666666 0.4833333333333333 0.4729166666666666 0.4625 0.44635416666666666 0.44114583333333335 0.4369791666666665 0.4369791666666665 0.44114583333333335 0.4786458333333333 0.5036458333333333 0.521875 0.5276041666666667 0.5270833333333333 0.5010416666666667 0.4729166666666666 0.434375 0.37916666666666665 0.334375 0.240625 0.2083333333333333 0.178125 0.16302083333333334 0.15208333333333332 0.13489583333333333 0.1296875 0.125 0.12395833333333335,0.8222222222222222 0.81875 0.8145833333333333 0.8083333333333333 0.8020833333333334 0.7826388888888889 0.7729166666666667 0.7604166666666666 0.7493055555555556 0.7347222222222223 0.7090277777777778 0.6881944444444444 0.6708333333333334 0.6520833333333333 0.6375 0.60625 0.5888888888888889 0.5604166666666667 0.5263888888888889 0.4875 0.4027777777777778 0.3666666666666667 0.34375 0.3319444444444445 0.3270833333333333 0.3055555555555556 0.29375 0.2798611111111111 0.2618055555555555 0.24375 0.1993055555555555 0.17986111111111114 0.1645833333333333 0.15625 0.15000000000000002 0.13958333333333328 0.1368055555555555 0.13541666666666666 0.13541666666666666,447.0 467.0 487.0 507.0 527.0 547.0 567.0 587.0 607.0 627.0 647.0 667.0 687.0 707.0 727.0 747.0 767.0 787.0 807.0 827.0 847.0 867.0 887.0 907.0 927.0 947.0 967.0 987.0 1007.0 1027.0 1047.0 1067.0 1087.0 1107.0 1127.0 1147.0 1167.0 1187.0 1207.0
cb_01,30.0,enc_trial,stim,response,Miami trip,1244.6999999821128,enc_trial,1.0,30.0,t_s_15_1,travel_shared,fold-c-single,luggage tag,1.0,competing,,single,t_s_15_1.jpg,,travel-b1,Iceland trip,Miami trip,sub-92,1.0,,1.0,,0.5489583333333333 0.5510416666666667 0.5536458333333333 0.5526041666666667 0.5515625 0.553125 0.553125 0.553125 0.5526041666666667 0.5526041666666667 0.5526041666666667 0.5526041666666667 0.5520833333333334 0.5510416666666667 0.5505208333333333 0.5484375 0.546875 0.5458333333333333 0.5442708333333334 0.5395833333333333 0.5291666666666667 0.5140625 0.496875 0.4791666666666667 0.4552083333333333 0.4364583333333333 0.40989583333333335 0.4088541666666667 0.4088541666666667 0.40989583333333335 0.4114583333333333 0.41041666666666665 0.40989583333333335 0.40625 0.4015625 0.3927083333333333 0.365625 0.3505208333333333 0.3359375 0.3223958333333333 0.30416666666666664 0.2994791666666667 0.2984375 0.2989583333333333 0.309375 0.375 0.43333333333333335 0.503125 0.5760416666666667 0.6604166666666667 0.728125 0.8479166666666667 0.8833333333333333 0.9041666666666668 0.90625 0.9078125 0.9083333333333332 0.9088541666666666,0.7458333333333333 0.7611111111111111 0.7756944444444445 0.7833333333333333 0.79375 0.7972222222222223 0.7979166666666666 0.7979166666666666 0.7965277777777777 0.7958333333333334 0.7951388888888888 0.7944444444444445 0.79375 0.7923611111111111 0.7916666666666666 0.7902777777777777 0.7881944444444444 0.7861111111111111 0.7840277777777778 0.7770833333333333 0.7597222222222222 0.7333333333333334 0.7118055555555556 0.6881944444444444 0.6590277777777778 0.63125 0.5659722222222222 0.5354166666666667 0.5076388888888889 0.4791666666666666 0.4472222222222222 0.4361111111111111 0.4298611111111112 0.4180555555555555 0.4055555555555556 0.3930555555555556 0.3631944444444445 0.34375 0.32638888888888884 0.3076388888888889 0.2826388888888889 0.27222222222222225 0.2659722222222223 0.26041666666666663 0.25555555555555554 0.24236111111111114 0.2340277777777777 0.2215277777777777 0.20347222222222228 0.17986111111111114 0.1645833333333333 0.13263888888888886 0.12708333333333333 0.12291666666666667 0.12291666666666667 0.12291666666666667 0.12291666666666667 0.12291666666666667,63.69999999998254 83.69999999998255 103.69999999998255 123.69999999998255 143.69999999998254 163.69999999998254 183.69999999998254 203.69999999998254 223.69999999998254 243.69999999998254 263.69999999998254 283.6999999999825 303.6999999999825 323.6999999999825 343.69999999998254 363.69999999998254 383.69999999998254 403.69999999998254 423.69999999998254 443.69999999998254 463.69999999998254 483.69999999998254 503.69999999998254 523.6999999999825 543.6999999999825 563.6999999999825 583.6999999999825 603.6999999999825 623.6999999999825 643.6999999999825 663.6999999999825 683.6999999999825 703.6999999999824 723.6999999999824 743.6999999999824 763.6999999999824 783.6999999999824 803.6999999999824 823.6999999999824 843.6999999999824 863.6999999999824 883.6999999999824 903.6999999999823 923.6999999999823 943.6999999999823 963.6999999999823 983.6999999999823 1003.6999999999823 1023.6999999999823 1043.6999999999823 1063.6999999999823 1083.6999999999823 1103.6999999999823 1123.6999999999823 1143.6999999999825 1163.6999999999825 1183.6999999999825 1203.6999999999825
cb_01,31.0,enc_trial,stim,response,Miami trip,1027.2999999821186,enc_trial,1.0,31.0,t_m_18_2,travel_Miami,fold-b,waterproof tote,1.0,unique,far,paired,t_m_18_2.jpg,Miami,travel-b1,Iceland trip,Miami trip,sub-92,1.0,1.0,1.0,1.0,0.4953125 0.4947916666666667 0.49375 0.4916666666666666 0.4890625 0.4822916666666667 0.48125 0.4802083333333334 0.475 0.46875 0.459375 0.4510416666666667 0.446875 0.4442708333333333 0.4348958333333333 0.403125 0.3885416666666667 0.3744791666666665 0.3625 0.353125 0.34427083333333336 0.3421875 0.3411458333333333 0.3411458333333333 0.3427083333333333 0.38333333333333336 0.4239583333333333 0.4822916666666667 0.5604166666666667 0.6364583333333333 0.796875 0.8541666666666666 0.89375 0.9140625 0.915625,0.8138888888888889 0.8104166666666667 0.80625 0.7965277777777777 0.7861111111111111 0.7381944444444444 0.7125 0.6708333333333334 0.625 0.5833333333333333 0.4986111111111111 0.4638888888888889 0.4277777777777778 0.3972222222222223 0.3784722222222222 0.3388888888888889 0.3222222222222222 0.30625 0.29166666666666663 0.2805555555555556 0.2645833333333333 0.2590277777777777 0.25277777777777777 0.25069444444444444 0.2465277777777778 0.2263888888888889 0.2138888888888889 0.2 0.1791666666666667 0.15833333333333333 0.11944444444444445 0.10555555555555553 0.0972222222222222 0.09583333333333333 0.09583333333333333,263.6000000000058 283.6000000000058 303.6000000000058 323.6000000000058 343.6000000000058 363.6000000000058 383.6000000000058 403.6000000000058 423.6000000000058 443.6000000000058 463.6000000000058 483.6000000000058 503.6000000000058 523.6000000000058 543.6000000000058 563.6000000000057 583.6000000000057 603.6000000000057 623.6000000000057 643.6000000000057 663.6000000000057 683.6000000000057 703.6000000000058 723.6000000000058 743.6000000000058 763.6000000000058 783.6000000000058 803.6000000000058 823.6000000000058 843.6000000000058 863.6000000000058 883.6000000000058 903.6000000000058 923.6000000000058 943.6000000000058
cb_01,32.0,enc_trial,stim,response,Miami trip,1408.8999999761581,enc_trial,1.0,32.0,t_s_18_2,travel_shared,fold-a,first aid kit,1.0,competing,close,paired,t_s_18_2.jpg,,travel-b1,Iceland trip,Miami trip,sub-92,1.0,1.0,1.0,1.0,0.4958333333333334 0.4776041666666666 0.4651041666666666 0.4598958333333333 0.4526041666666666 0.4328125 0.4192708333333333 0.4078125 0.3932291666666667 0.38697916666666665 0.3546875 0.34479166666666666 0.32760416666666664 0.3151041666666667 0.3036458333333333 0.2708333333333333 0.2520833333333333 0.2307291666666667 0.2161458333333333 0.20364583333333333 0.1921875 0.19114583333333326 0.190625 0.18958333333333333 0.18854166666666666 0.18333333333333326 0.18020833333333333 0.178125 0.17760416666666667 0.18541666666666667 0.25729166666666664 0.3104166666666667 0.3802083333333333 0.475 0.5635416666666667 0.7322916666666667 0.8041666666666667 0.85625 0.8901041666666667 0.89375 0.89375 0.8921875 0.890625 0.8885416666666667 0.8885416666666667 0.8885416666666667,0.8125 0.7993055555555555 0.7729166666666667 0.7375 0.6944444444444444 0.5888888888888889 0.5402777777777779 0.4861111111111112 0.43472222222222223 0.3875 0.3319444444444445 0.3076388888888889 0.2888888888888889 0.27847222222222223 0.2659722222222223 0.2458333333333333 0.2340277777777777 0.21944444444444444 0.2083333333333333 0.1993055555555555 0.18541666666666667 0.1826388888888889 0.18194444444444446 0.18125 0.1805555555555556 0.17847222222222225 0.17708333333333334 0.1756944444444445 0.1756944444444445 0.17291666666666672 0.17013888888888884 0.17013888888888884 0.16736111111111107 0.15625 0.13958333333333328 0.09652777777777777 0.07708333333333328 0.06458333333333333 0.05902777777777779 0.05902777777777779 0.05902777777777779 0.05972222222222224 0.061805555555555565 0.06805555555555554 0.07430555555555551 0.07777777777777772,497.0 517.0 537.0 557.0 577.0 597.0 617.0 637.0 657.0 677.0 697.0 717.0 737.0 757.0 777.0 797.0 817.0 837.0 857.0 877.0 897.0 917.0 937.0 957.0 977.0 997.0 1017.0 1037.0 1057.0 1077.0 1097.0 1117.0 1137.0 1157.0 1177.0 1197.0 1217.0 1237.0 1257.0 1277.0 1297.0 1317.0 1337.0 1357.0 1377.0 1397.0
cb_01,33.0,enc_trial,stim,response,Miami trip,1069.6000000000058,enc_trial,1.0,33.0,t_s_04_1,travel_shared,fold-c-single,instant camera,1.0,competing,,single,t_s_04_1.jpg,,travel-b1,Iceland trip,Miami trip,sub-92,1.0,,1.0,,0.5026041666666666 0.4958333333333334 0.4890625 0.4864583333333333 0.4854166666666666 0.4875 0.4979166666666667 0.503125 0.5104166666666666 0.5130208333333334 0.5171875 0.5260416666666666 0.5364583333333334 0.5489583333333333 0.5619791666666667 0.578125 0.6213541666666667 0.6453125 0.6734375 0.7067708333333333 0.7421875 0.8213541666666667 0.8557291666666667 0.8859375 0.9026041666666668 0.9067708333333332 0.9067708333333332 0.9067708333333332 0.9067708333333332 0.9067708333333332,0.8284722222222223 0.8166666666666667 0.8034722222222223 0.7833333333333333 0.75625 0.7263888888888889 0.6618055555555555 0.6319444444444444 0.5958333333333333 0.5673611111111111 0.5402777777777779 0.4909722222222223 0.4631944444444445 0.44375 0.425 0.4076388888888889 0.36458333333333337 0.3458333333333333 0.3222222222222222 0.2986111111111112 0.2791666666666667 0.2347222222222223 0.21666666666666667 0.20138888888888884 0.1930555555555556 0.1902777777777777 0.1902777777777777 0.18888888888888888 0.1875 0.1868055555555556,419.7000000000117 439.7000000000117 459.7000000000117 479.7000000000117 499.7000000000117 519.7000000000116 539.7000000000116 559.7000000000116 579.7000000000116 599.7000000000116 619.7000000000116 639.7000000000116 659.7000000000116 679.7000000000116 699.7000000000116 719.7000000000116 739.7000000000116 759.7000000000116 779.7000000000116 799.7000000000116 819.7000000000116 839.7000000000116 859.7000000000116 879.7000000000116 899.7000000000116 919.7000000000116 939.7000000000116 959.7000000000116 979.7000000000116 999.7000000000116
cb_01,34.0,enc_trial,stim,response,Iceland trip,954.5999999940396,enc_trial,1.0,34.0,t_i_15_2,travel_Iceland,fold-a,compass,1.0,unique,close,paired,t_i_15_2.jpg,Iceland,travel-b1,Iceland trip,Miami trip,sub-92,1.0,1.0,1.0,1.0,0.5036458333333333 0.5046875 0.5098958333333333 0.5197916666666667 0.5260416666666666 0.5583333333333333 0.5875 0.6072916666666667 0.609375 0.6265625 0.6333333333333333 0.6348958333333333 0.6291666666666667 0.6213541666666667 0.6140625 0.5958333333333333 0.5942708333333333 0.5921875 0.5822916666666667 0.5692708333333333 0.5395833333333333 0.5197916666666667 0.4947916666666667 0.4645833333333334 0.4354166666666667 0.36875 0.3385416666666667 0.30520833333333336 0.26979166666666665 0.240625 0.21875 0.21875 0.21979166666666666 0.2234375 0.2260416666666667 0.2270833333333333 0.2270833333333333 0.2255208333333333 0.21979166666666666 0.20989583333333334 0.18541666666666667 0.17395833333333333 0.16614583333333333 0.15625 0.1484375 0.14166666666666666 0.13958333333333334 0.1390625,0.7652777777777777 0.7513888888888889 0.7388888888888889 0.7291666666666667 0.7256944444444444 0.7256944444444444 0.7256944444444444 0.7284722222222222 0.7284722222222222 0.7347222222222223 0.7555555555555555 0.7701388888888889 0.7805555555555556 0.7951388888888888 0.8055555555555556 0.8208333333333333 0.8222222222222222 0.8215277777777777 0.8118055555555556 0.7958333333333334 0.7548611111111111 0.7284722222222222 0.6979166666666667 0.6604166666666667 0.6243055555555556 0.5243055555555556 0.4701388888888889 0.4173611111111111 0.36875 0.3340277777777778 0.2986111111111112 0.2958333333333333 0.29513888888888884 0.2944444444444444 0.2944444444444444 0.29513888888888884 0.29513888888888884 0.2930555555555555 0.28680555555555554 0.275 0.24722222222222226 0.2340277777777777 0.2256944444444444 0.2138888888888889 0.20625000000000004 0.19861111111111107 0.1972222222222222 0.1972222222222222,0.0 20.0 40.0 60.0 80.0 100.0 120.0 140.0 160.0 180.0 200.0 220.0 240.0 260.0 280.0 300.0 320.0 340.0 360.0 380.0 400.0 420.0 440.0 460.0 480.0 500.0 520.0 540.0 560.0 580.0 600.0 620.0 640.0 660.0 680.0 700.0 720.0 740.0 760.0 780.0 800.0 820.0 840.0 860.0 880.0 900.0 920.0 940.0
cb_01,35.0,enc_trial,stim,response,Iceland trip,1281.9000000000233,enc_trial,1.0,35.0,t_s_02_2,travel_shared,fold-b,water bottle,1.0,competing,far,paired,t_s_02_2.jpg,,travel-b1,Iceland trip,Miami trip,sub-92,1.0,1.0,1.0,1.0,0.503125 0.5020833333333333 0.5005208333333333 0.4994791666666666 0.4994791666666666 0.4994791666666666 0.4994791666666666 0.4994791666666666 0.4994791666666666 0.4994791666666666 0.4994791666666666 0.4994791666666666 0.4994791666666666 0.4994791666666666 0.4994791666666666 0.4994791666666666 0.4994791666666666 0.4994791666666666 0.4994791666666666 0.4989583333333333 0.4989583333333333 0.4984375 0.4984375 0.4984375 0.4994791666666666 0.5020833333333333 0.503125 0.5041666666666667 0.5041666666666667 0.5041666666666667 0.5 0.4864583333333333 0.4739583333333333 0.4598958333333333 0.4447916666666665 0.4296875 0.40208333333333335 0.3921875 0.378125 0.36354166666666665 0.328125 0.3114583333333333 0.29635416666666664 0.2765625 0.2625 0.23697916666666666 0.2317708333333333 0.2296875 0.2286458333333333 0.2265625 0.21927083333333333 0.2140625 0.2083333333333333 0.20208333333333334 0.196875 0.17916666666666667 0.1734375 0.1703125 0.16927083333333334 0.16875,0.78125 0.7819444444444444 0.7819444444444444 0.7819444444444444 0.7819444444444444 0.7819444444444444 0.7819444444444444 0.7819444444444444 0.7819444444444444 0.7819444444444444 0.7819444444444444 0.7819444444444444 0.7819444444444444 0.7819444444444444 0.7819444444444444 0.7819444444444444 0.7819444444444444 0.7819444444444444 0.7819444444444444 0.7798611111111111 0.7756944444444445 0.7652777777777777 0.7597222222222222 0.7513888888888889 0.7423611111111111 0.7118055555555556 0.6868055555555556 0.6645833333333333 0.6388888888888888 0.6027777777777779 0.5694444444444444 0.4944444444444445 0.4645833333333334 0.43472222222222223 0.4118055555555555 0.3888888888888888 0.34444444444444444 0.3270833333333333 0.3069444444444445 0.2875 0.2493055555555556 0.2333333333333333 0.22083333333333333 0.20347222222222228 0.1923611111111111 0.1694444444444444 0.1645833333333333 0.16249999999999998 0.16180555555555556 0.16041666666666665 0.15902777777777774 0.15833333333333333 0.15694444444444444 0.15625 0.15625 0.15902777777777774 0.16041666666666665 0.16180555555555556 0.16319444444444442 0.16388888888888886,98.5 118.5 138.5 158.5 178.5 198.5 218.5 238.5 258.5 278.5 298.5 318.5 338.5 358.5 378.5 398.5 418.5 438.5 458.5 478.5 498.5 518.5 538.5 558.5 578.5 598.5 618.5 638.5 658.5 678.5 698.5 718.5 738.5 758.5 778.5 798.5 818.5 838.5 858.5 878.5 898.5 918.5 938.5 958.5 978.5 998.5 1018.5 1038.5 1058.5 1078.5 1098.5 1118.5 1138.5 1158.5 1178.5 1198.5 1218.5 1238.5 1258.5 1278.5
cb_01,36.0,enc_trial,stim,response,Iceland trip,1051.899999976158,enc_trial,1.0,36.0,t_s_20_1,travel_shared,fold-a,travel pill case,1.0,competing,close,paired,t_s_20_1.jpg,,travel-b1,Iceland trip,Miami trip,sub-92,1.0,1.0,0.0,1.0,0.4984375 0.4973958333333333 0.4958333333333334 0.4942708333333333 0.4921875 0.4911458333333333 0.4953125 0.5114583333333333 0.5161458333333333 0.5208333333333334 0.5229166666666667 0.5229166666666667 0.5234375 0.5229166666666667 0.5088541666666667 0.5026041666666666 0.4911458333333333 0.4911458333333333 0.4911458333333333 0.4911458333333333 0.4921875 0.4880208333333334 0.4828125 0.4744791666666667 0.4619791666666666 0.4401041666666667 0.4328125 0.4244791666666667 0.41458333333333336 0.396875 0.3552083333333333 0.3302083333333333 0.3104166666666667 0.2916666666666667 0.26979166666666665 0.2364583333333333 0.2140625 0.19895833333333326 0.1875 0.1765625 0.16510416666666666 0.16302083333333334 0.16197916666666667 0.1609375,0.8326388888888889 0.8277777777777777 0.8152777777777778 0.7909722222222222 0.7423611111111111 0.6881944444444444 0.5958333333333333 0.5784722222222223 0.5791666666666666 0.5854166666666667 0.5909722222222222 0.5958333333333333 0.5986111111111111 0.6055555555555556 0.6236111111111111 0.6333333333333333 0.6583333333333333 0.6652777777777779 0.6652777777777779 0.6666666666666667 0.6604166666666667 0.6486111111111111 0.6305555555555555 0.6083333333333334 0.58125 0.5319444444444444 0.5097222222222222 0.4895833333333334 0.4694444444444445 0.43333333333333335 0.3583333333333333 0.3083333333333333 0.27222222222222225 0.23750000000000004 0.20416666666666672 0.16041666666666665 0.14166666666666672 0.13055555555555556 0.12083333333333335 0.1152777777777778 0.11250000000000004 0.11250000000000004 0.11250000000000004 0.11250000000000004,169.70000000001158 189.70000000001158 209.70000000001158 229.70000000001158 249.70000000001158 269.7000000000116 289.70000000001164 309.70000000001164 329.70000000001164 349.7000000000116 369.7000000000116 389.7000000000116 409.7000000000116 429.7000000000116 449.7000000000116 469.7000000000116 489.7000000000116 509.7000000000116 529.7000000000116 549.7000000000116 569.7000000000116 589.7000000000116 609.7000000000116 629.7000000000116 649.7000000000116 669.7000000000116 689.7000000000116 709.7000000000116 729.7000000000116 749.7000000000116 769.7000000000116 789.7000000000116 809.7000000000116 829.7000000000116 849.7000000000116 869.7000000000116 889.7000000000116 909.7000000000116 929.7000000000116 949.7000000000116 969.7000000000116 989.7000000000116 1009.7000000000116 1029.7000000000116
cb_01,37.0,enc_trial,stim,response,Miami trip,1083.2999999999884,enc_trial,1.0,37.0,t_m_19_2,travel_Miami,fold-b,surfboard,1.0,unique,far,paired,t_m_19_2.jpg,Miami,travel-b1,Iceland trip,Miami trip,sub-92,1.0,1.0,1.0,1.0,0.4848958333333334 0.4661458333333333 0.4390625 0.40677083333333336 0.37864583333333335 0.3328125 0.3203125 0.32135416666666666 0.3390625 0.3692708333333333 0.4703125 0.5296875 0.5963541666666666 0.6463541666666667 0.6973958333333333 0.7838541666666666 0.8098958333333334 0.8223958333333333 0.8276041666666667 0.8291666666666667 0.8348958333333333 0.8390625 0.8432291666666667 0.8463541666666666 0.8479166666666667 0.8484375,0.7986111111111112 0.7680555555555555 0.7208333333333333 0.6666666666666667 0.6027777777777779 0.4625 0.4097222222222222 0.3611111111111112 0.3305555555555556 0.3069444444444445 0.2777777777777778 0.26388888888888884 0.25 0.2361111111111112 0.2180555555555556 0.18611111111111112 0.17361111111111116 0.16666666666666666 0.16388888888888886 0.16388888888888886 0.1611111111111111 0.1597222222222222 0.15902777777777774 0.15902777777777774 0.15902777777777774 0.15902777777777774,569.6999999999825 589.6999999999825 609.6999999999825 629.6999999999825 649.6999999999825 669.6999999999825 689.6999999999824 709.6999999999824 729.6999999999824 749.6999999999824 769.6999999999824 789.6999999999824 809.6999999999824 829.6999999999824 849.6999999999824 869.6999999999824 889.6999999999824 909.6999999999823 929.6999999999823 949.6999999999823 969.6999999999823 989.6999999999823 1009.6999999999823 1029.6999999999823 1049.6999999999823 1069.6999999999823
cb_01,38.0,enc_trial,stim,response,Iceland trip,969.7000000000116,enc_trial,1.0,38.0,t_s_06_2,travel_shared,fold-b,luggage,1.0,competing,far,paired,t_s_06_2.jpg,,travel-b1,Iceland trip,Miami trip,sub-92,1.0,1.0,0.0,0.0,0.5057291666666667 0.5052083333333334 0.5052083333333334 0.5020833333333333 0.4958333333333334 0.4916666666666666 0.4729166666666666 0.4541666666666666 0.425 0.39166666666666666 0.31875 0.2833333333333333 0.24479166666666666 0.21666666666666667 0.19479166666666667 0.16770833333333332 0.15520833333333334 0.1453125 0.13697916666666668 0.13125 0.12864583333333332,0.8222222222222222 0.8173611111111111 0.8083333333333333 0.7958333333333334 0.7743055555555556 0.7027777777777777 0.6555555555555556 0.6 0.5277777777777778 0.4666666666666667 0.35 0.3027777777777778 0.25555555555555554 0.225 0.1930555555555556 0.1513888888888889 0.13402777777777775 0.1201388888888889 0.11041666666666672 0.10555555555555553 0.10416666666666664,530.4000000000234 550.4000000000234 570.4000000000234 590.4000000000234 610.4000000000234 630.4000000000234 650.4000000000234 670.4000000000234 690.4000000000234 710.4000000000234 730.4000000000234 750.4000000000234 770.4000000000234 790.4000000000234 810.4000000000234 830.4000000000234 850.4000000000234 870.4000000000234 890.4000000000234 910.4000000000234 930.4000000000234
cb_01,39.0,enc_trial,stim,response,Miami trip,1388.49999998213,enc_trial,1.0,39.0,t_s_24_1,travel_shared,fold-c-single,ear plugs,1.0,competing,,single,t_s_24_1.jpg,,travel-b1,Iceland trip,Miami trip,sub-92,1.0,,1.0,,0.5614583333333333 0.5776041666666667 0.578125 0.578125 0.578125 0.578125 0.578125 0.5677083333333334 0.5604166666666667 0.5515625 0.5473958333333333 0.5458333333333333 0.5447916666666667 0.5432291666666667 0.5421875 0.5427083333333333 0.540625 0.5385416666666667 0.5359375 0.5322916666666667 0.5296875 0.5276041666666667 0.5276041666666667 0.5296875 0.5380208333333333 0.5494791666666666 0.5796875 0.6026041666666667 0.6192708333333333 0.6369791666666667 0.6432291666666666 0.6541666666666667 0.6567708333333333 0.6578125 0.6588541666666666 0.6614583333333334 0.671875 0.684375 0.6994791666666667 0.7197916666666667 0.7411458333333333 0.7463541666666667 0.7442708333333333 0.740625 0.7276041666666667 0.7151041666666667 0.7041666666666667 0.70625 0.7166666666666667 0.7375 0.7604166666666666 0.7994791666666666 0.8005208333333333 0.7989583333333333 0.7854166666666667 0.7572916666666667 0.684375 0.6677083333333333 0.6671875 0.6703125 0.69375 0.7505208333333333 0.7666666666666667 0.7791666666666667 0.7885416666666667 0.8015625 0.8333333333333334 0.8442708333333333 0.8526041666666667 0.8546875,0.7486111111111111 0.7409722222222221 0.7416666666666667 0.7416666666666667 0.7416666666666667 0.7416666666666667 0.7423611111111111 0.7555555555555555 0.7666666666666666 0.7777777777777778 0.7854166666666667 0.7916666666666666 0.79375 0.7951388888888888 0.7944444444444445 0.7944444444444445 0.7875 0.7819444444444444 0.7722222222222223 0.7576388888888889 0.7409722222222221 0.6868055555555556 0.6520833333333333 0.6194444444444445 0.575 0.5319444444444444 0.44166666666666665 0.3902777777777777 0.35416666666666663 0.3194444444444444 0.30347222222222225 0.27361111111111114 0.2659722222222223 0.2611111111111111 0.2576388888888889 0.2534722222222222 0.2395833333333333 0.2319444444444444 0.22291666666666665 0.2125 0.20208333333333328 0.19791666666666666 0.19652777777777766 0.1958333333333333 0.1923611111111111 0.18819444444444444 0.17708333333333334 0.17500000000000004 0.17361111111111116 0.17361111111111116 0.17500000000000004 0.18125 0.18125 0.18125 0.18333333333333326 0.18333333333333326 0.1777777777777778 0.17152777777777772 0.17152777777777772 0.17013888888888884 0.17013888888888884 0.1743055555555556 0.1805555555555556 0.18611111111111112 0.18958333333333333 0.19166666666666665 0.19166666666666665 0.19166666666666665 0.1923611111111111 0.1930555555555556,0.0 20.0 40.0 60.0 80.0 100.0 120.0 140.0 160.0 180.0 200.0 220.0 240.0 260.0 280.0 300.0 320.0 340.0 360.0 380.0 400.0 420.0 440.0 460.0 480.0 500.0 520.0 540.0 560.0 580.0 600.0 620.0 640.0 660.0 680.0 700.0 720.0 740.0 760.0 780.0 800.0 820.0 840.0 860.0 880.0 900.0 920.0 940.0 960.0 980.0 1000.0 1020.0 1040.0 1060.0 1080.0 1100.0 1120.0 1140.0 1160.0 1180.0 1200.0 1220.0 1240.0 1260.0 1280.0 1300.0 1320.0 1340.0 1360.0 1380.0
cb_01,40.0,enc_trial,stim,response,Miami trip,1325.8999999940281,enc_trial,1.0,40.0,t_s_20_2,travel_shared,fold-a,travel pill case,1.0,competing,close,paired,t_s_20_2.jpg,,travel-b1,Iceland trip,Miami trip,sub-92,1.0,1.0,0.0,1.0,0.5234375 0.5244791666666667 0.5244791666666667 0.5244791666666667 0.5244791666666667 0.525 0.525 0.5244791666666667 0.5260416666666666 0.5307291666666667 0.5364583333333334 0.5338541666666666 0.5322916666666667 0.5322916666666667 0.5359375 0.5364583333333334 0.5364583333333334 0.5359375 0.5354166666666667 0.534375 0.5333333333333333 0.5322916666666667 0.5322916666666667 0.5307291666666667 0.5302083333333333 0.5291666666666667 0.5291666666666667 0.5291666666666667 0.5291666666666667 0.5291666666666667 0.5302083333333333 0.5317708333333333 0.5328125 0.534375 0.534375 0.54375 0.5604166666666667 0.5770833333333333 0.596875 0.6260416666666667 0.7 0.7385416666666667 0.7739583333333333 0.8041666666666667 0.834375 0.8645833333333334 0.8692708333333333 0.8703125 0.8703125 0.8703125 0.8703125 0.871875 0.8729166666666667 0.8734375 0.8744791666666667 0.8744791666666667 0.8744791666666667 0.8744791666666667 0.8744791666666667 0.8744791666666667 0.8744791666666667 0.8739583333333333 0.8734375 0.8729166666666667 0.8729166666666667 0.8723958333333334,0.7083333333333333 0.7083333333333333 0.7083333333333333 0.7083333333333333 0.7083333333333333 0.7083333333333333 0.7097222222222221 0.7145833333333333 0.7201388888888889 0.7291666666666667 0.7444444444444445 0.7527777777777778 0.7583333333333333 0.7625 0.7652777777777777 0.7680555555555555 0.76875 0.76875 0.7680555555555555 0.7666666666666666 0.7618055555555556 0.75625 0.7520833333333333 0.74375 0.7361111111111112 0.7125 0.6986111111111111 0.6854166666666667 0.6743055555555555 0.6611111111111111 0.6319444444444444 0.6145833333333333 0.59375 0.5763888888888888 0.5555555555555556 0.5111111111111111 0.4729166666666666 0.4451388888888889 0.4180555555555555 0.3861111111111111 0.3125 0.27361111111111114 0.2402777777777778 0.2125 0.18333333333333326 0.15347222222222226 0.14861111111111114 0.1479166666666667 0.1479166666666667 0.1479166666666667 0.14722222222222225 0.1465277777777778 0.14583333333333334 0.14513888888888893 0.14513888888888893 0.14513888888888893 0.14513888888888893 0.14513888888888893 0.14513888888888893 0.14513888888888893 0.14513888888888893 0.1444444444444445 0.1444444444444445 0.1444444444444445 0.1444444444444445 0.1444444444444445,0.0 20.0 40.0 60.0 80.0 100.0 120.0 140.0 160.0 180.0 200.0 220.0 240.0 260.0 280.0 300.0 320.0 340.0 360.0 380.0 400.0 420.0 440.0 460.0 480.0 500.0 520.0 540.0 560.0 580.0 600.0 620.0 640.0 660.0 680.0 700.0 720.0 740.0 760.0 780.0 800.0 820.0 840.0 860.0 880.0 900.0 920.0 940.0 960.0 980.0 1000.0 1020.0 1040.0 1060.0 1080.0 1100.0 1120.0 1140.0 1160.0 1180.0 1200.0 1220.0 1240.0 1260.0 1280.0 1300.0
cb_01,41.0,enc_trial,stim,response,STEM students,1499.8999999761581,enc_trial,2.0,1.0,s_sh_24_1,student_shared,fold-b,desk organizer,1.0,competing,far,paired,s_sh_24_1.jpg,,student-b1,STEM students,Fine Arts students,sub-92,0.0,0.0,0.0,0.0,0.5223958333333333 0.5244791666666667 0.5171875 0.5052083333333334 0.4989583333333333 0.4989583333333333 0.4989583333333333 0.4989583333333333 0.4989583333333333 0.4989583333333333 0.4989583333333333 0.4989583333333333 0.4989583333333333 0.4989583333333333 0.4989583333333333 0.4989583333333333 0.4989583333333333 0.4989583333333333 0.4989583333333333 0.4989583333333333 0.4989583333333333 0.4989583333333333 0.4989583333333333 0.4989583333333333 0.5005208333333333 0.525 0.5479166666666667 0.5854166666666667 0.625 0.6614583333333334 0.7333333333333333 0.771875 0.8072916666666666 0.8395833333333333 0.8666666666666667 0.8786458333333333 0.8869791666666667 0.8869791666666667 0.8869791666666667 0.8869791666666667 0.8864583333333333 0.8697916666666666 0.8536458333333333 0.8213541666666667 0.7703125 0.7182291666666667 0.6161458333333333 0.5640625 0.5192708333333333 0.4713541666666667 0.4119791666666667 0.3171875 0.2640625 0.20989583333333334 0.1515625 0.06927083333333334 0.04895833333333333 0.04479166666666667 0.043229166666666666 0.043229166666666666 0.04375 0.04375 0.04375 0.04375 0.04375 0.04375 0.04375 0.04583333333333333 0.05520833333333333 0.0703125 0.09791666666666668 0.10520833333333332 0.10520833333333332,0.8131944444444444 0.8159722222222222 0.8256944444444445 0.8305555555555555 0.8319444444444444 0.8319444444444444 0.8319444444444444 0.8319444444444444 0.8319444444444444 0.8319444444444444 0.8319444444444444 0.8319444444444444 0.8319444444444444 0.8319444444444444 0.8319444444444444 0.8319444444444444 0.8319444444444444 0.8319444444444444 0.8319444444444444 0.8319444444444444 0.8319444444444444 0.8319444444444444 0.8319444444444444 0.8319444444444444 0.8222222222222222 0.78125 0.7423611111111111 0.68125 0.6145833333333333 0.5493055555555555 0.4256944444444445 0.3701388888888889 0.3298611111111112 0.2965277777777777 0.2673611111111112 0.2520833333333333 0.2395833333333333 0.2388888888888889 0.2368055555555556 0.2340277777777777 0.2284722222222222 0.21111111111111114 0.2048611111111112 0.20347222222222228 0.2048611111111112 0.2118055555555556 0.21458333333333326 0.20625000000000004 0.19513888888888886 0.1826388888888889 0.1659722222222222 0.1381944444444444 0.13124999999999998 0.1284722222222222 0.1284722222222222 0.1284722222222222 0.1284722222222222 0.12708333333333333 0.12708333333333333 0.12708333333333333 0.12708333333333333 0.12777777777777774 0.12777777777777774 0.12777777777777774 0.12777777777777774 0.12777777777777774 0.12777777777777774 0.1284722222222222 0.13263888888888886 0.14027777777777772 0.14722222222222225 0.14861111111111114 0.14930555555555558,53.099999999976724 73.09999999997672 93.09999999997672 113.09999999997672 133.09999999997672 153.0999999999767 173.0999999999767 193.0999999999766 213.0999999999766 233.0999999999766 253.0999999999766 273.0999999999766 293.0999999999766 313.0999999999766 333.0999999999766 353.09999999997666 373.09999999997666 393.09999999997666 413.09999999997666 433.09999999997666 453.09999999997666 473.0999999999766 493.0999999999766 513.0999999999766 533.0999999999766 553.0999999999766 573.0999999999765 593.0999999999765 613.0999999999765 633.0999999999765 653.0999999999765 673.0999999999765 693.0999999999765 713.0999999999765 733.0999999999765 753.0999999999765 773.0999999999765 793.0999999999765 813.0999999999765 833.0999999999765 853.0999999999765 873.0999999999764 893.0999999999764 913.0999999999764 933.0999999999764 953.0999999999764 973.0999999999764 993.0999999999764 1013.0999999999764 1033.0999999999763 1053.0999999999763 1073.0999999999763 1093.0999999999763 1113.0999999999763 1133.0999999999765 1153.0999999999765 1173.0999999999765 1193.0999999999765 1213.0999999999765 1233.0999999999765 1253.0999999999765 1273.0999999999765 1293.0999999999765 1313.0999999999765 1333.0999999999765 1353.0999999999765 1373.0999999999765 1393.0999999999765 1413.0999999999765 1433.0999999999765 1453.0999999999765 1473.0999999999765 1493.0999999999765
cb_01,42.0,enc_trial,stim,response,Fine Arts students,1022.2000000000116,enc_trial,2.0,2.0,s_sh_07_1,student_shared,fold-a,ruler,1.0,competing,close,paired,s_sh_07_1.jpg,,student-b1,STEM students,Fine Arts students,sub-92,1.0,1.0,1.0,0.0,0.49375 0.4958333333333334 0.4989583333333333 0.5020833333333333 0.5083333333333333 0.5223958333333333 0.53125 0.5395833333333333 0.5489583333333333 0.5588541666666667 0.5734375 0.6046875 0.6244791666666667 0.6442708333333333 0.6661458333333333 0.6869791666666667 0.7234375 0.7375 0.746875 0.7557291666666667 0.759375 0.7651041666666667 0.7692708333333333 0.775 0.7828125 0.8 0.8083333333333333 0.8140625 0.8208333333333333 0.8260416666666667 0.8302083333333333 0.8348958333333333 0.8354166666666667,0.8340277777777778 0.8277777777777777 0.8194444444444444 0.8083333333333333 0.7909722222222222 0.7486111111111111 0.7236111111111111 0.6923611111111111 0.6604166666666667 0.6208333333333333 0.5805555555555555 0.4930555555555556 0.4513888888888888 0.4041666666666667 0.35416666666666663 0.3083333333333333 0.2388888888888889 0.21736111111111112 0.20347222222222228 0.19375 0.1923611111111111 0.1902777777777777 0.18888888888888888 0.1868055555555556 0.1826388888888889 0.17638888888888893 0.1743055555555556 0.17291666666666672 0.17083333333333328 0.16874999999999996 0.16736111111111107 0.16666666666666666 0.16666666666666666,263.6000000000349 283.60000000003487 303.60000000003487 323.60000000003487 343.60000000003487 363.60000000003487 383.60000000003487 403.60000000003487 423.60000000003487 443.60000000003487 463.60000000003487 483.60000000003487 503.60000000003487 523.6000000000348 543.6000000000348 563.6000000000348 583.6000000000348 603.6000000000348 623.6000000000348 643.6000000000348 663.6000000000348 683.6000000000348 703.6000000000349 723.6000000000349 743.6000000000349 763.6000000000349 783.6000000000349 803.6000000000349 823.6000000000349 843.6000000000349 863.6000000000349 883.6000000000349 903.6000000000348
cb_01,43.0,enc_trial,stim,response,Fine Arts students,1212.1999999940165,enc_trial,2.0,3.0,s_sh_04_1,student_shared,fold-c-single,laptop stand,1.0,competing,,single,s_sh_04_1.jpg,,student-b1,STEM students,Fine Arts students,sub-92,1.0,,1.0,,0.5067708333333333 0.5072916666666667 0.5078125 0.5078125 0.5083333333333333 0.5088541666666667 0.509375 0.5104166666666666 0.5114583333333333 0.5125 0.5135416666666667 0.521875 0.5286458333333334 0.5364583333333334 0.54375 0.5697916666666667 0.5802083333333333 0.5895833333333333 0.5953125 0.6005208333333333 0.6161458333333333 0.6317708333333333 0.6526041666666667 0.6828125 0.7161458333333334 0.7911458333333333 0.8213541666666667 0.85 0.8625 0.8713541666666667 0.8765625 0.8791666666666667,0.7986111111111112 0.7958333333333334 0.7923611111111111 0.7888888888888889 0.7861111111111111 0.7819444444444444 0.7590277777777777 0.7347222222222223 0.7034722222222223 0.6645833333333333 0.6201388888888889 0.54375 0.5152777777777777 0.4909722222222223 0.4701388888888889 0.4201388888888888 0.4006944444444445 0.3854166666666666 0.375 0.3673611111111112 0.34097222222222223 0.3215277777777777 0.3006944444444445 0.2756944444444445 0.2548611111111111 0.22013888888888888 0.2090277777777778 0.2006944444444444 0.19791666666666666 0.1972222222222222 0.1958333333333333 0.1958333333333333,530.2999999999884 550.2999999999884 570.2999999999884 590.2999999999884 610.2999999999884 630.2999999999884 650.2999999999884 670.2999999999884 690.2999999999884 710.2999999999884 730.2999999999884 750.2999999999884 770.2999999999884 790.2999999999884 810.2999999999884 830.2999999999884 850.2999999999884 870.2999999999884 890.2999999999884 910.2999999999884 930.2999999999884 950.2999999999884 970.2999999999884 990.2999999999884 1010.2999999999884 1030.2999999999884 1050.2999999999884 1070.2999999999884 1090.2999999999884 1110.2999999999884 1130.2999999999886 1150.2999999999886
cb_01,44.0,enc_trial,stim,response,STEM students,1096.9999999999418,enc_trial,2.0,4.0,s_s_10_1,student_stem,fold-c-single,3d molecule,1.0,unique,,single,s_s_10_1.jpg,stem,student-b1,STEM students,Fine Arts students,sub-92,1.0,,1.0,,0.5067708333333333 0.5057291666666667 0.50625 0.5083333333333333 0.509375 0.5104166666666666 0.5114583333333333 0.5130208333333334 0.5135416666666667 0.5140625 0.5171875 0.5192708333333333 0.5197916666666667 0.521875 0.5223958333333333 0.528125 0.5286458333333334 0.5286458333333334 0.51875 0.5010416666666667 0.4541666666666666 0.42604166666666665 0.4 0.37083333333333335 0.3375 0.26875 0.23125 0.19791666666666666 0.16875 0.14166666666666666 0.11145833333333334 0.103125 0.09635416666666667 0.09270833333333334 0.0890625 0.08854166666666667,0.83125 0.8270833333333334 0.8222222222222222 0.8159722222222222 0.8118055555555556 0.8055555555555556 0.8020833333333334 0.7993055555555555 0.7972222222222223 0.7951388888888888 0.7847222222222222 0.7770833333333333 0.7659722222222223 0.7548611111111111 0.7402777777777778 0.7111111111111111 0.6895833333333333 0.6708333333333334 0.6409722222222223 0.6104166666666666 0.5479166666666666 0.5131944444444445 0.4784722222222222 0.4395833333333333 0.39375 0.3104166666666667 0.2756944444444445 0.2465277777777778 0.2215277777777777 0.2006944444444444 0.17708333333333334 0.1680555555555555 0.1611111111111111 0.15694444444444444 0.1527777777777778 0.1513888888888889,247.0 267.0 287.0 307.0 327.0 347.0 367.0 387.0 407.0 427.0 447.0 467.0 487.0 507.0 527.0 547.0 567.0 587.0 607.0 627.0 647.0 667.0 687.0 707.0 727.0 747.0 767.0 787.0 807.0 827.0 847.0 867.0 887.0 907.0 927.0 947.0
cb_01,45.0,enc_trial,stim,response,Fine Arts students,1066.0999999940395,enc_trial,2.0,5.0,s_a_05_1,student_art,fold-c-single,clay,1.0,unique,,single,s_a_05_1.jpg,art,student-b1,STEM students,Fine Arts students,sub-92,1.0,,1.0,,0.4921875 0.4911458333333333 0.4921875 0.4932291666666666 0.4942708333333333 0.4963541666666666 0.5072916666666667 0.5145833333333333 0.5213541666666667 0.53125 0.5583333333333333 0.5739583333333333 0.5916666666666667 0.6104166666666667 0.63125 0.6510416666666666 0.6958333333333333 0.7072916666666667 0.715625 0.7270833333333333 0.7536458333333333 0.7682291666666666 0.7942708333333334 0.8244791666666667 0.8609375 0.9171875 0.9296875 0.9302083333333332,0.8375 0.8180555555555555 0.7916666666666666 0.7673611111111112 0.7409722222222221 0.7159722222222222 0.6604166666666667 0.6333333333333333 0.6069444444444445 0.5770833333333334 0.5152777777777777 0.4819444444444444 0.4541666666666667 0.4263888888888889 0.3972222222222223 0.37083333333333335 0.30972222222222223 0.2902777777777777 0.2715277777777778 0.2486111111111111 0.2215277777777777 0.2118055555555556 0.1993055555555555 0.1868055555555556 0.1743055555555556 0.16041666666666665 0.16041666666666665 0.16041666666666665,507.7000000000117 527.7000000000116 547.7000000000116 567.7000000000115 587.7000000000114 607.7000000000114 627.7000000000114 647.7000000000112 667.7000000000112 687.7000000000113 707.7000000000113 727.7000000000112 747.700000000011 767.700000000011 787.700000000011 807.7000000000107 827.7000000000107 847.7000000000107 867.7000000000107 887.7000000000107 907.7000000000104 927.7000000000104 947.7000000000104 967.7000000000104 987.7000000000104 1007.7000000000104 1027.7000000000103 1047.7000000000098
cb_01,46.0,enc_trial,stim,response,Fine Arts students,1187.399999976158,enc_trial,2.0,6.0,s_a_10_1,student_art,fold-a,tripod,1.0,unique,close,paired,s_a_10_1.jpg,art,student-b1,STEM students,Fine Arts students,sub-92,1.0,1.0,1.0,1.0,0.4979166666666667 0.4932291666666666 0.4890625 0.4859375 0.4854166666666666 0.4854166666666666 0.4822916666666667 0.4770833333333334 0.4666666666666667 0.4583333333333333 0.4427083333333333 0.3979166666666665 0.36875 0.3385416666666667 0.3114583333333333 0.28958333333333336 0.2630208333333333 0.2557291666666667 0.25416666666666665 0.2546875 0.2880208333333333 0.3317708333333333 0.3807291666666667 0.4505208333333333 0.5151041666666667 0.6567708333333333 0.7182291666666667 0.7703125 0.8182291666666667 0.8484375 0.8682291666666667 0.8692708333333333 0.8692708333333333 0.8692708333333333 0.8697916666666666 0.8697916666666666,0.8041666666666667 0.8006944444444444 0.7951388888888888 0.7826388888888889 0.7541666666666667 0.6805555555555556 0.6402777777777777 0.6013888888888889 0.5597222222222222 0.5291666666666667 0.4986111111111111 0.43333333333333335 0.4 0.3625 0.3277777777777777 0.2986111111111112 0.25416666666666665 0.2340277777777777 0.2215277777777777 0.20347222222222228 0.1756944444444445 0.16180555555555556 0.15486111111111112 0.15069444444444444 0.1465277777777778 0.13541666666666666 0.1284722222222222 0.12430555555555554 0.12291666666666667 0.12291666666666667 0.12430555555555554 0.12430555555555554 0.12430555555555554 0.12430555555555554 0.125 0.12569444444444444,447.0 467.0 487.0 507.0 527.0 547.0 567.0 587.0 607.0 627.0 647.0 667.0 687.0 707.0 727.0 747.0 767.0 787.0 807.0 827.0 847.0 867.0 887.0 907.0 927.0 947.0 967.0 987.0 1007.0 1027.0 1047.0 1067.0 1087.0 1107.0 1127.0 1147.0
cb_01,47.0,enc_trial,stim,response,Fine Arts students,1514.49999998213,enc_trial,2.0,7.0,s_sh_14_1,student_shared,fold-b,printer,1.0,competing,far,paired,s_sh_14_1.jpg,,student-b1,STEM students,Fine Arts students,sub-92,1.0,1.0,1.0,1.0,0.5010416666666667 0.5010416666666667 0.5010416666666667 0.5010416666666667 0.5010416666666667 0.5010416666666667 0.5010416666666667 0.5010416666666667 0.5010416666666667 0.5010416666666667 0.5083333333333333 0.5364583333333334 0.5510416666666667 0.5697916666666667 0.5885416666666666 0.6125 0.66875 0.690625 0.7130208333333333 0.7291666666666666 0.7416666666666667 0.7546875 0.7552083333333334 0.7536458333333333 0.7442708333333333 0.7302083333333333 0.7067708333333333 0.7067708333333333 0.7067708333333333 0.7067708333333333 0.7067708333333333 0.703125 0.6994791666666667 0.6989583333333333 0.6989583333333333 0.7119791666666667 0.7270833333333333 0.75 0.7765625 0.8057291666666667 0.8505208333333333 0.8635416666666667 0.8703125 0.8723958333333334 0.8739583333333333 0.8760416666666667 0.8770833333333333 0.8786458333333333 0.8791666666666667 0.8791666666666667 0.8791666666666667 0.8791666666666667 0.8791666666666667 0.8786458333333333 0.8786458333333333 0.8770833333333333 0.8760416666666667 0.8744791666666667 0.8734375,0.8055555555555556 0.7958333333333334 0.7826388888888889 0.7652777777777777 0.7451388888888889 0.71875 0.6590277777777778 0.6243055555555556 0.5854166666666667 0.5395833333333333 0.4979166666666667 0.41875 0.3916666666666667 0.3625 0.3375 0.3083333333333333 0.2458333333333333 0.21944444444444444 0.1972222222222222 0.1840277777777778 0.17152777777777772 0.1597222222222222 0.1597222222222222 0.15763888888888888 0.15555555555555556 0.15555555555555556 0.1527777777777778 0.15208333333333335 0.15208333333333335 0.15208333333333335 0.15208333333333335 0.15208333333333335 0.15208333333333335 0.1527777777777778 0.1513888888888889 0.14236111111111116 0.13888888888888884 0.13888888888888884 0.13888888888888884 0.14027777777777772 0.15347222222222226 0.16041666666666665 0.16388888888888886 0.16527777777777775 0.1659722222222222 0.1680555555555555 0.16874999999999996 0.1694444444444444 0.1694444444444444 0.1694444444444444 0.1694444444444444 0.1694444444444444 0.1694444444444444 0.1694444444444444 0.16874999999999996 0.1680555555555555 0.16736111111111107 0.16666666666666666 0.16666666666666666,330.20000000001164 350.2000000000116 370.2000000000117 390.2000000000117 410.2000000000117 430.2000000000117 450.2000000000117 470.2000000000117 490.2000000000117 510.2000000000117 530.2000000000116 550.2000000000116 570.2000000000116 590.2000000000116 610.2000000000116 630.2000000000116 650.2000000000116 670.2000000000116 690.2000000000116 710.2000000000116 730.2000000000116 750.2000000000116 770.2000000000116 790.2000000000116 810.2000000000116 830.2000000000116 850.2000000000116 870.2000000000116 890.2000000000116 910.2000000000116 930.2000000000116 950.2000000000116 970.2000000000116 990.2000000000116 1010.2000000000116 1030.2000000000116 1050.2000000000116 1070.2000000000116 1090.2000000000116 1110.2000000000116 1130.2000000000114 1150.2000000000114 1170.2000000000114 1190.2000000000114 1210.2000000000114 1230.2000000000114 1250.2000000000114 1270.2000000000114 1290.2000000000114 1310.2000000000114 1330.2000000000114 1350.2000000000114 1370.2000000000114 1390.2000000000116 1410.2000000000116 1430.2000000000116 1450.2000000000116 1470.2000000000116 1490.2000000000116
