Current Spreadsheet,Trial Number,Display,Screen,Response Type,Response,Reaction Time,display,block,block_trial,stimulus_id,expected_goal,fold,stimulus_name,c_group,condition,within_block_dist,paired_status,stimulus_path,expected_location,block_split,respStim_1,respStim_2,sub_label,acc,both_enc_acc,assoc_stim1_acc,assoc_stim2_acc,x_pos,y_pos,time_trajectories
cb_07,1.0,enc_trial,stim,response,Iceland trip,1332.9000000000087,enc_trial,1.0,1.0,t_s_02_1,travel_shared,fold-b,water bottle,7.0,competing,far,paired,t_s_02_1.jpg,,travel-b1,Iceland trip,Miami trip,sub-93,1.0,1.0,0.0,1.0,0.4915625 0.4915625 0.4925 0.4925 0.4925 0.4925 0.4925 0.4925 0.4925 0.4915625 0.4915625 0.4925 0.5 0.5496875 0.603125 0.6546875 0.72125 0.745625 0.7625 0.764375 0.764375 0.764375 0.764375 0.764375 0.764375 0.764375 0.764375 0.764375 0.768125 0.771875 0.7915625 0.7999999999999999 0.809375 0.81125 0.8056249999999999 0.7896875 0.7709374999999999 0.76625 0.7690625 0.7793749999999999 0.7934375 0.8206249999999999 0.8253125 0.828125 0.828125 0.7943749999999999 0.711875 0.5975 0.366875 0.291875 0.23375 0.224375 0.21875000000000008 0.2159375000000001 0.20843750000000005 0.19531250000000008 0.186875 0.18125 0.17187500000000006 0.16718750000000002 0.16625000000000004 0.16531250000000006,0.82625 0.825 0.825 0.8225 0.82125 0.8200000000000001 0.8200000000000001 0.81875 0.815 0.80875 0.795 0.775 0.7475 0.6325000000000001 0.53375 0.4475 0.34125000000000005 0.30625 0.2825 0.28 0.28 0.28 0.28 0.28 0.28 0.28 0.27875000000000005 0.2775 0.2725 0.2675 0.25 0.24125 0.23375 0.23125 0.23125 0.23 0.22124999999999995 0.21750000000000005 0.2075 0.19875 0.18999999999999995 0.17500000000000004 0.17125 0.17000000000000004 0.17000000000000004 0.17125 0.16749999999999998 0.16000000000000006 0.14249999999999996 0.14 0.14375000000000004 0.14749999999999994 0.15249999999999994 0.15249999999999994 0.15249999999999994 0.15625 0.15625 0.15500000000000005 0.15249999999999994 0.14875000000000005 0.14875000000000005 0.14749999999999994,116.19999999999708 136.1999999999971 156.1999999999971 176.19999999999715 196.19999999999715 216.19999999999715 236.19999999999715 256.1999999999972 276.1999999999972 296.1999999999972 316.1999999999972 336.19999999999726 356.19999999999726 376.19999999999726 396.1999999999973 416.1999999999973 436.1999999999973 456.1999999999973 476.1999999999973 496.19999999999743 516.1999999999973 536.1999999999973 556.1999999999974 576.1999999999974 596.1999999999974 616.1999999999974 636.1999999999974 656.1999999999974 676.1999999999974 696.1999999999975 716.1999999999975 736.1999999999975 756.1999999999975 776.1999999999975 796.1999999999975 816.1999999999975 836.1999999999975 856.1999999999977 876.1999999999977 896.1999999999977 916.1999999999975 936.1999999999975 956.1999999999975 976.1999999999975 996.1999999999977 1016.1999999999977 1036.1999999999978 1056.1999999999978 1076.1999999999978 1096.1999999999978 1116.1999999999978 1136.1999999999978 1156.1999999999978 1176.1999999999978 1196.1999999999978 1216.1999999999978 1236.199999999998 1256.199999999998 1276.199999999998 1296.199999999998 1316.199999999998 1336.199999999998
cb_07,2.0,enc_trial,stim,response,Iceland trip,1512.1000000059576,enc_trial,1.0,2.0,t_s_18_1,travel_shared,fold-a,first aid kit,7.0,competing,close,paired,t_s_18_1.jpg,,travel-b1,Iceland trip,Miami trip,sub-93,1.0,1.0,0.0,0.0,0.494375 0.505625 0.515 0.5290625 0.539375 0.584375 0.603125 0.6246875 0.6331249999999999 0.636875 0.6425 0.648125 0.6546875 0.6575 0.66125 0.665 0.665 0.665 0.665 0.665 0.665 0.665 0.665 0.665 0.665 0.665 0.665 0.665 0.681875 0.69875 0.734375 0.745625 0.7531249999999999 0.75875 0.7596875 0.7596875 0.75875 0.755 0.7324999999999999 0.63125 0.5290625 0.30875 0.23375 0.16062500000000002 0.13250000000000006 0.12406250000000002 0.11375000000000005 0.11093750000000002 0.10718750000000003 0.10531250000000003 0.10250000000000002 0.10062500000000003 0.09875000000000003,0.815 0.79 0.76875 0.725 0.6975 0.6112500000000001 0.575 0.5325 0.5175000000000001 0.51 0.4975000000000001 0.485 0.465 0.45 0.4350000000000001 0.425 0.415 0.415 0.415 0.415 0.415 0.415 0.415 0.415 0.415 0.415 0.415 0.415 0.3775 0.34750000000000003 0.2925 0.275 0.265 0.26125 0.26 0.26 0.26 0.25875000000000004 0.25749999999999995 0.24625 0.2275000000000001 0.17125 0.14625 0.12250000000000005 0.11750000000000005 0.115 0.115 0.115 0.115 0.115 0.11250000000000004 0.11124999999999996 0.11124999999999996,466.3000000000029 486.3000000000029 506.3000000000029 526.3000000000029 546.3000000000029 566.3000000000029 586.3000000000029 606.3000000000029 626.3000000000029 646.3000000000029 666.3000000000029 686.3000000000029 706.3000000000029 726.3000000000029 746.3000000000029 766.3000000000029 786.3000000000029 806.3000000000029 826.3000000000029 846.3000000000029 866.3000000000029 886.3000000000029 906.3000000000028 926.3000000000028 946.3000000000028 966.3000000000028 986.3000000000028 1006.3000000000028 1026.3000000000031 1046.3000000000031 1066.3000000000031 1086.3000000000031 1106.3000000000031 1126.3000000000031 1146.3000000000031 1166.3000000000031 1186.3000000000031 1206.3000000000031 1226.3000000000031 1246.3000000000031 1266.3000000000031 1286.3000000000031 1306.3000000000031 1326.3000000000031 1346.3000000000031 1366.3000000000031 1386.3000000000031 1406.3000000000031 1426.3000000000031 1446.3000000000031 1466.3000000000031 1486.3000000000031 1506.3000000000031
cb_07,3.0,enc_trial,stim,response,Iceland trip,1586.2999999940366,enc_trial,1.0,3.0,t_s_06_1,travel_shared,fold-b,luggage,7.0,competing,far,paired,t_s_06_1.jpg,,travel-b1,Iceland trip,Miami trip,sub-93,1.0,1.0,0.0,0.0,0.509375 0.505625 0.5028125 0.498125 0.49625 0.49625 0.49625 0.49625 0.49625 0.49625 0.49625 0.49625 0.49625 0.49625 0.49625 0.49625 0.49625 0.49625 0.49625 0.49625 0.49625 0.51125 0.545 0.565625 0.5759375 0.57875 0.57875 0.5778125 0.5759375 0.5759375 0.576875 0.5825 0.5928125 0.6509375 0.6809375 0.7474999999999999 0.7671875 0.786875 0.7999999999999999 0.813125 0.8206249999999999 0.824375 0.828125 0.831875 0.835625 0.835625 0.835625 0.835625 0.83375 0.83375 0.8309375 0.824375 0.7990625 0.730625 0.6575 0.4896875 0.423125 0.30312500000000003 0.2093750000000001 0.14468750000000002 0.11562500000000005 0.10250000000000002 0.09312500000000004 0.08750000000000004 0.08375000000000002 0.08093750000000002 0.08000000000000003 0.07906250000000004 0.07812500000000003 0.07906250000000004 0.08375000000000002 0.08656250000000003 0.09312500000000004 0.10812500000000004 0.11468750000000005 0.11656250000000005,0.8075 0.7825 0.75875 0.72875 0.7224999999999999 0.72 0.72 0.72 0.72 0.72 0.72 0.72 0.72 0.72 0.72 0.72 0.72 0.72 0.72 0.72 0.72 0.69 0.6325000000000001 0.6025 0.5875 0.5825 0.5800000000000001 0.58125 0.5825 0.5825 0.57375 0.5625 0.5475 0.4775 0.445 0.37875 0.35625 0.33125000000000004 0.3125 0.29875 0.28625 0.2825 0.27125 0.26125 0.25 0.24 0.23375 0.22875 0.225 0.225 0.22 0.21625000000000005 0.21 0.215 0.23375 0.25249999999999995 0.24250000000000005 0.18625000000000005 0.11 0.03374999999999995 0.0012499999999999734 0.0012499999999999734 0.0012499999999999734 0.007499999999999951 0.015000000000000013 0.02375000000000005 0.03125 0.03500000000000003 0.05000000000000005 0.06000000000000005 0.08250000000000003 0.08999999999999997 0.10124999999999997 0.115 0.11624999999999995 0.11750000000000005,91.59999999999128 111.59999999999128 131.5999999999913 151.5999999999913 171.5999999999913 191.59999999999127 211.59999999999127 231.59999999999127 251.59999999999127 271.59999999999127 291.59999999999127 311.59999999999127 331.59999999999127 351.5999999999912 371.5999999999912 391.5999999999912 411.5999999999912 431.5999999999912 451.5999999999912 471.5999999999912 491.5999999999912 511.5999999999912 531.5999999999913 551.5999999999913 571.5999999999913 591.5999999999913 611.5999999999913 631.5999999999913 651.5999999999913 671.5999999999913 691.5999999999913 711.5999999999913 731.5999999999913 751.5999999999913 771.5999999999913 791.5999999999913 811.5999999999913 831.5999999999913 851.5999999999913 871.5999999999913 891.5999999999913 911.5999999999913 931.5999999999913 951.5999999999913 971.5999999999913 991.5999999999913 1011.5999999999913 1031.5999999999913 1051.5999999999913 1071.5999999999913 1091.5999999999913 1111.5999999999913 1131.5999999999913 1151.5999999999913 1171.5999999999913 1191.5999999999913 1211.5999999999913 1231.5999999999913 1251.5999999999913 1271.5999999999913 1291.5999999999913 1311.5999999999913 1331.5999999999913 1351.5999999999913 1371.5999999999913 1391.599999999991 1411.599999999991 1431.599999999991 1451.599999999991 1471.599999999991 1491.599999999991 1511.599999999991 1531.599999999991 1551.599999999991 1571.599999999991 1591.599999999991
cb_07,4.0,enc_trial,stim,response,Iceland trip,1156.5000000059665,enc_trial,1.0,4.0,t_i_11_2,travel_Iceland,fold-d,headlamp,7.0,unique,far,paired,t_i_11_2.jpg,Iceland,travel-b1,Iceland trip,Miami trip,sub-93,1.0,1.0,1.0,1.0,0.5234375 0.531875 0.5384375 0.539375 0.528125 0.45875 0.32375000000000004 0.2234375 0.16437500000000002 0.13906250000000006 0.13250000000000006 0.12500000000000006 0.12406250000000002 0.12312500000000005 0.12125000000000002 0.12125000000000002 0.12125000000000002 0.12125000000000002 0.12312500000000005 0.12406250000000002 0.12125000000000002 0.11843750000000006 0.11750000000000002 0.11656250000000005 0.11750000000000002 0.11937500000000002,0.7925 0.775 0.76125 0.745 0.735 0.685 0.5900000000000001 0.51 0.445 0.40125 0.38 0.35750000000000004 0.355 0.35 0.35 0.34875 0.34750000000000003 0.345 0.31000000000000005 0.275 0.215 0.1975 0.18625000000000005 0.1825 0.18125 0.1775,649.6000000000057 669.6000000000057 689.6000000000058 709.6000000000058 729.6000000000058 749.6000000000058 769.6000000000058 789.6000000000058 809.6000000000058 829.6000000000058 849.6000000000058 869.6000000000058 889.6000000000058 909.6000000000056 929.6000000000056 949.6000000000056 969.6000000000056 989.6000000000056 1009.6000000000056 1029.6000000000058 1049.6000000000058 1069.6000000000058 1089.6000000000058 1109.6000000000058 1129.6000000000058 1149.6000000000058
cb_07,5.0,enc_trial,stim,response,Miami trip,1340.0,enc_trial,1.0,5.0,t_s_18_2,travel_shared,fold-a,first aid kit,7.0,competing,close,paired,t_s_18_2.jpg,,travel-b1,Iceland trip,Miami trip,sub-93,1.0,1.0,0.0,0.0,0.4915625 0.4821875 0.4784375 0.47375 0.4728125 0.471875 0.471875 0.47 0.47 0.4728125 0.5225 0.5590625 0.5975 0.6621875 0.69875 0.723125 0.730625 0.7324999999999999 0.72875 0.670625 0.5534375 0.47 0.415625 0.348125 0.32375000000000004 0.295625 0.288125 0.280625 0.27125 0.265625 0.25343750000000004 0.2478125 0.2421875000000001 0.2393750000000001 0.2375 0.2356250000000001 0.23375 0.23375 0.24125 0.2853125 0.355625 0.558125 0.65 0.7653125 0.786875 0.80375 0.809375 0.8140625 0.8234374999999999 0.828125 0.8365625 0.843125 0.850625 0.8524999999999999,0.81375 0.77125 0.745 0.725 0.71875 0.7112499999999999 0.7075 0.7050000000000001 0.6925 0.6699999999999999 0.52125 0.44 0.375 0.28374999999999995 0.25249999999999995 0.235 0.23125 0.23 0.23 0.23750000000000004 0.24 0.23125 0.2225000000000001 0.21 0.2075 0.2075 0.2075 0.2075 0.21 0.21 0.21125000000000005 0.21125000000000005 0.21 0.21 0.2075 0.20625000000000004 0.205 0.205 0.205 0.2 0.19375 0.15874999999999995 0.14249999999999996 0.11750000000000005 0.11375000000000005 0.11124999999999996 0.11124999999999996 0.11124999999999996 0.11375000000000005 0.11375000000000005 0.115 0.11750000000000005 0.12 0.12124999999999996,283.5 303.5 323.5 343.5 363.5 383.5 403.5 423.5 443.5 463.5 483.5 503.5 523.5 543.5 563.5 583.5 603.5 623.5 643.5 663.5 683.5 703.5 723.5 743.5 763.5 783.5 803.5 823.5 843.5 863.5 883.5 903.5 923.5 943.5 963.5 983.5 1003.5 1023.5 1043.5 1063.5 1083.5 1103.5 1123.5 1143.5 1163.5 1183.5 1203.5 1223.5 1243.5 1263.5 1283.5 1303.5 1323.5 1343.5
cb_07,6.0,enc_trial,stim,response,Miami trip,1077.3999999940424,enc_trial,1.0,6.0,t_m_10_1,travel_Miami,fold-e-single,tanktop,7.0,unique,,single,t_m_10_1.jpg,Miami,travel-b1,Iceland trip,Miami trip,sub-93,1.0,,1.0,,0.49625 0.51875 0.5534375 0.60125 0.6209375 0.6284375 0.629375 0.629375 0.6284375 0.62375 0.6171875 0.610625 0.603125 0.591875 0.58625 0.5890625 0.599375 0.62 0.665 0.681875 0.7053125 0.7146875 0.72875 0.7371875 0.745625 0.75125 0.756875 0.7615625 0.783125 0.79625 0.81875 0.8403125 0.854375 0.8665625,0.815 0.7675 0.7 0.61 0.575 0.5587500000000001 0.5549999999999999 0.55375 0.5525 0.5449999999999999 0.52125 0.47875 0.43625 0.38 0.36 0.3275 0.31125 0.2975 0.28 0.2775 0.275 0.27 0.2625 0.25249999999999995 0.23750000000000004 0.2275000000000001 0.2225000000000001 0.2225000000000001 0.21375 0.20375 0.18375 0.15749999999999995 0.13624999999999998 0.12124999999999996,416.5 436.5 456.5 476.5 496.5 516.5 536.5 556.5 576.5 596.5 616.5 636.5 656.5 676.5 696.5 716.5 736.5 756.5 776.5 796.5 816.5 836.5 856.5 876.5 896.5 916.5 936.5 956.5 976.5 996.5 1016.5 1036.5 1056.5 1076.5
cb_07,7.0,enc_trial,stim,response,Miami trip,1677.1999999821128,enc_trial,1.0,7.0,t_s_21_1,travel_shared,fold-b,umbrella,7.0,competing,far,paired,t_s_21_1.jpg,,travel-b1,Iceland trip,Miami trip,sub-93,0.0,0.0,1.0,1.0,0.4990625 0.4934375 0.4925 0.5075 0.5159375 0.528125 0.546875 0.5684375 0.5909375 0.6096874999999999 0.614375 0.618125 0.618125 0.621875 0.6275 0.644375 0.6537499999999999 0.6593749999999999 0.663125 0.663125 0.6509375 0.640625 0.629375 0.5984375 0.584375 0.5590625 0.5196875 0.415625 0.30875 0.25343750000000004 0.23187500000000005 0.215 0.213125 0.21218750000000008 0.21218750000000008 0.21218750000000008 0.21125 0.21125 0.2093750000000001 0.2093750000000001 0.2046875 0.2009375 0.198125 0.19625 0.2046875 0.25062500000000004 0.389375 0.565625 0.7034374999999999 0.785 0.8178124999999999 0.839375 0.843125 0.8459375 0.8468749999999999 0.8478125 0.84875 0.84875 0.84875 0.8478125 0.8421875 0.8412499999999999 0.8412499999999999,0.79875 0.7375 0.685 0.52125 0.48 0.445 0.4225 0.4075 0.395 0.385 0.3825 0.38 0.38 0.37625 0.365 0.335 0.3225 0.3125 0.3025 0.29875 0.2925 0.28500000000000003 0.27875000000000005 0.24750000000000005 0.23750000000000004 0.2275000000000001 0.22375 0.21 0.2 0.1975 0.2025 0.2075 0.21 0.21125000000000005 0.21125000000000005 0.21125000000000005 0.21125000000000005 0.21125000000000005 0.20875 0.2075 0.2 0.1925 0.18875 0.18500000000000005 0.18625000000000005 0.2 0.23 0.25375000000000003 0.2625 0.2625 0.26125 0.255 0.25 0.23625 0.23 0.225 0.2225000000000001 0.2225000000000001 0.21875 0.2125 0.1912500000000001 0.1825 0.17500000000000004,433.0 453.0 473.0 493.0 513.0 533.0 553.0 573.0 593.0 613.0 633.0 653.0 673.0 693.0 713.0 733.0 753.0 773.0 793.0 813.0 833.0 853.0 873.0 893.0 913.0 933.0 953.0 973.0 993.0 1013.0 1033.0 1053.0 1073.0 1093.0 1113.0 1133.0 1153.0 1173.0 1193.0 1213.0 1233.0 1253.0 1273.0 1293.0 1313.0 1333.0 1353.0 1373.0 1393.0 1413.0 1433.0 1453.0 1473.0 1493.0 1513.0 1533.0 1553.0 1573.0 1593.0 1613.0 1633.0 1653.0 1673.0
cb_07,8.0,enc_trial,stim,response,Miami trip,1271.999999988082,enc_trial,1.0,8.0,t_m_06_2,travel_Miami,fold-c,handheld fan,7.0,unique,close,paired,t_m_06_2.jpg,Miami,travel-b1,Iceland trip,Miami trip,sub-93,1.0,1.0,1.0,1.0,0.531875 0.573125 0.62 0.6715625 0.6921875 0.7278125 0.741875 0.75875 0.76625 0.76625 0.76625 0.76625 0.76625 0.76625 0.76625 0.76625 0.76625 0.76625 0.783125 0.81875 0.845 0.8590625 0.861875 0.8628125 0.8628125 0.861875 0.8609375 0.8609375 0.861875,0.775 0.7224999999999999 0.6599999999999999 0.575 0.525 0.44 0.4125 0.38375 0.37 0.36625 0.36625 0.36625 0.36625 0.36625 0.36625 0.36625 0.36625 0.36625 0.34125000000000005 0.28 0.225 0.19375 0.18625000000000005 0.1825 0.1825 0.1825 0.18125 0.1775 0.1725,699.6000000000058 719.6000000000058 739.6000000000058 759.6000000000058 779.6000000000058 799.6000000000058 819.6000000000058 839.6000000000058 859.6000000000058 879.6000000000058 899.6000000000058 919.6000000000058 939.6000000000058 959.6000000000058 979.6000000000058 999.6000000000058 1019.6000000000058 1039.6000000000058 1059.6000000000058 1079.6000000000058 1099.6000000000058 1119.6000000000058 1139.6000000000058 1159.6000000000058 1179.6000000000058 1199.6000000000058 1219.6000000000058 1239.6000000000058 1259.6000000000058
cb_07,9.0,enc_trial,stim,response,Iceland trip,1103.0999999940395,enc_trial,1.0,9.0,t_s_22_1,travel_shared,fold-a,belt,7.0,competing,close,paired,t_s_22_1.jpg,,travel-b1,Iceland trip,Miami trip,sub-93,1.0,1.0,0.0,0.0,0.494375 0.5009375 0.5178125 0.535625 0.5459375 0.5599999999999999 0.561875 0.561875 0.5599999999999999 0.5599999999999999 0.5599999999999999 0.5599999999999999 0.5599999999999999 0.5599999999999999 0.5599999999999999 0.5599999999999999 0.5599999999999999 0.5599999999999999 0.5599999999999999 0.5599999999999999 0.5599999999999999 0.5599999999999999 0.5599999999999999 0.5599999999999999 0.5599999999999999 0.5599999999999999 0.5599999999999999 0.5599999999999999 0.5599999999999999 0.5346875 0.45875 0.396875 0.3321875 0.30031250000000004 0.28625 0.27875 0.27875 0.27875 0.27875 0.27875 0.27875 0.27875 0.27875 0.27875 0.27875 0.27875 0.27875 0.27875 0.2403125 0.2065625 0.17937500000000006 0.16718750000000002 0.16437500000000002 0.16062500000000002 0.15875000000000006 0.15875000000000006,0.79375 0.7775 0.73375 0.68125 0.655 0.62 0.61375 0.61375 0.61625 0.61625 0.61625 0.61625 0.61625 0.61625 0.61625 0.61625 0.61625 0.61625 0.61625 0.61625 0.61625 0.61625 0.61625 0.61625 0.61625 0.61625 0.61625 0.61625 0.61625 0.5662499999999999 0.45625 0.38 0.29875 0.2625 0.25 0.24750000000000005 0.24750000000000005 0.24750000000000005 0.24750000000000005 0.24750000000000005 0.24750000000000005 0.24750000000000005 0.24750000000000005 0.24750000000000005 0.24750000000000005 0.24750000000000005 0.24750000000000005 0.24750000000000005 0.2275000000000001 0.2075 0.1925 0.18500000000000005 0.1825 0.17874999999999994 0.17874999999999994 0.1775,0.0 20.0 40.0 60.0 80.0 100.0 120.0 140.0 160.0 180.0 200.0 220.0 240.0 260.0 280.0 300.0 320.0 340.0 360.0 380.0 400.0 420.0 440.0 460.0 480.0 500.0 520.0 540.0 560.0 580.0 600.0 620.0 640.0 660.0 680.0 700.0 720.0 740.0 760.0 780.0 800.0 820.0 840.0 860.0 880.0 900.0 920.0 940.0 960.0 980.0 1000.0 1020.0 1040.0 1060.0 1080.0 1100.0
cb_07,10.0,enc_trial,stim,response,Miami trip,932.2999999821187,enc_trial,1.0,10.0,t_m_03_1,travel_Miami,fold-c,wetsuit,7.0,unique,close,paired,t_m_03_1.jpg,Miami,travel-b1,Iceland trip,Miami trip,sub-93,1.0,1.0,1.0,1.0,0.513125 0.515 0.516875 0.524375 0.565625 0.6125 0.69875 0.745625 0.7859375 0.798125 0.8065625 0.816875 0.8215625 0.831875 0.8365625 0.850625 0.8571875 0.86375 0.8646874999999999,0.8175 0.7925 0.7175 0.6425000000000001 0.5137499999999999 0.41625 0.28 0.2225000000000001 0.17625000000000002 0.16125 0.15000000000000002 0.13749999999999996 0.13124999999999998 0.12375000000000005 0.12124999999999996 0.11750000000000005 0.115 0.11375000000000005 0.11250000000000004,574.8999999999943 594.8999999999943 614.8999999999943 634.8999999999943 654.8999999999943 674.8999999999943 694.8999999999942 714.8999999999942 734.8999999999942 754.8999999999942 774.8999999999942 794.8999999999942 814.8999999999942 834.8999999999942 854.8999999999942 874.8999999999942 894.8999999999942 914.8999999999944 934.8999999999944
cb_07,11.0,enc_trial,stim,response,Iceland trip,1598.1999999880786,enc_trial,1.0,11.0,t_i_06_1,travel_Iceland,fold-d,knit hat,7.0,unique,far,paired,t_i_06_1.jpg,Iceland,travel-b1,Iceland trip,Miami trip,sub-93,1.0,1.0,1.0,1.0,0.5103125 0.5103125 0.5121875 0.520625 0.524375 0.5271875 0.5271875 0.5271875 0.5271875 0.5271875 0.5271875 0.5271875 0.5271875 0.5271875 0.5271875 0.5271875 0.5271875 0.5271875 0.5271875 0.5271875 0.5271875 0.5271875 0.5253125 0.524375 0.543125 0.576875 0.60875 0.629375 0.651875 0.655625 0.6603125 0.6809375 0.69875 0.749375 0.775625 0.8121875 0.8225 0.83375 0.843125 0.84875 0.854375 0.8553124999999999 0.85625 0.8496874999999999 0.8009375 0.696875 0.5965625 0.5309375 0.430625 0.396875 0.3546875 0.33687500000000004 0.32656250000000003 0.314375 0.306875 0.29000000000000004 0.284375 0.2778125 0.27125 0.26375000000000004 0.2459375000000001 0.2356250000000001 0.2309375 0.2309375 0.2309375 0.2309375 0.2309375 0.2309375 0.2309375 0.2309375 0.2309375 0.2309375 0.2309375 0.2309375 0.2309375 0.2309375 0.2309375 0.2 0.17375000000000002 0.153125 0.14750000000000002,0.81125 0.77625 0.75125 0.70625 0.69375 0.6825 0.6825 0.6825 0.6825 0.6825 0.6825 0.6825 0.6825 0.6825 0.6825 0.6825 0.6825 0.6825 0.6825 0.6825 0.6825 0.66625 0.59375 0.52 0.445 0.37375 0.32875 0.30875 0.2925 0.29000000000000004 0.29000000000000004 0.28500000000000003 0.27875000000000005 0.2625 0.25249999999999995 0.24 0.235 0.23250000000000004 0.2225000000000001 0.2125 0.19375 0.18999999999999995 0.18500000000000005 0.18000000000000005 0.17000000000000004 0.16625 0.17500000000000004 0.18375 0.19375 0.19499999999999995 0.1925 0.1925 0.18999999999999995 0.1912500000000001 0.1912500000000001 0.18999999999999995 0.1875 0.18500000000000005 0.17500000000000004 0.16749999999999998 0.14625 0.14249999999999996 0.14500000000000002 0.14500000000000002 0.14500000000000002 0.14500000000000002 0.14500000000000002 0.14500000000000002 0.14500000000000002 0.14500000000000002 0.14500000000000002 0.14500000000000002 0.14500000000000002 0.14500000000000002 0.14500000000000002 0.14500000000000002 0.14500000000000002 0.14625 0.14749999999999994 0.15249999999999994 0.15375000000000005,0.0 20.0 40.0 60.0 80.0 100.0 120.0 140.0 160.0 180.0 200.0 220.0 240.0 260.0 280.0 300.0 320.0 340.0 360.0 380.0 400.0 420.0 440.0 460.0 480.0 500.0 520.0 540.0 560.0 580.0 600.0 620.0 640.0 660.0 680.0 700.0 720.0 740.0 760.0 780.0 800.0 820.0 840.0 860.0 880.0 900.0 920.0 940.0 960.0 980.0 1000.0 1020.0 1040.0 1060.0 1080.0 1100.0 1120.0 1140.0 1160.0 1180.0 1200.0 1220.0 1240.0 1260.0 1280.0 1300.0 1320.0 1340.0 1360.0 1380.0 1400.0 1420.0 1440.0 1460.0 1480.0 1500.0 1520.0 1540.0 1560.0 1580.0 1600.0
cb_07,12.0,enc_trial,stim,response,Miami trip,833.1999999999971,enc_trial,1.0,12.0,t_m_06_1,travel_Miami,fold-c,handheld fan,7.0,unique,close,paired,t_m_06_1.jpg,Miami,travel-b1,Iceland trip,Miami trip,sub-93,1.0,1.0,1.0,1.0,0.5 0.4953125 0.486875 0.4775 0.47 0.47375 0.4934375 0.554375 0.66875 0.756875 0.828125 0.8468749999999999 0.8524999999999999 0.854375 0.8553124999999999 0.858125 0.861875 0.865625 0.8721875 0.875 0.8787499999999999,0.8 0.72375 0.615 0.53625 0.4775 0.43625 0.40125 0.33625000000000005 0.255 0.20125000000000004 0.15000000000000002 0.13249999999999995 0.125 0.12 0.11875000000000002 0.11750000000000005 0.11750000000000005 0.11624999999999995 0.11624999999999995 0.115 0.11375000000000005,424.8999999999942 444.8999999999942 464.8999999999942 484.8999999999942 504.8999999999942 524.8999999999942 544.8999999999942 564.8999999999943 584.8999999999943 604.8999999999943 624.8999999999943 644.8999999999943 664.8999999999943 684.8999999999943 704.8999999999942 724.8999999999942 744.8999999999942 764.8999999999942 784.8999999999942 804.8999999999942 824.8999999999942
cb_07,13.0,enc_trial,stim,response,Miami trip,902.3000000059546,enc_trial,1.0,13.0,t_m_03_2,travel_Miami,fold-c,wetsuit,7.0,unique,close,paired,t_m_03_2.jpg,Miami,travel-b1,Iceland trip,Miami trip,sub-93,1.0,1.0,1.0,1.0,0.501875 0.501875 0.501875 0.501875 0.501875 0.5009375 0.4840625 0.475625 0.4671875 0.47 0.47375 0.475625 0.475625 0.475625 0.475625 0.475625 0.475625 0.475625 0.475625 0.475625 0.475625 0.5 0.6275 0.71375 0.7775 0.809375 0.8262499999999999 0.83375 0.84875 0.854375 0.87125 0.875 0.8787499999999999,0.84125 0.8375 0.83 0.815 0.79375 0.7675 0.6675 0.595 0.44875 0.3925 0.34750000000000003 0.34125000000000005 0.34 0.34 0.34 0.34 0.34 0.34 0.34 0.34 0.34 0.335 0.30000000000000004 0.26625 0.23625 0.21625000000000005 0.20375 0.19875 0.18500000000000005 0.18000000000000005 0.16500000000000006 0.16125 0.15749999999999995,257.8999999999942 277.8999999999942 297.8999999999942 317.8999999999942 337.8999999999942 357.8999999999942 377.8999999999942 397.8999999999942 417.8999999999942 437.8999999999942 457.8999999999942 477.8999999999942 497.8999999999942 517.8999999999942 537.8999999999942 557.8999999999942 577.8999999999943 597.8999999999943 617.8999999999943 637.8999999999943 657.8999999999943 677.8999999999943 697.8999999999942 717.8999999999942 737.8999999999942 757.8999999999942 777.8999999999942 797.8999999999942 817.8999999999942 837.8999999999942 857.8999999999942 877.8999999999942 897.8999999999942
cb_07,14.0,enc_trial,stim,response,Miami trip,1340.3000000059544,enc_trial,1.0,14.0,t_s_22_2,travel_shared,fold-a,belt,7.0,competing,close,paired,t_s_22_2.jpg,,travel-b1,Iceland trip,Miami trip,sub-93,1.0,1.0,0.0,0.0,0.50375 0.49625 0.49625 0.5046875 0.515 0.539375 0.5553125 0.569375 0.584375 0.584375 0.584375 0.584375 0.584375 0.584375 0.584375 0.584375 0.584375 0.584375 0.584375 0.6003125 0.6125 0.60875 0.60125 0.58625 0.5853125 0.6021875 0.6246875 0.6771874999999999 0.7531249999999999 0.813125 0.8468749999999999 0.861875 0.8646874999999999 0.865625 0.865625 0.865625 0.865625 0.86375 0.86375,0.83 0.7424999999999999 0.685 0.585 0.5575 0.5225 0.5037499999999999 0.49 0.4725 0.4725 0.4725 0.4725 0.4725 0.4725 0.4725 0.4725 0.4725 0.4725 0.4725 0.4175 0.3375 0.30625 0.2875 0.2625 0.25375000000000003 0.22 0.19499999999999995 0.15249999999999994 0.11750000000000005 0.09750000000000003 0.08999999999999997 0.08875 0.08875 0.08999999999999997 0.08999999999999997 0.09125000000000004 0.09499999999999996 0.09750000000000003 0.10124999999999997,566.6999999999971 586.6999999999971 606.6999999999971 626.6999999999971 646.6999999999971 666.6999999999971 686.6999999999971 706.6999999999971 726.6999999999971 746.6999999999971 766.6999999999971 786.6999999999971 806.6999999999971 826.6999999999971 846.6999999999971 866.6999999999971 886.6999999999971 906.6999999999972 926.6999999999972 946.6999999999972 966.6999999999972 986.6999999999972 1006.6999999999972 1026.6999999999969 1046.6999999999969 1066.6999999999969 1086.6999999999969 1106.6999999999969 1126.6999999999969 1146.6999999999969 1166.6999999999969 1186.6999999999969 1206.6999999999969 1226.6999999999969 1246.6999999999969 1266.6999999999969 1286.6999999999969 1306.6999999999969 1326.6999999999969
cb_07,15.0,enc_trial,stim,response,Miami trip,895.2999999940365,enc_trial,1.0,15.0,t_m_05_1,travel_Miami,fold-d,sunscreen,7.0,unique,far,paired,t_m_05_1.jpg,Miami,travel-b1,Iceland trip,Miami trip,sub-93,1.0,1.0,1.0,1.0,0.5009375 0.509375 0.5271875 0.5759375 0.599375 0.63125 0.6415625 0.6575 0.6903125 0.7268749999999999 0.7578125 0.7840625 0.7990625 0.8178124999999999 0.8262499999999999 0.83375 0.839375 0.845 0.85625 0.8609375 0.8665625 0.8684375,0.7825 0.7075 0.6287499999999999 0.47375 0.415 0.35750000000000004 0.3425 0.3275 0.3075 0.28625 0.2675 0.24625 0.23625 0.2225000000000001 0.21625000000000005 0.2125 0.20875 0.2075 0.20625000000000004 0.20375 0.1975 0.19499999999999995,458.0 478.0 498.0 518.0 538.0 558.0 578.0 598.0 618.0 638.0 658.0 678.0 698.0 718.0 738.0 758.0 778.0 798.0 818.0 838.0 858.0 878.0
cb_07,16.0,enc_trial,stim,response,Miami trip,1010.8000000059546,enc_trial,1.0,16.0,t_s_06_2,travel_shared,fold-b,luggage,7.0,competing,far,paired,t_s_06_2.jpg,,travel-b1,Iceland trip,Miami trip,sub-93,1.0,1.0,0.0,0.0,0.501875 0.5140625 0.54875 0.56375 0.5740625 0.5834374999999999 0.584375 0.5834374999999999 0.5834374999999999 0.5834374999999999 0.5834374999999999 0.5834374999999999 0.5834374999999999 0.5834374999999999 0.5834374999999999 0.5834374999999999 0.5834374999999999 0.5834374999999999 0.5834374999999999 0.5834374999999999 0.5834374999999999 0.5834374999999999 0.5834374999999999 0.5834374999999999 0.5834374999999999 0.5834374999999999 0.5834374999999999 0.5834374999999999 0.5834374999999999 0.5834374999999999 0.5834374999999999 0.5834374999999999 0.5834374999999999 0.618125 0.6537499999999999 0.7175 0.7474999999999999 0.775625 0.790625 0.79625 0.798125 0.7999999999999999 0.8009375 0.801875 0.8028124999999999 0.8075 0.8140625 0.8206249999999999 0.835625 0.8375 0.8421875,0.83375 0.7975 0.67875 0.625 0.5925 0.56 0.5549999999999999 0.5549999999999999 0.5549999999999999 0.5549999999999999 0.5549999999999999 0.5549999999999999 0.5549999999999999 0.5549999999999999 0.5549999999999999 0.5549999999999999 0.5549999999999999 0.5549999999999999 0.5549999999999999 0.5549999999999999 0.5549999999999999 0.5549999999999999 0.5549999999999999 0.5549999999999999 0.5549999999999999 0.5549999999999999 0.5549999999999999 0.5549999999999999 0.5549999999999999 0.5549999999999999 0.5549999999999999 0.5549999999999999 0.5549999999999999 0.5075000000000001 0.45 0.34125000000000005 0.28874999999999995 0.245 0.22 0.21 0.2075 0.205 0.205 0.20375 0.20125000000000004 0.19499999999999995 0.18875 0.1825 0.16500000000000006 0.16374999999999995 0.15749999999999995,8.399999999994181 28.39999999999418 48.39999999999418 68.39999999999418 88.39999999999418 108.39999999999418 128.39999999999418 148.39999999999418 168.39999999999418 188.39999999999415 208.39999999999415 228.39999999999415 248.39999999999415 268.3999999999942 288.3999999999942 308.3999999999942 328.3999999999942 348.3999999999942 368.3999999999942 388.3999999999942 408.3999999999942 428.3999999999942 448.3999999999942 468.3999999999942 488.3999999999942 508.3999999999942 528.3999999999942 548.3999999999942 568.3999999999943 588.3999999999943 608.3999999999943 628.3999999999943 648.3999999999943 668.3999999999943 688.3999999999942 708.3999999999942 728.3999999999942 748.3999999999942 768.3999999999942 788.3999999999942 808.3999999999942 828.3999999999942 848.3999999999942 868.3999999999942 888.3999999999942 908.3999999999942 928.3999999999942 948.3999999999942 968.3999999999942 988.3999999999942 1008.3999999999942
cb_07,17.0,enc_trial,stim,response,Iceland trip,1173.699999988079,enc_trial,1.0,17.0,t_i_14_1,travel_Iceland,fold-c,snow pants,7.0,unique,close,paired,t_i_14_1.jpg,Iceland,travel-b1,Iceland trip,Miami trip,sub-93,1.0,1.0,1.0,1.0,0.4925 0.494375 0.4971875 0.50375 0.5046875 0.5075 0.5075 0.5075 0.5075 0.5075 0.5075 0.5075 0.5075 0.5075 0.5075 0.5075 0.5075 0.5075 0.5075 0.5075 0.539375 0.5871875 0.6903125 0.73625 0.7821874999999999 0.8046875 0.813125 0.8140625 0.8140625 0.8140625 0.8065625 0.7803125 0.715625 0.528125 0.4465625 0.30312500000000003 0.26093750000000004 0.22531250000000005 0.2093750000000001 0.2046875 0.19625 0.1896875 0.1840625 0.1840625 0.1840625 0.1840625 0.1840625 0.1840625 0.1840625 0.1840625 0.1840625 0.1840625 0.1840625 0.17750000000000002 0.16437500000000002 0.15218750000000006,0.84 0.8325 0.8200000000000001 0.7975 0.7887500000000001 0.77875 0.77625 0.77625 0.77625 0.77625 0.77625 0.77625 0.77625 0.77625 0.77625 0.77625 0.77625 0.77625 0.77625 0.77625 0.7175 0.64 0.4825 0.41125 0.33875 0.30125 0.28500000000000003 0.2825 0.28125 0.28 0.28 0.2825 0.29000000000000004 0.30125 0.2975 0.26875000000000004 0.25625 0.245 0.24 0.23750000000000004 0.235 0.2275000000000001 0.22 0.22 0.22 0.22 0.22 0.22 0.22 0.22 0.22 0.22 0.22 0.21375 0.20125000000000004 0.18500000000000005,58.60000000000582 78.6000000000058 98.60000000000582 118.60000000000582 138.60000000000582 158.60000000000582 178.6000000000058 198.60000000000585 218.60000000000585 238.60000000000585 258.6000000000058 278.6000000000058 298.6000000000058 318.6000000000058 338.6000000000058 358.6000000000058 378.6000000000058 398.6000000000058 418.6000000000058 438.6000000000058 458.6000000000058 478.6000000000058 498.6000000000058 518.6000000000058 538.6000000000058 558.6000000000058 578.6000000000057 598.6000000000057 618.6000000000057 638.6000000000057 658.6000000000057 678.6000000000057 698.6000000000058 718.6000000000058 738.6000000000058 758.6000000000058 778.6000000000058 798.6000000000058 818.6000000000058 838.6000000000058 858.6000000000058 878.6000000000058 898.6000000000058 918.6000000000058 938.6000000000058 958.6000000000058 978.6000000000058 998.6000000000058 1018.6000000000058 1038.6000000000058 1058.6000000000058 1078.6000000000058 1098.6000000000058 1118.6000000000058 1138.6000000000058 1158.6000000000058
cb_07,18.0,enc_trial,stim,response,Miami trip,1072.2000000000116,enc_trial,1.0,18.0,t_s_02_2,travel_shared,fold-b,water bottle,7.0,competing,far,paired,t_s_02_2.jpg,,travel-b1,Iceland trip,Miami trip,sub-93,1.0,1.0,0.0,1.0,0.5009375 0.5309375 0.5525 0.614375 0.64625 0.66875 0.6884375 0.6903125 0.6903125 0.6903125 0.6903125 0.6903125 0.6903125 0.6903125 0.6903125 0.6903125 0.6903125 0.7221875 0.7671875 0.78875 0.7971874999999999 0.8084375 0.813125 0.83 0.8375 0.845 0.8478125,0.80375 0.7175 0.65875 0.54125 0.495 0.4625 0.43375 0.43125 0.43125 0.43125 0.43125 0.43125 0.43125 0.43125 0.43125 0.43125 0.43125 0.38375 0.3075 0.26625 0.24875000000000005 0.21625000000000005 0.205 0.1725 0.16249999999999998 0.14500000000000002 0.14,541.4000000000234 561.4000000000234 581.4000000000234 601.4000000000234 621.4000000000234 641.4000000000234 661.4000000000234 681.4000000000234 701.4000000000234 721.4000000000234 741.4000000000234 761.4000000000234 781.4000000000234 801.4000000000234 821.4000000000234 841.4000000000234 861.4000000000234 881.4000000000234 901.4000000000234 921.4000000000234 941.4000000000234 961.4000000000234 981.4000000000234 1001.4000000000234 1021.4000000000234 1041.4000000000233 1061.4000000000233
cb_07,19.0,enc_trial,stim,response,Iceland trip,1463.099999982107,enc_trial,1.0,19.0,t_i_11_1,travel_Iceland,fold-d,headlamp,7.0,unique,far,paired,t_i_11_1.jpg,Iceland,travel-b1,Iceland trip,Miami trip,sub-93,1.0,1.0,1.0,1.0,0.494375 0.4671875 0.430625 0.325625 0.275 0.23 0.2234375 0.2234375 0.2356250000000001 0.258125 0.273125 0.273125 0.273125 0.273125 0.273125 0.273125 0.273125 0.273125 0.273125 0.273125 0.273125 0.23375 0.1840625 0.09687500000000004 0.07343750000000003 0.059375000000000025 0.05562500000000003 0.054687500000000035 0.054687500000000035 0.054687500000000035 0.054687500000000035 0.054687500000000035 0.054687500000000035 0.054687500000000035 0.054687500000000035 0.054687500000000035 0.054687500000000035 0.054687500000000035 0.054687500000000035 0.054687500000000035 0.06312500000000003 0.07437500000000002 0.09125000000000004 0.11937500000000002,0.83 0.74375 0.6475 0.45 0.37875 0.3275 0.3225 0.3175 0.30500000000000005 0.29000000000000004 0.2825 0.2825 0.2825 0.2825 0.2825 0.2825 0.2825 0.2825 0.2825 0.2825 0.2825 0.25249999999999995 0.2125 0.13 0.10499999999999997 0.08750000000000002 0.08250000000000003 0.07999999999999996 0.07999999999999996 0.07999999999999996 0.07999999999999996 0.07999999999999996 0.07999999999999996 0.07999999999999996 0.07999999999999996 0.07999999999999996 0.07999999999999996 0.07999999999999996 0.07999999999999996 0.07999999999999996 0.08750000000000002 0.09250000000000004 0.10250000000000004 0.11375000000000005,591.1999999999825 611.1999999999825 631.1999999999825 651.1999999999825 671.1999999999825 691.1999999999824 711.1999999999824 731.1999999999824 751.1999999999824 771.1999999999824 791.1999999999824 811.1999999999824 831.1999999999824 851.1999999999824 871.1999999999824 891.1999999999824 911.1999999999823 931.1999999999823 951.1999999999823 971.1999999999823 991.1999999999823 1011.1999999999823 1031.1999999999823 1051.1999999999823 1071.1999999999823 1091.1999999999823 1111.1999999999823 1131.1999999999825 1151.1999999999825 1171.1999999999825 1191.1999999999825 1211.1999999999825 1231.1999999999825 1251.1999999999825 1271.1999999999825 1291.1999999999825 1311.1999999999825 1331.1999999999825 1351.1999999999825 1371.1999999999825 1391.1999999999825 1411.1999999999825 1431.1999999999825 1451.1999999999825
cb_07,20.0,enc_trial,stim,response,Miami trip,949.7000000000116,enc_trial,1.0,20.0,t_m_11_1,travel_Miami,fold-d,collapsible beach chair,7.0,unique,far,paired,t_m_11_1.jpg,Miami,travel-b1,Iceland trip,Miami trip,sub-93,1.0,1.0,1.0,1.0,0.5309375 0.599375 0.6846875 0.7999999999999999 0.8271875 0.8524999999999999 0.861875 0.8721875 0.8787499999999999 0.8881249999999999 0.8937499999999999 0.8975 0.8993749999999999 0.903125 0.9040625 0.905 0.905 0.905 0.905 0.905 0.903125,0.79625 0.7175 0.61875 0.475 0.4375 0.39 0.365 0.33875 0.3175 0.29000000000000004 0.27 0.25875000000000004 0.24250000000000005 0.22 0.2075 0.2025 0.19875 0.1975 0.19499999999999995 0.19375 0.1875,534.0 554.0 574.0 594.0 614.0 634.0 654.0 674.0 694.0 714.0 734.0 754.0 774.0 794.0 814.0 834.0 854.0 874.0 894.0 914.0 934.0
cb_07,21.0,enc_trial,stim,response,Iceland trip,1624.7000000000116,enc_trial,1.0,21.0,t_s_12_1,travel_shared,fold-b,clear toiletry bag,7.0,competing,far,paired,t_s_12_1.jpg,,travel-b1,Iceland trip,Miami trip,sub-93,1.0,1.0,1.0,1.0,0.5075 0.53 0.5815625 0.64625 0.66125 0.6659375 0.6659375 0.665 0.665 0.665 0.665 0.665 0.665 0.665 0.665 0.665 0.665 0.665 0.665 0.665 0.665 0.6715625 0.6828124999999999 0.7175 0.7409375 0.7737499999999999 0.78875 0.8084375 0.8225 0.8271875 0.8290624999999999 0.83 0.83 0.83 0.83 0.831875 0.8328125 0.83375 0.8346875 0.8346875 0.835625 0.835625 0.83375 0.8159375 0.768125 0.515 0.37625 0.215 0.13625000000000004 0.11000000000000004 0.10343750000000004 0.10062500000000003,0.80875 0.7475 0.615 0.44375 0.4025 0.3875 0.385 0.3825 0.3825 0.3825 0.3825 0.3825 0.3825 0.3825 0.3825 0.3825 0.3825 0.3825 0.3825 0.3825 0.3825 0.3775 0.3675000000000001 0.335 0.31499999999999995 0.27875000000000005 0.26125 0.23375 0.21 0.19499999999999995 0.18625000000000005 0.1825 0.17874999999999994 0.17374999999999996 0.16874999999999996 0.16500000000000006 0.16249999999999998 0.16000000000000006 0.15749999999999995 0.15625 0.15500000000000005 0.15500000000000005 0.15500000000000005 0.16000000000000006 0.17000000000000004 0.1875 0.1775 0.13749999999999996 0.11 0.10250000000000004 0.10499999999999997 0.10875,441.6000000000058 461.6000000000058 481.6000000000058 501.6000000000058 521.6000000000058 541.6000000000058 561.6000000000058 581.6000000000057 601.6000000000057 621.6000000000057 641.6000000000057 661.6000000000057 681.6000000000057 701.6000000000058 721.6000000000058 741.6000000000058 761.6000000000058 781.6000000000058 801.6000000000058 821.6000000000058 841.6000000000058 861.6000000000058 881.6000000000058 901.6000000000058 921.6000000000058 941.6000000000058 961.6000000000058 981.6000000000058 1001.6000000000058 1021.6000000000058 1041.6000000000058 1061.6000000000058 1081.6000000000058 1101.6000000000058 1121.6000000000058 1141.6000000000058 1161.6000000000058 1181.6000000000058 1201.6000000000058 1221.6000000000058 1241.6000000000058 1261.6000000000058 1281.6000000000058 1301.6000000000058 1321.6000000000058 1341.6000000000058 1361.6000000000058 1381.6000000000058 1401.6000000000058 1421.6000000000058 1441.6000000000058 1461.6000000000058
cb_07,22.0,enc_trial,stim,response,Iceland trip,1097.7999999880851,enc_trial,1.0,22.0,t_i_07_1,travel_Iceland,fold-e-single,hiking backpack,7.0,unique,,single,t_i_07_1.jpg,Iceland,travel-b1,Iceland trip,Miami trip,sub-93,1.0,,1.0,,0.509375 0.509375 0.509375 0.509375 0.509375 0.509375 0.509375 0.509375 0.509375 0.509375 0.509375 0.520625 0.539375 0.580625 0.5975 0.6096874999999999 0.6228125 0.6246875 0.6246875 0.6246875 0.6246875 0.6246875 0.6246875 0.6246875 0.6246875 0.6246875 0.6246875 0.6246875 0.6246875 0.6246875 0.6246875 0.6246875 0.6068749999999999 0.453125 0.3584375 0.254375 0.1915625 0.16812500000000002 0.15875000000000006 0.153125 0.15218750000000006 0.14187500000000006 0.13812500000000005 0.13437500000000002 0.13250000000000006 0.13250000000000006 0.13250000000000006,0.83375 0.8325 0.8325 0.8325 0.8325 0.8325 0.8325 0.8325 0.83125 0.83 0.8225 0.78 0.70875 0.53125 0.455 0.4037500000000001 0.345 0.33625000000000005 0.335 0.335 0.335 0.335 0.335 0.335 0.335 0.335 0.335 0.335 0.335 0.335 0.335 0.335 0.3325 0.30125 0.27625 0.24125 0.21125000000000005 0.1975 0.19375 0.1912500000000001 0.18999999999999995 0.1725 0.16749999999999998 0.16374999999999995 0.16249999999999998 0.16125 0.16000000000000006,158.30000000001746 178.30000000001746 198.30000000001743 218.30000000001743 238.30000000001743 258.3000000000174 278.3000000000174 298.3000000000174 318.3000000000174 338.3000000000174 358.30000000001746 378.30000000001746 398.30000000001746 418.30000000001746 438.30000000001746 458.30000000001746 478.30000000001746 498.30000000001746 518.3000000000175 538.3000000000175 558.3000000000175 578.3000000000175 598.3000000000175 618.3000000000175 638.3000000000175 658.3000000000175 678.3000000000175 698.3000000000176 718.3000000000176 738.3000000000176 758.3000000000176 778.3000000000176 798.3000000000176 818.3000000000176 838.3000000000176 858.3000000000176 878.3000000000176 898.3000000000176 918.3000000000177 938.3000000000177 958.3000000000177 978.3000000000177 998.3000000000177 1018.3000000000177 1038.3000000000177 1058.3000000000177 1078.3000000000177
cb_07,23.0,enc_trial,stim,response,Miami trip,947.0999999940396,enc_trial,1.0,23.0,t_s_21_2,travel_shared,fold-b,umbrella,7.0,competing,far,paired,t_s_21_2.jpg,,travel-b1,Iceland trip,Miami trip,sub-93,0.0,0.0,1.0,1.0,0.515 0.520625 0.5525 0.640625 0.6940625 0.7746875 0.7925 0.8056249999999999 0.8103125 0.81125 0.813125 0.813125 0.813125 0.815 0.8178124999999999 0.8225 0.824375 0.8253125 0.8253125 0.8253125 0.8262499999999999 0.8262499999999999 0.8262499999999999 0.8262499999999999 0.8262499999999999 0.8262499999999999,0.765 0.72875 0.6275 0.455 0.375 0.26875000000000004 0.24625 0.2275000000000001 0.21750000000000005 0.2125 0.2 0.19625000000000006 0.1912500000000001 0.18500000000000005 0.17500000000000004 0.16249999999999998 0.15375000000000005 0.15249999999999994 0.15125 0.15125 0.15125 0.15000000000000002 0.15000000000000002 0.14875000000000005 0.14749999999999994 0.14625,424.5 444.5 464.5 484.5 504.5 524.5 544.5 564.5 584.5 604.5 624.5 644.5 664.5 684.5 704.5 724.5 744.5 764.5 784.5 804.5 824.5 844.5 864.5 884.5 904.5 924.5
cb_07,24.0,enc_trial,stim,response,Iceland trip,1097.099999982107,enc_trial,1.0,24.0,t_i_14_2,travel_Iceland,fold-c,snow pants,7.0,unique,close,paired,t_i_14_2.jpg,Iceland,travel-b1,Iceland trip,Miami trip,sub-93,1.0,1.0,1.0,1.0,0.4990625 0.498125 0.4971875 0.486875 0.475625 0.43625 0.4203125 0.4015625 0.39875 0.3996875 0.3996875 0.3996875 0.3996875 0.3996875 0.3996875 0.3996875 0.3996875 0.3996875 0.3996875 0.3996875 0.3996875 0.3996875 0.395 0.3490625 0.3209375 0.265625 0.24125 0.2225000000000001 0.1934375 0.1859375000000001 0.18125 0.18125 0.18125 0.18125 0.18125 0.18125 0.18125 0.1803125 0.17937500000000006,0.84375 0.84 0.835 0.79375 0.7424999999999999 0.59125 0.5325 0.465 0.44 0.43375 0.43375 0.43375 0.43375 0.43375 0.43375 0.43375 0.43375 0.43375 0.43375 0.43375 0.43375 0.43375 0.4275 0.34750000000000003 0.29875 0.215 0.1875 0.1725 0.15625 0.15375000000000005 0.15125 0.15125 0.15125 0.15125 0.15249999999999994 0.15249999999999994 0.15249999999999994 0.15375000000000005 0.15500000000000005,341.5999999999767 361.59999999997666 381.59999999997666 401.59999999997666 421.59999999997666 441.59999999997666 461.59999999997666 481.59999999997666 501.59999999997666 521.5999999999766 541.5999999999766 561.5999999999766 581.5999999999767 601.5999999999767 621.5999999999767 641.5999999999767 661.5999999999767 681.5999999999767 701.5999999999768 721.5999999999768 741.5999999999768 761.5999999999768 781.5999999999768 801.5999999999768 821.5999999999768 841.5999999999768 861.5999999999768 881.5999999999768 901.5999999999768 921.5999999999768 941.5999999999768 961.5999999999768 981.5999999999768 1001.5999999999768 1021.5999999999768 1041.5999999999767 1061.5999999999767 1081.5999999999767 1101.5999999999767
cb_07,25.0,enc_trial,stim,response,Iceland trip,1500.0999999999767,enc_trial,1.0,25.0,t_s_04_1,travel_shared,fold-c-single,instant camera,7.0,competing,,single,t_s_04_1.jpg,,travel-b1,Iceland trip,Miami trip,sub-93,1.0,,1.0,,0.4990625 0.4990625 0.4990625 0.5 0.5 0.5 0.5 0.5 0.5 0.5 0.5 0.5 0.5 0.5 0.5 0.5009375 0.5009375 0.5009375 0.4990625 0.498125 0.4971875 0.498125 0.5009375 0.501875 0.501875 0.501875 0.501875 0.501875 0.501875 0.501875 0.501875 0.501875 0.501875 0.501875 0.501875 0.501875 0.501875 0.501875 0.501875 0.501875 0.554375 0.6003125 0.6125 0.621875 0.621875 0.605 0.5496875 0.4915625 0.355625 0.27406250000000004 0.17750000000000002 0.15500000000000005 0.13812500000000005 0.1334375 0.13250000000000006 0.13250000000000006 0.12968750000000004 0.12500000000000006 0.12312500000000005 0.11937500000000002 0.11656250000000005 0.11093750000000002 0.11000000000000004 0.10906250000000003 0.10906250000000003 0.10906250000000003 0.10906250000000003 0.10906250000000003 0.10906250000000003 0.10906250000000003 0.10906250000000003 0.10906250000000003 0.10906250000000003 0.10906250000000003,0.85375 0.85375 0.8525 0.8525 0.8525 0.8525 0.8525 0.8525 0.8525 0.8525 0.8525 0.8525 0.8525 0.8525 0.8525 0.8525 0.8512500000000001 0.8475 0.81 0.7625 0.63375 0.585 0.5425 0.5175000000000001 0.5175000000000001 0.5175000000000001 0.5175000000000001 0.5175000000000001 0.5175000000000001 0.5175000000000001 0.5175000000000001 0.5175000000000001 0.5175000000000001 0.5175000000000001 0.5175000000000001 0.5175000000000001 0.5175000000000001 0.5175000000000001 0.5175000000000001 0.5175000000000001 0.4775 0.44375 0.4300000000000001 0.4175 0.415 0.405 0.38125 0.36 0.31375 0.28500000000000003 0.23750000000000004 0.22875 0.22 0.21875 0.21875 0.21875 0.21750000000000005 0.215 0.21375 0.2075 0.19625000000000006 0.18000000000000005 0.17500000000000004 0.17000000000000004 0.17000000000000004 0.17000000000000004 0.16874999999999996 0.16874999999999996 0.16749999999999998 0.16749999999999998 0.16749999999999998 0.16749999999999998 0.16749999999999998 0.17000000000000004,0.0 20.0 40.0 60.0 80.0 100.0 120.0 140.0 160.0 180.0 200.0 220.0 240.0 260.0 280.0 300.0 320.0 340.0 360.0 380.0 400.0 420.0 440.0 460.0 480.0 500.0 520.0 540.0 560.0 580.0 600.0 620.0 640.0 660.0 680.0 700.0 720.0 740.0 760.0 780.0 800.0 820.0 840.0 860.0 880.0 900.0 920.0 940.0 960.0 980.0 1000.0 1020.0 1040.0 1060.0 1080.0 1100.0 1120.0 1140.0 1160.0 1180.0 1200.0 1220.0 1240.0 1260.0 1280.0 1300.0 1320.0 1340.0 1360.0 1380.0 1400.0 1420.0 1440.0 1460.0
cb_07,26.0,enc_trial,stim,response,Iceland trip,1701.8000000059546,enc_trial,1.0,26.0,t_s_08_1,travel_shared,fold-a,hand lotion,7.0,competing,close,paired,t_s_08_1.jpg,,travel-b1,Iceland trip,Miami trip,sub-93,1.0,1.0,0.0,0.0,0.5121875 0.515 0.5159375 0.509375 0.5046875 0.501875 0.50375 0.5065625 0.5084375 0.509375 0.5121875 0.5346875 0.5796875 0.693125 0.7737499999999999 0.8140625 0.8412499999999999 0.84875 0.854375 0.854375 0.8524999999999999 0.850625 0.84875 0.839375 0.83375 0.8262499999999999 0.824375 0.8206249999999999 0.815 0.8075 0.8056249999999999 0.8056249999999999 0.8056249999999999 0.8056249999999999 0.8056249999999999 0.8056249999999999 0.8056249999999999 0.8056249999999999 0.8056249999999999 0.8056249999999999 0.8056249999999999 0.8056249999999999 0.756875 0.6415625 0.4821875 0.3565625 0.27968750000000003 0.2478125 0.21875000000000008 0.21125 0.20562500000000009 0.20375 0.20375 0.20375 0.20281250000000006 0.2009375 0.2 0.198125 0.19531250000000008 0.1925000000000001 0.18218750000000009 0.17093750000000002 0.156875 0.14750000000000002 0.14562500000000006,0.80625 0.7887500000000001 0.765 0.7075 0.6775 0.6325000000000001 0.61375 0.5900000000000001 0.5800000000000001 0.5775 0.5762499999999999 0.5675 0.54125 0.465 0.405 0.37 0.3425 0.3275 0.3175 0.31625000000000003 0.31625000000000003 0.3175 0.31625000000000003 0.3075 0.30375 0.30000000000000004 0.2975 0.2925 0.2825 0.2675 0.265 0.265 0.265 0.265 0.265 0.265 0.265 0.265 0.265 0.265 0.265 0.265 0.25749999999999995 0.24250000000000005 0.2225000000000001 0.20125000000000004 0.18125 0.17000000000000004 0.15500000000000005 0.14875000000000005 0.14249999999999996 0.14249999999999996 0.14125 0.14 0.13875000000000004 0.13749999999999996 0.135 0.135 0.135 0.135 0.14125 0.14749999999999994 0.15249999999999994 0.15500000000000005 0.15625,424.3999999999942 444.3999999999942 464.3999999999942 484.3999999999942 504.3999999999942 524.3999999999942 544.3999999999942 564.3999999999943 584.3999999999943 604.3999999999943 624.3999999999943 644.3999999999943 664.3999999999943 684.3999999999943 704.3999999999942 724.3999999999942 744.3999999999942 764.3999999999942 784.3999999999942 804.3999999999942 824.3999999999942 844.3999999999942 864.3999999999942 884.3999999999942 904.3999999999942 924.3999999999942 944.3999999999942 964.3999999999942 984.3999999999942 1004.3999999999942 1024.3999999999942 1044.3999999999942 1064.3999999999942 1084.3999999999942 1104.3999999999942 1124.3999999999942 1144.3999999999942 1164.3999999999942 1184.3999999999942 1204.3999999999942 1224.3999999999942 1244.3999999999942 1264.3999999999942 1284.3999999999942 1304.3999999999942 1324.3999999999942 1344.3999999999942 1364.3999999999942 1384.3999999999942 1404.3999999999942 1424.3999999999942 1444.3999999999942 1464.3999999999942 1484.3999999999942 1504.3999999999942 1524.3999999999942 1544.3999999999942 1564.3999999999942 1584.3999999999942 1604.3999999999942 1624.3999999999942 1644.3999999999942 1664.3999999999942 1684.3999999999942 1704.3999999999942
cb_07,27.0,enc_trial,stim,response,Iceland trip,979.599999982107,enc_trial,1.0,27.0,t_i_02_1,travel_Iceland,fold-e-single,scarf,7.0,unique,,single,t_i_02_1.jpg,Iceland,travel-b1,Iceland trip,Miami trip,sub-93,1.0,,0.0,,0.4925 0.5 0.5403125 0.591875 0.61625 0.6340625 0.6359375 0.636875 0.636875 0.6331249999999999 0.6275 0.5599999999999999 0.46625 0.2721875 0.22531250000000005 0.2075 0.2103125 0.22531250000000005 0.27125 0.29000000000000004 0.30125 0.30125 0.29375 0.261875 0.2384375 0.198125 0.18500000000000005 0.17375000000000002 0.16531250000000006 0.16156250000000005 0.16062500000000002,0.81 0.75375 0.6225 0.50875 0.45 0.4075 0.4025 0.4 0.4 0.4 0.40125 0.39 0.35875 0.2725 0.25 0.24125 0.23875 0.23250000000000004 0.21 0.2 0.18875 0.1875 0.1875 0.1925 0.1925 0.18500000000000005 0.1775 0.1725 0.16874999999999996 0.16749999999999998 0.16625,374.5 394.5 414.5 434.5 454.5 474.5 494.5 514.5 534.5 554.5 574.5 594.5 614.5 634.5 654.5 674.5 694.5 714.5 734.5 754.5 774.5 794.5 814.5 834.5 854.5 874.5 894.5 914.5 934.5 954.5 974.5
cb_07,28.0,enc_trial,stim,response,Iceland trip,1082.5999999880733,enc_trial,1.0,28.0,t_i_06_2,travel_Iceland,fold-d,knit hat,7.0,unique,far,paired,t_i_06_2.jpg,Iceland,travel-b1,Iceland trip,Miami trip,sub-93,1.0,1.0,1.0,1.0,0.531875 0.5534375 0.565625 0.5721875 0.565625 0.539375 0.509375 0.48125 0.4671875 0.41375 0.3846875 0.374375 0.374375 0.374375 0.374375 0.374375 0.374375 0.374375 0.374375 0.374375 0.374375 0.3303125 0.2675 0.16625000000000004 0.14 0.11750000000000002 0.11468750000000005 0.11281250000000002 0.11187500000000004 0.11187500000000004 0.11187500000000004 0.11187500000000004 0.11187500000000004,0.76625 0.6799999999999999 0.61 0.52125 0.4975000000000001 0.45 0.4075 0.3675000000000001 0.35250000000000004 0.31000000000000005 0.29375 0.28625 0.28625 0.28625 0.28625 0.28625 0.28625 0.28625 0.28625 0.28625 0.28625 0.26375000000000004 0.22875 0.17125 0.15500000000000005 0.14500000000000002 0.14500000000000002 0.14749999999999994 0.14749999999999994 0.14749999999999994 0.14749999999999994 0.14749999999999994 0.14500000000000002,441.3999999999942 461.3999999999942 481.3999999999942 501.3999999999942 521.3999999999942 541.3999999999942 561.3999999999942 581.3999999999943 601.3999999999943 621.3999999999943 641.3999999999943 661.3999999999943 681.3999999999943 701.3999999999942 721.3999999999942 741.3999999999942 761.3999999999942 781.3999999999942 801.3999999999942 821.3999999999942 841.3999999999942 861.3999999999942 881.3999999999942 901.3999999999942 921.3999999999942 941.3999999999942 961.3999999999942 981.3999999999942 1001.3999999999942 1021.3999999999942 1041.3999999999942 1061.3999999999942 1081.3999999999942
cb_07,29.0,enc_trial,stim,response,Iceland trip,1097.1999999821128,enc_trial,1.0,29.0,t_s_13_1,travel_shared,fold-c-single,contact lens case,7.0,competing,,single,t_s_13_1.jpg,,travel-b1,Iceland trip,Miami trip,sub-93,1.0,,1.0,,0.501875 0.5196875 0.546875 0.59 0.5975 0.603125 0.6040625 0.605 0.6078125 0.60875 0.6096874999999999 0.6096874999999999 0.6096874999999999 0.60875 0.605 0.595625 0.580625 0.5159375 0.415625 0.29281250000000003 0.194375 0.13250000000000006 0.11750000000000002 0.10531250000000003,0.815 0.7150000000000001 0.6275 0.5137499999999999 0.49125 0.47375 0.4725 0.47125 0.4675 0.4662500000000001 0.465 0.46375 0.46375 0.4612500000000001 0.455 0.44375 0.43125 0.395 0.34750000000000003 0.275 0.215 0.17625000000000002 0.17000000000000004 0.16874999999999996,417.0 437.0 457.0 477.0 497.0 517.0 537.0 557.0 577.0 597.0 617.0 637.0 657.0 677.0 697.0 717.0 737.0 757.0 777.0 797.0 817.0 837.0 857.0 877.0
cb_07,30.0,enc_trial,stim,response,Miami trip,826.9999999821302,enc_trial,1.0,30.0,t_m_20_1,travel_Miami,fold-e-single,inflatable beachball,7.0,unique,,single,t_m_20_1.jpg,Miami,travel-b1,Iceland trip,Miami trip,sub-93,1.0,,1.0,,0.4925 0.48125 0.47375 0.4578125 0.4559375 0.48125 0.543125 0.6068749999999999 0.723125 0.7625 0.801875 0.81125 0.8206249999999999 0.8309375 0.83375 0.839375 0.8412499999999999 0.845 0.8496874999999999 0.8524999999999999 0.85625 0.8590625,0.77875 0.7175 0.665 0.55 0.505 0.4625 0.4 0.34624999999999995 0.255 0.2275000000000001 0.18999999999999995 0.1775 0.16500000000000006 0.14749999999999994 0.14125 0.13249999999999995 0.13 0.13 0.12749999999999995 0.12624999999999995 0.12250000000000005 0.12124999999999996,400.0 420.0 440.0 460.0 480.0 500.0 520.0 540.0 560.0 580.0 600.0 620.0 640.0 660.0 680.0 700.0 720.0 740.0 760.0 780.0 800.0 820.0
cb_07,31.0,enc_trial,stim,response,Miami trip,757.5999999999768,enc_trial,1.0,31.0,t_m_05_2,travel_Miami,fold-d,sunscreen,7.0,unique,far,paired,t_m_05_2.jpg,Miami,travel-b1,Iceland trip,Miami trip,sub-93,1.0,1.0,1.0,1.0,0.4971875 0.5 0.5065625 0.558125 0.6068749999999999 0.7203125 0.76625 0.7953125 0.824375 0.8309375 0.839375 0.8421875 0.8468749999999999 0.8590625 0.8646874999999999 0.8674999999999999 0.869375 0.869375 0.869375 0.8703124999999999,0.8425 0.8225 0.79625 0.6637500000000001 0.55625 0.3425 0.26 0.2075 0.15000000000000002 0.13249999999999995 0.10750000000000004 0.10250000000000004 0.09375 0.08125000000000004 0.07374999999999997 0.06874999999999998 0.06499999999999995 0.06499999999999995 0.06374999999999997 0.0625,366.1000000000058 386.1000000000058 406.1000000000058 426.1000000000058 446.1000000000058 466.1000000000058 486.1000000000058 506.1000000000058 526.1000000000058 546.1000000000058 566.1000000000057 586.1000000000057 606.1000000000057 626.1000000000057 646.1000000000057 666.1000000000057 686.1000000000057 706.1000000000058 726.1000000000058 746.1000000000058
cb_07,32.0,enc_trial,stim,response,Miami trip,978.600000005972,enc_trial,1.0,32.0,t_s_08_2,travel_shared,fold-a,hand lotion,7.0,competing,close,paired,t_s_08_2.jpg,,travel-b1,Iceland trip,Miami trip,sub-93,1.0,1.0,0.0,0.0,0.4896875 0.494375 0.5140625 0.546875 0.56375 0.573125 0.57875 0.5834374999999999 0.610625 0.629375 0.666875 0.696875 0.7203125 0.7531249999999999 0.7625 0.7728125 0.7775 0.7793749999999999 0.78125 0.7821874999999999 0.783125 0.783125 0.785 0.7915625 0.8065625 0.8253125 0.8346875 0.8375 0.8421875 0.8478125 0.850625,0.8425 0.81625 0.74375 0.64375 0.5800000000000001 0.54375 0.525 0.51625 0.485 0.46375 0.425 0.38875 0.35750000000000004 0.30625 0.2875 0.2625 0.255 0.24875000000000005 0.24125 0.24 0.24 0.23875 0.235 0.22624999999999995 0.20875 0.18625000000000005 0.17500000000000004 0.1725 0.16749999999999998 0.16249999999999998 0.16000000000000006,374.6000000000058 394.6000000000058 414.6000000000058 434.6000000000058 454.6000000000058 474.6000000000058 494.6000000000058 514.6000000000058 534.6000000000058 554.6000000000058 574.6000000000057 594.6000000000057 614.6000000000057 634.6000000000057 654.6000000000057 674.6000000000057 694.6000000000058 714.6000000000058 734.6000000000058 754.6000000000058 774.6000000000058 794.6000000000058 814.6000000000058 834.6000000000058 854.6000000000058 874.6000000000058 894.6000000000058 914.6000000000058 934.6000000000058 954.6000000000058 974.6000000000058
cb_07,33.0,enc_trial,stim,response,Miami trip,849.6000000000058,enc_trial,1.0,33.0,t_m_11_2,travel_Miami,fold-d,collapsible beach chair,7.0,unique,far,paired,t_m_11_2.jpg,Miami,travel-b1,Iceland trip,Miami trip,sub-93,1.0,1.0,1.0,1.0,0.498125 0.4990625 0.501875 0.50375 0.513125 0.5234375 0.5628125 0.6115625 0.6593749999999999 0.6884375 0.6996875 0.72125 0.7315625 0.75125 0.7625 0.771875 0.7821874999999999 0.786875 0.798125 0.8075 0.8262499999999999 0.835625 0.845 0.850625 0.854375 0.86 0.865625 0.8674999999999999,0.84625 0.84 0.83125 0.8200000000000001 0.7925 0.76625 0.675 0.57375 0.47 0.395 0.3675000000000001 0.32875 0.31375 0.28500000000000003 0.26875000000000004 0.25749999999999995 0.245 0.24 0.2275000000000001 0.22 0.2075 0.2 0.1912500000000001 0.18500000000000005 0.17625000000000002 0.16000000000000006 0.14 0.13249999999999995,308.3000000000173 328.3000000000173 348.3000000000173 368.3000000000174 388.3000000000174 408.3000000000174 428.3000000000174 448.3000000000174 468.3000000000174 488.3000000000174 508.3000000000174 528.3000000000173 548.3000000000173 568.3000000000172 588.3000000000172 608.3000000000172 628.3000000000172 648.3000000000172 668.3000000000172 688.3000000000172 708.3000000000172 728.3000000000172 748.3000000000172 768.3000000000172 788.3000000000172 808.3000000000172 828.3000000000172 848.3000000000172
cb_07,34.0,enc_trial,stim,response,Miami trip,754.4000000059607,enc_trial,1.0,34.0,t_s_12_2,travel_shared,fold-b,clear toiletry bag,7.0,competing,far,paired,t_s_12_2.jpg,,travel-b1,Iceland trip,Miami trip,sub-93,1.0,1.0,1.0,1.0,0.501875 0.5075 0.515 0.5459375 0.569375 0.62 0.63875 0.6678125 0.69875 0.72875 0.7503124999999999 0.7690625 0.783125 0.7934375 0.801875 0.8075 0.81125 0.813125 0.8196875 0.8262499999999999 0.8412499999999999 0.8478125 0.8524999999999999 0.861875 0.86375,0.8175 0.80875 0.79625 0.7424999999999999 0.6950000000000001 0.5725 0.5237499999999999 0.4575 0.3925 0.34 0.30875 0.28 0.26 0.24 0.22624999999999995 0.22 0.21625000000000005 0.215 0.205 0.19375 0.1725 0.16374999999999995 0.15874999999999995 0.15125 0.14875000000000005,266.70000000001164 286.70000000001164 306.70000000001164 326.70000000001164 346.7000000000116 366.7000000000117 386.7000000000117 406.7000000000117 426.7000000000117 446.7000000000117 466.7000000000117 486.7000000000117 506.7000000000117 526.7000000000116 546.7000000000116 566.7000000000116 586.7000000000116 606.7000000000116 626.7000000000116 646.7000000000116 666.7000000000116 686.7000000000116 706.7000000000116 726.7000000000116 746.7000000000116
cb_07,35.0,enc_trial,stim,response,Iceland trip,1104.0000000059663,enc_trial,1.0,35.0,t_i_04_1,travel_Iceland,fold-c,portable camping stove,7.0,unique,close,paired,t_i_04_1.jpg,Iceland,travel-b1,Iceland trip,Miami trip,sub-93,1.0,1.0,1.0,1.0,0.5009375 0.5009375 0.4953125 0.4653125 0.385625 0.32937500000000003 0.2403125 0.21125 0.183125 0.17750000000000002 0.17375000000000002 0.17375000000000002 0.17375000000000002 0.17375000000000002 0.17281250000000006 0.17 0.16906250000000006 0.16718750000000002 0.16625000000000004 0.16625000000000004 0.16625000000000004 0.16625000000000004 0.16625000000000004,0.815 0.8049999999999999 0.77 0.7 0.56125 0.47125 0.3275 0.27875000000000005 0.23125 0.22 0.2125 0.2125 0.2125 0.2125 0.2125 0.20625000000000004 0.2 0.18999999999999995 0.18625000000000005 0.18500000000000005 0.18375 0.18125 0.18000000000000005,641.2000000000116 661.2000000000116 681.2000000000116 701.2000000000116 721.2000000000116 741.2000000000116 761.2000000000116 781.2000000000116 801.2000000000116 821.2000000000116 841.2000000000116 861.2000000000116 881.2000000000116 901.2000000000116 921.2000000000116 941.2000000000116 961.2000000000116 981.2000000000116 1001.2000000000116 1021.2000000000116 1041.2000000000116 1061.2000000000116 1081.2000000000116
cb_07,36.0,enc_trial,stim,response,Iceland trip,1219.199999988079,enc_trial,1.0,36.0,t_s_20_2,travel_shared,fold-a,travel pill case,7.0,competing,close,paired,t_s_20_2.jpg,,travel-b1,Iceland trip,Miami trip,sub-93,1.0,1.0,0.0,0.0,0.501875 0.501875 0.501875 0.501875 0.501875 0.498125 0.494375 0.494375 0.5009375 0.51125 0.516875 0.51875 0.51875 0.51875 0.51875 0.51875 0.51875 0.51875 0.51875 0.51875 0.51875 0.51875 0.51875 0.51875 0.51875 0.51875 0.51875 0.5599999999999999 0.6190625 0.6425 0.6471875 0.6471875 0.625625 0.505625 0.4184375 0.2721875 0.23 0.2065625 0.17843750000000005 0.16812500000000002 0.15500000000000005 0.14937500000000006 0.14187500000000006 0.13812500000000005 0.13625000000000004 0.13531250000000006 0.13437500000000002,0.83125 0.83125 0.83 0.82875 0.82625 0.7925 0.7375 0.6125 0.48 0.3825 0.3425 0.33375 0.33125000000000004 0.33125000000000004 0.33125000000000004 0.33125000000000004 0.33125000000000004 0.33125000000000004 0.33125000000000004 0.33125000000000004 0.33125000000000004 0.33125000000000004 0.33125000000000004 0.33125000000000004 0.33125000000000004 0.33125000000000004 0.33125000000000004 0.31499999999999995 0.29000000000000004 0.2775 0.2775 0.2775 0.2775 0.2675 0.245 0.19499999999999995 0.1775 0.16749999999999998 0.14875000000000005 0.14125 0.13249999999999995 0.12749999999999995 0.12124999999999996 0.11750000000000005 0.115 0.115 0.115,291.70000000001164 311.70000000001164 331.70000000001164 351.7000000000116 371.7000000000117 391.7000000000117 411.7000000000117 431.7000000000117 451.7000000000117 471.7000000000117 491.7000000000117 511.7000000000117 531.7000000000116 551.7000000000116 571.7000000000116 591.7000000000116 611.7000000000116 631.7000000000116 651.7000000000116 671.7000000000116 691.7000000000116 711.7000000000116 731.7000000000116 751.7000000000116 771.7000000000116 791.7000000000116 811.7000000000116 831.7000000000116 851.7000000000116 871.7000000000116 891.7000000000116 911.7000000000116 931.7000000000116 951.7000000000116 971.7000000000116 991.7000000000116 1011.7000000000116 1031.7000000000116 1051.7000000000116 1071.7000000000116 1091.7000000000116 1111.7000000000116 1131.7000000000114 1151.7000000000114 1171.7000000000114 1191.7000000000114 1211.7000000000114
cb_07,37.0,enc_trial,stim,response,Iceland trip,1562.4999999940335,enc_trial,1.0,37.0,t_s_24_1,travel_shared,fold-c-single,ear plugs,7.0,competing,,single,t_s_24_1.jpg,,travel-b1,Iceland trip,Miami trip,sub-93,1.0,,1.0,,0.494375 0.494375 0.494375 0.494375 0.494375 0.494375 0.494375 0.494375 0.4953125 0.4953125 0.4953125 0.4934375 0.4878125 0.464375 0.456875 0.44375 0.4409375 0.4390625 0.438125 0.438125 0.438125 0.438125 0.438125 0.438125 0.438125 0.438125 0.438125 0.438125 0.438125 0.438125 0.438125 0.438125 0.438125 0.438125 0.4334375 0.39125 0.305 0.2525 0.2 0.1915625 0.186875 0.1859375000000001 0.18500000000000005 0.183125 0.183125 0.183125 0.183125 0.183125 0.183125 0.183125 0.183125 0.183125 0.183125 0.183125 0.183125 0.183125 0.183125 0.183125 0.183125 0.183125 0.183125 0.183125 0.183125 0.183125 0.183125 0.183125 0.183125 0.183125 0.183125 0.183125 0.183125 0.17750000000000002 0.16625000000000004 0.16250000000000006,0.845 0.845 0.84375 0.84375 0.84375 0.84375 0.84375 0.84375 0.8425 0.8425 0.8425 0.8225 0.7887500000000001 0.6325000000000001 0.5449999999999999 0.4025 0.3675000000000001 0.34375 0.3375 0.3375 0.3375 0.3375 0.3375 0.3375 0.3375 0.3375 0.3375 0.3375 0.3375 0.3375 0.3375 0.3375 0.3375 0.3375 0.3325 0.30125 0.235 0.19499999999999995 0.15749999999999995 0.15249999999999994 0.15249999999999994 0.15500000000000005 0.15500000000000005 0.15749999999999995 0.15749999999999995 0.15749999999999995 0.15749999999999995 0.15749999999999995 0.15749999999999995 0.15625 0.15625 0.15625 0.15625 0.15625 0.15625 0.15625 0.15625 0.15625 0.15625 0.15625 0.15625 0.15625 0.15625 0.15625 0.15625 0.15625 0.15625 0.15625 0.15625 0.15625 0.15625 0.15625 0.15749999999999995 0.15749999999999995,108.39999999999418 128.39999999999418 148.39999999999418 168.39999999999418 188.39999999999415 208.39999999999415 228.39999999999415 248.39999999999415 268.3999999999942 288.3999999999942 308.3999999999942 328.3999999999942 348.3999999999942 368.3999999999942 388.3999999999942 408.3999999999942 428.3999999999942 448.3999999999942 468.3999999999942 488.3999999999942 508.3999999999942 528.3999999999942 548.3999999999942 568.3999999999943 588.3999999999943 608.3999999999943 628.3999999999943 648.3999999999943 668.3999999999943 688.3999999999942 708.3999999999942 728.3999999999942 748.3999999999942 768.3999999999942 788.3999999999942 808.3999999999942 828.3999999999942 848.3999999999942 868.3999999999942 888.3999999999942 908.3999999999942 928.3999999999942 948.3999999999942 968.3999999999942 988.3999999999942 1008.3999999999942 1028.3999999999942 1048.3999999999942 1068.3999999999942 1088.3999999999942 1108.3999999999942 1128.3999999999942 1148.3999999999942 1168.3999999999942 1188.3999999999942 1208.3999999999942 1228.3999999999942 1248.3999999999942 1268.3999999999942 1288.3999999999942 1308.3999999999942 1328.3999999999942 1348.3999999999942 1368.3999999999942 1388.3999999999942 1408.3999999999942 1428.3999999999942 1448.3999999999942 1468.3999999999942 1488.3999999999942 1508.3999999999942 1528.3999999999942 1548.3999999999942 1568.3999999999942
cb_07,38.0,enc_trial,stim,response,Iceland trip,952.7999999880847,enc_trial,1.0,38.0,t_i_04_2,travel_Iceland,fold-c,portable camping stove,7.0,unique,close,paired,t_i_04_2.jpg,Iceland,travel-b1,Iceland trip,Miami trip,sub-93,1.0,1.0,1.0,1.0,0.513125 0.4953125 0.48125 0.464375 0.456875 0.4428125 0.43625 0.430625 0.42125 0.4184375 0.4128125 0.41 0.4034375 0.3978125 0.3875 0.370625 0.3228125 0.2440625 0.1925000000000001 0.16250000000000006 0.15218750000000006 0.14375000000000002 0.14281250000000004 0.14187500000000006 0.14093750000000002 0.14 0.14 0.13906250000000006 0.13812500000000005 0.13812500000000005,0.81125 0.7737499999999999 0.74125 0.685 0.65625 0.5974999999999999 0.5725 0.5549999999999999 0.53 0.5237499999999999 0.51125 0.5025 0.4925000000000001 0.4825 0.4675 0.44875 0.3975 0.3125 0.25 0.215 0.19875 0.18500000000000005 0.1825 0.18125 0.18000000000000005 0.1775 0.1775 0.1775 0.17625000000000002 0.17500000000000004,357.8999999999942 377.8999999999942 397.8999999999942 417.8999999999942 437.8999999999942 457.8999999999942 477.8999999999942 497.8999999999942 517.8999999999942 537.8999999999942 557.8999999999942 577.8999999999943 597.8999999999943 617.8999999999943 637.8999999999943 657.8999999999943 677.8999999999943 697.8999999999942 717.8999999999942 737.8999999999942 757.8999999999942 777.8999999999942 797.8999999999942 817.8999999999942 837.8999999999942 857.8999999999942 877.8999999999942 897.8999999999942 917.8999999999942 937.8999999999942
cb_07,39.0,enc_trial,stim,response,Miami trip,1838.0000000059665,enc_trial,1.0,39.0,t_s_20_1,travel_shared,fold-a,travel pill case,7.0,competing,close,paired,t_s_20_1.jpg,,travel-b1,Iceland trip,Miami trip,sub-93,1.0,1.0,0.0,0.0,0.505625 0.505625 0.505625 0.494375 0.47375 0.4221875 0.3575 0.29375 0.2384375 0.198125 0.16156250000000005 0.14937500000000006 0.14093750000000002 0.13625000000000004 0.13437500000000002 0.1334375 0.13062500000000002 0.12875000000000006 0.12687500000000002 0.12593750000000006 0.12593750000000006 0.12593750000000006 0.12500000000000006 0.12500000000000006 0.12500000000000006 0.12500000000000006 0.12500000000000006 0.12500000000000006 0.12500000000000006 0.12500000000000006 0.12500000000000006 0.12500000000000006 0.12500000000000006 0.12500000000000006 0.12500000000000006 0.12500000000000006 0.12500000000000006 0.12500000000000006 0.12500000000000006 0.12593750000000006 0.13625000000000004 0.156875 0.2140625 0.365 0.460625 0.6125 0.66125 0.6978125 0.7175 0.72875 0.7353125 0.738125 0.741875 0.7428125 0.74375 0.745625 0.7465625 0.7474999999999999 0.7474999999999999 0.75125 0.7728125 0.785 0.7953125 0.8065625 0.81125 0.815 0.816875,0.8025 0.7825 0.76375 0.72875 0.6950000000000001 0.61375 0.50625 0.3975 0.3125 0.255 0.205 0.18999999999999995 0.17874999999999994 0.1725 0.16625 0.16374999999999995 0.15749999999999995 0.15500000000000005 0.15249999999999994 0.15249999999999994 0.15000000000000002 0.15000000000000002 0.15000000000000002 0.14875000000000005 0.14749999999999994 0.14749999999999994 0.14749999999999994 0.14749999999999994 0.15125 0.15249999999999994 0.15249999999999994 0.15249999999999994 0.15249999999999994 0.15375000000000005 0.15500000000000005 0.15500000000000005 0.15500000000000005 0.15500000000000005 0.15625 0.15749999999999995 0.16000000000000006 0.16374999999999995 0.17125 0.1925 0.20125000000000004 0.215 0.215 0.2125 0.205 0.1925 0.1825 0.1775 0.1725 0.17000000000000004 0.16625 0.16374999999999995 0.16000000000000006 0.15874999999999995 0.15749999999999995 0.15625 0.15625 0.15625 0.15625 0.15500000000000005 0.15375000000000005 0.15000000000000002 0.14749999999999994,507.8999999999942 527.8999999999942 547.8999999999942 567.8999999999943 587.8999999999943 607.8999999999943 627.8999999999943 647.8999999999943 667.8999999999943 687.8999999999942 707.8999999999942 727.8999999999942 747.8999999999942 767.8999999999942 787.8999999999942 807.8999999999942 827.8999999999942 847.8999999999942 867.8999999999942 887.8999999999942 907.8999999999942 927.8999999999942 947.8999999999942 967.8999999999942 987.8999999999942 1007.8999999999942 1027.8999999999942 1047.8999999999942 1067.8999999999942 1087.8999999999942 1107.8999999999942 1127.8999999999942 1147.8999999999942 1167.8999999999942 1187.8999999999942 1207.8999999999942 1227.8999999999942 1247.8999999999942 1267.8999999999942 1287.8999999999942 1307.8999999999942 1327.8999999999942 1347.8999999999942 1367.8999999999942 1387.8999999999942 1407.8999999999942 1427.8999999999942 1447.8999999999942 1467.8999999999942 1487.8999999999942 1507.8999999999942 1527.8999999999942 1547.8999999999942 1567.8999999999942 1587.8999999999942 1607.8999999999942 1627.8999999999942 1647.8999999999942 1667.8999999999942 1687.8999999999942 1707.8999999999942 1727.8999999999942 1747.8999999999942 1767.8999999999942 1787.8999999999942 1807.8999999999944 1827.8999999999944
cb_07,40.0,enc_trial,stim,response,Iceland trip,988.9999999880673,enc_trial,1.0,40.0,t_s_15_1,travel_shared,fold-c-single,luggage tag,7.0,competing,,single,t_s_15_1.jpg,,travel-b1,Iceland trip,Miami trip,sub-93,1.0,,1.0,,0.4859375 0.441875 0.415625 0.3790625 0.359375 0.30031250000000004 0.280625 0.2646875 0.246875 0.245 0.2421875000000001 0.2375 0.23 0.2159375000000001 0.2093750000000001 0.190625 0.18125 0.16812500000000002 0.16062500000000002 0.15593750000000006 0.153125 0.15031250000000002 0.14937500000000006,0.8225 0.75125 0.6975 0.6025 0.5575 0.4325 0.39 0.35750000000000004 0.32625000000000004 0.3225 0.31625000000000003 0.30500000000000005 0.28500000000000003 0.25 0.23750000000000004 0.20375 0.18500000000000005 0.16249999999999998 0.15125 0.14500000000000002 0.14125 0.13875000000000004 0.13875000000000004,541.2999999999884 561.2999999999884 581.2999999999884 601.2999999999884 621.2999999999884 641.2999999999884 661.2999999999884 681.2999999999884 701.2999999999884 721.2999999999884 741.2999999999884 761.2999999999884 781.2999999999884 801.2999999999884 821.2999999999884 841.2999999999884 861.2999999999884 881.2999999999884 901.2999999999884 921.2999999999884 941.2999999999884 961.2999999999884 981.2999999999884
cb_07,41.0,enc_trial,stim,response,STEM students,766.3000000000467,enc_trial,2.0,1.0,s_sh_23_1,student_shared,fold-a,ballpoint pen,7.0,competing,close,paired,s_sh_23_1.jpg,,student-b1,STEM students,Fine Arts students,sub-93,1.0,1.0,0.0,0.0,0.485 0.42875 0.3640625 0.246875 0.20187500000000005 0.16718750000000002 0.16156250000000005 0.15875000000000006 0.156875 0.15593750000000006 0.15500000000000005 0.15406250000000002 0.15218750000000006 0.14750000000000002 0.14375000000000002 0.14187500000000006 0.14187500000000006 0.14093750000000002 0.14093750000000002 0.14093750000000002,0.82125 0.7150000000000001 0.595 0.39 0.31125 0.245 0.23250000000000004 0.225 0.2125 0.2075 0.20125000000000004 0.19875 0.1925 0.1775 0.16500000000000006 0.15874999999999995 0.15500000000000005 0.15249999999999994 0.15249999999999994 0.15000000000000002,383.0 403.0 423.0 443.0 463.0 483.0 503.0 523.0 543.0 563.0 583.0 603.0 623.0 643.0 663.0 683.0 703.0 723.0 743.0 763.0
cb_07,42.0,enc_trial,stim,response,Fine Arts students,1120.9000000059605,enc_trial,2.0,2.0,s_a_12_1,student_art,fold-c,saxophone,7.0,unique,close,paired,s_a_12_1.jpg,art,student-b1,STEM students,Fine Arts students,sub-93,1.0,1.0,1.0,1.0,0.501875 0.4990625 0.4925 0.48875 0.485 0.483125 0.4896875 0.501875 0.5440625 0.5834374999999999 0.636875 0.685625 0.71 0.7353125 0.74 0.741875 0.741875 0.74 0.730625 0.725 0.71375 0.704375 0.681875 0.610625 0.516875 0.4090625 0.3509375 0.33875 0.3378125 0.36125 0.471875 0.5440625 0.60125 0.666875 0.6903125 0.7221875 0.7353125 0.7559374999999999 0.771875 0.7793749999999999 0.7925 0.80375 0.81875 0.8262499999999999,0.8375 0.82875 0.8125 0.8 0.7775 0.725 0.63625 0.5662499999999999 0.45 0.38875 0.33 0.2875 0.27125 0.255 0.25125 0.25 0.24750000000000005 0.24375 0.22624999999999995 0.21875 0.19875 0.18500000000000005 0.16249999999999998 0.14 0.13375000000000006 0.14 0.14749999999999994 0.15249999999999994 0.15249999999999994 0.15500000000000005 0.15749999999999995 0.16125 0.16374999999999995 0.17000000000000004 0.17000000000000004 0.16374999999999995 0.15874999999999995 0.15249999999999994 0.15000000000000002 0.15000000000000002 0.14749999999999994 0.14625 0.14375000000000004 0.14249999999999996,257.7999999999884 277.7999999999884 297.79999999998836 317.79999999998836 337.79999999998836 357.7999999999884 377.7999999999884 397.7999999999884 417.7999999999884 437.7999999999884 457.7999999999884 477.7999999999884 497.7999999999884 517.7999999999884 537.7999999999884 557.7999999999884 577.7999999999884 597.7999999999884 617.7999999999884 637.7999999999884 657.7999999999884 677.7999999999884 697.7999999999884 717.7999999999884 737.7999999999884 757.7999999999884 777.7999999999884 797.7999999999884 817.7999999999884 837.7999999999884 857.7999999999884 877.7999999999884 897.7999999999884 917.7999999999884 937.7999999999884 957.7999999999884 977.7999999999884 997.7999999999884 1017.7999999999884 1037.7999999999884 1057.7999999999884 1077.7999999999884 1097.7999999999884 1117.7999999999884
cb_07,43.0,enc_trial,stim,response,STEM students,932.7999999999884,enc_trial,2.0,3.0,s_s_20_1,student_stem,fold-d,dna model,7.0,unique,far,paired,s_s_20_1.jpg,stem,student-b1,STEM students,Fine Arts students,sub-93,1.0,1.0,1.0,1.0,0.494375 0.490625 0.4821875 0.46625 0.4615625 0.460625 0.468125 0.4784375 0.4821875 0.4821875 0.4709375 0.381875 0.31625000000000003 0.1896875 0.16250000000000006 0.13812500000000005 0.13250000000000006 0.13062500000000002 0.12968750000000004 0.12875000000000006 0.12687500000000002 0.12500000000000006 0.12125000000000002 0.11375000000000005 0.11281250000000002 0.11187500000000004,0.82625 0.7975 0.755 0.6950000000000001 0.6775 0.645 0.6 0.5625 0.5449999999999999 0.53375 0.52125 0.4525 0.405 0.29375 0.26125 0.23250000000000004 0.22624999999999995 0.22375 0.22124999999999995 0.22 0.215 0.2075 0.19625000000000006 0.17374999999999996 0.16749999999999998 0.16249999999999998,432.90000000002334 452.90000000002334 472.90000000002334 492.90000000002334 512.9000000000234 532.9000000000234 552.9000000000234 572.9000000000233 592.9000000000233 612.9000000000233 632.9000000000233 652.9000000000233 672.9000000000233 692.9000000000232 712.9000000000232 732.9000000000232 752.9000000000232 772.9000000000232 792.9000000000232 812.9000000000232 832.9000000000232 852.9000000000232 872.9000000000232 892.9000000000232 912.9000000000232 932.9000000000232
cb_07,44.0,enc_trial,stim,response,Fine Arts students,1044.0999999999767,enc_trial,2.0,4.0,s_sh_18_1,student_shared,fold-c-single,wall calendar,7.0,competing,,single,s_sh_18_1.jpg,,student-b1,STEM students,Fine Arts students,sub-93,1.0,,1.0,,0.505625 0.505625 0.5065625 0.5375 0.565625 0.655625 0.696875 0.7259375 0.749375 0.7709374999999999 0.78875 0.7943749999999999 0.7999999999999999 0.8009375 0.8009375 0.8009375 0.8009375 0.8009375 0.80375 0.8056249999999999 0.81125 0.815 0.81875 0.8215625 0.8215625 0.8225 0.8225 0.8225 0.8225 0.8225 0.8234374999999999 0.8234374999999999 0.8234374999999999 0.824375,0.8200000000000001 0.8 0.77125 0.6425000000000001 0.5725 0.405 0.3325 0.2825 0.245 0.21625000000000005 0.2 0.19499999999999995 0.18999999999999995 0.1875 0.1875 0.18625000000000005 0.18625000000000005 0.18625000000000005 0.18500000000000005 0.18375 0.18000000000000005 0.1775 0.17625000000000002 0.17500000000000004 0.17500000000000004 0.17500000000000004 0.17500000000000004 0.17500000000000004 0.17500000000000004 0.17374999999999996 0.1725 0.1725 0.1725 0.17000000000000004,374.69999999995343 394.69999999995343 414.69999999995343 434.69999999995343 454.69999999995343 474.69999999995343 494.69999999995343 514.6999999999534 534.6999999999534 554.6999999999534 574.6999999999534 594.6999999999534 614.6999999999534 634.6999999999534 654.6999999999534 674.6999999999534 694.6999999999533 714.6999999999533 734.6999999999533 754.6999999999533 774.6999999999533 794.6999999999533 814.6999999999533 834.6999999999533 854.6999999999533 874.6999999999533 894.6999999999533 914.6999999999533 934.6999999999533 954.6999999999533 974.6999999999533 994.6999999999533 1014.6999999999533 1034.6999999999532
cb_07,45.0,enc_trial,stim,response,STEM students,1112.9999999880674,enc_trial,2.0,5.0,s_sh_04_1,student_shared,fold-c-single,laptop stand,7.0,competing,,single,s_sh_04_1.jpg,,student-b1,STEM students,Fine Arts students,sub-93,1.0,,1.0,,0.501875 0.5009375 0.4971875 0.4859375 0.4728125 0.4175 0.374375 0.30125 0.2375 0.1878125 0.15500000000000005 0.14187500000000006 0.13906250000000006 0.13718750000000002 0.13625000000000004 0.13625000000000004 0.13625000000000004 0.13625000000000004 0.13625000000000004 0.13718750000000002 0.13718750000000002 0.13718750000000002 0.13812500000000005 0.13812500000000005 0.13812500000000005 0.13812500000000005 0.13812500000000005 0.13906250000000006 0.14,0.8075 0.79125 0.7737499999999999 0.7424999999999999 0.7125 0.6125 0.5425 0.43875 0.35250000000000004 0.26875000000000004 0.21 0.18999999999999995 0.18625000000000005 0.18500000000000005 0.18500000000000005 0.18500000000000005 0.18500000000000005 0.18500000000000005 0.18500000000000005 0.18375 0.18375 0.1825 0.1825 0.1825 0.1825 0.1825 0.1825 0.1825 0.18125,549.5999999999766 569.5999999999766 589.5999999999766 609.5999999999766 629.5999999999766 649.5999999999766 669.5999999999766 689.5999999999766 709.5999999999766 729.5999999999766 749.5999999999766 769.5999999999766 789.5999999999766 809.5999999999766 829.5999999999766 849.5999999999766 869.5999999999766 889.5999999999766 909.5999999999766 929.5999999999766 949.5999999999766 969.5999999999766 989.5999999999766 1009.5999999999766 1029.5999999999767 1049.5999999999767 1069.5999999999767 1089.5999999999767 1109.5999999999767
cb_07,46.0,enc_trial,stim,response,Fine Arts students,915.0,enc_trial,2.0,6.0,s_a_13_1,student_art,fold-e-single,violin,7.0,unique,,single,s_a_13_1.jpg,art,student-b1,STEM students,Fine Arts students,sub-93,1.0,,1.0,,0.5009375 0.4934375 0.4765625 0.445625 0.41 0.3621875 0.32937500000000003 0.28250000000000003 0.26093750000000004 0.25062500000000004 0.2478125 0.2440625 0.243125 0.24875000000000005 0.2628125 0.291875 0.44375 0.5375 0.711875 0.76625 0.8103125 0.8215625 0.8309375 0.8375 0.8440624999999999 0.8478125 0.8515625 0.854375,0.815 0.8 0.76 0.6875 0.61375 0.5275000000000001 0.47125 0.38 0.32625000000000004 0.29875 0.29000000000000004 0.27625 0.2725 0.25625 0.24250000000000005 0.2275000000000001 0.1875 0.17125 0.13124999999999998 0.115 0.09624999999999996 0.08999999999999997 0.08374999999999999 0.08125000000000004 0.07999999999999996 0.07999999999999996 0.08125000000000004 0.08125000000000004,366.2000000000117 386.2000000000117 406.2000000000117 426.2000000000117 446.2000000000117 466.2000000000117 486.2000000000117 506.2000000000117 526.2000000000116 546.2000000000116 566.2000000000116 586.2000000000116 606.2000000000116 626.2000000000116 646.2000000000116 666.2000000000116 686.2000000000116 706.2000000000116 726.2000000000116 746.2000000000116 766.2000000000116 786.2000000000116 806.2000000000116 826.2000000000116 846.2000000000116 866.2000000000116 886.2000000000116 906.2000000000116
cb_07,47.0,enc_trial,stim,response,Fine Arts students,869.2999999940512,enc_trial,2.0,7.0,s_sh_08_1,student_shared,fold-c-single,post-its,7.0,competing,,single,s_sh_08_1.jpg,,student-b1,STEM students,Fine Arts students,sub-93,1.0,,1.0,,0.49625 0.5178125 0.576875 0.66125 0.71 0.786875 0.81875 0.845 0.8609375 0.87125 0.8740625 0.8759374999999999 0.876875 0.876875 0.876875 0.876875 0.876875 0.876875 0.876875 0.876875 0.876875 0.876875 0.8778125,0.82625 0.755 0.6325000000000001 0.51 0.44875 0.355 0.31000000000000005 0.265 0.23 0.2075 0.19499999999999995 0.18625000000000005 0.1825 0.18000000000000005 0.17874999999999994 0.1775 0.1775 0.17374999999999996 0.16374999999999995 0.15874999999999995 0.15375000000000005 0.15249999999999994 0.15000000000000002,424.7999999999884 444.7999999999884 464.7999999999884 484.7999999999884 504.7999999999884 524.7999999999884 544.7999999999884 564.7999999999884 584.7999999999884 604.7999999999884 624.7999999999884 644.7999999999884 664.7999999999884 684.7999999999884 704.7999999999884 724.7999999999884 744.7999999999884 764.7999999999884 784.7999999999884 804.7999999999884 824.7999999999884 844.7999999999884 864.7999999999884
cb_07,48.0,enc_trial,stim,response,Fine Arts students,1064.699999988079,enc_trial,2.0,8.0,s_sh_23_2,student_shared,fold-a,ballpoint pen,7.0,competing,close,paired,s_sh_23_2.jpg,,student-b1,STEM students,Fine Arts students,sub-93,1.0,1.0,0.0,0.0,0.4784375 0.45125 0.42875 0.4203125 0.415625 0.4128125 0.4090625 0.400625 0.3940625 0.389375 0.385625 0.38 0.378125 0.395 0.423125 0.47 0.62 0.7006249999999999 0.8009375 0.8234374999999999 0.8365625 0.84875 0.8524999999999999 0.8553124999999999 0.85625 0.85625 0.8571875 0.858125 0.858125 0.86,0.8049999999999999 0.7525 0.7050000000000001 0.67625 0.655 0.635 0.6174999999999999 0.5925 0.5725 0.5425 0.51875 0.47625 0.4612500000000001 0.4125 0.38125 0.345 0.2675 0.24125 0.2125 0.20625000000000004 0.2025 0.19499999999999995 0.1925 0.18500000000000005 0.1825 0.18000000000000005 0.1775 0.17625000000000002 0.17500000000000004 0.1725,466.09999999997666 486.09999999997666 506.09999999997666 526.0999999999766 546.0999999999766 566.0999999999767 586.0999999999767 606.0999999999767 626.0999999999767 646.0999999999767 666.0999999999767 686.0999999999767 706.0999999999768 726.0999999999768 746.0999999999768 766.0999999999768 786.0999999999768 806.0999999999768 826.0999999999768 846.0999999999768 866.0999999999768 886.0999999999768 906.0999999999768 926.0999999999768 946.0999999999768 966.0999999999768 986.0999999999768 1006.0999999999768 1026.0999999999767 1046.0999999999767
cb_07,49.0,enc_trial,stim,response,Fine Arts students,1032.5999999999767,enc_trial,2.0,9.0,s_a_12_2,student_art,fold-c,saxophone,7.0,unique,close,paired,s_a_12_2.jpg,art,student-b1,STEM students,Fine Arts students,sub-93,1.0,1.0,1.0,1.0,0.501875 0.4934375 0.479375 0.468125 0.4653125 0.4653125 0.46625 0.464375 0.4625 0.4653125 0.475625 0.528125 0.580625 0.695 0.734375 0.7559374999999999 0.78125 0.7878125 0.7999999999999999 0.8056249999999999 0.81125 0.8159375 0.8196875 0.8225 0.824375,0.825 0.7925 0.74 0.6837500000000001 0.6575 0.615 0.58375 0.5575 0.54125 0.52125 0.495 0.415 0.36 0.26125 0.23125 0.21625000000000005 0.19625000000000006 0.1925 0.18999999999999995 0.18875 0.1875 0.1875 0.18500000000000005 0.18375 0.18125,541.0999999999766 561.0999999999766 581.0999999999766 601.0999999999766 621.0999999999766 641.0999999999766 661.0999999999766 681.0999999999766 701.0999999999766 721.0999999999766 741.0999999999766 761.0999999999766 781.0999999999766 801.0999999999766 821.0999999999766 841.0999999999766 861.0999999999766 881.0999999999766 901.0999999999766 921.0999999999766 941.0999999999766 961.0999999999766 981.0999999999766 1001.0999999999766 1021.0999999999766
cb_07,50.0,enc_trial,stim,response,STEM students,890.7000000000116,enc_trial,2.0,10.0,s_s_11_1,student_stem,fold-d,scientific scale,7.0,unique,far,paired,s_s_11_1.jpg,stem,student-b1,STEM students,Fine Arts students,sub-93,1.0,1.0,1.0,1.0,0.4990625 0.49625 0.494375 0.490625 0.48875 0.4896875 0.4990625 0.513125 0.53375 0.539375 0.53375 0.516875 0.4625 0.374375 0.314375 0.215 0.1878125 0.16812500000000002 0.15968750000000004 0.156875 0.15500000000000005 0.153125 0.14937500000000006 0.13437500000000002 0.12968750000000004 0.12500000000000006,0.8362499999999999 0.8025 0.7775 0.735 0.72 0.69 0.6487499999999999 0.6074999999999999 0.5587500000000001 0.5425 0.515 0.4925000000000001 0.44 0.37 0.3175 0.21750000000000005 0.18625000000000005 0.16749999999999998 0.15874999999999995 0.15749999999999995 0.15625 0.15500000000000005 0.15249999999999994 0.14375000000000004 0.14125 0.14,366.2999999999884 386.2999999999884 406.2999999999884 426.2999999999884 446.2999999999884 466.2999999999884 486.2999999999884 506.2999999999884 526.2999999999884 546.2999999999884 566.2999999999884 586.2999999999884 606.2999999999884 626.2999999999884 646.2999999999884 666.2999999999884 686.2999999999884 706.2999999999884 726.2999999999884 746.2999999999884 766.2999999999884 786.2999999999884 806.2999999999884 826.2999999999884 846.2999999999884 866.2999999999884
cb_07,51.0,enc_trial,stim,response,STEM students,1312.7999999999886,enc_trial,2.0,11.0,s_sh_22_1,student_shared,fold-c-single,hole puncher,7.0,competing,,single,s_sh_22_1.jpg,,student-b1,STEM students,Fine Arts students,sub-93,1.0,,1.0,,0.5 0.4990625 0.485 0.4446875 0.4015625 0.340625 0.29281250000000003 0.27406250000000004 0.2675 0.26656250000000004 0.26656250000000004 0.26656250000000004 0.26656250000000004 0.26656250000000004 0.26656250000000004 0.26656250000000004 0.26656250000000004 0.26656250000000004 0.26656250000000004 0.26656250000000004 0.26656250000000004 0.26656250000000004 0.26656250000000004 0.26656250000000004 0.26656250000000004 0.26656250000000004 0.26656250000000004 0.254375 0.23187500000000005 0.2140625 0.20187500000000005 0.19531250000000008 0.1925000000000001 0.18875000000000008 0.1896875 0.19625 0.20375 0.21218750000000008 0.21875000000000008 0.21875000000000008 0.2075 0.1971875 0.18125 0.17468750000000002,0.83 0.8200000000000001 0.7775 0.6637500000000001 0.54125 0.35750000000000004 0.2075 0.13375000000000006 0.10499999999999997 0.10250000000000004 0.10250000000000004 0.10250000000000004 0.10250000000000004 0.10250000000000004 0.10250000000000004 0.10250000000000004 0.10250000000000004 0.10250000000000004 0.10250000000000004 0.10250000000000004 0.10250000000000004 0.10250000000000004 0.10250000000000004 0.10250000000000004 0.10250000000000004 0.10250000000000004 0.10250000000000004 0.11 0.125 0.135 0.14 0.14249999999999996 0.14249999999999996 0.14749999999999994 0.14749999999999994 0.15000000000000002 0.15249999999999994 0.15375000000000005 0.15500000000000005 0.15500000000000005 0.15249999999999994 0.15125 0.15000000000000002 0.15125,441.59999999997666 461.59999999997666 481.59999999997666 501.59999999997666 521.5999999999766 541.5999999999766 561.5999999999766 581.5999999999767 601.5999999999767 621.5999999999767 641.5999999999767 661.5999999999767 681.5999999999767 701.5999999999768 721.5999999999768 741.5999999999768 761.5999999999768 781.5999999999768 801.5999999999768 821.5999999999768 841.5999999999768 861.5999999999768 881.5999999999768 901.5999999999768 921.5999999999768 941.5999999999768 961.5999999999768 981.5999999999768 1001.5999999999768 1021.5999999999768 1041.5999999999767 1061.5999999999767 1081.5999999999767 1101.5999999999767 1121.5999999999767 1141.5999999999767 1161.5999999999767 1181.5999999999767 1201.5999999999767 1221.5999999999767 1241.5999999999767 1261.5999999999767 1281.5999999999767 1301.5999999999767
cb_07,52.0,enc_trial,stim,response,STEM students,1149.4000000059605,enc_trial,2.0,12.0,s_s_14_1,student_stem,fold-e-single,funnel,7.0,unique,,single,s_s_14_1.jpg,stem,student-b1,STEM students,Fine Arts students,sub-93,1.0,,1.0,,0.505625 0.509375 0.509375 0.51125 0.51125 0.520625 0.5290625 0.5478125 0.57125 0.605 0.6940625 0.730625 0.756875 0.76625 0.768125 0.7634375 0.685625 0.5946875 0.4146875 0.3425 0.2525 0.23375 0.224375 0.21875000000000008 0.2178125 0.2159375000000001 0.2103125 0.1990625000000001 0.18875000000000008 0.18500000000000005 0.18125 0.17937500000000006 0.17562500000000006 0.16437500000000002 0.14937500000000006,0.8275 0.815 0.80875 0.7975 0.79375 0.76 0.7324999999999999 0.67125 0.61 0.55125 0.41875 0.365 0.31999999999999995 0.30000000000000004 0.2925 0.29000000000000004 0.28500000000000003 0.28500000000000003 0.2725 0.265 0.25 0.24875000000000005 0.24875000000000005 0.24750000000000005 0.24750000000000005 0.24 0.225 0.19875 0.1725 0.16249999999999998 0.15249999999999994 0.15125 0.15000000000000002 0.14749999999999994 0.14125,458.2999999999884 478.2999999999884 498.2999999999884 518.2999999999884 538.2999999999884 558.2999999999884 578.2999999999884 598.2999999999884 618.2999999999884 638.2999999999884 658.2999999999884 678.2999999999884 698.2999999999884 718.2999999999884 738.2999999999884 758.2999999999884 778.2999999999884 798.2999999999884 818.2999999999884 838.2999999999884 858.2999999999884 878.2999999999884 898.2999999999884 918.2999999999884 938.2999999999884 958.2999999999884 978.2999999999884 998.2999999999884 1018.2999999999884 1038.2999999999884 1058.2999999999884 1078.2999999999884 1098.2999999999884 1118.2999999999884 1138.2999999999886
cb_07,53.0,enc_trial,stim,response,STEM students,1074.5,enc_trial,2.0,13.0,s_sh_11_1,student_shared,fold-b,pencil case,7.0,competing,far,paired,s_sh_11_1.jpg,,student-b1,STEM students,Fine Arts students,sub-93,1.0,1.0,0.0,1.0,0.490625 0.4775 0.47 0.4446875 0.438125 0.411875 0.39875 0.3875 0.3725 0.36875 0.36875 0.3715625 0.374375 0.37625 0.37625 0.374375 0.3715625 0.36875 0.366875 0.3575 0.3359375 0.2946875 0.258125 0.215 0.2 0.186875 0.1840625 0.18218750000000009 0.17937500000000006 0.17562500000000006 0.16718750000000002 0.16250000000000006 0.15500000000000005 0.15125000000000002 0.14937500000000006,0.8275 0.7925 0.77 0.7050000000000001 0.6912499999999999 0.63 0.605 0.58125 0.5449999999999999 0.5375 0.53 0.5237499999999999 0.5075000000000001 0.49 0.4662500000000001 0.4375 0.41875 0.38625 0.36 0.34125000000000005 0.32125000000000004 0.29125 0.2675 0.235 0.22124999999999995 0.21 0.2075 0.205 0.2025 0.20125000000000004 0.1925 0.18500000000000005 0.17874999999999994 0.17500000000000004 0.1725,383.40000000002334 403.40000000002334 423.40000000002334 443.40000000002334 463.40000000002334 483.40000000002334 503.40000000002334 523.4000000000234 543.4000000000234 563.4000000000233 583.4000000000233 603.4000000000233 623.4000000000233 643.4000000000233 663.4000000000233 683.4000000000233 703.4000000000232 723.4000000000232 743.4000000000232 763.4000000000232 783.4000000000232 803.4000000000232 823.4000000000232 843.4000000000232 863.4000000000232 883.4000000000232 903.4000000000232 923.4000000000232 943.4000000000232 963.4000000000232 983.4000000000232 1003.4000000000232 1023.4000000000232 1043.4000000000233 1063.4000000000233
cb_07,54.0,enc_trial,stim,response,STEM students,1096.7000000000116,enc_trial,2.0,14.0,s_sh_24_1,student_shared,fold-b,desk organizer,7.0,competing,far,paired,s_sh_24_1.jpg,,student-b1,STEM students,Fine Arts students,sub-93,1.0,1.0,1.0,0.0,0.5178125 0.5178125 0.516875 0.516875 0.516875 0.516875 0.516875 0.516875 0.516875 0.5159375 0.5159375 0.5159375 0.5159375 0.515 0.513125 0.509375 0.515 0.524375 0.528125 0.53 0.53 0.524375 0.490625 0.423125 0.32 0.2684375 0.21875000000000008 0.21125 0.20843750000000005 0.20843750000000005 0.2075 0.2075 0.2075 0.2075 0.2075 0.2075 0.2075 0.2075 0.2075 0.2075 0.2075 0.186875 0.16437500000000002 0.13812500000000005 0.13625000000000004,0.815 0.815 0.815 0.815 0.815 0.815 0.815 0.815 0.815 0.815 0.81375 0.8125 0.81 0.7725 0.735 0.6275 0.49625 0.39 0.34750000000000003 0.33 0.3275 0.33 0.3425 0.345 0.31000000000000005 0.275 0.23 0.2225000000000001 0.22 0.22 0.21875 0.21750000000000005 0.21750000000000005 0.21750000000000005 0.21750000000000005 0.21750000000000005 0.21750000000000005 0.21750000000000005 0.21750000000000005 0.21750000000000005 0.21750000000000005 0.19875 0.18000000000000005 0.15625 0.15249999999999994,216.60000000003487 236.60000000003487 256.60000000003487 276.60000000003487 296.60000000003487 316.60000000003487 336.60000000003487 356.60000000003487 376.60000000003487 396.60000000003487 416.60000000003487 436.60000000003487 456.60000000003487 476.60000000003487 496.60000000003487 516.6000000000348 536.6000000000348 556.6000000000348 576.6000000000348 596.6000000000348 616.6000000000348 636.6000000000348 656.6000000000348 676.6000000000348 696.6000000000349 716.6000000000349 736.6000000000349 756.6000000000349 776.6000000000349 796.6000000000349 816.6000000000349 836.6000000000349 856.6000000000349 876.6000000000349 896.6000000000349 916.6000000000348 936.6000000000348 956.6000000000348 976.6000000000348 996.6000000000348 1016.6000000000348 1036.600000000035 1056.600000000035 1076.600000000035 1096.600000000035
cb_07,55.0,enc_trial,stim,response,Fine Arts students,795.1999999880791,enc_trial,2.0,15.0,s_a_06_1,student_art,fold-d,pastels,7.0,unique,far,paired,s_a_06_1.jpg,art,student-b1,STEM students,Fine Arts students,sub-93,1.0,1.0,1.0,1.0,0.4990625 0.494375 0.494375 0.5075 0.524375 0.5534375 0.6321875 0.693125 0.768125 0.786875 0.81875 0.83375 0.84875 0.86 0.86375 0.8665625 0.8674999999999999 0.8721875 0.8825 0.89 0.895625 0.8975 0.8975 0.8975,0.8225 0.7375 0.7050000000000001 0.59875 0.55 0.50875 0.44 0.4 0.35250000000000004 0.33625000000000005 0.30875 0.29500000000000004 0.28 0.265 0.25375000000000003 0.24 0.235 0.22375 0.2075 0.19875 0.18999999999999995 0.18500000000000005 0.18000000000000005 0.17500000000000004,333.29999999998836 353.2999999999884 373.2999999999884 393.2999999999884 413.2999999999884 433.2999999999884 453.2999999999884 473.2999999999884 493.2999999999884 513.2999999999884 533.2999999999884 553.2999999999884 573.2999999999884 593.2999999999884 613.2999999999884 633.2999999999884 653.2999999999884 673.2999999999884 693.2999999999884 713.2999999999884 733.2999999999884 753.2999999999884 773.2999999999884 793.2999999999884
cb_07,56.0,enc_trial,stim,response,STEM students,1023.0999999940396,enc_trial,2.0,16.0,s_s_03_1,student_stem,fold-e-single,petri dish,7.0,unique,,single,s_s_03_1.jpg,stem,student-b1,STEM students,Fine Arts students,sub-93,1.0,,1.0,,0.505625 0.505625 0.5075 0.51125 0.5075 0.5028125 0.49625 0.494375 0.4925 0.490625 0.48875 0.48125 0.46625 0.3565625 0.288125 0.1925000000000001 0.17281250000000006 0.16250000000000006 0.15031250000000002 0.14562500000000006 0.1334375 0.12968750000000004 0.12968750000000004 0.12968750000000004 0.12968750000000004 0.12968750000000004 0.12968750000000004 0.12968750000000004 0.12968750000000004 0.12968750000000004 0.12968750000000004 0.12500000000000006 0.11937500000000002 0.11937500000000002,0.8049999999999999 0.7275 0.6074999999999999 0.5137499999999999 0.455 0.4325 0.42375 0.42125 0.405 0.39375 0.38375 0.3775 0.36875 0.32125000000000004 0.2925 0.24375 0.23125 0.2225000000000001 0.215 0.2125 0.2 0.19499999999999995 0.19499999999999995 0.19499999999999995 0.19499999999999995 0.19499999999999995 0.19499999999999995 0.19499999999999995 0.19499999999999995 0.19499999999999995 0.19499999999999995 0.16749999999999998 0.13749999999999996 0.13249999999999995,366.2999999999884 386.2999999999884 406.2999999999884 426.2999999999884 446.2999999999884 466.2999999999884 486.2999999999884 506.2999999999884 526.2999999999884 546.2999999999884 566.2999999999884 586.2999999999884 606.2999999999884 626.2999999999884 646.2999999999884 666.2999999999884 686.2999999999884 706.2999999999884 726.2999999999884 746.2999999999884 766.2999999999884 786.2999999999884 806.2999999999884 826.2999999999884 846.2999999999884 866.2999999999884 886.2999999999884 906.2999999999884 926.2999999999884 946.2999999999884 966.2999999999884 986.2999999999884 1006.2999999999884 1026.2999999999884
cb_07,57.0,enc_trial,stim,response,STEM students,744.7000000000116,enc_trial,2.0,17.0,s_s_20_2,student_stem,fold-d,dna model,7.0,unique,far,paired,s_s_20_2.jpg,stem,student-b1,STEM students,Fine Arts students,sub-93,1.0,1.0,1.0,1.0,0.5075 0.49625 0.4925 0.4896875 0.4896875 0.48875 0.48875 0.48875 0.4878125 0.4878125 0.4878125 0.4878125 0.4878125 0.4878125 0.4878125 0.4878125 0.4878125 0.4878125 0.47 0.434375 0.3884375 0.35375 0.32 0.2646875 0.2393750000000001 0.2103125 0.186875 0.17375000000000002 0.15218750000000006 0.1465625 0.13812500000000005 0.13250000000000006 0.12218750000000005 0.11000000000000004 0.10437500000000002,0.82375 0.735 0.68125 0.615 0.59625 0.58875 0.585 0.585 0.5875 0.5875 0.5875 0.5875 0.5875 0.5875 0.5875 0.5875 0.5875 0.5875 0.51125 0.39 0.2975 0.25 0.225 0.19499999999999995 0.18125 0.16249999999999998 0.14249999999999996 0.12875000000000006 0.11250000000000004 0.11 0.10875 0.10875 0.10499999999999997 0.09999999999999998 0.09999999999999998,50.0 70.0 90.0 110.0 130.0 150.0 170.0 190.0 210.0 230.0 250.0 270.0 290.0 310.0 330.0 350.0 370.0 390.0 410.0 430.0 450.0 470.0 490.0 510.0 530.0 550.0 570.0 590.0 610.0 630.0 650.0 670.0 690.0 710.0 730.0
cb_07,58.0,enc_trial,stim,response,Fine Arts students,995.1999999880792,enc_trial,2.0,18.0,s_a_14_1,student_art,fold-c,guitar pick,7.0,unique,close,paired,s_a_14_1.jpg,art,student-b1,STEM students,Fine Arts students,sub-93,1.0,1.0,1.0,1.0,0.49625 0.4784375 0.4540625 0.400625 0.378125 0.34625 0.340625 0.3378125 0.33687500000000004 0.33687500000000004 0.33687500000000004 0.33687500000000004 0.33687500000000004 0.33687500000000004 0.33687500000000004 0.33687500000000004 0.33687500000000004 0.33687500000000004 0.33687500000000004 0.33687500000000004 0.33687500000000004 0.33687500000000004 0.33687500000000004 0.3340625 0.333125 0.35375 0.381875 0.47 0.5759375 0.665 0.7062499999999999 0.760625 0.7765624999999999 0.7943749999999999 0.8159375 0.8375 0.850625 0.8524999999999999 0.85625 0.858125 0.86,0.80625 0.75375 0.6699999999999999 0.48 0.3975 0.29875 0.28 0.27125 0.27125 0.27125 0.27125 0.27125 0.27125 0.27125 0.27125 0.27125 0.27125 0.27125 0.27125 0.27125 0.27125 0.27125 0.27125 0.27 0.26625 0.25 0.235 0.19499999999999995 0.15874999999999995 0.13624999999999998 0.12875000000000006 0.12250000000000005 0.12124999999999996 0.12250000000000005 0.12250000000000005 0.12124999999999996 0.12 0.11875000000000002 0.11750000000000005 0.11750000000000005 0.11624999999999995,199.5 219.5 239.5 259.5 279.5 299.5 319.5 339.5 359.5 379.5 399.5 419.5 439.5 459.5 479.5 499.5 519.5 539.5 559.5 579.5 599.5 619.5 639.5 659.5 679.5 699.5 719.5 739.5 759.5 779.5 799.5 819.5 839.5 859.5 879.5 899.5 919.5 939.5 959.5 979.5 999.5
