Current Spreadsheet,Trial Number,Display,Screen,Response Type,Response,Reaction Time,display,block,block_trial,stimulus_id,expected_goal,fold,stimulus_name,c_group,condition,within_block_dist,paired_status,stimulus_path,expected_location,block_split,respStim_1,respStim_2,sub_label,acc,both_enc_acc,assoc_stim1_acc,assoc_stim2_acc,x_pos,y_pos,time_trajectories
cb_08,1.0,enc_trial,stim,response,STEM students,1073.7999996185242,enc_trial,1.0,1.0,s_s_11_1,student_stem,fold-d,scientific scale,8.0,unique,close,paired,s_s_11_1.jpg,stem,student-b1,STEM students,Fine Arts students,sub-98,1.0,1.0,1.0,1.0,0.5020833333333333 0.5034722222222222 0.5076388888888889 0.5083333333333333 0.5090277777777777 0.5090277777777777 0.5097222222222222 0.5097222222222222 0.5097222222222222 0.5097222222222222 0.5104166666666666 0.5118055555555555 0.5118055555555555 0.5138888888888888 0.5138888888888888 0.5138888888888888 0.5138888888888888 0.5138888888888888 0.5145833333333333 0.5145833333333333 0.5152777777777777 0.5166666666666667 0.5173611111111112 0.5173611111111112 0.5180555555555556 0.51875 0.5194444444444445 0.5215277777777778 0.5236111111111111 0.5256944444444445 0.5256944444444445 0.5270833333333333 0.5208333333333334 0.5076388888888889 0.4659722222222222 0.4444444444444444 0.40208333333333335 0.3770833333333333 0.3159722222222222 0.28402777777777777 0.2569444444444444 0.21319444444444444 0.19652777777777766 0.19166666666666668 0.18472222222222226 0.17847222222222225 0.16527777777777775 0.15694444444444444 0.1423611111111111 0.13819444444444445 0.1361111111111111 0.13472222222222222 0.13402777777777775 0.13333333333333333,0.8333333333333334 0.8333333333333334 0.8333333333333334 0.8333333333333334 0.8333333333333334 0.8333333333333334 0.8333333333333334 0.8333333333333334 0.8333333333333334 0.8333333333333334 0.8333333333333334 0.8333333333333334 0.8333333333333334 0.8333333333333334 0.8333333333333334 0.8333333333333334 0.8333333333333334 0.8333333333333334 0.8333333333333334 0.8333333333333334 0.8333333333333334 0.8333333333333334 0.8333333333333334 0.8333333333333334 0.8333333333333334 0.8324074074074074 0.8314814814814815 0.8240740740740741 0.8157407407407408 0.7824074074074074 0.7203703703703703 0.6777777777777778 0.5629629629629629 0.4851851851851852 0.337037037037037 0.28148148148148144 0.20092592592592595 0.17592592592592593 0.14814814814814814 0.1435185185185185 0.13981481481481484 0.125 0.1166666666666667 0.1148148148148148 0.1148148148148148 0.11759259259259258 0.12592592592592589 0.13148148148148153 0.13981481481481484 0.14074074074074072 0.14166666666666672 0.1435185185185185 0.1435185185185185 0.1435185185185185,13.299999999988358 33.29999999998836 53.29999999998836 73.29999999998836 93.29999999998836 113.29999999998836 133.29999999998836 153.2999999999884 173.29999999998836 193.29999999998842 213.29999999998842 233.29999999998842 253.29999999998842 273.2999999999884 293.29999999998836 313.29999999998836 333.29999999998836 353.2999999999884 373.2999999999884 393.2999999999884 413.2999999999884 433.2999999999884 453.2999999999884 473.2999999999884 493.2999999999884 513.2999999999884 533.2999999999884 553.2999999999884 573.2999999999884 593.2999999999884 613.2999999999884 633.2999999999884 653.2999999999884 673.2999999999884 693.2999999999884 713.2999999999884 733.2999999999884 753.2999999999884 773.2999999999884 793.2999999999884 813.2999999999884 833.2999999999884 853.2999999999884 873.2999999999884 893.2999999999884 913.2999999999884 933.2999999999884 953.2999999999884 973.2999999999884 993.2999999999884 1013.2999999999884 1033.2999999999884 1053.2999999999884 1073.2999999999884
cb_08,2.0,enc_trial,stim,response,STEM students,1402.499999618536,enc_trial,1.0,2.0,s_s_15_1,student_stem,fold-c,jumper cables,8.0,unique,far,paired,s_s_15_1.jpg,stem,student-b1,STEM students,Fine Arts students,sub-98,1.0,1.0,1.0,0.0,0.5138888888888888 0.5159722222222223 0.5166666666666667 0.5173611111111112 0.51875 0.5194444444444445 0.5201388888888889 0.5201388888888889 0.5215277777777778 0.5222222222222223 0.5222222222222223 0.5229166666666667 0.5229166666666667 0.5229166666666667 0.5243055555555556 0.5243055555555556 0.5263888888888889 0.5270833333333333 0.5298611111111111 0.5326388888888889 0.5402777777777777 0.5458333333333333 0.5611111111111111 0.575 0.6111111111111112 0.6347222222222222 0.675 0.6923611111111111 0.7201388888888889 0.7326388888888888 0.7555555555555555 0.7652777777777777 0.7868055555555555 0.7979166666666667 0.8131944444444444 0.81875 0.825 0.825 0.8131944444444444 0.8048611111111111 0.7881944444444444 0.7805555555555556 0.7576388888888889 0.7423611111111111 0.7069444444444445 0.6868055555555556 0.63125 0.5958333333333333 0.55625 0.4833333333333333 0.4298611111111112 0.3979166666666665 0.3423611111111111 0.30972222222222223 0.2590277777777778 0.2381944444444445 0.22083333333333333 0.1909722222222222 0.18055555555555555 0.16319444444444445 0.1527777777777778 0.12916666666666668 0.12083333333333332 0.11527777777777776,0.8324074074074074 0.8342592592592593 0.8351851851851853 0.8361111111111111 0.837037037037037 0.837962962962963 0.837962962962963 0.8388888888888889 0.8407407407407408 0.8416666666666667 0.8425925925925926 0.8425925925925926 0.8444444444444444 0.8444444444444444 0.8444444444444444 0.8453703703703703 0.8462962962962963 0.8462962962962963 0.8472222222222222 0.8462962962962963 0.8407407407407408 0.837037037037037 0.8268518518518518 0.8166666666666667 0.7898148148148147 0.7731481481481481 0.7398148148148148 0.7212962962962963 0.6851851851851851 0.6657407407407407 0.6166666666666667 0.5907407407407408 0.5407407407407407 0.5101851851851852 0.4537037037037037 0.4268518518518518 0.3759259259259259 0.35185185185185186 0.3055555555555556 0.2851851851851852 0.2509259259259259 0.2379629629629629 0.21018518518518514 0.1962962962962963 0.17407407407407405 0.16759259259259265 0.16388888888888886 0.16388888888888886 0.16296296296296298 0.1620370370370371 0.1601851851851852 0.1601851851851852 0.1611111111111111 0.1620370370370371 0.16388888888888886 0.16388888888888886 0.1611111111111111 0.15648148148148144 0.15370370370370368 0.1518518518518519 0.1509259259259259 0.15000000000000002 0.15000000000000002 0.15000000000000002,93.30000000000292 113.30000000000292 133.3000000000029 153.3000000000029 173.3000000000029 193.3000000000029 213.3000000000029 233.3000000000029 253.3000000000029 273.3000000000029 293.30000000000285 313.30000000000285 333.30000000000285 353.3000000000029 373.3000000000029 393.3000000000029 413.3000000000029 433.3000000000029 453.3000000000029 473.3000000000029 493.3000000000029 513.3000000000029 533.3000000000029 553.3000000000029 573.3000000000029 593.3000000000029 613.3000000000029 633.3000000000029 653.3000000000029 673.3000000000029 693.3000000000029 713.3000000000029 733.3000000000029 753.3000000000029 773.3000000000029 793.3000000000029 813.3000000000029 833.3000000000029 853.3000000000029 873.3000000000029 893.3000000000029 913.3000000000028 933.3000000000028 953.3000000000028 973.3000000000028 993.3000000000028 1013.3000000000028 1033.3000000000031 1053.3000000000031 1073.3000000000031 1093.3000000000031 1113.3000000000031 1133.3000000000031 1153.3000000000031 1173.3000000000031 1193.3000000000031 1213.3000000000031 1233.3000000000031 1253.3000000000031 1273.3000000000031 1293.3000000000031 1313.3000000000031 1333.3000000000031 1353.3000000000031
cb_08,3.0,enc_trial,stim,response,Fine Arts students,2408.2999997138973,enc_trial,1.0,3.0,s_sh_24_1,student_shared,fold-b-single,desk organizer,8.0,competing,,single,s_sh_24_1.jpg,,student-b1,STEM students,Fine Arts students,sub-98,1.0,,1.0,,0.5041666666666667 0.5055555555555555 0.5090277777777777 0.5104166666666666 0.5118055555555555 0.5159722222222223 0.5208333333333334 0.5347222222222222 0.54375 0.5569444444444445 0.5673611111111111 0.5756944444444444 0.6055555555555555 0.6263888888888889 0.6458333333333334 0.675 0.7069444444444445 0.7270833333333333 0.7930555555555555 0.8277777777777777 0.8576388888888888 0.8958333333333334 0.9243055555555556 0.9423611111111112 0.9777777777777776 0.9902777777777778 1.0027777777777778 1.0048611111111112 1.0013888888888889 0.9965277777777778 0.975 0.9604166666666668 0.9409722222222222 0.9340277777777778 0.9291666666666668 0.9277777777777778 0.9263888888888888 0.9222222222222224 0.91875 0.9069444444444444 0.8986111111111111 0.8888888888888888 0.8881944444444444 0.8881944444444444 0.8881944444444444 0.8881944444444444 0.8881944444444444 0.8881944444444444 0.8881944444444444 0.8875 0.8868055555555555 0.8868055555555555 0.8861111111111111 0.8861111111111111 0.8861111111111111 0.8861111111111111 0.8861111111111111 0.8861111111111111 0.8861111111111111 0.8861111111111111 0.8861111111111111 0.8861111111111111 0.8861111111111111 0.8861111111111111 0.8861111111111111 0.8861111111111111 0.8861111111111111 0.8861111111111111 0.8861111111111111 0.8861111111111111 0.8861111111111111 0.8861111111111111 0.8861111111111111 0.8861111111111111 0.8861111111111111 0.8861111111111111 0.8861111111111111 0.8861111111111111 0.8861111111111111 0.8861111111111111 0.8861111111111111 0.8868055555555555,0.837962962962963 0.8398148148148148 0.8435185185185186 0.8444444444444444 0.8453703703703703 0.8472222222222222 0.8481481481481481 0.8481481481481481 0.8481481481481481 0.8481481481481481 0.8481481481481481 0.8472222222222222 0.8388888888888889 0.8314814814814815 0.8240740740740741 0.8064814814814815 0.7833333333333333 0.7703703703703704 0.7296296296296296 0.7037037037037037 0.6777777777777778 0.6324074074074074 0.587037037037037 0.5490740740740739 0.437962962962963 0.3629629629629629 0.24629629629629635 0.2064814814814815 0.16296296296296298 0.15000000000000002 0.12685185185185188 0.11388888888888893 0.09629629629629632 0.0907407407407408 0.08611111111111114 0.08518518518518514 0.08425925925925926 0.08425925925925926 0.08425925925925926 0.08703703703703702 0.0907407407407408 0.09351851851851856 0.09537037037037033 0.09537037037037033 0.09537037037037033 0.09537037037037033 0.09537037037037033 0.09537037037037033 0.09537037037037033 0.09537037037037033 0.09629629629629632 0.0972222222222222 0.0981481481481481 0.09907407407407408 0.09907407407407408 0.09907407407407408 0.09907407407407408 0.09907407407407408 0.09907407407407408 0.09907407407407408 0.09907407407407408 0.09907407407407408 0.09907407407407408 0.09999999999999998 0.09999999999999998 0.09999999999999998 0.09999999999999998 0.10092592592592596 0.10092592592592596 0.10185185185185186 0.10185185185185186 0.10185185185185186 0.10185185185185186 0.10185185185185186 0.10185185185185186 0.10185185185185186 0.10185185185185186 0.10185185185185186 0.10185185185185186 0.10185185185185186 0.10185185185185186 0.10185185185185186,120.0 140.0 160.0 180.0 200.0 220.0 240.0 260.0 280.0 300.0 320.0 340.0 360.0 380.0 400.0 420.0 440.0 460.0 480.0 500.0 520.0 540.0 560.0 580.0 600.0 620.0 640.0 660.0 680.0 700.0 720.0 740.0 760.0 780.0 800.0 820.0 840.0 860.0 880.0 900.0 920.0 940.0 960.0 980.0 1000.0 1020.0 1040.0 1060.0 1080.0 1100.0 1120.0 1140.0 1160.0 1180.0 1200.0 1220.0 1240.0 1260.0 1280.0 1300.0 1320.0 1340.0 1360.0 1380.0 1400.0 1420.0 1440.0 1460.0 1480.0 1500.0 1520.0 1540.0 1560.0 1580.0 1600.0 1620.0 1640.0 1660.0 1680.0 1700.0 1720.0 1740.0
cb_08,4.0,enc_trial,stim,response,Fine Arts students,1653.3999999999942,enc_trial,1.0,4.0,s_sh_19_1,student_shared,fold-a,portable plastic drawer,8.0,competing,close,paired,s_sh_19_1.jpg,,student-b1,STEM students,Fine Arts students,sub-98,0.0,0.0,0.0,0.0,0.5284722222222222 0.5284722222222222 0.5291666666666667 0.5291666666666667 0.5291666666666667 0.5291666666666667 0.5326388888888889 0.5354166666666667 0.5375 0.5381944444444444 0.5381944444444444 0.5381944444444444 0.5381944444444444 0.5388888888888889 0.5388888888888889 0.5388888888888889 0.5388888888888889 0.5388888888888889 0.5388888888888889 0.5388888888888889 0.5388888888888889 0.5388888888888889 0.5388888888888889 0.5388888888888889 0.5381944444444444 0.5375 0.5354166666666667 0.5354166666666667 0.5340277777777778 0.5340277777777778 0.5340277777777778 0.5340277777777778 0.5444444444444444 0.5527777777777778 0.5833333333333334 0.6090277777777777 0.6791666666666667 0.7208333333333333 0.8027777777777778 0.84375 0.9048611111111112 0.9277777777777778 0.9506944444444444 0.9520833333333332 0.9430555555555556 0.9326388888888888 0.9173611111111112 0.9138888888888888 0.9076388888888888 0.9034722222222222 0.8923611111111112 0.8861111111111111 0.8770833333333333 0.8743055555555556 0.8722222222222222 0.8715277777777778 0.8715277777777778 0.8715277777777778 0.8715277777777778 0.8715277777777778 0.8715277777777778 0.8715277777777778 0.8715277777777778 0.8715277777777778 0.8708333333333333 0.8708333333333333,0.8342592592592593 0.8342592592592593 0.8342592592592593 0.8342592592592593 0.8342592592592593 0.8342592592592593 0.8342592592592593 0.8351851851851853 0.8361111111111111 0.8361111111111111 0.8361111111111111 0.837037037037037 0.837962962962963 0.837962962962963 0.837962962962963 0.837962962962963 0.837962962962963 0.837962962962963 0.837962962962963 0.837962962962963 0.837962962962963 0.837962962962963 0.837962962962963 0.837962962962963 0.8388888888888889 0.8388888888888889 0.8388888888888889 0.8388888888888889 0.8388888888888889 0.8388888888888889 0.8388888888888889 0.8388888888888889 0.8398148148148148 0.8398148148148148 0.837962962962963 0.8333333333333334 0.8111111111111111 0.7935185185185185 0.7398148148148148 0.6962962962962963 0.5935185185185186 0.5166666666666666 0.3583333333333333 0.29814814814814816 0.2305555555555555 0.20740740740740726 0.17222222222222228 0.1620370370370371 0.1509259259259259 0.14722222222222225 0.14074074074074072 0.13796296296296295 0.13611111111111107 0.1351851851851852 0.1342592592592593 0.1342592592592593 0.13240740740740742 0.13240740740740742 0.13240740740740742 0.13240740740740742 0.13240740740740742 0.13240740740740742 0.13240740740740742 0.13240740740740742 0.13240740740740742 0.1333333333333333,26.700000000011638 46.70000000001164 66.70000000001164 86.70000000001166 106.70000000001166 126.70000000001166 146.7000000000117 166.7000000000117 186.70000000001167 206.70000000001167 226.70000000001167 246.70000000001167 266.7000000000117 286.7000000000117 306.7000000000117 326.7000000000117 346.7000000000117 366.7000000000117 386.7000000000117 406.7000000000117 426.7000000000117 446.7000000000117 466.7000000000117 486.7000000000117 506.70000000001176 526.7000000000119 546.7000000000119 566.7000000000118 586.7000000000118 606.7000000000118 626.7000000000118 646.7000000000118 666.7000000000118 686.7000000000118 706.7000000000118 726.7000000000118 746.7000000000118 766.7000000000118 786.7000000000118 806.7000000000118 826.7000000000118 846.7000000000118 866.7000000000118 886.7000000000118 906.7000000000118 926.7000000000118 946.7000000000118 966.7000000000118 986.7000000000121 1006.7000000000121 1026.700000000012 1046.700000000012 1066.700000000012 1086.700000000012 1106.700000000012 1126.700000000012 1146.700000000012 1166.700000000012 1186.700000000012 1206.700000000012 1226.700000000012 1246.700000000012 1266.700000000012 1286.700000000012 1306.700000000012 1326.700000000012
cb_08,5.0,enc_trial,stim,response,STEM students,1113.499999809268,enc_trial,1.0,5.0,s_sh_12_1,student_shared,fold-b-single,binder,8.0,competing,,single,s_sh_12_1.jpg,,student-b1,STEM students,Fine Arts students,sub-98,1.0,,0.0,,0.5430555555555555 0.5486111111111112 0.5659722222222222 0.575 0.59375 0.6006944444444444 0.6097222222222223 0.6131944444444445 0.6138888888888889 0.6145833333333334 0.6173611111111111 0.6194444444444445 0.6222222222222222 0.6243055555555556 0.6256944444444444 0.6326388888888889 0.6472222222222223 0.6576388888888889 0.6895833333333333 0.7076388888888889 0.7423611111111111 0.7625 0.8034722222222223 0.8229166666666666 0.8513888888888889 0.8611111111111112 0.8833333333333333 0.8958333333333334 0.9180555555555556 0.9256944444444444 0.9375 0.9409722222222222 0.9402777777777778 0.9361111111111112 0.9145833333333332 0.9006944444444445 0.8597222222222223 0.83125 0.7222222222222222 0.6597222222222222 0.5097222222222222 0.4305555555555556 0.3076388888888889 0.2763888888888889 0.2513888888888889 0.2263888888888889 0.20972222222222225 0.20277777777777767 0.18472222222222226 0.17569444444444446 0.16875 0.16875 0.16875,0.8361111111111111 0.837962962962963 0.8416666666666667 0.8435185185185186 0.8481481481481481 0.8490740740740741 0.8518518518518519 0.8527777777777777 0.8537037037037037 0.8537037037037037 0.8555555555555556 0.8555555555555556 0.8555555555555556 0.8555555555555556 0.8555555555555556 0.85 0.8388888888888889 0.8333333333333334 0.8148148148148149 0.8046296296296296 0.7861111111111111 0.775 0.7462962962962962 0.7305555555555556 0.700925925925926 0.6879629629629629 0.6509259259259259 0.6324074074074074 0.5842592592592593 0.5592592592592592 0.5055555555555555 0.4777777777777778 0.412962962962963 0.3805555555555555 0.3138888888888889 0.2953703703703704 0.2601851851851852 0.24537037037037035 0.21851851851851856 0.20925925925925928 0.1962962962962963 0.18888888888888888 0.17222222222222228 0.16574074074074074 0.1592592592592592 0.1518518518518519 0.14814814814814814 0.14814814814814814 0.15462962962962967 0.15833333333333333 0.1611111111111111 0.1611111111111111 0.1620370370370371,26.69999999999709 46.69999999999709 66.69999999999709 86.6999999999971 106.69999999999708 126.69999999999708 146.6999999999971 166.6999999999971 186.6999999999971 206.6999999999971 226.6999999999971 246.6999999999971 266.6999999999971 286.69999999999715 306.69999999999715 326.69999999999715 346.6999999999971 366.6999999999971 386.6999999999971 406.6999999999971 426.6999999999971 446.6999999999971 466.6999999999971 486.6999999999971 506.6999999999971 526.6999999999971 546.6999999999971 566.6999999999971 586.6999999999971 606.6999999999971 626.6999999999971 646.6999999999971 666.6999999999971 686.6999999999971 706.6999999999971 726.6999999999971 746.6999999999971 766.6999999999971 786.6999999999971 806.6999999999971 826.6999999999971 846.6999999999971 866.6999999999971 886.6999999999971 906.6999999999972 926.6999999999972 946.6999999999972 966.6999999999972 986.6999999999972 1006.6999999999972 1026.6999999999969 1046.6999999999969 1066.6999999999969
cb_08,6.0,enc_trial,stim,response,STEM students,1070.3000000000031,enc_trial,1.0,6.0,s_s_19_1,student_stem,fold-c,circuit board,8.0,unique,far,paired,s_s_19_1.jpg,stem,student-b1,STEM students,Fine Arts students,sub-98,1.0,1.0,1.0,1.0,0.5152777777777777 0.5166666666666667 0.51875 0.5208333333333334 0.5236111111111111 0.525 0.5256944444444445 0.5256944444444445 0.5263888888888889 0.5284722222222222 0.5375 0.5444444444444444 0.5604166666666667 0.5763888888888888 0.6152777777777778 0.6388888888888888 0.6791666666666667 0.6944444444444444 0.7229166666666667 0.7368055555555556 0.7729166666666667 0.7923611111111111 0.8284722222222223 0.8458333333333333 0.8784722222222222 0.8895833333333333 0.9055555555555556 0.9111111111111112 0.91875 0.9194444444444444 0.9076388888888888 0.8923611111111112 0.84375 0.8 0.6631944444444444 0.5645833333333333 0.4527777777777778 0.21458333333333326 0.09097222222222222 0.0625 0.040972222222222215 0.03819444444444445 0.03888888888888889 0.04027777777777778 0.04027777777777778 0.04027777777777778 0.04027777777777778 0.04027777777777778 0.04305555555555556 0.04791666666666667 0.07291666666666667 0.0875 0.1 0.10069444444444443,0.8601851851851852 0.862037037037037 0.8648148148148148 0.8657407407407407 0.8685185185185185 0.8703703703703703 0.8703703703703703 0.8712962962962962 0.8722222222222222 0.8731481481481481 0.8759259259259259 0.8768518518518519 0.8777777777777778 0.8759259259259259 0.8675925925925926 0.8592592592592593 0.8416666666666667 0.8314814814814815 0.8111111111111111 0.8 0.7685185185185185 0.7472222222222222 0.6879629629629629 0.6435185185185186 0.5444444444444445 0.5064814814814815 0.4574074074074074 0.4351851851851852 0.39907407407407397 0.3824074074074074 0.33333333333333337 0.30092592592592593 0.23703703703703705 0.20370370370370366 0.1518518518518519 0.13240740740740742 0.12222222222222225 0.1166666666666667 0.1157407407407407 0.1157407407407407 0.1157407407407407 0.1157407407407407 0.1157407407407407 0.1157407407407407 0.1166666666666667 0.11851851851851848 0.11851851851851848 0.11851851851851848 0.12037037037037035 0.12222222222222225 0.12592592592592589 0.12592592592592589 0.12777777777777774 0.12777777777777774,0.0 20.0 40.0 60.0 80.0 100.0 120.0 140.0 160.0 180.0 200.0 220.0 240.0 260.0 280.0 300.0 320.0 340.0 360.0 380.0 400.0 420.0 440.0 460.0 480.0 500.0 520.0 540.0 560.0 580.0 600.0 620.0 640.0 660.0 680.0 700.0 720.0 740.0 760.0 780.0 800.0 820.0 840.0 860.0 880.0 900.0 920.0 940.0 960.0 980.0 1000.0 1020.0 1040.0 1060.0
cb_08,7.0,enc_trial,stim,response,STEM students,899.3999999046355,enc_trial,1.0,7.0,s_s_11_2,student_stem,fold-d,scientific scale,8.0,unique,close,paired,s_s_11_2.jpg,stem,student-b1,STEM students,Fine Arts students,sub-98,1.0,1.0,1.0,1.0,0.5069444444444444 0.5111111111111111 0.5180555555555556 0.5361111111111111 0.5576388888888889 0.5652777777777778 0.5722222222222222 0.5854166666666667 0.5916666666666667 0.6006944444444444 0.6083333333333333 0.6104166666666667 0.6166666666666667 0.6215277777777778 0.6402777777777777 0.6534722222222222 0.6986111111111111 0.7229166666666667 0.7673611111111112 0.7826388888888889 0.8041666666666667 0.8125 0.8263888888888888 0.8298611111111112 0.8152777777777778 0.7902777777777777 0.6826388888888889 0.6166666666666667 0.4513888888888889 0.37222222222222223 0.2618055555555556 0.2361111111111111 0.2069444444444445 0.20069444444444445 0.1902777777777777 0.18194444444444444 0.16319444444444445 0.15625 0.14652777777777778 0.14583333333333334 0.14444444444444446,0.825925925925926 0.825925925925926 0.825925925925926 0.8287037037037037 0.8324074074074074 0.8342592592592593 0.8361111111111111 0.8435185185185186 0.8462962962962963 0.8537037037037037 0.8574074074074074 0.8583333333333334 0.8583333333333334 0.8564814814814815 0.8462962962962963 0.8361111111111111 0.8027777777777778 0.7805555555555556 0.7212962962962963 0.6907407407407408 0.6194444444444445 0.5796296296296296 0.4953703703703704 0.4537037037037037 0.3675925925925926 0.3212962962962963 0.2361111111111112 0.21759259259259256 0.18611111111111112 0.17592592592592593 0.1611111111111111 0.15833333333333333 0.1527777777777778 0.1518518518518519 0.1518518518518519 0.15370370370370368 0.16296296296296298 0.16481481481481486 0.16574074074074074 0.16574074074074074 0.16574074074074074,66.60000000000582 86.60000000000582 106.60000000000582 126.60000000000582 146.60000000000582 166.60000000000582 186.60000000000585 206.60000000000585 226.60000000000585 246.60000000000585 266.6000000000058 286.6000000000058 306.6000000000058 326.6000000000058 346.6000000000058 366.6000000000058 386.6000000000058 406.6000000000058 426.6000000000058 446.6000000000058 466.6000000000058 486.6000000000058 506.6000000000058 526.6000000000058 546.6000000000058 566.6000000000057 586.6000000000057 606.6000000000057 626.6000000000057 646.6000000000057 666.6000000000057 686.6000000000057 706.6000000000058 726.6000000000058 746.6000000000058 766.6000000000058 786.6000000000058 806.6000000000058 826.6000000000058 846.6000000000058 866.6000000000058
cb_08,8.0,enc_trial,stim,response,Fine Arts students,913.999999809268,enc_trial,1.0,8.0,s_sh_19_2,student_shared,fold-a,portable plastic drawer,8.0,competing,close,paired,s_sh_19_2.jpg,,student-b1,STEM students,Fine Arts students,sub-98,0.0,0.0,0.0,0.0,0.5236111111111111 0.5270833333333333 0.5381944444444444 0.5451388888888888 0.5576388888888889 0.5631944444444444 0.5715277777777777 0.5736111111111111 0.5756944444444444 0.5756944444444444 0.5756944444444444 0.5743055555555555 0.5680555555555555 0.5625 0.5458333333333333 0.5368055555555555 0.5340277777777778 0.5347222222222222 0.5576388888888889 0.5805555555555556 0.6618055555555555 0.7111111111111111 0.80625 0.8395833333333333 0.8854166666666666 0.8930555555555556 0.89375 0.8909722222222223 0.8833333333333333 0.875 0.8465277777777778 0.8298611111111112 0.8083333333333333 0.80625 0.8104166666666667 0.8180555555555555 0.8291666666666667 0.8340277777777778 0.8479166666666667 0.8548611111111111 0.86875 0.8756944444444444 0.8833333333333333 0.8840277777777777,0.8268518518518518 0.825 0.8194444444444444 0.8166666666666667 0.8138888888888889 0.812962962962963 0.812962962962963 0.812962962962963 0.8138888888888889 0.8148148148148149 0.8185185185185185 0.8194444444444444 0.8240740740740741 0.8268518518518518 0.8305555555555555 0.8314814814814815 0.8314814814814815 0.8287037037037037 0.812037037037037 0.7972222222222223 0.7379629629629629 0.7 0.6027777777777779 0.5574074074074074 0.4666666666666667 0.4305555555555556 0.3657407407407407 0.3398148148148148 0.3083333333333333 0.2962962962962963 0.27222222222222225 0.2620370370370371 0.24722222222222226 0.2416666666666667 0.2342592592592593 0.2314814814814815 0.2305555555555555 0.2287037037037037 0.2240740740740741 0.22129629629629632 0.2138888888888889 0.21018518518518514 0.20370370370370366 0.20370370370370366,26.69999999999709 46.69999999999709 66.69999999999709 86.6999999999971 106.69999999999708 126.69999999999708 146.6999999999971 166.6999999999971 186.6999999999971 206.6999999999971 226.6999999999971 246.6999999999971 266.6999999999971 286.69999999999715 306.69999999999715 326.69999999999715 346.6999999999971 366.6999999999971 386.6999999999971 406.6999999999971 426.6999999999971 446.6999999999971 466.6999999999971 486.6999999999971 506.6999999999971 526.6999999999971 546.6999999999971 566.6999999999971 586.6999999999971 606.6999999999971 626.6999999999971 646.6999999999971 666.6999999999971 686.6999999999971 706.6999999999971 726.6999999999971 746.6999999999971 766.6999999999971 786.6999999999971 806.6999999999971 826.6999999999971 846.6999999999971 866.6999999999971 886.6999999999971
cb_08,9.0,enc_trial,stim,response,STEM students,1342.6999998092654,enc_trial,1.0,9.0,s_sh_07_1,student_shared,fold-a,ruler,8.0,competing,close,paired,s_sh_07_1.jpg,,student-b1,STEM students,Fine Arts students,sub-98,0.0,0.0,0.0,0.0,0.5076388888888889 0.5076388888888889 0.5076388888888889 0.5076388888888889 0.5076388888888889 0.5076388888888889 0.5076388888888889 0.5076388888888889 0.5076388888888889 0.5076388888888889 0.5083333333333333 0.5090277777777777 0.5097222222222222 0.5097222222222222 0.5097222222222222 0.5097222222222222 0.5097222222222222 0.5097222222222222 0.5097222222222222 0.5097222222222222 0.5111111111111111 0.5138888888888888 0.5270833333333333 0.5375 0.5736111111111111 0.6041666666666666 0.7333333333333333 0.8118055555555556 0.9013888888888888 0.9159722222222222 0.9215277777777776 0.9201388888888888 0.9069444444444444 0.8951388888888889 0.8256944444444444 0.75625 0.5875 0.5090277777777777 0.3715277777777778 0.3055555555555556 0.22013888888888888 0.1986111111111111 0.18472222222222226 0.1840277777777778 0.18125 0.17847222222222225 0.1736111111111111 0.17291666666666666 0.17222222222222222 0.1701388888888889 0.16319444444444445 0.1597222222222222 0.15416666666666667 0.15208333333333332 0.15138888888888888 0.15138888888888888 0.16527777777777775 0.1868055555555556 0.23680555555555555 0.2458333333333333 0.24375 0.23680555555555555 0.2048611111111111 0.18819444444444444 0.15694444444444444 0.14722222222222225 0.13472222222222222 0.13194444444444445,0.8527777777777777 0.8546296296296296 0.8555555555555556 0.8564814814814815 0.8564814814814815 0.8564814814814815 0.8564814814814815 0.8564814814814815 0.8564814814814815 0.8564814814814815 0.8574074074074074 0.8583333333333334 0.8601851851851852 0.8601851851851852 0.862037037037037 0.862037037037037 0.8638888888888889 0.8638888888888889 0.8638888888888889 0.8629629629629629 0.8611111111111112 0.8592592592592593 0.8564814814814815 0.8555555555555556 0.8462962962962963 0.8361111111111111 0.7861111111111111 0.7462962962962962 0.675 0.6407407407407407 0.5314814814814814 0.4509259259259261 0.2935185185185185 0.2333333333333333 0.13148148148148153 0.09259259259259256 0.05092592592592593 0.04722222222222228 0.04907407407407405 0.05277777777777781 0.06018518518518521 0.062037037037037016 0.06388888888888887 0.06388888888888887 0.06574074074074078 0.06944444444444442 0.07499999999999996 0.07777777777777772 0.08333333333333337 0.08703703703703702 0.09629629629629632 0.09999999999999998 0.10833333333333328 0.11018518518518516 0.11018518518518516 0.11018518518518516 0.11018518518518516 0.11018518518518516 0.1166666666666667 0.12129629629629635 0.12592592592592589 0.12685185185185188 0.12777777777777774 0.12962962962962965 0.1342592592592593 0.1342592592592593 0.1342592592592593 0.1333333333333333,0.0 20.0 40.0 60.0 80.0 100.0 120.0 140.0 160.0 180.0 200.0 220.0 240.0 260.0 280.0 300.0 320.0 340.0 360.0 380.0 400.0 420.0 440.0 460.0 480.0 500.0 520.0 540.0 560.0 580.0 600.0 620.0 640.0 660.0 680.0 700.0 720.0 740.0 760.0 780.0 800.0 820.0 840.0 860.0 880.0 900.0 920.0 940.0 960.0 980.0 1000.0 1020.0 1040.0 1060.0 1080.0 1100.0 1120.0 1140.0 1160.0 1180.0 1200.0 1220.0 1240.0 1260.0 1280.0 1300.0 1320.0 1340.0
cb_08,10.0,enc_trial,stim,response,Fine Arts students,1514.2999999046294,enc_trial,1.0,10.0,s_a_14_1,student_art,fold-c,guitar pick,8.0,unique,far,paired,s_a_14_1.jpg,art,student-b1,STEM students,Fine Arts students,sub-98,1.0,1.0,1.0,1.0,0.5027777777777778 0.5027777777777778 0.5020833333333333 0.5020833333333333 0.5020833333333333 0.5020833333333333 0.5020833333333333 0.5020833333333333 0.5020833333333333 0.5020833333333333 0.5020833333333333 0.5020833333333333 0.5020833333333333 0.5020833333333333 0.5020833333333333 0.5020833333333333 0.5020833333333333 0.5020833333333333 0.5020833333333333 0.5020833333333333 0.5020833333333333 0.5020833333333333 0.5020833333333333 0.5020833333333333 0.5020833333333333 0.5020833333333333 0.5020833333333333 0.5020833333333333 0.5 0.4979166666666667 0.4965277777777778 0.4958333333333334 0.4944444444444445 0.49375 0.4923611111111112 0.4923611111111112 0.4923611111111112 0.4923611111111112 0.4923611111111112 0.4923611111111112 0.4923611111111112 0.4923611111111112 0.5034722222222222 0.5361111111111111 0.6652777777777777 0.7347222222222223 0.8465277777777778 0.8777777777777778 0.8972222222222223 0.8965277777777778 0.8909722222222223 0.8895833333333333 0.8861111111111111 0.8854166666666666 0.8840277777777777 0.8833333333333333,0.8453703703703703 0.8453703703703703 0.8453703703703703 0.8453703703703703 0.8453703703703703 0.8453703703703703 0.8453703703703703 0.8453703703703703 0.8453703703703703 0.8453703703703703 0.8453703703703703 0.8453703703703703 0.8453703703703703 0.8453703703703703 0.8453703703703703 0.8453703703703703 0.8453703703703703 0.8453703703703703 0.8453703703703703 0.8453703703703703 0.8453703703703703 0.8453703703703703 0.8453703703703703 0.8453703703703703 0.8453703703703703 0.8453703703703703 0.8453703703703703 0.8453703703703703 0.8453703703703703 0.8462962962962963 0.8462962962962963 0.8472222222222222 0.8481481481481481 0.8481481481481481 0.8481481481481481 0.8481481481481481 0.8481481481481481 0.8481481481481481 0.8481481481481481 0.8481481481481481 0.8481481481481481 0.8481481481481481 0.8305555555555555 0.7907407407407407 0.6398148148148148 0.5481481481481482 0.32592592592592595 0.2287037037037037 0.1342592592592593 0.11851851851851848 0.10370370370370374 0.10277777777777776 0.10185185185185186 0.10092592592592596 0.0981481481481481 0.0972222222222222,0.0 20.0 40.0 60.0 80.0 100.0 120.0 140.0 160.0 180.0 200.0 220.0 240.0 260.0 280.0 300.0 320.0 340.0 360.0 380.0 400.0 420.0 440.0 460.0 480.0 500.0 520.0 540.0 560.0 580.0 600.0 620.0 640.0 660.0 680.0 700.0 720.0 740.0 760.0 780.0 800.0 820.0 840.0 860.0 880.0 900.0 920.0 940.0 960.0 980.0 1000.0 1020.0 1040.0 1060.0 1080.0 1100.0
cb_08,11.0,enc_trial,stim,response,STEM students,853.4000000000087,enc_trial,1.0,11.0,s_s_20_1,student_stem,fold-d,dna model,8.0,unique,close,paired,s_s_20_1.jpg,stem,student-b1,STEM students,Fine Arts students,sub-98,1.0,1.0,1.0,1.0,0.5826388888888889 0.5902777777777778 0.6118055555555556 0.6263888888888889 0.65 0.6583333333333333 0.6763888888888889 0.6854166666666667 0.6958333333333333 0.6965277777777777 0.6965277777777777 0.69375 0.6770833333333334 0.6659722222222222 0.6409722222222223 0.6208333333333333 0.5625 0.5284722222222222 0.43472222222222223 0.37777777777777777 0.2625 0.22013888888888888 0.16597222222222222 0.14652777777777778 0.11875 0.10902777777777778 0.10555555555555557,0.8111111111111111 0.8064814814814815 0.787962962962963 0.775 0.7537037037037038 0.7444444444444445 0.7194444444444444 0.6972222222222222 0.6425925925925926 0.6037037037037036 0.5231481481481481 0.4796296296296296 0.4157407407407408 0.3972222222222223 0.3694444444444445 0.35462962962962963 0.337037037037037 0.3324074074074074 0.31018518518518523 0.29166666666666663 0.2518518518518519 0.2333333333333333 0.19814814814814816 0.18518518518518529 0.17129629629629628 0.1685185185185185 0.16574074074074074,253.3000000000029 273.3000000000029 293.30000000000285 313.30000000000285 333.30000000000285 353.3000000000029 373.3000000000029 393.3000000000029 413.3000000000029 433.3000000000029 453.3000000000029 473.3000000000029 493.3000000000029 513.3000000000029 533.3000000000029 553.3000000000029 573.3000000000029 593.3000000000029 613.3000000000029 633.3000000000029 653.3000000000029 673.3000000000029 693.3000000000029 713.3000000000029 733.3000000000029 753.3000000000029 773.3000000000029
cb_08,12.0,enc_trial,stim,response,STEM students,841.2999999046298,enc_trial,1.0,12.0,s_sh_07_2,student_shared,fold-a,ruler,8.0,competing,close,paired,s_sh_07_2.jpg,,student-b1,STEM students,Fine Arts students,sub-98,0.0,0.0,0.0,0.0,0.5236111111111111 0.5270833333333333 0.5298611111111111 0.5305555555555556 0.5305555555555556 0.5305555555555556 0.5305555555555556 0.5298611111111111 0.5284722222222222 0.5284722222222222 0.5284722222222222 0.5284722222222222 0.5277777777777778 0.5270833333333333 0.5263888888888889 0.5256944444444445 0.5256944444444445 0.5243055555555556 0.5180555555555556 0.5145833333333333 0.5083333333333333 0.5076388888888889 0.5159722222222223 0.525 0.5534722222222223 0.5652777777777778 0.5743055555555555 0.5583333333333333 0.4701388888888889 0.4083333333333333 0.27291666666666664 0.21736111111111112 0.17708333333333334 0.14166666666666666 0.1361111111111111 0.13541666666666666 0.13680555555555554 0.13819444444444445 0.14027777777777778 0.14027777777777778 0.1388888888888889 0.13819444444444445,0.8574074074074074 0.8574074074074074 0.8592592592592593 0.8592592592592593 0.8611111111111112 0.8611111111111112 0.8629629629629629 0.8657407407407407 0.8675925925925926 0.8675925925925926 0.8675925925925926 0.8675925925925926 0.8675925925925926 0.8648148148148148 0.862037037037037 0.8611111111111112 0.8611111111111112 0.8611111111111112 0.8638888888888889 0.8657407407407407 0.8648148148148148 0.862037037037037 0.8490740740740741 0.837037037037037 0.7611111111111111 0.7074074074074075 0.5509259259259259 0.4518518518518518 0.2592592592592593 0.1962962962962963 0.13240740740740742 0.12222222222222225 0.1157407407407407 0.11296296296296293 0.11296296296296293 0.11296296296296293 0.11759259259259258 0.12037037037037035 0.12685185185185188 0.13055555555555556 0.13240740740740742 0.13240740740740742,0.0 20.0 40.0 60.0 80.0 100.0 120.0 140.0 160.0 180.0 200.0 220.0 240.0 260.0 280.0 300.0 320.0 340.0 360.0 380.0 400.0 420.0 440.0 460.0 480.0 500.0 520.0 540.0 560.0 580.0 600.0 620.0 640.0 660.0 680.0 700.0 720.0 740.0 760.0 780.0 800.0 820.0
cb_08,13.0,enc_trial,stim,response,Fine Arts students,1164.3999999999942,enc_trial,1.0,13.0,s_sh_09_1,student_shared,fold-c,paper clips,8.0,competing,far,paired,s_sh_09_1.jpg,,student-b1,STEM students,Fine Arts students,sub-98,0.0,0.0,1.0,1.0,0.4888888888888889 0.4875 0.4854166666666666 0.4854166666666666 0.4979166666666667 0.5194444444444445 0.6215277777777778 0.6895833333333333 0.7534722222222222 0.8375 0.8840277777777777 0.8979166666666667 0.9104166666666668 0.9125 0.9125 0.9055555555555556 0.9020833333333332 0.9006944444444445 0.8951388888888889 0.8909722222222223 0.8833333333333333 0.8819444444444444 0.88125,0.8638888888888889 0.8611111111111112 0.8583333333333334 0.8574074074074074 0.8490740740740741 0.8425925925925926 0.7953703703703704 0.7509259259259259 0.7 0.6009259259259259 0.4990740740740741 0.4351851851851852 0.3185185185185185 0.275 0.2490740740740741 0.2148148148148148 0.1953703703703704 0.18888888888888888 0.1787037037037037 0.1703703703703704 0.15740740740740744 0.15555555555555556 0.15555555555555556,386.6000000000058 406.6000000000058 426.6000000000058 446.6000000000058 466.6000000000058 486.6000000000058 506.6000000000058 526.6000000000058 546.6000000000058 566.6000000000057 586.6000000000057 606.6000000000057 626.6000000000057 646.6000000000057 666.6000000000057 686.6000000000057 706.6000000000058 726.6000000000058 746.6000000000058 766.6000000000058 786.6000000000058 806.6000000000058 826.6000000000058
cb_08,14.0,enc_trial,stim,response,Fine Arts students,1078.6999999046384,enc_trial,1.0,14.0,s_a_06_1,student_art,fold-d,pastels,8.0,unique,close,paired,s_a_06_1.jpg,art,student-b1,STEM students,Fine Arts students,sub-98,1.0,1.0,1.0,1.0,0.5097222222222222 0.5076388888888889 0.5041666666666667 0.5020833333333333 0.4993055555555556 0.4993055555555556 0.4993055555555556 0.4993055555555556 0.4986111111111111 0.4986111111111111 0.4972222222222222 0.4965277777777778 0.4965277777777778 0.4965277777777778 0.4951388888888889 0.4951388888888889 0.4944444444444445 0.4944444444444445 0.49375 0.49375 0.4930555555555556 0.4930555555555556 0.4930555555555556 0.4930555555555556 0.4930555555555556 0.4923611111111112 0.4895833333333333 0.4888888888888889 0.4875 0.4875 0.4888888888888889 0.4923611111111112 0.5194444444444445 0.55625 0.6791666666666667 0.7673611111111112 0.8902777777777777 0.9201388888888888 0.9381944444444444 0.9388888888888888 0.9368055555555556 0.9340277777777778 0.9263888888888888 0.9215277777777776 0.9152777777777776 0.9118055555555556 0.9034722222222222 0.8972222222222223 0.8861111111111111 0.8847222222222222,0.8425925925925926 0.8453703703703703 0.8509259259259259 0.8546296296296296 0.8601851851851852 0.8611111111111112 0.8611111111111112 0.8611111111111112 0.8611111111111112 0.8611111111111112 0.8592592592592593 0.8592592592592593 0.8592592592592593 0.8592592592592593 0.8592592592592593 0.8592592592592593 0.8592592592592593 0.8592592592592593 0.8592592592592593 0.8592592592592593 0.8592592592592593 0.8592592592592593 0.8592592592592593 0.8592592592592593 0.8592592592592593 0.8592592592592593 0.8564814814814815 0.8555555555555556 0.8490740740740741 0.8453703703703703 0.837962962962963 0.8324074074074074 0.8064814814814815 0.7740740740740741 0.6370370370370371 0.5342592592592592 0.3694444444444445 0.30925925925925923 0.25277777777777777 0.2388888888888889 0.225 0.22129629629629632 0.2157407407407408 0.21018518518518514 0.20185185185185184 0.2 0.1972222222222222 0.1944444444444444 0.1898148148148148 0.18703703703703692,66.60000000000582 86.60000000000582 106.60000000000582 126.60000000000582 146.60000000000582 166.60000000000582 186.60000000000585 206.60000000000585 226.60000000000585 246.60000000000585 266.6000000000058 286.6000000000058 306.6000000000058 326.6000000000058 346.6000000000058 366.6000000000058 386.6000000000058 406.6000000000058 426.6000000000058 446.6000000000058 466.6000000000058 486.6000000000058 506.6000000000058 526.6000000000058 546.6000000000058 566.6000000000057 586.6000000000057 606.6000000000057 626.6000000000057 646.6000000000057 666.6000000000057 686.6000000000057 706.6000000000058 726.6000000000058 746.6000000000058 766.6000000000058 786.6000000000058 806.6000000000058 826.6000000000058 846.6000000000058 866.6000000000058 886.6000000000058 906.6000000000058 926.6000000000058 946.6000000000058 966.6000000000058 986.6000000000058 1006.6000000000058 1026.6000000000058 1046.6000000000058
cb_08,15.0,enc_trial,stim,response,STEM students,1576.9999997139093,enc_trial,1.0,15.0,s_s_20_2,student_stem,fold-d,dna model,8.0,unique,close,paired,s_s_20_2.jpg,stem,student-b1,STEM students,Fine Arts students,sub-98,1.0,1.0,1.0,1.0,0.5048611111111111 0.5048611111111111 0.5048611111111111 0.5048611111111111 0.5048611111111111 0.5048611111111111 0.5048611111111111 0.5048611111111111 0.5048611111111111 0.5048611111111111 0.5055555555555555 0.5055555555555555 0.5055555555555555 0.5055555555555555 0.50625 0.5076388888888889 0.5104166666666666 0.5118055555555555 0.5194444444444445 0.5284722222222222 0.55625 0.5722222222222222 0.6048611111111111 0.625 0.6569444444444444 0.6708333333333333 0.6895833333333333 0.6958333333333333 0.7041666666666667 0.7076388888888889 0.7194444444444444 0.7277777777777777 0.7604166666666666 0.7784722222222222 0.8180555555555555 0.8506944444444444 0.9368055555555556 0.9743055555555556 1.0465277777777775 1.0777777777777775 1.1131944444444444 1.125 1.13125 1.1298611111111112 1.1118055555555555 1.0923611111111111 1.0381944444444444 0.9986111111111112 0.9069444444444444 0.8548611111111111 0.7347222222222223 0.6791666666666667 0.6284722222222222 0.6277777777777778 0.6388888888888888 0.6583333333333333 0.7152777777777778 0.7458333333333333 0.7909722222222222 0.8013888888888889 0.8138888888888889 0.8159722222222222 0.8138888888888889 0.7965277777777777 0.6833333333333333 0.5944444444444444 0.3694444444444445 0.2888888888888889 0.2083333333333333 0.19444444444444445 0.18472222222222226 0.18194444444444444 0.16458333333333333 0.14097222222222222 0.07430555555555557 0.059027777777777776 0.05625 0.059027777777777776 0.06805555555555555 0.06875,0.8592592592592593 0.8592592592592593 0.8592592592592593 0.8592592592592593 0.8592592592592593 0.8592592592592593 0.8592592592592593 0.8592592592592593 0.8592592592592593 0.8592592592592593 0.8601851851851852 0.8601851851851852 0.8611111111111112 0.8611111111111112 0.862037037037037 0.862037037037037 0.8638888888888889 0.8648148148148148 0.8666666666666667 0.8666666666666667 0.8638888888888889 0.8601851851851852 0.8490740740740741 0.8425925925925926 0.8324074074074074 0.8287037037037037 0.8240740740740741 0.8212962962962963 0.8185185185185185 0.8166666666666667 0.812037037037037 0.8092592592592592 0.7962962962962963 0.787037037037037 0.7620370370370371 0.737037037037037 0.6611111111111111 0.6231481481481482 0.5287037037037037 0.4740740740740741 0.3740740740740741 0.32592592592592595 0.2518518518518519 0.225 0.17962962962962958 0.1620370370370371 0.13703703703703707 0.13055555555555556 0.12777777777777774 0.12777777777777774 0.13703703703703707 0.1425925925925926 0.1444444444444445 0.1425925925925926 0.14074074074074072 0.13981481481481484 0.1351851851851852 0.1333333333333333 0.1351851851851852 0.13796296296296295 0.1435185185185185 0.14537037037037034 0.14814814814814814 0.1518518518518519 0.15648148148148144 0.15648148148148144 0.14907407407407405 0.1425925925925926 0.125 0.11759259259259258 0.10833333333333328 0.10462962962962964 0.10277777777777776 0.10370370370370374 0.11111111111111116 0.11111111111111116 0.11111111111111116 0.11111111111111116 0.11111111111111116 0.11111111111111116,0.0 20.0 40.0 60.0 80.0 100.0 120.0 140.0 160.0 180.0 200.0 220.0 240.0 260.0 280.0 300.0 320.0 340.0 360.0 380.0 400.0 420.0 440.0 460.0 480.0 500.0 520.0 540.0 560.0 580.0 600.0 620.0 640.0 660.0 680.0 700.0 720.0 740.0 760.0 780.0 800.0 820.0 840.0 860.0 880.0 900.0 920.0 940.0 960.0 980.0 1000.0 1020.0 1040.0 1060.0 1080.0 1100.0 1120.0 1140.0 1160.0 1180.0 1200.0 1220.0 1240.0 1260.0 1280.0 1300.0 1320.0 1340.0 1360.0 1380.0 1400.0 1420.0 1440.0 1460.0 1480.0 1500.0 1520.0 1540.0 1560.0 1580.0
cb_08,16.0,enc_trial,stim,response,STEM students,851.9999997139093,enc_trial,1.0,16.0,s_s_15_2,student_stem,fold-c,jumper cables,8.0,unique,far,paired,s_s_15_2.jpg,stem,student-b1,STEM students,Fine Arts students,sub-98,1.0,1.0,1.0,0.0,0.51875 0.5138888888888888 0.5090277777777777 0.4993055555555556 0.4951388888888889 0.4923611111111112 0.4923611111111112 0.4923611111111112 0.4930555555555556 0.4972222222222222 0.5180555555555556 0.5375 0.59375 0.6270833333333333 0.6638888888888889 0.7451388888888889 0.7888888888888889 0.8638888888888889 0.88125 0.8770833333333333 0.8701388888888889 0.8458333333333333 0.8131944444444444 0.6833333333333333 0.59375 0.43125 0.2902777777777778 0.2513888888888889 0.2222222222222222 0.21875 0.21458333333333326 0.21041666666666667 0.1902777777777777 0.17847222222222225 0.16875 0.16875 0.16875 0.16875 0.16805555555555554,0.8361111111111111 0.837037037037037 0.837962962962963 0.837962962962963 0.837962962962963 0.837962962962963 0.837962962962963 0.837962962962963 0.837962962962963 0.837962962962963 0.8268518518518518 0.8157407407407408 0.7657407407407407 0.7277777777777779 0.6787037037037037 0.5305555555555556 0.4444444444444444 0.3018518518518518 0.25648148148148153 0.1962962962962963 0.1777777777777778 0.15648148148148144 0.13888888888888884 0.11111111111111116 0.10370370370370374 0.10092592592592596 0.09999999999999998 0.0981481481481481 0.0981481481481481 0.0981481481481481 0.10092592592592596 0.10462962962962964 0.11296296296296293 0.1166666666666667 0.11851851851851848 0.11851851851851848 0.11851851851851848 0.11851851851851848 0.11851851851851848,79.90000000002328 99.90000000002328 119.90000000002328 139.90000000002328 159.90000000002328 179.90000000002328 199.90000000002328 219.90000000002328 239.90000000002328 259.9000000000233 279.9000000000233 299.9000000000233 319.9000000000233 339.9000000000233 359.90000000002334 379.90000000002334 399.90000000002334 419.90000000002334 439.90000000002334 459.90000000002334 479.90000000002334 499.90000000002334 519.9000000000234 539.9000000000234 559.9000000000234 579.9000000000233 599.9000000000233 619.9000000000233 639.9000000000233 659.9000000000233 679.9000000000233 699.9000000000232 719.9000000000232 739.9000000000232 759.9000000000232 779.9000000000232 799.9000000000232 819.9000000000232 839.9000000000232
cb_08,17.0,enc_trial,stim,response,Fine Arts students,847.0999996185419,enc_trial,1.0,17.0,s_a_06_2,student_art,fold-d,pastels,8.0,unique,close,paired,s_a_06_2.jpg,art,student-b1,STEM students,Fine Arts students,sub-98,1.0,1.0,1.0,1.0,0.5111111111111111 0.5194444444444445 0.5368055555555555 0.6166666666666667 0.6784722222222223 0.8041666666666667 0.8722222222222222 0.9569444444444444 0.9708333333333332 0.9729166666666668 0.9673611111111112 0.9652777777777778 0.9576388888888888 0.9506944444444444 0.9423611111111112 0.9395833333333332 0.9347222222222222 0.9326388888888888 0.9270833333333334 0.9236111111111112 0.9125 0.9013888888888888 0.8791666666666667 0.8770833333333333,0.8490740740740741 0.8453703703703703 0.8361111111111111 0.7907407407407407 0.7453703703703703 0.6055555555555556 0.5027777777777778 0.3305555555555556 0.2768518518518519 0.20925925925925928 0.18333333333333326 0.1777777777777778 0.1703703703703704 0.16481481481481486 0.15555555555555556 0.1518518518518519 0.14629629629629626 0.14629629629629626 0.1435185185185185 0.1435185185185185 0.1444444444444445 0.14722222222222225 0.1509259259259259 0.1509259259259259,333.4000000000233 353.40000000002334 373.40000000002334 393.40000000002334 413.40000000002334 433.40000000002334 453.40000000002334 473.40000000002334 493.40000000002334 513.4000000000234 533.4000000000234 553.4000000000234 573.4000000000233 593.4000000000233 613.4000000000233 633.4000000000233 653.4000000000233 673.4000000000233 693.4000000000232 713.4000000000232 733.4000000000232 753.4000000000232 773.4000000000232 793.4000000000232
cb_08,18.0,enc_trial,stim,response,STEM students,817.3999999999942,enc_trial,1.0,18.0,s_sh_20_1,student_shared,fold-c,tape,8.0,competing,far,paired,s_sh_20_1.jpg,,student-b1,STEM students,Fine Arts students,sub-98,0.0,0.0,0.0,0.0,0.5166666666666667 0.5166666666666667 0.5166666666666667 0.5166666666666667 0.5159722222222223 0.5159722222222223 0.5159722222222223 0.5159722222222223 0.5159722222222223 0.5159722222222223 0.5159722222222223 0.5159722222222223 0.51875 0.5263888888888889 0.54375 0.6034722222222222 0.64375 0.7083333333333334 0.7368055555555556 0.78125 0.7868055555555555 0.7298611111111111 0.5951388888888889 0.5090277777777777 0.3611111111111111 0.30277777777777776 0.23472222222222225 0.21736111111111112 0.19444444444444445 0.1868055555555556 0.17430555555555555 0.16666666666666666 0.14791666666666667 0.14305555555555555 0.14027777777777778 0.14027777777777778 0.14027777777777778,0.8296296296296296 0.8314814814814815 0.8351851851851853 0.837037037037037 0.837037037037037 0.837037037037037 0.837037037037037 0.837037037037037 0.837037037037037 0.837037037037037 0.837037037037037 0.837037037037037 0.837037037037037 0.8361111111111111 0.8296296296296296 0.7962962962962963 0.7620370370370371 0.6731481481481482 0.6148148148148148 0.4611111111111112 0.3861111111111111 0.2481481481481481 0.16574074074074074 0.13796296296296295 0.1074074074074074 0.09907407407407408 0.09259259259259256 0.09166666666666667 0.09166666666666667 0.09166666666666667 0.09351851851851856 0.0972222222222222 0.10555555555555553 0.1074074074074074 0.11111111111111116 0.11111111111111116 0.11203703703703703,93.29999999998836 113.29999999998836 133.29999999998836 153.2999999999884 173.29999999998836 193.29999999998842 213.29999999998842 233.29999999998842 253.29999999998842 273.2999999999884 293.29999999998836 313.29999999998836 333.29999999998836 353.2999999999884 373.2999999999884 393.2999999999884 413.2999999999884 433.2999999999884 453.2999999999884 473.2999999999884 493.2999999999884 513.2999999999884 533.2999999999884 553.2999999999884 573.2999999999884 593.2999999999884 613.2999999999884 633.2999999999884 653.2999999999884 673.2999999999884 693.2999999999884 713.2999999999884 733.2999999999884 753.2999999999884 773.2999999999884 793.2999999999884 813.2999999999884
cb_08,19.0,enc_trial,stim,response,Fine Arts students,1141.099999713886,enc_trial,1.0,19.0,s_a_12_2,student_art,fold-c,saxophone,8.0,unique,far,paired,s_a_12_2.jpg,art,student-b1,STEM students,Fine Arts students,sub-98,1.0,1.0,1.0,1.0,0.5125 0.5319444444444444 0.5611111111111111 0.6506944444444445 0.775 0.8409722222222222 0.9215277777777776 0.925 0.8944444444444445 0.8736111111111111 0.8409722222222222 0.7340277777777777 0.6527777777777778 0.4659722222222222 0.38333333333333336 0.2708333333333333 0.23125 0.1840277777777778 0.15138888888888888 0.14791666666666667 0.14930555555555555 0.16111111111111112 0.16805555555555554 0.16805555555555554 0.16805555555555554 0.16805555555555554 0.16944444444444445 0.1736111111111111 0.2222222222222222 0.29097222222222224 0.5131944444444444 0.6104166666666667 0.6993055555555555 0.8569444444444444 0.9215277777777776 0.9263888888888888,0.8351851851851853 0.8314814814814815 0.8194444444444444 0.7648148148148148 0.6537037037037037 0.5768518518518518 0.4481481481481482 0.39629629629629626 0.2972222222222223 0.27129629629629626 0.25 0.2203703703703704 0.21111111111111114 0.2046296296296296 0.19907407407407407 0.18796296296296305 0.18148148148148147 0.1703703703703704 0.1601851851851852 0.15648148148148144 0.15462962962962967 0.15648148148148144 0.1611111111111111 0.1620370370370371 0.1620370370370371 0.16296296296296298 0.16481481481481486 0.16574074074074074 0.1611111111111111 0.1527777777777778 0.14537037037037034 0.15555555555555556 0.1685185185185185 0.18888888888888888 0.20370370370370366 0.20740740740740726,399.8999999999942 419.8999999999942 439.8999999999942 459.8999999999942 479.8999999999942 499.8999999999942 519.8999999999942 539.8999999999942 559.8999999999942 579.8999999999943 599.8999999999943 619.8999999999943 639.8999999999943 659.8999999999943 679.8999999999943 699.8999999999942 719.8999999999942 739.8999999999942 759.8999999999942 779.8999999999942 799.8999999999942 819.8999999999942 839.8999999999942 859.8999999999942 879.8999999999942 899.8999999999942 919.8999999999942 939.8999999999942 959.8999999999942 979.8999999999942 999.8999999999942 1019.8999999999942 1039.8999999999942 1059.8999999999942 1079.8999999999942 1099.8999999999942
cb_08,20.0,enc_trial,stim,response,Fine Arts students,940.4999997139093,enc_trial,1.0,20.0,s_a_09_1,student_art,fold-e-single,picture frame,8.0,unique,,single,s_a_09_1.jpg,art,student-b1,STEM students,Fine Arts students,sub-98,1.0,,1.0,,0.50625 0.50625 0.50625 0.50625 0.50625 0.50625 0.5069444444444444 0.5076388888888889 0.5131944444444444 0.5208333333333334 0.5604166666666667 0.5861111111111111 0.6486111111111111 0.6840277777777778 0.75625 0.7777777777777778 0.8090277777777778 0.8118055555555556 0.7916666666666666 0.7708333333333334 0.7138888888888889 0.6840277777777778 0.6236111111111111 0.5875 0.5270833333333333 0.5006944444444444 0.4388888888888889 0.3972222222222222 0.3076388888888889 0.28125 0.2652777777777778 0.2638888888888889 0.2673611111111111 0.2833333333333333 0.4118055555555555 0.5256944444444445 0.7361111111111112 0.8111111111111111 0.8944444444444445 0.9131944444444444 0.9277777777777778 0.9277777777777778 0.9277777777777778 0.9277777777777778 0.9277777777777778 0.9277777777777778 0.9277777777777778,0.8675925925925926 0.8712962962962962 0.875 0.8759259259259259 0.8777777777777778 0.8796296296296297 0.8814814814814815 0.8824074074074074 0.8851851851851852 0.8861111111111111 0.8805555555555555 0.8740740740740741 0.8481481481481481 0.8296296296296296 0.7694444444444444 0.737037037037037 0.6481481481481481 0.6009259259259259 0.4814814814814815 0.425 0.33333333333333337 0.29814814814814816 0.25648148148148153 0.2416666666666667 0.2222222222222222 0.2148148148148148 0.20277777777777767 0.20092592592592595 0.18888888888888888 0.18148148148148147 0.17129629629629628 0.1694444444444444 0.16574074074074074 0.1620370370370371 0.15462962962962967 0.1509259259259259 0.16388888888888886 0.17685185185185182 0.19814814814814816 0.2055555555555556 0.21666666666666667 0.21666666666666667 0.21666666666666667 0.21666666666666667 0.21203703703703705 0.21018518518518514 0.20740740740740726,0.0 20.0 40.0 60.0 80.0 100.0 120.0 140.0 160.0 180.0 200.0 220.0 240.0 260.0 280.0 300.0 320.0 340.0 360.0 380.0 400.0 420.0 440.0 460.0 480.0 500.0 520.0 540.0 560.0 580.0 600.0 620.0 640.0 660.0 680.0 700.0 720.0 740.0 760.0 780.0 800.0 820.0 840.0 860.0 880.0 900.0 920.0
cb_08,21.0,enc_trial,stim,response,Fine Arts students,886.8999998092768,enc_trial,1.0,21.0,s_a_15_1,student_art,fold-d,drum kit,8.0,unique,close,paired,s_a_15_1.jpg,art,student-b1,STEM students,Fine Arts students,sub-98,1.0,1.0,1.0,1.0,0.4895833333333333 0.4895833333333333 0.4909722222222222 0.4923611111111112 0.49375 0.4944444444444445 0.4944444444444445 0.49375 0.4916666666666666 0.4916666666666666 0.4916666666666666 0.4916666666666666 0.4930555555555556 0.49375 0.5048611111111111 0.5194444444444445 0.5611111111111111 0.5875 0.6402777777777777 0.6597222222222222 0.6625 0.65 0.6027777777777777 0.5666666666666667 0.4638888888888889 0.40208333333333335 0.30486111111111114 0.26944444444444443 0.2243055555555556 0.21666666666666667 0.2395833333333333 0.28402777777777777 0.4368055555555556 0.5527777777777778 0.7576388888888889 0.8256944444444444 0.9013888888888888 0.9166666666666666 0.9236111111111112 0.9243055555555556,0.8453703703703703 0.8453703703703703 0.8472222222222222 0.8490740740740741 0.8518518518518519 0.8537037037037037 0.8546296296296296 0.8546296296296296 0.8546296296296296 0.8546296296296296 0.8555555555555556 0.8555555555555556 0.8583333333333334 0.8583333333333334 0.8574074074074074 0.8518518518518519 0.8351851851851853 0.8194444444444444 0.7472222222222222 0.6851851851851851 0.5574074074074074 0.4898148148148148 0.3787037037037037 0.3388888888888889 0.2796296296296297 0.25648148148148153 0.2222222222222222 0.20925925925925928 0.18425925925925926 0.17129629629629628 0.15555555555555556 0.14907407407407405 0.14074074074074072 0.13148148148148153 0.12314814814814813 0.12314814814814813 0.13055555555555556 0.13240740740740742 0.1342592592592593 0.1342592592592593,0.0 20.0 40.0 60.0 80.0 100.0 120.0 140.0 160.0 180.0 200.0 220.0 240.0 260.0 280.0 300.0 320.0 340.0 360.0 380.0 400.0 420.0 440.0 460.0 480.0 500.0 520.0 540.0 560.0 580.0 600.0 620.0 640.0 660.0 680.0 700.0 720.0 740.0 760.0 780.0
cb_08,22.0,enc_trial,stim,response,STEM students,814.5,enc_trial,1.0,22.0,s_s_19_2,student_stem,fold-c,circuit board,8.0,unique,far,paired,s_s_19_2.jpg,stem,student-b1,STEM students,Fine Arts students,sub-98,1.0,1.0,1.0,1.0,0.4993055555555556 0.4972222222222222 0.4972222222222222 0.4972222222222222 0.4972222222222222 0.4972222222222222 0.4972222222222222 0.4972222222222222 0.4972222222222222 0.4986111111111111 0.5013888888888889 0.5256944444444445 0.5493055555555556 0.5861111111111111 0.5909722222222222 0.5520833333333334 0.4479166666666667 0.3798611111111111 0.3118055555555556 0.18958333333333333 0.15138888888888888 0.12916666666666668 0.12708333333333333 0.12916666666666668 0.13402777777777775 0.1361111111111111 0.13680555555555554 0.1375,0.825925925925926 0.8231481481481482 0.8231481481481482 0.8231481481481482 0.8231481481481482 0.8231481481481482 0.8231481481481482 0.8231481481481482 0.8231481481481482 0.8240740740740741 0.825925925925926 0.8148148148148149 0.7842592592592592 0.65 0.5777777777777777 0.4583333333333334 0.3564814814814815 0.31666666666666665 0.2898148148148149 0.2481481481481481 0.225 0.19166666666666665 0.18148148148148147 0.1694444444444444 0.16759259259259265 0.16759259259259265 0.16759259259259265 0.16759259259259265,213.20000000001164 233.20000000001164 253.20000000001164 273.20000000001164 293.20000000001164 313.20000000001164 333.20000000001164 353.2000000000116 373.2000000000117 393.2000000000117 413.2000000000117 433.2000000000117 453.2000000000117 473.2000000000117 493.2000000000117 513.2000000000116 533.2000000000116 553.2000000000116 573.2000000000116 593.2000000000116 613.2000000000116 633.2000000000116 653.2000000000116 673.2000000000116 693.2000000000116 713.2000000000116 733.2000000000116 753.2000000000116
cb_08,23.0,enc_trial,stim,response,Fine Arts students,1085.7999999046442,enc_trial,1.0,23.0,s_sh_04_1,student_shared,fold-c,laptop stand,8.0,competing,far,paired,s_sh_04_1.jpg,,student-b1,STEM students,Fine Arts students,sub-98,0.0,0.0,1.0,0.0,0.5034722222222222 0.5041666666666667 0.5041666666666667 0.5041666666666667 0.5041666666666667 0.5041666666666667 0.5041666666666667 0.5041666666666667 0.5041666666666667 0.5041666666666667 0.5041666666666667 0.5041666666666667 0.5041666666666667 0.5041666666666667 0.5041666666666667 0.5041666666666667 0.5048611111111111 0.5125 0.5375 0.5527777777777778 0.575 0.5868055555555556 0.6243055555555556 0.6520833333333333 0.6958333333333333 0.7083333333333334 0.7138888888888889 0.7 0.6604166666666667 0.64375 0.6104166666666667 0.5861111111111111 0.5097222222222222 0.45625 0.35625 0.3263888888888889 0.3125 0.3159722222222222 0.32569444444444445 0.33541666666666664 0.41041666666666665 0.4881944444444444 0.6215277777777778 0.6784722222222223 0.7430555555555556 0.7666666666666667 0.7979166666666667 0.8111111111111111 0.8270833333333333 0.8298611111111112 0.8395833333333333 0.8520833333333333 0.8652777777777778 0.8673611111111111,0.8148148148148149 0.8157407407407408 0.8175925925925926 0.8175925925925926 0.8175925925925926 0.8175925925925926 0.8175925925925926 0.8175925925925926 0.8175925925925926 0.8175925925925926 0.8175925925925926 0.8175925925925926 0.8175925925925926 0.8175925925925926 0.8175925925925926 0.8175925925925926 0.8166666666666667 0.8138888888888889 0.799074074074074 0.787962962962963 0.7666666666666666 0.7564814814814815 0.7203703703703703 0.6907407407407408 0.6129629629629629 0.5546296296296296 0.4157407407407408 0.35 0.2620370370370371 0.2305555555555555 0.1907407407407408 0.17314814814814816 0.14629629629629626 0.14074074074074072 0.13981481481481484 0.13703703703703707 0.12777777777777774 0.125 0.12407407407407413 0.12314814814814813 0.11851851851851848 0.1148148148148148 0.1157407407407407 0.12407407407407413 0.13888888888888884 0.14537037037037034 0.1509259259259259 0.1527777777777778 0.15370370370370368 0.15370370370370368 0.1527777777777778 0.1509259259259259 0.14907407407407405 0.14907407407407405,0.0 20.0 40.0 60.0 80.0 100.0 120.0 140.0 160.0 180.0 200.0 220.0 240.0 260.0 280.0 300.0 320.0 340.0 360.0 380.0 400.0 420.0 440.0 460.0 480.0 500.0 520.0 540.0 560.0 580.0 600.0 620.0 640.0 660.0 680.0 700.0 720.0 740.0 760.0 780.0 800.0 820.0 840.0 860.0 880.0 900.0 920.0 940.0 960.0 980.0 1000.0 1020.0 1040.0 1060.0
cb_08,24.0,enc_trial,stim,response,Fine Arts students,786.5999999999768,enc_trial,1.0,24.0,s_a_14_2,student_art,fold-c,guitar pick,8.0,unique,far,paired,s_a_14_2.jpg,art,student-b1,STEM students,Fine Arts students,sub-98,1.0,1.0,1.0,1.0,0.5090277777777777 0.5076388888888889 0.50625 0.5076388888888889 0.5423611111111111 0.6 0.7881944444444444 0.8916666666666667 0.9861111111111112 0.99375 0.9854166666666668 0.9798611111111112 0.9708333333333332 0.9680555555555556 0.9645833333333332 0.9604166666666668 0.9326388888888888 0.9020833333333332 0.8583333333333333 0.8541666666666666,0.8574074074074074 0.8546296296296296 0.85 0.8425925925925926 0.7833333333333333 0.7083333333333333 0.4944444444444445 0.3787037037037037 0.2324074074074074 0.1898148148148148 0.14814814814814814 0.13888888888888884 0.12870370370370365 0.12407407407407413 0.11944444444444445 0.11944444444444445 0.125 0.1342592592592593 0.14722222222222225 0.14722222222222225,360.0 380.0 400.0 420.0 440.0 460.0 480.0 500.0 520.0 540.0 560.0 580.0 600.0 620.0 640.0 660.0 680.0 700.0 720.0 740.0
cb_08,25.0,enc_trial,stim,response,Fine Arts students,1089.799999809271,enc_trial,1.0,25.0,s_sh_18_1,student_shared,fold-c,wall calendar,8.0,competing,far,paired,s_sh_18_1.jpg,,student-b1,STEM students,Fine Arts students,sub-98,0.0,0.0,1.0,1.0,0.5284722222222222 0.5284722222222222 0.5284722222222222 0.5284722222222222 0.5305555555555556 0.5326388888888889 0.5340277777777778 0.5347222222222222 0.5347222222222222 0.5347222222222222 0.5354166666666667 0.5361111111111111 0.5402777777777777 0.54375 0.5618055555555556 0.5826388888888889 0.6784722222222223 0.7479166666666667 0.8958333333333334 0.9458333333333332 0.9833333333333332 0.9819444444444444 0.9736111111111112 0.9527777777777776 0.9319444444444444 0.9201388888888888 0.8902777777777777 0.8784722222222222 0.8666666666666667 0.8555555555555555 0.8520833333333333 0.8506944444444444 0.8520833333333333 0.8590277777777777 0.8618055555555556 0.8666666666666667 0.8694444444444445 0.875 0.8770833333333333 0.8826388888888889 0.8840277777777777 0.8861111111111111,0.8092592592592592 0.8074074074074074 0.8064814814814815 0.8064814814814815 0.8046296296296296 0.8046296296296296 0.8064814814814815 0.8074074074074074 0.8074074074074074 0.8074074074074074 0.8092592592592592 0.8101851851851851 0.812962962962963 0.8138888888888889 0.812962962962963 0.8055555555555556 0.7583333333333333 0.7157407407407408 0.5703703703703704 0.4861111111111112 0.3407407407407408 0.30092592592592593 0.2657407407407407 0.21851851851851856 0.18796296296296305 0.17592592592592593 0.15000000000000002 0.13703703703703707 0.12592592592592589 0.11296296296296293 0.1074074074074074 0.10092592592592596 0.09999999999999998 0.0981481481481481 0.0981481481481481 0.0981481481481481 0.0981481481481481 0.09907407407407408 0.09907407407407408 0.10092592592592596 0.10185185185185186 0.10277777777777776,133.30000000001746 153.30000000001746 173.30000000001746 193.30000000001743 213.30000000001743 233.30000000001743 253.30000000001743 273.3000000000174 293.3000000000174 313.3000000000174 333.3000000000174 353.30000000001746 373.30000000001746 393.30000000001746 413.30000000001746 433.30000000001746 453.30000000001746 473.30000000001746 493.30000000001746 513.3000000000175 533.3000000000175 553.3000000000175 573.3000000000175 593.3000000000175 613.3000000000175 633.3000000000175 653.3000000000175 673.3000000000175 693.3000000000176 713.3000000000176 733.3000000000176 753.3000000000176 773.3000000000176 793.3000000000176 813.3000000000176 833.3000000000176 853.3000000000176 873.3000000000176 893.3000000000176 913.3000000000177 933.3000000000177 953.3000000000177
cb_08,26.0,enc_trial,stim,response,Fine Arts students,735.0999999046326,enc_trial,1.0,26.0,s_a_15_2,student_art,fold-d,drum kit,8.0,unique,close,paired,s_a_15_2.jpg,art,student-b1,STEM students,Fine Arts students,sub-98,1.0,1.0,1.0,1.0,0.5097222222222222 0.5097222222222222 0.5090277777777777 0.5090277777777777 0.5076388888888889 0.5069444444444444 0.5069444444444444 0.5069444444444444 0.5069444444444444 0.5069444444444444 0.5069444444444444 0.5069444444444444 0.5069444444444444 0.5069444444444444 0.5069444444444444 0.50625 0.50625 0.5104166666666666 0.5506944444444445 0.5923611111111111 0.6972222222222222 0.7506944444444444 0.8 0.8541666666666666 0.8618055555555556 0.8638888888888889 0.8722222222222222 0.8743055555555556 0.875 0.8743055555555556 0.8743055555555556 0.875 0.875 0.875 0.875 0.875,0.812962962962963 0.812962962962963 0.812962962962963 0.812962962962963 0.8138888888888889 0.8148148148148149 0.8148148148148149 0.8148148148148149 0.8148148148148149 0.8148148148148149 0.8148148148148149 0.8148148148148149 0.8148148148148149 0.8148148148148149 0.8148148148148149 0.8148148148148149 0.8148148148148149 0.8148148148148149 0.7953703703703704 0.7712962962962963 0.675 0.6092592592592593 0.537037037037037 0.412962962962963 0.312962962962963 0.27129629629629626 0.2231481481481481 0.21203703703703705 0.2 0.1944444444444444 0.18703703703703692 0.18611111111111112 0.18240740740740746 0.17962962962962958 0.17592592592592593 0.17500000000000004,26.60000000000582 46.60000000000582 66.60000000000582 86.60000000000582 106.60000000000582 126.60000000000582 146.60000000000582 166.60000000000582 186.60000000000585 206.60000000000585 226.60000000000585 246.60000000000585 266.6000000000058 286.6000000000058 306.6000000000058 326.6000000000058 346.6000000000058 366.6000000000058 386.6000000000058 406.6000000000058 426.6000000000058 446.6000000000058 466.6000000000058 486.6000000000058 506.6000000000058 526.6000000000058 546.6000000000058 566.6000000000057 586.6000000000057 606.6000000000057 626.6000000000057 646.6000000000057 666.6000000000057 686.6000000000057 706.6000000000058 726.6000000000058
cb_08,27.0,enc_trial,stim,response,STEM students,1045.1999999046384,enc_trial,1.0,27.0,s_sh_16_1,student_shared,fold-a,stapler,8.0,competing,close,paired,s_sh_16_1.jpg,,student-b1,STEM students,Fine Arts students,sub-98,1.0,1.0,1.0,1.0,0.5138888888888888 0.5097222222222222 0.5 0.4951388888888889 0.4881944444444444 0.4868055555555556 0.5006944444444444 0.5305555555555556 0.6395833333333333 0.7048611111111112 0.8215277777777777 0.8638888888888889 0.9027777777777778 0.9020833333333332 0.8659722222222223 0.8305555555555556 0.7472222222222222 0.7 0.5770833333333333 0.5090277777777777 0.3986111111111112 0.3631944444444444 0.3201388888888889 0.30972222222222223 0.30069444444444443 0.29791666666666666 0.2902777777777778 0.2847222222222222 0.27361111111111114 0.26666666666666666 0.2340277777777777 0.20208333333333334 0.13541666666666666 0.1125 0.09305555555555556 0.09236111111111113,0.8148148148148149 0.8148148148148149 0.8166666666666667 0.8175925925925926 0.8157407407407408 0.8111111111111111 0.7935185185185185 0.7759259259259259 0.7148148148148148 0.662962962962963 0.5351851851851852 0.4685185185185186 0.3407407407407408 0.2851851851851852 0.20185185185185184 0.17222222222222228 0.13055555555555556 0.12037037037037035 0.11203703703703703 0.1157407407407407 0.13055555555555556 0.13703703703703707 0.1444444444444445 0.14629629629629626 0.14814814814814814 0.14907407407407405 0.1518518518518519 0.15370370370370368 0.15740740740740744 0.15833333333333333 0.1601851851851852 0.1601851851851852 0.1611111111111111 0.1611111111111111 0.15833333333333333 0.15833333333333333,320.0 340.0 360.0 380.0 400.0 420.0 440.0 460.0 480.0 500.0 520.0 540.0 560.0 580.0 600.0 620.0 640.0 660.0 680.0 700.0 720.0 740.0 760.0 780.0 800.0 820.0 840.0 860.0 880.0 900.0 920.0 940.0 960.0 980.0 1000.0 1020.0
cb_08,28.0,enc_trial,stim,response,Fine Arts students,1078.1999996185186,enc_trial,1.0,28.0,s_sh_11_1,student_shared,fold-b-single,pencil case,8.0,competing,,single,s_sh_11_1.jpg,,student-b1,STEM students,Fine Arts students,sub-98,1.0,,1.0,,0.5083333333333333 0.5131944444444444 0.5201388888888889 0.5375 0.5597222222222222 0.58125 0.6666666666666666 0.7354166666666667 0.8923611111111112 0.9604166666666668 1.0180555555555555 1.0708333333333333 1.0805555555555555 1.0916666666666666 1.09375 1.0840277777777778 1.053472222222222 1.0333333333333334 0.9888888888888888 0.9638888888888888 0.90625 0.8770833333333333 0.84375 0.8381944444444445 0.8361111111111111 0.8361111111111111 0.8361111111111111 0.8361111111111111 0.8354166666666667 0.8354166666666667,0.8194444444444444 0.8203703703703704 0.8203703703703704 0.8203703703703704 0.8157407407407408 0.8111111111111111 0.7916666666666666 0.775 0.7231481481481481 0.6907407407407408 0.6555555555555556 0.5805555555555555 0.5407407407407407 0.4601851851851851 0.4240740740740741 0.3481481481481481 0.2768518518518519 0.2481481481481481 0.20370370370370366 0.18888888888888888 0.17129629629629628 0.16481481481481486 0.1611111111111111 0.1611111111111111 0.1611111111111111 0.1611111111111111 0.1611111111111111 0.1611111111111111 0.16388888888888886 0.16481481481481486,399.8999999999942 419.8999999999942 439.8999999999942 459.8999999999942 479.8999999999942 499.8999999999942 519.8999999999942 539.8999999999942 559.8999999999942 579.8999999999943 599.8999999999943 619.8999999999943 639.8999999999943 659.8999999999943 679.8999999999943 699.8999999999942 719.8999999999942 739.8999999999942 759.8999999999942 779.8999999999942 799.8999999999942 819.8999999999942 839.8999999999942 859.8999999999942 879.8999999999942 899.8999999999942 919.8999999999942 939.8999999999942 959.8999999999942 979.8999999999942
cb_08,29.0,enc_trial,stim,response,Fine Arts students,1009.7999999046443,enc_trial,1.0,29.0,s_sh_13_1,student_shared,fold-b-single,index cards,8.0,competing,,single,s_sh_13_1.jpg,,student-b1,STEM students,Fine Arts students,sub-98,1.0,,1.0,,0.5201388888888889 0.5180555555555556 0.5159722222222223 0.5159722222222223 0.5159722222222223 0.5159722222222223 0.5159722222222223 0.5159722222222223 0.5159722222222223 0.5159722222222223 0.5159722222222223 0.5159722222222223 0.5159722222222223 0.5159722222222223 0.5291666666666667 0.5465277777777777 0.6069444444444444 0.6479166666666667 0.7388888888888889 0.7763888888888889 0.8333333333333334 0.8479166666666667 0.8618055555555556 0.8618055555555556 0.8569444444444444 0.8555555555555555 0.8527777777777777 0.8354166666666667 0.8145833333333333 0.7638888888888888 0.7409722222222223 0.70625 0.7006944444444444 0.7 0.7069444444444445 0.7423611111111111 0.76875 0.825 0.8465277777777778 0.8652777777777778 0.8659722222222223 0.8666666666666667,0.8 0.8 0.799074074074074 0.7981481481481482 0.7981481481481482 0.7981481481481482 0.7981481481481482 0.7981481481481482 0.7981481481481482 0.7981481481481482 0.7981481481481482 0.7981481481481482 0.7981481481481482 0.7981481481481482 0.7981481481481482 0.7981481481481482 0.7796296296296297 0.7601851851851852 0.6916666666666667 0.6574074074074074 0.5842592592592593 0.5509259259259259 0.4805555555555555 0.4361111111111111 0.3527777777777777 0.3203703703703704 0.28796296296296303 0.2416666666666667 0.2231481481481481 0.1907407407407408 0.1805555555555556 0.1694444444444444 0.16666666666666666 0.16574074074074074 0.16388888888888886 0.1611111111111111 0.1592592592592592 0.1527777777777778 0.1518518518518519 0.15462962962962967 0.15462962962962967 0.15462962962962967,173.30000000001746 193.30000000001743 213.30000000001743 233.30000000001743 253.30000000001743 273.3000000000174 293.3000000000174 313.3000000000174 333.3000000000174 353.30000000001746 373.30000000001746 393.30000000001746 413.30000000001746 433.30000000001746 453.30000000001746 473.30000000001746 493.30000000001746 513.3000000000175 533.3000000000175 553.3000000000175 573.3000000000175 593.3000000000175 613.3000000000175 633.3000000000175 653.3000000000175 673.3000000000175 693.3000000000176 713.3000000000176 733.3000000000176 753.3000000000176 773.3000000000176 793.3000000000176 813.3000000000176 833.3000000000176 853.3000000000176 873.3000000000176 893.3000000000176 913.3000000000177 933.3000000000177 953.3000000000177 973.3000000000177 993.3000000000177
cb_08,30.0,enc_trial,stim,response,Fine Arts students,741.1999999046384,enc_trial,1.0,30.0,s_sh_09_2,student_shared,fold-c,paper clips,8.0,competing,far,paired,s_sh_09_2.jpg,,student-b1,STEM students,Fine Arts students,sub-98,0.0,0.0,1.0,1.0,0.5201388888888889 0.5375 0.6340277777777777 0.6986111111111111 0.8159722222222222 0.8541666666666666 0.8875 0.8923611111111112 0.89375 0.8888888888888888 0.8777777777777778 0.8743055555555556 0.8694444444444445 0.8673611111111111 0.8666666666666667 0.8666666666666667 0.8666666666666667 0.8666666666666667,0.8166666666666667 0.8037037037037037 0.7342592592592593 0.6805555555555556 0.5509259259259259 0.4861111111111112 0.37777777777777777 0.34444444444444444 0.29907407407407405 0.2833333333333333 0.24722222222222226 0.2342592592592593 0.21944444444444444 0.2148148148148148 0.2046296296296296 0.2 0.19351851851851853 0.1907407407407408,386.7000000000117 406.7000000000117 426.7000000000117 446.7000000000117 466.7000000000117 486.7000000000117 506.7000000000117 526.7000000000116 546.7000000000116 566.7000000000116 586.7000000000116 606.7000000000116 626.7000000000116 646.7000000000116 666.7000000000116 686.7000000000116 706.7000000000116 726.7000000000116
cb_08,31.0,enc_trial,stim,response,Fine Arts students,843.9999996185361,enc_trial,1.0,31.0,s_sh_23_1,student_shared,fold-a,ballpoint pen,8.0,competing,close,paired,s_sh_23_1.jpg,,student-b1,STEM students,Fine Arts students,sub-98,0.0,0.0,1.0,1.0,0.5027777777777778 0.5180555555555556 0.6013888888888889 0.6569444444444444 0.7805555555555556 0.83125 0.8708333333333333 0.9173611111111112 0.9354166666666668 0.9354166666666668 0.9201388888888888 0.9041666666666668 0.8881944444444444 0.8673611111111111 0.8631944444444445 0.8618055555555556 0.8618055555555556 0.8618055555555556,0.8175925925925926 0.8046296296296296 0.7333333333333334 0.6814814814814815 0.5759259259259261 0.5277777777777778 0.4805555555555555 0.3842592592592593 0.30000000000000004 0.2685185185185185 0.2157407407407408 0.18888888888888888 0.16574074074074074 0.1333333333333333 0.11944444444444445 0.1166666666666667 0.1157407407407407 0.1148148148148148,440.0 460.0 480.0 500.0 520.0 540.0 560.0 580.0 600.0 620.0 640.0 660.0 680.0 700.0 720.0 740.0 760.0 780.0
cb_08,32.0,enc_trial,stim,response,Fine Arts students,786.5999997138861,enc_trial,1.0,32.0,s_a_12_1,student_art,fold-c,saxophone,8.0,unique,far,paired,s_a_12_1.jpg,art,student-b1,STEM students,Fine Arts students,sub-98,1.0,1.0,1.0,1.0,0.5243055555555556 0.5208333333333334 0.4986111111111111 0.4777777777777778 0.4541666666666666 0.4777777777777778 0.5951388888888889 0.6520833333333333 0.7138888888888889 0.7361111111111112 0.7722222222222223 0.7861111111111111 0.8020833333333334 0.8048611111111111 0.8111111111111111 0.8145833333333333 0.8215277777777777 0.8222222222222222,0.8 0.7805555555555556 0.6925925925925926 0.6185185185185185 0.4305555555555556 0.35092592592592603 0.2481481481481481 0.225 0.20277777777777767 0.2 0.1972222222222222 0.1953703703703704 0.19166666666666665 0.1898148148148148 0.18425925925925926 0.18148148148148147 0.17685185185185182 0.17685185185185182,386.69999999998254 406.69999999998254 426.69999999998254 446.69999999998254 466.69999999998254 486.69999999998254 506.69999999998254 526.6999999999825 546.6999999999825 566.6999999999825 586.6999999999825 606.6999999999825 626.6999999999825 646.6999999999825 666.6999999999825 686.6999999999825 706.6999999999824 726.6999999999824
cb_08,33.0,enc_trial,stim,response,Fine Arts students,1110.7999996185242,enc_trial,1.0,33.0,s_sh_16_2,student_shared,fold-a,stapler,8.0,competing,close,paired,s_sh_16_2.jpg,,student-b1,STEM students,Fine Arts students,sub-98,1.0,1.0,1.0,1.0,0.5027777777777778 0.5027777777777778 0.5243055555555556 0.5569444444444445 0.6527777777777778 0.7159722222222222 0.8173611111111111 0.8555555555555555 0.8868055555555555 0.8923611111111112 0.89375 0.8909722222222223 0.875 0.8625 0.8319444444444445 0.8131944444444444 0.7798611111111111 0.7645833333333333 0.75 0.7493055555555556 0.7597222222222222 0.7743055555555556 0.8111111111111111 0.8263888888888888 0.8423611111111111 0.8465277777777778 0.8493055555555555,0.8064814814814815 0.7916666666666666 0.7222222222222222 0.6546296296296297 0.5046296296296297 0.42314814814814816 0.2972222222222223 0.24629629629629635 0.19166666666666665 0.17407407407407405 0.15740740740740744 0.1527777777777778 0.14166666666666672 0.13611111111111107 0.13055555555555556 0.13055555555555556 0.13240740740740742 0.1351851851851852 0.14166666666666672 0.14166666666666672 0.1425925925925926 0.1444444444444445 0.14629629629629626 0.14722222222222225 0.15000000000000002 0.1509259259259259 0.1509259259259259,560.0 580.0 600.0 620.0 640.0 660.0 680.0 700.0 720.0 740.0 760.0 780.0 800.0 820.0 840.0 860.0 880.0 900.0 920.0 940.0 960.0 980.0 1000.0 1020.0 1040.0 1060.0 1080.0
cb_08,34.0,enc_trial,stim,response,Fine Arts students,768.2999999046443,enc_trial,1.0,34.0,s_sh_23_2,student_shared,fold-a,ballpoint pen,8.0,competing,close,paired,s_sh_23_2.jpg,,student-b1,STEM students,Fine Arts students,sub-98,0.0,0.0,1.0,1.0,0.5138888888888888 0.5201388888888889 0.5472222222222223 0.5638888888888889 0.6118055555555556 0.6444444444444445 0.7298611111111111 0.7673611111111112 0.8354166666666667 0.8569444444444444 0.8798611111111111 0.8875 0.8965277777777778 0.8972222222222223 0.8909722222222223 0.8861111111111111 0.88125 0.88125 0.8805555555555555 0.8805555555555555,0.8157407407407408 0.8157407407407408 0.8074074074074074 0.799074074074074 0.7648148148148148 0.7342592592592593 0.6416666666666666 0.587037037037037 0.4722222222222222 0.425 0.3462962962962963 0.312962962962963 0.26481481481481484 0.25 0.2240740740740741 0.21203703703703705 0.19907407407407407 0.1962962962962963 0.19259259259259254 0.19166666666666665,373.40000000002334 393.40000000002334 413.40000000002334 433.40000000002334 453.40000000002334 473.40000000002334 493.40000000002334 513.4000000000234 533.4000000000234 553.4000000000234 573.4000000000233 593.4000000000233 613.4000000000233 633.4000000000233 653.4000000000233 673.4000000000233 693.4000000000232 713.4000000000232 733.4000000000232 753.4000000000232
cb_08,35.0,enc_trial,stim,response,STEM students,886.8999997139035,enc_trial,1.0,35.0,s_sh_20_2,student_shared,fold-c,tape,8.0,competing,far,paired,s_sh_20_2.jpg,,student-b1,STEM students,Fine Arts students,sub-98,0.0,0.0,0.0,0.0,0.51875 0.51875 0.51875 0.51875 0.51875 0.51875 0.51875 0.5215277777777778 0.5215277777777778 0.525 0.5291666666666667 0.5465277777777777 0.5611111111111111 0.5986111111111111 0.6291666666666667 0.6298611111111111 0.59375 0.5513888888888889 0.4625 0.4222222222222222 0.3298611111111111 0.2722222222222222 0.18194444444444444 0.15 0.1111111111111111 0.10416666666666667 0.09930555555555556 0.09791666666666668 0.09722222222222222,0.8185185185185185 0.8185185185185185 0.8185185185185185 0.8185185185185185 0.8185185185185185 0.8185185185185185 0.8166666666666667 0.8111111111111111 0.8101851851851851 0.7981481481481482 0.7814814814814814 0.7046296296296296 0.6583333333333333 0.537962962962963 0.4157407407407408 0.3740740740740741 0.3046296296296296 0.2657407407407407 0.2203703703703704 0.2083333333333333 0.18425925925925926 0.17222222222222228 0.16574074074074074 0.16574074074074074 0.17129629629629628 0.17129629629629628 0.1685185185185185 0.16759259259259265 0.16481481481481486,266.70000000001164 286.70000000001164 306.70000000001164 326.70000000001164 346.7000000000116 366.7000000000117 386.7000000000117 406.7000000000117 426.7000000000117 446.7000000000117 466.7000000000117 486.7000000000117 506.7000000000117 526.7000000000116 546.7000000000116 566.7000000000116 586.7000000000116 606.7000000000116 626.7000000000116 646.7000000000116 666.7000000000116 686.7000000000116 706.7000000000116 726.7000000000116 746.7000000000116 766.7000000000116 786.7000000000116 806.7000000000116 826.7000000000116
cb_08,36.0,enc_trial,stim,response,STEM students,1065.9999997139093,enc_trial,1.0,36.0,s_s_03_1,student_stem,fold-e-single,petri dish,8.0,unique,,single,s_s_03_1.jpg,stem,student-b1,STEM students,Fine Arts students,sub-98,1.0,,1.0,,0.5208333333333334 0.5222222222222223 0.5263888888888889 0.5270833333333333 0.5270833333333333 0.5270833333333333 0.5270833333333333 0.5270833333333333 0.5270833333333333 0.5243055555555556 0.5222222222222223 0.5222222222222223 0.5222222222222223 0.5229166666666667 0.5326388888888889 0.5430555555555555 0.5840277777777778 0.6173611111111111 0.7041666666666667 0.7458333333333333 0.8006944444444445 0.8166666666666667 0.8256944444444444 0.8256944444444444 0.8229166666666666 0.8215277777777777 0.8215277777777777 0.825 0.8354166666666667 0.8416666666666667 0.8534722222222222 0.8583333333333333 0.8652777777777778 0.8666666666666667 0.8666666666666667 0.8680555555555556 0.8715277777777778 0.8743055555555556 0.8722222222222222 0.8611111111111112 0.7659722222222223 0.6951388888888889 0.4770833333333334 0.3861111111111111 0.25277777777777777 0.2277777777777777 0.21319444444444444 0.20902777777777776 0.1986111111111111 0.19236111111111112 0.17569444444444446 0.1701388888888889 0.16527777777777775 0.16458333333333333,0.8018518518518518 0.8 0.799074074074074 0.799074074074074 0.7981481481481482 0.7981481481481482 0.7981481481481482 0.7981481481481482 0.7981481481481482 0.8009259259259259 0.8018518518518518 0.8018518518518518 0.8018518518518518 0.799074074074074 0.7824074074074074 0.7601851851851852 0.6694444444444445 0.6064814814814814 0.4657407407407408 0.39814814814814814 0.29907407407407405 0.26388888888888884 0.2222222222222222 0.2083333333333333 0.18240740740740746 0.17222222222222228 0.1527777777777778 0.14722222222222225 0.13611111111111107 0.13240740740740742 0.12777777777777774 0.12685185185185188 0.12407407407407413 0.12314814814814813 0.12314814814814813 0.12222222222222225 0.12129629629629635 0.11944444444444445 0.11851851851851848 0.11759259259259258 0.125 0.13148148148148153 0.13611111111111107 0.13240740740740742 0.1166666666666667 0.11018518518518516 0.10370370370370374 0.10092592592592596 0.09907407407407408 0.09907407407407408 0.10462962962962964 0.1074074074074074 0.10925925925925928 0.10925925925925928,0.0 20.0 40.0 60.0 80.0 100.0 120.0 140.0 160.0 180.0 200.0 220.0 240.0 260.0 280.0 300.0 320.0 340.0 360.0 380.0 400.0 420.0 440.0 460.0 480.0 500.0 520.0 540.0 560.0 580.0 600.0 620.0 640.0 660.0 680.0 700.0 720.0 740.0 760.0 780.0 800.0 820.0 840.0 860.0 880.0 900.0 920.0 940.0 960.0 980.0 1000.0 1020.0 1040.0 1060.0
cb_08,37.0,enc_trial,stim,response,STEM students,1084.3999997139038,enc_trial,1.0,37.0,s_s_14_1,student_stem,fold-e-single,funnel,8.0,unique,,single,s_s_14_1.jpg,stem,student-b1,STEM students,Fine Arts students,sub-98,1.0,,1.0,,0.5041666666666667 0.5041666666666667 0.5041666666666667 0.5041666666666667 0.5041666666666667 0.5041666666666667 0.5041666666666667 0.5041666666666667 0.5041666666666667 0.5041666666666667 0.5041666666666667 0.5041666666666667 0.5041666666666667 0.5034722222222222 0.5034722222222222 0.5034722222222222 0.5083333333333333 0.5166666666666667 0.5590277777777778 0.5958333333333333 0.7020833333333333 0.7548611111111111 0.8347222222222223 0.8583333333333333 0.875 0.8736111111111111 0.8527777777777777 0.8277777777777777 0.7819444444444444 0.7701388888888889 0.7701388888888889 0.7743055555555556 0.7798611111111111 0.7833333333333333 0.7868055555555555 0.7972222222222223 0.8006944444444445 0.8013888888888889 0.8006944444444445 0.7986111111111112 0.7951388888888888 0.7611111111111111 0.7166666666666667 0.5895833333333333 0.5048611111111111 0.3138888888888889 0.2361111111111111 0.17708333333333334 0.17291666666666666 0.17222222222222222 0.17222222222222222 0.17083333333333334 0.16875 0.16805555555555554 0.1673611111111111,0.8324074074074074 0.8314814814814815 0.8314814814814815 0.8314814814814815 0.8314814814814815 0.8314814814814815 0.8305555555555555 0.8296296296296296 0.8296296296296296 0.8287037037037037 0.8277777777777777 0.8268518518518518 0.825 0.8240740740740741 0.8240740740740741 0.8240740740740741 0.8222222222222222 0.8212962962962963 0.8092592592592592 0.7972222222222223 0.7379629629629629 0.6907407407407408 0.5601851851851851 0.4879629629629629 0.3935185185185185 0.3657407407407407 0.3138888888888889 0.2851851851851852 0.2333333333333333 0.21203703703703705 0.18425925925925926 0.17500000000000004 0.1611111111111111 0.15555555555555556 0.1509259259259259 0.14629629629629626 0.1444444444444445 0.1435185185185185 0.13981481481481484 0.13703703703703707 0.1342592592592593 0.12777777777777774 0.12407407407407413 0.12314814814814813 0.12407407407407413 0.13240740740740742 0.1333333333333333 0.12777777777777774 0.12592592592592589 0.12592592592592589 0.12592592592592589 0.12407407407407413 0.12314814814814813 0.12129629629629635 0.12129629629629635,13.300000000017462 33.30000000001746 53.30000000001746 73.30000000001745 93.30000000001745 113.30000000001745 133.30000000001746 153.30000000001746 173.30000000001746 193.30000000001743 213.30000000001743 233.30000000001743 253.30000000001743 273.3000000000174 293.3000000000174 313.3000000000174 333.3000000000174 353.30000000001746 373.30000000001746 393.30000000001746 413.30000000001746 433.30000000001746 453.30000000001746 473.30000000001746 493.30000000001746 513.3000000000175 533.3000000000175 553.3000000000175 573.3000000000175 593.3000000000175 613.3000000000175 633.3000000000175 653.3000000000175 673.3000000000175 693.3000000000176 713.3000000000176 733.3000000000176 753.3000000000176 773.3000000000176 793.3000000000176 813.3000000000176 833.3000000000176 853.3000000000176 873.3000000000176 893.3000000000176 913.3000000000177 933.3000000000177 953.3000000000177 973.3000000000177 993.3000000000177 1013.3000000000177 1033.3000000000177 1053.3000000000177 1073.3000000000177 1093.3000000000177
cb_08,38.0,enc_trial,stim,response,Fine Arts students,702.7999999999884,enc_trial,1.0,38.0,s_sh_04_2,student_shared,fold-c,laptop stand,8.0,competing,far,paired,s_sh_04_2.jpg,,student-b1,STEM students,Fine Arts students,sub-98,0.0,0.0,1.0,0.0,0.5111111111111111 0.5111111111111111 0.5111111111111111 0.5111111111111111 0.5111111111111111 0.5111111111111111 0.5111111111111111 0.5111111111111111 0.5111111111111111 0.5111111111111111 0.5111111111111111 0.5111111111111111 0.5111111111111111 0.5111111111111111 0.5173611111111112 0.5256944444444445 0.5576388888888889 0.5875 0.6722222222222223 0.73125 0.8506944444444444 0.8854166666666666 0.89375 0.8875 0.86875 0.8576388888888888 0.8381944444444445 0.8319444444444445 0.8319444444444445 0.8340277777777778 0.8375 0.8395833333333333 0.8444444444444444 0.8486111111111111 0.8527777777777777,0.825 0.825 0.825 0.825 0.825 0.825 0.825 0.825 0.825 0.825 0.825 0.825 0.825 0.825 0.825 0.8222222222222222 0.8 0.775 0.6870370370370371 0.6157407407407407 0.4490740740740741 0.38796296296296295 0.33333333333333337 0.31018518518518523 0.275 0.2592592592592593 0.2287037037037037 0.2129629629629629 0.1907407407407408 0.18240740740740746 0.17222222222222228 0.16574074074074074 0.15370370370370368 0.14907407407407405 0.1435185185185185,0.0 20.0 40.0 60.0 80.0 100.0 120.0 140.0 160.0 180.0 200.0 220.0 240.0 260.0 280.0 300.0 320.0 340.0 360.0 380.0 400.0 420.0 440.0 460.0 480.0 500.0 520.0 540.0 560.0 580.0 600.0 620.0 640.0 660.0 680.0
cb_08,39.0,enc_trial,stim,response,Fine Arts students,625.8999999999943,enc_trial,1.0,39.0,s_a_13_1,student_art,fold-e-single,violin,8.0,unique,,single,s_a_13_1.jpg,art,student-b1,STEM students,Fine Arts students,sub-98,1.0,,1.0,,0.5298611111111111 0.53125 0.5340277777777778 0.5347222222222222 0.5354166666666667 0.5354166666666667 0.5354166666666667 0.5354166666666667 0.5354166666666667 0.5354166666666667 0.5354166666666667 0.5354166666666667 0.5354166666666667 0.5354166666666667 0.5354166666666667 0.5354166666666667 0.5354166666666667 0.5354166666666667 0.54375 0.5597222222222222 0.6076388888888888 0.6347222222222222 0.6944444444444444 0.7305555555555555 0.7972222222222223 0.8222222222222222 0.8541666666666666 0.8618055555555556 0.8708333333333333 0.8729166666666667 0.875,0.6648148148148147 0.6555555555555556 0.6435185185185186 0.6398148148148148 0.6370370370370371 0.6370370370370371 0.6361111111111111 0.6361111111111111 0.6361111111111111 0.6361111111111111 0.6361111111111111 0.6361111111111111 0.6361111111111111 0.6361111111111111 0.6361111111111111 0.6361111111111111 0.6361111111111111 0.6361111111111111 0.624074074074074 0.6083333333333334 0.5685185185185185 0.537037037037037 0.4481481481481482 0.3851851851851852 0.2666666666666667 0.225925925925926 0.17592592592592593 0.1611111111111111 0.1444444444444445 0.13796296296296295 0.1342592592592593,0.0 20.0 40.0 60.0 80.0 100.0 120.0 140.0 160.0 180.0 200.0 220.0 240.0 260.0 280.0 300.0 320.0 340.0 360.0 380.0 400.0 420.0 440.0 460.0 480.0 500.0 520.0 540.0 560.0 580.0 600.0
cb_08,40.0,enc_trial,stim,response,Fine Arts students,698.3999997139035,enc_trial,1.0,40.0,s_sh_18_2,student_shared,fold-c,wall calendar,8.0,competing,far,paired,s_sh_18_2.jpg,,student-b1,STEM students,Fine Arts students,sub-98,0.0,0.0,1.0,1.0,0.5131944444444444 0.525 0.5881944444444445 0.6486111111111111 0.7694444444444445 0.7916666666666666 0.7930555555555555 0.7847222222222222 0.7631944444444444 0.7569444444444444 0.7548611111111111 0.7597222222222222 0.7777777777777778 0.7888888888888889 0.8083333333333333 0.8138888888888889 0.8201388888888889 0.8208333333333333,0.8037037037037037 0.7777777777777778 0.6546296296296297 0.5592592592592592 0.38796296296296295 0.3407407407407408 0.27407407407407397 0.2518518518518519 0.2222222222222222 0.21111111111111114 0.1953703703703704 0.1898148148148148 0.17962962962962958 0.17592592592592593 0.17222222222222228 0.17129629629629628 0.1703703703703704 0.1703703703703704,346.80000000001746 366.80000000001746 386.80000000001746 406.80000000001746 426.80000000001746 446.80000000001746 466.80000000001746 486.80000000001746 506.80000000001746 526.8000000000175 546.8000000000175 566.8000000000175 586.8000000000175 606.8000000000175 626.8000000000175 646.8000000000175 666.8000000000175 686.8000000000175
cb_08,41.0,enc_trial,stim,response,Iceland trip,868.1999998092651,enc_trial,2.0,1.0,t_i_11_1,travel_Iceland,fold-d,headlamp,8.0,unique,close,paired,t_i_11_1.jpg,Iceland,travel-b1,Iceland trip,Miami trip,sub-98,1.0,1.0,1.0,1.0,0.5173611111111112 0.5173611111111112 0.5173611111111112 0.5152777777777777 0.5118055555555555 0.5097222222222222 0.5090277777777777 0.5083333333333333 0.5083333333333333 0.5083333333333333 0.5083333333333333 0.5090277777777777 0.5104166666666666 0.5111111111111111 0.5125 0.5125 0.5138888888888888 0.5138888888888888 0.51875 0.5236111111111111 0.5493055555555556 0.56875 0.6201388888888889 0.65625 0.7201388888888889 0.7347222222222223 0.7375 0.7284722222222222 0.6770833333333334 0.63125 0.49375 0.4041666666666667 0.25625 0.1930555555555556 0.12708333333333333 0.12152777777777778 0.12152777777777778 0.12222222222222222 0.12361111111111113 0.12361111111111113 0.12361111111111113,0.8138888888888889 0.8175925925925926 0.825 0.8287037037037037 0.8351851851851853 0.837037037037037 0.837962962962963 0.837962962962963 0.837962962962963 0.837962962962963 0.8388888888888889 0.8398148148148148 0.8407407407407408 0.8407407407407408 0.8407407407407408 0.8407407407407408 0.8416666666666667 0.8416666666666667 0.8398148148148148 0.8342592592592593 0.8037037037037037 0.7777777777777778 0.7074074074074075 0.6574074074074074 0.5509259259259259 0.5064814814814815 0.4342592592592592 0.4009259259259259 0.337037037037037 0.31018518518518523 0.2620370370370371 0.2416666666666667 0.2046296296296296 0.18333333333333326 0.15000000000000002 0.13888888888888884 0.12777777777777774 0.12685185185185188 0.12777777777777774 0.12870370370370365 0.12962962962962965,0.0 20.0 40.0 60.0 80.0 100.0 120.0 140.0 160.0 180.0 200.0 220.0 240.0 260.0 280.0 300.0 320.0 340.0 360.0 380.0 400.0 420.0 440.0 460.0 480.0 500.0 520.0 540.0 560.0 580.0 600.0 620.0 640.0 660.0 680.0 700.0 720.0 740.0 760.0 780.0 800.0
cb_08,42.0,enc_trial,stim,response,Iceland trip,930.9999998092537,enc_trial,2.0,2.0,t_s_23_1,travel_shared,fold-c,ball cap,8.0,competing,far,paired,t_s_23_1.jpg,,travel-b1,Iceland trip,Miami trip,sub-98,0.0,0.0,0.0,0.0,0.5111111111111111 0.5125 0.525 0.5340277777777778 0.5291666666666667 0.5090277777777777 0.44583333333333336 0.40902777777777777 0.32222222222222224 0.28680555555555554 0.2479166666666667 0.2416666666666667 0.2333333333333333 0.2277777777777777 0.2152777777777778 0.2069444444444445 0.17916666666666667 0.16041666666666668 0.1375 0.13333333333333333 0.13194444444444445,0.8268518518518518 0.8212962962962963 0.7777777777777778 0.7166666666666667 0.4814814814814815 0.37222222222222223 0.2296296296296297 0.18333333333333326 0.12222222222222225 0.1074074074074074 0.09907407407407408 0.09907407407407408 0.1074074074074074 0.1148148148148148 0.13240740740740742 0.14074074074074072 0.15740740740740744 0.16481481481481486 0.1694444444444444 0.1694444444444444 0.1694444444444444,506.69999999998254 526.6999999999825 546.6999999999825 566.6999999999825 586.6999999999825 606.6999999999825 626.6999999999825 646.6999999999825 666.6999999999825 686.6999999999825 706.6999999999824 726.6999999999824 746.6999999999824 766.6999999999824 786.6999999999824 806.6999999999824 826.6999999999824 846.6999999999824 866.6999999999824 886.6999999999824 906.6999999999823
cb_08,43.0,enc_trial,stim,response,Miami trip,816.3999998092768,enc_trial,2.0,3.0,t_m_11_1,travel_Miami,fold-d,collapsible beach chair,8.0,unique,close,paired,t_m_11_1.jpg,Miami,travel-b1,Iceland trip,Miami trip,sub-98,1.0,1.0,1.0,1.0,0.5395833333333333 0.5409722222222222 0.5416666666666666 0.5416666666666666 0.5416666666666666 0.5416666666666666 0.5423611111111111 0.5430555555555555 0.5444444444444444 0.5444444444444444 0.5444444444444444 0.5444444444444444 0.5444444444444444 0.5444444444444444 0.5444444444444444 0.5444444444444444 0.5444444444444444 0.5444444444444444 0.5444444444444444 0.5444444444444444 0.5479166666666667 0.5513888888888889 0.5583333333333333 0.5659722222222222 0.5847222222222223 0.5909722222222222 0.6069444444444444 0.6208333333333333 0.6590277777777778 0.68125 0.7395833333333334 0.7701388888888889 0.81875 0.8319444444444445 0.8465277777777778 0.8520833333333333 0.8631944444444445 0.8659722222222223 0.8701388888888889,0.7574074074074074 0.7564814814814815 0.7546296296296297 0.7546296296296297 0.7546296296296297 0.7546296296296297 0.7574074074074074 0.7583333333333333 0.7592592592592593 0.7592592592592593 0.7592592592592593 0.7592592592592593 0.7592592592592593 0.7592592592592593 0.7592592592592593 0.7592592592592593 0.7592592592592593 0.7592592592592593 0.7592592592592593 0.7592592592592593 0.7444444444444445 0.7231481481481481 0.6518518518518519 0.5935185185185186 0.4861111111111112 0.4518518518518518 0.3898148148148149 0.3666666666666667 0.325 0.3037037037037037 0.2592592592592593 0.23703703703703705 0.20370370370370366 0.1944444444444444 0.18425925925925926 0.1805555555555556 0.17500000000000004 0.17314814814814816 0.1703703703703704,0.0 20.0 40.0 60.0 80.0 100.0 120.0 140.0 160.0 180.0 200.0 220.0 240.0 260.0 280.0 300.0 320.0 340.0 360.0 380.0 400.0 420.0 440.0 460.0 480.0 500.0 520.0 540.0 560.0 580.0 600.0 620.0 640.0 660.0 680.0 700.0 720.0 740.0 760.0
cb_08,44.0,enc_trial,stim,response,Miami trip,891.799999809242,enc_trial,2.0,4.0,t_s_16_1,travel_shared,fold-b-single,chapstick,8.0,competing,,single,t_s_16_1.jpg,,travel-b1,Iceland trip,Miami trip,sub-98,1.0,,1.0,,0.49375 0.49375 0.49375 0.49375 0.49375 0.49375 0.49375 0.49375 0.49375 0.49375 0.49375 0.49375 0.49375 0.49375 0.4923611111111112 0.4895833333333333 0.48125 0.4756944444444444 0.4680555555555556 0.4680555555555556 0.4916666666666666 0.5298611111111111 0.6881944444444444 0.8013888888888889 0.8979166666666667 0.9104166666666668 0.9138888888888888 0.9118055555555556 0.9083333333333332 0.9076388888888888 0.90625 0.9027777777777778 0.8895833333333333 0.8868055555555555 0.8881944444444444 0.8888888888888888 0.8888888888888888,0.837037037037037 0.837037037037037 0.837962962962963 0.837962962962963 0.837962962962963 0.837962962962963 0.837962962962963 0.837962962962963 0.837962962962963 0.837962962962963 0.837962962962963 0.837962962962963 0.837962962962963 0.837962962962963 0.8342592592592593 0.825 0.7768518518518519 0.7388888888888889 0.5981481481481481 0.5027777777777778 0.3240740740740741 0.2481481481481481 0.10462962962962964 0.03703703703703709 0.0009259259259258855 0.0009259259259258855 0.007407407407407419 0.014814814814814838 0.02777777777777779 0.03425925925925921 0.04814814814814816 0.062037037037037016 0.0972222222222222 0.10833333333333328 0.12592592592592589 0.13148148148148153 0.1333333333333333,160.0 180.0 200.0 220.0 240.0 260.0 280.0 300.0 320.0 340.0 360.0 380.0 400.0 420.0 440.0 460.0 480.0 500.0 520.0 540.0 560.0 580.0 600.0 620.0 640.0 660.0 680.0 700.0 720.0 740.0 760.0 780.0 800.0 820.0 840.0 860.0 880.0
cb_08,45.0,enc_trial,stim,response,Iceland trip,1277.3999997138744,enc_trial,2.0,5.0,t_s_24_1,travel_shared,fold-c,ear plugs,8.0,competing,far,paired,t_s_24_1.jpg,,travel-b1,Iceland trip,Miami trip,sub-98,0.0,0.0,1.0,1.0,0.4993055555555556 0.4993055555555556 0.4993055555555556 0.4993055555555556 0.4993055555555556 0.4993055555555556 0.5006944444444444 0.5104166666666666 0.51875 0.5409722222222222 0.5486111111111112 0.5652777777777778 0.5868055555555556 0.6020833333333333 0.6215277777777778 0.6854166666666667 0.7208333333333333 0.7986111111111112 0.8208333333333333 0.8493055555555555 0.8548611111111111 0.8611111111111112 0.8638888888888889 0.8715277777777778 0.875 0.8805555555555555 0.8805555555555555 0.875 0.8083333333333333 0.7194444444444444 0.6229166666666667 0.3993055555555556 0.3333333333333333 0.25625 0.24444444444444444 0.225 0.19236111111111112 0.17569444444444446 0.16111111111111112 0.13194444444444445 0.12222222222222222,0.7935185185185185 0.7944444444444445 0.7944444444444445 0.7944444444444445 0.7944444444444445 0.7944444444444445 0.7888888888888889 0.7583333333333333 0.7388888888888889 0.6944444444444444 0.6768518518518518 0.6268518518518518 0.5694444444444444 0.5324074074074074 0.487037037037037 0.3490740740740741 0.2898148148148149 0.19166666666666665 0.1685185185185185 0.1435185185185185 0.14074074074074072 0.13888888888888884 0.13888888888888884 0.13796296296296295 0.13703703703703707 0.13611111111111107 0.1351851851851852 0.1351851851851852 0.14074074074074072 0.14814814814814814 0.1518518518518519 0.15555555555555556 0.1509259259259259 0.13981481481481484 0.13611111111111107 0.13055555555555556 0.12962962962962965 0.13240740740740742 0.13611111111111107 0.14074074074074072 0.14074074074074072,400.0 420.0 440.0 460.0 480.0 500.0 520.0 540.0 560.0 580.0 600.0 620.0 640.0 660.0 680.0 700.0 720.0 740.0 760.0 780.0 800.0 820.0 840.0 860.0 880.0 900.0 920.0 940.0 960.0 980.0 1000.0 1020.0 1040.0 1060.0 1080.0 1100.0 1120.0 1140.0 1160.0 1180.0 1200.0
