Current Spreadsheet,Trial Number,Display,Screen,Response Type,Response,Reaction Time,display,block,block_trial,stimulus_id,expected_goal,fold,stimulus_name,c_group,condition,within_block_dist,paired_status,stimulus_path,expected_location,block_split,respStim_1,respStim_2,sub_label,acc,both_enc_acc,assoc_stim1_acc,assoc_stim2_acc,x_pos,y_pos,time_trajectories
cb_01,1.0,enc_trial,stim,response,Miami trip,1390.9000000476804,enc_trial,1.0,1.0,t_m_17_1,travel_Miami,fold-a,water gun,1.0,unique,close,paired,t_m_17_1.jpg,Miami,travel-b1,Iceland trip,Miami trip,sub-30,1.0,1.0,1.0,1.0,0.4912109375 0.49267578125 0.496337890625 0.502197265625 0.50146484375 0.477294921875 0.45751953125 0.436279296875 0.417236328125 0.399658203125 0.39453125 0.392333984375 0.387939453125 0.382080078125 0.37548828125 0.37255859375 0.370361328125 0.371826171875 0.377685546875 0.39306640625 0.474365234375 0.55126953125 0.632568359375 0.67431640625 0.689697265625 0.6962890625 0.704345703125 0.705078125 0.708740234375 0.71533203125 0.7739257812499999 0.8237304687499999 0.8676757812499999 0.8874511718749999 0.8955078124999999 0.8969726562499999 0.8969726562499999 0.8969726562499999 0.8969726562499999 0.8969726562499999 0.8969726562499999 0.8969726562499999 0.8940429687499999 0.8911132812499999 0.8889160156249999 0.8852539062499999 0.8852539062499999 0.8852539062499999 0.8852539062499999 0.8852539062499999,0.8388671875 0.81640625 0.7841796875 0.7431640625 0.6865234375 0.5458984375 0.478515625 0.4306640625 0.400390625 0.3798828125 0.37109375 0.3671875 0.357421875 0.3427734375 0.32421875 0.306640625 0.29296875 0.287109375 0.279296875 0.267578125 0.255859375 0.255859375 0.255859375 0.255859375 0.251953125 0.24609375 0.2236328125 0.2158203125 0.208984375 0.2060546875 0.2041015625 0.2138671875 0.2216796875 0.2236328125 0.2265625 0.2265625 0.2265625 0.2265625 0.2265625 0.2265625 0.2265625 0.2255859375 0.2216796875 0.21484375 0.205078125 0.1943359375 0.1884765625 0.1865234375 0.185546875 0.1845703125,383.5 403.5 423.5 443.5 463.5 483.5 503.5 523.5 543.5 563.5 583.5 603.5 623.5 643.5 663.5 683.5 703.5 723.5 743.5 763.5 783.5 803.5 823.5 843.5 863.5 883.5 903.5 923.5 943.5 963.5 983.5 1003.5 1023.5 1043.5 1063.5 1083.5 1103.5 1123.5 1143.5 1163.5 1183.5 1203.5 1223.5 1243.5 1263.5 1283.5 1303.5 1323.5 1343.5 1363.5
cb_01,2.0,enc_trial,stim,response,Iceland trip,1574.7000000476835,enc_trial,1.0,2.0,t_i_10_1,travel_Iceland,fold-b,trekking poles,1.0,unique,far,paired,t_i_10_1.jpg,Iceland,travel-b1,Iceland trip,Miami trip,sub-30,1.0,1.0,1.0,1.0,0.482421875 0.482421875 0.481689453125 0.475830078125 0.46630859375 0.428955078125 0.4091796875 0.392333984375 0.367431640625 0.349853515625 0.29931640625 0.272216796875 0.253173828125 0.236328125 0.226806640625 0.222412109375 0.2216796875 0.220947265625 0.21875 0.216552734375 0.212158203125 0.212158203125 0.210693359375 0.20556640625 0.196044921875 0.16162109374999994 0.13818359374999994 0.11767578124999994 0.11474609374999994 0.11474609374999994 0.11474609374999994 0.11474609374999994 0.11401367187499994,0.828125 0.798828125 0.748046875 0.654296875 0.55859375 0.4111328125 0.3642578125 0.3359375 0.31640625 0.3076171875 0.2763671875 0.2568359375 0.240234375 0.22265625 0.2080078125 0.1923828125 0.189453125 0.1845703125 0.1826171875 0.1787109375 0.17578125 0.1748046875 0.173828125 0.1708984375 0.1669921875 0.1533203125 0.14453125 0.1376953125 0.13671875 0.13671875 0.13671875 0.13671875 0.1357421875,933.6000000000058 953.6000000000058 973.6000000000058 993.6000000000058 1013.6000000000058 1033.6000000000058 1053.6000000000058 1073.6000000000058 1093.6000000000058 1113.6000000000058 1133.6000000000058 1153.6000000000058 1173.6000000000058 1193.6000000000058 1213.6000000000058 1233.6000000000058 1253.6000000000058 1273.6000000000058 1293.6000000000058 1313.6000000000058 1333.6000000000058 1353.6000000000058 1373.6000000000058 1393.6000000000058 1413.6000000000058 1433.6000000000058 1453.6000000000058 1473.6000000000058 1493.6000000000058 1513.6000000000058 1533.6000000000058 1553.6000000000058 1573.6000000000058
cb_01,3.0,enc_trial,stim,response,Iceland trip,2320.100000047678,enc_trial,1.0,3.0,t_i_18_1,travel_Iceland,fold-c-single,ski mask,1.0,unique,,single,t_i_18_1.jpg,Iceland,travel-b1,Iceland trip,Miami trip,sub-30,1.0,,1.0,,0.508056640625 0.51025390625 0.516845703125 0.519775390625 0.519775390625 0.519775390625 0.519775390625 0.519775390625 0.519775390625 0.519775390625 0.519775390625 0.519775390625 0.519775390625 0.519775390625 0.519775390625 0.522705078125 0.522705078125 0.522705078125 0.522705078125 0.522705078125 0.53515625 0.552734375 0.57470703125 0.5791015625 0.58349609375 0.58349609375 0.56298828125 0.53955078125 0.502197265625 0.439208984375 0.348388671875 0.310302734375 0.294189453125 0.27734375 0.2626953125 0.248046875 0.219482421875 0.206298828125 0.198974609375 0.19677734375 0.196044921875 0.19677734375 0.201171875 0.207763671875 0.21728515625 0.2333984375 0.357177734375 0.464111328125 0.59375 0.711669921875 0.8024902343749999 0.91748046875 0.934326171875 0.93505859375 0.93505859375 0.93505859375 0.93505859375 0.93505859375 0.93505859375 0.93505859375 0.93505859375 0.937255859375 0.94091796875 0.94091796875 0.938720703125 0.934326171875 0.9306640625 0.928466796875 0.922607421875 0.91015625 0.8244628906249999 0.7490234375 0.622314453125 0.53662109375 0.46484375 0.408447265625 0.373291015625 0.364501953125 0.358642578125 0.35205078125 0.329345703125 0.30517578125 0.28466796875 0.26123046875 0.2451171875 0.23193359375 0.219482421875 0.21435546875 0.2041015625 0.18505859375 0.11840820312499994 0.09643554687499996 0.08032226562499997 0.07739257812499997 0.07739257812499997 0.07739257812499997 0.07812499999999997 0.07812499999999997 0.07812499999999997 0.07885742187499997 0.08105468749999997 0.09277343749999996 0.11181640624999996 0.11767578124999994 0.12133789062499994 0.12353515624999994 0.12426757812499994,0.83984375 0.84765625 0.857421875 0.8662109375 0.8720703125 0.8720703125 0.8720703125 0.8720703125 0.8720703125 0.8720703125 0.8720703125 0.8720703125 0.8720703125 0.8720703125 0.8720703125 0.875 0.875 0.875 0.875 0.87109375 0.8125 0.7705078125 0.7080078125 0.6748046875 0.6376953125 0.6005859375 0.5205078125 0.4755859375 0.4345703125 0.380859375 0.3193359375 0.298828125 0.2939453125 0.2890625 0.287109375 0.283203125 0.267578125 0.25390625 0.244140625 0.236328125 0.232421875 0.2197265625 0.2119140625 0.201171875 0.189453125 0.1796875 0.1728515625 0.1787109375 0.1865234375 0.201171875 0.2177734375 0.236328125 0.23828125 0.23828125 0.23828125 0.23828125 0.23828125 0.23828125 0.23828125 0.23828125 0.23828125 0.236328125 0.220703125 0.1982421875 0.177734375 0.16796875 0.16015625 0.1591796875 0.1591796875 0.1591796875 0.1572265625 0.1572265625 0.1572265625 0.1513671875 0.1396484375 0.134765625 0.123046875 0.1123046875 0.10546875 0.095703125 0.072265625 0.052734375 0.041015625 0.0302734375 0.0234375 0.017578125 0.0146484375 0.0146484375 0.015625 0.0224609375 0.0478515625 0.0556640625 0.0654296875 0.0673828125 0.0673828125 0.0693359375 0.0712890625 0.072265625 0.0732421875 0.0751953125 0.080078125 0.0986328125 0.1259765625 0.1337890625 0.1396484375 0.14453125 0.14453125,166.1999999999971 186.1999999999971 206.1999999999971 226.1999999999971 246.1999999999971 266.1999999999971 286.19999999999715 306.19999999999715 326.19999999999715 346.1999999999971 366.1999999999971 386.1999999999971 406.1999999999971 426.1999999999971 446.1999999999971 466.1999999999971 486.1999999999971 506.1999999999971 526.1999999999971 546.1999999999971 566.1999999999971 586.1999999999971 606.1999999999971 626.1999999999971 646.1999999999971 666.1999999999971 686.1999999999971 706.1999999999971 726.1999999999971 746.1999999999971 766.1999999999971 786.1999999999971 806.1999999999971 826.1999999999971 846.1999999999971 866.1999999999971 886.1999999999971 906.1999999999972 926.1999999999972 946.1999999999972 966.1999999999972 986.1999999999972 1006.1999999999972 1026.1999999999969 1046.1999999999969 1066.1999999999969 1086.1999999999969 1106.1999999999969 1126.1999999999969 1146.1999999999969 1166.1999999999969 1186.1999999999969 1206.1999999999969 1226.1999999999969 1246.1999999999969 1266.1999999999969 1286.1999999999969 1306.1999999999969 1326.1999999999969 1346.1999999999969 1366.1999999999969 1386.1999999999969 1406.1999999999969 1426.1999999999969 1446.1999999999969 1466.1999999999969 1486.1999999999969 1506.1999999999969 1526.1999999999969 1546.1999999999969 1566.1999999999969 1586.1999999999969 1606.1999999999969 1626.1999999999969 1646.1999999999969 1666.1999999999969 1686.1999999999969 1706.1999999999969 1726.1999999999969 1746.1999999999969 1766.1999999999969 1786.1999999999969 1806.1999999999969 1826.1999999999969 1846.1999999999969 1866.1999999999969 1886.1999999999969 1906.1999999999969 1926.1999999999969 1946.1999999999969 1966.1999999999969 1986.1999999999969 2006.1999999999969 2026.1999999999969 2046.1999999999969 2066.199999999997 2086.199999999997 2106.199999999997 2126.199999999997 2146.199999999997 2166.199999999997 2186.199999999997 2206.199999999997 2226.199999999997 2246.199999999997 2266.199999999997 2286.199999999997
cb_01,4.0,enc_trial,stim,response,Miami trip,1183.0,enc_trial,1.0,4.0,t_m_17_2,travel_Miami,fold-a,water gun,1.0,unique,close,paired,t_m_17_2.jpg,Miami,travel-b1,Iceland trip,Miami trip,sub-30,1.0,1.0,1.0,1.0,0.49853515625 0.49853515625 0.49853515625 0.49853515625 0.49853515625 0.49853515625 0.49853515625 0.49853515625 0.49853515625 0.49853515625 0.49853515625 0.49853515625 0.49853515625 0.49853515625 0.49853515625 0.49853515625 0.494873046875 0.494140625 0.494140625 0.494140625 0.494140625 0.494140625 0.494140625 0.483154296875 0.45751953125 0.428955078125 0.393798828125 0.387939453125 0.38720703125 0.38720703125 0.436279296875 0.503662109375 0.628173828125 0.717529296875 0.7915039062499999 0.8295898437499999 0.8457031249999999 0.8457031249999999 0.8457031249999999 0.8457031249999999 0.8457031249999999 0.8457031249999999 0.8457031249999999 0.8457031249999999 0.8457031249999999 0.8457031249999999 0.8464355468749999 0.8479003906249999 0.8537597656249999 0.8566894531249999 0.8581542968749999 0.8588867187499999,0.83203125 0.83203125 0.83203125 0.83203125 0.83203125 0.83203125 0.83203125 0.83203125 0.83203125 0.83203125 0.83203125 0.83203125 0.83203125 0.83203125 0.83203125 0.83203125 0.822265625 0.8203125 0.8193359375 0.8173828125 0.794921875 0.76953125 0.705078125 0.5654296875 0.4560546875 0.3623046875 0.251953125 0.232421875 0.2275390625 0.224609375 0.2041015625 0.193359375 0.193359375 0.193359375 0.1943359375 0.1943359375 0.1943359375 0.1943359375 0.1943359375 0.1943359375 0.1943359375 0.1943359375 0.1943359375 0.1943359375 0.1943359375 0.1943359375 0.1865234375 0.16015625 0.1318359375 0.1181640625 0.11328125 0.11328125,116.20000000001164 136.20000000001164 156.2000000000116 176.20000000001164 196.20000000001164 216.20000000001164 236.20000000001164 256.20000000001164 276.20000000001164 296.20000000001164 316.20000000001164 336.20000000001164 356.2000000000116 376.2000000000117 396.2000000000117 416.2000000000117 436.2000000000117 456.2000000000117 476.2000000000117 496.2000000000117 516.2000000000116 536.2000000000116 556.2000000000116 576.2000000000116 596.2000000000116 616.2000000000116 636.2000000000116 656.2000000000116 676.2000000000116 696.2000000000116 716.2000000000116 736.2000000000116 756.2000000000116 776.2000000000116 796.2000000000116 816.2000000000116 836.2000000000116 856.2000000000116 876.2000000000116 896.2000000000116 916.2000000000116 936.2000000000116 956.2000000000116 976.2000000000116 996.2000000000116 1016.2000000000116 1036.2000000000116 1056.2000000000116 1076.2000000000116 1096.2000000000116 1116.2000000000116 1136.2000000000114
cb_01,5.0,enc_trial,stim,response,Miami trip,1836.400000023831,enc_trial,1.0,5.0,t_m_07_1,travel_Miami,fold-c-single,sunglasses,1.0,unique,,single,t_m_07_1.jpg,Miami,travel-b1,Iceland trip,Miami trip,sub-30,1.0,,1.0,,0.487548828125 0.478759765625 0.456787109375 0.424560546875 0.396728515625 0.357177734375 0.341796875 0.33447265625 0.324951171875 0.313232421875 0.261962890625 0.21435546875 0.18359375 0.16821289062499994 0.15942382812499994 0.15795898437499994 0.15795898437499994 0.15795898437499994 0.15795898437499994 0.15795898437499994 0.15576171874999994 0.15356445312499994 0.15209960937499994 0.15136718749999994 0.15063476562499994 0.15063476562499994 0.15063476562499994 0.15136718749999994 0.15429687499999994 0.15942382812499994 0.17993164062499994 0.218017578125 0.271484375 0.3212890625 0.379150390625 0.4443359375 0.55126953125 0.60107421875 0.650146484375 0.68603515625 0.735107421875 0.7666015624999999 0.7797851562499999 0.7907714843749999 0.7995605468749999 0.8186035156249999 0.8281249999999999 0.8383789062499999 0.8464355468749999 0.8530273437499999 0.8713378906249999 0.8837890624999999 0.8867187499999999 0.8889160156249999,0.810546875 0.69921875 0.5888671875 0.4716796875 0.3623046875 0.2392578125 0.205078125 0.185546875 0.1689453125 0.1513671875 0.111328125 0.08203125 0.06640625 0.0595703125 0.0556640625 0.0556640625 0.0556640625 0.0556640625 0.0576171875 0.0595703125 0.06640625 0.072265625 0.076171875 0.078125 0.0810546875 0.08203125 0.087890625 0.091796875 0.0966796875 0.1044921875 0.123046875 0.142578125 0.1591796875 0.169921875 0.1796875 0.189453125 0.19921875 0.19921875 0.2041015625 0.2041015625 0.205078125 0.205078125 0.205078125 0.205078125 0.205078125 0.205078125 0.205078125 0.205078125 0.203125 0.1982421875 0.1748046875 0.1533203125 0.1455078125 0.140625,666.6999999999825 686.6999999999825 706.6999999999824 726.6999999999824 746.6999999999824 766.6999999999824 786.6999999999824 806.6999999999824 826.6999999999824 846.6999999999824 866.6999999999824 886.6999999999824 906.6999999999823 926.6999999999823 946.6999999999823 966.6999999999823 986.6999999999823 1006.6999999999823 1026.6999999999823 1046.6999999999823 1066.6999999999823 1086.6999999999823 1106.6999999999823 1126.6999999999825 1146.6999999999825 1166.6999999999825 1186.6999999999825 1206.6999999999825 1226.6999999999825 1246.6999999999825 1266.6999999999825 1286.6999999999825 1306.6999999999825 1326.6999999999825 1346.6999999999825 1366.6999999999825 1386.6999999999825 1406.6999999999825 1426.6999999999825 1446.6999999999825 1466.6999999999825 1486.6999999999825 1506.6999999999825 1526.6999999999825 1546.6999999999825 1566.6999999999825 1586.6999999999825 1606.6999999999825 1626.6999999999825 1646.6999999999825 1666.6999999999825 1686.6999999999825 1706.6999999999825 1726.6999999999825
cb_01,6.0,enc_trial,stim,response,Miami trip,1488.1999999523105,enc_trial,1.0,6.0,t_s_21_1,travel_shared,fold-b,umbrella,1.0,competing,far,paired,t_s_21_1.jpg,,travel-b1,Iceland trip,Miami trip,sub-30,1.0,1.0,1.0,1.0,0.48974609375 0.48974609375 0.48974609375 0.48974609375 0.48974609375 0.48974609375 0.48974609375 0.48974609375 0.48974609375 0.48974609375 0.46044921875 0.42529296875 0.3798828125 0.335205078125 0.294189453125 0.25830078125 0.253173828125 0.25244140625 0.25244140625 0.25244140625 0.25244140625 0.25244140625 0.25244140625 0.253173828125 0.2685546875 0.3623046875 0.445068359375 0.556396484375 0.7695312499999999 0.907958984375 1.061767578125 1.061767578125 1.061767578125 1.061767578125 1.061767578125 1.05078125 1.048583984375 1.0478515625 1.0478515625 1.045654296875 1.02880859375 1.01416015625 0.992919921875 0.96435546875 0.934326171875 0.9006347656249999 0.8896484374999999 0.8837890624999999 0.8823242187499999 0.8808593749999999,0.84375 0.84375 0.84375 0.84375 0.84375 0.84375 0.84375 0.8427734375 0.8251953125 0.783203125 0.626953125 0.5263671875 0.4248046875 0.33984375 0.271484375 0.212890625 0.203125 0.201171875 0.201171875 0.201171875 0.201171875 0.201171875 0.201171875 0.201171875 0.201171875 0.205078125 0.1962890625 0.1875 0.162109375 0.1396484375 0.1103515625 0.1083984375 0.1083984375 0.1083984375 0.111328125 0.1171875 0.119140625 0.119140625 0.119140625 0.1201171875 0.12109375 0.12109375 0.12109375 0.12109375 0.12109375 0.12109375 0.12109375 0.1220703125 0.123046875 0.1240234375,400.0 420.0 440.0 460.0 480.0 500.0 520.0 540.0 560.0 580.0 600.0 620.0 640.0 660.0 680.0 700.0 720.0 740.0 760.0 780.0 800.0 820.0 840.0 860.0 880.0 900.0 920.0 940.0 960.0 980.0 1000.0 1020.0 1040.0 1060.0 1080.0 1100.0 1120.0 1140.0 1160.0 1180.0 1200.0 1220.0 1240.0 1260.0 1280.0 1300.0 1320.0 1340.0 1360.0 1380.0
cb_01,7.0,enc_trial,stim,response,Iceland trip,1759.6999999761465,enc_trial,1.0,7.0,t_i_13_1,travel_Iceland,fold-a,sleeping bag,1.0,unique,close,paired,t_i_13_1.jpg,Iceland,travel-b1,Iceland trip,Miami trip,sub-30,1.0,1.0,1.0,1.0,0.502197265625 0.510986328125 0.5380859375 0.575439453125 0.650146484375 0.7570800781249999 0.8024902343749999 0.8361816406249999 0.8552246093749999 0.8676757812499999 0.8815917968749999 0.8830566406249999 0.8837890624999999 0.8837890624999999 0.8837890624999999 0.8837890624999999 0.8837890624999999 0.8837890624999999 0.8837890624999999 0.8837890624999999 0.8837890624999999 0.8837890624999999 0.8837890624999999 0.8837890624999999 0.8837890624999999 0.8837890624999999 0.8837890624999999 0.8837890624999999 0.8801269531249999 0.8471679687499999 0.6669921875 0.562255859375 0.471435546875 0.379150390625 0.35498046875 0.346923828125 0.346923828125 0.346923828125 0.34326171875 0.330810546875 0.3037109375 0.2919921875 0.281005859375 0.257568359375 0.231201171875 0.1865234375 0.16894531249999994 0.15795898437499994 0.15356445312499994 0.15356445312499994 0.15356445312499994 0.15356445312499994 0.15356445312499994 0.15283203124999994,0.84375 0.814453125 0.740234375 0.642578125 0.45703125 0.236328125 0.1630859375 0.12109375 0.099609375 0.087890625 0.0771484375 0.076171875 0.0751953125 0.0751953125 0.0751953125 0.0751953125 0.0751953125 0.0751953125 0.0751953125 0.0751953125 0.0791015625 0.0810546875 0.0810546875 0.0810546875 0.0810546875 0.0810546875 0.0810546875 0.0810546875 0.08203125 0.0810546875 0.0810546875 0.0810546875 0.0810546875 0.0830078125 0.087890625 0.091796875 0.091796875 0.091796875 0.0908203125 0.0908203125 0.0908203125 0.09375 0.0986328125 0.1083984375 0.115234375 0.115234375 0.115234375 0.115234375 0.115234375 0.115234375 0.115234375 0.115234375 0.115234375 0.115234375,700.2999999999884 720.2999999999884 740.2999999999884 760.2999999999884 780.2999999999884 800.2999999999884 820.2999999999884 840.2999999999884 860.2999999999884 880.2999999999884 900.2999999999884 920.2999999999884 940.2999999999884 960.2999999999884 980.2999999999884 1000.2999999999884 1020.2999999999884 1040.2999999999884 1060.2999999999884 1080.2999999999884 1100.2999999999884 1120.2999999999884 1140.2999999999886 1160.2999999999886 1180.2999999999886 1200.2999999999886 1220.2999999999886 1240.2999999999886 1260.2999999999886 1280.2999999999886 1300.2999999999886 1320.2999999999886 1340.2999999999886 1360.2999999999886 1380.2999999999884 1400.2999999999884 1420.2999999999884 1440.2999999999884 1460.2999999999884 1480.2999999999884 1500.2999999999884 1520.2999999999884 1540.2999999999884 1560.2999999999884 1580.2999999999884 1600.2999999999884 1620.2999999999884 1640.2999999999884 1660.2999999999884 1680.2999999999884 1700.2999999999884 1720.2999999999884 1740.2999999999884 1760.2999999999884
cb_01,8.0,enc_trial,stim,response,Miami trip,1716.8000000238535,enc_trial,1.0,8.0,t_s_12_1,travel_shared,fold-b,clear toiletry bag,1.0,competing,far,paired,t_s_12_1.jpg,,travel-b1,Iceland trip,Miami trip,sub-30,1.0,1.0,0.0,0.0,0.497802734375 0.497802734375 0.497802734375 0.497802734375 0.500732421875 0.50146484375 0.50439453125 0.50439453125 0.50439453125 0.50439453125 0.50439453125 0.50439453125 0.50439453125 0.50439453125 0.50439453125 0.50439453125 0.506591796875 0.50732421875 0.50732421875 0.508056640625 0.508056640625 0.508056640625 0.508056640625 0.508056640625 0.508056640625 0.508056640625 0.508056640625 0.508056640625 0.508056640625 0.508056640625 0.508056640625 0.508056640625 0.508056640625 0.508056640625 0.508056640625 0.508056640625 0.508056640625 0.508056640625 0.508056640625 0.508056640625 0.508056640625 0.524169921875 0.54541015625 0.57763671875 0.62890625 0.66552734375 0.677978515625 0.704345703125 0.7504882812499999 0.8039550781249999 0.8581542968749999 0.947509765625 0.965087890625 0.968017578125 0.968017578125 0.968017578125 0.968017578125 0.96435546875 0.96142578125 0.959228515625 0.957763671875 0.957763671875 0.95703125 0.95703125 0.951171875 0.941650390625 0.91455078125 0.902099609375 0.8933105468749999 0.8889160156249999 0.8874511718749999,0.8427734375 0.8447265625 0.845703125 0.8466796875 0.8525390625 0.8564453125 0.86328125 0.8662109375 0.869140625 0.87109375 0.873046875 0.8759765625 0.8759765625 0.8759765625 0.8759765625 0.8759765625 0.8759765625 0.8759765625 0.8759765625 0.8759765625 0.8759765625 0.8759765625 0.8759765625 0.8759765625 0.875 0.875 0.873046875 0.8720703125 0.8701171875 0.8701171875 0.869140625 0.869140625 0.869140625 0.869140625 0.869140625 0.869140625 0.869140625 0.869140625 0.8681640625 0.865234375 0.853515625 0.7470703125 0.6591796875 0.5625 0.435546875 0.3681640625 0.3505859375 0.3154296875 0.2578125 0.2060546875 0.169921875 0.1337890625 0.1318359375 0.1318359375 0.1318359375 0.1318359375 0.1318359375 0.13671875 0.1396484375 0.1416015625 0.142578125 0.142578125 0.142578125 0.142578125 0.1396484375 0.134765625 0.1298828125 0.1298828125 0.1298828125 0.1318359375 0.1328125,232.80000000001743 252.80000000001743 272.8000000000174 292.8000000000174 312.8000000000174 332.8000000000174 352.80000000001746 372.80000000001746 392.80000000001746 412.80000000001746 432.80000000001746 452.80000000001746 472.80000000001746 492.80000000001746 512.8000000000175 532.8000000000175 552.8000000000175 572.8000000000175 592.8000000000175 612.8000000000175 632.8000000000175 652.8000000000175 672.8000000000175 692.8000000000176 712.8000000000176 732.8000000000176 752.8000000000176 772.8000000000176 792.8000000000176 812.8000000000176 832.8000000000176 852.8000000000176 872.8000000000176 892.8000000000176 912.8000000000177 932.8000000000177 952.8000000000177 972.8000000000177 992.8000000000177 1012.8000000000177 1032.8000000000177 1052.8000000000177 1072.8000000000177 1092.8000000000177 1112.8000000000177 1132.8000000000175 1152.8000000000175 1172.8000000000175 1192.8000000000175 1212.8000000000175 1232.8000000000175 1252.8000000000175 1272.8000000000175 1292.8000000000175 1312.8000000000175 1332.8000000000175 1352.8000000000175 1372.8000000000175 1392.8000000000175 1412.8000000000175 1432.8000000000175 1452.8000000000175 1472.8000000000175 1492.8000000000175 1512.8000000000175 1532.8000000000175 1552.8000000000175 1572.8000000000175 1592.8000000000175 1612.8000000000175 1632.8000000000175
cb_01,9.0,enc_trial,stim,response,Miami trip,1260.2000000000114,enc_trial,1.0,9.0,t_m_03_1,travel_Miami,fold-c-single,wetsuit,1.0,unique,,single,t_m_03_1.jpg,Miami,travel-b1,Iceland trip,Miami trip,sub-30,1.0,,1.0,,0.519775390625 0.547607421875 0.578369140625 0.612060546875 0.65673828125 0.742431640625 0.7687988281249999 0.7878417968749999 0.7988281249999999 0.8105468749999999 0.8332519531249999 0.8391113281249999 0.8471679687499999 0.8552246093749999 0.8610839843749999 0.8632812499999999 0.8640136718749999 0.8640136718749999 0.8640136718749999 0.8640136718749999 0.8654785156249999 0.8654785156249999 0.8669433593749999 0.8691406249999999 0.8698730468749999 0.8706054687499999,0.796875 0.7314453125 0.6611328125 0.5849609375 0.498046875 0.337890625 0.2919921875 0.2646484375 0.25 0.23828125 0.2158203125 0.208984375 0.1982421875 0.1904296875 0.18359375 0.1806640625 0.1806640625 0.1806640625 0.1806640625 0.1806640625 0.1787109375 0.177734375 0.17578125 0.173828125 0.1728515625 0.171875,716.5 736.5 756.5 776.5 796.5 816.5 836.5 856.5 876.5 896.5 916.5 936.5 956.5 976.5 996.5 1016.5 1036.5 1056.5 1076.5 1096.5 1116.5 1136.5 1156.5 1176.5 1196.5 1216.5
cb_01,10.0,enc_trial,stim,response,Iceland trip,1894.1999999761465,enc_trial,1.0,10.0,t_i_13_2,travel_Iceland,fold-a,sleeping bag,1.0,unique,close,paired,t_i_13_2.jpg,Iceland,travel-b1,Iceland trip,Miami trip,sub-30,1.0,1.0,1.0,1.0,0.491943359375 0.482421875 0.461181640625 0.434814453125 0.404052734375 0.35205078125 0.33447265625 0.3154296875 0.301513671875 0.2890625 0.2744140625 0.263427734375 0.250244140625 0.237060546875 0.228271484375 0.212890625 0.201171875 0.189453125 0.181396484375 0.17700195312499994 0.17626953124999994 0.17626953124999994 0.17480468749999994 0.17407226562499994 0.17407226562499994 0.17333984374999994 0.17333984374999994 0.17187499999999994 0.16967773437499994 0.16821289062499994 0.16748046874999994 0.16748046874999994 0.16748046874999994 0.16601562499999994,0.8125 0.71484375 0.5966796875 0.490234375 0.408203125 0.3115234375 0.2802734375 0.2568359375 0.244140625 0.2353515625 0.2265625 0.2158203125 0.2060546875 0.2001953125 0.1962890625 0.1884765625 0.1826171875 0.177734375 0.173828125 0.1728515625 0.1728515625 0.171875 0.171875 0.1708984375 0.1708984375 0.1708984375 0.1708984375 0.169921875 0.1689453125 0.1689453125 0.16796875 0.16796875 0.16796875 0.16796875,966.5999999999768 986.5999999999768 1006.5999999999768 1026.5999999999767 1046.5999999999767 1066.5999999999767 1086.5999999999767 1106.5999999999767 1126.5999999999767 1146.5999999999767 1166.5999999999767 1186.5999999999767 1206.5999999999767 1226.5999999999767 1246.5999999999767 1266.5999999999767 1286.5999999999767 1306.5999999999767 1326.5999999999767 1346.5999999999767 1366.5999999999767 1386.5999999999767 1406.5999999999767 1426.5999999999767 1446.5999999999767 1466.5999999999767 1486.5999999999767 1506.5999999999767 1526.5999999999767 1546.5999999999767 1566.5999999999767 1586.5999999999767 1606.5999999999767 1626.5999999999767
cb_01,11.0,enc_trial,stim,response,Iceland trip,2006.6999999523105,enc_trial,1.0,11.0,t_i_19_1,travel_Iceland,fold-b,rope,1.0,unique,far,paired,t_i_19_1.jpg,Iceland,travel-b1,Iceland trip,Miami trip,sub-30,1.0,1.0,1.0,1.0,0.49560546875 0.478759765625 0.455322265625 0.421630859375 0.39892578125 0.373291015625 0.36962890625 0.368896484375 0.368896484375 0.368896484375 0.368896484375 0.368896484375 0.368896484375 0.371826171875 0.37841796875 0.389404296875 0.453857421875 0.519775390625 0.582763671875 0.642822265625 0.68017578125 0.70068359375 0.70068359375 0.70068359375 0.70068359375 0.70068359375 0.705078125 0.708740234375 0.7138671875 0.72119140625 0.7255859375 0.726318359375 0.716796875 0.67431640625 0.5908203125 0.483154296875 0.275146484375 0.201904296875 0.15795898437499994 0.14184570312499994 0.13598632812499994 0.13085937499999994 0.12646484374999994 0.11547851562499994 0.09570312499999996 0.07812499999999997 0.06127929687499997 0.06127929687499997 0.06127929687499997 0.06127929687499997 0.06127929687499997 0.06127929687499997 0.06127929687499997 0.06127929687499997 0.06127929687499997 0.06860351562499997 0.09643554687499996 0.10083007812499996 0.10449218749999996 0.10522460937499996 0.10595703124999996 0.10595703124999996 0.10668945312499996,0.7841796875 0.724609375 0.64453125 0.5439453125 0.4482421875 0.33203125 0.3076171875 0.296875 0.294921875 0.2939453125 0.2939453125 0.2939453125 0.2919921875 0.2880859375 0.279296875 0.2724609375 0.24609375 0.2294921875 0.220703125 0.220703125 0.220703125 0.220703125 0.220703125 0.220703125 0.220703125 0.220703125 0.220703125 0.220703125 0.220703125 0.220703125 0.220703125 0.21484375 0.19921875 0.177734375 0.162109375 0.15625 0.154296875 0.154296875 0.154296875 0.154296875 0.154296875 0.1474609375 0.140625 0.1328125 0.123046875 0.1171875 0.1142578125 0.1142578125 0.1142578125 0.1142578125 0.1142578125 0.1142578125 0.1142578125 0.1142578125 0.1162109375 0.123046875 0.1376953125 0.140625 0.142578125 0.142578125 0.142578125 0.142578125 0.142578125,749.6999999999823 769.6999999999823 789.6999999999823 809.6999999999823 829.6999999999823 849.6999999999823 869.6999999999823 889.6999999999823 909.6999999999823 929.6999999999823 949.6999999999823 969.6999999999823 989.6999999999823 1009.6999999999823 1029.6999999999823 1049.6999999999823 1069.6999999999823 1089.6999999999823 1109.6999999999823 1129.6999999999825 1149.6999999999825 1169.6999999999825 1189.6999999999825 1209.6999999999825 1229.6999999999825 1249.6999999999825 1269.6999999999825 1289.6999999999825 1309.6999999999825 1329.6999999999825 1349.6999999999825 1369.6999999999825 1389.6999999999825 1409.6999999999825 1429.6999999999825 1449.6999999999825 1469.6999999999825 1489.6999999999825 1509.6999999999825 1529.6999999999825 1549.6999999999825 1569.6999999999825 1589.6999999999825 1609.6999999999825 1629.6999999999825 1649.6999999999825 1669.6999999999825 1689.6999999999825 1709.6999999999825 1729.6999999999825 1749.6999999999825 1769.6999999999825 1789.6999999999825 1809.6999999999825 1829.6999999999825 1849.6999999999825 1869.6999999999825 1889.6999999999825 1909.6999999999825 1929.6999999999825 1949.6999999999825 1969.6999999999825 1989.6999999999825
cb_01,12.0,enc_trial,stim,response,Iceland trip,1242.1000000000058,enc_trial,1.0,12.0,t_i_14_1,travel_Iceland,fold-c-single,snow pants,1.0,unique,,single,t_i_14_1.jpg,Iceland,travel-b1,Iceland trip,Miami trip,sub-30,1.0,,1.0,,0.50146484375 0.50146484375 0.49853515625 0.4736328125 0.4384765625 0.383544921875 0.24658203125 0.1923828125 0.16088867187499994 0.14990234374999994 0.14916992187499994 0.14916992187499994 0.14916992187499994 0.14916992187499994 0.14843749999999994 0.14843749999999994 0.14477539062499994 0.14331054687499994 0.14038085937499994 0.14038085937499994 0.14038085937499994 0.13964843749999994,0.82421875 0.8115234375 0.78125 0.6474609375 0.52734375 0.404296875 0.2177734375 0.1640625 0.1396484375 0.1357421875 0.1357421875 0.1357421875 0.1357421875 0.1357421875 0.1357421875 0.1357421875 0.1337890625 0.1318359375 0.130859375 0.130859375 0.130859375 0.1298828125,799.5 819.5 839.5 859.5 879.5 899.5 919.5 939.5 959.5 979.5 999.5 1019.5 1039.5 1059.5 1079.5 1099.5 1119.5 1139.5 1159.5 1179.5 1199.5 1219.5
cb_01,13.0,enc_trial,stim,response,Miami trip,1804.400000023831,enc_trial,1.0,13.0,t_s_08_1,travel_shared,fold-a,hand lotion,1.0,competing,close,paired,t_s_08_1.jpg,,travel-b1,Iceland trip,Miami trip,sub-30,1.0,1.0,1.0,1.0,0.531494140625 0.584228515625 0.646484375 0.707275390625 0.7666015624999999 0.8618164062499999 0.8837890624999999 0.8933105468749999 0.8977050781249999 0.8991699218749999 0.9006347656249999 0.904296875 0.9072265625 0.913818359375 0.919677734375 0.92333984375 0.92333984375 0.92333984375 0.921875 0.91455078125 0.8955078124999999 0.8874511718749999 0.8859863281249999 0.8852539062499999 0.8852539062499999 0.8859863281249999,0.78125 0.685546875 0.5859375 0.5009765625 0.4287109375 0.3271484375 0.3056640625 0.29296875 0.287109375 0.28515625 0.283203125 0.2744140625 0.26171875 0.244140625 0.2236328125 0.205078125 0.2021484375 0.19921875 0.19140625 0.181640625 0.162109375 0.15234375 0.150390625 0.150390625 0.150390625 0.1494140625,1300.2999999999886 1320.2999999999886 1340.2999999999886 1360.2999999999886 1380.2999999999884 1400.2999999999884 1420.2999999999884 1440.2999999999884 1460.2999999999884 1480.2999999999884 1500.2999999999884 1520.2999999999884 1540.2999999999884 1560.2999999999884 1580.2999999999884 1600.2999999999884 1620.2999999999884 1640.2999999999884 1660.2999999999884 1680.2999999999884 1700.2999999999884 1720.2999999999884 1740.2999999999884 1760.2999999999884 1780.2999999999884 1800.2999999999884
cb_01,14.0,enc_trial,stim,response,Miami trip,2039.499999976164,enc_trial,1.0,14.0,t_m_18_1,travel_Miami,fold-b,waterproof tote,1.0,unique,far,paired,t_m_18_1.jpg,Miami,travel-b1,Iceland trip,Miami trip,sub-30,1.0,1.0,1.0,1.0,0.48828125 0.459716796875 0.39599609375 0.322021484375 0.2451171875 0.14184570312499994 0.13378906249999994 0.13305664062499994 0.13305664062499994 0.13305664062499994 0.13305664062499994 0.13305664062499994 0.13305664062499994 0.13305664062499994 0.13598632812499994 0.14038085937499994 0.14404296874999994 0.14916992187499994 0.15502929687499994 0.15869140624999994 0.16015624999999994 0.16015624999999994 0.16015624999999994 0.16015624999999994 0.16015624999999994 0.16015624999999994 0.16015624999999994 0.16015624999999994 0.16674804687499994 0.2041015625 0.40478515625 0.541015625 0.67724609375 0.7871093749999999 0.8662109374999999 0.918212890625 0.9189453125 0.9189453125 0.9189453125 0.9189453125 0.9189453125 0.9189453125 0.9189453125 0.919677734375 0.919677734375 0.919677734375 0.919677734375 0.918212890625 0.906494140625 0.904296875,0.8173828125 0.6943359375 0.5048828125 0.3154296875 0.1591796875 0.0283203125 0.0244140625 0.0244140625 0.0244140625 0.0263671875 0.0380859375 0.04296875 0.05078125 0.0634765625 0.078125 0.1103515625 0.12890625 0.146484375 0.1650390625 0.1748046875 0.1826171875 0.18359375 0.18359375 0.18359375 0.18359375 0.1845703125 0.1845703125 0.1845703125 0.1845703125 0.1923828125 0.216796875 0.216796875 0.216796875 0.2109375 0.2001953125 0.177734375 0.1767578125 0.1748046875 0.1708984375 0.1669921875 0.1611328125 0.15625 0.15234375 0.1494140625 0.1474609375 0.1455078125 0.1435546875 0.1416015625 0.1376953125 0.134765625,1050.3000000000177 1070.3000000000177 1090.3000000000177 1110.3000000000177 1130.3000000000175 1150.3000000000175 1170.3000000000175 1190.3000000000175 1210.3000000000175 1230.3000000000175 1250.3000000000175 1270.3000000000175 1290.3000000000175 1310.3000000000175 1330.3000000000175 1350.3000000000175 1370.3000000000175 1390.3000000000175 1410.3000000000175 1430.3000000000175 1450.3000000000175 1470.3000000000175 1490.3000000000175 1510.3000000000175 1530.3000000000175 1550.3000000000175 1570.3000000000175 1590.3000000000175 1610.3000000000175 1630.3000000000175 1650.3000000000175 1670.3000000000175 1690.3000000000175 1710.3000000000175 1730.3000000000175 1750.3000000000175 1770.3000000000175 1790.3000000000175 1810.3000000000175 1830.3000000000175 1850.3000000000175 1870.3000000000175 1890.3000000000175 1910.3000000000175 1930.3000000000175 1950.3000000000175 1970.3000000000175 1990.3000000000175 2010.3000000000175 2030.3000000000175
cb_01,15.0,enc_trial,stim,response,Iceland trip,2443.100000023842,enc_trial,1.0,15.0,t_s_22_1,travel_shared,fold-a,belt,1.0,competing,close,paired,t_s_22_1.jpg,,travel-b1,Iceland trip,Miami trip,sub-30,1.0,1.0,0.0,0.0,0.500732421875 0.500732421875 0.496337890625 0.489013671875 0.475830078125 0.431884765625 0.401123046875 0.370361328125 0.3447265625 0.327880859375 0.31689453125 0.31689453125 0.3154296875 0.3125 0.307373046875 0.301513671875 0.28173828125 0.27294921875 0.263427734375 0.2421875 0.19677734375 0.17993164062499994 0.16748046874999994 0.16308593749999994 0.16308593749999994 0.16235351562499994 0.16235351562499994 0.16235351562499994 0.16235351562499994 0.16235351562499994 0.16235351562499994 0.16235351562499994 0.16235351562499994 0.16235351562499994 0.16235351562499994 0.16235351562499994 0.16235351562499994 0.16235351562499994 0.16235351562499994 0.16235351562499994 0.16528320312499994 0.17773437499999994 0.226806640625 0.31396484375 0.423828125 0.7021484375 0.8281249999999999 0.915283203125 0.960693359375 0.974609375 0.97607421875 0.9716796875 0.97021484375 0.968017578125 0.96435546875 0.9599609375 0.957763671875 0.94970703125 0.93798828125 0.921875 0.8046874999999999 0.723388671875 0.6376953125 0.55859375 0.48974609375 0.405517578125 0.37841796875 0.367431640625 0.35791015625 0.339599609375 0.305908203125 0.278076171875 0.2568359375 0.239990234375 0.226806640625 0.201904296875 0.1953125 0.19091796875 0.18798828125 0.18505859375 0.17700195312499994 0.17333984374999994 0.16967773437499994 0.16528320312499994 0.16015624999999994 0.15502929687499994 0.15502929687499994 0.15356445312499994,0.8447265625 0.8203125 0.779296875 0.70703125 0.62890625 0.4755859375 0.4072265625 0.3603515625 0.32421875 0.3056640625 0.29296875 0.29296875 0.291015625 0.2861328125 0.2783203125 0.267578125 0.24609375 0.2412109375 0.234375 0.22265625 0.203125 0.193359375 0.1884765625 0.1875 0.1875 0.1865234375 0.1865234375 0.1865234375 0.1865234375 0.1865234375 0.1865234375 0.1865234375 0.1865234375 0.1865234375 0.1865234375 0.1865234375 0.1865234375 0.1865234375 0.1865234375 0.1865234375 0.1806640625 0.173828125 0.1708984375 0.1708984375 0.1787109375 0.1962890625 0.1982421875 0.1982421875 0.1943359375 0.1904296875 0.18359375 0.177734375 0.171875 0.16796875 0.16015625 0.150390625 0.1474609375 0.1435546875 0.1396484375 0.138671875 0.1318359375 0.134765625 0.134765625 0.134765625 0.125 0.109375 0.103515625 0.0986328125 0.09375 0.0849609375 0.076171875 0.0693359375 0.0673828125 0.064453125 0.064453125 0.064453125 0.064453125 0.0673828125 0.0712890625 0.078125 0.1015625 0.1142578125 0.125 0.134765625 0.14453125 0.15234375 0.15234375 0.154296875,683.5 703.5 723.5 743.5 763.5 783.5 803.5 823.5 843.5 863.5 883.5 903.5 923.5 943.5 963.5 983.5 1003.5 1023.5 1043.5 1063.5 1083.5 1103.5 1123.5 1143.5 1163.5 1183.5 1203.5 1223.5 1243.5 1263.5 1283.5 1303.5 1323.5 1343.5 1363.5 1383.5 1403.5 1423.5 1443.5 1463.5 1483.5 1503.5 1523.5 1543.5 1563.5 1583.5 1603.5 1623.5 1643.5 1663.5 1683.5 1703.5 1723.5 1743.5 1763.5 1783.5 1803.5 1823.5 1843.5 1863.5 1883.5 1903.5 1923.5 1943.5 1963.5 1983.5 2003.5 2023.5 2043.5 2063.5 2083.5 2103.5 2123.5 2143.5 2163.5 2183.5 2203.5 2223.5 2243.5 2263.5 2283.5 2303.5 2323.5 2343.5 2363.5 2383.5 2403.5 2423.5
cb_01,16.0,enc_trial,stim,response,Iceland trip,1846.100000047678,enc_trial,1.0,16.0,t_s_08_2,travel_shared,fold-a,hand lotion,1.0,competing,close,paired,t_s_08_2.jpg,,travel-b1,Iceland trip,Miami trip,sub-30,1.0,1.0,1.0,1.0,0.5 0.49853515625 0.494140625 0.48974609375 0.489013671875 0.489013671875 0.489013671875 0.489013671875 0.4912109375 0.4970703125 0.505126953125 0.50732421875 0.508056640625 0.5087890625 0.5087890625 0.5087890625 0.5087890625 0.5087890625 0.5087890625 0.5087890625 0.5087890625 0.5087890625 0.5087890625 0.5087890625 0.5087890625 0.5087890625 0.5087890625 0.5087890625 0.5087890625 0.5087890625 0.5087890625 0.5087890625 0.502197265625 0.4912109375 0.45751953125 0.351318359375 0.3095703125 0.28173828125 0.26416015625 0.260498046875 0.259765625 0.2568359375 0.25244140625 0.248779296875 0.241455078125 0.21875 0.2099609375 0.2041015625 0.19970703125 0.1982421875 0.18798828125 0.18359375 0.17919921874999994 0.17700195312499994 0.17700195312499994 0.17626953124999994 0.17626953124999994 0.17626953124999994 0.17626953124999994 0.17626953124999994 0.17626953124999994 0.17626953124999994 0.17626953124999994 0.17626953124999994 0.17626953124999994 0.17626953124999994 0.17626953124999994 0.17626953124999994 0.17626953124999994 0.17553710937499994,0.822265625 0.814453125 0.80078125 0.783203125 0.763671875 0.68359375 0.6171875 0.5537109375 0.494140625 0.4384765625 0.3974609375 0.3896484375 0.38671875 0.3837890625 0.3837890625 0.3837890625 0.3837890625 0.3837890625 0.3837890625 0.3837890625 0.3837890625 0.3837890625 0.3837890625 0.3837890625 0.3837890625 0.3837890625 0.3837890625 0.3837890625 0.3837890625 0.3837890625 0.3837890625 0.3798828125 0.3642578125 0.345703125 0.32421875 0.2890625 0.28125 0.2763671875 0.2763671875 0.2763671875 0.2763671875 0.2734375 0.2705078125 0.2685546875 0.263671875 0.2509765625 0.2451171875 0.23828125 0.2314453125 0.224609375 0.1904296875 0.1787109375 0.1669921875 0.1630859375 0.1611328125 0.1611328125 0.1611328125 0.1611328125 0.1611328125 0.1611328125 0.1611328125 0.1611328125 0.1611328125 0.1611328125 0.1611328125 0.1611328125 0.1611328125 0.1611328125 0.1611328125 0.1611328125,149.89999999999418 169.89999999999418 189.89999999999415 209.89999999999415 229.89999999999415 249.89999999999415 269.8999999999942 289.8999999999942 309.8999999999942 329.8999999999942 349.8999999999942 369.8999999999942 389.8999999999942 409.8999999999942 429.8999999999942 449.8999999999942 469.8999999999942 489.8999999999942 509.8999999999942 529.8999999999942 549.8999999999942 569.8999999999943 589.8999999999943 609.8999999999943 629.8999999999943 649.8999999999943 669.8999999999943 689.8999999999942 709.8999999999942 729.8999999999942 749.8999999999942 769.8999999999942 789.8999999999942 809.8999999999942 829.8999999999942 849.8999999999942 869.8999999999942 889.8999999999942 909.8999999999942 929.8999999999942 949.8999999999942 969.8999999999942 989.8999999999942 1009.8999999999942 1029.8999999999942 1049.8999999999942 1069.8999999999942 1089.8999999999942 1109.8999999999942 1129.8999999999942 1149.8999999999942 1169.8999999999942 1189.8999999999942 1209.8999999999942 1229.8999999999942 1249.8999999999942 1269.8999999999942 1289.8999999999942 1309.8999999999942 1329.8999999999942 1349.8999999999942 1369.8999999999942 1389.8999999999942 1409.8999999999942 1429.8999999999942 1449.8999999999942 1469.8999999999942 1489.8999999999942 1509.8999999999942 1529.8999999999942
cb_01,17.0,enc_trial,stim,response,Iceland trip,1720.5999999523044,enc_trial,1.0,17.0,t_i_10_2,travel_Iceland,fold-b,trekking poles,1.0,unique,far,paired,t_i_10_2.jpg,Iceland,travel-b1,Iceland trip,Miami trip,sub-30,1.0,1.0,1.0,1.0,0.49267578125 0.480224609375 0.46044921875 0.43408203125 0.38720703125 0.338134765625 0.228271484375 0.181396484375 0.15576171874999994 0.14697265624999994 0.14257812499999994 0.14038085937499994 0.13891601562499994 0.13818359374999994 0.13818359374999994 0.13818359374999994 0.13818359374999994 0.13818359374999994 0.13964843749999994 0.14550781249999994 0.16162109374999994 0.16748046874999994 0.16821289062499994 0.16821289062499994 0.16821289062499994 0.16821289062499994 0.16821289062499994 0.16821289062499994 0.16821289062499994 0.16821289062499994 0.16821289062499994 0.16821289062499994 0.16821289062499994 0.16821289062499994 0.16821289062499994 0.16821289062499994 0.16821289062499994 0.16821289062499994 0.16821289062499994 0.16821289062499994 0.16821289062499994 0.16821289062499994 0.16821289062499994 0.16821289062499994 0.16821289062499994 0.16821289062499994 0.16821289062499994 0.16821289062499994 0.16967773437499994 0.17041015624999994 0.17114257812499994 0.17114257812499994 0.16967773437499994 0.16821289062499994 0.16821289062499994,0.841796875 0.7880859375 0.7236328125 0.6650390625 0.591796875 0.5205078125 0.3701171875 0.318359375 0.2900390625 0.2783203125 0.26953125 0.2587890625 0.251953125 0.2470703125 0.24609375 0.24609375 0.2451171875 0.2451171875 0.2412109375 0.236328125 0.224609375 0.22265625 0.2216796875 0.2216796875 0.2216796875 0.2216796875 0.2216796875 0.2216796875 0.2216796875 0.2216796875 0.2216796875 0.2216796875 0.2216796875 0.2216796875 0.2216796875 0.2216796875 0.2216796875 0.2216796875 0.2216796875 0.2216796875 0.2216796875 0.2216796875 0.2216796875 0.2216796875 0.2216796875 0.2216796875 0.2216796875 0.2216796875 0.2197265625 0.2099609375 0.1806640625 0.16015625 0.146484375 0.138671875 0.1376953125,566.7999999999884 586.7999999999884 606.7999999999884 626.7999999999884 646.7999999999884 666.7999999999884 686.7999999999884 706.7999999999884 726.7999999999884 746.7999999999884 766.7999999999884 786.7999999999884 806.7999999999884 826.7999999999884 846.7999999999884 866.7999999999884 886.7999999999884 906.7999999999884 926.7999999999884 946.7999999999884 966.7999999999884 986.7999999999884 1006.7999999999884 1026.7999999999884 1046.7999999999884 1066.7999999999884 1086.7999999999884 1106.7999999999884 1126.7999999999886 1146.7999999999886 1166.7999999999886 1186.7999999999886 1206.7999999999886 1226.7999999999886 1246.7999999999886 1266.7999999999886 1286.7999999999886 1306.7999999999886 1326.7999999999886 1346.7999999999886 1366.7999999999886 1386.7999999999884 1406.7999999999884 1426.7999999999884 1446.7999999999884 1466.7999999999884 1486.7999999999884 1506.7999999999884 1526.7999999999884 1546.7999999999884 1566.7999999999884 1586.7999999999884 1606.7999999999884 1626.7999999999884 1646.7999999999884
cb_01,18.0,enc_trial,stim,response,Miami trip,2943.5,enc_trial,1.0,18.0,t_s_22_2,travel_shared,fold-a,belt,1.0,competing,close,paired,t_s_22_2.jpg,,travel-b1,Iceland trip,Miami trip,sub-30,1.0,1.0,0.0,0.0,0.489013671875 0.445068359375 0.38134765625 0.3125 0.251708984375 0.209228515625 0.1923828125 0.1923828125 0.1923828125 0.1923828125 0.19091796875 0.19091796875 0.190185546875 0.189453125 0.1865234375 0.182861328125 0.17333984374999994 0.17187499999999994 0.17187499999999994 0.17187499999999994 0.17187499999999994 0.17187499999999994 0.17187499999999994 0.17187499999999994 0.17187499999999994 0.17187499999999994 0.17187499999999994 0.17187499999999994 0.17187499999999994 0.17187499999999994 0.17187499999999994 0.17187499999999994 0.17187499999999994 0.17187499999999994 0.17187499999999994 0.17187499999999994 0.17187499999999994 0.17187499999999994 0.17187499999999994 0.17187499999999994 0.17187499999999994 0.17187499999999994 0.17187499999999994 0.17187499999999994 0.17187499999999994 0.17187499999999994 0.17187499999999994 0.17187499999999994 0.17187499999999994 0.17187499999999994 0.17187499999999994 0.17187499999999994 0.17187499999999994 0.17187499999999994 0.17187499999999994 0.17187499999999994 0.17187499999999994 0.17187499999999994 0.17187499999999994 0.17187499999999994 0.17187499999999994 0.18359375 0.212158203125 0.276611328125 0.358642578125 0.468505859375 0.730712890625 0.8376464843749999 0.915283203125 0.948974609375 0.956298828125 0.956298828125 0.956298828125 0.956298828125 0.956298828125 0.956298828125 0.95556640625 0.953369140625 0.95263671875 0.94970703125 0.939453125 0.93212890625 0.928466796875 0.92626953125 0.92626953125 0.925537109375 0.9248046875 0.924072265625 0.924072265625 0.924072265625 0.924072265625 0.924072265625 0.924072265625 0.924072265625 0.924072265625 0.924072265625 0.91455078125 0.902099609375 0.8918457031249999 0.8815917968749999 0.8786621093749999,0.7587890625 0.6474609375 0.533203125 0.435546875 0.3671875 0.3291015625 0.3125 0.3125 0.3125 0.3125 0.3125 0.3125 0.3125 0.3125 0.302734375 0.28125 0.2109375 0.19140625 0.18359375 0.181640625 0.181640625 0.181640625 0.181640625 0.181640625 0.181640625 0.181640625 0.181640625 0.181640625 0.181640625 0.181640625 0.181640625 0.181640625 0.181640625 0.181640625 0.181640625 0.181640625 0.1796875 0.1767578125 0.1748046875 0.173828125 0.1728515625 0.1728515625 0.1728515625 0.1728515625 0.1728515625 0.1728515625 0.1728515625 0.1728515625 0.1728515625 0.1728515625 0.1728515625 0.1728515625 0.1728515625 0.1728515625 0.1728515625 0.171875 0.171875 0.171875 0.171875 0.171875 0.171875 0.173828125 0.1767578125 0.181640625 0.189453125 0.2001953125 0.212890625 0.21484375 0.216796875 0.216796875 0.216796875 0.216796875 0.216796875 0.216796875 0.216796875 0.2119140625 0.20703125 0.2021484375 0.197265625 0.1904296875 0.173828125 0.16796875 0.1650390625 0.1640625 0.1640625 0.1640625 0.1640625 0.1630859375 0.1630859375 0.1630859375 0.1630859375 0.1630859375 0.1630859375 0.1630859375 0.1630859375 0.1630859375 0.1611328125 0.1572265625 0.15234375 0.1494140625 0.1484375,766.3999999999942 786.3999999999942 806.3999999999942 826.3999999999942 846.3999999999942 866.3999999999942 886.3999999999942 906.3999999999942 926.3999999999942 946.3999999999942 966.3999999999942 986.3999999999942 1006.3999999999942 1026.3999999999942 1046.3999999999942 1066.3999999999942 1086.3999999999942 1106.3999999999942 1126.3999999999942 1146.3999999999942 1166.3999999999942 1186.3999999999942 1206.3999999999942 1226.3999999999942 1246.3999999999942 1266.3999999999942 1286.3999999999942 1306.3999999999942 1326.3999999999942 1346.3999999999942 1366.3999999999942 1386.3999999999942 1406.3999999999942 1426.3999999999942 1446.3999999999942 1466.3999999999942 1486.3999999999942 1506.3999999999942 1526.3999999999942 1546.3999999999942 1566.3999999999942 1586.3999999999942 1606.3999999999942 1626.3999999999942 1646.3999999999942 1666.3999999999942 1686.3999999999942 1706.3999999999942 1726.3999999999942 1746.3999999999942 1766.3999999999942 1786.3999999999942 1806.3999999999944 1826.3999999999944 1846.3999999999944 1866.3999999999944 1886.3999999999944 1906.3999999999944 1926.3999999999944 1946.3999999999944 1966.3999999999944 1986.3999999999944 2006.3999999999944 2026.3999999999944 2046.3999999999944 2066.3999999999937 2086.3999999999937 2106.3999999999937 2126.3999999999937 2146.3999999999937 2166.3999999999937 2186.3999999999937 2206.3999999999937 2226.3999999999937 2246.3999999999937 2266.3999999999937 2286.3999999999937 2306.3999999999937 2326.3999999999937 2346.3999999999937 2366.3999999999937 2386.3999999999937 2406.3999999999937 2426.3999999999937 2446.3999999999937 2466.3999999999937 2486.3999999999937 2506.3999999999937 2526.3999999999937 2546.3999999999937 2566.3999999999937 2586.3999999999937 2606.3999999999937 2626.3999999999937 2646.3999999999937 2666.3999999999937 2686.3999999999937 2706.3999999999937 2726.3999999999937 2746.3999999999937 2766.3999999999937
cb_01,19.0,enc_trial,stim,response,Miami trip,1957.000000023836,enc_trial,1.0,19.0,t_m_01_1,travel_Miami,fold-a,sandals,1.0,unique,close,paired,t_m_01_1.jpg,Miami,travel-b1,Iceland trip,Miami trip,sub-30,1.0,1.0,1.0,1.0,0.503662109375 0.497802734375 0.48974609375 0.47509765625 0.458984375 0.420166015625 0.38720703125 0.3681640625 0.355712890625 0.348388671875 0.34619140625 0.34619140625 0.345458984375 0.3447265625 0.3447265625 0.343994140625 0.343994140625 0.343994140625 0.343994140625 0.343994140625 0.343994140625 0.343994140625 0.343994140625 0.343994140625 0.343994140625 0.343994140625 0.343994140625 0.343994140625 0.343994140625 0.343994140625 0.343994140625 0.343994140625 0.3447265625 0.35205078125 0.37255859375 0.462646484375 0.5205078125 0.625244140625 0.693359375 0.7504882812499999 0.8024902343749999 0.8127441406249999 0.8200683593749999 0.8229980468749999 0.8266601562499999 0.8435058593749999 0.8757324218749999 0.8991699218749999 0.92041015625 0.93212890625 0.9423828125 0.947509765625 0.947509765625 0.9482421875 0.9482421875 0.948974609375 0.94970703125 0.94970703125 0.94970703125 0.94970703125 0.941650390625 0.934326171875 0.924072265625 0.91015625 0.8977050781249999 0.8845214843749999,0.8271484375 0.8193359375 0.7978515625 0.74609375 0.6669921875 0.4921875 0.3740234375 0.3134765625 0.2744140625 0.2529296875 0.2451171875 0.244140625 0.2431640625 0.240234375 0.2392578125 0.23828125 0.23828125 0.23828125 0.23828125 0.23828125 0.23828125 0.23828125 0.23828125 0.23828125 0.23828125 0.23828125 0.23828125 0.23828125 0.23828125 0.23828125 0.23828125 0.23828125 0.2373046875 0.236328125 0.2314453125 0.228515625 0.228515625 0.228515625 0.228515625 0.228515625 0.224609375 0.220703125 0.2177734375 0.2158203125 0.212890625 0.197265625 0.1728515625 0.158203125 0.1474609375 0.14453125 0.1435546875 0.1435546875 0.1435546875 0.142578125 0.142578125 0.142578125 0.142578125 0.1416015625 0.140625 0.1396484375 0.1376953125 0.1376953125 0.1376953125 0.1376953125 0.1376953125 0.1376953125,599.6999999999825 619.6999999999825 639.6999999999825 659.6999999999825 679.6999999999825 699.6999999999824 719.6999999999824 739.6999999999824 759.6999999999824 779.6999999999824 799.6999999999824 819.6999999999824 839.6999999999824 859.6999999999824 879.6999999999824 899.6999999999824 919.6999999999823 939.6999999999823 959.6999999999823 979.6999999999823 999.6999999999823 1019.6999999999823 1039.6999999999823 1059.6999999999823 1079.6999999999823 1099.6999999999823 1119.6999999999823 1139.6999999999825 1159.6999999999825 1179.6999999999825 1199.6999999999825 1219.6999999999825 1239.6999999999825 1259.6999999999825 1279.6999999999825 1299.6999999999825 1319.6999999999825 1339.6999999999825 1359.6999999999825 1379.6999999999825 1399.6999999999825 1419.6999999999825 1439.6999999999825 1459.6999999999825 1479.6999999999825 1499.6999999999825 1519.6999999999825 1539.6999999999825 1559.6999999999825 1579.6999999999825 1599.6999999999825 1619.6999999999825 1639.6999999999825 1659.6999999999825 1679.6999999999825 1699.6999999999825 1719.6999999999825 1739.6999999999825 1759.6999999999825 1779.6999999999825 1799.6999999999825 1819.6999999999825 1839.6999999999825 1859.6999999999825 1879.6999999999825 1899.6999999999825
cb_01,20.0,enc_trial,stim,response,Miami trip,1363.9000000476954,enc_trial,1.0,20.0,t_m_19_1,travel_Miami,fold-b,surfboard,1.0,unique,far,paired,t_m_19_1.jpg,Miami,travel-b1,Iceland trip,Miami trip,sub-30,1.0,1.0,1.0,1.0,0.5205078125 0.522705078125 0.5234375 0.5234375 0.5234375 0.51904296875 0.500732421875 0.4970703125 0.4970703125 0.4970703125 0.4970703125 0.503662109375 0.5087890625 0.51904296875 0.5556640625 0.62158203125 0.7929687499999999 0.8742675781249999 0.93798828125 0.968017578125 0.982666015625 0.984130859375 0.984130859375 0.984130859375 0.984130859375 0.98193359375 0.976806640625 0.96875 0.95849609375 0.94677734375 0.93798828125 0.918212890625 0.907958984375 0.8969726562499999 0.8896484374999999 0.8837890624999999,0.845703125 0.8193359375 0.7958984375 0.7705078125 0.7314453125 0.666015625 0.5244140625 0.466796875 0.4384765625 0.423828125 0.416015625 0.384765625 0.36328125 0.337890625 0.2919921875 0.2509765625 0.1923828125 0.19140625 0.19140625 0.19140625 0.19140625 0.19140625 0.19140625 0.19140625 0.19140625 0.19140625 0.19140625 0.19140625 0.19140625 0.19140625 0.19140625 0.1884765625 0.185546875 0.1826171875 0.1806640625 0.177734375,600.1000000000057 620.1000000000057 640.1000000000057 660.1000000000057 680.1000000000057 700.1000000000058 720.1000000000058 740.1000000000058 760.1000000000058 780.1000000000058 800.1000000000058 820.1000000000058 840.1000000000058 860.1000000000058 880.1000000000058 900.1000000000058 920.1000000000056 940.1000000000056 960.1000000000056 980.1000000000056 1000.1000000000056 1020.1000000000056 1040.1000000000058 1060.1000000000058 1080.1000000000058 1100.1000000000058 1120.1000000000058 1140.1000000000058 1160.1000000000058 1180.1000000000058 1200.1000000000058 1220.1000000000058 1240.1000000000058 1260.1000000000058 1280.1000000000058 1300.1000000000058
cb_01,21.0,enc_trial,stim,response,Miami trip,999.9999999999707,enc_trial,1.0,21.0,t_s_02_1,travel_shared,fold-b,water bottle,1.0,competing,far,paired,t_s_02_1.jpg,,travel-b1,Iceland trip,Miami trip,sub-30,1.0,1.0,1.0,1.0,0.51025390625 0.529296875 0.546142578125 0.56005859375 0.57763671875 0.60986328125 0.632568359375 0.647216796875 0.6669921875 0.698486328125 0.7614746093749999 0.7863769531249999 0.8112792968749999 0.8244628906249999 0.8317871093749999 0.8332519531249999 0.8339843749999999 0.8354492187499999 0.8354492187499999 0.8369140624999999 0.8427734374999999 0.8486328124999999 0.8537597656249999 0.8588867187499999 0.8610839843749999 0.8618164062499999,0.8017578125 0.7138671875 0.6328125 0.5615234375 0.5126953125 0.435546875 0.4033203125 0.390625 0.3720703125 0.3447265625 0.2861328125 0.259765625 0.234375 0.2216796875 0.21484375 0.2119140625 0.2099609375 0.2080078125 0.2080078125 0.205078125 0.1962890625 0.1826171875 0.1669921875 0.1552734375 0.1494140625 0.1484375,450.0 470.0 490.0 510.0 530.0 550.0 570.0 590.0 610.0 630.0 650.0 670.0 690.0 710.0 730.0 750.0 770.0 790.0 810.0 830.0 850.0 870.0 890.0 910.0 930.0 950.0
cb_01,22.0,enc_trial,stim,response,Iceland trip,1257.7000000476835,enc_trial,1.0,22.0,t_s_21_2,travel_shared,fold-b,umbrella,1.0,competing,far,paired,t_s_21_2.jpg,,travel-b1,Iceland trip,Miami trip,sub-30,1.0,1.0,1.0,1.0,0.51025390625 0.525634765625 0.55859375 0.58935546875 0.623046875 0.657470703125 0.7021484375 0.707275390625 0.708740234375 0.707275390625 0.6376953125 0.576171875 0.505126953125 0.43115234375 0.357177734375 0.301513671875 0.269287109375 0.26708984375 0.266357421875 0.266357421875 0.25244140625 0.238525390625 0.225341796875 0.2099609375 0.194580078125 0.18212890625 0.16821289062499994 0.16528320312499994 0.16308593749999994 0.16235351562499994 0.16088867187499994 0.16088867187499994,0.80078125 0.7265625 0.62109375 0.5244140625 0.423828125 0.333984375 0.2255859375 0.212890625 0.2041015625 0.1962890625 0.1484375 0.125 0.1025390625 0.0830078125 0.06640625 0.0556640625 0.0517578125 0.0517578125 0.0517578125 0.0517578125 0.060546875 0.0693359375 0.0771484375 0.0849609375 0.09375 0.099609375 0.107421875 0.109375 0.1123046875 0.11328125 0.1142578125 0.1171875,549.6000000000058 569.6000000000057 589.6000000000057 609.6000000000057 629.6000000000057 649.6000000000057 669.6000000000057 689.6000000000058 709.6000000000058 729.6000000000058 749.6000000000058 769.6000000000058 789.6000000000058 809.6000000000058 829.6000000000058 849.6000000000058 869.6000000000058 889.6000000000058 909.6000000000058 929.6000000000058 949.6000000000058 969.6000000000058 989.6000000000058 1009.6000000000058 1029.6000000000058 1049.6000000000058 1069.6000000000058 1089.6000000000058 1109.6000000000058 1129.6000000000058 1149.6000000000058 1169.6000000000058
cb_01,23.0,enc_trial,stim,response,Iceland trip,1559.100000047678,enc_trial,1.0,23.0,t_s_12_2,travel_shared,fold-b,clear toiletry bag,1.0,competing,far,paired,t_s_12_2.jpg,,travel-b1,Iceland trip,Miami trip,sub-30,1.0,1.0,0.0,0.0,0.513916015625 0.505126953125 0.4794921875 0.437744140625 0.376953125 0.24365234375 0.24365234375 0.17993164062499994 0.16821289062499994 0.16528320312499994 0.15795898437499994 0.14990234374999994 0.13378906249999994 0.11694335937499994 0.10375976562499996 0.09643554687499996 0.09643554687499996 0.09716796874999996 0.09790039062499996 0.10229492187499996 0.11108398437499996 0.11474609374999994 0.11767578124999994 0.11987304687499994 0.12060546874999994 0.12060546874999994 0.12060546874999994 0.12060546874999994 0.12060546874999994 0.12060546874999994 0.12060546874999994 0.12060546874999994 0.11987304687499994 0.11987304687499994,0.8271484375 0.806640625 0.734375 0.6357421875 0.51953125 0.3515625 0.3515625 0.2958984375 0.291015625 0.2900390625 0.279296875 0.2666015625 0.248046875 0.2294921875 0.2138671875 0.1982421875 0.197265625 0.1953125 0.1923828125 0.1806640625 0.1513671875 0.1435546875 0.1376953125 0.1337890625 0.1328125 0.1328125 0.1328125 0.1328125 0.1328125 0.1328125 0.1328125 0.1328125 0.1328125 0.1337890625,716.6999999999823 736.6999999999823 756.6999999999823 776.6999999999823 796.6999999999823 816.6999999999823 836.6999999999823 856.6999999999823 876.6999999999823 896.6999999999823 916.6999999999823 936.6999999999823 956.6999999999823 976.6999999999823 996.6999999999823 1016.6999999999823 1036.6999999999823 1056.6999999999823 1076.6999999999823 1096.6999999999823 1116.6999999999823 1136.6999999999825 1156.6999999999825 1176.6999999999825 1196.6999999999825 1216.6999999999825 1236.6999999999825 1256.6999999999825 1276.6999999999825 1296.6999999999825 1316.6999999999825 1336.6999999999825 1356.6999999999825 1376.6999999999825
cb_01,24.0,enc_trial,stim,response,Iceland trip,1742.6999999761465,enc_trial,1.0,24.0,t_s_06_1,travel_shared,fold-b,luggage,1.0,competing,far,paired,t_s_06_1.jpg,,travel-b1,Iceland trip,Miami trip,sub-30,1.0,1.0,0.0,0.0,0.51611328125 0.5146484375 0.513916015625 0.512451171875 0.51025390625 0.51025390625 0.508056640625 0.49853515625 0.483154296875 0.453857421875 0.423095703125 0.327880859375 0.30517578125 0.292724609375 0.288330078125 0.286865234375 0.286865234375 0.286865234375 0.286865234375 0.286865234375 0.286865234375 0.286865234375 0.286865234375 0.286865234375 0.286865234375 0.286865234375 0.286865234375 0.286865234375 0.286865234375 0.286865234375 0.286865234375 0.286865234375 0.286865234375 0.286865234375 0.286865234375 0.278076171875 0.259765625 0.232666015625 0.1923828125 0.14843749999999994 0.11181640624999996 0.10156249999999996,0.83203125 0.83203125 0.8310546875 0.8251953125 0.80859375 0.7802734375 0.662109375 0.58203125 0.4912109375 0.3916015625 0.3046875 0.166015625 0.1494140625 0.1416015625 0.1396484375 0.138671875 0.138671875 0.138671875 0.138671875 0.138671875 0.138671875 0.138671875 0.138671875 0.138671875 0.138671875 0.138671875 0.138671875 0.138671875 0.138671875 0.138671875 0.138671875 0.138671875 0.138671875 0.138671875 0.138671875 0.1376953125 0.1279296875 0.11328125 0.09765625 0.0888671875 0.083984375 0.083984375,683.3999999999943 703.3999999999942 723.3999999999942 743.3999999999942 763.3999999999942 783.3999999999942 803.3999999999942 823.3999999999942 843.3999999999942 863.3999999999942 883.3999999999942 903.3999999999944 923.3999999999944 943.3999999999944 963.3999999999944 983.3999999999944 1003.3999999999944 1023.3999999999944 1043.3999999999942 1063.3999999999942 1083.3999999999942 1103.3999999999942 1123.3999999999942 1143.3999999999942 1163.3999999999942 1183.3999999999942 1203.3999999999942 1223.3999999999942 1243.3999999999942 1263.3999999999942 1283.3999999999942 1303.3999999999942 1323.3999999999942 1343.3999999999942 1363.3999999999942 1383.3999999999942 1403.3999999999942 1423.3999999999942 1443.3999999999942 1463.3999999999942 1483.3999999999942 1503.3999999999942
cb_01,25.0,enc_trial,stim,response,Iceland trip,1826.8000000476893,enc_trial,1.0,25.0,t_s_18_1,travel_shared,fold-a,first aid kit,1.0,competing,close,paired,t_s_18_1.jpg,,travel-b1,Iceland trip,Miami trip,sub-30,0.0,0.0,1.0,0.0,0.512451171875 0.512451171875 0.512451171875 0.512451171875 0.512451171875 0.512451171875 0.512451171875 0.512451171875 0.512451171875 0.512451171875 0.512451171875 0.512451171875 0.512451171875 0.512451171875 0.512451171875 0.512451171875 0.512451171875 0.512451171875 0.512451171875 0.512451171875 0.512451171875 0.512451171875 0.512451171875 0.512451171875 0.51318359375 0.53076171875 0.53076171875 0.53076171875 0.53076171875 0.53076171875 0.52783203125 0.524169921875 0.521240234375 0.517578125 0.512451171875 0.508056640625 0.50732421875 0.50732421875 0.50732421875 0.508056640625 0.53955078125 0.565185546875 0.587890625 0.60693359375 0.617919921875 0.629638671875 0.63916015625 0.642822265625 0.64501953125 0.645751953125 0.647216796875 0.647216796875 0.639892578125 0.617919921875 0.56591796875 0.5 0.330078125 0.24658203125 0.17846679687499994 0.12866210937499994 0.11474609374999994 0.11401367187499994 0.11401367187499994 0.11401367187499994 0.11328124999999994 0.11254882812499996 0.11181640624999996 0.11181640624999996 0.11181640624999996 0.11254882812499996 0.11694335937499994 0.11987304687499994 0.12280273437499994 0.12353515624999994 0.12353515624999994 0.12499999999999994,0.853515625 0.853515625 0.853515625 0.853515625 0.853515625 0.853515625 0.853515625 0.853515625 0.853515625 0.853515625 0.853515625 0.853515625 0.853515625 0.853515625 0.853515625 0.853515625 0.853515625 0.853515625 0.853515625 0.8525390625 0.8486328125 0.8447265625 0.837890625 0.8212890625 0.783203125 0.6162109375 0.537109375 0.4599609375 0.3955078125 0.373046875 0.3388671875 0.328125 0.322265625 0.31640625 0.3095703125 0.30078125 0.2978515625 0.294921875 0.2919921875 0.2890625 0.2861328125 0.2861328125 0.2861328125 0.2841796875 0.28125 0.2744140625 0.26171875 0.2548828125 0.2509765625 0.2490234375 0.2431640625 0.2353515625 0.224609375 0.21484375 0.2109375 0.2109375 0.2109375 0.2109375 0.2080078125 0.19921875 0.1943359375 0.193359375 0.1923828125 0.19140625 0.189453125 0.1875 0.1865234375 0.1865234375 0.185546875 0.181640625 0.1748046875 0.171875 0.169921875 0.1689453125 0.16796875 0.16796875,300.0 320.0 340.0 360.0 380.0 400.0 420.0 440.0 460.0 480.0 500.0 520.0 540.0 560.0 580.0 600.0 620.0 640.0 660.0 680.0 700.0 720.0 740.0 760.0 780.0 800.0 820.0 840.0 860.0 880.0 900.0 920.0 940.0 960.0 980.0 1000.0 1020.0 1040.0 1060.0 1080.0 1100.0 1120.0 1140.0 1160.0 1180.0 1200.0 1220.0 1240.0 1260.0 1280.0 1300.0 1320.0 1340.0 1360.0 1380.0 1400.0 1420.0 1440.0 1460.0 1480.0 1500.0 1520.0 1540.0 1560.0 1580.0 1600.0 1620.0 1640.0 1660.0 1680.0 1700.0 1720.0 1740.0 1760.0 1780.0 1800.0
cb_01,26.0,enc_trial,stim,response,Miami trip,1462.5999999761698,enc_trial,1.0,26.0,t_m_01_2,travel_Miami,fold-a,sandals,1.0,unique,close,paired,t_m_01_2.jpg,Miami,travel-b1,Iceland trip,Miami trip,sub-30,1.0,1.0,1.0,1.0,0.50146484375 0.50146484375 0.5 0.490478515625 0.482421875 0.46923828125 0.474365234375 0.478759765625 0.482421875 0.48681640625 0.48974609375 0.490478515625 0.4912109375 0.49267578125 0.494140625 0.494873046875 0.494873046875 0.494873046875 0.494873046875 0.494873046875 0.494873046875 0.494873046875 0.494873046875 0.494873046875 0.494873046875 0.494873046875 0.494873046875 0.494873046875 0.49560546875 0.5 0.55859375 0.623046875 0.691162109375 0.7622070312499999 0.8222656249999999 0.8757324218749999 0.8764648437499999 0.8764648437499999 0.8764648437499999 0.8764648437499999 0.8764648437499999 0.8764648437499999 0.8771972656249999 0.8786621093749999 0.8808593749999999 0.8881835937499999 0.8889160156249999 0.8889160156249999 0.8889160156249999 0.8889160156249999 0.8889160156249999,0.7998046875 0.7548828125 0.677734375 0.58984375 0.5029296875 0.306640625 0.2744140625 0.2607421875 0.255859375 0.2529296875 0.251953125 0.251953125 0.2509765625 0.25 0.2490234375 0.248046875 0.248046875 0.248046875 0.248046875 0.248046875 0.248046875 0.248046875 0.248046875 0.248046875 0.248046875 0.248046875 0.248046875 0.248046875 0.2470703125 0.2470703125 0.2451171875 0.23828125 0.236328125 0.236328125 0.236328125 0.23046875 0.23046875 0.23046875 0.23046875 0.23046875 0.23046875 0.2294921875 0.2275390625 0.2236328125 0.216796875 0.19921875 0.1865234375 0.181640625 0.1787109375 0.177734375 0.1767578125,449.7000000000117 469.7000000000117 489.7000000000117 509.7000000000117 529.7000000000116 549.7000000000116 569.7000000000116 589.7000000000116 609.7000000000116 629.7000000000116 649.7000000000116 669.7000000000116 689.7000000000116 709.7000000000116 729.7000000000116 749.7000000000116 769.7000000000116 789.7000000000116 809.7000000000116 829.7000000000116 849.7000000000116 869.7000000000116 889.7000000000116 909.7000000000116 929.7000000000116 949.7000000000116 969.7000000000116 989.7000000000116 1009.7000000000116 1029.7000000000116 1049.7000000000116 1069.7000000000116 1089.7000000000116 1109.7000000000116 1129.7000000000114 1149.7000000000114 1169.7000000000114 1189.7000000000114 1209.7000000000114 1229.7000000000114 1249.7000000000114 1269.7000000000114 1289.7000000000114 1309.7000000000114 1329.7000000000114 1349.7000000000114 1369.7000000000114 1389.7000000000116 1409.7000000000116 1429.7000000000116 1449.7000000000116
cb_01,27.0,enc_trial,stim,response,Iceland trip,1849.1000000238416,enc_trial,1.0,27.0,t_i_19_2,travel_Iceland,fold-b,rope,1.0,unique,far,paired,t_i_19_2.jpg,Iceland,travel-b1,Iceland trip,Miami trip,sub-30,1.0,1.0,1.0,1.0,0.50732421875 0.51318359375 0.51904296875 0.52490234375 0.530029296875 0.538818359375 0.54248046875 0.544677734375 0.546875 0.549072265625 0.55126953125 0.55126953125 0.55126953125 0.55126953125 0.54541015625 0.50732421875 0.4765625 0.4326171875 0.39453125 0.354248046875 0.3037109375 0.2919921875 0.2919921875 0.2919921875 0.2919921875 0.2919921875 0.2919921875 0.2919921875 0.2919921875 0.2919921875 0.2978515625 0.308837890625 0.31982421875 0.32421875 0.3359375 0.36083984375 0.3740234375 0.392333984375 0.423095703125 0.47802734375 0.515380859375 0.573974609375 0.595947265625 0.613525390625 0.625244140625 0.6376953125 0.63916015625 0.639892578125 0.639892578125 0.639892578125 0.639892578125 0.639892578125 0.639892578125 0.62158203125 0.573974609375 0.433349609375 0.377685546875 0.338134765625 0.322021484375 0.3125 0.30078125 0.2919921875 0.2802734375 0.264892578125 0.2451171875 0.19677734375 0.184326171875 0.17626953124999994 0.17260742187499994 0.16967773437499994 0.16162109374999994 0.15649414062499994 0.15136718749999994 0.14843749999999994,0.8154296875 0.791015625 0.765625 0.7353515625 0.7021484375 0.6171875 0.5908203125 0.5673828125 0.5478515625 0.529296875 0.4970703125 0.482421875 0.4697265625 0.4599609375 0.4482421875 0.412109375 0.3994140625 0.380859375 0.3642578125 0.3486328125 0.330078125 0.326171875 0.326171875 0.326171875 0.326171875 0.326171875 0.326171875 0.326171875 0.326171875 0.3251953125 0.31640625 0.3056640625 0.2978515625 0.29296875 0.2841796875 0.2685546875 0.263671875 0.2587890625 0.2578125 0.2529296875 0.2529296875 0.2509765625 0.2509765625 0.2470703125 0.2421875 0.2353515625 0.2333984375 0.2333984375 0.232421875 0.232421875 0.2314453125 0.23046875 0.2255859375 0.2177734375 0.208984375 0.1796875 0.1689453125 0.1640625 0.162109375 0.1591796875 0.15625 0.1533203125 0.1494140625 0.146484375 0.142578125 0.1337890625 0.1337890625 0.1337890625 0.1337890625 0.1337890625 0.1337890625 0.1337890625 0.1337890625 0.1337890625,317.0 337.0 357.0 377.0 397.0 417.0 437.0 457.0 477.0 497.0 517.0 537.0 557.0 577.0 597.0 617.0 637.0 657.0 677.0 697.0 717.0 737.0 757.0 777.0 797.0 817.0 837.0 857.0 877.0 897.0 917.0 937.0 957.0 977.0 997.0 1017.0 1037.0 1057.0 1077.0 1097.0 1117.0 1137.0 1157.0 1177.0 1197.0 1217.0 1237.0 1257.0 1277.0 1297.0 1317.0 1337.0 1357.0 1377.0 1397.0 1417.0 1437.0 1457.0 1477.0 1497.0 1517.0 1537.0 1557.0 1577.0 1597.0 1617.0 1637.0 1657.0 1677.0 1697.0 1717.0 1737.0 1757.0 1777.0
cb_01,28.0,enc_trial,stim,response,Miami trip,2053.7999999523167,enc_trial,1.0,28.0,t_s_13_1,travel_shared,fold-c-single,contact lens case,1.0,competing,,single,t_s_13_1.jpg,,travel-b1,Iceland trip,Miami trip,sub-30,1.0,,1.0,,0.5 0.5 0.487548828125 0.4736328125 0.461181640625 0.453857421875 0.447265625 0.4443359375 0.44140625 0.43994140625 0.435546875 0.431884765625 0.42529296875 0.420166015625 0.415771484375 0.409912109375 0.402587890625 0.402587890625 0.40185546875 0.40185546875 0.40185546875 0.41357421875 0.4326171875 0.461181640625 0.48681640625 0.510986328125 0.544677734375 0.54833984375 0.54833984375 0.54833984375 0.54833984375 0.54833984375 0.54833984375 0.54833984375 0.54833984375 0.54833984375 0.54833984375 0.54541015625 0.527099609375 0.483154296875 0.43115234375 0.330078125 0.289794921875 0.27001953125 0.2626953125 0.259765625 0.2509765625 0.24951171875 0.248779296875 0.248779296875 0.248046875 0.248046875 0.25244140625 0.275146484375 0.336669921875 0.426025390625 0.685302734375 0.8259277343749999 0.9541015625 1.05078125 1.061767578125 1.061767578125 1.061767578125 1.042724609375 1.033935546875 1.028076171875 1.016357421875 1.007568359375 0.9951171875 0.9833984375 0.969482421875 0.94091796875 0.921875 0.909423828125 0.8991699218749999 0.8918457031249999 0.8793945312499999 0.8742675781249999 0.8728027343749999,0.7958984375 0.71875 0.580078125 0.4921875 0.43359375 0.4013671875 0.37109375 0.3623046875 0.3544921875 0.349609375 0.3388671875 0.326171875 0.306640625 0.294921875 0.283203125 0.2724609375 0.2578125 0.2568359375 0.255859375 0.255859375 0.255859375 0.2607421875 0.2646484375 0.2685546875 0.2724609375 0.27734375 0.279296875 0.279296875 0.279296875 0.279296875 0.279296875 0.279296875 0.279296875 0.279296875 0.279296875 0.279296875 0.279296875 0.27734375 0.2685546875 0.2578125 0.248046875 0.23046875 0.23046875 0.23046875 0.23046875 0.2294921875 0.2265625 0.224609375 0.224609375 0.224609375 0.224609375 0.2275390625 0.2333984375 0.2392578125 0.248046875 0.251953125 0.2529296875 0.25 0.248046875 0.23828125 0.228515625 0.2265625 0.2265625 0.2265625 0.224609375 0.2236328125 0.2216796875 0.2197265625 0.216796875 0.21484375 0.208984375 0.1953125 0.18359375 0.1748046875 0.166015625 0.1591796875 0.1474609375 0.1435546875 0.1416015625,433.2999999999884 453.2999999999884 473.2999999999884 493.2999999999884 513.2999999999884 533.2999999999884 553.2999999999884 573.2999999999884 593.2999999999884 613.2999999999884 633.2999999999884 653.2999999999884 673.2999999999884 693.2999999999884 713.2999999999884 733.2999999999884 753.2999999999884 773.2999999999884 793.2999999999884 813.2999999999884 833.2999999999884 853.2999999999884 873.2999999999884 893.2999999999884 913.2999999999884 933.2999999999884 953.2999999999884 973.2999999999884 993.2999999999884 1013.2999999999884 1033.2999999999884 1053.2999999999884 1073.2999999999884 1093.2999999999884 1113.2999999999884 1133.2999999999886 1153.2999999999886 1173.2999999999886 1193.2999999999886 1213.2999999999886 1233.2999999999886 1253.2999999999886 1273.2999999999886 1293.2999999999886 1313.2999999999886 1333.2999999999886 1353.2999999999886 1373.2999999999886 1393.2999999999884 1413.2999999999884 1433.2999999999884 1453.2999999999884 1473.2999999999884 1493.2999999999884 1513.2999999999884 1533.2999999999884 1553.2999999999884 1573.2999999999884 1593.2999999999884 1613.2999999999884 1633.2999999999884 1653.2999999999884 1673.2999999999884 1693.2999999999884 1713.2999999999884 1733.2999999999884 1753.2999999999884 1773.2999999999884 1793.2999999999884 1813.2999999999884 1833.2999999999884 1853.2999999999884 1873.2999999999884 1893.2999999999884 1913.2999999999884 1933.2999999999884 1953.2999999999884 1973.2999999999884 1993.2999999999884
cb_01,29.0,enc_trial,stim,response,Iceland trip,1861.6999999523105,enc_trial,1.0,29.0,t_i_15_1,travel_Iceland,fold-a,compass,1.0,unique,close,paired,t_i_15_1.jpg,Iceland,travel-b1,Iceland trip,Miami trip,sub-30,1.0,1.0,1.0,1.0,0.505859375 0.505859375 0.505859375 0.505859375 0.505859375 0.505859375 0.505859375 0.505859375 0.505859375 0.505859375 0.505859375 0.505859375 0.505859375 0.505859375 0.505859375 0.505859375 0.505859375 0.505859375 0.505859375 0.505859375 0.50732421875 0.510986328125 0.513916015625 0.513916015625 0.513916015625 0.513916015625 0.513916015625 0.513916015625 0.513916015625 0.513916015625 0.513916015625 0.51171875 0.50439453125 0.490478515625 0.4794921875 0.470703125 0.47509765625 0.486083984375 0.494873046875 0.494873046875 0.494873046875 0.494873046875 0.494873046875 0.494873046875 0.494873046875 0.494873046875 0.494873046875 0.494873046875 0.494873046875 0.494873046875 0.494873046875 0.494873046875 0.494873046875 0.494140625 0.4912109375 0.4560546875 0.450927734375 0.443603515625 0.4296875 0.406982421875 0.36669921875 0.338134765625 0.314697265625 0.288330078125 0.276611328125 0.265625 0.244384765625 0.200439453125 0.14038085937499994 0.07885742187499997 0.004150390624999972 -0.003906250000000028 -0.003906250000000028 -0.003906250000000028 -0.004638671875000028 -0.004638671875000028 -0.004638671875000028 -0.004638671875000028 -0.0009765625000000278 0.002685546874999972 0.02172851562499997 0.040039062499999965 0.055419921874999965 0.06713867187499997 0.07519531249999997 0.07958984374999997 0.08105468749999997 0.08398437499999997 0.08911132812499997 0.09497070312499996 0.10083007812499996 0.10083007812499996 0.10083007812499996 0.10083007812499996,0.84375 0.84375 0.84375 0.84375 0.84375 0.84375 0.84375 0.84375 0.84375 0.84375 0.84375 0.84375 0.84375 0.84375 0.84375 0.84375 0.84375 0.84375 0.84375 0.84375 0.8427734375 0.83984375 0.8359375 0.8359375 0.8359375 0.8349609375 0.828125 0.8134765625 0.7919921875 0.767578125 0.7177734375 0.69140625 0.6591796875 0.609375 0.546875 0.3974609375 0.3173828125 0.306640625 0.3193359375 0.3193359375 0.3193359375 0.3193359375 0.3193359375 0.3193359375 0.3193359375 0.3193359375 0.3193359375 0.3193359375 0.3193359375 0.3193359375 0.3193359375 0.3193359375 0.3193359375 0.3193359375 0.3203125 0.3203125 0.3232421875 0.326171875 0.330078125 0.33203125 0.322265625 0.3017578125 0.2822265625 0.2587890625 0.24609375 0.2314453125 0.2099609375 0.1708984375 0.11328125 0.0703125 0.0205078125 0.0185546875 0.0185546875 0.0185546875 0.0185546875 0.021484375 0.025390625 0.0283203125 0.0361328125 0.048828125 0.076171875 0.08984375 0.0966796875 0.1005859375 0.103515625 0.10546875 0.1064453125 0.109375 0.1171875 0.1220703125 0.126953125 0.126953125 0.126953125 0.1279296875,0.0 20.0 40.0 60.0 80.0 100.0 120.0 140.0 160.0 180.0 200.0 220.0 240.0 260.0 280.0 300.0 320.0 340.0 360.0 380.0 400.0 420.0 440.0 460.0 480.0 500.0 520.0 540.0 560.0 580.0 600.0 620.0 640.0 660.0 680.0 700.0 720.0 740.0 760.0 780.0 800.0 820.0 840.0 860.0 880.0 900.0 920.0 940.0 960.0 980.0 1000.0 1020.0 1040.0 1060.0 1080.0 1100.0 1120.0 1140.0 1160.0 1180.0 1200.0 1220.0 1240.0 1260.0 1280.0 1300.0 1320.0 1340.0 1360.0 1380.0 1400.0 1420.0 1440.0 1460.0 1480.0 1500.0 1520.0 1540.0 1560.0 1580.0 1600.0 1620.0 1640.0 1660.0 1680.0 1700.0 1720.0 1740.0 1760.0 1780.0 1800.0 1820.0 1840.0 1860.0
cb_01,30.0,enc_trial,stim,response,Iceland trip,2325.500000047672,enc_trial,1.0,30.0,t_s_15_1,travel_shared,fold-c-single,luggage tag,1.0,competing,,single,t_s_15_1.jpg,,travel-b1,Iceland trip,Miami trip,sub-30,1.0,,1.0,,0.505859375 0.50439453125 0.50146484375 0.50146484375 0.50146484375 0.50146484375 0.50146484375 0.50146484375 0.500732421875 0.4970703125 0.4853515625 0.4794921875 0.47216796875 0.465576171875 0.4560546875 0.440673828125 0.436279296875 0.434814453125 0.434814453125 0.434814453125 0.434814453125 0.434814453125 0.434814453125 0.434814453125 0.434814453125 0.434814453125 0.434814453125 0.434814453125 0.434814453125 0.434814453125 0.4326171875 0.431884765625 0.43115234375 0.4267578125 0.4208984375 0.411376953125 0.36376953125 0.327880859375 0.295654296875 0.272216796875 0.244384765625 0.241455078125 0.239990234375 0.23779296875 0.234130859375 0.231201171875 0.2216796875 0.2158203125 0.2099609375 0.20556640625 0.200439453125 0.190185546875 0.18798828125 0.1806640625 0.17041015624999994 0.16015624999999994 0.14550781249999994 0.13964843749999994 0.13598632812499994 0.13452148437499994 0.13378906249999994 0.13378906249999994 0.13378906249999994 0.13378906249999994 0.13378906249999994 0.13378906249999994 0.13598632812499994 0.15429687499999994 0.21142578125 0.353515625 0.604736328125 0.686767578125 0.7197265625 0.724853515625 0.721923828125 0.63623046875 0.5673828125 0.5 0.4443359375 0.38427734375 0.294189453125 0.275146484375 0.259765625 0.24658203125 0.236328125 0.224609375 0.21875 0.212158203125 0.20263671875 0.190185546875 0.16967773437499994 0.16894531249999994 0.16821289062499994 0.16674804687499994 0.16601562499999994 0.16381835937499994 0.16381835937499994 0.16381835937499994,0.8349609375 0.828125 0.8095703125 0.7802734375 0.734375 0.6865234375 0.6123046875 0.580078125 0.5537109375 0.5361328125 0.501953125 0.486328125 0.4697265625 0.4541015625 0.4326171875 0.3935546875 0.37890625 0.3701171875 0.3662109375 0.365234375 0.373046875 0.373046875 0.373046875 0.373046875 0.373046875 0.373046875 0.373046875 0.373046875 0.373046875 0.373046875 0.3720703125 0.3720703125 0.3720703125 0.365234375 0.353515625 0.3408203125 0.3134765625 0.3076171875 0.302734375 0.2998046875 0.2890625 0.28515625 0.275390625 0.2666015625 0.2529296875 0.2353515625 0.2041015625 0.185546875 0.16796875 0.1533203125 0.1376953125 0.119140625 0.1162109375 0.1142578125 0.1123046875 0.1123046875 0.1142578125 0.1201171875 0.1240234375 0.1259765625 0.1259765625 0.1279296875 0.12890625 0.12890625 0.1298828125 0.1298828125 0.1337890625 0.13671875 0.140625 0.140625 0.140625 0.138671875 0.130859375 0.1259765625 0.1201171875 0.09765625 0.087890625 0.087890625 0.087890625 0.087890625 0.0869140625 0.083984375 0.0810546875 0.0771484375 0.0771484375 0.07421875 0.07421875 0.07421875 0.07421875 0.07421875 0.0771484375 0.078125 0.08203125 0.087890625 0.09765625 0.1162109375 0.12109375 0.123046875,349.7999999999884 369.7999999999884 389.7999999999884 409.7999999999884 429.7999999999884 449.7999999999884 469.7999999999884 489.7999999999884 509.7999999999884 529.7999999999884 549.7999999999884 569.7999999999884 589.7999999999884 609.7999999999884 629.7999999999884 649.7999999999884 669.7999999999884 689.7999999999884 709.7999999999884 729.7999999999884 749.7999999999884 769.7999999999884 789.7999999999884 809.7999999999884 829.7999999999884 849.7999999999884 869.7999999999884 889.7999999999884 909.7999999999884 929.7999999999884 949.7999999999884 969.7999999999884 989.7999999999884 1009.7999999999884 1029.7999999999884 1049.7999999999884 1069.7999999999884 1089.7999999999884 1109.7999999999884 1129.7999999999886 1149.7999999999886 1169.7999999999886 1189.7999999999886 1209.7999999999886 1229.7999999999886 1249.7999999999886 1269.7999999999886 1289.7999999999886 1309.7999999999886 1329.7999999999886 1349.7999999999886 1369.7999999999886 1389.7999999999884 1409.7999999999884 1429.7999999999884 1449.7999999999884 1469.7999999999884 1489.7999999999884 1509.7999999999884 1529.7999999999884 1549.7999999999884 1569.7999999999884 1589.7999999999884 1609.7999999999884 1629.7999999999884 1649.7999999999884 1669.7999999999884 1689.7999999999884 1709.7999999999884 1729.7999999999884 1749.7999999999884 1769.7999999999884 1789.7999999999884 1809.7999999999884 1829.7999999999884 1849.7999999999884 1869.7999999999884 1889.7999999999884 1909.7999999999884 1929.7999999999884 1949.7999999999884 1969.7999999999884 1989.7999999999884 2009.7999999999884 2029.7999999999884 2049.7999999999884 2069.7999999999884 2089.7999999999884 2109.7999999999884 2129.7999999999884 2149.7999999999884 2169.7999999999884 2189.7999999999884 2209.7999999999884 2229.7999999999884 2249.7999999999884 2269.7999999999884 2289.7999999999884
cb_01,31.0,enc_trial,stim,response,Miami trip,1590.500000023836,enc_trial,1.0,31.0,t_m_18_2,travel_Miami,fold-b,waterproof tote,1.0,unique,far,paired,t_m_18_2.jpg,Miami,travel-b1,Iceland trip,Miami trip,sub-30,1.0,1.0,1.0,1.0,0.515380859375 0.515380859375 0.513916015625 0.512451171875 0.510986328125 0.51025390625 0.51318359375 0.517578125 0.5234375 0.5263671875 0.53076171875 0.53076171875 0.53076171875 0.53076171875 0.51904296875 0.470703125 0.411376953125 0.3564453125 0.306640625 0.256103515625 0.206298828125 0.201904296875 0.201904296875 0.201904296875 0.201904296875 0.213623046875 0.2392578125 0.336669921875 0.426025390625 0.53369140625 0.7768554687499999 0.8625488281249999 0.922607421875 0.939453125 0.941650390625 0.943115234375 0.943115234375 0.943115234375 0.943115234375 0.943115234375 0.943115234375 0.938720703125 0.931396484375 0.916015625 0.8903808593749999 0.8530273437499999 0.8449707031249999 0.8435058593749999,0.8349609375 0.8349609375 0.8349609375 0.83203125 0.822265625 0.806640625 0.7216796875 0.6845703125 0.6552734375 0.630859375 0.583984375 0.5634765625 0.5400390625 0.5126953125 0.470703125 0.357421875 0.259765625 0.201171875 0.1572265625 0.119140625 0.0927734375 0.091796875 0.091796875 0.091796875 0.0927734375 0.1025390625 0.1181640625 0.1435546875 0.1611328125 0.171875 0.171875 0.1689453125 0.15625 0.15234375 0.15234375 0.1513671875 0.1513671875 0.1513671875 0.1513671875 0.1513671875 0.150390625 0.1455078125 0.1435546875 0.140625 0.1357421875 0.1298828125 0.1298828125 0.1298828125,583.5 603.5 623.5 643.5 663.5 683.5 703.5 723.5 743.5 763.5 783.5 803.5 823.5 843.5 863.5 883.5 903.5 923.5 943.5 963.5 983.5 1003.5 1023.5 1043.5 1063.5 1083.5 1103.5 1123.5 1143.5 1163.5 1183.5 1203.5 1223.5 1243.5 1263.5 1283.5 1303.5 1323.5 1343.5 1363.5 1383.5 1403.5 1423.5 1443.5 1463.5 1483.5 1503.5 1523.5
cb_01,32.0,enc_trial,stim,response,Iceland trip,2285.6999999761465,enc_trial,1.0,32.0,t_s_18_2,travel_shared,fold-a,first aid kit,1.0,competing,close,paired,t_s_18_2.jpg,,travel-b1,Iceland trip,Miami trip,sub-30,0.0,0.0,1.0,0.0,0.462646484375 0.462646484375 0.462646484375 0.459716796875 0.459716796875 0.458251953125 0.446533203125 0.437744140625 0.423095703125 0.41650390625 0.412841796875 0.409912109375 0.409912109375 0.409912109375 0.411376953125 0.426025390625 0.450927734375 0.50439453125 0.603271484375 0.682373046875 0.8083496093749999 0.8405761718749999 0.8588867187499999 0.8713378906249999 0.8735351562499999 0.8735351562499999 0.8735351562499999 0.8735351562499999 0.8735351562499999 0.8735351562499999 0.8735351562499999 0.8742675781249999 0.8742675781249999 0.8742675781249999 0.8742675781249999 0.8742675781249999 0.8742675781249999 0.8742675781249999 0.8742675781249999 0.8742675781249999 0.8728027343749999 0.8618164062499999 0.8405761718749999 0.7907714843749999 0.7255859375 0.56884765625 0.481689453125 0.398193359375 0.292724609375 0.248779296875 0.22607421875 0.203369140625 0.201904296875 0.201904296875 0.201904296875 0.201171875 0.20263671875 0.242919921875 0.305908203125 0.385009765625 0.483154296875 0.632568359375 0.642822265625 0.644287109375 0.63916015625 0.494873046875 0.395263671875 0.31396484375 0.237060546875 0.222412109375 0.22021484375 0.22021484375 0.22021484375 0.22021484375 0.218017578125 0.201171875 0.19091796875 0.1865234375 0.18359375 0.182861328125 0.182861328125 0.17407226562499994 0.16235351562499994 0.15283203124999994 0.15063476562499994,0.8798828125 0.8642578125 0.8349609375 0.77734375 0.7001953125 0.541015625 0.4599609375 0.4013671875 0.333984375 0.3056640625 0.287109375 0.2685546875 0.2646484375 0.2607421875 0.2568359375 0.244140625 0.2333984375 0.2138671875 0.1943359375 0.1787109375 0.162109375 0.162109375 0.162109375 0.162109375 0.162109375 0.162109375 0.162109375 0.162109375 0.162109375 0.162109375 0.162109375 0.162109375 0.162109375 0.162109375 0.162109375 0.162109375 0.162109375 0.162109375 0.162109375 0.162109375 0.162109375 0.16015625 0.1533203125 0.1455078125 0.1328125 0.119140625 0.1171875 0.11328125 0.11328125 0.11328125 0.11328125 0.11328125 0.11328125 0.11328125 0.11328125 0.11328125 0.1171875 0.1279296875 0.138671875 0.150390625 0.1640625 0.16796875 0.16796875 0.16796875 0.162109375 0.1357421875 0.12890625 0.12890625 0.12890625 0.12890625 0.12890625 0.12890625 0.12890625 0.12890625 0.12890625 0.126953125 0.125 0.125 0.125 0.125 0.125 0.1240234375 0.123046875 0.1201171875 0.1201171875,566.6999999999825 586.6999999999825 606.6999999999825 626.6999999999825 646.6999999999825 666.6999999999825 686.6999999999825 706.6999999999824 726.6999999999824 746.6999999999824 766.6999999999824 786.6999999999824 806.6999999999824 826.6999999999824 846.6999999999824 866.6999999999824 886.6999999999824 906.6999999999823 926.6999999999823 946.6999999999823 966.6999999999823 986.6999999999823 1006.6999999999823 1026.6999999999823 1046.6999999999823 1066.6999999999823 1086.6999999999823 1106.6999999999823 1126.6999999999825 1146.6999999999825 1166.6999999999825 1186.6999999999825 1206.6999999999825 1226.6999999999825 1246.6999999999825 1266.6999999999825 1286.6999999999825 1306.6999999999825 1326.6999999999825 1346.6999999999825 1366.6999999999825 1386.6999999999825 1406.6999999999825 1426.6999999999825 1446.6999999999825 1466.6999999999825 1486.6999999999825 1506.6999999999825 1526.6999999999825 1546.6999999999825 1566.6999999999825 1586.6999999999825 1606.6999999999825 1626.6999999999825 1646.6999999999825 1666.6999999999825 1686.6999999999825 1706.6999999999825 1726.6999999999825 1746.6999999999825 1766.6999999999825 1786.6999999999825 1806.6999999999825 1826.6999999999825 1846.6999999999825 1866.6999999999825 1886.6999999999825 1906.6999999999825 1926.6999999999825 1946.6999999999825 1966.6999999999825 1986.6999999999825 2006.6999999999825 2026.6999999999825 2046.6999999999825 2066.6999999999825 2086.6999999999825 2106.6999999999825 2126.6999999999825 2146.6999999999825 2166.6999999999825 2186.6999999999825 2206.6999999999825 2226.6999999999825 2246.6999999999825
cb_01,33.0,enc_trial,stim,response,Miami trip,1165.6999999523105,enc_trial,1.0,33.0,t_s_04_1,travel_shared,fold-c-single,instant camera,1.0,competing,,single,t_s_04_1.jpg,,travel-b1,Iceland trip,Miami trip,sub-30,1.0,,1.0,,0.55126953125 0.55126953125 0.55126953125 0.55126953125 0.55126953125 0.55126953125 0.55126953125 0.55126953125 0.55126953125 0.55126953125 0.534423828125 0.51611328125 0.496337890625 0.48095703125 0.47509765625 0.480224609375 0.496337890625 0.5322265625 0.590087890625 0.654541015625 0.7900390624999999 0.8376464843749999 0.8588867187499999 0.8713378906249999 0.8742675781249999 0.8742675781249999 0.8742675781249999 0.8742675781249999 0.8742675781249999 0.8742675781249999 0.8713378906249999 0.8706054687499999 0.8698730468749999 0.8691406249999999 0.8691406249999999,0.8212890625 0.8212890625 0.8212890625 0.8212890625 0.8212890625 0.8212890625 0.8173828125 0.80078125 0.7734375 0.736328125 0.5830078125 0.4833984375 0.388671875 0.306640625 0.22265625 0.197265625 0.1943359375 0.1943359375 0.1953125 0.205078125 0.205078125 0.205078125 0.205078125 0.205078125 0.205078125 0.205078125 0.205078125 0.2041015625 0.2021484375 0.19921875 0.1904296875 0.1875 0.18359375 0.181640625 0.1806640625,449.8999999999942 469.8999999999942 489.8999999999942 509.8999999999942 529.8999999999942 549.8999999999942 569.8999999999943 589.8999999999943 609.8999999999943 629.8999999999943 649.8999999999943 669.8999999999943 689.8999999999942 709.8999999999942 729.8999999999942 749.8999999999942 769.8999999999942 789.8999999999942 809.8999999999942 829.8999999999942 849.8999999999942 869.8999999999942 889.8999999999942 909.8999999999942 929.8999999999942 949.8999999999942 969.8999999999942 989.8999999999942 1009.8999999999942 1029.8999999999942 1049.8999999999942 1069.8999999999942 1089.8999999999942 1109.8999999999942 1129.8999999999942
cb_01,34.0,enc_trial,stim,response,Iceland trip,1219.1999999761465,enc_trial,1.0,34.0,t_i_15_2,travel_Iceland,fold-a,compass,1.0,unique,close,paired,t_i_15_2.jpg,Iceland,travel-b1,Iceland trip,Miami trip,sub-30,1.0,1.0,1.0,1.0,0.494873046875 0.4912109375 0.458251953125 0.3916015625 0.3154296875 0.242919921875 0.18359375 0.17773437499999994 0.17773437499999994 0.17773437499999994 0.17773437499999994 0.17480468749999994 0.17041015624999994 0.16748046874999994 0.16601562499999994 0.16601562499999994 0.16748046874999994 0.16894531249999994 0.16894531249999994 0.16674804687499994 0.15649414062499994 0.15209960937499994 0.15136718749999994 0.15136718749999994 0.15136718749999994 0.15136718749999994 0.15136718749999994 0.15136718749999994,0.82421875 0.763671875 0.6728515625 0.548828125 0.4443359375 0.3662109375 0.3173828125 0.3154296875 0.314453125 0.314453125 0.314453125 0.3134765625 0.3115234375 0.310546875 0.3095703125 0.3076171875 0.298828125 0.2763671875 0.25 0.22265625 0.1787109375 0.166015625 0.1630859375 0.1630859375 0.1611328125 0.16015625 0.1591796875 0.158203125,666.2999999999884 686.2999999999884 706.2999999999884 726.2999999999884 746.2999999999884 766.2999999999884 786.2999999999884 806.2999999999884 826.2999999999884 846.2999999999884 866.2999999999884 886.2999999999884 906.2999999999884 926.2999999999884 946.2999999999884 966.2999999999884 986.2999999999884 1006.2999999999884 1026.2999999999884 1046.2999999999884 1066.2999999999884 1086.2999999999884 1106.2999999999884 1126.2999999999886 1146.2999999999886 1166.2999999999886 1186.2999999999886 1206.2999999999886
cb_01,35.0,enc_trial,stim,response,Iceland trip,1558.499999952328,enc_trial,1.0,35.0,t_s_02_2,travel_shared,fold-b,water bottle,1.0,competing,far,paired,t_s_02_2.jpg,,travel-b1,Iceland trip,Miami trip,sub-30,1.0,1.0,1.0,1.0,0.5234375 0.5234375 0.525634765625 0.532958984375 0.543212890625 0.559326171875 0.59814453125 0.611328125 0.62158203125 0.629638671875 0.634033203125 0.64208984375 0.64208984375 0.641357421875 0.634033203125 0.628173828125 0.623779296875 0.623779296875 0.623046875 0.623046875 0.62158203125 0.620849609375 0.6201171875 0.6201171875 0.6201171875 0.61865234375 0.60693359375 0.564453125 0.489013671875 0.400390625 0.314697265625 0.215087890625 0.213623046875 0.213623046875 0.213623046875 0.213623046875 0.213623046875 0.213623046875 0.213623046875 0.2099609375 0.203369140625 0.200439453125 0.1982421875 0.193115234375 0.1865234375 0.17407226562499994 0.14916992187499994 0.14477539062499994,0.8251953125 0.794921875 0.7529296875 0.703125 0.6435546875 0.5771484375 0.47265625 0.44140625 0.421875 0.40625 0.3935546875 0.3525390625 0.3330078125 0.31640625 0.2978515625 0.2880859375 0.283203125 0.283203125 0.283203125 0.283203125 0.283203125 0.2841796875 0.28515625 0.2861328125 0.2861328125 0.287109375 0.287109375 0.267578125 0.2373046875 0.208984375 0.19140625 0.1875 0.1884765625 0.1884765625 0.189453125 0.189453125 0.189453125 0.189453125 0.189453125 0.185546875 0.1796875 0.1767578125 0.1748046875 0.1708984375 0.1650390625 0.1591796875 0.1494140625 0.1484375,533.2000000000116 553.2000000000116 573.2000000000116 593.2000000000116 613.2000000000116 633.2000000000116 653.2000000000116 673.2000000000116 693.2000000000116 713.2000000000116 733.2000000000116 753.2000000000116 773.2000000000116 793.2000000000116 813.2000000000116 833.2000000000116 853.2000000000116 873.2000000000116 893.2000000000116 913.2000000000116 933.2000000000116 953.2000000000116 973.2000000000116 993.2000000000116 1013.2000000000116 1033.2000000000116 1053.2000000000116 1073.2000000000116 1093.2000000000116 1113.2000000000116 1133.2000000000114 1153.2000000000114 1173.2000000000114 1193.2000000000114 1213.2000000000114 1233.2000000000114 1253.2000000000114 1273.2000000000114 1293.2000000000114 1313.2000000000114 1333.2000000000114 1353.2000000000114 1373.2000000000114 1393.2000000000116 1413.2000000000116 1433.2000000000116 1453.2000000000116 1473.2000000000116
cb_01,36.0,enc_trial,stim,response,Iceland trip,2153.1999999523396,enc_trial,1.0,36.0,t_s_20_1,travel_shared,fold-a,travel pill case,1.0,competing,close,paired,t_s_20_1.jpg,,travel-b1,Iceland trip,Miami trip,sub-30,1.0,1.0,1.0,0.0,0.517578125 0.516845703125 0.51611328125 0.515380859375 0.513916015625 0.51171875 0.509521484375 0.50732421875 0.50439453125 0.5029296875 0.502197265625 0.503662109375 0.50732421875 0.512451171875 0.51611328125 0.518310546875 0.518310546875 0.518310546875 0.518310546875 0.518310546875 0.518310546875 0.518310546875 0.517578125 0.51611328125 0.51611328125 0.513916015625 0.51318359375 0.51318359375 0.51318359375 0.513916015625 0.537353515625 0.559326171875 0.5849609375 0.612060546875 0.635498046875 0.663330078125 0.667724609375 0.669921875 0.670654296875 0.670654296875 0.67138671875 0.672119140625 0.673583984375 0.67431640625 0.676513671875 0.67724609375 0.6787109375 0.679443359375 0.679443359375 0.679443359375 0.679443359375 0.658203125 0.604736328125 0.531494140625 0.43994140625 0.256103515625 0.20263671875 0.185791015625 0.18212890625 0.18212890625 0.18212890625 0.18212890625 0.18212890625 0.18212890625 0.18212890625 0.18212890625 0.18212890625 0.18212890625 0.182861328125 0.184326171875 0.189453125 0.1923828125 0.1953125 0.1982421875 0.200439453125 0.20263671875 0.20263671875 0.20263671875 0.196044921875 0.182861328125 0.14697265624999994 0.13671874999999994 0.13671874999999994 0.13598632812499994,0.8291015625 0.8291015625 0.8291015625 0.828125 0.8271484375 0.8232421875 0.8173828125 0.8076171875 0.783203125 0.767578125 0.734375 0.71875 0.6962890625 0.6689453125 0.6474609375 0.6328125 0.6328125 0.6328125 0.6328125 0.6328125 0.6328125 0.6328125 0.6328125 0.6328125 0.6328125 0.6318359375 0.6318359375 0.634765625 0.63671875 0.63671875 0.5576171875 0.4521484375 0.3310546875 0.216796875 0.1337890625 0.06640625 0.0595703125 0.0576171875 0.0556640625 0.0556640625 0.0556640625 0.0556640625 0.056640625 0.056640625 0.05859375 0.0595703125 0.060546875 0.060546875 0.060546875 0.0615234375 0.0625 0.0625 0.05078125 0.0400390625 0.0361328125 0.044921875 0.0537109375 0.0517578125 0.0517578125 0.0517578125 0.0517578125 0.0517578125 0.0517578125 0.0517578125 0.0517578125 0.0517578125 0.0517578125 0.0537109375 0.056640625 0.060546875 0.078125 0.0888671875 0.1005859375 0.1142578125 0.126953125 0.1337890625 0.1337890625 0.1337890625 0.1279296875 0.119140625 0.111328125 0.111328125 0.111328125 0.111328125,450.40000000002334 470.40000000002334 490.40000000002334 510.40000000002334 530.4000000000234 550.4000000000234 570.4000000000233 590.4000000000233 610.4000000000233 630.4000000000233 650.4000000000233 670.4000000000233 690.4000000000232 710.4000000000232 730.4000000000232 750.4000000000232 770.4000000000232 790.4000000000232 810.4000000000232 830.4000000000232 850.4000000000232 870.4000000000232 890.4000000000232 910.4000000000232 930.4000000000232 950.4000000000232 970.4000000000232 990.4000000000232 1010.4000000000232 1030.4000000000233 1050.4000000000233 1070.4000000000233 1090.4000000000233 1110.4000000000233 1130.4000000000233 1150.4000000000233 1170.4000000000233 1190.4000000000233 1210.4000000000233 1230.4000000000233 1250.4000000000233 1270.4000000000233 1290.4000000000233 1310.4000000000233 1330.4000000000233 1350.4000000000233 1370.4000000000233 1390.4000000000233 1410.4000000000233 1430.4000000000233 1450.4000000000233 1470.4000000000233 1490.4000000000233 1510.4000000000233 1530.4000000000233 1550.4000000000233 1570.4000000000233 1590.4000000000233 1610.4000000000233 1630.4000000000233 1650.4000000000233 1670.4000000000233 1690.4000000000233 1710.4000000000233 1730.4000000000233 1750.4000000000233 1770.4000000000233 1790.4000000000233 1810.4000000000235 1830.4000000000235 1850.4000000000235 1870.4000000000235 1890.4000000000235 1910.4000000000235 1930.4000000000235 1950.4000000000235 1970.4000000000235 1990.4000000000235 2010.4000000000235 2030.4000000000235 2050.4000000000233 2070.4000000000233 2090.4000000000233 2110.4000000000233
cb_01,37.0,enc_trial,stim,response,Miami trip,1093.8000000476604,enc_trial,1.0,37.0,t_m_19_2,travel_Miami,fold-b,surfboard,1.0,unique,far,paired,t_m_19_2.jpg,Miami,travel-b1,Iceland trip,Miami trip,sub-30,1.0,1.0,1.0,1.0,0.510986328125 0.534423828125 0.57470703125 0.6259765625 0.685302734375 0.729248046875 0.7578124999999999 0.7592773437499999 0.7592773437499999 0.7592773437499999 0.7563476562499999 0.73583984375 0.728515625 0.723388671875 0.723388671875 0.721923828125 0.721923828125 0.721923828125 0.728515625 0.745361328125 0.7731933593749999 0.8574218749999999 0.8793945312499999 0.8911132812499999 0.8933105468749999 0.8940429687499999,0.7705078125 0.6904296875 0.5810546875 0.4609375 0.34765625 0.267578125 0.2255859375 0.2236328125 0.2216796875 0.2216796875 0.2177734375 0.212890625 0.212890625 0.212890625 0.212890625 0.212890625 0.212890625 0.212890625 0.2177734375 0.21875 0.21875 0.21484375 0.20703125 0.2001953125 0.1982421875 0.1982421875,533.0999999999766 553.0999999999766 573.0999999999766 593.0999999999766 613.0999999999766 633.0999999999766 653.0999999999766 673.0999999999766 693.0999999999766 713.0999999999766 733.0999999999766 753.0999999999766 773.0999999999766 793.0999999999766 813.0999999999766 833.0999999999766 853.0999999999766 873.0999999999766 893.0999999999766 913.0999999999766 933.0999999999766 953.0999999999766 973.0999999999766 993.0999999999766 1013.0999999999766 1033.0999999999767
cb_01,38.0,enc_trial,stim,response,Miami trip,966.0999999523046,enc_trial,1.0,38.0,t_s_06_2,travel_shared,fold-b,luggage,1.0,competing,far,paired,t_s_06_2.jpg,,travel-b1,Iceland trip,Miami trip,sub-30,1.0,1.0,0.0,0.0,0.494140625 0.5 0.509521484375 0.521240234375 0.537353515625 0.5703125 0.58349609375 0.594482421875 0.603271484375 0.609130859375 0.61572265625 0.645751953125 0.6787109375 0.72412109375 0.7761230468749999 0.8479003906249999 0.8596191406249999 0.8632812499999999 0.8647460937499999,0.7919921875 0.765625 0.7236328125 0.6552734375 0.578125 0.4248046875 0.3544921875 0.30859375 0.2705078125 0.2568359375 0.24609375 0.2216796875 0.2041015625 0.1875 0.177734375 0.173828125 0.173828125 0.173828125 0.173828125,399.7999999999884 419.7999999999884 439.7999999999884 459.7999999999884 479.7999999999884 499.7999999999884 519.7999999999884 539.7999999999884 559.7999999999884 579.7999999999884 599.7999999999884 619.7999999999884 639.7999999999884 659.7999999999884 679.7999999999884 699.7999999999884 719.7999999999884 739.7999999999884 759.7999999999884
