Current Spreadsheet,Trial Number,Display,Screen,Response Type,Response,Reaction Time,display,block,block_trial,stimulus_id,expected_goal,fold,stimulus_name,c_group,condition,within_block_dist,paired_status,stimulus_path,expected_location,block_split,respStim_1,respStim_2,sub_label,acc,both_enc_acc,assoc_stim1_acc,assoc_stim2_acc,x_pos,y_pos,time_trajectories
cb_07,1.0,enc_trial,stim,response,Miami trip,1345.100000000748,enc_trial,1.0,1.0,t_s_02_1,travel_shared,fold-b,water bottle,7.0,competing,far,paired,t_s_02_1.jpg,,travel-b1,Iceland trip,Miami trip,sub-48,1.0,1.0,0.0,0.0,0.5070385818561001 0.5039103232533889 0.4992179353493222 0.4874869655891554 0.4710636079249218 0.4397810218978102 0.4327424400417101 0.4358706986444213 0.4577685088633994 0.4859228362877998 0.5969760166840459 0.6540667361835245 0.7533889468196038 0.8104796663190824 0.8433263816475496 0.8605318039624609 0.8605318039624609 0.8605318039624609 0.8605318039624609 0.8605318039624609 0.8605318039624609 0.8605318039624609 0.8605318039624609,0.8383733055265902 0.8373305526590198 0.8269030239833159 0.7904066736183525 0.7403545359749739 0.6308654848800834 0.5891553701772679 0.5036496350364963 0.4525547445255474 0.40563086548488 0.30239833159541185 0.26903023983315955 0.22210636079249213 0.2022940563086548 0.18873826903023985 0.1814389989572472 0.1814389989572472 0.18039624608967675 0.18039624608967675 0.18039624608967675 0.17935349322210636 0.17935349322210636 0.17831074035453598,415.40000000000884 435.40000000000884 455.40000000000884 475.40000000000884 495.40000000000884 515.4000000000088 535.4000000000088 555.4000000000088 575.4000000000087 595.4000000000087 615.4000000000087 635.4000000000087 655.4000000000087 675.4000000000087 695.4000000000087 715.4000000000087 735.4000000000087 755.4000000000087 775.4000000000087 795.4000000000087 815.4000000000087 835.4000000000087 855.4000000000087
cb_07,2.0,enc_trial,stim,response,Miami trip,1153.8999999999942,enc_trial,1.0,2.0,t_s_18_1,travel_shared,fold-a,first aid kit,7.0,competing,close,paired,t_s_18_1.jpg,,travel-b1,Iceland trip,Miami trip,sub-48,1.0,1.0,1.0,1.0,0.4992179353493222 0.5023461939520334 0.5070385818561001 0.5086027111574557 0.5132950990615224 0.5242440041710115 0.5375391032325338 0.5453597497393118 0.5656934306569343 0.5868091762252347 0.6712721584984359 0.7260166840458812 0.8003128258602711 0.8339416058394161 0.8667883211678833 0.9004171011470282 0.9004171011470282 0.901199165797706 0.9066736183524504 0.9137122002085506 0.9262252346193952 0.9324817518248176 0.9356100104275288 0.9363920750782064 0.9363920750782064 0.9340458811261731 0.9270072992700732 0.9199687174139728 0.9160583941605841 0.9137122002085506 0.9098018769551616,0.8425443169968717 0.8342022940563086 0.8300312825860271 0.8227320125130344 0.8143899895724713 0.7758081334723671 0.7205422314911366 0.6850886339937434 0.6152241918665277 0.5610010427528676 0.3753910323253389 0.2679874869655892 0.1438998957247133 0.10323253388946818 0.07090719499478626 0.05005213764337857 0.05005213764337857 0.049009384775808185 0.049009384775808185 0.049009384775808185 0.049009384775808185 0.049009384775808185 0.05005213764337857 0.05213764337851934 0.055265901981230485 0.0615224191866528 0.07090719499478626 0.0813347236704901 0.0886339937434828 0.09280500521376434 0.09906152241918664,531.2999999999884 551.2999999999884 571.2999999999884 591.2999999999884 611.2999999999884 631.2999999999884 651.2999999999884 671.2999999999884 691.2999999999884 711.2999999999884 731.2999999999884 751.2999999999884 771.2999999999884 791.2999999999884 811.2999999999884 831.2999999999884 851.2999999999884 871.2999999999884 891.2999999999884 911.2999999999884 931.2999999999884 951.2999999999884 971.2999999999884 991.2999999999884 1011.2999999999884 1031.2999999999884 1051.2999999999884 1071.2999999999884 1091.2999999999884 1111.2999999999884 1131.2999999999886
cb_07,3.0,enc_trial,stim,response,Miami trip,1126.3000000007448,enc_trial,1.0,3.0,t_s_06_1,travel_shared,fold-b,luggage,7.0,competing,far,paired,t_s_06_1.jpg,,travel-b1,Iceland trip,Miami trip,sub-48,1.0,1.0,1.0,1.0,0.5203336809176226 0.5242440041710115 0.5297184567257561 0.5359749739311783 0.5422314911366006 0.5602189781021898 0.57429614181439 0.5915015641293013 0.6094890510948905 0.6345151199165797 0.6986444212721585 0.7314911366006256 0.7659019812304484 0.7846715328467153 0.8128258602711158 0.8448905109489052 0.8542752867570387 0.8550573514077164 0.8550573514077164 0.8550573514077164 0.8613138686131387 0.8691345151199167 0.8761730969760168 0.8793013555787279 0.8816475495307613 0.8839937434827947 0.8839937434827947,0.8279457768508863 0.8143899895724713 0.8039624608967675 0.7904066736183525 0.7768508863399375 0.748696558915537 0.7309697601668405 0.7059436913451512 0.6746611053180396 0.635036496350365 0.4984358706986444 0.4171011470281544 0.3211678832116789 0.2596454640250261 0.1772679874869656 0.09697601668404587 0.08446298227320126 0.08342022940563087 0.08342022940563087 0.08342022940563087 0.0886339937434828 0.09593326381647548 0.10740354535974972 0.11783107403545355 0.12513034410844626 0.1355578727841501 0.13764337851929098,564.6000000000057 584.6000000000057 604.6000000000057 624.6000000000057 644.6000000000057 664.6000000000057 684.6000000000057 704.6000000000058 724.6000000000058 744.6000000000058 764.6000000000058 784.6000000000058 804.6000000000058 824.6000000000058 844.6000000000058 864.6000000000058 884.6000000000058 904.6000000000056 924.6000000000056 944.6000000000056 964.6000000000056 984.6000000000056 1004.6000000000056 1024.6000000000058 1044.6000000000058 1064.6000000000058 1084.6000000000058
cb_07,4.0,enc_trial,stim,response,Iceland trip,1528.1999999999825,enc_trial,1.0,4.0,t_i_11_2,travel_Iceland,fold-d,headlamp,7.0,unique,far,paired,t_i_11_2.jpg,Iceland,travel-b1,Iceland trip,Miami trip,sub-48,1.0,1.0,1.0,1.0,0.5031282586027112 0.5031282586027112 0.5031282586027112 0.5039103232533889 0.5062565172054223 0.5132950990615224 0.5203336809176226 0.5297184567257561 0.5383211678832117 0.5492700729927007 0.5578727841501564 0.559436913451512 0.5610010427528676 0.5617831074035453 0.5617831074035453 0.5617831074035453 0.5617831074035453 0.5617831074035453 0.5617831074035453 0.5617831074035453 0.5617831074035453 0.5633472367049009 0.5649113660062565 0.5680396246089676 0.5711678832116788 0.5750782064650678 0.5766423357664233 0.578206465067779 0.578206465067779 0.5789885297184567 0.5797705943691345 0.5805526590198123 0.5805526590198123 0.5805526590198123 0.5805526590198123 0.5805526590198123 0.5805526590198123 0.5805526590198123 0.5805526590198123 0.5805526590198123 0.5805526590198123 0.5805526590198123 0.5805526590198123 0.5641293013555787 0.5484880083420229 0.4343065693430657 0.3881647549530761 0.32716371220020857 0.30604796663190825 0.29118873826903025 0.2888425443169969 0.2755474452554745 0.2614702815432743 0.2434827945776851 0.2098540145985401 0.19655891553701774 0.1910844629822732 0.18717413972888428 0.1863920750782065 0.18169968717413976 0.18013555787278418 0.1785714285714286 0.1785714285714286 0.1785714285714286 0.1762252346193952 0.17387904066736184 0.1707507820646507 0.1707507820646507,0.8237747653806048 0.8102189781021898 0.799791449426486 0.7904066736183525 0.7768508863399375 0.7539103232533889 0.7413972888425443 0.7226277372262774 0.7049009384775808 0.6850886339937434 0.6663190823774765 0.6611053180396247 0.656934306569343 0.6558915537017727 0.6548488008342023 0.6548488008342023 0.6538060479666319 0.6538060479666319 0.6538060479666319 0.6538060479666319 0.6538060479666319 0.6454640250260688 0.6402502606882169 0.6319082377476538 0.6256517205422315 0.6173096976016684 0.6131386861313868 0.6110531803962459 0.6089676746611052 0.6079249217935351 0.6047966631908237 0.6037539103232534 0.6037539103232534 0.6037539103232534 0.6037539103232534 0.6037539103232534 0.6037539103232534 0.6037539103232534 0.6037539103232534 0.6037539103232534 0.6037539103232534 0.6016684045881127 0.5933263816475496 0.5630865484880083 0.543274244004171 0.4275286757038582 0.3826903023983316 0.3190823774765381 0.2992700729927007 0.2732012513034411 0.2659019812304484 0.2367049009384776 0.21376433785192905 0.1835245046923879 0.1438998957247133 0.13242961418143895 0.1282586027111574 0.12513034410844626 0.12304483837330547 0.11991657977059432 0.11887382690302395 0.11887382690302395 0.11887382690302395 0.11887382690302395 0.12304483837330547 0.12617309697601664 0.13138686131386856 0.13242961418143895,83.09999999999127 103.09999999999128 123.09999999999128 143.0999999999913 163.0999999999913 183.09999999999127 203.09999999999127 223.09999999999127 243.09999999999127 263.09999999999127 283.09999999999127 303.09999999999127 323.09999999999127 343.09999999999127 363.0999999999912 383.0999999999912 403.0999999999912 423.0999999999912 443.0999999999912 463.0999999999912 483.0999999999912 503.0999999999912 523.0999999999913 543.0999999999913 563.0999999999913 583.0999999999913 603.0999999999913 623.0999999999913 643.0999999999913 663.0999999999913 683.0999999999913 703.0999999999913 723.0999999999913 743.0999999999913 763.0999999999913 783.0999999999913 803.0999999999913 823.0999999999913 843.0999999999913 863.0999999999913 883.0999999999913 903.0999999999913 923.0999999999913 943.0999999999913 963.0999999999913 983.0999999999913 1003.0999999999913 1023.0999999999913 1043.0999999999913 1063.0999999999913 1083.0999999999913 1103.0999999999913 1123.0999999999913 1143.0999999999913 1163.0999999999913 1183.0999999999913 1203.0999999999913 1223.0999999999913 1243.0999999999913 1263.0999999999913 1283.0999999999913 1303.0999999999913 1323.0999999999913 1343.0999999999913 1363.0999999999913 1383.099999999991 1403.099999999991 1423.099999999991
cb_07,5.0,enc_trial,stim,response,Iceland trip,1257.3000000014872,enc_trial,1.0,5.0,t_s_18_2,travel_shared,fold-a,first aid kit,7.0,competing,close,paired,t_s_18_2.jpg,,travel-b1,Iceland trip,Miami trip,sub-48,1.0,1.0,1.0,1.0,0.4992179353493222 0.496089676746611 0.4929614181438999 0.489051094890511 0.4859228362877998 0.4726277372262774 0.4632429614181439 0.4452554744525548 0.42179353493222105 0.4022419186652763 0.3545359749739312 0.3334202294056309 0.3029197080291971 0.2802398331595412 0.26225234619395205 0.23488008342022945 0.23331595411887385 0.23331595411887385 0.23331595411887385 0.23331595411887385 0.2309697601668405 0.2231491136600625 0.21063607924921804 0.19186652763295106 0.16605839416058396 0.15980187695516165 0.15901981230448387 0.15823774765380608 0.15354535974973932 0.15198123044838374 0.14963503649635038,0.8269030239833159 0.8185610010427529 0.8091762252346194 0.8008342022940563 0.7935349322210636 0.7685088633993744 0.7518248175182481 0.7257559958289885 0.6923879040667362 0.6642335766423357 0.5985401459854014 0.5703858185610011 0.5224191866527632 0.4734098018769552 0.42648592283628783 0.3128258602711157 0.28988529718456724 0.2857142857142857 0.28154327424400416 0.2794577685088634 0.2659019812304484 0.24921793534932224 0.2346193952033369 0.21584984358706985 0.19916579770594367 0.19395203336809166 0.19290928050052136 0.1908237747653806 0.1814389989572472 0.17831074035453598 0.17413972888425444,647.6999999999971 667.6999999999971 687.6999999999971 707.6999999999971 727.6999999999971 747.6999999999971 767.6999999999971 787.6999999999971 807.6999999999971 827.6999999999971 847.6999999999971 867.6999999999971 887.6999999999971 907.6999999999972 927.6999999999972 947.6999999999972 967.6999999999972 987.6999999999972 1007.6999999999972 1027.6999999999969 1047.6999999999969 1067.6999999999969 1087.6999999999969 1107.6999999999969 1127.6999999999969 1147.6999999999969 1167.6999999999969 1187.6999999999969 1207.6999999999969 1227.6999999999969 1247.6999999999969
cb_07,6.0,enc_trial,stim,response,Miami trip,1159.4000000022352,enc_trial,1.0,6.0,t_m_10_1,travel_Miami,fold-e-single,tanktop,7.0,unique,,single,t_m_10_1.jpg,Miami,travel-b1,Iceland trip,Miami trip,sub-48,1.0,,1.0,,0.5234619395203337 0.5234619395203337 0.5234619395203337 0.5234619395203337 0.5234619395203337 0.5234619395203337 0.5234619395203337 0.5234619395203337 0.5234619395203337 0.5234619395203337 0.5234619395203337 0.5234619395203337 0.5234619395203337 0.5234619395203337 0.5234619395203337 0.5234619395203337 0.5234619395203337 0.5234619395203337 0.5234619395203337 0.5234619395203337 0.5234619395203337 0.5234619395203337 0.5234619395203337 0.5234619395203337 0.5234619395203337 0.5234619395203337 0.5234619395203337 0.5234619395203337 0.5234619395203337 0.5211157455683003 0.5078206465067779 0.5062565172054223 0.5156412930135558 0.5547445255474452 0.5891553701772679 0.7127215849843587 0.8034410844629823 0.94577685088634 0.9848800834202296 1.0036496350364963 1.005213764337852 1.0028675703858183 0.9989572471324296 0.9934827945776852 0.9887904066736184 0.9762773722627738 0.9645464025026068 0.9520333680917624 0.9348279457768508 0.9144942648592284 0.9144942648592284 0.9144942648592284 0.9144942648592284 0.9137122002085506 0.9129301355578728,0.8613138686131387 0.8613138686131387 0.8602711157455682 0.8602711157455682 0.8602711157455682 0.8602711157455682 0.8602711157455682 0.8602711157455682 0.8602711157455682 0.8602711157455682 0.8602711157455682 0.8602711157455682 0.8602711157455682 0.8602711157455682 0.8602711157455682 0.8602711157455682 0.8602711157455682 0.8602711157455682 0.8602711157455682 0.8602711157455682 0.8602711157455682 0.8602711157455682 0.8602711157455682 0.8602711157455682 0.8602711157455682 0.8602711157455682 0.8602711157455682 0.8581856100104275 0.8498435870698644 0.8394160583941606 0.7893639207507821 0.7695516162669447 0.7309697601668405 0.667361835245047 0.6287799791449427 0.5067778936392076 0.4139728884254432 0.2732012513034411 0.2367049009384776 0.21480709071949944 0.20750782064650675 0.2043795620437956 0.2022940563086548 0.20020855057351405 0.19812304483837329 0.1960375391032325 0.19499478623566213 0.19290928050052136 0.19290928050052136 0.1897810218978102 0.1897810218978102 0.1897810218978102 0.1897810218978102 0.18769551616266944 0.1835245046923879,49.80000000000291 69.80000000000291 89.8000000000029 109.80000000000292 129.8000000000029 149.8000000000029 169.8000000000029 189.8000000000029 209.8000000000029 229.8000000000029 249.8000000000029 269.8000000000029 289.80000000000285 309.80000000000285 329.80000000000285 349.8000000000029 369.8000000000029 389.8000000000029 409.8000000000029 429.8000000000029 449.8000000000029 469.8000000000029 489.8000000000029 509.8000000000029 529.8000000000029 549.8000000000029 569.8000000000029 589.8000000000029 609.8000000000029 629.8000000000029 649.8000000000029 669.8000000000029 689.8000000000029 709.8000000000029 729.8000000000029 749.8000000000029 769.8000000000029 789.8000000000029 809.8000000000029 829.8000000000029 849.8000000000029 869.8000000000029 889.8000000000029 909.8000000000028 929.8000000000028 949.8000000000028 969.8000000000028 989.8000000000028 1009.8000000000028 1029.8000000000031 1049.8000000000031 1069.8000000000031 1089.8000000000031 1109.8000000000031 1129.8000000000031
cb_07,7.0,enc_trial,stim,response,Iceland trip,1654.9000000022352,enc_trial,1.0,7.0,t_s_21_1,travel_shared,fold-b,umbrella,7.0,competing,far,paired,t_s_21_1.jpg,,travel-b1,Iceland trip,Miami trip,sub-48,1.0,1.0,1.0,1.0,0.5508342022940563 0.5492700729927007 0.5469238790406673 0.5461418143899895 0.5453597497393118 0.544577685088634 0.544577685088634 0.544577685088634 0.544577685088634 0.5414494264859229 0.5289363920750783 0.5218978102189781 0.5062565172054223 0.4968717413972889 0.4906152241918666 0.4921793534932221 0.5226798748696558 0.5492700729927007 0.5875912408759124 0.6399895724713243 0.7619916579770594 0.7948383733055265 0.8183003128258604 0.8315954118873827 0.8464546402502607 0.8488008342022941 0.8488008342022941 0.8488008342022941 0.8488008342022941 0.8480187695516164 0.7987486965589156 0.7314911366006256 0.600104275286757 0.4507299270072993 0.32794577685088633 0.19343065693430656 0.18717413972888428 0.18717413972888428 0.18717413972888428 0.18717413972888428 0.18717413972888428 0.18717413972888428 0.18717413972888428 0.18717413972888428 0.18717413972888428 0.18717413972888428 0.18717413972888428 0.18717413972888428 0.18717413972888428 0.18717413972888428 0.18717413972888428 0.18717413972888428 0.18326381647549533 0.18169968717413976 0.1777893639207508 0.177007299270073,0.8342022940563086 0.8300312825860271 0.8258602711157456 0.8227320125130344 0.8185610010427529 0.8164754953076121 0.8164754953076121 0.8164754953076121 0.8143899895724713 0.7987486965589156 0.7685088633993744 0.7528675703858185 0.7153284671532847 0.6861313868613139 0.6611053180396247 0.5995828988529719 0.5213764337851929 0.4796663190823775 0.4337851929092805 0.3806047966631908 0.2648592283628781 0.2314911366006257 0.20750782064650675 0.18769551616266944 0.16788321167883213 0.16058394160583944 0.16058394160583944 0.16058394160583944 0.16058394160583944 0.1574556830031283 0.14077163712200216 0.12617309697601664 0.11366006256517205 0.10531803962460896 0.10531803962460896 0.10948905109489047 0.11157455683003126 0.11157455683003126 0.11157455683003126 0.11157455683003126 0.11261730969760166 0.11261730969760166 0.11261730969760166 0.11261730969760166 0.11261730969760166 0.11261730969760166 0.11261730969760166 0.11261730969760166 0.11261730969760166 0.11261730969760166 0.11261730969760166 0.11261730969760166 0.11157455683003126 0.10948905109489047 0.1084462982273201 0.1084462982273201,548.3000000000029 568.3000000000029 588.3000000000029 608.3000000000029 628.3000000000029 648.3000000000029 668.3000000000029 688.3000000000029 708.3000000000029 728.3000000000029 748.3000000000029 768.3000000000029 788.3000000000029 808.3000000000029 828.3000000000029 848.3000000000029 868.3000000000029 888.3000000000029 908.3000000000028 928.3000000000028 948.3000000000028 968.3000000000028 988.3000000000028 1008.3000000000028 1028.3000000000031 1048.3000000000031 1068.3000000000031 1088.3000000000031 1108.3000000000031 1128.3000000000031 1148.3000000000031 1168.3000000000031 1188.3000000000031 1208.3000000000031 1228.3000000000031 1248.3000000000031 1268.3000000000031 1288.3000000000031 1308.3000000000031 1328.3000000000031 1348.3000000000031 1368.3000000000031 1388.3000000000031 1408.3000000000031 1428.3000000000031 1448.3000000000031 1468.3000000000031 1488.3000000000031 1508.3000000000031 1528.3000000000031 1548.3000000000031 1568.3000000000031 1588.3000000000031 1608.3000000000031 1628.3000000000031 1648.3000000000031
cb_07,8.0,enc_trial,stim,response,Miami trip,1161.899999999252,enc_trial,1.0,8.0,t_m_06_2,travel_Miami,fold-c,handheld fan,7.0,unique,close,paired,t_m_06_2.jpg,Miami,travel-b1,Iceland trip,Miami trip,sub-48,0.0,0.0,0.0,1.0,0.5516162669447341 0.5516162669447341 0.5516162669447341 0.5516162669447341 0.5516162669447341 0.5516162669447341 0.5516162669447341 0.5516162669447341 0.5516162669447341 0.5516162669447341 0.5516162669447341 0.5516162669447341 0.5516162669447341 0.5516162669447341 0.5516162669447341 0.5516162669447341 0.5516162669447341 0.5516162669447341 0.5516162669447341 0.5516162669447341 0.5516162669447341 0.5516162669447341 0.5516162669447341 0.5516162669447341 0.5516162669447341 0.5516162669447341 0.5516162669447341 0.5516162669447341 0.5516162669447341 0.5516162669447341 0.5516162669447341 0.5516162669447341 0.5516162669447341 0.5516162669447341 0.5516162669447341 0.5492700729927007 0.5477059436913452 0.5477059436913452 0.5500521376433786 0.5641293013555787 0.6900417101147028 0.763555787278415 0.8347236704900939 0.8824296141814391 0.9191866527632953 0.9301355578727842,0.8269030239833159 0.8269030239833159 0.8269030239833159 0.8269030239833159 0.8269030239833159 0.8279457768508863 0.8279457768508863 0.8279457768508863 0.8279457768508863 0.8279457768508863 0.8279457768508863 0.8279457768508863 0.8279457768508863 0.8279457768508863 0.8279457768508863 0.8279457768508863 0.8279457768508863 0.8279457768508863 0.8279457768508863 0.8279457768508863 0.8279457768508863 0.8279457768508863 0.8279457768508863 0.8279457768508863 0.8279457768508863 0.8279457768508863 0.8279457768508863 0.8279457768508863 0.8279457768508863 0.8279457768508863 0.8279457768508863 0.8279457768508863 0.8279457768508863 0.8279457768508863 0.8279457768508863 0.8164754953076121 0.7956204379562044 0.7653806047966631 0.7288842544316997 0.6850886339937434 0.4734098018769552 0.3607924921793535 0.2440041710114703 0.1710114702815433 0.11783107403545355 0.0948905109489051,33.09999999999127 53.099999999991276 73.09999999999127 93.09999999999128 113.09999999999128 133.0999999999913 153.0999999999913 173.09999999999127 193.09999999999127 213.09999999999127 233.09999999999127 253.09999999999127 273.09999999999127 293.09999999999127 313.09999999999127 333.09999999999127 353.0999999999912 373.0999999999912 393.0999999999912 413.0999999999912 433.0999999999912 453.0999999999912 473.0999999999912 493.0999999999912 513.0999999999913 533.0999999999913 553.0999999999913 573.0999999999913 593.0999999999913 613.0999999999913 633.0999999999913 653.0999999999913 673.0999999999913 693.0999999999913 713.0999999999913 733.0999999999913 753.0999999999913 773.0999999999913 793.0999999999913 813.0999999999913 833.0999999999913 853.0999999999913 873.0999999999913 893.0999999999913 913.0999999999913 933.0999999999913
cb_07,9.0,enc_trial,stim,response,Miami trip,1142.9999999992579,enc_trial,1.0,9.0,t_s_22_1,travel_shared,fold-a,belt,7.0,competing,close,paired,t_s_22_1.jpg,,travel-b1,Iceland trip,Miami trip,sub-48,1.0,1.0,0.0,0.0,0.5344108446298227 0.5344108446298227 0.5344108446298227 0.5344108446298227 0.5344108446298227 0.5344108446298227 0.5344108446298227 0.5344108446298227 0.5344108446298227 0.5344108446298227 0.5344108446298227 0.5344108446298227 0.5344108446298227 0.5344108446298227 0.5344108446298227 0.5344108446298227 0.5344108446298227 0.5344108446298227 0.5344108446298227 0.5344108446298227 0.5344108446298227 0.5344108446298227 0.5344108446298227 0.5344108446298227 0.5344108446298227 0.5344108446298227 0.5344108446298227 0.5344108446298227 0.5344108446298227 0.5344108446298227 0.5344108446298227 0.5344108446298227 0.5344108446298227 0.5344108446298227 0.5344108446298227 0.5344108446298227 0.5344108446298227 0.5351929092805006 0.5398852971845672 0.5563086548488009 0.6173096976016684 0.6517205422314911 0.6955161626694474 0.7377476538060479 0.7885818561001042 0.8409801876955162 0.8589676746611054 0.8597497393117832 0.8597497393117832 0.8597497393117832 0.8581856100104276 0.8581856100104276 0.8574035453597498 0.8566214807090721 0.8566214807090721,0.8123044838373306 0.8123044838373306 0.8123044838373306 0.8123044838373306 0.8123044838373306 0.8123044838373306 0.8123044838373306 0.8123044838373306 0.8123044838373306 0.8123044838373306 0.8123044838373306 0.8123044838373306 0.8123044838373306 0.8123044838373306 0.8123044838373306 0.8123044838373306 0.8123044838373306 0.8133472367049009 0.8133472367049009 0.8133472367049009 0.8154327424400417 0.8154327424400417 0.8154327424400417 0.8154327424400417 0.8154327424400417 0.8154327424400417 0.8154327424400417 0.8154327424400417 0.8154327424400417 0.8154327424400417 0.8154327424400417 0.8154327424400417 0.8154327424400417 0.8154327424400417 0.8154327424400417 0.8154327424400417 0.8154327424400417 0.8133472367049009 0.8060479666319083 0.7758081334723671 0.662148070907195 0.5985401459854014 0.5203336809176224 0.4369134515119917 0.3263816475495308 0.2367049009384776 0.1970802919708029 0.18769551616266944 0.17935349322210636 0.16684045881126175 0.1574556830031283 0.15432742440041713 0.15224191866527634 0.1491136600625652 0.14494264859228367,0.0 20.0 40.0 60.0 80.0 100.0 120.0 140.0 160.0 180.0 200.0 220.0 240.0 260.0 280.0 300.0 320.0 340.0 360.0 380.0 400.0 420.0 440.0 460.0 480.0 500.0 520.0 540.0 560.0 580.0 600.0 620.0 640.0 660.0 680.0 700.0 720.0 740.0 760.0 780.0 800.0 820.0 840.0 860.0 880.0 900.0 920.0 940.0 960.0 980.0 1000.0 1020.0 1040.0 1060.0 1080.0
cb_07,10.0,enc_trial,stim,response,Miami trip,1092.400000001493,enc_trial,1.0,10.0,t_m_03_1,travel_Miami,fold-c,wetsuit,7.0,unique,close,paired,t_m_03_1.jpg,Miami,travel-b1,Iceland trip,Miami trip,sub-48,0.0,0.0,1.0,0.0,0.5289363920750783 0.5344108446298227 0.5469238790406673 0.5711678832116788 0.6368613138686131 0.7330552659019812 0.8128258602711158 0.8284671532846716 0.8777372262773724 0.8894681960375391 0.8949426485922837 0.8949426485922837 0.8957247132429614 0.8957247132429614,0.8227320125130344 0.8112617309697602 0.7893639207507821 0.7466110531803962 0.635036496350365 0.4796663190823775 0.3399374348279458 0.3107403545359749 0.19499478623566213 0.1574556830031283 0.1220020855057351 0.1147028154327424 0.11261730969760166 0.11157455683003126,714.5 734.5 754.5 774.5 794.5 814.5 834.5 854.5 874.5 894.5 914.5 934.5 954.5 974.5
cb_07,11.0,enc_trial,stim,response,Iceland trip,1045.8000000000031,enc_trial,1.0,11.0,t_i_06_1,travel_Iceland,fold-d,knit hat,7.0,unique,far,paired,t_i_06_1.jpg,Iceland,travel-b1,Iceland trip,Miami trip,sub-48,1.0,1.0,1.0,1.0,0.5203336809176226 0.5203336809176226 0.5203336809176226 0.5203336809176226 0.5203336809176226 0.5203336809176226 0.5203336809176226 0.5203336809176226 0.5203336809176226 0.5203336809176226 0.5203336809176226 0.5203336809176226 0.5203336809176226 0.5203336809176226 0.5203336809176226 0.5203336809176226 0.5203336809176226 0.5203336809176226 0.5203336809176226 0.5289363920750783 0.5570907194994786 0.5860271115745568 0.6235662148070907 0.6884775808133472 0.7346193952033367 0.7651199165797706 0.7682481751824818 0.7682481751824818 0.7643378519290928 0.7440041710114703 0.5422314911366006 0.4820125130344109 0.3842544316996872 0.2778936392075078 0.1926485922836288 0.15119916579770595 0.15119916579770595 0.15119916579770595 0.15119916579770595 0.15119916579770595 0.15119916579770595 0.15119916579770595 0.15119916579770595 0.15119916579770595 0.15119916579770595 0.15119916579770595 0.15119916579770595 0.15119916579770595,0.8331595411887383 0.8331595411887383 0.8342022940563086 0.8342022940563086 0.8352450469238791 0.8362877997914494 0.8362877997914494 0.8362877997914494 0.8362877997914494 0.8362877997914494 0.8362877997914494 0.8362877997914494 0.8362877997914494 0.8362877997914494 0.8362877997914494 0.8362877997914494 0.8362877997914494 0.8362877997914494 0.8362877997914494 0.8133472367049009 0.7445255474452555 0.6704900938477579 0.583941605839416 0.4494264859228363 0.35766423357664234 0.3044838373305526 0.29718456725755993 0.2940563086548488 0.2857142857142857 0.26903023983315955 0.2314911366006257 0.2314911366006257 0.2314911366006257 0.2314911366006257 0.2314911366006257 0.2294056308654849 0.2294056308654849 0.2294056308654849 0.2294056308654849 0.2294056308654849 0.21584984358706985 0.2033368091762252 0.19916579770594367 0.19499478623566213 0.19395203336809166 0.1908237747653806 0.18561001042752867 0.1835245046923879,99.40000000000872 119.40000000000872 139.4000000000087 159.4000000000087 179.40000000000873 199.40000000000873 219.40000000000873 239.40000000000873 259.40000000000873 279.40000000000873 299.40000000000873 319.40000000000873 339.40000000000873 359.4000000000088 379.4000000000088 399.4000000000088 419.4000000000088 439.4000000000088 459.4000000000088 479.4000000000088 499.4000000000088 519.4000000000087 539.4000000000087 559.4000000000087 579.4000000000087 599.4000000000087 619.4000000000087 639.4000000000087 659.4000000000087 679.4000000000087 699.4000000000087 719.4000000000087 739.4000000000087 759.4000000000087 779.4000000000087 799.4000000000087 819.4000000000087 839.4000000000087 859.4000000000087 879.4000000000087 899.4000000000087 919.4000000000087 939.4000000000087 959.4000000000087 979.4000000000087 999.4000000000087 1019.4000000000087 1039.4000000000087
cb_07,12.0,enc_trial,stim,response,Iceland trip,1453.7999999992608,enc_trial,1.0,12.0,t_m_06_1,travel_Miami,fold-c,handheld fan,7.0,unique,close,paired,t_m_06_1.jpg,Miami,travel-b1,Iceland trip,Miami trip,sub-48,0.0,0.0,0.0,1.0,0.5109489051094891 0.5086027111574557 0.5070385818561001 0.5070385818561001 0.5172054223149114 0.5610010427528676 0.5735140771637122 0.6564129301355579 0.6853493222106359 0.7189781021897809 0.7533889468196038 0.7666840458811262 0.7721584984358707 0.7776329509906152 0.7815432742440042 0.7885818561001042 0.7893639207507821 0.7893639207507821 0.7893639207507821 0.7893639207507821 0.7924921793534933 0.7932742440041709 0.7870177267987487 0.7674661105318039 0.7346193952033367 0.6212200208550573 0.5218978102189781 0.3561001042752868 0.25443169968717416 0.1942127215849844 0.11757038581856102 0.11600625651720545,0.8383733055265902 0.8227320125130344 0.794577685088634 0.7580813347236705 0.6809176225234619 0.5610010427528676 0.5401459854014599 0.4223149113660063 0.3879040667361835 0.3524504692387904 0.3128258602711157 0.28988529718456724 0.2721584984358707 0.2554744525547445 0.2398331595411888 0.21584984358706985 0.21272158498435867 0.21272158498435867 0.21167883211678828 0.21167883211678828 0.2064650677789364 0.19916579770594367 0.17413972888425444 0.14807090719499486 0.12513034410844626 0.10636079249217932 0.10010427528675704 0.10010427528675704 0.10010427528675704 0.10010427528675704 0.1021897810218978 0.1021897810218978,514.9000000000087 534.9000000000087 554.9000000000087 574.9000000000087 594.9000000000087 614.9000000000087 634.9000000000087 654.9000000000087 674.9000000000087 694.9000000000087 714.9000000000087 734.9000000000087 754.9000000000087 774.9000000000087 794.9000000000087 814.9000000000087 834.9000000000087 854.9000000000087 874.9000000000087 894.9000000000087 914.9000000000087 934.9000000000087 954.9000000000087 974.9000000000087 994.9000000000087 1014.9000000000087 1034.9000000000087 1054.9000000000087 1074.9000000000087 1094.9000000000087 1114.9000000000087 1134.9000000000087
cb_07,13.0,enc_trial,stim,response,Iceland trip,1432.3000000015018,enc_trial,1.0,13.0,t_m_03_2,travel_Miami,fold-c,wetsuit,7.0,unique,close,paired,t_m_03_2.jpg,Miami,travel-b1,Iceland trip,Miami trip,sub-48,0.0,0.0,1.0,0.0,0.5156412930135558 0.5140771637122002 0.5125130344108446 0.5125130344108446 0.514859228362878 0.5328467153284672 0.5516162669447341 0.6040145985401459 0.7158498435870698 0.7596454640250261 0.815954118873827 0.8151720542231492 0.8042231491136601 0.7909280500521376 0.7416579770594369 0.5383211678832117 0.44056308654848797 0.3858185610010428 0.3553180396246089 0.3506256517205422 0.3506256517205422 0.3506256517205422 0.3396767466110532 0.33263816475495306 0.28493222106360794 0.17309697601668406 0.08941605839416061 0.025286757038581884 -0.0013034410844629525 -0.009906152241918636 -0.011470281543274214 -0.011470281543274214 -0.011470281543274214 -0.011470281543274214 -0.011470281543274214 -0.011470281543274214 -0.011470281543274214 -0.010688216892596424 0.00729927007299273 0.03623566214807093 0.07924921793534935 0.09645464025026072 0.1050573514077164 0.10662148070907196 0.10662148070907196 0.10662148070907196,0.8196037539103233 0.8175182481751825 0.8102189781021898 0.7956204379562044 0.7716371220020855 0.6996871741397288 0.6475495307612096 0.5401459854014599 0.3597497393117831 0.3003128258602711 0.2314911366006257 0.2231491136600625 0.21272158498435867 0.2033368091762252 0.18561001042752867 0.18039624608967675 0.18039624608967675 0.18769551616266944 0.19916579770594367 0.2043795620437956 0.21167883211678828 0.21167883211678828 0.2085505735140772 0.2064650677789364 0.1845672575599583 0.15224191866527634 0.12617309697601664 0.1011470281543274 0.09176225234619396 0.08654848800834203 0.08550573514077164 0.08446298227320126 0.08446298227320126 0.08446298227320126 0.08446298227320126 0.08446298227320126 0.08446298227320126 0.08446298227320126 0.09384775808133472 0.09697601668404587 0.10636079249217932 0.10948905109489047 0.11157455683003126 0.11157455683003126 0.11157455683003126 0.11261730969760166,515.0 535.0 555.0 575.0 595.0 615.0 635.0 655.0 675.0 695.0 715.0 735.0 755.0 775.0 795.0 815.0 835.0 855.0 875.0 895.0 915.0 935.0 955.0 975.0 995.0 1015.0 1035.0 1055.0 1075.0 1095.0 1115.0 1135.0 1155.0 1175.0 1195.0 1215.0 1235.0 1255.0 1275.0 1295.0 1315.0 1335.0 1355.0 1375.0 1395.0 1415.0
cb_07,14.0,enc_trial,stim,response,Iceland trip,1051.3000000015018,enc_trial,1.0,14.0,t_s_22_2,travel_shared,fold-a,belt,7.0,competing,close,paired,t_s_22_2.jpg,,travel-b1,Iceland trip,Miami trip,sub-48,1.0,1.0,0.0,0.0,0.5375391032325338 0.5375391032325338 0.5375391032325338 0.5375391032325338 0.5375391032325338 0.5375391032325338 0.5375391032325338 0.5375391032325338 0.5375391032325338 0.5375391032325338 0.5375391032325338 0.5375391032325338 0.5359749739311783 0.5344108446298227 0.5273722627737226 0.5023461939520334 0.4726277372262774 0.3795620437956204 0.306830031282586 0.23488008342022945 0.06986444212721588 0.0315432742440042 0.0166840458811262 0.011991657977059466 0.011209593326381677 0.008863399374348309 0.008863399374348309 0.008863399374348309 0.008863399374348309 0.010427528675703887 0.03623566214807093 0.0612617309697602 0.08863399374348283 0.12069864442127218 0.12460896767466112 0.12460896767466112 0.12460896767466112 0.12460896767466112 0.12460896767466112,0.8300312825860271 0.8300312825860271 0.8300312825860271 0.8300312825860271 0.8300312825860271 0.8300312825860271 0.8300312825860271 0.8300312825860271 0.8300312825860271 0.8300312825860271 0.8300312825860271 0.8300312825860271 0.8300312825860271 0.8279457768508863 0.8143899895724713 0.7622523461939521 0.7038581856100103 0.5370177267987487 0.4098018769551617 0.3076120959332638 0.13138686131386856 0.10010427528675704 0.08654848800834203 0.08029197080291972 0.07716371220020858 0.06673618352450472 0.06360792492179357 0.0615224191866528 0.05839416058394165 0.05109489051094896 0.04588112617309703 0.049009384775808185 0.05839416058394165 0.0750782064650678 0.07924921793534934 0.08029197080291972 0.0813347236704901 0.0813347236704901 0.08237747653806049,282.3000000000173 302.3000000000173 322.3000000000173 342.3000000000173 362.3000000000174 382.3000000000174 402.3000000000174 422.3000000000174 442.3000000000174 462.3000000000174 482.3000000000174 502.3000000000174 522.3000000000173 542.3000000000173 562.3000000000173 582.3000000000172 602.3000000000172 622.3000000000172 642.3000000000172 662.3000000000172 682.3000000000172 702.3000000000172 722.3000000000172 742.3000000000172 762.3000000000172 782.3000000000172 802.3000000000172 822.3000000000172 842.3000000000172 862.3000000000172 882.3000000000172 902.3000000000172 922.3000000000172 942.3000000000172 962.3000000000172 982.3000000000172 1002.3000000000172 1022.3000000000172 1042.3000000000177
cb_07,15.0,enc_trial,stim,response,Miami trip,927.7000000022236,enc_trial,1.0,15.0,t_m_05_1,travel_Miami,fold-d,sunscreen,7.0,unique,far,paired,t_m_05_1.jpg,Miami,travel-b1,Iceland trip,Miami trip,sub-48,0.0,0.0,1.0,1.0,0.5375391032325338 0.5375391032325338 0.5570907194994786 0.5907194994786236 0.644681960375391 0.7838894681960376 0.8362877997914495 0.8808654848800835 0.8879040667361836 0.8910323253388948 0.8871220020855058 0.886339937434828 0.8847758081334725 0.8847758081334725 0.8839937434827947 0.8800834202294057,0.8227320125130344 0.8123044838373306 0.7674661105318039 0.7174139728884255 0.6423357664233577 0.4379562043795621 0.3451511991657977 0.2523461939520334 0.2273201251303441 0.2064650677789364 0.19186652763295087 0.1897810218978102 0.18873826903023985 0.18769551616266944 0.18561001042752867 0.17935349322210636,597.8999999999943 617.8999999999943 637.8999999999943 657.8999999999943 677.8999999999943 697.8999999999942 717.8999999999942 737.8999999999942 757.8999999999942 777.8999999999942 797.8999999999942 817.8999999999942 837.8999999999942 857.8999999999942 877.8999999999942 897.8999999999942
cb_07,16.0,enc_trial,stim,response,Iceland trip,971.1000000007332,enc_trial,1.0,16.0,t_s_06_2,travel_shared,fold-b,luggage,7.0,competing,far,paired,t_s_06_2.jpg,,travel-b1,Iceland trip,Miami trip,sub-48,1.0,1.0,1.0,1.0,0.5046923879040668 0.5070385818561001 0.5070385818561001 0.5062565172054223 0.496089676746611 0.4069343065693431 0.33733055265901984 0.29118873826903025 0.19343065693430656 0.10192909280500524 0.05109489051094893 0.04953076120959336 0.04953076120959336 0.04953076120959336 0.04953076120959336 0.04953076120959336 0.04953076120959336 0.04953076120959336 0.050312825860271145 0.05891553701772681 0.08315954118873829 0.11757038581856102 0.1339937434827946 0.14025026068821692 0.1418143899895725 0.1418143899895725,0.8310740354535975 0.8175182481751825 0.8050052137643379 0.7747653806047967 0.7340980187695516 0.4963503649635036 0.35140771637122004 0.2742440041710115 0.15537017726798752 0.06360792492179357 0.01876955161626692 0.017726798748696537 0.017726798748696537 0.017726798748696537 0.017726798748696537 0.017726798748696537 0.017726798748696537 0.017726798748696537 0.01876955161626692 0.03232533889468192 0.060479666319082415 0.09071949947862357 0.10323253388946818 0.11053180396246087 0.11157455683003126 0.11366006256517205,465.19999999998254 485.19999999998254 505.19999999998254 525.1999999999825 545.1999999999825 565.1999999999825 585.1999999999825 605.1999999999825 625.1999999999825 645.1999999999825 665.1999999999825 685.1999999999825 705.1999999999824 725.1999999999824 745.1999999999824 765.1999999999824 785.1999999999824 805.1999999999824 825.1999999999824 845.1999999999824 865.1999999999824 885.1999999999824 905.1999999999823 925.1999999999823 945.1999999999823 965.1999999999823
cb_07,17.0,enc_trial,stim,response,Iceland trip,1067.2000000022238,enc_trial,1.0,17.0,t_i_14_1,travel_Iceland,fold-c,snow pants,7.0,unique,close,paired,t_i_14_1.jpg,Iceland,travel-b1,Iceland trip,Miami trip,sub-48,1.0,1.0,1.0,1.0,0.5218978102189781 0.5218978102189781 0.5218978102189781 0.5218978102189781 0.5218978102189781 0.5218978102189781 0.5218978102189781 0.5218978102189781 0.5218978102189781 0.5218978102189781 0.5211157455683003 0.5172054223149114 0.5125130344108446 0.5101668404588112 0.5070385818561001 0.5046923879040668 0.5046923879040668 0.5046923879040668 0.5046923879040668 0.514859228362878 0.5297184567257561 0.5320646506777894 0.5320646506777894 0.5125130344108446 0.4749739311783107 0.3451511991657977 0.27867570385818563 0.2114181438998957 0.18952033368091764 0.180917622523462 0.17544316996871742 0.17309697601668406 0.16840458811261733 0.16605839416058396 0.16527632950990614 0.16527632950990614 0.16527632950990614 0.16449426485922838 0.16449426485922838 0.16449426485922838,0.8133472367049009 0.8133472367049009 0.8154327424400417 0.8154327424400417 0.8164754953076121 0.8164754953076121 0.8164754953076121 0.8164754953076121 0.8164754953076121 0.8164754953076121 0.8164754953076121 0.8123044838373306 0.808133472367049 0.8039624608967675 0.8018769551616267 0.7914494264859229 0.7841501564129302 0.7695516162669447 0.7539103232533889 0.7174139728884255 0.6788321167883211 0.6579770594369134 0.635036496350365 0.5714285714285714 0.5015641293013555 0.3222106360792493 0.27632950990615224 0.24817518248175185 0.2398331595411888 0.2346193952033369 0.22210636079249213 0.2168925964546402 0.20542231491136606 0.19916579770594367 0.19916579770594367 0.19916579770594367 0.19812304483837329 0.1970802919708029 0.1960375391032325 0.19499478623566213,298.8999999999942 318.8999999999942 338.8999999999942 358.8999999999942 378.8999999999942 398.8999999999942 418.8999999999942 438.8999999999942 458.8999999999942 478.8999999999942 498.8999999999942 518.8999999999942 538.8999999999942 558.8999999999942 578.8999999999943 598.8999999999943 618.8999999999943 638.8999999999943 658.8999999999943 678.8999999999943 698.8999999999942 718.8999999999942 738.8999999999942 758.8999999999942 778.8999999999942 798.8999999999942 818.8999999999942 838.8999999999942 858.8999999999942 878.8999999999942 898.8999999999942 918.8999999999942 938.8999999999942 958.8999999999942 978.8999999999942 998.8999999999942 1018.8999999999942 1038.8999999999942 1058.8999999999942 1078.8999999999942
cb_07,18.0,enc_trial,stim,response,Iceland trip,978.6999999992547,enc_trial,1.0,18.0,t_s_02_2,travel_shared,fold-b,water bottle,7.0,competing,far,paired,t_s_02_2.jpg,,travel-b1,Iceland trip,Miami trip,sub-48,1.0,1.0,0.0,0.0,0.5281543274244004 0.5226798748696558 0.5164233576642335 0.5086027111574557 0.5054744525547445 0.5039103232533889 0.5031282586027112 0.4968717413972889 0.4827945776850887 0.4616788321167883 0.3670490093847758 0.2387904066736184 0.1856100104275287 0.14025026068821692 0.12226277372262775 0.10974973931178313 0.10974973931178313 0.10974973931178313 0.10974973931178313 0.10974973931178313 0.10974973931178313 0.10974973931178313 0.10974973931178313,0.8279457768508863 0.8164754953076121 0.8029197080291971 0.786235662148071 0.7820646506777893 0.7758081334723671 0.7726798748696558 0.7622523461939521 0.7424400417101147 0.7184567257559958 0.6027111574556829 0.4087591240875912 0.3253388946819604 0.2523461939520334 0.2168925964546402 0.1626694473409802 0.15328467153284675 0.15119916579770598 0.1491136600625652 0.1491136600625652 0.1491136600625652 0.14598540145985406 0.1438998957247133,465.0 485.0 505.0 525.0 545.0 565.0 585.0 605.0 625.0 645.0 665.0 685.0 705.0 725.0 745.0 765.0 785.0 805.0 825.0 845.0 865.0 885.0 905.0
cb_07,19.0,enc_trial,stim,response,Iceland trip,1360.3000000015018,enc_trial,1.0,19.0,t_i_11_1,travel_Iceland,fold-d,headlamp,7.0,unique,far,paired,t_i_11_1.jpg,Iceland,travel-b1,Iceland trip,Miami trip,sub-48,1.0,1.0,1.0,1.0,0.5320646506777894 0.5320646506777894 0.5312825860271115 0.5312825860271115 0.5312825860271115 0.5312825860271115 0.5281543274244004 0.5203336809176226 0.5117309697601669 0.4734098018769552 0.37017726798748696 0.31230448383733056 0.26929092805005217 0.221584984358707 0.20359749739311786 0.1910844629822732 0.1910844629822732 0.1910844629822732 0.1910844629822732 0.1910844629822732 0.1910844629822732 0.1910844629822732 0.1910844629822732 0.19186652763295106 0.19186652763295106 0.19186652763295106 0.19186652763295106 0.19186652763295106 0.19186652763295106 0.18952033368091764 0.1558915537017727 0.1410323253388947 0.1253910323253389 0.12148070907194995 0.12148070907194995 0.12069864442127218,0.8143899895724713 0.8123044838373306 0.8112617309697602 0.8112617309697602 0.8102189781021898 0.8102189781021898 0.8018769551616267 0.7851929092805006 0.7685088633993744 0.708029197080292 0.5526590198123045 0.4723670490093848 0.4098018769551617 0.33159541188738273 0.29614181438998954 0.26173096976016685 0.2606882168925965 0.2606882168925965 0.2606882168925965 0.2606882168925965 0.2606882168925965 0.2606882168925965 0.2606882168925965 0.26173096976016685 0.26173096976016685 0.26173096976016685 0.26173096976016685 0.26173096976016685 0.26173096976016685 0.2565172054223149 0.21376433785192905 0.19812304483837329 0.1814389989572472 0.17518248175182485 0.17309697601668406 0.17205422314911367,614.6000000000057 634.6000000000057 654.6000000000057 674.6000000000057 694.6000000000058 714.6000000000058 734.6000000000058 754.6000000000058 774.6000000000058 794.6000000000058 814.6000000000058 834.6000000000058 854.6000000000058 874.6000000000058 894.6000000000058 914.6000000000056 934.6000000000056 954.6000000000056 974.6000000000056 994.6000000000056 1014.6000000000056 1034.6000000000058 1054.6000000000058 1074.6000000000058 1094.6000000000058 1114.6000000000058 1134.6000000000058 1154.6000000000058 1174.6000000000058 1194.6000000000058 1214.6000000000058 1234.6000000000058 1254.6000000000058 1274.6000000000058 1294.6000000000058 1314.6000000000058
cb_07,20.0,enc_trial,stim,response,Miami trip,972.7999999999884,enc_trial,1.0,20.0,t_m_11_1,travel_Miami,fold-d,collapsible beach chair,7.0,unique,far,paired,t_m_11_1.jpg,Miami,travel-b1,Iceland trip,Miami trip,sub-48,1.0,1.0,1.0,1.0,0.5344108446298227 0.5305005213764338 0.5211157455683003 0.5078206465067779 0.496089676746611 0.4757559958289885 0.4757559958289885 0.5 0.5469238790406673 0.6063607924921793 0.7283628779979144 0.8018769551616267 0.8269030239833159 0.8370698644421273 0.8409801876955162 0.845672575599583 0.8480187695516164 0.8480187695516164 0.8488008342022941 0.8495828988529719 0.8495828988529719 0.8495828988529719 0.8503649635036497 0.8503649635036497 0.8519290928050053 0.8581856100104276 0.8589676746611054,0.8175182481751825 0.8091762252346194 0.7956204379562044 0.7778936392075078 0.7591240875912408 0.7038581856100103 0.6736183524504693 0.6058394160583942 0.5370177267987487 0.4681960375391032 0.3493222106360793 0.2825860271115745 0.2533889468196038 0.23566214807090724 0.22210636079249213 0.1960375391032325 0.1897810218978102 0.18665276329509906 0.18248175182481752 0.1772679874869656 0.17309697601668406 0.1710114702815433 0.16684045881126175 0.16162669447340985 0.1574556830031283 0.14702815432742444 0.14702815432742444,448.59999999997666 468.59999999997666 488.59999999997666 508.59999999997666 528.5999999999766 548.5999999999766 568.5999999999767 588.5999999999767 608.5999999999767 628.5999999999767 648.5999999999767 668.5999999999767 688.5999999999768 708.5999999999768 728.5999999999768 748.5999999999768 768.5999999999768 788.5999999999768 808.5999999999768 828.5999999999768 848.5999999999768 868.5999999999768 888.5999999999768 908.5999999999768 928.5999999999768 948.5999999999768 968.5999999999768
cb_07,21.0,enc_trial,stim,response,Miami trip,1119.0,enc_trial,1.0,21.0,t_s_12_1,travel_shared,fold-b,clear toiletry bag,7.0,competing,far,paired,t_s_12_1.jpg,,travel-b1,Iceland trip,Miami trip,sub-48,1.0,1.0,1.0,1.0,0.4953076120959333 0.4945255474452554 0.4929614181438999 0.4874869655891554 0.4827945776850887 0.4929614181438999 0.5078206465067779 0.5195516162669447 0.5336287799791449 0.5414494264859229 0.5578727841501564 0.5633472367049009 0.57429614181439 0.5828988529718456 0.5954118873826902 0.6493743482794577 0.6853493222106359 0.7416579770594369 0.7901459854014599 0.8198644421272159 0.8597497393117832 0.8620959332638165 0.8620959332638165 0.8620959332638165 0.8620959332638165 0.8628779979144944 0.8628779979144944 0.8613138686131387 0.8605318039624609 0.8581856100104276 0.8574035453597498 0.8574035453597498,0.8435870698644421 0.8279457768508863 0.8143899895724713 0.7924921793534933 0.7612095933263816 0.5797705943691345 0.497393117831074 0.4369134515119917 0.3847758081334723 0.3639207507820647 0.329509906152242 0.3201251303441085 0.30865484880083416 0.30239833159541185 0.2930135557872784 0.2711157455683003 0.26903023983315955 0.2669447340980188 0.2638164754953076 0.2596454640250261 0.2523461939520334 0.24921793534932224 0.24817518248175185 0.2471324296141815 0.2429614181439 0.2283628779979145 0.22002085505735136 0.21272158498435867 0.2022940563086548 0.19499478623566213 0.18769551616266944 0.1835245046923879,448.5 468.5 488.5 508.5 528.5 548.5 568.5 588.5 608.5 628.5 648.5 668.5 688.5 708.5 728.5 748.5 768.5 788.5 808.5 828.5 848.5 868.5 888.5 908.5 928.5 948.5 968.5 988.5 1008.5 1028.5 1048.5 1068.5
cb_07,22.0,enc_trial,stim,response,Iceland trip,1062.1000000000058,enc_trial,1.0,22.0,t_i_07_1,travel_Iceland,fold-e-single,hiking backpack,7.0,unique,,single,t_i_07_1.jpg,Iceland,travel-b1,Iceland trip,Miami trip,sub-48,1.0,,1.0,,0.5109489051094891 0.5070385818561001 0.5031282586027112 0.4992179353493222 0.4945255474452554 0.4788842544316997 0.4694994786235662 0.4648070907194995 0.4562043795620438 0.4562043795620438 0.4421272158498436 0.4084984358706987 0.3686131386861314 0.2833680917622524 0.20594369134515125 0.14963503649635038 0.14650677789363922 0.14650677789363922 0.14650677789363922 0.14650677789363922 0.14650677789363922 0.14650677789363922 0.14650677789363922 0.14650677789363922 0.14572471324296146 0.14494264859228365,0.8717413972888426 0.8675703858185608 0.8592283628779979 0.8519290928050052 0.8425443169968717 0.8091762252346194 0.7851929092805006 0.7622523461939521 0.6996871741397288 0.6412930135557873 0.5401459854014599 0.4494264859228363 0.3816475495307612 0.2992700729927007 0.24921793534932224 0.20750782064650675 0.2033368091762252 0.2022940563086548 0.2022940563086548 0.20125130344108444 0.20125130344108444 0.20125130344108444 0.20125130344108444 0.20020855057351405 0.19916579770594367 0.19395203336809166,548.1000000000058 568.1000000000057 588.1000000000057 608.1000000000057 628.1000000000057 648.1000000000057 668.1000000000057 688.1000000000058 708.1000000000058 728.1000000000058 748.1000000000058 768.1000000000058 788.1000000000058 808.1000000000058 828.1000000000058 848.1000000000058 868.1000000000058 888.1000000000058 908.1000000000058 928.1000000000058 948.1000000000058 968.1000000000058 988.1000000000058 1008.1000000000058 1028.1000000000058 1048.1000000000058
cb_07,23.0,enc_trial,stim,response,Miami trip,1028.2999999999884,enc_trial,1.0,23.0,t_s_21_2,travel_shared,fold-b,umbrella,7.0,competing,far,paired,t_s_21_2.jpg,,travel-b1,Iceland trip,Miami trip,sub-48,1.0,1.0,1.0,1.0,0.540667361835245 0.540667361835245 0.5422314911366006 0.5477059436913452 0.5492700729927007 0.5492700729927007 0.5492700729927007 0.5492700729927007 0.5492700729927007 0.5469238790406673 0.5469238790406673 0.5469238790406673 0.544577685088634 0.5422314911366006 0.5414494264859229 0.5391032325338895 0.5414494264859229 0.5828988529718456 0.6329509906152242 0.7267987486965589 0.8793013555787279 0.9363920750782064 0.9754953076120959 0.986444212721585 0.9911366006256518 0.9911366006256518 0.9903545359749741 0.9887904066736184 0.9848800834202296 0.9684567257559958 0.9324817518248176 0.9160583941605841 0.8972888425443171 0.8847758081334725 0.8769551616266945 0.8722627737226278 0.8722627737226278 0.8706986444212722 0.8706986444212722,0.8227320125130344 0.8216892596454641 0.8216892596454641 0.8258602711157456 0.8279457768508863 0.8279457768508863 0.8279457768508863 0.8279457768508863 0.8289885297184567 0.8331595411887383 0.8446298227320125 0.8477580813347236 0.8477580813347236 0.8456725755995829 0.8404588112617309 0.8164754953076121 0.7851929092805006 0.6996871741397288 0.616266944734098 0.4556830031282586 0.1960375391032325 0.1011470281543274 0.03753910323253384 0.017726798748696537 0.007299270072992692 0.004171011470281538 0.002085505735140769 0.0010427528675703843 0.0010427528675703843 0.0031282586027111536 0.02294056308654846 0.03649635036496346 0.056308654848800876 0.07090719499478626 0.08550573514077164 0.10427528675703857 0.11887382690302395 0.12721584984358705 0.1282586027111574,266.0 286.0 306.0 326.0 346.0 366.0 386.0 406.0 426.0 446.0 466.0 486.0 506.0 526.0 546.0 566.0 586.0 606.0 626.0 646.0 666.0 686.0 706.0 726.0 746.0 766.0 786.0 806.0 826.0 846.0 866.0 886.0 906.0 926.0 946.0 966.0 986.0 1006.0 1026.0
cb_07,24.0,enc_trial,stim,response,Iceland trip,927.5000000014844,enc_trial,1.0,24.0,t_i_14_2,travel_Iceland,fold-c,snow pants,7.0,unique,close,paired,t_i_14_2.jpg,Iceland,travel-b1,Iceland trip,Miami trip,sub-48,1.0,1.0,1.0,1.0,0.514859228362878 0.5132950990615224 0.5117309697601669 0.5086027111574557 0.5015641293013556 0.44290928050052136 0.4053701772679875 0.3693952033368092 0.28493222106360794 0.236444212721585 0.18795620437956206 0.1777893639207508 0.16918665276329511 0.1637122002085506 0.1574556830031283 0.1480709071949948 0.14572471324296146 0.14572471324296146 0.14494264859228365 0.14416058394160586 0.13946819603753913 0.13868613138686134,0.8331595411887383 0.8310740354535975 0.8279457768508863 0.8237747653806048 0.8164754953076121 0.7570385818561001 0.7205422314911366 0.6830031282586027 0.5557872784150156 0.4494264859228363 0.2773722627737226 0.23566214807090724 0.2085505735140772 0.19290928050052136 0.1814389989572472 0.16579770594369134 0.1626694473409802 0.1626694473409802 0.1626694473409802 0.16058394160583944 0.15328467153284675 0.15328467153284675,498.0 518.0 538.0 558.0 578.0 598.0 618.0 638.0 658.0 678.0 698.0 718.0 738.0 758.0 778.0 798.0 818.0 838.0 858.0 878.0 898.0 918.0
cb_07,25.0,enc_trial,stim,response,Miami trip,1153.4000000007507,enc_trial,1.0,25.0,t_s_04_1,travel_shared,fold-c-single,instant camera,7.0,competing,,single,t_s_04_1.jpg,,travel-b1,Iceland trip,Miami trip,sub-48,1.0,,1.0,,0.5461418143899895 0.5461418143899895 0.5461418143899895 0.5461418143899895 0.5461418143899895 0.5461418143899895 0.5461418143899895 0.5461418143899895 0.5461418143899895 0.5461418143899895 0.5461418143899895 0.5461418143899895 0.5437956204379562 0.5336287799791449 0.5070385818561001 0.3811261730969761 0.2880604796663191 0.24739311783107404 0.2239311783107404 0.20359749739311786 0.19499478623566216 0.1989051094890511 0.2122002085505736 0.2294056308654849 0.2888425443169969 0.41631908237747656 0.5649113660062565 0.6939520333680917 0.8620959332638165 0.9246611053180396 0.9887904066736184 0.9958289885297184 0.9966110531803964 0.9966110531803964 0.9966110531803964 0.9966110531803964 0.9966110531803964 0.9966110531803964 0.9950469238790408 0.9848800834202296 0.9051094890510948 0.8761730969760168 0.8644421272158499 0.8613138686131387,0.8383733055265902 0.8383733055265902 0.8394160583941606 0.8394160583941606 0.8394160583941606 0.8394160583941606 0.8404588112617309 0.8404588112617309 0.8404588112617309 0.8404588112617309 0.8404588112617309 0.8404588112617309 0.8404588112617309 0.8310740354535975 0.8133472367049009 0.7226277372262774 0.6412930135557873 0.5943691345151199 0.5578727841501564 0.5067778936392076 0.4087591240875912 0.3660062565172054 0.3388946819603754 0.3201251303441085 0.3055265901981229 0.3076120959332638 0.3076120959332638 0.29718456725755993 0.2648592283628781 0.2471324296141815 0.22002085505735136 0.21376433785192905 0.2085505735140772 0.2064650677789364 0.2043795620437956 0.19916579770594367 0.1970802919708029 0.1960375391032325 0.19186652763295087 0.1845672575599583 0.17935349322210636 0.17935349322210636 0.17935349322210636 0.17935349322210636,265.8000000000174 285.80000000001735 305.80000000001735 325.80000000001735 345.8000000000174 365.8000000000174 385.8000000000174 405.8000000000174 425.8000000000174 445.8000000000174 465.8000000000174 485.8000000000174 505.8000000000174 525.8000000000175 545.8000000000175 565.8000000000175 585.8000000000175 605.8000000000175 625.8000000000175 645.8000000000175 665.8000000000175 685.8000000000175 705.8000000000176 725.8000000000176 745.8000000000176 765.8000000000176 785.8000000000176 805.8000000000176 825.8000000000176 845.8000000000176 865.8000000000176 885.8000000000176 905.8000000000177 925.8000000000177 945.8000000000177 965.8000000000177 985.8000000000177 1005.8000000000177 1025.8000000000177 1045.8000000000177 1065.8000000000177 1085.8000000000177 1105.8000000000177 1125.8000000000177
cb_07,26.0,enc_trial,stim,response,Miami trip,1350.6000000014901,enc_trial,1.0,26.0,t_s_08_1,travel_shared,fold-a,hand lotion,7.0,competing,close,paired,t_s_08_1.jpg,,travel-b1,Iceland trip,Miami trip,sub-48,1.0,1.0,0.0,0.0,0.5555265901981229 0.5547445255474452 0.5539624608967675 0.5531803962460897 0.5531803962460897 0.5516162669447341 0.5563086548488009 0.5813347236704901 0.6525026068821689 0.7252346193952033 0.8167361835245047 0.8386339937434829 0.8566214807090721 0.8589676746611054 0.8597497393117832 0.8597497393117832 0.8597497393117832 0.8597497393117832 0.8597497393117832 0.8597497393117832 0.8597497393117832 0.8597497393117832 0.8597497393117832 0.8597497393117832 0.8597497393117832 0.8597497393117832 0.8597497393117832 0.8597497393117832 0.8597497393117832 0.8597497393117832 0.8597497393117832 0.8597497393117832 0.8597497393117832 0.8597497393117832 0.8597497393117832 0.8597497393117832 0.8605318039624609 0.8613138686131387 0.8613138686131387 0.8613138686131387,0.7987486965589156 0.7956204379562044 0.7935349322210636 0.7893639207507821 0.7810218978102191 0.7403545359749739 0.6840458811261731 0.5954118873826904 0.4389989572471325 0.3253388946819604 0.21480709071949944 0.18665276329509906 0.1564129301355579 0.14598540145985406 0.1366006256517206 0.12617309697601664 0.12513034410844626 0.12513034410844626 0.12513034410844626 0.12513034410844626 0.12513034410844626 0.12513034410844626 0.12513034410844626 0.12513034410844626 0.12513034410844626 0.12513034410844626 0.12513034410844626 0.12513034410844626 0.12513034410844626 0.12513034410844626 0.12513034410844626 0.12513034410844626 0.12513034410844626 0.12513034410844626 0.12513034410844626 0.12617309697601664 0.12721584984358705 0.12721584984358705 0.1282586027111574 0.1293013555787278,581.5 601.5 621.5 641.5 661.5 681.5 701.5 721.5 741.5 761.5 781.5 801.5 821.5 841.5 861.5 881.5 901.5 921.5 941.5 961.5 981.5 1001.5 1021.5 1041.5 1061.5 1081.5 1101.5 1121.5 1141.5 1161.5 1181.5 1201.5 1221.5 1241.5 1261.5 1281.5 1301.5 1321.5 1341.5 1361.5
cb_07,27.0,enc_trial,stim,response,Iceland trip,932.9000000022353,enc_trial,1.0,27.0,t_i_02_1,travel_Iceland,fold-e-single,scarf,7.0,unique,,single,t_i_02_1.jpg,Iceland,travel-b1,Iceland trip,Miami trip,sub-48,1.0,,1.0,,0.5031282586027112 0.5031282586027112 0.5031282586027112 0.5039103232533889 0.5039103232533889 0.5039103232533889 0.5039103232533889 0.5039103232533889 0.5039103232533889 0.5039103232533889 0.5039103232533889 0.5039103232533889 0.5039103232533889 0.5039103232533889 0.5039103232533889 0.5039103232533889 0.5039103232533889 0.5039103232533889 0.5039103232533889 0.4992179353493222 0.4468196037539103 0.4233576642335766 0.3858185610010428 0.35140771637122004 0.2943169968717414 0.22705943691345154 0.20046923879040668 0.17466110531803966 0.15510948905109492 0.15510948905109492 0.15510948905109492 0.1558915537017727 0.1558915537017727 0.1558915537017727,0.7893639207507821 0.7893639207507821 0.7893639207507821 0.7893639207507821 0.7893639207507821 0.7893639207507821 0.7893639207507821 0.7893639207507821 0.7893639207507821 0.7893639207507821 0.7893639207507821 0.7893639207507821 0.7893639207507821 0.7893639207507821 0.7893639207507821 0.7883211678832117 0.7789363920750783 0.7685088633993744 0.7559958289885297 0.7226277372262774 0.5755995828988529 0.5192909280500522 0.4296141814389989 0.3472367049009385 0.2554744525547445 0.19290928050052136 0.18039624608967675 0.16892596454640252 0.15954118873826906 0.15954118873826906 0.15954118873826906 0.15954118873826906 0.15954118873826906 0.16162669447340985,216.10000000000585 236.10000000000585 256.1000000000058 276.1000000000058 296.1000000000058 316.1000000000058 336.1000000000058 356.1000000000058 376.1000000000058 396.1000000000058 416.1000000000058 436.1000000000058 456.1000000000058 476.1000000000058 496.1000000000058 516.1000000000058 536.1000000000058 556.1000000000058 576.1000000000057 596.1000000000057 616.1000000000057 636.1000000000057 656.1000000000057 676.1000000000057 696.1000000000058 716.1000000000058 736.1000000000058 756.1000000000058 776.1000000000058 796.1000000000058 816.1000000000058 836.1000000000058 856.1000000000058 876.1000000000058
cb_07,28.0,enc_trial,stim,response,Iceland trip,885.9000000014785,enc_trial,1.0,28.0,t_i_06_2,travel_Iceland,fold-d,knit hat,7.0,unique,far,paired,t_i_06_2.jpg,Iceland,travel-b1,Iceland trip,Miami trip,sub-48,1.0,1.0,1.0,1.0,0.514859228362878 0.514859228362878 0.514859228362878 0.514859228362878 0.514859228362878 0.514859228362878 0.514859228362878 0.514859228362878 0.514859228362878 0.5140771637122002 0.5031282586027112 0.4749739311783107 0.455422314911366 0.4366527632950991 0.4131908237747654 0.2864963503649635 0.1996871741397289 0.14416058394160586 0.10974973931178313 0.09410844629822734 0.09332638164754956 0.09332638164754956 0.09332638164754956 0.09332638164754956 0.0972367049009385 0.09958289885297186 0.09958289885297186 0.10114702815432744 0.10114702815432744,0.8342022940563086 0.8342022940563086 0.8342022940563086 0.8342022940563086 0.8342022940563086 0.8342022940563086 0.8342022940563086 0.8342022940563086 0.8342022940563086 0.8310740354535975 0.8154327424400417 0.786235662148071 0.7653806047966631 0.7434827945776851 0.7122002085505735 0.5005213764337852 0.3618352450469239 0.2679874869655892 0.21272158498435867 0.1845672575599583 0.18039624608967675 0.18039624608967675 0.18039624608967675 0.18039624608967675 0.17831074035453598 0.17831074035453598 0.17831074035453598 0.1772679874869656 0.1762252346193952,298.8999999999942 318.8999999999942 338.8999999999942 358.8999999999942 378.8999999999942 398.8999999999942 418.8999999999942 438.8999999999942 458.8999999999942 478.8999999999942 498.8999999999942 518.8999999999942 538.8999999999942 558.8999999999942 578.8999999999943 598.8999999999943 618.8999999999943 638.8999999999943 658.8999999999943 678.8999999999943 698.8999999999942 718.8999999999942 738.8999999999942 758.8999999999942 778.8999999999942 798.8999999999942 818.8999999999942 838.8999999999942 858.8999999999942
cb_07,29.0,enc_trial,stim,response,Miami trip,1533.7000000022235,enc_trial,1.0,29.0,t_s_13_1,travel_shared,fold-c-single,contact lens case,7.0,competing,,single,t_s_13_1.jpg,,travel-b1,Iceland trip,Miami trip,sub-48,1.0,,1.0,,0.5164233576642335 0.5125130344108446 0.5086027111574557 0.496089676746611 0.4843587069864442 0.4296141814389989 0.3811261730969761 0.3169968717413973 0.3005735140771637 0.29118873826903025 0.27476538060479666 0.26303441084462986 0.25443169968717416 0.24739311783107404 0.2442648592283629 0.2427007299270073 0.2427007299270073 0.2427007299270073 0.2411366006256517 0.24035453597497394 0.2309697601668405 0.21063607924921804 0.19499478623566216 0.1777893639207508 0.177007299270073 0.1996871741397289 0.2716371220020855 0.4303962460896768 0.678310740354536 0.837851929092805 0.9942648592283628 0.9942648592283628 0.9934827945776852 0.9927007299270072 0.9927007299270072 0.9919186652763295 0.9919186652763295 0.9919186652763295 0.9919186652763295 0.9919186652763295 0.9919186652763295 0.9919186652763295 0.9856621480709072 0.9692387904066736 0.9559436913451512 0.9293534932221064 0.9262252346193952 0.9254431699687174 0.9254431699687174 0.9246611053180396 0.9223149113660064,0.8008342022940563 0.7956204379562044 0.7904066736183525 0.7726798748696558 0.7559958289885297 0.6517205422314911 0.5651720542231491 0.4400417101147028 0.3889468196037539 0.3534932221063608 0.2950990615224192 0.26277372262773724 0.2460896767466111 0.237747653806048 0.23566214807090724 0.2335766423357665 0.2335766423357665 0.2325338894681961 0.2325338894681961 0.2325338894681961 0.2283628779979145 0.2231491136600625 0.21897810218978087 0.21167883211678828 0.20959332638164752 0.19395203336809166 0.17935349322210636 0.16684045881126175 0.14702815432742444 0.12617309697601664 0.1084462982273201 0.1084462982273201 0.1084462982273201 0.1084462982273201 0.11157455683003126 0.11261730969760166 0.11261730969760166 0.11366006256517205 0.1147028154327424 0.1147028154327424 0.1157455683003128 0.1157455683003128 0.1147028154327424 0.1147028154327424 0.1147028154327424 0.11991657977059432 0.1220020855057351 0.1220020855057351 0.1220020855057351 0.1220020855057351 0.1220020855057351,415.19999999998254 435.19999999998254 455.19999999998254 475.19999999998254 495.19999999998254 515.1999999999825 535.1999999999825 555.1999999999825 575.1999999999825 595.1999999999825 615.1999999999825 635.1999999999825 655.1999999999825 675.1999999999825 695.1999999999824 715.1999999999824 735.1999999999824 755.1999999999824 775.1999999999824 795.1999999999824 815.1999999999824 835.1999999999824 855.1999999999824 875.1999999999824 895.1999999999824 915.1999999999823 935.1999999999823 955.1999999999823 975.1999999999823 995.1999999999823 1015.1999999999823 1035.1999999999823 1055.1999999999823 1075.1999999999823 1095.1999999999823 1115.1999999999823 1135.1999999999825 1155.1999999999825 1175.1999999999825 1195.1999999999825 1215.1999999999825 1235.1999999999825 1255.1999999999825 1275.1999999999825 1295.1999999999825 1315.1999999999825 1335.1999999999825 1355.1999999999825 1375.1999999999825 1395.1999999999825 1415.1999999999825
cb_07,30.0,enc_trial,stim,response,Miami trip,927.7000000014959,enc_trial,1.0,30.0,t_m_20_1,travel_Miami,fold-e-single,inflatable beachball,7.0,unique,,single,t_m_20_1.jpg,Miami,travel-b1,Iceland trip,Miami trip,sub-48,1.0,,1.0,,0.5117309697601669 0.5140771637122002 0.5179874869655892 0.5242440041710115 0.5359749739311783 0.5633472367049009 0.6071428571428571 0.6673618352450469 0.6962982273201251 0.7205422314911366 0.7400938477580813 0.7424400417101147 0.7471324296141815 0.7533889468196038 0.7596454640250261 0.7666840458811262 0.7674661105318039 0.7674661105318039 0.7674661105318039 0.7682481751824818 0.7831074035453597 0.7948383733055265 0.8081334723670491 0.8245568300312827 0.8284671532846716 0.8370698644421273 0.8488008342022941 0.8667883211678833 0.8691345151199167 0.8706986444212722,0.8175182481751825 0.8060479666319083 0.7872784150156413 0.7612095933263816 0.7059436913451512 0.5954118873826904 0.4598540145985402 0.3211678832116789 0.2679874869655892 0.2314911366006257 0.21167883211678828 0.20542231491136606 0.19186652763295087 0.17413972888425444 0.15849843587069867 0.1428571428571429 0.14181438998957252 0.14181438998957252 0.14181438998957252 0.14181438998957252 0.14494264859228367 0.14702815432742444 0.1491136600625652 0.15224191866527634 0.15537017726798752 0.1564129301355579 0.15954118873826906 0.1626694473409802 0.1626694473409802 0.1626694473409802,348.6000000000058 368.6000000000058 388.6000000000058 408.6000000000058 428.6000000000058 448.6000000000058 468.6000000000058 488.6000000000058 508.6000000000058 528.6000000000058 548.6000000000058 568.6000000000057 588.6000000000057 608.6000000000057 628.6000000000057 648.6000000000057 668.6000000000057 688.6000000000058 708.6000000000058 728.6000000000058 748.6000000000058 768.6000000000058 788.6000000000058 808.6000000000058 828.6000000000058 848.6000000000058 868.6000000000058 888.6000000000058 908.6000000000058 928.6000000000058
cb_07,31.0,enc_trial,stim,response,Iceland trip,1297.3000000007448,enc_trial,1.0,31.0,t_m_05_2,travel_Miami,fold-d,sunscreen,7.0,unique,far,paired,t_m_05_2.jpg,Miami,travel-b1,Iceland trip,Miami trip,sub-48,0.0,0.0,1.0,1.0,0.5125130344108446 0.5125130344108446 0.5125130344108446 0.5125130344108446 0.5125130344108446 0.5125130344108446 0.5125130344108446 0.5125130344108446 0.5125130344108446 0.5125130344108446 0.5125130344108446 0.5125130344108446 0.5125130344108446 0.5125130344108446 0.5125130344108446 0.5125130344108446 0.5125130344108446 0.5125130344108446 0.5125130344108446 0.5125130344108446 0.5218978102189781 0.5258081334723671 0.5258081334723671 0.5203336809176226 0.4874869655891554 0.4264859228362878 0.3709593326381648 0.2982273201251304 0.2528675703858186 0.2286235662148071 0.2082898852971846 0.2075078206465068 0.2075078206465068 0.2075078206465068 0.2075078206465068 0.20672575599582896 0.20359749739311786 0.1942127215849844 0.18717413972888428 0.1848279457768509 0.1848279457768509 0.18404588112617312 0.18404588112617312 0.18169968717413976 0.180917622523462 0.1793534932221064 0.1793534932221064 0.1793534932221064 0.1793534932221064 0.1793534932221064 0.1793534932221064 0.1793534932221064 0.1785714285714286 0.1785714285714286 0.1785714285714286 0.1785714285714286 0.1785714285714286 0.177007299270073 0.17387904066736184 0.16684045881126175,0.8133472367049009 0.8143899895724713 0.8164754953076121 0.8164754953076121 0.8164754953076121 0.8164754953076121 0.8164754953076121 0.8164754953076121 0.8164754953076121 0.8164754953076121 0.8164754953076121 0.8164754953076121 0.8164754953076121 0.8164754953076121 0.8164754953076121 0.8164754953076121 0.8164754953076121 0.8164754953076121 0.8164754953076121 0.8143899895724713 0.7559958289885297 0.6903023983315955 0.616266944734098 0.5203336809176224 0.3691345151199166 0.2648592283628781 0.2262773722627737 0.20020855057351405 0.18769551616266944 0.17935349322210636 0.16475495307612098 0.1626694473409802 0.16162669447340985 0.16162669447340985 0.16162669447340985 0.15954118873826906 0.1564129301355579 0.15224191866527634 0.1501564129301356 0.1491136600625652 0.1491136600625652 0.14807090719499486 0.14807090719499486 0.14702815432742444 0.14598540145985406 0.1428571428571429 0.14181438998957252 0.14181438998957252 0.14181438998957252 0.14181438998957252 0.14181438998957252 0.14181438998957252 0.14181438998957252 0.14181438998957252 0.14181438998957252 0.14181438998957252 0.14181438998957252 0.14181438998957252 0.14181438998957252 0.14181438998957252,99.39999999999418 119.39999999999418 139.39999999999418 159.39999999999418 179.3999999999942 199.39999999999415 219.39999999999415 239.39999999999415 259.3999999999942 279.3999999999942 299.3999999999942 319.3999999999942 339.3999999999942 359.3999999999942 379.3999999999942 399.3999999999942 419.3999999999942 439.3999999999942 459.3999999999942 479.3999999999942 499.3999999999942 519.3999999999942 539.3999999999942 559.3999999999942 579.3999999999943 599.3999999999943 619.3999999999943 639.3999999999943 659.3999999999943 679.3999999999943 699.3999999999942 719.3999999999942 739.3999999999942 759.3999999999942 779.3999999999942 799.3999999999942 819.3999999999942 839.3999999999942 859.3999999999942 879.3999999999942 899.3999999999942 919.3999999999942 939.3999999999942 959.3999999999942 979.3999999999942 999.3999999999942 1019.3999999999942 1039.3999999999942 1059.3999999999942 1079.3999999999942 1099.3999999999942 1119.3999999999942 1139.3999999999942 1159.3999999999942 1179.3999999999942 1199.3999999999942 1219.3999999999942 1239.3999999999942 1259.3999999999942 1279.3999999999942
cb_07,32.0,enc_trial,stim,response,Iceland trip,973.7000000014959,enc_trial,1.0,32.0,t_s_08_2,travel_shared,fold-a,hand lotion,7.0,competing,close,paired,t_s_08_2.jpg,,travel-b1,Iceland trip,Miami trip,sub-48,1.0,1.0,0.0,0.0,0.5242440041710115 0.5242440041710115 0.5242440041710115 0.5218978102189781 0.5046923879040668 0.4522940563086549 0.4241397288842544 0.3842544316996872 0.3388946819603754 0.295881126173097 0.2552137643378519 0.236444212721585 0.23488008342022945 0.2340980187695517 0.23331595411887385 0.22471324296141806 0.22002085505735144 0.21298227320125127 0.20437956204379565 0.1996871741397289 0.1863920750782065 0.18013555787278418 0.17231491136600627 0.1637122002085506 0.15823774765380608 0.14259645464025028 0.1410323253388947,0.7924921793534933 0.7924921793534933 0.7924921793534933 0.7914494264859229 0.7685088633993744 0.7049009384775808 0.6631908237747655 0.6016684045881127 0.5265901981230449 0.4504692387904067 0.3774765380604797 0.3472367049009385 0.3451511991657977 0.3441084462982273 0.3420229405630866 0.33055265901981234 0.3263816475495308 0.3180396246089676 0.3128258602711157 0.3055265901981229 0.2794577685088634 0.2575599582898853 0.2168925964546402 0.1626694473409802 0.1438998957247133 0.13451511991657972 0.13451511991657972,431.7000000000117 451.7000000000117 471.7000000000117 491.7000000000117 511.7000000000117 531.7000000000116 551.7000000000116 571.7000000000116 591.7000000000116 611.7000000000116 631.7000000000116 651.7000000000116 671.7000000000116 691.7000000000116 711.7000000000116 731.7000000000116 751.7000000000116 771.7000000000116 791.7000000000116 811.7000000000116 831.7000000000116 851.7000000000116 871.7000000000116 891.7000000000116 911.7000000000116 931.7000000000116 951.7000000000116
cb_07,33.0,enc_trial,stim,response,Miami trip,1509.3000000015018,enc_trial,1.0,33.0,t_m_11_2,travel_Miami,fold-d,collapsible beach chair,7.0,unique,far,paired,t_m_11_2.jpg,Miami,travel-b1,Iceland trip,Miami trip,sub-48,1.0,1.0,1.0,1.0,0.5273722627737226 0.5265901981230449 0.5258081334723671 0.5250260688216892 0.5250260688216892 0.5250260688216892 0.5250260688216892 0.5250260688216892 0.5250260688216892 0.5250260688216892 0.5250260688216892 0.5250260688216892 0.5250260688216892 0.5250260688216892 0.5250260688216892 0.5250260688216892 0.5250260688216892 0.5250260688216892 0.5250260688216892 0.5250260688216892 0.5250260688216892 0.5250260688216892 0.5211157455683003 0.5086027111574557 0.4929614181438999 0.4468196037539103 0.3975495307612096 0.3756517205422315 0.3537539103232534 0.3396767466110532 0.31621480709071953 0.31621480709071953 0.31621480709071953 0.32168925964546397 0.32716371220020857 0.35140771637122004 0.3764337851929093 0.4006777893639207 0.4577685088633994 0.5351929092805006 0.6517205422314911 0.6986444212721585 0.7455683003128258 0.7580813347236705 0.7721584984358707 0.7909280500521376 0.7964025026068822 0.7979666319082377 0.8034410844629823 0.8292492179353493 0.8574035453597498 0.8832116788321168 0.909019812304484 0.9246611053180396 0.937956204379562 0.937956204379562 0.937956204379562 0.937956204379562 0.9363920750782064 0.930917622523462 0.923879040667362 0.9160583941605841 0.9121480709071952 0.9082377476538062 0.901199165797706 0.9004171011470282 0.9004171011470282 0.9004171011470282 0.9004171011470282 0.9004171011470282,0.8269030239833159 0.8269030239833159 0.8258602711157456 0.8258602711157456 0.8258602711157456 0.8258602711157456 0.8258602711157456 0.8258602711157456 0.8258602711157456 0.8258602711157456 0.8258602711157456 0.8258602711157456 0.8258602711157456 0.8258602711157456 0.8269030239833159 0.8289885297184567 0.8289885297184567 0.8310740354535975 0.8310740354535975 0.8310740354535975 0.8310740354535975 0.8310740354535975 0.8279457768508863 0.8133472367049009 0.7904066736183525 0.7226277372262774 0.656934306569343 0.6256517205422315 0.5860271115745568 0.5610010427528676 0.4921793534932221 0.4827945776850886 0.4734098018769552 0.4577685088633994 0.4462982273201251 0.4108446298227321 0.3941605839416058 0.3837330552659021 0.3607924921793535 0.3357664233576643 0.29614181438998954 0.27632950990615224 0.2565172054223149 0.251303441084463 0.24191866527632955 0.2304483837330553 0.2273201251303441 0.2262773722627737 0.2252346193952033 0.21584984358706985 0.20750782064650675 0.20125130344108444 0.19499478623566213 0.1908237747653806 0.1845672575599583 0.1845672575599583 0.1814389989572472 0.17831074035453598 0.17518248175182485 0.16579770594369134 0.16162669447340985 0.15954118873826906 0.15849843587069867 0.1564129301355579 0.1564129301355579 0.1564129301355579 0.1564129301355579 0.1574556830031283 0.1574556830031283 0.15849843587069867,0.0 20.0 40.0 60.0 80.0 100.0 120.0 140.0 160.0 180.0 200.0 220.0 240.0 260.0 280.0 300.0 320.0 340.0 360.0 380.0 400.0 420.0 440.0 460.0 480.0 500.0 520.0 540.0 560.0 580.0 600.0 620.0 640.0 660.0 680.0 700.0 720.0 740.0 760.0 780.0 800.0 820.0 840.0 860.0 880.0 900.0 920.0 940.0 960.0 980.0 1000.0 1020.0 1040.0 1060.0 1080.0 1100.0 1120.0 1140.0 1160.0 1180.0 1200.0 1220.0 1240.0 1260.0 1280.0 1300.0 1320.0 1340.0 1360.0 1380.0
cb_07,34.0,enc_trial,stim,response,Iceland trip,876.7000000000116,enc_trial,1.0,34.0,t_s_12_2,travel_shared,fold-b,clear toiletry bag,7.0,competing,far,paired,t_s_12_2.jpg,,travel-b1,Iceland trip,Miami trip,sub-48,1.0,1.0,1.0,1.0,0.4827945776850887 0.4859228362877998 0.4882690302398332 0.4882690302398332 0.4882690302398332 0.4921793534932221 0.4937434827945777 0.4953076120959333 0.4843587069864442 0.4655891553701773 0.395985401459854 0.35844629822732016 0.31230448383733056 0.2638164754953076 0.2411366006256517 0.177007299270073 0.16449426485922838 0.15354535974973932 0.14963503649635038 0.1488529718456726 0.13712200208550576 0.12773722627737227 0.12069864442127218 0.11366006256517207,0.8362877997914494 0.8300312825860271 0.8248175182481752 0.8154327424400417 0.7966631908237748 0.7612095933263816 0.7424400417101147 0.6996871741397288 0.6266944734098019 0.5672575599582899 0.4556830031282586 0.4181438998957248 0.3753910323253389 0.3326381647549531 0.3107403545359749 0.2502606882168926 0.2367049009384776 0.2231491136600625 0.21584984358706985 0.2106360792492179 0.1835245046923879 0.16892596454640252 0.16058394160583944 0.15432742440041713,349.0 369.0 389.0 409.0 429.0 449.0 469.0 489.0 509.0 529.0 549.0 569.0 589.0 609.0 629.0 649.0 669.0 689.0 709.0 729.0 749.0 769.0 789.0 809.0
cb_07,35.0,enc_trial,stim,response,Iceland trip,1494.6000000000058,enc_trial,1.0,35.0,t_i_04_1,travel_Iceland,fold-c,portable camping stove,7.0,unique,close,paired,t_i_04_1.jpg,Iceland,travel-b1,Iceland trip,Miami trip,sub-48,1.0,1.0,1.0,1.0,0.4898331595411887 0.4929614181438999 0.4937434827945777 0.4937434827945777 0.4937434827945777 0.4937434827945777 0.4937434827945777 0.4937434827945777 0.4937434827945777 0.4937434827945777 0.5046923879040668 0.514859228362878 0.5211157455683003 0.5234619395203337 0.5250260688216892 0.5258081334723671 0.5258081334723671 0.5265901981230449 0.5289363920750783 0.5297184567257561 0.5156412930135558 0.4984358706986444 0.4640250260688217 0.4460375391032325 0.42570385818560996 0.3912930135557873 0.3725234619395204 0.3537539103232534 0.3467153284671533 0.3443691345151199 0.3302919708029197 0.325599582898853 0.3193430656934307 0.3169968717413973 0.3193430656934307 0.3467153284671533 0.399895724713243 0.4749739311783107 0.5860271115745568 0.7447862356621481 0.852711157455683 0.8675703858185608 0.8675703858185608 0.8589676746611054 0.8339416058394161 0.7745046923879041 0.7526068821689259 0.7518248175182481 0.7518248175182481 0.7565172054223149 0.7604275286757038 0.7627737226277372 0.763555787278415 0.763555787278415 0.6806569343065694 0.5922836287799791 0.5031282586027112 0.4061522419186653 0.26303441084462986 0.21063607924921804 0.2090719499478624 0.2082898852971846 0.2082898852971846 0.2082898852971846 0.19734098018769552 0.17544316996871742 0.15198123044838374 0.14963503649635038 0.1488529718456726 0.1488529718456726,0.8185610010427529 0.8175182481751825 0.8164754953076121 0.8164754953076121 0.8164754953076121 0.8164754953076121 0.8164754953076121 0.8164754953076121 0.8164754953076121 0.8175182481751825 0.8227320125130344 0.8227320125130344 0.8206465067778936 0.8164754953076121 0.8133472367049009 0.808133472367049 0.8050052137643379 0.8039624608967675 0.8029197080291971 0.8008342022940563 0.7778936392075078 0.7559958289885297 0.7038581856100103 0.6736183524504693 0.635036496350365 0.5557872784150156 0.5172054223149114 0.4744525547445255 0.4577685088633994 0.4483837330552659 0.4202294056308655 0.40563086548488 0.3806047966631908 0.3524504692387904 0.32325338894681965 0.28884254431699685 0.2794577685088634 0.2794577685088634 0.2825860271115745 0.28884254431699685 0.2877997914494265 0.2877997914494265 0.2867570385818561 0.2846715328467153 0.2825860271115745 0.2742440041710115 0.2659019812304484 0.2638164754953076 0.26277372262773724 0.2533889468196038 0.2471324296141815 0.2450469238790407 0.24191866527632955 0.237747653806048 0.19499478623566213 0.17935349322210636 0.1626694473409802 0.1491136600625652 0.13868613138686134 0.13868613138686134 0.13868613138686134 0.1366006256517206 0.1366006256517206 0.1355578727841501 0.1293013555787278 0.12513034410844626 0.12304483837330547 0.12304483837330547 0.12617309697601664 0.1293013555787278,99.29999999998836 119.29999999998836 139.29999999998836 159.2999999999884 179.29999999998836 199.29999999998842 219.29999999998842 239.29999999998842 259.2999999999884 279.2999999999884 299.29999999998836 319.29999999998836 339.29999999998836 359.2999999999884 379.2999999999884 399.2999999999884 419.2999999999884 439.2999999999884 459.2999999999884 479.2999999999884 499.2999999999884 519.2999999999884 539.2999999999884 559.2999999999884 579.2999999999884 599.2999999999884 619.2999999999884 639.2999999999884 659.2999999999884 679.2999999999884 699.2999999999884 719.2999999999884 739.2999999999884 759.2999999999884 779.2999999999884 799.2999999999884 819.2999999999884 839.2999999999884 859.2999999999884 879.2999999999884 899.2999999999884 919.2999999999884 939.2999999999884 959.2999999999884 979.2999999999884 999.2999999999884 1019.2999999999884 1039.2999999999884 1059.2999999999884 1079.2999999999884 1099.2999999999884 1119.2999999999884 1139.2999999999886 1159.2999999999886 1179.2999999999886 1199.2999999999886 1219.2999999999886 1239.2999999999886 1259.2999999999886 1279.2999999999886 1299.2999999999886 1319.2999999999886 1339.2999999999886 1359.2999999999886 1379.2999999999884 1399.2999999999884 1419.2999999999884 1439.2999999999884 1459.2999999999884 1479.2999999999884
cb_07,36.0,enc_trial,stim,response,Miami trip,1568.6000000000058,enc_trial,1.0,36.0,t_s_20_2,travel_shared,fold-a,travel pill case,7.0,competing,close,paired,t_s_20_2.jpg,,travel-b1,Iceland trip,Miami trip,sub-48,1.0,1.0,1.0,1.0,0.5265901981230449 0.5265901981230449 0.5258081334723671 0.5258081334723671 0.5258081334723671 0.5258081334723671 0.5258081334723671 0.5258081334723671 0.5258081334723671 0.5258081334723671 0.5258081334723671 0.5258081334723671 0.5258081334723671 0.5258081334723671 0.5258081334723671 0.5132950990615224 0.4921793534932221 0.4804483837330553 0.4648070907194995 0.4468196037539103 0.3310740354535975 0.2943169968717414 0.2583420229405631 0.2262773722627737 0.1777893639207508 0.14025026068821692 0.1355578727841502 0.1347758081334724 0.1347758081334724 0.1339937434827946 0.1339937434827946 0.13321167883211682 0.12851929092805006 0.1253910323253389 0.12382690302398335 0.1253910323253389 0.1339937434827946 0.13790406673618355 0.1410323253388947 0.1410323253388947 0.1410323253388947 0.1410323253388947 0.1410323253388947 0.1410323253388947 0.1410323253388947 0.1488529718456726 0.18873826903023985 0.3631386861313869 0.5437956204379562 0.8761730969760168 0.9840980187695516 1.0145985401459854 1.0208550573514077 1.0161626694473411 1.0067778936392076 1.0067778936392076 1.0067778936392076 1.0067778936392076 1.0067778936392076 1.005213764337852 0.9997393117831076 0.9848800834202296 0.9661105318039626 0.9590719499478624 0.9582898852971846 0.9559436913451512 0.9426485922836289 0.9356100104275288 0.9285714285714286 0.9277893639207508,0.8269030239833159 0.8269030239833159 0.8269030239833159 0.8269030239833159 0.8269030239833159 0.8269030239833159 0.8269030239833159 0.8269030239833159 0.8269030239833159 0.8269030239833159 0.8269030239833159 0.8237747653806048 0.8164754953076121 0.8102189781021898 0.8060479666319083 0.7799791449426485 0.7309697601668405 0.6955161626694473 0.6475495307612096 0.5964546402502606 0.33055265901981234 0.26277372262773724 0.2022940563086548 0.1564129301355579 0.10740354535974972 0.07820646506777895 0.0750782064650678 0.07403545359749741 0.07299270072992703 0.07194994786235663 0.07194994786235663 0.07716371220020858 0.09176225234619396 0.09906152241918664 0.10427528675703857 0.1157455683003128 0.12617309697601664 0.13034410844629818 0.13451511991657972 0.13451511991657972 0.13451511991657972 0.13451511991657972 0.13451511991657972 0.13451511991657972 0.13451511991657972 0.13972888425443175 0.15328467153284675 0.1970802919708029 0.2179353493222106 0.21167883211678828 0.18248175182481752 0.16684045881126175 0.15328467153284675 0.1491136600625652 0.1438998957247133 0.1438998957247133 0.1438998957247133 0.1438998957247133 0.1438998957247133 0.1438998957247133 0.1428571428571429 0.13868613138686134 0.13868613138686134 0.13972888425443175 0.1428571428571429 0.14077163712200216 0.1366006256517206 0.13451511991657972 0.13451511991657972 0.13451511991657972,199.10000000000585 219.10000000000585 239.10000000000585 259.1000000000058 279.1000000000058 299.1000000000058 319.1000000000058 339.1000000000058 359.1000000000058 379.1000000000058 399.1000000000058 419.1000000000058 439.1000000000058 459.1000000000058 479.1000000000058 499.1000000000058 519.1000000000058 539.1000000000058 559.1000000000058 579.1000000000057 599.1000000000057 619.1000000000057 639.1000000000057 659.1000000000057 679.1000000000057 699.1000000000058 719.1000000000058 739.1000000000058 759.1000000000058 779.1000000000058 799.1000000000058 819.1000000000058 839.1000000000058 859.1000000000058 879.1000000000058 899.1000000000058 919.1000000000058 939.1000000000058 959.1000000000058 979.1000000000058 999.1000000000058 1019.1000000000058 1039.1000000000058 1059.1000000000058 1079.1000000000058 1099.1000000000058 1119.1000000000058 1139.1000000000058 1159.1000000000058 1179.1000000000058 1199.1000000000058 1219.1000000000058 1239.1000000000058 1259.1000000000058 1279.1000000000058 1299.1000000000058 1319.1000000000058 1339.1000000000058 1359.1000000000058 1379.1000000000058 1399.1000000000058 1419.1000000000058 1439.1000000000058 1459.1000000000058 1479.1000000000058 1499.1000000000058 1519.1000000000058 1539.1000000000058 1559.1000000000058 1579.1000000000058
cb_07,37.0,enc_trial,stim,response,Miami trip,1386.1999999992554,enc_trial,1.0,37.0,t_s_24_1,travel_shared,fold-c-single,ear plugs,7.0,competing,,single,t_s_24_1.jpg,,travel-b1,Iceland trip,Miami trip,sub-48,1.0,,1.0,,0.5046923879040668 0.5046923879040668 0.5046923879040668 0.5046923879040668 0.5046923879040668 0.5046923879040668 0.5046923879040668 0.5046923879040668 0.5046923879040668 0.5046923879040668 0.5046923879040668 0.5046923879040668 0.5046923879040668 0.5046923879040668 0.5046923879040668 0.5046923879040668 0.5046923879040668 0.5046923879040668 0.5046923879040668 0.5046923879040668 0.5023461939520334 0.5 0.4984358706986444 0.4976538060479666 0.4953076120959333 0.4851407716371221 0.4734098018769552 0.4538581856100105 0.4382168925964546 0.4178832116788321 0.4053701772679875 0.4178832116788321 0.451511991657977 0.4867049009384776 0.5273722627737226 0.7314911366006256 0.7956204379562044 0.8339416058394161 0.8566214807090721 0.8667883211678833 0.8667883211678833 0.8699165797705944 0.8925964546402503 0.9074556830031284 0.9324817518248176 0.9403023983315956 0.9403023983315956 0.9403023983315956 0.9403023983315956 0.9403023983315956 0.9403023983315956 0.9410844629822732 0.9410844629822732 0.937956204379562 0.9246611053180396 0.9223149113660064 0.9191866527632953 0.9152763295099062 0.9113660062565172 0.9066736183524504 0.9051094890510948,0.8321167883211679 0.8321167883211679 0.8321167883211679 0.8321167883211679 0.8321167883211679 0.8321167883211679 0.8321167883211679 0.8321167883211679 0.8321167883211679 0.8321167883211679 0.8321167883211679 0.8321167883211679 0.8321167883211679 0.8321167883211679 0.8321167883211679 0.8321167883211679 0.8321167883211679 0.8321167883211679 0.8279457768508863 0.8248175182481752 0.8143899895724713 0.8070907194994786 0.7987486965589156 0.7893639207507821 0.7716371220020855 0.7299270072992701 0.6996871741397288 0.6454640250260688 0.6047966631908237 0.5474452554744526 0.4400417101147028 0.4045881126173097 0.3587069864442127 0.33055265901981234 0.3096976016684045 0.2335766423357665 0.2064650677789364 0.18769551616266944 0.1762252346193952 0.17205422314911367 0.1699687174139729 0.16579770594369134 0.15432742440041713 0.15224191866527634 0.14807090719499486 0.14807090719499486 0.14807090719499486 0.14807090719499486 0.14807090719499486 0.14807090719499486 0.14807090719499486 0.14807090719499486 0.14807090719499486 0.1438998957247133 0.13972888425443175 0.13972888425443175 0.13972888425443175 0.13972888425443175 0.13764337851929098 0.1366006256517206 0.1366006256517206,116.10000000000582 136.10000000000582 156.10000000000582 176.1000000000058 196.10000000000585 216.10000000000585 236.10000000000585 256.1000000000058 276.1000000000058 296.1000000000058 316.1000000000058 336.1000000000058 356.1000000000058 376.1000000000058 396.1000000000058 416.1000000000058 436.1000000000058 456.1000000000058 476.1000000000058 496.1000000000058 516.1000000000058 536.1000000000058 556.1000000000058 576.1000000000057 596.1000000000057 616.1000000000057 636.1000000000057 656.1000000000057 676.1000000000057 696.1000000000058 716.1000000000058 736.1000000000058 756.1000000000058 776.1000000000058 796.1000000000058 816.1000000000058 836.1000000000058 856.1000000000058 876.1000000000058 896.1000000000058 916.1000000000058 936.1000000000058 956.1000000000058 976.1000000000058 996.1000000000058 1016.1000000000058 1036.1000000000058 1056.1000000000058 1076.1000000000058 1096.1000000000058 1116.1000000000058 1136.1000000000058 1156.1000000000058 1176.1000000000058 1196.1000000000058 1216.1000000000058 1236.1000000000058 1256.1000000000058 1276.1000000000058 1296.1000000000058 1316.1000000000058
cb_07,38.0,enc_trial,stim,response,Iceland trip,1399.8000000022296,enc_trial,1.0,38.0,t_i_04_2,travel_Iceland,fold-c,portable camping stove,7.0,unique,close,paired,t_i_04_2.jpg,Iceland,travel-b1,Iceland trip,Miami trip,sub-48,1.0,1.0,1.0,1.0,0.5344108446298227 0.5320646506777894 0.5297184567257561 0.5281543274244004 0.5242440041710115 0.514859228362878 0.514859228362878 0.514859228362878 0.514859228362878 0.5195516162669447 0.5586548488008342 0.5946298227320125 0.6102711157455682 0.614963503649635 0.6157455683003128 0.6040145985401459 0.5711678832116788 0.5273722627737226 0.4350886339937435 0.3037017726798749 0.16684045881126175 0.14337851929092807 0.13946819603753913 0.13946819603753913 0.13946819603753913 0.13946819603753913 0.13946819603753913 0.13946819603753913 0.13946819603753913 0.13946819603753913 0.13790406673618355 0.12930135557872785 0.1183524504692388 0.0972367049009385 0.08159541188738273 0.0683003128258603 0.07142857142857145 0.07690302398331599 0.08159541188738273 0.08315954118873829 0.08394160583941608 0.08706986444212722 0.08785192909280502,0.8362877997914494 0.8310740354535975 0.8248175182481752 0.8185610010427529 0.8091762252346194 0.7705943691345152 0.7340980187695516 0.6736183524504693 0.616266944734098 0.5537017726798749 0.4410844629822732 0.3680917622523462 0.3326381647549531 0.3065693430656934 0.28884254431699685 0.2502606882168926 0.2241918665276329 0.2033368091762252 0.1762252346193952 0.1626694473409802 0.15432742440041713 0.15224191866527634 0.15224191866527634 0.15224191866527634 0.15224191866527634 0.15224191866527634 0.15224191866527634 0.15224191866527634 0.15224191866527634 0.15224191866527634 0.15224191866527634 0.15224191866527634 0.15224191866527634 0.15224191866527634 0.15224191866527634 0.15849843587069867 0.1626694473409802 0.16579770594369134 0.16788321167883213 0.16892596454640252 0.16892596454640252 0.16892596454640252 0.16892596454640252,514.8999999999942 534.8999999999942 554.8999999999942 574.8999999999943 594.8999999999943 614.8999999999943 634.8999999999943 654.8999999999943 674.8999999999943 694.8999999999942 714.8999999999942 734.8999999999942 754.8999999999942 774.8999999999942 794.8999999999942 814.8999999999942 834.8999999999942 854.8999999999942 874.8999999999942 894.8999999999942 914.8999999999942 934.8999999999942 954.8999999999942 974.8999999999942 994.8999999999942 1014.8999999999942 1034.8999999999942 1054.8999999999942 1074.8999999999942 1094.8999999999942 1114.8999999999942 1134.8999999999942 1154.8999999999942 1174.8999999999942 1194.8999999999942 1214.8999999999942 1234.8999999999942 1254.8999999999942 1274.8999999999942 1294.8999999999942 1314.8999999999942 1334.8999999999942 1354.8999999999942
cb_07,39.0,enc_trial,stim,response,Iceland trip,873.9000000022353,enc_trial,1.0,39.0,t_s_20_1,travel_shared,fold-a,travel pill case,7.0,competing,close,paired,t_s_20_1.jpg,,travel-b1,Iceland trip,Miami trip,sub-48,1.0,1.0,1.0,1.0,0.5039103232533889 0.5023461939520334 0.5023461939520334 0.5007820646506778 0.4976538060479666 0.4851407716371221 0.4734098018769552 0.4546402502606882 0.42570385818560996 0.3474973931178311 0.2583420229405631 0.2286235662148071 0.19577685088633995 0.18013555787278418 0.16840458811261733 0.15354535974973932 0.15276329509906153 0.15198123044838374 0.15198123044838374 0.14963503649635038 0.1480709071949948 0.14728884254431698 0.14650677789363922 0.14572471324296146 0.14416058394160586,0.8050052137643379 0.8050052137643379 0.8050052137643379 0.8008342022940563 0.7935349322210636 0.7518248175182481 0.7069864442127216 0.6527632950990615 0.583941605839416 0.4494264859228363 0.32429614181439004 0.291970802919708 0.2523461939520334 0.2294056308654849 0.21167883211678828 0.1845672575599583 0.1814389989572472 0.18039624608967675 0.17831074035453598 0.1710114702815433 0.16788321167883213 0.16579770594369134 0.1626694473409802 0.15954118873826906 0.15849843587069867,398.2999999999884 418.2999999999884 438.2999999999884 458.2999999999884 478.2999999999884 498.2999999999884 518.2999999999884 538.2999999999884 558.2999999999884 578.2999999999884 598.2999999999884 618.2999999999884 638.2999999999884 658.2999999999884 678.2999999999884 698.2999999999884 718.2999999999884 738.2999999999884 758.2999999999884 778.2999999999884 798.2999999999884 818.2999999999884 838.2999999999884 858.2999999999884 878.2999999999884
cb_07,40.0,enc_trial,stim,response,Miami trip,1180.6000000022468,enc_trial,1.0,40.0,t_s_15_1,travel_shared,fold-c-single,luggage tag,7.0,competing,,single,t_s_15_1.jpg,,travel-b1,Iceland trip,Miami trip,sub-48,1.0,,1.0,,0.5164233576642335 0.5164233576642335 0.5164233576642335 0.5164233576642335 0.5164233576642335 0.5164233576642335 0.5164233576642335 0.5164233576642335 0.5164233576642335 0.5164233576642335 0.5164233576642335 0.5164233576642335 0.5164233576642335 0.5164233576642335 0.5164233576642335 0.5164233576642335 0.5164233576642335 0.5164233576642335 0.5164233576642335 0.5164233576642335 0.5164233576642335 0.5164233576642335 0.5164233576642335 0.5164233576642335 0.5164233576642335 0.5164233576642335 0.5164233576642335 0.5164233576642335 0.5125130344108446 0.5023461939520334 0.4788842544316997 0.4663712200208551 0.451511991657977 0.41631908237747656 0.3873826903023984 0.35140771637122004 0.3474973931178311 0.3670490093847758 0.4069343065693431 0.5023461939520334 0.6665797705943691 0.7565172054223149 0.8534932221063609 0.953597497393118 1.02007299270073 1.0583941605839418 1.0583941605839418 1.0583941605839418 1.056830031282586 1.053701772679875 1.0294577685088635 0.9958289885297184 0.9575078206465067 0.9168404588112616 0.8785192909280501 0.8785192909280501 0.8785192909280501 0.8785192909280501 0.8785192909280501 0.8777372262773724,0.8196037539103233 0.8196037539103233 0.8196037539103233 0.8196037539103233 0.8196037539103233 0.8196037539103233 0.8196037539103233 0.8196037539103233 0.8196037539103233 0.8196037539103233 0.8196037539103233 0.8196037539103233 0.8196037539103233 0.8196037539103233 0.8196037539103233 0.8196037539103233 0.8196037539103233 0.8196037539103233 0.8196037539103233 0.8196037539103233 0.8196037539103233 0.8196037539103233 0.8196037539103233 0.8196037539103233 0.8196037539103233 0.8196037539103233 0.8196037539103233 0.8196037539103233 0.8091762252346194 0.7924921793534933 0.7434827945776851 0.7184567257559958 0.6882168925964547 0.62148070907195 0.5672575599582899 0.4713242961418144 0.4348279457768509 0.3868613138686131 0.3451511991657977 0.2711157455683003 0.18039624608967675 0.14702815432742444 0.11157455683003126 0.08654848800834203 0.0750782064650678 0.0750782064650678 0.0750782064650678 0.07299270072992703 0.07299270072992703 0.07090719499478626 0.0677789363920751 0.07194994786235663 0.07924921793534934 0.08967674661105318 0.10323253388946818 0.10427528675703857 0.10531803962460896 0.10636079249217932 0.10740354535974972 0.10948905109489047,0.0 20.0 40.0 60.0 80.0 100.0 120.0 140.0 160.0 180.0 200.0 220.0 240.0 260.0 280.0 300.0 320.0 340.0 360.0 380.0 400.0 420.0 440.0 460.0 480.0 500.0 520.0 540.0 560.0 580.0 600.0 620.0 640.0 660.0 680.0 700.0 720.0 740.0 760.0 780.0 800.0 820.0 840.0 860.0 880.0 900.0 920.0 940.0 960.0 980.0 1000.0 1020.0 1040.0 1060.0 1080.0 1100.0 1120.0 1140.0 1160.0 1180.0
cb_07,41.0,enc_trial,stim,response,Fine Arts students,977.6999999992547,enc_trial,2.0,1.0,s_sh_23_1,student_shared,fold-a,ballpoint pen,7.0,competing,close,paired,s_sh_23_1.jpg,,student-b1,STEM students,Fine Arts students,sub-48,0.0,0.0,1.0,0.0,0.5007820646506778 0.5070385818561001 0.5164233576642335 0.5258081334723671 0.540667361835245 0.5461418143899895 0.5398852971845672 0.5367570385818561 0.5328467153284672 0.5328467153284672 0.5578727841501564 0.6016684045881127 0.7244525547445255 0.7924921793534933 0.8433263816475496 0.9066736183524504 0.9113660062565172 0.9113660062565172 0.9066736183524504 0.9035453597497394 0.8871220020855058 0.87148070907195 0.8581856100104276 0.8323774765380606 0.8237747653806049 0.8237747653806049 0.8237747653806049 0.8292492179353493 0.8347236704900939 0.8386339937434829 0.852711157455683 0.8660062565172055 0.8675703858185608,0.8227320125130344 0.8070907194994786 0.7820646506777893 0.7549530761209593 0.7049009384775808 0.6266944734098019 0.5724713242961419 0.5307612095933264 0.4577685088633994 0.3941605839416058 0.30239833159541185 0.26277372262773724 0.20020855057351405 0.1762252346193952 0.1574556830031283 0.1293013555787278 0.1282586027111574 0.1282586027111574 0.1282586027111574 0.1282586027111574 0.13764337851929098 0.14598540145985406 0.1501564129301356 0.15432742440041713 0.1564129301355579 0.1564129301355579 0.1574556830031283 0.15954118873826906 0.15954118873826906 0.15954118873826906 0.15537017726798752 0.15119916579770598 0.1501564129301356,299.4000000000233 319.4000000000233 339.4000000000233 359.40000000002334 379.40000000002334 399.40000000002334 419.40000000002334 439.40000000002334 459.40000000002334 479.40000000002334 499.40000000002334 519.4000000000234 539.4000000000234 559.4000000000234 579.4000000000233 599.4000000000233 619.4000000000233 639.4000000000233 659.4000000000233 679.4000000000233 699.4000000000232 719.4000000000232 739.4000000000232 759.4000000000232 779.4000000000232 799.4000000000232 819.4000000000232 839.4000000000232 859.4000000000232 879.4000000000232 899.4000000000232 919.4000000000232 939.4000000000232
