Current Spreadsheet,Trial Number,Display,Screen,Response Type,Response,Reaction Time,display,block,block_trial,stimulus_id,expected_goal,fold,stimulus_name,c_group,condition,within_block_dist,paired_status,stimulus_path,expected_location,block_split,respStim_1,respStim_2,sub_label,acc,both_enc_acc,assoc_stim1_acc,assoc_stim2_acc,x_pos,y_pos,time_trajectories
cb_03,1.0,enc_trial,stim,response,Iceland trip,1877.3000000000463,enc_trial,1.0,1.0,t_i_20_1,travel_Iceland,fold-b-single,lantern,3.0,unique,,single,t_i_20_1.jpg,Iceland,travel-b1,Iceland trip,Miami trip,sub-59,1.0,,1.0,,0.500390625 0.500390625 0.500390625 0.500390625 0.500390625 0.500390625 0.500390625 0.500390625 0.500390625 0.500390625 0.500390625 0.500390625 0.500390625 0.500390625 0.500390625 0.500390625 0.500390625 0.500390625 0.500390625 0.500390625 0.500390625 0.500390625 0.500390625 0.500390625 0.500390625 0.500390625 0.500390625 0.500390625 0.498046875 0.486328125 0.457421875 0.416015625 0.362890625 0.319140625 0.251953125 0.194140625 0.148828125 0.119921875 0.106640625 0.105078125 0.105078125 0.105078125 0.105078125 0.105078125 0.105078125 0.105078125 0.105078125 0.105078125 0.105859375 0.105859375 0.105859375,0.8333333333333334 0.83125 0.8270833333333334 0.825 0.8239583333333333 0.8239583333333333 0.8239583333333333 0.8239583333333333 0.8239583333333333 0.8239583333333333 0.8239583333333333 0.8239583333333333 0.8239583333333333 0.8239583333333333 0.8239583333333333 0.8239583333333333 0.8239583333333333 0.8239583333333333 0.8239583333333333 0.8239583333333333 0.8239583333333333 0.8239583333333333 0.8239583333333333 0.8239583333333333 0.8239583333333333 0.8239583333333333 0.8239583333333333 0.8239583333333333 0.8166666666666667 0.8 0.7583333333333333 0.68125 0.575 0.4885416666666666 0.36458333333333337 0.2833333333333333 0.23750000000000004 0.2125 0.2 0.1958333333333333 0.1958333333333333 0.1958333333333333 0.1958333333333333 0.1947916666666667 0.19375 0.1927083333333333 0.19062500000000004 0.1875 0.18541666666666667 0.18333333333333326 0.18229166666666666,883.0 903.0 923.0 943.0 963.0 983.0 1003.0 1023.0 1043.0 1063.0 1083.0 1103.0 1123.0 1143.0 1163.0 1183.0 1203.0 1223.0 1243.0 1263.0 1283.0 1303.0 1323.0 1343.0 1363.0 1383.0 1403.0 1423.0 1443.0 1463.0 1483.0 1503.0 1523.0 1543.0 1563.0 1583.0 1603.0 1623.0 1643.0 1663.0 1683.0 1703.0 1723.0 1743.0 1763.0 1783.0 1803.0 1823.0 1843.0 1863.0 1883.0
cb_03,2.0,enc_trial,stim,response,Iceland trip,2315.199999997014,enc_trial,1.0,2.0,t_s_24_1,travel_shared,fold-c,ear plugs,3.0,competing,far,paired,t_s_24_1.jpg,,travel-b1,Iceland trip,Miami trip,sub-59,1.0,1.0,0.0,0.0,0.498828125 0.497265625 0.491796875 0.483203125 0.472265625 0.464453125 0.461328125 0.460546875 0.460546875 0.460546875 0.460546875 0.460546875 0.460546875 0.460546875 0.461328125 0.462109375 0.462109375 0.462890625 0.462890625 0.462890625 0.461328125 0.453515625 0.442578125 0.438671875 0.448828125 0.452734375 0.420703125 0.344921875 0.221484375 0.125390625 0.067578125 0.053515625 0.055078125 0.062109375 0.078515625 0.091015625 0.097265625 0.102734375 0.105859375 0.106640625 0.107421875,0.8 0.7958333333333334 0.78125 0.7604166666666666 0.7395833333333333 0.725 0.71875 0.7177083333333334 0.7177083333333334 0.7177083333333334 0.7177083333333334 0.7177083333333334 0.7177083333333334 0.7177083333333334 0.71875 0.71875 0.7197916666666666 0.7197916666666666 0.7208333333333333 0.721875 0.7239583333333333 0.7229166666666667 0.7104166666666667 0.6645833333333333 0.5489583333333333 0.446875 0.3041666666666667 0.209375 0.1479166666666667 0.12395833333333328 0.11041666666666672 0.109375 0.11250000000000004 0.11458333333333336 0.11979166666666664 0.11979166666666664 0.11979166666666664 0.11875000000000002 0.11875000000000002 0.11875000000000002 0.11875000000000002,1508.8999999999942 1528.8999999999942 1548.8999999999942 1568.8999999999942 1588.8999999999942 1608.8999999999942 1628.8999999999942 1648.8999999999942 1668.8999999999942 1688.8999999999942 1708.8999999999942 1728.8999999999942 1748.8999999999942 1768.8999999999942 1788.8999999999942 1808.8999999999944 1828.8999999999944 1848.8999999999944 1868.8999999999944 1888.8999999999944 1908.8999999999944 1928.8999999999944 1948.8999999999944 1968.8999999999944 1988.8999999999944 2008.8999999999944 2028.8999999999944 2048.8999999999937 2068.8999999999937 2088.8999999999937 2108.8999999999937 2128.8999999999937 2148.8999999999937 2168.8999999999937 2188.8999999999937 2208.8999999999937 2228.8999999999937 2248.8999999999937 2268.8999999999937 2288.8999999999937 2308.8999999999937
cb_03,3.0,enc_trial,stim,response,Miami trip,2182.200000001496,enc_trial,1.0,3.0,t_s_02_1,travel_shared,fold-b,water bottle,3.0,competing,close,paired,t_s_02_1.jpg,,travel-b1,Iceland trip,Miami trip,sub-59,1.0,1.0,0.0,1.0,0.498828125 0.498828125 0.498046875 0.498046875 0.498046875 0.498046875 0.498046875 0.498046875 0.498046875 0.498046875 0.497265625 0.497265625 0.497265625 0.496484375 0.496484375 0.496484375 0.496484375 0.496484375 0.495703125 0.495703125 0.494921875 0.494140625 0.494140625 0.494140625 0.493359375 0.492578125 0.492578125 0.491015625 0.487890625 0.482421875 0.471484375 0.457421875 0.438671875 0.423828125 0.396484375 0.366796875 0.339453125 0.312890625 0.296484375 0.287890625 0.283203125 0.280078125 0.276953125 0.274609375 0.274609375 0.274609375 0.273828125 0.270703125 0.266796875 0.264453125 0.262109375 0.261328125 0.261328125 0.262109375 0.279296875 0.348046875 0.445703125 0.505859375 0.583984375 0.655859375 0.711328125 0.742578125 0.756640625 0.766015625 0.770703125 0.772265625 0.772265625 0.772265625 0.774609375 0.780859375 0.787890625 0.794140625 0.805078125 0.813671875 0.824609375 0.831640625 0.833984375 0.833984375 0.833984375 0.833984375 0.833984375 0.834765625,0.7989583333333333 0.7989583333333333 0.7989583333333333 0.7979166666666666 0.7979166666666666 0.7979166666666666 0.7979166666666666 0.7979166666666666 0.7979166666666666 0.7979166666666666 0.7979166666666666 0.7979166666666666 0.796875 0.796875 0.796875 0.796875 0.796875 0.7958333333333334 0.7958333333333334 0.7947916666666667 0.79375 0.79375 0.79375 0.7927083333333333 0.7916666666666666 0.7916666666666666 0.790625 0.7885416666666667 0.784375 0.7739583333333333 0.7541666666666667 0.7229166666666667 0.6802083333333333 0.646875 0.5833333333333333 0.5020833333333333 0.4135416666666667 0.3447916666666667 0.309375 0.2927083333333333 0.28541666666666665 0.2822916666666667 0.2770833333333333 0.2729166666666667 0.27083333333333337 0.27083333333333337 0.26875000000000004 0.2625 0.25625 0.2520833333333333 0.2489583333333333 0.2479166666666667 0.2479166666666667 0.246875 0.2395833333333333 0.22291666666666665 0.21458333333333326 0.2125 0.2125 0.2083333333333333 0.2 0.19166666666666665 0.18229166666666666 0.17291666666666672 0.16666666666666666 0.16562500000000002 0.16562500000000002 0.16562500000000002 0.1645833333333333 0.15833333333333333 0.15104166666666666 0.14583333333333334 0.14166666666666672 0.13854166666666667 0.13645833333333335 0.13645833333333335 0.13645833333333335 0.13645833333333335 0.13645833333333335 0.13645833333333335 0.13645833333333335 0.13645833333333335,507.7000000000117 527.7000000000116 547.7000000000116 567.7000000000115 587.7000000000114 607.7000000000114 627.7000000000114 647.7000000000112 667.7000000000112 687.7000000000113 707.7000000000113 727.7000000000112 747.700000000011 767.700000000011 787.700000000011 807.7000000000107 827.7000000000107 847.7000000000107 867.7000000000107 887.7000000000107 907.7000000000104 927.7000000000104 947.7000000000104 967.7000000000104 987.7000000000104 1007.7000000000104 1027.7000000000103 1047.7000000000098 1067.7000000000098 1087.7000000000098 1107.7000000000098 1127.7000000000098 1147.7000000000098 1167.7000000000098 1187.7000000000098 1207.7000000000094 1227.7000000000094 1247.7000000000094 1267.7000000000094 1287.7000000000094 1307.7000000000094 1327.7000000000094 1347.7000000000094 1367.7000000000094 1387.7000000000091 1407.7000000000091 1427.7000000000091 1447.700000000009 1467.700000000009 1487.700000000009 1507.700000000009 1527.700000000009 1547.700000000009 1567.700000000009 1587.7000000000085 1607.7000000000085 1627.7000000000085 1647.7000000000085 1667.7000000000085 1687.7000000000082 1707.7000000000082 1727.7000000000082 1747.700000000008 1767.700000000008 1787.700000000008 1807.700000000008 1827.700000000008 1847.700000000008 1867.700000000008 1887.700000000008 1907.7000000000075 1927.7000000000075 1947.7000000000075 1967.7000000000075 1987.7000000000075 2007.7000000000075 2027.7000000000075 2047.7000000000075 2067.700000000007 2087.700000000007 2107.700000000007 2127.700000000007
cb_03,4.0,enc_trial,stim,response,Iceland trip,1566.8000000015018,enc_trial,1.0,4.0,t_i_15_1,travel_Iceland,fold-a,compass,3.0,unique,far,paired,t_i_15_1.jpg,Iceland,travel-b1,Iceland trip,Miami trip,sub-59,1.0,1.0,1.0,1.0,0.486328125 0.480078125 0.463671875 0.434765625 0.400390625 0.369140625 0.338671875 0.305859375 0.275390625 0.256640625 0.234765625 0.216796875 0.201953125 0.192578125 0.189453125 0.189453125 0.188671875 0.187890625 0.187890625 0.187890625 0.186328125 0.181640625 0.171484375 0.162890625 0.157421875 0.156640625 0.156640625,0.8114583333333334 0.8041666666666667 0.778125 0.7291666666666667 0.6520833333333333 0.5645833333333333 0.4760416666666667 0.3979166666666667 0.3302083333333333 0.2895833333333333 0.23750000000000004 0.19791666666666666 0.16874999999999996 0.14166666666666672 0.125 0.11562499999999998 0.11250000000000004 0.11250000000000004 0.11250000000000004 0.11250000000000004 0.11562499999999998 0.12291666666666667 0.1322916666666667 0.13958333333333328 0.14270833333333333 0.14375000000000004 0.14375000000000004,1056.9000000000233 1076.9000000000233 1096.9000000000233 1116.9000000000233 1136.9000000000233 1156.9000000000233 1176.9000000000233 1196.9000000000233 1216.9000000000233 1236.9000000000233 1256.9000000000233 1276.9000000000233 1296.9000000000233 1316.9000000000233 1336.9000000000233 1356.9000000000233 1376.9000000000233 1396.9000000000233 1416.9000000000233 1436.9000000000233 1456.9000000000233 1476.9000000000233 1496.9000000000233 1516.9000000000233 1536.9000000000233 1556.9000000000233 1576.9000000000233
cb_03,5.0,enc_trial,stim,response,Miami trip,1505.7000000029807,enc_trial,1.0,5.0,t_s_23_1,travel_shared,fold-c,ball cap,3.0,competing,far,paired,t_s_23_1.jpg,,travel-b1,Iceland trip,Miami trip,sub-59,1.0,1.0,0.0,0.0,0.508203125 0.507421875 0.506640625 0.508203125 0.516015625 0.527734375 0.534765625 0.537890625 0.541796875 0.544140625 0.547265625 0.548046875 0.548046875 0.548828125 0.553515625 0.566796875 0.583203125 0.592578125 0.601953125 0.608984375 0.625390625 0.653515625 0.686328125 0.719140625 0.748046875 0.767578125 0.791015625 0.805078125 0.811328125 0.816015625 0.819921875 0.822265625 0.825390625 0.828515625 0.833203125 0.837890625 0.841015625 0.841015625 0.841796875,0.8041666666666667 0.8020833333333334 0.796875 0.78125 0.7458333333333333 0.7041666666666666 0.675 0.6541666666666667 0.6375 0.6302083333333333 0.6229166666666667 0.6229166666666667 0.6229166666666667 0.6208333333333333 0.6072916666666667 0.5802083333333333 0.5458333333333334 0.5260416666666667 0.503125 0.4875 0.45625 0.4135416666666667 0.3666666666666667 0.31770833333333337 0.27083333333333337 0.2416666666666667 0.20729166666666665 0.1875 0.17708333333333334 0.16874999999999996 0.16249999999999998 0.15937500000000004 0.15416666666666667 0.15000000000000002 0.14375000000000004 0.13958333333333328 0.13749999999999996 0.13749999999999996 0.13749999999999996,702.2999999999884 722.2999999999884 742.2999999999884 762.2999999999884 782.2999999999884 802.2999999999884 822.2999999999884 842.2999999999884 862.2999999999884 882.2999999999884 902.2999999999884 922.2999999999884 942.2999999999884 962.2999999999884 982.2999999999884 1002.2999999999884 1022.2999999999884 1042.2999999999884 1062.2999999999884 1082.2999999999884 1102.2999999999884 1122.2999999999884 1142.2999999999886 1162.2999999999886 1182.2999999999886 1202.2999999999886 1222.2999999999886 1242.2999999999886 1262.2999999999886 1282.2999999999886 1302.2999999999886 1322.2999999999886 1342.2999999999886 1362.2999999999886 1382.2999999999884 1402.2999999999884 1422.2999999999884 1442.2999999999884 1462.2999999999884
cb_03,6.0,enc_trial,stim,response,Miami trip,1897.7999999999884,enc_trial,1.0,6.0,t_s_04_2,travel_shared,fold-c,instant camera,3.0,competing,far,paired,t_s_04_2.jpg,,travel-b1,Iceland trip,Miami trip,sub-59,1.0,1.0,1.0,1.0,0.491796875 0.491015625 0.491015625 0.491015625 0.489453125 0.488671875 0.486328125 0.484765625 0.483203125 0.483203125 0.481640625 0.480078125 0.478515625 0.476953125 0.475390625 0.473046875 0.469921875 0.466015625 0.460546875 0.450390625 0.436328125 0.416796875 0.391796875 0.364453125 0.339453125 0.320703125 0.288671875 0.258984375 0.237890625 0.225390625 0.221484375 0.220703125 0.219921875 0.219921875 0.223046875 0.238671875 0.286328125 0.383203125 0.498828125 0.591015625 0.676171875 0.723046875 0.769140625 0.794140625 0.803515625 0.808203125 0.812109375 0.817578125 0.823828125 0.826953125 0.829296875 0.831640625 0.833203125 0.834765625,0.8177083333333334 0.815625 0.8083333333333333 0.7989583333333333 0.790625 0.7833333333333333 0.771875 0.7583333333333333 0.7416666666666667 0.73125 0.7145833333333333 0.7 0.6791666666666667 0.6572916666666666 0.6354166666666667 0.6166666666666667 0.5989583333333333 0.5854166666666667 0.5635416666666666 0.5333333333333333 0.4958333333333334 0.4552083333333333 0.4166666666666666 0.37916666666666665 0.3458333333333333 0.3270833333333333 0.30104166666666665 0.28125 0.2666666666666667 0.25416666666666665 0.2479166666666667 0.24375 0.23854166666666665 0.234375 0.22083333333333333 0.20208333333333328 0.17500000000000004 0.14166666666666672 0.11875000000000002 0.11354166666666665 0.11250000000000004 0.11145833333333333 0.11041666666666672 0.11250000000000004 0.11250000000000004 0.11354166666666665 0.11458333333333336 0.11458333333333336 0.1166666666666667 0.1166666666666667 0.1177083333333333 0.1177083333333333 0.1177083333333333 0.1177083333333333,799.6999999999823 819.6999999999823 839.6999999999823 859.6999999999823 879.6999999999823 899.6999999999823 919.6999999999823 939.6999999999823 959.6999999999823 979.6999999999823 999.6999999999823 1019.6999999999823 1039.6999999999823 1059.6999999999823 1079.6999999999823 1099.6999999999823 1119.6999999999823 1139.6999999999825 1159.6999999999825 1179.6999999999825 1199.6999999999825 1219.6999999999825 1239.6999999999825 1259.6999999999825 1279.6999999999825 1299.6999999999825 1319.6999999999825 1339.6999999999825 1359.6999999999825 1379.6999999999825 1399.6999999999825 1419.6999999999825 1439.6999999999825 1459.6999999999825 1479.6999999999825 1499.6999999999825 1519.6999999999825 1539.6999999999825 1559.6999999999825 1579.6999999999825 1599.6999999999825 1619.6999999999825 1639.6999999999825 1659.6999999999825 1679.6999999999825 1699.6999999999825 1719.6999999999825 1739.6999999999825 1759.6999999999825 1779.6999999999825 1799.6999999999825 1819.6999999999825 1839.6999999999825 1859.6999999999825
cb_03,7.0,enc_trial,stim,response,Iceland trip,2371.200000000012,enc_trial,1.0,7.0,t_m_04_1,travel_Miami,fold-e,UV jacket,3.0,unique,close,paired,t_m_04_1.jpg,Miami,travel-b1,Iceland trip,Miami trip,sub-59,1.0,1.0,0.0,0.0,0.492578125 0.490234375 0.486328125 0.479296875 0.470703125 0.455078125 0.422265625 0.380078125 0.336328125 0.305859375 0.267578125 0.238671875 0.220703125 0.209765625 0.206640625 0.205078125 0.205078125 0.205078125 0.205078125 0.205078125 0.205078125 0.205078125 0.204296875 0.202734375 0.201953125 0.201171875 0.201171875 0.201171875 0.201171875 0.200390625 0.198828125 0.198046875 0.195703125 0.192578125 0.185546875 0.176953125 0.172265625 0.170703125 0.170703125 0.170703125 0.170703125 0.180078125 0.241015625 0.347265625 0.477734375 0.601953125 0.700390625 0.777734375 0.815234375 0.831640625 0.842578125 0.844140625 0.844140625 0.844140625 0.844140625 0.844140625 0.844140625 0.844140625 0.844140625 0.844140625 0.844140625 0.842578125 0.828515625 0.776953125 0.672265625 0.586328125 0.457421875 0.357421875 0.284765625 0.241015625 0.221484375 0.219140625 0.219140625 0.219140625 0.219140625 0.219140625 0.219140625 0.216796875 0.208984375 0.191015625 0.169921875 0.156640625 0.144140625 0.139453125 0.137890625,0.81875 0.8166666666666667 0.80625 0.7875 0.7583333333333333 0.709375 0.6291666666666667 0.5302083333333334 0.4364583333333333 0.378125 0.309375 0.26041666666666663 0.228125 0.2083333333333333 0.19791666666666666 0.19375 0.1927083333333333 0.1927083333333333 0.1927083333333333 0.1927083333333333 0.19166666666666665 0.19166666666666665 0.19062500000000004 0.1875 0.18645833333333328 0.18645833333333328 0.18645833333333328 0.18645833333333328 0.18645833333333328 0.18645833333333328 0.18541666666666667 0.18541666666666667 0.18541666666666667 0.18333333333333326 0.18229166666666666 0.18125 0.1791666666666667 0.17812499999999998 0.17812499999999998 0.17812499999999998 0.17812499999999998 0.17812499999999998 0.17604166666666665 0.17500000000000004 0.17500000000000004 0.17291666666666672 0.17083333333333328 0.17291666666666672 0.171875 0.16979166666666667 0.16770833333333335 0.16770833333333335 0.16770833333333335 0.16770833333333335 0.16770833333333335 0.16770833333333335 0.16666666666666666 0.16666666666666666 0.16666666666666666 0.16666666666666666 0.16666666666666666 0.16666666666666666 0.1645833333333333 0.16666666666666666 0.17500000000000004 0.17604166666666665 0.1645833333333333 0.14166666666666672 0.12187499999999996 0.11250000000000004 0.11250000000000004 0.11250000000000004 0.11250000000000004 0.11250000000000004 0.11250000000000004 0.11250000000000004 0.11250000000000004 0.11458333333333336 0.12083333333333335 0.13124999999999998 0.14166666666666672 0.14687499999999998 0.15000000000000002 0.15000000000000002 0.15104166666666666,702.2999999999884 722.2999999999884 742.2999999999884 762.2999999999884 782.2999999999884 802.2999999999884 822.2999999999884 842.2999999999884 862.2999999999884 882.2999999999884 902.2999999999884 922.2999999999884 942.2999999999884 962.2999999999884 982.2999999999884 1002.2999999999884 1022.2999999999884 1042.2999999999884 1062.2999999999884 1082.2999999999884 1102.2999999999884 1122.2999999999884 1142.2999999999886 1162.2999999999886 1182.2999999999886 1202.2999999999886 1222.2999999999886 1242.2999999999886 1262.2999999999886 1282.2999999999886 1302.2999999999886 1322.2999999999886 1342.2999999999886 1362.2999999999886 1382.2999999999884 1402.2999999999884 1422.2999999999884 1442.2999999999884 1462.2999999999884 1482.2999999999884 1502.2999999999884 1522.2999999999884 1542.2999999999884 1562.2999999999884 1582.2999999999884 1602.2999999999884 1622.2999999999884 1642.2999999999884 1662.2999999999884 1682.2999999999884 1702.2999999999884 1722.2999999999884 1742.2999999999884 1762.2999999999884 1782.2999999999884 1802.2999999999884 1822.2999999999884 1842.2999999999884 1862.2999999999884 1882.2999999999884 1902.2999999999884 1922.2999999999884 1942.2999999999884 1962.2999999999884 1982.2999999999884 2002.2999999999884 2022.2999999999884 2042.2999999999884 2062.2999999999884 2082.2999999999884 2102.2999999999884 2122.2999999999884 2142.2999999999884 2162.2999999999884 2182.2999999999884 2202.2999999999884 2222.2999999999884 2242.2999999999884 2262.2999999999884 2282.2999999999884 2302.2999999999884 2322.2999999999884 2342.2999999999884 2362.2999999999884 2382.2999999999884
cb_03,8.0,enc_trial,stim,response,Iceland trip,1122.699999997014,enc_trial,1.0,8.0,t_i_19_1,travel_Iceland,fold-b-single,rope,3.0,unique,,single,t_i_19_1.jpg,Iceland,travel-b1,Iceland trip,Miami trip,sub-59,1.0,,1.0,,0.511328125 0.511328125 0.511328125 0.516015625 0.535546875 0.562109375 0.580078125 0.583203125 0.574609375 0.551171875 0.518359375 0.469140625 0.394921875 0.307421875 0.235546875 0.204296875 0.191015625 0.186328125 0.184765625 0.183984375 0.181640625 0.178515625 0.173828125 0.168359375 0.166015625 0.164453125 0.162890625 0.160546875,0.828125 0.8229166666666666 0.8072916666666666 0.7729166666666667 0.7020833333333334 0.6041666666666667 0.4927083333333333 0.3875 0.33125000000000004 0.2666666666666667 0.22083333333333333 0.19062500000000004 0.171875 0.15520833333333328 0.13645833333333335 0.12708333333333333 0.12395833333333328 0.12291666666666667 0.12187499999999996 0.12083333333333335 0.1177083333333333 0.11458333333333336 0.11250000000000004 0.11041666666666672 0.11041666666666672 0.11041666666666672 0.11145833333333333 0.11354166666666665,577.1000000000057 597.1000000000057 617.1000000000057 637.1000000000057 657.1000000000057 677.1000000000057 697.1000000000058 717.1000000000058 737.1000000000058 757.1000000000058 777.1000000000058 797.1000000000058 817.1000000000058 837.1000000000058 857.1000000000058 877.1000000000058 897.1000000000058 917.1000000000056 937.1000000000056 957.1000000000056 977.1000000000056 997.1000000000056 1017.1000000000056 1037.1000000000058 1057.1000000000058 1077.1000000000058 1097.1000000000058 1117.1000000000058
cb_03,9.0,enc_trial,stim,response,Iceland trip,1241.3000000015018,enc_trial,1.0,9.0,t_s_11_1,travel_shared,fold-a-single,eye mask,3.0,competing,,single,t_s_11_1.jpg,,travel-b1,Iceland trip,Miami trip,sub-59,1.0,,1.0,,0.512890625 0.512109375 0.508984375 0.502734375 0.494140625 0.483203125 0.472265625 0.462109375 0.454296875 0.448828125 0.444140625 0.442578125 0.440234375 0.433203125 0.419140625 0.405078125 0.394140625 0.389453125 0.385546875 0.387890625 0.395703125 0.401953125 0.405859375 0.416796875 0.439453125 0.456640625 0.469140625 0.468359375 0.459765625 0.443359375 0.427734375 0.416796875 0.408203125 0.402734375 0.392578125 0.380859375 0.373046875 0.362109375 0.342578125 0.313671875 0.275390625 0.248046875 0.215234375 0.191796875 0.176953125 0.169140625 0.167578125,0.81875 0.8177083333333334 0.8125 0.8010416666666667 0.7822916666666666 0.7572916666666667 0.7333333333333334 0.7083333333333333 0.6854166666666667 0.66875 0.6416666666666666 0.6104166666666666 0.5770833333333334 0.5479166666666666 0.5145833333333334 0.48125 0.453125 0.4364583333333333 0.41041666666666665 0.3822916666666667 0.3520833333333333 0.3291666666666667 0.3125 0.29166666666666663 0.265625 0.2520833333333333 0.240625 0.23750000000000004 0.2333333333333333 0.2260416666666667 0.21458333333333326 0.20625000000000004 0.20104166666666667 0.19895833333333326 0.1958333333333333 0.19375 0.19166666666666665 0.18958333333333333 0.18854166666666672 0.18541666666666667 0.184375 0.18333333333333326 0.1802083333333333 0.17500000000000004 0.16979166666666667 0.16666666666666666 0.16666666666666666,229.5 249.5 269.5 289.5 309.5 329.5 349.5 369.5 389.5 409.5 429.5 449.5 469.5 489.5 509.5 529.5 549.5 569.5 589.5 609.5 629.5 649.5 669.5 689.5 709.5 729.5 749.5 769.5 789.5 809.5 829.5 849.5 869.5 889.5 909.5 929.5 949.5 969.5 989.5 1009.5 1029.5 1049.5 1069.5 1089.5 1109.5 1129.5 1149.5
cb_03,10.0,enc_trial,stim,response,Iceland trip,1727.4999999985157,enc_trial,1.0,10.0,t_s_02_2,travel_shared,fold-b,water bottle,3.0,competing,close,paired,t_s_02_2.jpg,,travel-b1,Iceland trip,Miami trip,sub-59,1.0,1.0,0.0,1.0,0.498046875 0.497265625 0.497265625 0.497265625 0.496484375 0.496484375 0.495703125 0.495703125 0.494921875 0.494921875 0.493359375 0.492578125 0.492578125 0.493359375 0.501171875 0.516015625 0.530859375 0.539453125 0.559765625 0.583984375 0.609765625 0.629296875 0.637890625 0.640234375 0.644140625 0.648828125 0.656640625 0.662890625 0.666015625 0.666015625 0.668359375 0.673046875 0.678515625 0.682421875 0.685546875 0.683984375 0.675390625 0.653515625 0.608203125 0.541015625 0.461328125 0.406640625 0.324609375 0.250390625 0.188671875 0.142578125 0.116015625 0.104296875 0.103515625,0.8145833333333333 0.8145833333333333 0.8135416666666666 0.8114583333333334 0.8104166666666667 0.8104166666666667 0.8083333333333333 0.803125 0.79375 0.7854166666666667 0.7760416666666666 0.76875 0.759375 0.7416666666666667 0.7041666666666666 0.6479166666666667 0.59375 0.5604166666666667 0.5104166666666667 0.4572916666666666 0.4041666666666667 0.37083333333333335 0.35416666666666663 0.34687500000000004 0.33854166666666663 0.33333333333333337 0.32291666666666663 0.3145833333333333 0.309375 0.30729166666666663 0.30104166666666665 0.29166666666666663 0.2833333333333333 0.278125 0.27083333333333337 0.2645833333333333 0.2572916666666667 0.2479166666666667 0.23750000000000004 0.2270833333333333 0.215625 0.203125 0.18333333333333326 0.16562500000000002 0.1489583333333333 0.13749999999999996 0.13124999999999998 0.12708333333333333 0.12708333333333333,618.8999999999943 638.8999999999943 658.8999999999943 678.8999999999943 698.8999999999942 718.8999999999942 738.8999999999942 758.8999999999942 778.8999999999942 798.8999999999942 818.8999999999942 838.8999999999942 858.8999999999942 878.8999999999942 898.8999999999942 918.8999999999944 938.8999999999944 958.8999999999944 978.8999999999944 998.8999999999944 1018.8999999999944 1038.8999999999942 1058.8999999999942 1078.8999999999942 1098.8999999999942 1118.8999999999942 1138.8999999999942 1158.8999999999942 1178.8999999999942 1198.8999999999942 1218.8999999999942 1238.8999999999942 1258.8999999999942 1278.8999999999942 1298.8999999999942 1318.8999999999942 1338.8999999999942 1358.8999999999942 1378.8999999999942 1398.8999999999942 1418.8999999999942 1438.8999999999942 1458.8999999999942 1478.8999999999942 1498.8999999999942 1518.8999999999942 1538.8999999999942 1558.8999999999942 1578.8999999999942
cb_03,11.0,enc_trial,stim,response,Miami trip,1303.5000000029684,enc_trial,1.0,11.0,t_m_20_1,travel_Miami,fold-e,inflatable beachball,3.0,unique,close,paired,t_m_20_1.jpg,Miami,travel-b1,Iceland trip,Miami trip,sub-59,1.0,1.0,1.0,1.0,0.508984375 0.508203125 0.508203125 0.508203125 0.508203125 0.508203125 0.508203125 0.508203125 0.508203125 0.506640625 0.505078125 0.501953125 0.496484375 0.486328125 0.466015625 0.445703125 0.436328125 0.434765625 0.464453125 0.558203125 0.673046875 0.761328125 0.808203125 0.832421875 0.843359375 0.846484375 0.850390625 0.850390625 0.849609375 0.850390625 0.856640625 0.859765625,0.8229166666666666 0.8208333333333333 0.8166666666666667 0.8145833333333333 0.8125 0.8104166666666667 0.8083333333333333 0.8083333333333333 0.80625 0.8041666666666667 0.7979166666666666 0.7833333333333333 0.7583333333333333 0.7229166666666667 0.665625 0.5864583333333333 0.50625 0.4645833333333334 0.4041666666666667 0.3375 0.2729166666666667 0.228125 0.20208333333333328 0.1875 0.17500000000000004 0.16666666666666666 0.14583333333333334 0.13124999999999998 0.12395833333333328 0.11458333333333336 0.10416666666666664 0.09999999999999998,660.5 680.5 700.5 720.5 740.5 760.5 780.5 800.5 820.5 840.5 860.5 880.5 900.5 920.5 940.5 960.5 980.5 1000.5 1020.5 1040.5 1060.5 1080.5 1100.5 1120.5 1140.5 1160.5 1180.5 1200.5 1220.5 1240.5 1260.5 1280.5
cb_03,12.0,enc_trial,stim,response,Miami trip,1673.8000000015018,enc_trial,1.0,12.0,t_m_01_1,travel_Miami,fold-a,sandals,3.0,unique,far,paired,t_m_01_1.jpg,Miami,travel-b1,Iceland trip,Miami trip,sub-59,1.0,1.0,1.0,1.0,0.491015625 0.491015625 0.490234375 0.488671875 0.487890625 0.489453125 0.489453125 0.480078125 0.457421875 0.437890625 0.401171875 0.362890625 0.319140625 0.268359375 0.219921875 0.187890625 0.169140625 0.162890625 0.158203125 0.157421875 0.157421875 0.157421875 0.157421875 0.157421875 0.158203125 0.158203125 0.158203125 0.158203125 0.158203125 0.158203125 0.158203125 0.158203125 0.158203125 0.158203125 0.158203125 0.158203125 0.158203125 0.159765625 0.159765625 0.159765625 0.159765625 0.159765625 0.163671875 0.199609375 0.258984375 0.292578125 0.306640625 0.333984375 0.423828125 0.500390625 0.604296875 0.676953125 0.722265625 0.769921875 0.798828125 0.808984375 0.808984375 0.808984375 0.809765625 0.813671875 0.817578125 0.819921875 0.822265625 0.822265625,0.8270833333333334 0.825 0.8166666666666667 0.7979166666666666 0.7645833333333334 0.7145833333333333 0.6552083333333334 0.5947916666666666 0.5270833333333333 0.48125 0.4072916666666667 0.34687500000000004 0.29166666666666663 0.24479166666666666 0.20625000000000004 0.17708333333333334 0.15833333333333333 0.15000000000000002 0.13958333333333328 0.1333333333333333 0.12812500000000004 0.125 0.12395833333333328 0.12291666666666667 0.12291666666666667 0.12291666666666667 0.12291666666666667 0.12291666666666667 0.12291666666666667 0.12291666666666667 0.12291666666666667 0.12291666666666667 0.12291666666666667 0.12291666666666667 0.12291666666666667 0.12291666666666667 0.12291666666666667 0.12291666666666667 0.12291666666666667 0.12291666666666667 0.12291666666666667 0.12291666666666667 0.12291666666666667 0.125 0.125 0.12812500000000004 0.1322916666666667 0.13020833333333334 0.12083333333333335 0.11458333333333336 0.10833333333333328 0.11041666666666672 0.11458333333333336 0.11041666666666672 0.10833333333333328 0.10833333333333328 0.10833333333333328 0.10833333333333328 0.109375 0.11041666666666672 0.11250000000000004 0.11458333333333336 0.11562499999999998 0.11562499999999998,424.1000000000058 444.1000000000058 464.1000000000058 484.1000000000058 504.1000000000058 524.1000000000058 544.1000000000058 564.1000000000057 584.1000000000057 604.1000000000057 624.1000000000057 644.1000000000057 664.1000000000057 684.1000000000057 704.1000000000058 724.1000000000058 744.1000000000058 764.1000000000058 784.1000000000058 804.1000000000058 824.1000000000058 844.1000000000058 864.1000000000058 884.1000000000058 904.1000000000058 924.1000000000058 944.1000000000058 964.1000000000058 984.1000000000058 1004.1000000000058 1024.1000000000058 1044.1000000000058 1064.1000000000058 1084.1000000000058 1104.1000000000058 1124.1000000000058 1144.1000000000058 1164.1000000000058 1184.1000000000058 1204.1000000000058 1224.1000000000058 1244.1000000000058 1264.1000000000058 1284.1000000000058 1304.1000000000058 1324.1000000000058 1344.1000000000058 1364.1000000000058 1384.1000000000058 1404.1000000000058 1424.1000000000058 1444.1000000000058 1464.1000000000058 1484.1000000000058 1504.1000000000058 1524.1000000000058 1544.1000000000058 1564.1000000000058 1584.1000000000058 1604.1000000000058 1624.1000000000058 1644.1000000000058 1664.1000000000058 1684.1000000000058
cb_03,13.0,enc_trial,stim,response,Iceland trip,1339.8999999970254,enc_trial,1.0,13.0,t_m_04_2,travel_Miami,fold-e,UV jacket,3.0,unique,close,paired,t_m_04_2.jpg,Miami,travel-b1,Iceland trip,Miami trip,sub-59,1.0,1.0,0.0,0.0,0.494140625 0.494140625 0.494140625 0.494140625 0.494140625 0.494140625 0.494140625 0.494140625 0.494140625 0.494140625 0.494140625 0.494140625 0.494140625 0.494140625 0.494140625 0.494140625 0.494140625 0.494140625 0.494140625 0.494140625 0.494140625 0.495703125 0.501171875 0.508203125 0.512109375 0.512890625 0.512890625 0.512109375 0.506640625 0.494921875 0.473046875 0.436328125 0.374609375 0.322265625 0.233984375 0.158203125 0.122265625 0.111328125 0.111328125 0.112890625 0.117578125 0.122265625 0.127734375 0.132421875 0.136328125 0.138671875 0.141796875 0.144140625 0.145703125 0.146484375 0.147265625,0.8104166666666667 0.8104166666666667 0.8083333333333333 0.80625 0.803125 0.8 0.796875 0.79375 0.7927083333333333 0.7927083333333333 0.7927083333333333 0.7927083333333333 0.7927083333333333 0.7927083333333333 0.7927083333333333 0.7927083333333333 0.7916666666666666 0.7895833333333333 0.7854166666666667 0.7802083333333334 0.771875 0.7552083333333334 0.7291666666666667 0.6979166666666667 0.6708333333333334 0.6541666666666667 0.6270833333333333 0.5791666666666666 0.515625 0.45 0.3875 0.33229166666666665 0.27083333333333337 0.2270833333333333 0.1645833333333333 0.11354166666666665 0.09479166666666672 0.08958333333333335 0.08958333333333335 0.08958333333333335 0.09166666666666667 0.09270833333333328 0.09479166666666672 0.09687500000000004 0.09791666666666664 0.09999999999999998 0.1010416666666667 0.1020833333333333 0.10312500000000002 0.10416666666666664 0.10416666666666664,0.0 20.0 40.0 60.0 80.0 100.0 120.0 140.0 160.0 180.0 200.0 220.0 240.0 260.0 280.0 300.0 320.0 340.0 360.0 380.0 400.0 420.0 440.0 460.0 480.0 500.0 520.0 540.0 560.0 580.0 600.0 620.0 640.0 660.0 680.0 700.0 720.0 740.0 760.0 780.0 800.0 820.0 840.0 860.0 880.0 900.0 920.0 940.0 960.0 980.0 1000.0
cb_03,14.0,enc_trial,stim,response,Miami trip,1646.8000000015018,enc_trial,1.0,14.0,t_s_06_1,travel_shared,fold-b,luggage,3.0,competing,close,paired,t_s_06_1.jpg,,travel-b1,Iceland trip,Miami trip,sub-59,1.0,1.0,1.0,1.0,0.508984375 0.508203125 0.507421875 0.505078125 0.502734375 0.498828125 0.494921875 0.491015625 0.489453125 0.491796875 0.502734375 0.515234375 0.523828125 0.528515625 0.541796875 0.573046875 0.610546875 0.630859375 0.651953125 0.662890625 0.669140625 0.673046875 0.674609375 0.676953125 0.679296875 0.682421875 0.687890625 0.699609375 0.712890625 0.720703125 0.725390625 0.734765625 0.748828125 0.758984375 0.769140625 0.773046875 0.775390625 0.779296875 0.783984375 0.786328125 0.786328125 0.786328125 0.786328125 0.788671875 0.792578125 0.796484375 0.801953125 0.812109375 0.825390625 0.832421875 0.839453125 0.844921875 0.846484375 0.846484375 0.847265625,0.8166666666666667 0.8166666666666667 0.8135416666666666 0.8083333333333333 0.8 0.7895833333333333 0.7802083333333334 0.7708333333333334 0.75 0.728125 0.6822916666666667 0.634375 0.59375 0.5604166666666667 0.5125 0.44375 0.36875 0.3291666666666667 0.2802083333333333 0.25416666666666665 0.2395833333333333 0.23125 0.22916666666666666 0.225 0.21979166666666672 0.21666666666666667 0.209375 0.19791666666666666 0.1875 0.18125 0.17812499999999998 0.17291666666666672 0.1645833333333333 0.15937500000000004 0.15416666666666667 0.15312499999999996 0.15208333333333335 0.15000000000000002 0.1479166666666667 0.14583333333333334 0.14583333333333334 0.14583333333333334 0.14583333333333334 0.14583333333333334 0.14479166666666665 0.14375000000000004 0.14270833333333333 0.140625 0.13749999999999996 0.13645833333333335 0.13541666666666666 0.13541666666666666 0.13541666666666666 0.13541666666666666 0.13437500000000002,500.6000000000058 520.6000000000058 540.6000000000058 560.6000000000058 580.6000000000057 600.6000000000057 620.6000000000057 640.6000000000057 660.6000000000057 680.6000000000057 700.6000000000058 720.6000000000058 740.6000000000058 760.6000000000058 780.6000000000058 800.6000000000058 820.6000000000058 840.6000000000058 860.6000000000058 880.6000000000058 900.6000000000058 920.6000000000058 940.6000000000058 960.6000000000058 980.6000000000058 1000.6000000000058 1020.6000000000058 1040.6000000000058 1060.6000000000058 1080.6000000000058 1100.6000000000058 1120.6000000000058 1140.6000000000058 1160.6000000000058 1180.6000000000058 1200.6000000000058 1220.6000000000058 1240.6000000000058 1260.6000000000058 1280.6000000000058 1300.6000000000058 1320.6000000000058 1340.6000000000058 1360.6000000000058 1380.6000000000058 1400.6000000000058 1420.6000000000058 1440.6000000000058 1460.6000000000058 1480.6000000000058 1500.6000000000058 1520.6000000000058 1540.6000000000058 1560.6000000000058 1580.6000000000058
cb_03,15.0,enc_trial,stim,response,Miami trip,1172.7999999999886,enc_trial,1.0,15.0,t_m_17_1,travel_Miami,fold-a,water gun,3.0,unique,far,paired,t_m_17_1.jpg,Miami,travel-b1,Iceland trip,Miami trip,sub-59,1.0,1.0,1.0,1.0,0.490234375 0.489453125 0.488671875 0.487890625 0.487109375 0.487109375 0.486328125 0.486328125 0.487890625 0.491796875 0.509765625 0.550390625 0.614453125 0.685546875 0.751953125 0.805078125 0.843359375 0.860546875 0.876171875 0.882421875 0.883203125,0.8166666666666667 0.815625 0.8145833333333333 0.8125 0.8114583333333334 0.8104166666666667 0.8083333333333333 0.8020833333333334 0.7927083333333333 0.7791666666666667 0.7322916666666667 0.64375 0.5177083333333333 0.39375 0.296875 0.21666666666666667 0.16666666666666666 0.14583333333333334 0.12812500000000004 0.12395833333333328 0.12395833333333328,674.3999999999653 694.3999999999652 714.3999999999652 734.3999999999652 754.3999999999652 774.3999999999652 794.3999999999652 814.3999999999652 834.3999999999652 854.3999999999652 874.3999999999652 894.3999999999652 914.3999999999652 934.3999999999652 954.3999999999652 974.3999999999652 994.3999999999652 1014.3999999999652 1034.3999999999653 1054.3999999999653 1074.3999999999653
cb_03,16.0,enc_trial,stim,response,Miami trip,1578.3999999999646,enc_trial,1.0,16.0,t_m_20_2,travel_Miami,fold-e,inflatable beachball,3.0,unique,close,paired,t_m_20_2.jpg,Miami,travel-b1,Iceland trip,Miami trip,sub-59,1.0,1.0,1.0,1.0,0.487890625 0.487890625 0.491015625 0.503515625 0.536328125 0.587890625 0.655078125 0.719921875 0.756640625 0.779296875 0.806640625 0.830859375 0.848046875 0.856640625 0.861328125 0.863671875 0.865234375 0.866796875 0.869140625 0.870703125 0.870703125 0.871484375 0.871484375 0.871484375 0.871484375 0.871484375 0.871484375 0.871484375 0.871484375 0.871484375 0.872265625 0.872265625 0.872265625 0.872265625 0.873046875 0.873046875 0.873828125 0.873828125 0.873046875 0.872265625 0.872265625 0.872265625 0.872265625 0.872265625 0.872265625 0.872265625 0.869921875 0.860546875 0.849609375 0.847265625 0.847265625 0.847265625 0.848828125 0.853515625 0.853515625,0.809375 0.8052083333333333 0.7947916666666667 0.7666666666666666 0.7125 0.6333333333333333 0.5333333333333333 0.42708333333333337 0.3520833333333333 0.30625 0.25625 0.21666666666666667 0.1802083333333333 0.15625 0.13854166666666667 0.12916666666666665 0.12187499999999996 0.1177083333333333 0.11354166666666665 0.11250000000000004 0.11041666666666672 0.11041666666666672 0.11041666666666672 0.11041666666666672 0.11041666666666672 0.11041666666666672 0.11041666666666672 0.11041666666666672 0.11041666666666672 0.11041666666666672 0.11041666666666672 0.11041666666666672 0.11041666666666672 0.11041666666666672 0.11145833333333333 0.11250000000000004 0.11250000000000004 0.11458333333333336 0.1166666666666667 0.11875000000000002 0.11875000000000002 0.11875000000000002 0.11875000000000002 0.11875000000000002 0.11875000000000002 0.11875000000000002 0.12083333333333335 0.12916666666666665 0.13541666666666666 0.13749999999999996 0.13749999999999996 0.13749999999999996 0.13749999999999996 0.13749999999999996 0.13749999999999996,507.60000000003487 527.6000000000348 547.6000000000348 567.600000000035 587.6000000000353 607.6000000000353 627.6000000000353 647.6000000000353 667.6000000000354 687.6000000000354 707.6000000000354 727.6000000000356 747.6000000000356 767.6000000000356 787.6000000000356 807.6000000000357 827.6000000000357 847.6000000000357 867.6000000000357 887.6000000000361 907.6000000000361 927.6000000000361 947.6000000000361 967.6000000000363 987.6000000000363 1007.6000000000363 1027.6000000000363 1047.6000000000363 1067.6000000000363 1087.6000000000363 1107.6000000000363 1127.6000000000367 1147.6000000000367 1167.6000000000367 1187.6000000000367 1207.600000000037 1227.600000000037 1247.600000000037 1267.600000000037 1287.6000000000372 1307.6000000000372 1327.6000000000372 1347.6000000000372 1367.6000000000374 1387.6000000000374 1407.6000000000374 1427.6000000000374 1447.6000000000374 1467.6000000000374 1487.6000000000374 1507.6000000000374 1527.600000000038 1547.600000000038 1567.600000000038 1587.600000000038
cb_03,17.0,enc_trial,stim,response,Iceland trip,1170.7999999970198,enc_trial,1.0,17.0,t_i_15_2,travel_Iceland,fold-a,compass,3.0,unique,far,paired,t_i_15_2.jpg,Iceland,travel-b1,Iceland trip,Miami trip,sub-59,1.0,1.0,1.0,1.0,0.501171875 0.501171875 0.501171875 0.499609375 0.494921875 0.483984375 0.466015625 0.446484375 0.433203125 0.426953125 0.423828125 0.423828125 0.423828125 0.430078125 0.439453125 0.448828125 0.453515625 0.453515625 0.450390625 0.441015625 0.423046875 0.402734375 0.380859375 0.358984375 0.334765625 0.315234375 0.286328125 0.261328125 0.236328125 0.212109375 0.190234375 0.176953125 0.172265625,0.8166666666666667 0.8145833333333333 0.8083333333333333 0.7895833333333333 0.7541666666666667 0.6979166666666667 0.6333333333333333 0.5770833333333334 0.546875 0.5375 0.53125 0.5291666666666667 0.5229166666666667 0.509375 0.4916666666666667 0.4729166666666666 0.4572916666666666 0.44895833333333335 0.4322916666666666 0.4125 0.3895833333333333 0.36354166666666665 0.3375 0.3104166666666667 0.2822916666666667 0.26041666666666663 0.2302083333333333 0.20208333333333328 0.17812499999999998 0.15833333333333333 0.14583333333333334 0.140625 0.13958333333333328,486.7000000000117 506.7000000000117 526.7000000000116 546.7000000000116 566.7000000000116 586.7000000000116 606.7000000000116 626.7000000000116 646.7000000000116 666.7000000000116 686.7000000000116 706.7000000000116 726.7000000000116 746.7000000000116 766.7000000000116 786.7000000000116 806.7000000000116 826.7000000000116 846.7000000000116 866.7000000000116 886.7000000000116 906.7000000000116 926.7000000000116 946.7000000000116 966.7000000000116 986.7000000000116 1006.7000000000116 1026.7000000000116 1046.7000000000116 1066.7000000000116 1086.7000000000116 1106.7000000000116 1126.7000000000114
cb_03,18.0,enc_trial,stim,response,Miami trip,1866.2000000014664,enc_trial,1.0,18.0,t_s_24_2,travel_shared,fold-c,ear plugs,3.0,competing,far,paired,t_s_24_2.jpg,,travel-b1,Iceland trip,Miami trip,sub-59,1.0,1.0,0.0,0.0,0.501953125 0.501953125 0.501171875 0.500390625 0.499609375 0.498828125 0.497265625 0.495703125 0.495703125 0.494921875 0.494140625 0.493359375 0.491796875 0.487890625 0.483203125 0.477734375 0.469140625 0.462890625 0.450390625 0.436328125 0.426171875 0.420703125 0.421484375 0.426953125 0.431640625 0.433984375 0.448828125 0.497265625 0.564453125 0.617578125 0.648828125 0.669140625 0.687109375 0.699609375 0.717578125 0.733984375 0.745703125 0.753515625 0.762890625 0.773046875 0.782421875 0.787890625 0.794140625 0.800390625 0.808203125 0.813671875 0.816015625 0.816015625 0.819140625 0.821484375 0.826171875 0.827734375 0.828515625 0.830859375 0.833203125 0.833984375,0.8177083333333334 0.8166666666666667 0.8135416666666666 0.8083333333333333 0.803125 0.796875 0.7916666666666666 0.7885416666666667 0.7854166666666667 0.7833333333333333 0.7833333333333333 0.7791666666666667 0.771875 0.753125 0.721875 0.68125 0.6354166666666667 0.603125 0.5479166666666666 0.4802083333333334 0.40625 0.33854166666666663 0.29375 0.2677083333333333 0.25625 0.2520833333333333 0.24375 0.22916666666666666 0.215625 0.20416666666666672 0.19895833333333326 0.196875 0.19375 0.19062500000000004 0.184375 0.1791666666666667 0.17604166666666665 0.17500000000000004 0.17291666666666672 0.17083333333333328 0.16874999999999996 0.16666666666666666 0.16562500000000002 0.1635416666666667 0.16145833333333334 0.15937500000000004 0.15937500000000004 0.15937500000000004 0.15833333333333333 0.15625 0.15520833333333328 0.15416666666666667 0.15416666666666667 0.15416666666666667 0.15208333333333335 0.15208333333333335,514.5999999999766 534.5999999999766 554.5999999999766 574.5999999999766 594.5999999999766 614.5999999999766 634.5999999999766 654.5999999999766 674.5999999999766 694.5999999999766 714.5999999999766 734.5999999999766 754.5999999999766 774.5999999999766 794.5999999999766 814.5999999999766 834.5999999999766 854.5999999999766 874.5999999999766 894.5999999999766 914.5999999999766 934.5999999999766 954.5999999999766 974.5999999999766 994.5999999999766 1014.5999999999766 1034.5999999999767 1054.5999999999767 1074.5999999999767 1094.5999999999767 1114.5999999999767 1134.5999999999767 1154.5999999999767 1174.5999999999767 1194.5999999999767 1214.5999999999767 1234.5999999999767 1254.5999999999767 1274.5999999999767 1294.5999999999767 1314.5999999999767 1334.5999999999767 1354.5999999999767 1374.5999999999767 1394.5999999999767 1414.5999999999767 1434.5999999999767 1454.5999999999767 1474.5999999999767 1494.5999999999767 1514.5999999999767 1534.5999999999767 1554.5999999999767 1574.5999999999767 1594.5999999999767 1614.5999999999767
cb_03,19.0,enc_trial,stim,response,Iceland trip,1691.4000000014785,enc_trial,1.0,19.0,t_s_23_2,travel_shared,fold-c,ball cap,3.0,competing,far,paired,t_s_23_2.jpg,,travel-b1,Iceland trip,Miami trip,sub-59,1.0,1.0,0.0,0.0,0.501953125 0.501171875 0.500390625 0.498828125 0.498828125 0.498828125 0.497265625 0.497265625 0.494921875 0.492578125 0.487890625 0.483203125 0.477734375 0.470703125 0.460546875 0.448046875 0.432421875 0.419921875 0.404296875 0.386328125 0.362109375 0.337890625 0.314453125 0.298828125 0.287890625 0.283203125 0.278515625 0.276171875 0.275390625 0.272265625 0.266015625 0.253515625 0.234765625 0.221484375 0.203515625 0.187109375 0.172265625 0.159765625 0.151171875 0.145703125 0.144140625,0.7916666666666666 0.7916666666666666 0.7895833333333333 0.7895833333333333 0.7885416666666667 0.7875 0.7875 0.7854166666666667 0.7822916666666666 0.778125 0.76875 0.759375 0.7510416666666666 0.7395833333333333 0.71875 0.6895833333333333 0.6541666666666667 0.6229166666666667 0.5604166666666667 0.4895833333333334 0.4125 0.3395833333333333 0.2791666666666667 0.2395833333333333 0.2125 0.20208333333333328 0.19166666666666665 0.1875 0.18541666666666667 0.18333333333333326 0.18229166666666666 0.18125 0.18541666666666667 0.18645833333333328 0.1875 0.18854166666666672 0.18854166666666672 0.18854166666666672 0.18854166666666672 0.18854166666666672 0.18958333333333333,883.2000000000116 903.2000000000116 923.2000000000116 943.2000000000116 963.2000000000116 983.2000000000116 1003.2000000000116 1023.2000000000116 1043.2000000000116 1063.2000000000116 1083.2000000000116 1103.2000000000116 1123.2000000000116 1143.2000000000114 1163.2000000000114 1183.2000000000114 1203.2000000000114 1223.2000000000114 1243.2000000000114 1263.2000000000114 1283.2000000000114 1303.2000000000114 1323.2000000000114 1343.2000000000114 1363.2000000000114 1383.2000000000116 1403.2000000000116 1423.2000000000116 1443.2000000000116 1463.2000000000116 1483.2000000000116 1503.2000000000116 1523.2000000000116 1543.2000000000116 1563.2000000000116 1583.2000000000116 1603.2000000000116 1623.2000000000116 1643.2000000000116 1663.2000000000116 1683.2000000000116
cb_03,20.0,enc_trial,stim,response,Iceland trip,1802.099999998521,enc_trial,1.0,20.0,t_s_06_2,travel_shared,fold-b,luggage,3.0,competing,close,paired,t_s_06_2.jpg,,travel-b1,Iceland trip,Miami trip,sub-59,1.0,1.0,1.0,1.0,0.505078125 0.503515625 0.498828125 0.491796875 0.481640625 0.466015625 0.450390625 0.438671875 0.426171875 0.413671875 0.393359375 0.373046875 0.352734375 0.330078125 0.302734375 0.278515625 0.260546875 0.250390625 0.238671875 0.230859375 0.223828125 0.216015625 0.209765625 0.202734375 0.194140625 0.187890625 0.176953125 0.168359375 0.164453125 0.162890625,0.7958333333333334 0.7895833333333333 0.7791666666666667 0.7614583333333333 0.7354166666666666 0.7010416666666667 0.6625 0.6208333333333333 0.5822916666666667 0.5520833333333333 0.5020833333333333 0.4583333333333334 0.4229166666666667 0.3885416666666667 0.353125 0.321875 0.2979166666666667 0.28541666666666665 0.271875 0.2625 0.25416666666666665 0.246875 0.2395833333333333 0.2333333333333333 0.2260416666666667 0.21979166666666672 0.21458333333333326 0.2104166666666667 0.2083333333333333 0.20729166666666665,1182.100000000035 1202.100000000035 1222.100000000035 1242.100000000035 1262.100000000035 1282.100000000035 1302.100000000035 1322.100000000035 1342.100000000035 1362.100000000035 1382.1000000000352 1402.1000000000352 1422.1000000000352 1442.1000000000352 1462.1000000000352 1482.1000000000352 1502.1000000000352 1522.1000000000352 1542.1000000000352 1562.1000000000352 1582.1000000000352 1602.1000000000352 1622.1000000000352 1642.1000000000352 1662.1000000000352 1682.1000000000352 1702.1000000000352 1722.1000000000352 1742.1000000000352 1762.1000000000352
cb_03,21.0,enc_trial,stim,response,Iceland trip,1168.1999999999534,enc_trial,1.0,21.0,t_s_04_1,travel_shared,fold-c,instant camera,3.0,competing,far,paired,t_s_04_1.jpg,,travel-b1,Iceland trip,Miami trip,sub-59,1.0,1.0,1.0,1.0,0.534765625 0.533203125 0.530078125 0.521484375 0.501953125 0.469140625 0.428515625 0.389453125 0.351953125 0.326953125 0.292578125 0.271484375 0.259765625 0.253515625 0.249609375 0.247265625 0.244140625 0.241015625 0.236328125 0.233203125 0.228515625 0.219140625 0.204296875 0.187109375 0.173046875 0.167578125 0.164453125 0.163671875,0.8208333333333333 0.81875 0.8114583333333334 0.7958333333333334 0.7583333333333333 0.69375 0.6020833333333333 0.4895833333333334 0.3916666666666667 0.33333333333333337 0.2614583333333333 0.2125 0.184375 0.16874999999999996 0.15729166666666672 0.1489583333333333 0.13541666666666666 0.12604166666666672 0.1166666666666667 0.11250000000000004 0.11145833333333333 0.11250000000000004 0.1166666666666667 0.12395833333333328 0.13124999999999998 0.13437500000000002 0.13645833333333335 0.13749999999999996,632.7999999999884 652.7999999999884 672.7999999999884 692.7999999999884 712.7999999999884 732.7999999999884 752.7999999999884 772.7999999999884 792.7999999999884 812.7999999999884 832.7999999999884 852.7999999999884 872.7999999999884 892.7999999999884 912.7999999999884 932.7999999999884 952.7999999999884 972.7999999999884 992.7999999999884 1012.7999999999884 1032.7999999999884 1052.7999999999884 1072.7999999999884 1092.7999999999884 1112.7999999999884 1132.7999999999886 1152.7999999999886 1172.7999999999886
cb_03,22.0,enc_trial,stim,response,Iceland trip,1998.699999997043,enc_trial,1.0,22.0,t_i_13_1,travel_Iceland,fold-a,sleeping bag,3.0,unique,far,paired,t_i_13_1.jpg,Iceland,travel-b1,Iceland trip,Miami trip,sub-59,1.0,1.0,0.0,1.0,0.505078125 0.505078125 0.505078125 0.505078125 0.505859375 0.506640625 0.507421875 0.509765625 0.512109375 0.514453125 0.521484375 0.531640625 0.539453125 0.550390625 0.562109375 0.576171875 0.589453125 0.595703125 0.605859375 0.624609375 0.655078125 0.685546875 0.709765625 0.723828125 0.736328125 0.747265625 0.765234375 0.778515625 0.784765625 0.787890625 0.789453125 0.789453125 0.789453125 0.789453125 0.789453125 0.789453125 0.775390625 0.738671875 0.691015625 0.628515625 0.537890625 0.469140625 0.371484375 0.291015625 0.211328125 0.134765625 0.086328125 0.066796875 0.064453125 0.064453125 0.064453125 0.065234375 0.066015625 0.066015625 0.066015625 0.066015625 0.066015625 0.066015625 0.066015625 0.066015625 0.066015625 0.066015625 0.066015625 0.066015625 0.067578125 0.073828125 0.090234375 0.101171875,0.79375 0.7927083333333333 0.7885416666666667 0.7833333333333333 0.778125 0.7729166666666667 0.7666666666666666 0.7583333333333333 0.746875 0.7354166666666666 0.7114583333333333 0.68125 0.6510416666666667 0.61875 0.5875 0.5520833333333333 0.5229166666666667 0.50625 0.48125 0.4447916666666667 0.39583333333333337 0.34791666666666665 0.3104166666666667 0.28541666666666665 0.2635416666666667 0.246875 0.22291666666666665 0.20416666666666672 0.1947916666666667 0.18958333333333333 0.1875 0.1875 0.1875 0.1875 0.1875 0.18645833333333328 0.1802083333333333 0.16770833333333335 0.15520833333333328 0.14375000000000004 0.13958333333333328 0.13958333333333328 0.14166666666666672 0.14687499999999998 0.15000000000000002 0.15000000000000002 0.14687499999999998 0.14270833333333333 0.14166666666666672 0.14166666666666672 0.14166666666666672 0.14166666666666672 0.14166666666666672 0.14166666666666672 0.14166666666666672 0.14166666666666672 0.14166666666666672 0.14166666666666672 0.14166666666666672 0.14166666666666672 0.14166666666666672 0.14166666666666672 0.14166666666666672 0.14166666666666672 0.14166666666666672 0.140625 0.13749999999999996 0.13645833333333335,660.5 680.5 700.5 720.5 740.5 760.5 780.5 800.5 820.5 840.5 860.5 880.5 900.5 920.5 940.5 960.5 980.5 1000.5 1020.5 1040.5 1060.5 1080.5 1100.5 1120.5 1140.5 1160.5 1180.5 1200.5 1220.5 1240.5 1260.5 1280.5 1300.5 1320.5 1340.5 1360.5 1380.5 1400.5 1420.5 1440.5 1460.5 1480.5 1500.5 1520.5 1540.5 1560.5 1580.5 1600.5 1620.5 1640.5 1660.5 1680.5 1700.5 1720.5 1740.5 1760.5 1780.5 1800.5 1820.5 1840.5 1860.5 1880.5 1900.5 1920.5 1940.5 1960.5 1980.5 2000.5
cb_03,23.0,enc_trial,stim,response,Miami trip,1932.3999999985092,enc_trial,1.0,23.0,t_s_05_1,travel_shared,fold-a-single,neck pillow,3.0,competing,,single,t_s_05_1.jpg,,travel-b1,Iceland trip,Miami trip,sub-59,1.0,,1.0,,0.517578125 0.517578125 0.516796875 0.515234375 0.514453125 0.512890625 0.511328125 0.509765625 0.508203125 0.508203125 0.506640625 0.506640625 0.506640625 0.505859375 0.504296875 0.501171875 0.494921875 0.490234375 0.486328125 0.487890625 0.495703125 0.502734375 0.506640625 0.508984375 0.511328125 0.515234375 0.526953125 0.547265625 0.570703125 0.587890625 0.597265625 0.607421875 0.624609375 0.637109375 0.651953125 0.661328125 0.663671875 0.663671875 0.663671875 0.663671875 0.664453125 0.664453125 0.664453125 0.661328125 0.644140625 0.604296875 0.546484375 0.469140625 0.386328125 0.328515625 0.264453125 0.230859375 0.217578125 0.216015625 0.218359375 0.260546875 0.366015625 0.462109375 0.605078125 0.720703125 0.794921875 0.822265625 0.825390625 0.825390625 0.824609375 0.824609375 0.824609375 0.824609375,0.8 0.7979166666666666 0.7916666666666666 0.7864583333333334 0.7802083333333334 0.7708333333333334 0.7604166666666666 0.7520833333333333 0.7447916666666667 0.7416666666666667 0.7385416666666667 0.7375 0.7354166666666666 0.7302083333333333 0.7145833333333333 0.6885416666666666 0.6541666666666667 0.63125 0.5958333333333333 0.5541666666666667 0.50625 0.4645833333333334 0.4375 0.41875 0.4072916666666667 0.3989583333333333 0.37916666666666665 0.35416666666666663 0.328125 0.3104166666666667 0.30000000000000004 0.290625 0.2770833333333333 0.2666666666666667 0.25625 0.25 0.25 0.25 0.25 0.25 0.2489583333333333 0.2479166666666667 0.24479166666666666 0.23854166666666665 0.22291666666666665 0.2 0.1791666666666667 0.15625 0.13958333333333328 0.1322916666666667 0.12708333333333333 0.12291666666666667 0.12187499999999996 0.12187499999999996 0.12291666666666667 0.12916666666666665 0.13020833333333334 0.125 0.12083333333333335 0.11875000000000002 0.12604166666666672 0.13749999999999996 0.14166666666666672 0.14375000000000004 0.14479166666666665 0.14479166666666665 0.14479166666666665 0.14583333333333334,598.0 618.0 638.0 658.0 678.0 698.0 718.0 738.0 758.0 778.0 798.0 818.0 838.0 858.0 878.0 898.0 918.0 938.0 958.0 978.0 998.0 1018.0 1038.0 1058.0 1078.0 1098.0 1118.0 1138.0 1158.0 1178.0 1198.0 1218.0 1238.0 1258.0 1278.0 1298.0 1318.0 1338.0 1358.0 1378.0 1398.0 1418.0 1438.0 1458.0 1478.0 1498.0 1518.0 1538.0 1558.0 1578.0 1598.0 1618.0 1638.0 1658.0 1678.0 1698.0 1718.0 1738.0 1758.0 1778.0 1798.0 1818.0 1838.0 1858.0 1878.0 1898.0 1918.0 1938.0
cb_03,24.0,enc_trial,stim,response,Iceland trip,1924.2000000014664,enc_trial,1.0,24.0,t_i_17_1,travel_Iceland,fold-e,binoculars,3.0,unique,close,paired,t_i_17_1.jpg,Iceland,travel-b1,Iceland trip,Miami trip,sub-59,0.0,0.0,0.0,1.0,0.487109375 0.486328125 0.484765625 0.482421875 0.480859375 0.480078125 0.480078125 0.480078125 0.480078125 0.480078125 0.480078125 0.480078125 0.480078125 0.480078125 0.480078125 0.480078125 0.480078125 0.480078125 0.478515625 0.476953125 0.473828125 0.469140625 0.461328125 0.450390625 0.439453125 0.430859375 0.418359375 0.404296875 0.391015625 0.376953125 0.364453125 0.351953125 0.340234375 0.333203125 0.320703125 0.306640625 0.294140625 0.279296875 0.265234375 0.252734375 0.238671875 0.230078125 0.214453125 0.203515625 0.195703125 0.189453125 0.184765625 0.183203125 0.183203125 0.183203125 0.183203125 0.184765625 0.194921875 0.217578125 0.248828125 0.283203125 0.321484375 0.362890625 0.448828125 0.536328125 0.609765625 0.682421875 0.756640625 0.811328125 0.828515625 0.828515625 0.818359375 0.751953125 0.630078125 0.472265625 0.347265625 0.257421875 0.180859375 0.125390625 0.072265625 0.054296875 0.052734375 0.052734375 0.053515625 0.053515625 0.053515625 0.053515625 0.053515625 0.053515625 0.053515625 0.055078125 0.059765625 0.070703125 0.083984375 0.092578125 0.105859375 0.117578125 0.118359375,0.784375 0.7864583333333334 0.790625 0.7958333333333334 0.8 0.8 0.8 0.8 0.8 0.8 0.8 0.8 0.8 0.8 0.8 0.8 0.7958333333333334 0.790625 0.7791666666666667 0.7645833333333334 0.7479166666666667 0.7260416666666667 0.6989583333333333 0.6666666666666667 0.6395833333333334 0.6145833333333333 0.5729166666666667 0.5302083333333334 0.4916666666666667 0.4572916666666666 0.4291666666666667 0.40208333333333335 0.3770833333333333 0.36354166666666665 0.3427083333333333 0.321875 0.30208333333333337 0.28125 0.265625 0.25416666666666665 0.2416666666666667 0.2333333333333333 0.21770833333333328 0.20729166666666665 0.2 0.19375 0.1875 0.18541666666666667 0.18541666666666667 0.18541666666666667 0.18541666666666667 0.18541666666666667 0.18333333333333326 0.18229166666666666 0.18229166666666666 0.18333333333333326 0.18541666666666667 0.18541666666666667 0.18645833333333328 0.18541666666666667 0.1875 0.18541666666666667 0.17708333333333334 0.17083333333333328 0.16770833333333335 0.16770833333333335 0.17083333333333328 0.18125 0.19791666666666666 0.20416666666666672 0.18645833333333328 0.16041666666666665 0.14375000000000004 0.13541666666666666 0.13020833333333334 0.12812500000000004 0.12812500000000004 0.12812500000000004 0.12812500000000004 0.12812500000000004 0.12812500000000004 0.12812500000000004 0.12812500000000004 0.12812500000000004 0.12812500000000004 0.12916666666666665 0.13124999999999998 0.1333333333333333 0.1333333333333333 0.1333333333333333 0.13541666666666666 0.13541666666666666 0.13541666666666666,97.39999999996508 117.39999999996508 137.39999999996508 157.3999999999651 177.3999999999651 197.3999999999651 217.3999999999651 237.3999999999651 257.3999999999651 277.3999999999651 297.39999999996513 317.39999999996513 337.39999999996513 357.39999999996513 377.39999999996513 397.39999999996513 417.39999999996513 437.39999999996513 457.39999999996513 477.39999999996513 497.39999999996513 517.3999999999652 537.3999999999652 557.3999999999652 577.3999999999652 597.3999999999652 617.3999999999652 637.3999999999652 657.3999999999652 677.3999999999652 697.3999999999651 717.3999999999651 737.3999999999651 757.3999999999651 777.3999999999651 797.3999999999651 817.3999999999651 837.3999999999651 857.3999999999651 877.3999999999651 897.3999999999651 917.3999999999652 937.3999999999652 957.3999999999652 977.3999999999652 997.3999999999652 1017.3999999999652 1037.399999999965 1057.399999999965 1077.399999999965 1097.399999999965 1117.399999999965 1137.399999999965 1157.399999999965 1177.399999999965 1197.399999999965 1217.399999999965 1237.399999999965 1257.399999999965 1277.399999999965 1297.399999999965 1317.399999999965 1337.399999999965 1357.399999999965 1377.3999999999648 1397.3999999999648 1417.3999999999648 1437.3999999999648 1457.3999999999648 1477.3999999999648 1497.3999999999648 1517.3999999999648 1537.3999999999648 1557.3999999999648 1577.3999999999648 1597.3999999999648 1617.3999999999648 1637.3999999999648 1657.3999999999648 1677.3999999999648 1697.3999999999648 1717.3999999999648 1737.3999999999648 1757.3999999999648 1777.3999999999648 1797.3999999999648 1817.3999999999648 1837.3999999999648 1857.3999999999648 1877.3999999999648 1897.3999999999648 1917.3999999999648 1937.3999999999648
cb_03,25.0,enc_trial,stim,response,Miami trip,1515.7999999999302,enc_trial,1.0,25.0,t_m_01_2,travel_Miami,fold-a,sandals,3.0,unique,far,paired,t_m_01_2.jpg,Miami,travel-b1,Iceland trip,Miami trip,sub-59,1.0,1.0,1.0,1.0,0.475390625 0.475390625 0.475390625 0.475390625 0.475390625 0.475390625 0.475390625 0.474609375 0.473828125 0.473828125 0.472265625 0.472265625 0.475390625 0.483984375 0.498828125 0.517578125 0.526953125 0.527734375 0.523828125 0.500390625 0.453515625 0.402734375 0.361328125 0.330078125 0.303515625 0.287890625 0.269921875 0.257421875 0.250390625 0.248046875 0.248046875 0.248046875 0.247265625 0.246484375 0.239453125 0.226953125 0.210546875 0.197265625 0.187890625 0.185546875 0.185546875 0.187890625 0.194921875 0.198828125 0.198828125 0.199609375 0.199609375 0.199609375 0.200390625 0.211328125 0.278515625 0.373046875 0.493359375 0.628515625 0.739453125 0.817578125 0.856640625 0.867578125 0.876171875 0.879296875 0.881640625 0.894921875 0.916015625 0.919921875,0.7895833333333333 0.7895833333333333 0.7895833333333333 0.7895833333333333 0.7895833333333333 0.7895833333333333 0.7854166666666667 0.78125 0.771875 0.7645833333333334 0.7479166666666667 0.7229166666666667 0.6895833333333333 0.6489583333333333 0.6083333333333334 0.5697916666666667 0.5458333333333334 0.5333333333333333 0.5072916666666667 0.4635416666666666 0.40625 0.35416666666666663 0.3083333333333333 0.271875 0.2416666666666667 0.225 0.20416666666666672 0.1875 0.17708333333333334 0.17395833333333333 0.17291666666666672 0.17291666666666672 0.17291666666666672 0.17291666666666672 0.17395833333333333 0.17604166666666665 0.17812499999999998 0.1802083333333333 0.18125 0.18125 0.18125 0.18333333333333326 0.184375 0.18541666666666667 0.18645833333333328 0.18645833333333328 0.18645833333333328 0.18645833333333328 0.18333333333333326 0.1791666666666667 0.16770833333333335 0.1645833333333333 0.16666666666666666 0.17291666666666672 0.17708333333333334 0.1791666666666667 0.1791666666666667 0.1791666666666667 0.17708333333333334 0.17708333333333334 0.17604166666666665 0.17500000000000004 0.17083333333333328 0.17083333333333328,257.2999999999884 277.2999999999884 297.29999999998836 317.29999999998836 337.29999999998836 357.2999999999884 377.2999999999884 397.2999999999884 417.2999999999884 437.2999999999884 457.2999999999884 477.2999999999884 497.2999999999884 517.2999999999884 537.2999999999884 557.2999999999884 577.2999999999884 597.2999999999884 617.2999999999884 637.2999999999884 657.2999999999884 677.2999999999884 697.2999999999884 717.2999999999884 737.2999999999884 757.2999999999884 777.2999999999884 797.2999999999884 817.2999999999884 837.2999999999884 857.2999999999884 877.2999999999884 897.2999999999884 917.2999999999884 937.2999999999884 957.2999999999884 977.2999999999884 997.2999999999884 1017.2999999999884 1037.2999999999884 1057.2999999999884 1077.2999999999884 1097.2999999999884 1117.2999999999884 1137.2999999999886 1157.2999999999886 1177.2999999999886 1197.2999999999886 1217.2999999999886 1237.2999999999886 1257.2999999999886 1277.2999999999886 1297.2999999999886 1317.2999999999886 1337.2999999999886 1357.2999999999886 1377.2999999999884 1397.2999999999884 1417.2999999999884 1437.2999999999884 1457.2999999999884 1477.2999999999884 1497.2999999999884 1517.2999999999884
cb_03,26.0,enc_trial,stim,response,Miami trip,1648.1000000000354,enc_trial,1.0,26.0,t_m_18_1,travel_Miami,fold-b-single,waterproof tote,3.0,unique,,single,t_m_18_1.jpg,Miami,travel-b1,Iceland trip,Miami trip,sub-59,1.0,,1.0,,0.477734375 0.476171875 0.472265625 0.469140625 0.464453125 0.461328125 0.458203125 0.455078125 0.453515625 0.453515625 0.459765625 0.481640625 0.512890625 0.551953125 0.598828125 0.656640625 0.711328125 0.737890625 0.762890625 0.778515625 0.789453125 0.794140625 0.794140625 0.794140625 0.794921875 0.798828125 0.804296875 0.810546875 0.816015625 0.819140625 0.823828125 0.831640625 0.839453125 0.844921875 0.850390625 0.854296875 0.855078125,0.8177083333333334 0.8145833333333333 0.809375 0.803125 0.7958333333333334 0.7885416666666667 0.775 0.75625 0.7322916666666667 0.7135416666666667 0.6708333333333334 0.61875 0.5625 0.5041666666666667 0.4458333333333333 0.3875 0.3427083333333333 0.321875 0.30000000000000004 0.28437500000000004 0.27083333333333337 0.2614583333333333 0.2583333333333333 0.25625 0.2479166666666667 0.2395833333333333 0.2302083333333333 0.22291666666666665 0.215625 0.2114583333333333 0.2083333333333333 0.20208333333333328 0.1958333333333333 0.1927083333333333 0.1875 0.184375 0.18333333333333326,910.9000000000232 930.9000000000232 950.9000000000232 970.9000000000232 990.9000000000232 1010.9000000000232 1030.9000000000233 1050.9000000000233 1070.9000000000233 1090.9000000000233 1110.9000000000233 1130.9000000000233 1150.9000000000233 1170.9000000000233 1190.9000000000233 1210.9000000000233 1230.9000000000233 1250.9000000000233 1270.9000000000233 1290.9000000000233 1310.9000000000233 1330.9000000000233 1350.9000000000233 1370.9000000000233 1390.9000000000233 1410.9000000000233 1430.9000000000233 1450.9000000000233 1470.9000000000233 1490.9000000000233 1510.9000000000233 1530.9000000000233 1550.9000000000233 1570.9000000000233 1590.9000000000233 1610.9000000000233 1630.9000000000233
cb_03,27.0,enc_trial,stim,response,Miami trip,1972.3999999985092,enc_trial,1.0,27.0,t_s_10_2,travel_shared,fold-c,luggage lock,3.0,competing,far,paired,t_s_10_2.jpg,,travel-b1,Iceland trip,Miami trip,sub-59,1.0,1.0,0.0,0.0,0.505078125 0.517578125 0.563671875 0.635546875 0.711328125 0.769140625 0.812109375 0.847265625 0.871484375 0.880859375 0.887890625 0.890234375 0.890234375 0.890234375 0.890234375 0.890234375 0.890234375 0.890234375 0.890234375 0.888671875 0.884765625 0.881640625 0.879296875 0.876953125 0.876953125 0.876953125 0.876953125,0.834375 0.8145833333333333 0.7458333333333333 0.640625 0.5302083333333334 0.44166666666666665 0.38125 0.3375 0.309375 0.2979166666666667 0.2875 0.28437500000000004 0.28437500000000004 0.28437500000000004 0.28437500000000004 0.28437500000000004 0.28437500000000004 0.28437500000000004 0.28437500000000004 0.2822916666666667 0.2770833333333333 0.2645833333333333 0.24375 0.21666666666666667 0.1958333333333333 0.1875 0.1875,1467.2000000000116 1487.2000000000116 1507.2000000000116 1527.2000000000116 1547.2000000000116 1567.2000000000116 1587.2000000000116 1607.2000000000116 1627.2000000000116 1647.2000000000116 1667.2000000000116 1687.2000000000116 1707.2000000000116 1727.2000000000116 1747.2000000000116 1767.2000000000116 1787.2000000000116 1807.2000000000119 1827.2000000000119 1847.2000000000119 1867.2000000000119 1887.2000000000119 1907.2000000000119 1927.2000000000119 1947.2000000000119 1967.2000000000119 1987.2000000000119
cb_03,28.0,enc_trial,stim,response,Iceland trip,1554.2999999985336,enc_trial,1.0,28.0,t_i_02_1,travel_Iceland,fold-e,scarf,3.0,unique,close,paired,t_i_02_1.jpg,Iceland,travel-b1,Iceland trip,Miami trip,sub-59,1.0,1.0,1.0,1.0,0.498046875 0.496484375 0.491015625 0.478515625 0.448046875 0.402734375 0.344921875 0.276953125 0.219921875 0.191015625 0.165234375 0.155859375 0.154296875 0.156640625 0.161328125 0.162890625 0.162890625 0.162890625 0.159765625 0.154296875 0.147265625 0.146484375,0.8177083333333334 0.8145833333333333 0.7927083333333333 0.7395833333333333 0.6572916666666666 0.5645833333333333 0.4729166666666666 0.37916666666666665 0.30000000000000004 0.2572916666666667 0.2104166666666667 0.18541666666666667 0.17395833333333333 0.16562500000000002 0.15937500000000004 0.15625 0.15625 0.15625 0.15416666666666667 0.15104166666666666 0.14687499999999998 0.14583333333333334,1147.3000000000466 1167.3000000000466 1187.3000000000466 1207.3000000000466 1227.3000000000466 1247.3000000000466 1267.3000000000466 1287.3000000000466 1307.3000000000466 1327.3000000000466 1347.3000000000466 1367.3000000000466 1387.3000000000463 1407.3000000000463 1427.3000000000463 1447.3000000000463 1467.3000000000463 1487.3000000000463 1507.3000000000463 1527.3000000000463 1547.3000000000463 1567.3000000000463
cb_03,29.0,enc_trial,stim,response,Miami trip,1997.10000000149,enc_trial,1.0,29.0,t_i_17_2,travel_Iceland,fold-e,binoculars,3.0,unique,close,paired,t_i_17_2.jpg,Iceland,travel-b1,Iceland trip,Miami trip,sub-59,0.0,0.0,0.0,1.0,0.514453125 0.513671875 0.510546875 0.504296875 0.492578125 0.476953125 0.458203125 0.438671875 0.416015625 0.398828125 0.375390625 0.354296875 0.341796875 0.337109375 0.337890625 0.338671875 0.338671875 0.338671875 0.336328125 0.332421875 0.328515625 0.326171875 0.325390625 0.324609375 0.322265625 0.320703125 0.316015625 0.310546875 0.303515625 0.294140625 0.279296875 0.262890625 0.248828125 0.241796875 0.233203125 0.226953125 0.223828125 0.222265625 0.222265625 0.222265625 0.227734375 0.234765625 0.279296875 0.362890625 0.458984375 0.559765625 0.664453125 0.745703125 0.797265625 0.814453125 0.826171875 0.827734375 0.827734375 0.827734375 0.828515625 0.829296875,0.8145833333333333 0.8125 0.8041666666666667 0.7854166666666667 0.7583333333333333 0.725 0.6875 0.64375 0.5875 0.54375 0.4770833333333333 0.41875 0.3770833333333333 0.3510416666666667 0.3395833333333333 0.334375 0.33125000000000004 0.3302083333333333 0.3270833333333333 0.32291666666666663 0.31875 0.3145833333333333 0.3104166666666667 0.3083333333333333 0.3041666666666667 0.30000000000000004 0.2958333333333333 0.2895833333333333 0.28125 0.27083333333333337 0.25416666666666665 0.240625 0.228125 0.22083333333333333 0.2125 0.20729166666666665 0.20520833333333333 0.20416666666666672 0.20416666666666672 0.20416666666666672 0.2 0.1958333333333333 0.184375 0.16666666666666666 0.15208333333333335 0.13645833333333335 0.12083333333333335 0.11458333333333336 0.11250000000000004 0.11145833333333333 0.11041666666666672 0.11041666666666672 0.11041666666666672 0.11041666666666672 0.11041666666666672 0.11041666666666672,695.4000000000232 715.4000000000232 735.4000000000232 755.4000000000232 775.4000000000232 795.4000000000232 815.4000000000232 835.4000000000232 855.4000000000232 875.4000000000232 895.4000000000232 915.4000000000232 935.4000000000232 955.4000000000232 975.4000000000232 995.4000000000232 1015.4000000000232 1035.4000000000233 1055.4000000000233 1075.4000000000233 1095.4000000000233 1115.4000000000233 1135.4000000000233 1155.4000000000233 1175.4000000000233 1195.4000000000233 1215.4000000000233 1235.4000000000233 1255.4000000000233 1275.4000000000233 1295.4000000000233 1315.4000000000233 1335.4000000000233 1355.4000000000233 1375.4000000000233 1395.4000000000233 1415.4000000000233 1435.4000000000233 1455.4000000000233 1475.4000000000233 1495.4000000000233 1515.4000000000233 1535.4000000000233 1555.4000000000233 1575.4000000000233 1595.4000000000233 1615.4000000000233 1635.4000000000233 1655.4000000000233 1675.4000000000233 1695.4000000000233 1715.4000000000233 1735.4000000000233 1755.4000000000233 1775.4000000000233 1795.4000000000233
cb_03,30.0,enc_trial,stim,response,Miami trip,1765.39999999851,enc_trial,1.0,30.0,t_s_22_1,travel_shared,fold-a-single,belt,3.0,competing,,single,t_s_22_1.jpg,,travel-b1,Iceland trip,Miami trip,sub-59,1.0,,1.0,,0.502734375 0.505078125 0.508984375 0.514453125 0.523828125 0.545703125 0.583984375 0.627734375 0.661328125 0.676953125 0.697265625 0.721484375 0.741015625 0.751171875 0.755078125 0.756640625 0.758984375 0.762890625 0.769921875 0.779296875 0.785546875 0.784765625 0.777734375 0.771484375 0.769140625 0.766796875 0.753515625 0.718359375 0.672265625 0.644140625 0.641796875 0.668359375 0.717578125 0.754296875 0.812890625 0.869140625 0.905078125 0.922265625 0.926171875 0.926953125,0.7958333333333334 0.7916666666666666 0.7802083333333334 0.7666666666666666 0.74375 0.7020833333333334 0.6395833333333334 0.5666666666666667 0.50625 0.4760416666666667 0.4375 0.3989583333333333 0.3666666666666667 0.34375 0.33125000000000004 0.3239583333333333 0.31666666666666665 0.3083333333333333 0.29166666666666663 0.2677083333333333 0.24479166666666666 0.228125 0.21770833333333328 0.209375 0.20208333333333328 0.19791666666666666 0.19166666666666665 0.18645833333333328 0.1791666666666667 0.16562500000000002 0.15833333333333333 0.15000000000000002 0.13541666666666666 0.12604166666666672 0.11250000000000004 0.1020833333333333 0.09791666666666664 0.09791666666666664 0.09791666666666664 0.09791666666666664,973.5 993.5 1013.5 1033.5 1053.5 1073.5 1093.5 1113.5 1133.5 1153.5 1173.5 1193.5 1213.5 1233.5 1253.5 1273.5 1293.5 1313.5 1333.5 1353.5 1373.5 1393.5 1413.5 1433.5 1453.5 1473.5 1493.5 1513.5 1533.5 1553.5 1573.5 1593.5 1613.5 1633.5 1653.5 1673.5 1693.5 1713.5 1733.5 1753.5
cb_03,31.0,enc_trial,stim,response,Iceland trip,1985.5,enc_trial,1.0,31.0,t_s_12_1,travel_shared,fold-b,clear toiletry bag,3.0,competing,close,paired,t_s_12_1.jpg,,travel-b1,Iceland trip,Miami trip,sub-59,1.0,1.0,1.0,0.0,0.501953125 0.501953125 0.502734375 0.504296875 0.504296875 0.505078125 0.505859375 0.506640625 0.507421875 0.508203125 0.508203125 0.508203125 0.508203125 0.508203125 0.507421875 0.505078125 0.501953125 0.500390625 0.497265625 0.495703125 0.494921875 0.494140625 0.494140625 0.494140625 0.494140625 0.494140625 0.494140625 0.494140625 0.494140625 0.491015625 0.487109375 0.480859375 0.470703125 0.458984375 0.435546875 0.408203125 0.376171875 0.339453125 0.296484375 0.242578125 0.197265625 0.171484375 0.148046875 0.134765625 0.128515625 0.126953125 0.126953125 0.130078125 0.145703125 0.173046875 0.230078125 0.258203125 0.261328125 0.259765625 0.248046875 0.224609375 0.196484375 0.179296875 0.165234375 0.159765625 0.158984375,0.8083333333333333 0.8041666666666667 0.7927083333333333 0.7802083333333334 0.7708333333333334 0.7625 0.7572916666666667 0.753125 0.7520833333333333 0.7510416666666666 0.7510416666666666 0.7510416666666666 0.746875 0.7375 0.7229166666666667 0.7072916666666667 0.6895833333333333 0.678125 0.6614583333333333 0.6458333333333333 0.6302083333333333 0.6166666666666667 0.6083333333333334 0.6083333333333334 0.6083333333333334 0.6083333333333334 0.6083333333333334 0.6083333333333334 0.6052083333333333 0.5979166666666667 0.5854166666666667 0.5697916666666667 0.5458333333333334 0.5260416666666667 0.4885416666666666 0.45 0.4135416666666667 0.378125 0.3427083333333333 0.3083333333333333 0.27604166666666663 0.2583333333333333 0.2395833333333333 0.22916666666666666 0.22291666666666665 0.22187500000000004 0.22083333333333333 0.21875 0.21666666666666667 0.2125 0.20520833333333333 0.19791666666666666 0.19791666666666666 0.19791666666666666 0.19375 0.1875 0.1791666666666667 0.17291666666666672 0.16770833333333335 0.16562500000000002 0.16562500000000002,709.2999999999884 729.2999999999884 749.2999999999884 769.2999999999884 789.2999999999884 809.2999999999884 829.2999999999884 849.2999999999884 869.2999999999884 889.2999999999884 909.2999999999884 929.2999999999884 949.2999999999884 969.2999999999884 989.2999999999884 1009.2999999999884 1029.2999999999884 1049.2999999999884 1069.2999999999884 1089.2999999999884 1109.2999999999884 1129.2999999999886 1149.2999999999886 1169.2999999999886 1189.2999999999886 1209.2999999999886 1229.2999999999886 1249.2999999999886 1269.2999999999886 1289.2999999999886 1309.2999999999886 1329.2999999999886 1349.2999999999886 1369.2999999999886 1389.2999999999884 1409.2999999999884 1429.2999999999884 1449.2999999999884 1469.2999999999884 1489.2999999999884 1509.2999999999884 1529.2999999999884 1549.2999999999884 1569.2999999999884 1589.2999999999884 1609.2999999999884 1629.2999999999884 1649.2999999999884 1669.2999999999884 1689.2999999999884 1709.2999999999884 1729.2999999999884 1749.2999999999884 1769.2999999999884 1789.2999999999884 1809.2999999999884 1829.2999999999884 1849.2999999999884 1869.2999999999884 1889.2999999999884 1909.2999999999884
cb_03,32.0,enc_trial,stim,response,Miami trip,1022.2000000000116,enc_trial,1.0,32.0,t_m_17_2,travel_Miami,fold-a,water gun,3.0,unique,far,paired,t_m_17_2.jpg,Miami,travel-b1,Iceland trip,Miami trip,sub-59,1.0,1.0,1.0,1.0,0.503515625 0.505859375 0.517578125 0.546484375 0.576953125 0.598828125 0.625390625 0.669140625 0.718359375 0.748828125 0.778515625 0.796484375 0.808203125 0.818359375 0.825390625 0.831640625 0.836328125 0.837890625 0.841015625 0.843359375 0.845703125,0.7989583333333333 0.7895833333333333 0.7541666666666667 0.6864583333333334 0.6135416666666667 0.5520833333333333 0.4927083333333333 0.4239583333333333 0.34895833333333337 0.3052083333333333 0.2583333333333333 0.2239583333333333 0.2 0.18125 0.16666666666666666 0.15312499999999996 0.14166666666666672 0.13437500000000002 0.12187499999999996 0.10833333333333328 0.1020833333333333,618.9000000000233 638.9000000000233 658.9000000000233 678.9000000000233 698.9000000000232 718.9000000000232 738.9000000000232 758.9000000000232 778.9000000000232 798.9000000000232 818.9000000000232 838.9000000000232 858.9000000000232 878.9000000000232 898.9000000000232 918.9000000000232 938.9000000000232 958.9000000000232 978.9000000000232 998.9000000000232 1018.9000000000232
cb_03,33.0,enc_trial,stim,response,Iceland trip,1031.5999999970081,enc_trial,1.0,33.0,t_i_02_2,travel_Iceland,fold-e,scarf,3.0,unique,close,paired,t_i_02_2.jpg,Iceland,travel-b1,Iceland trip,Miami trip,sub-59,1.0,1.0,1.0,1.0,0.488671875 0.487890625 0.486328125 0.482421875 0.476953125 0.465234375 0.448046875 0.422265625 0.386328125 0.361328125 0.317578125 0.273046875 0.230078125 0.199609375 0.176953125 0.161328125 0.152734375 0.151953125 0.151171875,0.7875 0.7875 0.7833333333333333 0.7770833333333333 0.7645833333333334 0.7416666666666667 0.703125 0.6447916666666667 0.56875 0.5114583333333333 0.41041666666666665 0.31875 0.2458333333333333 0.20208333333333328 0.17291666666666672 0.15208333333333335 0.13958333333333328 0.13749999999999996 0.13645833333333335,660.5 680.5 700.5 720.5 740.5 760.5 780.5 800.5 820.5 840.5 860.5 880.5 900.5 920.5 940.5 960.5 980.5 1000.5 1020.5
cb_03,34.0,enc_trial,stim,response,Miami trip,1770.89999999851,enc_trial,1.0,34.0,t_s_12_2,travel_shared,fold-b,clear toiletry bag,3.0,competing,close,paired,t_s_12_2.jpg,,travel-b1,Iceland trip,Miami trip,sub-59,1.0,1.0,1.0,0.0,0.512890625 0.512890625 0.512890625 0.516015625 0.529296875 0.553515625 0.580859375 0.608203125 0.633203125 0.643359375 0.656640625 0.672265625 0.692578125 0.713671875 0.728515625 0.741796875 0.755078125 0.767578125 0.787890625 0.801953125 0.810546875 0.816796875 0.823046875 0.828515625 0.833984375 0.837109375 0.839453125 0.839453125,0.7958333333333334 0.7895833333333333 0.775 0.75 0.7125 0.6572916666666666 0.5958333333333333 0.5458333333333334 0.5052083333333333 0.4895833333333334 0.4697916666666667 0.4479166666666666 0.4145833333333333 0.375 0.3416666666666667 0.3145833333333333 0.2895833333333333 0.26875000000000004 0.23854166666666665 0.215625 0.19791666666666666 0.18333333333333326 0.16770833333333335 0.15416666666666667 0.14166666666666672 0.13541666666666666 0.13124999999999998 0.13020833333333334,1077.9000000000233 1097.9000000000233 1117.9000000000233 1137.9000000000233 1157.9000000000233 1177.9000000000233 1197.9000000000233 1217.9000000000233 1237.9000000000233 1257.9000000000233 1277.9000000000233 1297.9000000000233 1317.9000000000233 1337.9000000000233 1357.9000000000233 1377.9000000000233 1397.9000000000233 1417.9000000000233 1437.9000000000233 1457.9000000000233 1477.9000000000233 1497.9000000000233 1517.9000000000233 1537.9000000000233 1557.9000000000233 1577.9000000000233 1597.9000000000233 1617.9000000000233
cb_03,35.0,enc_trial,stim,response,Iceland trip,1560.6000000014901,enc_trial,1.0,35.0,t_i_13_2,travel_Iceland,fold-a,sleeping bag,3.0,unique,far,paired,t_i_13_2.jpg,Iceland,travel-b1,Iceland trip,Miami trip,sub-59,1.0,1.0,0.0,1.0,0.494140625 0.492578125 0.487890625 0.476953125 0.458984375 0.437890625 0.415234375 0.394140625 0.375390625 0.363671875 0.348046875 0.334765625 0.325390625 0.319921875 0.314453125 0.308984375 0.302734375 0.297265625 0.288671875 0.280078125 0.266796875 0.247265625 0.226953125 0.205859375 0.186328125 0.173828125 0.158984375 0.151171875 0.150390625,0.7958333333333334 0.79375 0.784375 0.7625 0.7270833333333333 0.675 0.621875 0.5697916666666667 0.5197916666666667 0.4895833333333334 0.45 0.41875 0.3916666666666667 0.365625 0.340625 0.3208333333333333 0.30208333333333337 0.290625 0.275 0.2614583333333333 0.246875 0.2333333333333333 0.22187500000000004 0.2125 0.203125 0.19791666666666666 0.18958333333333333 0.18541666666666667 0.18541666666666667,987.4000000000232 1007.4000000000232 1027.4000000000233 1047.4000000000233 1067.4000000000233 1087.4000000000233 1107.4000000000233 1127.4000000000233 1147.4000000000233 1167.4000000000233 1187.4000000000233 1207.4000000000233 1227.4000000000233 1247.4000000000233 1267.4000000000233 1287.4000000000233 1307.4000000000233 1327.4000000000233 1347.4000000000233 1367.4000000000233 1387.4000000000233 1407.4000000000233 1427.4000000000233 1447.4000000000233 1467.4000000000233 1487.4000000000233 1507.4000000000233 1527.4000000000233 1547.4000000000233
cb_03,36.0,enc_trial,stim,response,Iceland trip,1920.9000000029919,enc_trial,1.0,36.0,t_s_21_1,travel_shared,fold-b,umbrella,3.0,competing,close,paired,t_s_21_1.jpg,,travel-b1,Iceland trip,Miami trip,sub-59,1.0,1.0,0.0,0.0,0.521484375 0.521484375 0.521484375 0.521484375 0.521484375 0.521484375 0.523046875 0.526953125 0.530078125 0.530078125 0.519140625 0.495703125 0.462109375 0.423046875 0.379296875 0.342578125 0.326953125 0.323828125 0.321484375 0.321484375 0.321484375 0.320703125 0.316796875 0.303515625 0.269921875 0.236328125 0.194921875 0.167578125 0.150390625 0.137890625 0.132421875 0.131640625,0.7822916666666666 0.7822916666666666 0.7770833333333333 0.7708333333333334 0.7583333333333333 0.7447916666666667 0.7260416666666667 0.6989583333333333 0.6666666666666667 0.6416666666666666 0.5916666666666667 0.5229166666666667 0.4625 0.4166666666666666 0.375 0.34375 0.3260416666666667 0.3208333333333333 0.31666666666666665 0.3125 0.3104166666666667 0.30729166666666663 0.30104166666666665 0.28541666666666665 0.26041666666666663 0.2395833333333333 0.20625000000000004 0.18125 0.1645833333333333 0.15208333333333335 0.14583333333333334 0.14583333333333334,1203.100000000035 1223.100000000035 1243.100000000035 1263.100000000035 1283.100000000035 1303.100000000035 1323.100000000035 1343.100000000035 1363.100000000035 1383.1000000000352 1403.1000000000352 1423.1000000000352 1443.1000000000352 1463.1000000000352 1483.1000000000352 1503.1000000000352 1523.1000000000352 1543.1000000000352 1563.1000000000352 1583.1000000000352 1603.1000000000352 1623.1000000000352 1643.1000000000352 1663.1000000000352 1683.1000000000352 1703.1000000000352 1723.1000000000352 1743.1000000000352 1763.1000000000352 1783.1000000000352 1803.1000000000352 1823.1000000000352
cb_03,37.0,enc_trial,stim,response,Miami trip,2338.4999999984866,enc_trial,1.0,37.0,t_s_08_1,travel_shared,fold-a-single,hand lotion,3.0,competing,,single,t_s_08_1.jpg,,travel-b1,Iceland trip,Miami trip,sub-59,1.0,,1.0,,0.519140625 0.519140625 0.518359375 0.517578125 0.518359375 0.528515625 0.548828125 0.575390625 0.595703125 0.608203125 0.630078125 0.654296875 0.678515625 0.695703125 0.705078125 0.712109375 0.720703125 0.726171875 0.734765625 0.742578125 0.747265625 0.748828125 0.751171875 0.755078125 0.761328125 0.764453125 0.770703125 0.776953125 0.784765625 0.792578125 0.798828125 0.804296875 0.808203125 0.811328125 0.819140625 0.825390625 0.830078125 0.833984375 0.834765625,0.8010416666666667 0.7979166666666666 0.7927083333333333 0.7854166666666667 0.7729166666666667 0.7427083333333333 0.6895833333333333 0.6229166666666667 0.5645833333333333 0.53125 0.4791666666666666 0.42604166666666665 0.3739583333333333 0.334375 0.3083333333333333 0.2885416666666667 0.2666666666666667 0.2510416666666667 0.2302083333333333 0.2114583333333333 0.2 0.1958333333333333 0.19166666666666665 0.18645833333333328 0.1791666666666667 0.17500000000000004 0.16979166666666667 0.1645833333333333 0.15833333333333333 0.15416666666666667 0.15104166666666666 0.15000000000000002 0.15000000000000002 0.1489583333333333 0.1479166666666667 0.1479166666666667 0.1479166666666667 0.1479166666666667 0.1479166666666667,1397.5999999999767 1417.5999999999767 1437.5999999999767 1457.5999999999767 1477.5999999999767 1497.5999999999767 1517.5999999999767 1537.5999999999767 1557.5999999999767 1577.5999999999767 1597.5999999999767 1617.5999999999767 1637.5999999999767 1657.5999999999767 1677.5999999999767 1697.5999999999767 1717.5999999999767 1737.5999999999767 1757.5999999999767 1777.5999999999767 1797.5999999999767 1817.5999999999767 1837.5999999999767 1857.5999999999767 1877.5999999999767 1897.5999999999767 1917.5999999999767 1937.5999999999767 1957.5999999999767 1977.5999999999767 1997.5999999999767 2017.5999999999767 2037.5999999999767 2057.5999999999767 2077.5999999999767 2097.5999999999767 2117.5999999999767 2137.5999999999767 2157.5999999999767
cb_03,38.0,enc_trial,stim,response,Miami trip,1744.1000000030035,enc_trial,1.0,38.0,t_m_16_1,travel_Miami,fold-b-single,flippers,3.0,unique,,single,t_m_16_1.jpg,Miami,travel-b1,Iceland trip,Miami trip,sub-59,1.0,,1.0,,0.471484375 0.470703125 0.466796875 0.460546875 0.451953125 0.439453125 0.426953125 0.416015625 0.406640625 0.401953125 0.395703125 0.387890625 0.378515625 0.366015625 0.354296875 0.342578125 0.330859375 0.322265625 0.311328125 0.301171875 0.291796875 0.282421875 0.274609375 0.270703125 0.270703125 0.275390625 0.303515625 0.351171875 0.401171875 0.460546875 0.539453125 0.631640625 0.716015625 0.764453125 0.830859375 0.876953125 0.900390625 0.909765625 0.909765625 0.909765625 0.910546875 0.910546875 0.910546875 0.910546875 0.910546875 0.910546875 0.910546875 0.909765625 0.909765625 0.909765625 0.908203125 0.905078125 0.899609375 0.894140625 0.892578125,0.7958333333333334 0.790625 0.7760416666666666 0.7541666666666667 0.7270833333333333 0.7020833333333334 0.6802083333333333 0.6604166666666667 0.6416666666666666 0.6291666666666667 0.6145833333333333 0.6 0.5791666666666666 0.5510416666666667 0.5229166666666667 0.4989583333333333 0.478125 0.4645833333333334 0.4447916666666667 0.42708333333333337 0.41041666666666665 0.39375 0.3729166666666667 0.3552083333333333 0.3447916666666667 0.33333333333333337 0.309375 0.2770833333333333 0.246875 0.21770833333333328 0.18333333333333326 0.14583333333333334 0.11458333333333336 0.09687500000000004 0.07499999999999996 0.061458333333333275 0.05625000000000002 0.0552083333333333 0.0552083333333333 0.0552083333333333 0.0552083333333333 0.0552083333333333 0.0552083333333333 0.0552083333333333 0.0552083333333333 0.0552083333333333 0.05729166666666662 0.05833333333333335 0.05937499999999996 0.060416666666666674 0.0625 0.06874999999999998 0.08125000000000004 0.09270833333333328 0.09583333333333333,667.5 687.5 707.5 727.5 747.5 767.5 787.5 807.5 827.5 847.5 867.5 887.5 907.5 927.5 947.5 967.5 987.5 1007.5 1027.5 1047.5 1067.5 1087.5 1107.5 1127.5 1147.5 1167.5 1187.5 1207.5 1227.5 1247.5 1267.5 1287.5 1307.5 1327.5 1347.5 1367.5 1387.5 1407.5 1427.5 1447.5 1467.5 1487.5 1507.5 1527.5 1547.5 1567.5 1587.5 1607.5 1627.5 1647.5 1667.5 1687.5 1707.5 1727.5 1747.5
cb_03,39.0,enc_trial,stim,response,Miami trip,2571.9000000014785,enc_trial,1.0,39.0,t_s_21_2,travel_shared,fold-b,umbrella,3.0,competing,close,paired,t_s_21_2.jpg,,travel-b1,Iceland trip,Miami trip,sub-59,1.0,1.0,0.0,0.0,0.488671875 0.487890625 0.487890625 0.488671875 0.493359375 0.505078125 0.523046875 0.551953125 0.586328125 0.608203125 0.637890625 0.666015625 0.691015625 0.716796875 0.734765625 0.745703125 0.754296875 0.760546875 0.769140625 0.774609375 0.778515625 0.782421875 0.787109375 0.791015625 0.792578125 0.793359375 0.795703125 0.798828125 0.799609375 0.799609375 0.799609375 0.799609375 0.799609375 0.799609375 0.797265625 0.784765625 0.755859375 0.706640625 0.646484375 0.589453125 0.541796875 0.518359375 0.486328125 0.456640625 0.433203125 0.419140625 0.412890625 0.409765625 0.408203125 0.405078125 0.401171875 0.397265625 0.386328125 0.356640625 0.305859375 0.252734375 0.219140625 0.203515625 0.183984375 0.169140625 0.162890625 0.162890625 0.162890625 0.162890625 0.162890625 0.162890625 0.162890625 0.162890625 0.162890625 0.162890625 0.162890625 0.162890625 0.162890625 0.162890625 0.162890625 0.162890625 0.167578125 0.209765625 0.315234375 0.464453125 0.597265625 0.666796875 0.741015625 0.786328125 0.803515625 0.805078125 0.805078125 0.805078125 0.805078125 0.805078125 0.805078125 0.806640625 0.808203125 0.808203125 0.815234375 0.833203125 0.839453125,0.8104166666666667 0.80625 0.7979166666666666 0.78125 0.75625 0.7239583333333333 0.6822916666666667 0.6260416666666666 0.571875 0.5395833333333333 0.49375 0.4510416666666667 0.4145833333333333 0.3770833333333333 0.34791666666666665 0.3239583333333333 0.3041666666666667 0.2895833333333333 0.27083333333333337 0.259375 0.2520833333333333 0.246875 0.240625 0.2354166666666667 0.2333333333333333 0.2333333333333333 0.2302083333333333 0.225 0.2239583333333333 0.2239583333333333 0.2239583333333333 0.22291666666666665 0.22083333333333333 0.21979166666666672 0.21666666666666667 0.2114583333333333 0.20625000000000004 0.20104166666666667 0.1958333333333333 0.18541666666666667 0.17291666666666672 0.16874999999999996 0.16145833333333334 0.15729166666666672 0.15312499999999996 0.15000000000000002 0.15000000000000002 0.1489583333333333 0.1489583333333333 0.1489583333333333 0.1489583333333333 0.1489583333333333 0.1479166666666667 0.14687499999999998 0.14687499999999998 0.14583333333333334 0.13958333333333328 0.13541666666666666 0.12916666666666665 0.12708333333333333 0.12708333333333333 0.12708333333333333 0.12708333333333333 0.12708333333333333 0.12708333333333333 0.12708333333333333 0.12708333333333333 0.12708333333333333 0.12708333333333333 0.12708333333333333 0.12708333333333333 0.12708333333333333 0.12708333333333333 0.12708333333333333 0.12708333333333333 0.12708333333333333 0.12708333333333333 0.125 0.1166666666666667 0.1020833333333333 0.08750000000000002 0.0854166666666667 0.09479166666666672 0.10729166666666667 0.11562499999999998 0.1166666666666667 0.1166666666666667 0.1166666666666667 0.1166666666666667 0.1166666666666667 0.1166666666666667 0.1177083333333333 0.11875000000000002 0.11875000000000002 0.12083333333333335 0.12291666666666667 0.125,653.7000000000116 673.7000000000116 693.7000000000116 713.7000000000116 733.7000000000116 753.7000000000116 773.7000000000116 793.7000000000116 813.7000000000116 833.7000000000116 853.7000000000116 873.7000000000116 893.7000000000116 913.7000000000116 933.7000000000116 953.7000000000116 973.7000000000116 993.7000000000116 1013.7000000000116 1033.7000000000116 1053.7000000000116 1073.7000000000116 1093.7000000000116 1113.7000000000116 1133.7000000000114 1153.7000000000114 1173.7000000000114 1193.7000000000114 1213.7000000000114 1233.7000000000114 1253.7000000000114 1273.7000000000114 1293.7000000000114 1313.7000000000114 1333.7000000000114 1353.7000000000114 1373.7000000000114 1393.7000000000116 1413.7000000000116 1433.7000000000116 1453.7000000000116 1473.7000000000116 1493.7000000000116 1513.7000000000116 1533.7000000000116 1553.7000000000116 1573.7000000000116 1593.7000000000116 1613.7000000000116 1633.7000000000116 1653.7000000000116 1673.7000000000116 1693.7000000000116 1713.7000000000116 1733.7000000000116 1753.7000000000116 1773.7000000000116 1793.7000000000116 1813.7000000000119 1833.7000000000119 1853.7000000000119 1873.7000000000119 1893.7000000000119 1913.7000000000119 1933.7000000000119 1953.7000000000119 1973.7000000000119 1993.7000000000119 2013.7000000000119 2033.7000000000119 2053.700000000012 2073.700000000012 2093.700000000012 2113.700000000012 2133.700000000012 2153.700000000012 2173.700000000012 2193.700000000012 2213.700000000012 2233.700000000012 2253.700000000012 2273.700000000012 2293.700000000012 2313.700000000012 2333.700000000012 2353.700000000012 2373.700000000012 2393.700000000012 2413.700000000012 2433.700000000012 2453.700000000012 2473.700000000012 2493.700000000012 2513.700000000012 2533.700000000012 2553.700000000012 2573.700000000012
cb_03,40.0,enc_trial,stim,response,Iceland trip,1978.9999999984866,enc_trial,1.0,40.0,t_s_10_1,travel_shared,fold-c,luggage lock,3.0,competing,far,paired,t_s_10_1.jpg,,travel-b1,Iceland trip,Miami trip,sub-59,1.0,1.0,0.0,0.0,0.504296875 0.504296875 0.504296875 0.504296875 0.504296875 0.504296875 0.504296875 0.504296875 0.504296875 0.504296875 0.504296875 0.504296875 0.504296875 0.507421875 0.517578125 0.534765625 0.558203125 0.573828125 0.597265625 0.636328125 0.684765625 0.736328125 0.787890625 0.817578125 0.830078125 0.833203125 0.836328125 0.839453125 0.841015625 0.830859375 0.802734375 0.754296875 0.674609375 0.607421875 0.498828125 0.414453125 0.355078125 0.306640625 0.268359375 0.244921875 0.236328125 0.236328125 0.236328125 0.235546875 0.233203125 0.232421875 0.232421875 0.225390625 0.206640625 0.187109375 0.158984375 0.135546875 0.121484375 0.119140625,0.784375 0.7822916666666666 0.7791666666666667 0.775 0.7729166666666667 0.7708333333333334 0.7697916666666667 0.7697916666666667 0.7697916666666667 0.7697916666666667 0.7697916666666667 0.7697916666666667 0.765625 0.7541666666666667 0.7291666666666667 0.6895833333333333 0.6416666666666666 0.60625 0.5541666666666667 0.4833333333333333 0.4083333333333333 0.3364583333333333 0.26979166666666665 0.2302083333333333 0.2114583333333333 0.20416666666666672 0.19375 0.1802083333333333 0.16874999999999996 0.15833333333333333 0.1479166666666667 0.14583333333333334 0.15625 0.16770833333333335 0.184375 0.19166666666666665 0.19375 0.19375 0.1947916666666667 0.1958333333333333 0.1958333333333333 0.1958333333333333 0.1958333333333333 0.1958333333333333 0.1958333333333333 0.1958333333333333 0.1958333333333333 0.19166666666666665 0.18333333333333326 0.17500000000000004 0.16770833333333335 0.16145833333333334 0.15625 0.15520833333333328,910.8999999999652 930.8999999999652 950.8999999999652 970.8999999999652 990.8999999999652 1010.8999999999652 1030.899999999965 1050.899999999965 1070.899999999965 1090.899999999965 1110.899999999965 1130.899999999965 1150.899999999965 1170.899999999965 1190.899999999965 1210.899999999965 1230.899999999965 1250.899999999965 1270.899999999965 1290.899999999965 1310.899999999965 1330.899999999965 1350.899999999965 1370.899999999965 1390.8999999999648 1410.8999999999648 1430.8999999999648 1450.8999999999648 1470.8999999999648 1490.8999999999648 1510.8999999999648 1530.8999999999648 1550.8999999999648 1570.8999999999648 1590.8999999999648 1610.8999999999648 1630.8999999999648 1650.8999999999648 1670.8999999999648 1690.8999999999648 1710.8999999999648 1730.8999999999648 1750.8999999999648 1770.8999999999648 1790.8999999999648 1810.8999999999648 1830.8999999999648 1850.8999999999648 1870.8999999999648 1890.8999999999648 1910.8999999999648 1930.8999999999648 1950.8999999999648 1970.8999999999648
cb_03,41.0,enc_trial,stim,response,Fine Arts students,2242.300000002957,enc_trial,2.0,1.0,s_a_09_1,student_art,fold-e,picture frame,3.0,unique,close,paired,s_a_09_1.jpg,art,student-b1,STEM students,Fine Arts students,sub-59,0.0,0.0,1.0,1.0,0.498828125 0.494140625 0.493359375 0.493359375 0.493359375 0.492578125 0.492578125 0.489453125 0.488671875 0.488671875 0.488671875 0.488671875 0.488671875 0.488671875 0.488671875 0.488671875 0.488671875 0.488671875 0.488671875 0.487890625 0.487890625 0.487890625 0.487890625 0.487890625 0.487890625 0.487890625 0.487890625 0.487890625 0.487890625 0.489453125 0.489453125 0.491015625 0.491015625 0.490234375 0.483203125 0.470703125 0.447265625 0.414453125 0.375390625 0.343359375 0.322265625 0.312890625 0.305859375 0.304296875 0.304296875 0.308203125 0.316015625 0.323046875 0.326171875 0.326171875 0.321484375 0.314453125 0.305078125 0.295703125 0.283984375 0.270703125 0.256640625 0.250390625 0.245703125 0.242578125 0.239453125 0.236328125 0.233984375 0.231640625 0.226953125 0.223046875 0.212109375 0.201953125 0.194140625 0.187890625 0.183203125 0.180859375 0.180859375 0.182421875 0.186328125 0.191015625 0.192578125 0.192578125 0.192578125 0.201953125 0.253515625 0.306640625 0.382421875 0.480078125 0.647265625 0.794140625 0.876953125 0.894140625 0.885546875 0.869140625 0.850390625 0.841796875 0.833203125 0.814453125 0.793359375 0.780078125 0.778515625 0.780078125 0.787109375 0.805078125 0.826953125 0.841015625 0.846484375 0.846484375,0.8239583333333333 0.8333333333333334 0.8364583333333333 0.8364583333333333 0.8364583333333333 0.8364583333333333 0.8364583333333333 0.8364583333333333 0.8375 0.8375 0.8375 0.8375 0.8375 0.8375 0.8375 0.8375 0.8375 0.8375 0.8375 0.8364583333333333 0.8354166666666667 0.8333333333333334 0.8333333333333334 0.8333333333333334 0.8333333333333334 0.8333333333333334 0.8333333333333334 0.8333333333333334 0.83125 0.828125 0.8229166666666666 0.8125 0.79375 0.778125 0.74375 0.69375 0.6291666666666667 0.5666666666666667 0.5125 0.46875 0.440625 0.42708333333333337 0.415625 0.4083333333333333 0.403125 0.3916666666666667 0.3729166666666667 0.3520833333333333 0.328125 0.31666666666666665 0.303125 0.29166666666666663 0.28125 0.2729166666666667 0.2666666666666667 0.2645833333333333 0.26041666666666663 0.259375 0.2583333333333333 0.2572916666666667 0.25625 0.25520833333333337 0.25312500000000004 0.25 0.246875 0.2427083333333333 0.2333333333333333 0.2239583333333333 0.21458333333333326 0.20625000000000004 0.2 0.19375 0.19166666666666665 0.18958333333333333 0.18645833333333328 0.18333333333333326 0.18333333333333326 0.18333333333333326 0.18333333333333326 0.18333333333333326 0.18333333333333326 0.18541666666666667 0.18645833333333328 0.17812499999999998 0.15104166666666666 0.125 0.11145833333333333 0.11041666666666672 0.11458333333333336 0.1166666666666667 0.11458333333333336 0.11250000000000004 0.11354166666666665 0.12187499999999996 0.13124999999999998 0.1333333333333333 0.13437500000000002 0.13541666666666666 0.13541666666666666 0.13541666666666666 0.13749999999999996 0.13958333333333328 0.14166666666666672 0.14166666666666672,0.0 20.0 40.0 60.0 80.0 100.0 120.0 140.0 160.0 180.0 200.0 220.0 240.0 260.0 280.0 300.0 320.0 340.0 360.0 380.0 400.0 420.0 440.0 460.0 480.0 500.0 520.0 540.0 560.0 580.0 600.0 620.0 640.0 660.0 680.0 700.0 720.0 740.0 760.0 780.0 800.0 820.0 840.0 860.0 880.0 900.0 920.0 940.0 960.0 980.0 1000.0 1020.0 1040.0 1060.0 1080.0 1100.0 1120.0 1140.0 1160.0 1180.0 1200.0 1220.0 1240.0 1260.0 1280.0 1300.0 1320.0 1340.0 1360.0 1380.0 1400.0 1420.0 1440.0 1460.0 1480.0 1500.0 1520.0 1540.0 1560.0 1580.0 1600.0 1620.0 1640.0 1660.0 1680.0 1700.0 1720.0 1740.0 1760.0 1780.0 1800.0 1820.0 1840.0 1860.0 1880.0 1900.0 1920.0 1940.0 1960.0 1980.0 2000.0 2020.0 2040.0 2060.0
