Current Spreadsheet,Trial Number,Display,Screen,Response Type,Response,Reaction Time,display,block,block_trial,stimulus_id,expected_goal,fold,stimulus_name,c_group,condition,within_block_dist,paired_status,stimulus_path,expected_location,block_split,respStim_1,respStim_2,sub_label,acc,both_enc_acc,assoc_stim1_acc,assoc_stim2_acc,x_pos,y_pos,time_trajectories
cb_10,1.0,enc_trial,stim,response,STEM students,4667.299999976151,enc_trial,1.0,1.0,s_sh_04_1,student_shared,fold-c-single,laptop stand,10.0,competing,,single,s_sh_04_1.jpg,,student-b1,STEM students,Fine Arts students,sub-14,1.0,,1.0,,0.5088541666666667 0.5072916666666667 0.5052083333333334 0.5036458333333333 0.5020833333333333 0.5015625 0.5015625 0.5015625 0.5015625 0.5015625 0.5015625 0.5015625 0.5015625 0.5015625 0.5010416666666667 0.5010416666666667 0.5010416666666667 0.5010416666666667 0.5010416666666667 0.5010416666666667 0.5010416666666667 0.5010416666666667 0.5010416666666667 0.5010416666666667 0.5010416666666667 0.5010416666666667 0.5010416666666667 0.5010416666666667 0.5010416666666667 0.5010416666666667 0.5010416666666667 0.5010416666666667 0.5010416666666667 0.5010416666666667 0.5010416666666667 0.5010416666666667 0.5010416666666667 0.5010416666666667 0.5010416666666667 0.5010416666666667 0.5010416666666667 0.5010416666666667 0.5010416666666667 0.5010416666666667 0.5026041666666666 0.5098958333333333 0.5609375 0.59375 0.6276041666666666 0.659375 0.6880208333333333 0.7489583333333333 0.7723958333333333 0.7911458333333333 0.8026041666666667 0.8072916666666666 0.8088541666666667 0.8088541666666667 0.8088541666666667 0.8088541666666667 0.8104166666666667 0.815625 0.815625 0.815625 0.815625 0.815625 0.815625 0.8140625 0.8104166666666667 0.8057291666666667 0.8020833333333334 0.7953125 0.784375 0.7536458333333333 0.6932291666666667 0.6151041666666667 0.4838541666666666 0.4520833333333333 0.4354166666666667 0.4276041666666667 0.4234375 0.4234375 0.42552083333333335 0.4270833333333333 0.4291666666666665 0.43020833333333336 0.4322916666666667 0.43125 0.4270833333333333 0.42239583333333336 0.41770833333333335 0.4015625 0.384375 0.3625 0.3380208333333333 0.3104166666666667 0.2645833333333333 0.2515625 0.2463541666666667 0.2479166666666667 0.265625 0.31354166666666666 0.3234375 0.3427083333333333 0.3697916666666667 0.38645833333333335 0.3875 0.3734375 0.3375 0.284375 0.234375 0.19166666666666668 0.18854166666666666 0.18802083333333333 0.18802083333333333 0.18802083333333333 0.18802083333333333 0.18802083333333333 0.18802083333333333 0.18802083333333333 0.18802083333333333 0.17552083333333332 0.1609375 0.14947916666666666 0.14166666666666666 0.1390625 0.13854166666666667,0.8118055555555556 0.8069444444444445 0.8013888888888889 0.7944444444444445 0.7881944444444444 0.7868055555555555 0.7868055555555555 0.7868055555555555 0.7868055555555555 0.7868055555555555 0.7868055555555555 0.7868055555555555 0.7868055555555555 0.7868055555555555 0.7868055555555555 0.7861111111111111 0.7861111111111111 0.7861111111111111 0.7861111111111111 0.7861111111111111 0.7861111111111111 0.7861111111111111 0.7861111111111111 0.7861111111111111 0.7861111111111111 0.7861111111111111 0.7861111111111111 0.7861111111111111 0.7861111111111111 0.7861111111111111 0.7861111111111111 0.7861111111111111 0.7861111111111111 0.7861111111111111 0.7861111111111111 0.7861111111111111 0.7861111111111111 0.7861111111111111 0.7861111111111111 0.7861111111111111 0.7861111111111111 0.7861111111111111 0.7861111111111111 0.7854166666666667 0.7791666666666667 0.7645833333333334 0.6694444444444445 0.5958333333333333 0.50625 0.41875 0.3430555555555556 0.21736111111111112 0.1805555555555556 0.16041666666666665 0.15000000000000002 0.1479166666666667 0.1479166666666667 0.1479166666666667 0.1479166666666667 0.1479166666666667 0.1479166666666667 0.1479166666666667 0.1479166666666667 0.1479166666666667 0.1479166666666667 0.1479166666666667 0.14722222222222225 0.14722222222222225 0.14722222222222225 0.14861111111111114 0.14930555555555558 0.15069444444444444 0.15069444444444444 0.1465277777777778 0.13055555555555556 0.11458333333333336 0.10486111111111107 0.10486111111111107 0.10763888888888884 0.11041666666666672 0.11319444444444447 0.1166666666666667 0.12083333333333335 0.125 0.1284722222222222 0.1333333333333333 0.14861111111111114 0.15694444444444444 0.16041666666666665 0.16180555555555556 0.16180555555555556 0.16041666666666665 0.15625 0.1527777777777778 0.1527777777777778 0.15625 0.17013888888888884 0.17361111111111116 0.17708333333333334 0.1875 0.2277777777777777 0.38125 0.4388888888888889 0.4965277777777778 0.5347222222222222 0.55 0.5430555555555556 0.5125 0.4506944444444444 0.3659722222222223 0.28680555555555554 0.2055555555555556 0.1972222222222222 0.19513888888888886 0.19513888888888886 0.19513888888888886 0.19513888888888886 0.19513888888888886 0.1958333333333333 0.19652777777777766 0.19652777777777766 0.18958333333333333 0.18194444444444446 0.17638888888888893 0.17361111111111116 0.17291666666666672 0.17291666666666672,717.1999999999971 737.1999999999971 757.1999999999971 777.1999999999971 797.1999999999971 817.1999999999971 837.1999999999971 857.1999999999971 877.1999999999971 897.1999999999971 917.1999999999972 937.1999999999972 957.1999999999972 977.1999999999972 997.1999999999972 1017.1999999999972 1037.1999999999969 1057.1999999999969 1077.1999999999969 1097.1999999999969 1117.1999999999969 1137.1999999999969 1157.1999999999969 1177.1999999999969 1197.1999999999969 1217.1999999999969 1237.1999999999969 1257.1999999999969 1277.1999999999969 1297.1999999999969 1317.1999999999969 1337.1999999999969 1357.1999999999969 1377.1999999999969 1397.1999999999969 1417.1999999999969 1437.1999999999969 1457.1999999999969 1477.1999999999969 1497.1999999999969 1517.1999999999969 1537.1999999999969 1557.1999999999969 1577.1999999999969 1597.1999999999969 1617.1999999999969 1637.1999999999969 1657.1999999999969 1677.1999999999969 1697.1999999999969 1717.1999999999969 1737.1999999999969 1757.1999999999969 1777.1999999999969 1797.1999999999969 1817.1999999999969 1837.1999999999969 1857.1999999999969 1877.1999999999969 1897.1999999999969 1917.1999999999969 1937.1999999999969 1957.1999999999969 1977.1999999999969 1997.1999999999969 2017.1999999999969 2037.1999999999969 2057.199999999997 2077.199999999997 2097.199999999997 2117.199999999997 2137.199999999997 2157.199999999997 2177.199999999997 2197.199999999997 2217.199999999997 2237.199999999997 2257.199999999997 2277.199999999997 2297.199999999997 2317.199999999997 2337.199999999997 2357.199999999997 2377.199999999997 2397.199999999997 2417.199999999997 2437.199999999997 2457.199999999997 2477.199999999997 2497.199999999997 2517.199999999997 2537.199999999997 2557.199999999997 2577.199999999997 2597.199999999997 2617.199999999997 2637.199999999997 2657.199999999997 2677.199999999997 2697.199999999997 2717.199999999997 2737.199999999997 2757.199999999997 2777.199999999997 2797.199999999997 2817.199999999997 2837.199999999997 2857.199999999997 2877.199999999997 2897.199999999997 2917.199999999997 2937.199999999997 2957.199999999997 2977.199999999997 2997.199999999997 3017.199999999997 3037.199999999997 3057.199999999997 3077.199999999997 3097.199999999997 3117.199999999997 3137.199999999997 3157.199999999997 3177.199999999997 3197.199999999997 3217.199999999997 3237.199999999997
cb_10,2.0,enc_trial,stim,response,STEM students,2500.899999976158,enc_trial,1.0,2.0,s_s_15_1,student_stem,fold-c,jumper cables,10.0,unique,close,paired,s_s_15_1.jpg,stem,student-b1,STEM students,Fine Arts students,sub-14,1.0,1.0,1.0,1.0,0.490625 0.4895833333333333 0.4885416666666666 0.4875 0.4869791666666667 0.4869791666666667 0.4869791666666667 0.4864583333333333 0.4864583333333333 0.4864583333333333 0.4859375 0.4854166666666666 0.4848958333333334 0.4838541666666666 0.4822916666666667 0.4802083333333334 0.4734375 0.4682291666666666 0.4614583333333334 0.4536458333333334 0.4447916666666665 0.4276041666666667 0.4166666666666667 0.40208333333333335 0.3854166666666667 0.3661458333333333 0.3265625 0.30520833333333336 0.2859375 0.2708333333333333 0.25625 0.2348958333333333 0.22760416666666666 0.22239583333333326 0.21770833333333334 0.2125 0.20625 0.20416666666666666 0.20260416666666667 0.19947916666666668 0.1953125 0.18854166666666666 0.1875 0.18541666666666667 0.18229166666666666 0.17916666666666667 0.17395833333333333 0.17291666666666666 0.17291666666666666 0.17291666666666666 0.17239583333333333 0.171875 0.17135416666666667 0.17135416666666667,0.8027777777777778 0.8 0.7972222222222223 0.7944444444444445 0.79375 0.79375 0.79375 0.79375 0.7923611111111111 0.7923611111111111 0.7923611111111111 0.7916666666666666 0.7902777777777777 0.7888888888888889 0.7854166666666667 0.78125 0.7680555555555555 0.7569444444444444 0.7423611111111111 0.7243055555555555 0.7055555555555555 0.6631944444444444 0.6361111111111111 0.5993055555555555 0.5583333333333333 0.5131944444444445 0.41875 0.36458333333333337 0.3173611111111111 0.2798611111111111 0.24097222222222225 0.18194444444444446 0.16319444444444442 0.14930555555555558 0.13749999999999996 0.12708333333333333 0.11250000000000004 0.10833333333333328 0.10555555555555553 0.10069444444444442 0.09375 0.08402777777777781 0.08263888888888893 0.08263888888888893 0.08402777777777781 0.08611111111111114 0.09166666666666667 0.09305555555555556 0.09375 0.09513888888888887 0.09583333333333333 0.0986111111111111 0.10069444444444442 0.10138888888888886,1084.2000000000116 1104.2000000000116 1124.2000000000116 1144.2000000000114 1164.2000000000114 1184.2000000000114 1204.2000000000114 1224.2000000000114 1244.2000000000114 1264.2000000000114 1284.2000000000114 1304.2000000000114 1324.2000000000114 1344.2000000000114 1364.2000000000114 1384.2000000000116 1404.2000000000116 1424.2000000000116 1444.2000000000116 1464.2000000000116 1484.2000000000116 1504.2000000000116 1524.2000000000116 1544.2000000000116 1564.2000000000116 1584.2000000000116 1604.2000000000116 1624.2000000000116 1644.2000000000116 1664.2000000000116 1684.2000000000116 1704.2000000000116 1724.2000000000116 1744.2000000000116 1764.2000000000116 1784.2000000000116 1804.2000000000119 1824.2000000000119 1844.2000000000119 1864.2000000000119 1884.2000000000119 1904.2000000000119 1924.2000000000119 1944.2000000000119 1964.2000000000119 1984.2000000000119 2004.2000000000119 2024.2000000000119 2044.2000000000119 2064.200000000012 2084.200000000012 2104.200000000012 2124.200000000012 2144.200000000012
cb_10,3.0,enc_trial,stim,response,STEM students,3386.6000000715144,enc_trial,1.0,3.0,s_sh_11_1,student_shared,fold-b,pencil case,10.0,competing,close,paired,s_sh_11_1.jpg,,student-b1,STEM students,Fine Arts students,sub-14,1.0,1.0,0.0,0.0,0.5135416666666667 0.5125 0.5104166666666666 0.5088541666666667 0.5088541666666667 0.5239583333333333 0.5416666666666666 0.5614583333333333 0.58125 0.6036458333333333 0.6296875 0.6854166666666667 0.7104166666666667 0.7307291666666667 0.7447916666666666 0.7557291666666667 0.7666666666666667 0.7677083333333333 0.7677083333333333 0.7682291666666666 0.7682291666666666 0.76875 0.7677083333333333 0.7505208333333333 0.7078125 0.6354166666666666 0.4572916666666666 0.3625 0.2848958333333333 0.2322916666666667 0.2078125 0.1921875 0.19166666666666668 0.19166666666666668 0.19166666666666668 0.19166666666666668 0.19166666666666668 0.19166666666666668 0.19166666666666668 0.19166666666666668 0.19114583333333326 0.18958333333333333 0.1890625 0.18854166666666666 0.18645833333333334 0.1828125 0.1703125 0.16458333333333333 0.1609375 0.15989583333333332 0.15989583333333332 0.15989583333333332 0.15989583333333332 0.16041666666666668 0.1703125 0.19583333333333333 0.3359375 0.4348958333333333 0.5296875 0.6359375 0.7338541666666667 0.85625 0.8817708333333333 0.890625 0.8911458333333333 0.8911458333333333 0.8859375 0.875 0.8588541666666667 0.8442708333333333 0.8322916666666667 0.80625 0.7822916666666667 0.7552083333333334 0.7364583333333333 0.7317708333333334 0.7333333333333333 0.7390625 0.7453125 0.7505208333333333 0.7536458333333333 0.7645833333333333 0.7697916666666667 0.7708333333333334 0.7708333333333334 0.7708333333333334 0.7708333333333334 0.7708333333333334 0.7708333333333334 0.7708333333333334 0.7708333333333334 0.7703125 0.7692708333333333 0.7692708333333333 0.7692708333333333 0.7692708333333333 0.7692708333333333 0.7692708333333333 0.76875 0.7645833333333333 0.7505208333333333 0.6552083333333333 0.5817708333333333 0.5005208333333333 0.43072916666666666 0.37604166666666666 0.31666666666666665 0.3015625 0.29322916666666665 0.2869791666666667 0.2786458333333333 0.2442708333333333 0.2260416666666667 0.21510416666666668 0.20885416666666667 0.20364583333333333 0.190625 0.1796875 0.165625 0.15520833333333334 0.14947916666666666 0.1453125 0.14583333333333334,0.8229166666666666 0.8173611111111111 0.8076388888888889 0.7895833333333333 0.7659722222222223 0.6951388888888889 0.6472222222222221 0.5875 0.5159722222222223 0.4479166666666666 0.37916666666666665 0.27361111111111114 0.2416666666666667 0.2222222222222222 0.2090277777777778 0.1993055555555555 0.1930555555555556 0.1930555555555556 0.1930555555555556 0.1930555555555556 0.1930555555555556 0.1930555555555556 0.19166666666666665 0.1805555555555556 0.16666666666666666 0.15347222222222226 0.1527777777777778 0.16041666666666665 0.1659722222222222 0.16874999999999996 0.16527777777777775 0.1611111111111111 0.16041666666666665 0.16041666666666665 0.16041666666666665 0.16041666666666665 0.16041666666666665 0.16041666666666665 0.16041666666666665 0.16041666666666665 0.1597222222222222 0.15833333333333333 0.15833333333333333 0.15833333333333333 0.15763888888888888 0.15763888888888888 0.15763888888888888 0.15902777777777774 0.15902777777777774 0.15902777777777774 0.15902777777777774 0.15902777777777774 0.15902777777777774 0.16041666666666665 0.1611111111111111 0.1611111111111111 0.1527777777777778 0.14930555555555558 0.14861111111111114 0.15208333333333335 0.15347222222222226 0.14027777777777772 0.1347222222222222 0.1333333333333333 0.13263888888888886 0.13263888888888886 0.1333333333333333 0.1368055555555555 0.14097222222222228 0.1430555555555556 0.14513888888888893 0.14861111111111114 0.15208333333333335 0.15694444444444444 0.1597222222222222 0.1597222222222222 0.1597222222222222 0.15902777777777774 0.15902777777777774 0.15902777777777774 0.15902777777777774 0.1611111111111111 0.16319444444444442 0.16319444444444442 0.16319444444444442 0.16319444444444442 0.16319444444444442 0.16319444444444442 0.16319444444444442 0.16319444444444442 0.16319444444444442 0.16319444444444442 0.16319444444444442 0.16319444444444442 0.16319444444444442 0.16319444444444442 0.16319444444444442 0.16319444444444442 0.16319444444444442 0.1645833333333333 0.16666666666666666 0.17083333333333328 0.17708333333333334 0.18472222222222226 0.1930555555555556 0.19652777777777766 0.19513888888888886 0.19166666666666665 0.18888888888888888 0.1868055555555556 0.18333333333333326 0.17222222222222228 0.1659722222222222 0.1611111111111111 0.15833333333333333 0.15625 0.1513888888888889 0.14722222222222225 0.1430555555555556 0.14166666666666672 0.14166666666666672 0.14166666666666672 0.14097222222222228,934.0999999999768 954.0999999999768 974.0999999999768 994.0999999999768 1014.0999999999768 1034.0999999999767 1054.0999999999767 1074.0999999999767 1094.0999999999767 1114.0999999999767 1134.0999999999767 1154.0999999999767 1174.0999999999767 1194.0999999999767 1214.0999999999767 1234.0999999999767 1254.0999999999767 1274.0999999999767 1294.0999999999767 1314.0999999999767 1334.0999999999767 1354.0999999999767 1374.0999999999767 1394.0999999999767 1414.0999999999767 1434.0999999999767 1454.0999999999767 1474.0999999999767 1494.0999999999767 1514.0999999999767 1534.0999999999767 1554.0999999999767 1574.0999999999767 1594.0999999999767 1614.0999999999767 1634.0999999999767 1654.0999999999767 1674.0999999999767 1694.0999999999767 1714.0999999999767 1734.0999999999767 1754.0999999999767 1774.0999999999767 1794.0999999999767 1814.0999999999767 1834.0999999999767 1854.0999999999767 1874.0999999999767 1894.0999999999767 1914.0999999999767 1934.0999999999767 1954.0999999999767 1974.0999999999767 1994.0999999999767 2014.0999999999767 2034.0999999999767 2054.0999999999767 2074.0999999999767 2094.0999999999767 2114.0999999999767 2134.0999999999767 2154.0999999999767 2174.0999999999767 2194.0999999999767 2214.0999999999767 2234.0999999999767 2254.099999999977 2274.099999999977 2294.099999999977 2314.099999999977 2334.099999999977 2354.099999999977 2374.099999999977 2394.099999999977 2414.099999999977 2434.099999999977 2454.099999999977 2474.099999999977 2494.099999999977 2514.099999999977 2534.099999999977 2554.099999999977 2574.099999999977 2594.099999999977 2614.099999999977 2634.099999999977 2654.099999999977 2674.099999999977 2694.099999999977 2714.099999999977 2734.099999999977 2754.0999999999767 2774.0999999999767 2794.0999999999767 2814.0999999999767 2834.0999999999767 2854.0999999999767 2874.0999999999767 2894.0999999999767 2914.0999999999767 2934.0999999999767 2954.0999999999767 2974.0999999999767 2994.0999999999767 3014.0999999999767 3034.0999999999767 3054.0999999999767 3074.0999999999767 3094.0999999999767 3114.0999999999767 3134.0999999999767 3154.0999999999767 3174.0999999999767 3194.0999999999767 3214.0999999999767 3234.0999999999767 3254.0999999999767 3274.0999999999767 3294.0999999999767 3314.0999999999767 3334.0999999999767 3354.0999999999767 3374.0999999999767
cb_10,4.0,enc_trial,stim,response,Fine Arts students,1307.2999999999886,enc_trial,1.0,4.0,s_a_12_1,student_art,fold-c,saxophone,10.0,unique,close,paired,s_a_12_1.jpg,art,student-b1,STEM students,Fine Arts students,sub-14,1.0,1.0,1.0,1.0,0.50625 0.5104166666666666 0.525 0.5510416666666667 0.5838541666666667 0.6177083333333333 0.6901041666666666 0.728125 0.759375 0.784375 0.796875 0.8010416666666667 0.8 0.7963541666666667 0.79375 0.79375 0.79375 0.7979166666666667 0.8104166666666667 0.8244791666666667 0.8359375 0.8479166666666667,0.8409722222222222 0.8291666666666666 0.7902777777777777 0.7145833333333333 0.6131944444444444 0.5111111111111111 0.3145833333333333 0.2465277777777778 0.20277777777777767 0.17847222222222225 0.16874999999999996 0.16736111111111107 0.1680555555555555 0.1694444444444444 0.1694444444444444 0.1694444444444444 0.1694444444444444 0.17013888888888884 0.1694444444444444 0.1659722222222222 0.1597222222222222 0.1513888888888889,784.0 804.0 824.0 844.0 864.0 884.0 904.0 924.0 944.0 964.0 984.0 1004.0 1024.0 1044.0 1064.0 1084.0 1104.0 1124.0 1144.0 1164.0 1184.0 1204.0
cb_10,5.0,enc_trial,stim,response,STEM students,1083.6000000000058,enc_trial,1.0,5.0,s_s_15_2,student_stem,fold-c,jumper cables,10.0,unique,close,paired,s_s_15_2.jpg,stem,student-b1,STEM students,Fine Arts students,sub-14,1.0,1.0,1.0,1.0,0.4973958333333333 0.496875 0.49375 0.4880208333333334 0.475 0.4005208333333333 0.3359375 0.2734375 0.2296875 0.2015625 0.17916666666666667 0.14322916666666666 0.1328125 0.12864583333333332 0.12604166666666666 0.12395833333333335 0.11979166666666667 0.11770833333333333 0.11666666666666667 0.11666666666666667 0.11614583333333335 0.11614583333333335,0.8243055555555556 0.8208333333333333 0.8125 0.7951388888888888 0.7625 0.5979166666666667 0.4930555555555556 0.4006944444444445 0.33611111111111114 0.2972222222222223 0.275 0.2479166666666667 0.2381944444444445 0.23263888888888884 0.2263888888888889 0.2180555555555556 0.2069444444444445 0.1993055555555555 0.19513888888888886 0.19375 0.19375 0.1923611111111111,517.1000000000058 537.1000000000058 557.1000000000058 577.1000000000057 597.1000000000057 617.1000000000057 637.1000000000057 657.1000000000057 677.1000000000057 697.1000000000058 717.1000000000058 737.1000000000058 757.1000000000058 777.1000000000058 797.1000000000058 817.1000000000058 837.1000000000058 857.1000000000058 877.1000000000058 897.1000000000058 917.1000000000058 937.1000000000058
cb_10,6.0,enc_trial,stim,response,STEM students,2229.4000000715314,enc_trial,1.0,6.0,s_s_19_1,student_stem,fold-c,circuit board,10.0,unique,close,paired,s_s_19_1.jpg,stem,student-b1,STEM students,Fine Arts students,sub-14,1.0,1.0,1.0,1.0,0.5026041666666666 0.5020833333333333 0.5015625 0.5015625 0.5015625 0.5015625 0.5010416666666667 0.5010416666666667 0.5010416666666667 0.5010416666666667 0.5010416666666667 0.5 0.4984375 0.49375 0.4765625 0.44114583333333335 0.3541666666666667 0.325 0.3067708333333333 0.29375 0.2864583333333333 0.2802083333333333 0.278125 0.27447916666666666 0.2692708333333333 0.2614583333333333 0.2453125 0.2375 0.2296875 0.22135416666666666 0.215625 0.2046875 0.19739583333333333 0.19114583333333326 0.1859375 0.18177083333333333 0.17760416666666667 0.1765625 0.175 0.1734375 0.171875 0.16666666666666666 0.16354166666666667 0.1609375 0.159375 0.15885416666666666 0.1578125 0.15729166666666666 0.15677083333333333 0.15625 0.15625 0.15572916666666667 0.15572916666666667 0.15572916666666667 0.15572916666666667 0.15572916666666667 0.15572916666666667 0.15572916666666667 0.15572916666666667 0.15572916666666667 0.15572916666666667 0.15572916666666667 0.15572916666666667 0.15572916666666667 0.15572916666666667 0.15572916666666667 0.15572916666666667 0.15572916666666667 0.15572916666666667 0.15572916666666667 0.15572916666666667 0.15572916666666667 0.15572916666666667 0.15572916666666667 0.15572916666666667 0.15572916666666667 0.15572916666666667 0.15572916666666667 0.15572916666666667 0.15572916666666667 0.15572916666666667 0.15520833333333334,0.825 0.8222222222222222 0.8194444444444444 0.8180555555555555 0.8173611111111111 0.8166666666666667 0.8166666666666667 0.8166666666666667 0.8166666666666667 0.8159722222222222 0.8152777777777778 0.8083333333333333 0.7993055555555555 0.7784722222222222 0.7236111111111111 0.6277777777777778 0.38402777777777775 0.2923611111111111 0.2222222222222222 0.17708333333333334 0.1527777777777778 0.13611111111111107 0.1333333333333333 0.12916666666666665 0.12361111111111113 0.11736111111111115 0.10486111111111107 0.09930555555555554 0.09236111111111113 0.08680555555555558 0.08402777777777781 0.08472222222222225 0.0888888888888889 0.09305555555555556 0.09791666666666664 0.10138888888888886 0.10902777777777772 0.11319444444444447 0.1166666666666667 0.12083333333333335 0.12430555555555554 0.1333333333333333 0.1381944444444444 0.14236111111111116 0.1465277777777778 0.15000000000000002 0.15416666666666667 0.15625 0.15694444444444444 0.15833333333333333 0.1597222222222222 0.1597222222222222 0.1597222222222222 0.16041666666666665 0.16041666666666665 0.1611111111111111 0.1611111111111111 0.1611111111111111 0.1611111111111111 0.1611111111111111 0.1611111111111111 0.1611111111111111 0.1611111111111111 0.1611111111111111 0.1611111111111111 0.1611111111111111 0.1611111111111111 0.1611111111111111 0.1611111111111111 0.1611111111111111 0.1611111111111111 0.16180555555555556 0.16249999999999998 0.16249999999999998 0.16319444444444442 0.16319444444444442 0.16319444444444442 0.16388888888888886 0.16388888888888886 0.16388888888888886 0.16388888888888886 0.16388888888888886,467.1000000000058 487.1000000000058 507.1000000000058 527.1000000000058 547.1000000000058 567.1000000000057 587.1000000000057 607.1000000000057 627.1000000000057 647.1000000000057 667.1000000000057 687.1000000000057 707.1000000000058 727.1000000000058 747.1000000000058 767.1000000000058 787.1000000000058 807.1000000000058 827.1000000000058 847.1000000000058 867.1000000000058 887.1000000000058 907.1000000000058 927.1000000000058 947.1000000000058 967.1000000000058 987.1000000000058 1007.1000000000058 1027.1000000000058 1047.1000000000058 1067.1000000000058 1087.1000000000058 1107.1000000000058 1127.1000000000058 1147.1000000000058 1167.1000000000058 1187.1000000000058 1207.1000000000058 1227.1000000000058 1247.1000000000058 1267.1000000000058 1287.1000000000058 1307.1000000000058 1327.1000000000058 1347.1000000000058 1367.1000000000058 1387.1000000000058 1407.1000000000058 1427.1000000000058 1447.1000000000058 1467.1000000000058 1487.1000000000058 1507.1000000000058 1527.1000000000058 1547.1000000000058 1567.1000000000058 1587.1000000000058 1607.1000000000058 1627.1000000000058 1647.1000000000058 1667.1000000000058 1687.1000000000058 1707.1000000000058 1727.1000000000058 1747.1000000000058 1767.1000000000058 1787.1000000000058 1807.1000000000056 1827.1000000000056 1847.1000000000056 1867.1000000000056 1887.1000000000056 1907.1000000000056 1927.1000000000056 1947.1000000000056 1967.1000000000056 1987.1000000000056 2007.1000000000056 2027.1000000000056 2047.1000000000056 2067.1000000000063 2087.1000000000063
cb_10,7.0,enc_trial,stim,response,Fine Arts students,1628.8999999761581,enc_trial,1.0,7.0,s_sh_11_2,student_shared,fold-b,pencil case,10.0,competing,close,paired,s_sh_11_2.jpg,,student-b1,STEM students,Fine Arts students,sub-14,1.0,1.0,0.0,0.0,0.490625 0.4901041666666667 0.4895833333333333 0.4880208333333334 0.4859375 0.4817708333333333 0.4552083333333333 0.42604166666666665 0.3885416666666667 0.3489583333333333 0.3125 0.28958333333333336 0.2927083333333333 0.3 0.3098958333333333 0.328125 0.425 0.5057291666666667 0.6140625 0.7265625 0.8171875 0.915625 0.9296875 0.9348958333333334 0.9348958333333334 0.9348958333333334 0.9348958333333334 0.9348958333333334 0.9348958333333334 0.9348958333333334 0.9348958333333334 0.9265625 0.9161458333333332 0.9057291666666668 0.9 0.8979166666666667 0.8963541666666667 0.8958333333333334 0.8947916666666667 0.8942708333333333 0.8942708333333333 0.89375 0.8932291666666666,0.8034722222222223 0.8020833333333334 0.8 0.7944444444444445 0.7847222222222222 0.7645833333333334 0.6673611111111111 0.5729166666666667 0.4541666666666667 0.3368055555555556 0.21736111111111112 0.04722222222222228 0.004861111111111094 0.000694444444444442 0.000694444444444442 0.000694444444444442 0.000694444444444442 0.000694444444444442 0.001388888888888884 0.0180555555555556 0.032638888888888884 0.03819444444444442 0.03888888888888886 0.04027777777777775 0.04236111111111107 0.04861111111111116 0.056944444444444464 0.05833333333333335 0.05972222222222224 0.06319444444444444 0.06666666666666665 0.07847222222222228 0.08472222222222225 0.09097222222222223 0.09583333333333333 0.09999999999999998 0.10486111111111107 0.1069444444444444 0.10833333333333328 0.11041666666666672 0.1118055555555556 0.11319444444444447 0.11388888888888893,717.2999999999884 737.2999999999884 757.2999999999884 777.2999999999884 797.2999999999884 817.2999999999884 837.2999999999884 857.2999999999884 877.2999999999884 897.2999999999884 917.2999999999884 937.2999999999884 957.2999999999884 977.2999999999884 997.2999999999884 1017.2999999999884 1037.2999999999884 1057.2999999999884 1077.2999999999884 1097.2999999999884 1117.2999999999884 1137.2999999999886 1157.2999999999886 1177.2999999999886 1197.2999999999886 1217.2999999999886 1237.2999999999886 1257.2999999999886 1277.2999999999886 1297.2999999999886 1317.2999999999886 1337.2999999999886 1357.2999999999886 1377.2999999999884 1397.2999999999884 1417.2999999999884 1437.2999999999884 1457.2999999999884 1477.2999999999884 1497.2999999999884 1517.2999999999884 1537.2999999999884 1557.2999999999884
cb_10,8.0,enc_trial,stim,response,Fine Arts students,1840.9000000715314,enc_trial,1.0,8.0,s_a_16_2,student_art,fold-b,piano,10.0,unique,far,paired,s_a_16_2.jpg,art,student-b1,STEM students,Fine Arts students,sub-14,1.0,1.0,1.0,1.0,0.5067708333333333 0.5046875 0.5020833333333333 0.4984375 0.4963541666666666 0.4947916666666667 0.4869791666666667 0.4817708333333333 0.4770833333333334 0.4703125 0.459375 0.4203125 0.375 0.309375 0.24375 0.190625 0.15104166666666666 0.146875 0.14635416666666667 0.14583333333333334 0.14479166666666668 0.14114583333333333 0.13958333333333334 0.13802083333333334 0.13697916666666668 0.13697916666666668 0.14375 0.14583333333333334 0.146875 0.14791666666666667 0.1484375 0.1484375 0.1484375 0.1484375 0.1484375 0.1484375 0.1484375 0.1484375 0.1484375 0.1484375 0.1484375 0.1484375 0.1484375 0.1484375 0.1484375 0.1484375 0.1484375 0.1484375 0.1484375 0.1484375 0.15208333333333332 0.284375 0.42291666666666666 0.5739583333333333 0.703125 0.7859375 0.8401041666666667 0.8416666666666667 0.8416666666666667 0.8416666666666667 0.8416666666666667 0.846875 0.8494791666666667 0.85 0.8515625 0.8588541666666667 0.878125 0.88125 0.88125,0.81875 0.8097222222222222 0.7916666666666666 0.7569444444444444 0.7131944444444445 0.6527777777777778 0.4909722222222223 0.40625 0.3388888888888889 0.2944444444444444 0.25625 0.1993055555555555 0.16180555555555556 0.11736111111111115 0.07291666666666663 0.031944444444444435 0.000694444444444442 0.000694444444444442 0.000694444444444442 0.000694444444444442 0.0034722222222222108 0.013888888888888841 0.019444444444444486 0.025000000000000026 0.03125 0.03888888888888886 0.06388888888888887 0.07361111111111107 0.08194444444444449 0.0888888888888889 0.09305555555555556 0.09583333333333333 0.09583333333333333 0.09583333333333333 0.09583333333333333 0.09583333333333333 0.09583333333333333 0.09583333333333333 0.09583333333333333 0.09583333333333333 0.09583333333333333 0.09583333333333333 0.09583333333333333 0.09583333333333333 0.09583333333333333 0.09583333333333333 0.09583333333333333 0.09583333333333333 0.09583333333333333 0.09583333333333333 0.09652777777777777 0.08819444444444446 0.0805555555555556 0.0756944444444444 0.06874999999999998 0.06527777777777778 0.07013888888888886 0.07152777777777775 0.07222222222222219 0.07222222222222219 0.07291666666666663 0.07638888888888884 0.07638888888888884 0.07708333333333328 0.07847222222222228 0.08472222222222225 0.09999999999999998 0.1020833333333333 0.10277777777777776,483.80000000001746 503.80000000001746 523.8000000000175 543.8000000000175 563.8000000000175 583.8000000000175 603.8000000000175 623.8000000000175 643.8000000000175 663.8000000000175 683.8000000000175 703.8000000000176 723.8000000000176 743.8000000000176 763.8000000000176 783.8000000000176 803.8000000000176 823.8000000000176 843.8000000000176 863.8000000000176 883.8000000000176 903.8000000000177 923.8000000000177 943.8000000000177 963.8000000000177 983.8000000000177 1003.8000000000177 1023.8000000000177 1043.8000000000177 1063.8000000000177 1083.8000000000177 1103.8000000000177 1123.8000000000177 1143.8000000000175 1163.8000000000175 1183.8000000000175 1203.8000000000175 1223.8000000000175 1243.8000000000175 1263.8000000000175 1283.8000000000175 1303.8000000000175 1323.8000000000175 1343.8000000000175 1363.8000000000175 1383.8000000000175 1403.8000000000175 1423.8000000000175 1443.8000000000175 1463.8000000000175 1483.8000000000175 1503.8000000000175 1523.8000000000175 1543.8000000000175 1563.8000000000175 1583.8000000000175 1603.8000000000175 1623.8000000000175 1643.8000000000175 1663.8000000000175 1683.8000000000175 1703.8000000000175 1723.8000000000175 1743.8000000000175 1763.8000000000175 1783.8000000000175 1803.8000000000175 1823.8000000000175 1843.8000000000175
cb_10,9.0,enc_trial,stim,response,Fine Arts students,1031.4000000476954,enc_trial,1.0,9.0,s_sh_18_1,student_shared,fold-c-single,wall calendar,10.0,competing,,single,s_sh_18_1.jpg,,student-b1,STEM students,Fine Arts students,sub-14,1.0,,1.0,,0.5005208333333333 0.4979166666666667 0.4932291666666666 0.4890625 0.484375 0.4817708333333333 0.4796875 0.4802083333333334 0.4869791666666667 0.4979166666666667 0.525 0.5317708333333333 0.5380208333333333 0.546875 0.5604166666666667 0.5776041666666667 0.6213541666666667 0.6515625 0.6875 0.7296875 0.7619791666666667 0.83125 0.8588541666666667 0.871875 0.8760416666666667 0.8765625 0.8791666666666667 0.8796875 0.8796875 0.8796875 0.8796875 0.8796875,0.8215277777777777 0.8166666666666667 0.8076388888888889 0.7986111111111112 0.7875 0.7777777777777778 0.7527777777777778 0.7319444444444445 0.6958333333333333 0.65 0.5458333333333334 0.4694444444444445 0.37777777777777777 0.2909722222222222 0.2125 0.1527777777777778 0.08680555555555558 0.07361111111111107 0.06458333333333333 0.05972222222222224 0.06111111111111112 0.08263888888888893 0.09513888888888887 0.10555555555555553 0.11458333333333336 0.12361111111111113 0.1381944444444444 0.1381944444444444 0.1381944444444444 0.1381944444444444 0.1381944444444444 0.13888888888888884,400.40000000002334 420.40000000002334 440.40000000002334 460.40000000002334 480.40000000002334 500.40000000002334 520.4000000000234 540.4000000000234 560.4000000000234 580.4000000000233 600.4000000000233 620.4000000000233 640.4000000000233 660.4000000000233 680.4000000000233 700.4000000000232 720.4000000000232 740.4000000000232 760.4000000000232 780.4000000000232 800.4000000000232 820.4000000000232 840.4000000000232 860.4000000000232 880.4000000000232 900.4000000000232 920.4000000000232 940.4000000000232 960.4000000000232 980.4000000000232 1000.4000000000232 1020.4000000000232
cb_10,10.0,enc_trial,stim,response,STEM students,906.2000000238477,enc_trial,1.0,10.0,s_s_19_2,student_stem,fold-c,circuit board,10.0,unique,close,paired,s_s_19_2.jpg,stem,student-b1,STEM students,Fine Arts students,sub-14,1.0,1.0,1.0,1.0,0.5104166666666666 0.5098958333333333 0.5098958333333333 0.5098958333333333 0.5098958333333333 0.5098958333333333 0.5098958333333333 0.5098958333333333 0.5098958333333333 0.5098958333333333 0.5098958333333333 0.5098958333333333 0.5098958333333333 0.509375 0.5072916666666667 0.5036458333333333 0.4848958333333334 0.4703125 0.45625 0.4375 0.4140625 0.3067708333333333 0.2260416666666667 0.15729166666666666 0.10989583333333333 0.09166666666666666 0.0875 0.0875 0.0875 0.0875 0.0875 0.0875 0.0875 0.08854166666666667 0.09270833333333334 0.10052083333333334 0.11875 0.1234375 0.12604166666666666 0.1265625,0.8166666666666667 0.8173611111111111 0.8173611111111111 0.8173611111111111 0.8173611111111111 0.8173611111111111 0.8173611111111111 0.8173611111111111 0.8180555555555555 0.8180555555555555 0.8180555555555555 0.8180555555555555 0.8180555555555555 0.8180555555555555 0.8145833333333333 0.80625 0.7638888888888888 0.7173611111111111 0.6645833333333333 0.5895833333333333 0.5083333333333333 0.3069444444444445 0.1972222222222222 0.11805555555555558 0.07499999999999996 0.05972222222222224 0.05555555555555558 0.05555555555555558 0.05555555555555558 0.05555555555555558 0.05555555555555558 0.05555555555555558 0.05555555555555558 0.0576388888888889 0.06527777777777778 0.07916666666666672 0.10902777777777772 0.1166666666666667 0.12291666666666667 0.12430555555555554,100.10000000000582 120.10000000000582 140.10000000000582 160.10000000000582 180.1000000000058 200.10000000000585 220.10000000000585 240.10000000000585 260.1000000000058 280.1000000000058 300.1000000000058 320.1000000000058 340.1000000000058 360.1000000000058 380.1000000000058 400.1000000000058 420.1000000000058 440.1000000000058 460.1000000000058 480.1000000000058 500.1000000000058 520.1000000000058 540.1000000000058 560.1000000000058 580.1000000000057 600.1000000000057 620.1000000000057 640.1000000000057 660.1000000000057 680.1000000000057 700.1000000000058 720.1000000000058 740.1000000000058 760.1000000000058 780.1000000000058 800.1000000000058 820.1000000000058 840.1000000000058 860.1000000000058 880.1000000000058
cb_10,11.0,enc_trial,stim,response,Fine Arts students,1082.7999999999884,enc_trial,1.0,11.0,s_a_12_2,student_art,fold-c,saxophone,10.0,unique,close,paired,s_a_12_2.jpg,art,student-b1,STEM students,Fine Arts students,sub-14,1.0,1.0,1.0,1.0,0.490625 0.4875 0.4838541666666666 0.4802083333333334 0.4755208333333333 0.4723958333333334 0.46875 0.4661458333333333 0.4609375 0.44947916666666665 0.4296875 0.3770833333333333 0.353125 0.33645833333333336 0.3296875 0.34791666666666665 0.4848958333333334 0.6020833333333333 0.7244791666666667 0.8088541666666667 0.859375 0.8921875 0.8963541666666667 0.8979166666666667 0.8979166666666667 0.8947916666666667 0.8822916666666667 0.8776041666666666 0.8755208333333333 0.8744791666666667,0.7930555555555556 0.7861111111111111 0.7763888888888889 0.7645833333333334 0.7506944444444444 0.7402777777777778 0.7291666666666667 0.7215277777777778 0.7069444444444444 0.6763888888888889 0.6243055555555556 0.46875 0.3666666666666667 0.2666666666666667 0.1645833333333333 0.0673611111111111 0.000694444444444442 0.000694444444444442 0.009027777777777746 0.02083333333333337 0.03055555555555556 0.05833333333333335 0.07708333333333328 0.09375 0.10486111111111107 0.11597222222222225 0.1381944444444444 0.14583333333333334 0.14930555555555558 0.15069444444444444,467.0 487.0 507.0 527.0 547.0 567.0 587.0 607.0 627.0 647.0 667.0 687.0 707.0 727.0 747.0 767.0 787.0 807.0 827.0 847.0 867.0 887.0 907.0 927.0 947.0 967.0 987.0 1007.0 1027.0 1047.0
cb_10,12.0,enc_trial,stim,response,STEM students,1582.000000047672,enc_trial,1.0,12.0,s_sh_16_1,student_shared,fold-a,stapler,10.0,competing,far,paired,s_sh_16_1.jpg,,student-b1,STEM students,Fine Arts students,sub-14,1.0,1.0,1.0,0.0,0.4885416666666666 0.4859375 0.4833333333333333 0.4802083333333334 0.478125 0.4739583333333333 0.44114583333333335 0.3979166666666665 0.3421875 0.2875 0.2385416666666667 0.1828125 0.16927083333333334 0.15885416666666666 0.14739583333333334 0.13229166666666667 0.103125 0.09635416666666667 0.09322916666666667 0.09166666666666666 0.090625 0.09166666666666666 0.09375 0.09479166666666666 0.0953125 0.09583333333333334 0.10052083333333334 0.10416666666666667 0.10677083333333333 0.11041666666666666 0.11354166666666668 0.1171875 0.11770833333333333 0.11822916666666665,0.7979166666666666 0.7951388888888888 0.7902777777777777 0.7840277777777778 0.7770833333333333 0.7652777777777777 0.6944444444444444 0.60625 0.5034722222222222 0.4111111111111111 0.33333333333333337 0.2631944444444444 0.25069444444444444 0.2395833333333333 0.2263888888888889 0.2069444444444445 0.17291666666666672 0.16388888888888886 0.16041666666666665 0.15486111111111112 0.14861111111111114 0.1368055555555555 0.13541666666666666 0.1347222222222222 0.1347222222222222 0.1347222222222222 0.1347222222222222 0.13541666666666666 0.1368055555555555 0.13749999999999996 0.13888888888888884 0.14027777777777772 0.14097222222222228 0.14166666666666672,383.69999999998254 403.69999999998254 423.69999999998254 443.69999999998254 463.69999999998254 483.69999999998254 503.69999999998254 523.6999999999825 543.6999999999825 563.6999999999825 583.6999999999825 603.6999999999825 623.6999999999825 643.6999999999825 663.6999999999825 683.6999999999825 703.6999999999824 723.6999999999824 743.6999999999824 763.6999999999824 783.6999999999824 803.6999999999824 823.6999999999824 843.6999999999824 863.6999999999824 883.6999999999824 903.6999999999823 923.6999999999823 943.6999999999823 963.6999999999823 983.6999999999823 1003.6999999999823 1023.6999999999823 1043.6999999999823
cb_10,13.0,enc_trial,stim,response,STEM students,1624.4000000238302,enc_trial,1.0,13.0,s_sh_23_1,student_shared,fold-a,ballpoint pen,10.0,competing,far,paired,s_sh_23_1.jpg,,student-b1,STEM students,Fine Arts students,sub-14,1.0,1.0,1.0,1.0,0.5119791666666667 0.5104166666666666 0.5078125 0.5046875 0.5026041666666666 0.5010416666666667 0.5 0.5 0.5 0.5 0.5 0.5 0.5 0.5 0.5 0.5 0.5 0.5 0.5 0.5 0.5 0.5 0.5 0.5 0.5 0.5 0.5 0.5 0.5 0.5 0.5 0.5 0.5 0.5 0.496875 0.4880208333333334 0.4317708333333333 0.3828125 0.32916666666666666 0.2682291666666667 0.20989583333333334 0.13541666666666666 0.11875 0.11145833333333334 0.1078125 0.10625 0.10052083333333334 0.09739583333333332 0.0953125 0.09427083333333333 0.09427083333333333 0.09427083333333333 0.09427083333333333 0.09427083333333333 0.09427083333333333 0.09479166666666666 0.09583333333333334,0.8083333333333333 0.8055555555555556 0.7993055555555555 0.7902777777777777 0.7826388888888889 0.7763888888888889 0.7715277777777778 0.7701388888888889 0.7694444444444444 0.76875 0.76875 0.76875 0.76875 0.76875 0.76875 0.76875 0.76875 0.76875 0.76875 0.76875 0.76875 0.76875 0.76875 0.76875 0.76875 0.76875 0.7680555555555555 0.7680555555555555 0.7680555555555555 0.7680555555555555 0.7680555555555555 0.7680555555555555 0.7680555555555555 0.7659722222222223 0.7590277777777777 0.7388888888888889 0.6208333333333333 0.5305555555555556 0.4409722222222222 0.35625 0.2875 0.2055555555555556 0.18819444444444444 0.17986111111111114 0.17638888888888893 0.17361111111111116 0.16319444444444442 0.15833333333333333 0.15555555555555556 0.15416666666666667 0.15416666666666667 0.15416666666666667 0.15416666666666667 0.15416666666666667 0.15416666666666667 0.15486111111111112 0.15555555555555556,483.7999999999884 503.7999999999884 523.7999999999884 543.7999999999884 563.7999999999884 583.7999999999884 603.7999999999884 623.7999999999884 643.7999999999884 663.7999999999884 683.7999999999884 703.7999999999884 723.7999999999884 743.7999999999884 763.7999999999884 783.7999999999884 803.7999999999884 823.7999999999884 843.7999999999884 863.7999999999884 883.7999999999884 903.7999999999884 923.7999999999884 943.7999999999884 963.7999999999884 983.7999999999884 1003.7999999999884 1023.7999999999884 1043.7999999999884 1063.7999999999884 1083.7999999999884 1103.7999999999884 1123.7999999999884 1143.7999999999886 1163.7999999999886 1183.7999999999886 1203.7999999999886 1223.7999999999886 1243.7999999999886 1263.7999999999886 1283.7999999999886 1303.7999999999886 1323.7999999999886 1343.7999999999886 1363.7999999999886 1383.7999999999884 1403.7999999999884 1423.7999999999884 1443.7999999999884 1463.7999999999884 1483.7999999999884 1503.7999999999884 1523.7999999999884 1543.7999999999884 1563.7999999999884 1583.7999999999884 1603.7999999999884
cb_10,14.0,enc_trial,stim,response,STEM students,954.9000000476954,enc_trial,1.0,14.0,s_sh_24_1,student_shared,fold-b,desk organizer,10.0,competing,close,paired,s_sh_24_1.jpg,,student-b1,STEM students,Fine Arts students,sub-14,1.0,1.0,0.0,0.0,0.4828125 0.4817708333333333 0.4796875 0.475 0.4666666666666667 0.4552083333333333 0.4083333333333333 0.36875 0.3171875 0.2671875 0.228125 0.16927083333333334 0.1546875 0.14947916666666666 0.14791666666666667 0.14739583333333334 0.146875 0.146875 0.14583333333333334 0.14375 0.1390625 0.12447916666666667 0.121875 0.121875 0.12395833333333335 0.128125 0.1375 0.14166666666666666 0.1453125 0.14791666666666667 0.1484375 0.14895833333333333 0.14947916666666666,0.7993055555555555 0.7972222222222223 0.79375 0.7847222222222222 0.7659722222222223 0.7340277777777777 0.5972222222222222 0.4923611111111112 0.3680555555555556 0.25416666666666665 0.1659722222222222 0.06666666666666665 0.05208333333333337 0.04791666666666672 0.046527777777777724 0.04583333333333328 0.04583333333333328 0.04583333333333328 0.04583333333333328 0.04513888888888884 0.04374999999999996 0.03749999999999998 0.036805555555555536 0.036805555555555536 0.04305555555555552 0.05486111111111114 0.08472222222222225 0.09375 0.10138888888888886 0.10555555555555553 0.10763888888888884 0.11041666666666672 0.1118055555555556,266.9000000000233 286.9000000000233 306.9000000000233 326.9000000000233 346.90000000002334 366.90000000002334 386.90000000002334 406.90000000002334 426.90000000002334 446.90000000002334 466.90000000002334 486.90000000002334 506.90000000002334 526.9000000000234 546.9000000000234 566.9000000000233 586.9000000000233 606.9000000000233 626.9000000000233 646.9000000000233 666.9000000000233 686.9000000000233 706.9000000000232 726.9000000000232 746.9000000000232 766.9000000000232 786.9000000000232 806.9000000000232 826.9000000000232 846.9000000000232 866.9000000000232 886.9000000000232 906.9000000000232
cb_10,15.0,enc_trial,stim,response,STEM students,1000.7000000715198,enc_trial,1.0,15.0,s_s_02_1,student_stem,fold-b,flask,10.0,unique,far,paired,s_s_02_1.jpg,stem,student-b1,STEM students,Fine Arts students,sub-14,1.0,1.0,1.0,1.0,0.5 0.5 0.4989583333333333 0.496875 0.4901041666666667 0.4703125 0.434375 0.42239583333333336 0.4130208333333333 0.4041666666666667 0.3963541666666667 0.3770833333333333 0.3609375 0.34427083333333336 0.32864583333333336 0.3177083333333333 0.3 0.2916666666666667 0.2833333333333333 0.275 0.2635416666666667 0.22447916666666667 0.20520833333333333 0.19010416666666666 0.17864583333333334 0.16979166666666667 0.16145833333333334 0.15989583333333332 0.15885416666666666 0.15729166666666666 0.15625 0.15572916666666667,0.8152777777777778 0.8145833333333333 0.8090277777777778 0.7993055555555555 0.7756944444444445 0.7173611111111111 0.5381944444444444 0.4340277777777778 0.34930555555555554 0.2923611111111111 0.2666666666666667 0.2395833333333333 0.2305555555555555 0.2236111111111111 0.2180555555555556 0.21458333333333326 0.2118055555555556 0.2118055555555556 0.2125 0.2138888888888889 0.2138888888888889 0.2069444444444445 0.20138888888888884 0.19513888888888886 0.18888888888888888 0.1840277777777778 0.17986111111111114 0.1791666666666667 0.17847222222222225 0.17708333333333334 0.17638888888888893 0.1756944444444445,350.2999999999884 370.2999999999884 390.2999999999884 410.2999999999884 430.2999999999884 450.2999999999884 470.2999999999884 490.2999999999884 510.2999999999884 530.2999999999884 550.2999999999884 570.2999999999884 590.2999999999884 610.2999999999884 630.2999999999884 650.2999999999884 670.2999999999884 690.2999999999884 710.2999999999884 730.2999999999884 750.2999999999884 770.2999999999884 790.2999999999884 810.2999999999884 830.2999999999884 850.2999999999884 870.2999999999884 890.2999999999884 910.2999999999884 930.2999999999884 950.2999999999884 970.2999999999884
cb_10,16.0,enc_trial,stim,response,Fine Arts students,1278.899999976158,enc_trial,1.0,16.0,s_a_14_1,student_art,fold-c,guitar pick,10.0,unique,close,paired,s_a_14_1.jpg,art,student-b1,STEM students,Fine Arts students,sub-14,1.0,1.0,1.0,1.0,0.4921875 0.4921875 0.4921875 0.4921875 0.4921875 0.4921875 0.4921875 0.4921875 0.4921875 0.4921875 0.4921875 0.4921875 0.4921875 0.4921875 0.4921875 0.4921875 0.4921875 0.4921875 0.4921875 0.4921875 0.4921875 0.4921875 0.4921875 0.4973958333333333 0.5 0.5 0.4947916666666667 0.4901041666666667 0.4822916666666667 0.4692708333333334 0.4432291666666667 0.3927083333333333 0.3796875 0.375 0.37864583333333335 0.396875 0.465625 0.4942708333333333 0.5104166666666666 0.521875 0.5296875 0.5390625 0.55 0.5692708333333333 0.6151041666666667 0.6802083333333333 0.7739583333333333 0.8125 0.8458333333333333 0.8661458333333333 0.8765625 0.890625 0.8973958333333333 0.9015625 0.9026041666666668 0.9026041666666668 0.8953125 0.8932291666666666 0.8927083333333333 0.8921875 0.8921875 0.8921875,0.83125 0.83125 0.83125 0.83125 0.83125 0.83125 0.83125 0.83125 0.83125 0.83125 0.83125 0.83125 0.83125 0.83125 0.83125 0.83125 0.83125 0.83125 0.83125 0.83125 0.83125 0.83125 0.8368055555555556 0.8555555555555556 0.8673611111111111 0.875 0.8770833333333333 0.8722222222222222 0.8576388888888888 0.8291666666666666 0.7763888888888889 0.6395833333333334 0.5590277777777778 0.48125 0.4138888888888889 0.3513888888888889 0.2902777777777777 0.2777777777777778 0.2694444444444445 0.26388888888888884 0.2625 0.26388888888888884 0.2701388888888889 0.2805555555555556 0.2986111111111112 0.3111111111111111 0.30625 0.2965277777777777 0.2847222222222222 0.275 0.2680555555555556 0.2576388888888889 0.2548611111111111 0.2520833333333333 0.25 0.2444444444444445 0.2090277777777778 0.19375 0.18472222222222226 0.18194444444444446 0.18125 0.17986111111111114,0.0 20.0 40.0 60.0 80.0 100.0 120.0 140.0 160.0 180.0 200.0 220.0 240.0 260.0 280.0 300.0 320.0 340.0 360.0 380.0 400.0 420.0 440.0 460.0 480.0 500.0 520.0 540.0 560.0 580.0 600.0 620.0 640.0 660.0 680.0 700.0 720.0 740.0 760.0 780.0 800.0 820.0 840.0 860.0 880.0 900.0 920.0 940.0 960.0 980.0 1000.0 1020.0 1040.0 1060.0 1080.0 1100.0 1120.0 1140.0 1160.0 1180.0 1200.0 1220.0
cb_10,17.0,enc_trial,stim,response,Fine Arts students,1287.000000023836,enc_trial,1.0,17.0,s_sh_08_1,student_shared,fold-c-single,post-its,10.0,competing,,single,s_sh_08_1.jpg,,student-b1,STEM students,Fine Arts students,sub-14,1.0,,1.0,,0.5052083333333334 0.5078125 0.534375 0.6015625 0.7 0.8015625 0.9119791666666668 0.9411458333333332 0.9552083333333332 0.9598958333333332 0.9630208333333332 0.9661458333333334 0.9661458333333334 0.9635416666666666 0.9619791666666668 0.9604166666666668 0.9484375 0.9296875 0.9 0.8692708333333333 0.8458333333333333 0.8328125 0.8328125 0.8328125 0.8328125 0.8328125 0.8328125 0.8328125 0.8328125 0.8328125 0.8328125 0.8338541666666667 0.8348958333333333 0.8359375 0.8364583333333333,0.8201388888888889 0.7902777777777777 0.7201388888888889 0.6034722222222222 0.45 0.2993055555555556 0.16527777777777775 0.14166666666666672 0.13194444444444442 0.12708333333333333 0.12430555555555554 0.1215277777777778 0.12222222222222225 0.125 0.12638888888888888 0.12708333333333333 0.12916666666666665 0.13124999999999998 0.13194444444444442 0.13194444444444442 0.1298611111111111 0.1284722222222222 0.1284722222222222 0.1284722222222222 0.1284722222222222 0.1284722222222222 0.1284722222222222 0.1284722222222222 0.1284722222222222 0.1284722222222222 0.1284722222222222 0.12916666666666665 0.12916666666666665 0.1298611111111111 0.1298611111111111,600.5 620.5 640.5 660.5 680.5 700.5 720.5 740.5 760.5 780.5 800.5 820.5 840.5 860.5 880.5 900.5 920.5 940.5 960.5 980.5 1000.5 1020.5 1040.5 1060.5 1080.5 1100.5 1120.5 1140.5 1160.5 1180.5 1200.5 1220.5 1240.5 1260.5 1280.5
cb_10,18.0,enc_trial,stim,response,Fine Arts students,1174.8000000715256,enc_trial,1.0,18.0,s_a_17_1,student_art,fold-b,microphone,10.0,unique,far,paired,s_a_17_1.jpg,art,student-b1,STEM students,Fine Arts students,sub-14,1.0,1.0,1.0,1.0,0.4942708333333333 0.4927083333333334 0.4885416666666666 0.478125 0.4552083333333333 0.42552083333333335 0.35208333333333336 0.3104166666666667 0.27447916666666666 0.2411458333333333 0.21458333333333326 0.19375 0.1953125 0.2 0.2046875 0.20677083333333326 0.21770833333333334 0.25052083333333336 0.31197916666666664 0.4015625 0.5083333333333333 0.665625 0.71875 0.7671875 0.8109375 0.8401041666666667 0.8729166666666667 0.8791666666666667 0.8802083333333334 0.8817708333333333 0.8838541666666667 0.884375 0.884375 0.8848958333333333 0.8854166666666666 0.8848958333333333 0.88125 0.8807291666666667,0.8118055555555556 0.8097222222222222 0.8020833333333334 0.78125 0.7361111111111112 0.6701388888888888 0.5055555555555555 0.4166666666666666 0.3458333333333333 0.2888888888888889 0.2493055555555556 0.20763888888888893 0.19513888888888886 0.18194444444444446 0.16874999999999996 0.1597222222222222 0.1444444444444445 0.13541666666666666 0.1347222222222222 0.1479166666666667 0.17083333333333328 0.1923611111111111 0.20416666666666672 0.21875 0.2256944444444444 0.2284722222222222 0.2256944444444444 0.2215277777777777 0.21875 0.21319444444444446 0.2069444444444445 0.20347222222222228 0.19861111111111107 0.1902777777777777 0.18125 0.17500000000000004 0.1694444444444444 0.1694444444444444,383.7000000000117 403.7000000000117 423.7000000000117 443.7000000000117 463.7000000000117 483.7000000000117 503.7000000000117 523.7000000000116 543.7000000000116 563.7000000000116 583.7000000000116 603.7000000000116 623.7000000000116 643.7000000000116 663.7000000000116 683.7000000000116 703.7000000000116 723.7000000000116 743.7000000000116 763.7000000000116 783.7000000000116 803.7000000000116 823.7000000000116 843.7000000000116 863.7000000000116 883.7000000000116 903.7000000000116 923.7000000000116 943.7000000000116 963.7000000000116 983.7000000000116 1003.7000000000116 1023.7000000000116 1043.7000000000116 1063.7000000000116 1083.7000000000116 1103.7000000000116 1123.7000000000116
cb_10,19.0,enc_trial,stim,response,Fine Arts students,1054.100000071514,enc_trial,1.0,19.0,s_a_14_2,student_art,fold-c,guitar pick,10.0,unique,close,paired,s_a_14_2.jpg,art,student-b1,STEM students,Fine Arts students,sub-14,1.0,1.0,1.0,1.0,0.4979166666666667 0.5015625 0.5104166666666666 0.5255208333333333 0.54375 0.5697916666666667 0.65 0.7036458333333333 0.7479166666666667 0.7729166666666667 0.7875 0.7973958333333333 0.8010416666666667 0.8041666666666667 0.8057291666666667 0.8057291666666667 0.8057291666666667 0.8052083333333333 0.8052083333333333 0.8078125 0.8177083333333334 0.8432291666666667 0.8489583333333334 0.8520833333333333 0.8541666666666666 0.8557291666666667 0.8567708333333334,0.825 0.8131944444444444 0.7868055555555555 0.7430555555555556 0.6930555555555555 0.625 0.44166666666666665 0.34444444444444444 0.2631944444444444 0.21319444444444446 0.1777777777777778 0.1333333333333333 0.11597222222222225 0.10486111111111107 0.10069444444444442 0.09999999999999998 0.1020833333333333 0.10416666666666664 0.10624999999999996 0.11041666666666672 0.11805555555555558 0.1298611111111111 0.13124999999999998 0.13194444444444442 0.13263888888888886 0.13402777777777775 0.13611111111111107,500.3999999999942 520.3999999999942 540.3999999999942 560.3999999999942 580.3999999999943 600.3999999999943 620.3999999999943 640.3999999999943 660.3999999999943 680.3999999999943 700.3999999999942 720.3999999999942 740.3999999999942 760.3999999999942 780.3999999999942 800.3999999999942 820.3999999999942 840.3999999999942 860.3999999999942 880.3999999999942 900.3999999999942 920.3999999999942 940.3999999999942 960.3999999999942 980.3999999999942 1000.3999999999942 1020.3999999999942
cb_10,20.0,enc_trial,stim,response,Fine Arts students,1069.000000023836,enc_trial,1.0,20.0,s_sh_24_2,student_shared,fold-b,desk organizer,10.0,competing,close,paired,s_sh_24_2.jpg,,student-b1,STEM students,Fine Arts students,sub-14,1.0,1.0,0.0,0.0,0.5057291666666667 0.5046875 0.5036458333333333 0.5020833333333333 0.5010416666666667 0.4994791666666666 0.4994791666666666 0.4994791666666666 0.5046875 0.5270833333333333 0.5755208333333334 0.7135416666666666 0.775 0.8286458333333333 0.8651041666666667 0.8828125 0.8916666666666667 0.8916666666666667 0.8911458333333333 0.8901041666666667 0.8880208333333334 0.8848958333333333 0.8848958333333333 0.8848958333333333 0.884375 0.8838541666666667 0.8817708333333333 0.8796875 0.8776041666666666 0.8760416666666667 0.8765625 0.8802083333333334 0.8802083333333334,0.8006944444444444 0.7993055555555555 0.79375 0.7847222222222222 0.7756944444444445 0.7583333333333333 0.75625 0.7520833333333333 0.7354166666666666 0.6819444444444445 0.5861111111111111 0.3340277777777778 0.23263888888888884 0.15347222222222226 0.0972222222222222 0.06874999999999998 0.05208333333333337 0.05000000000000005 0.04861111111111116 0.04861111111111116 0.04861111111111116 0.0493055555555556 0.0493055555555556 0.0493055555555556 0.0493055555555556 0.05000000000000005 0.0576388888888889 0.06458333333333333 0.07361111111111107 0.08333333333333337 0.0972222222222222 0.11458333333333336 0.11597222222222225,383.69999999998254 403.69999999998254 423.69999999998254 443.69999999998254 463.69999999998254 483.69999999998254 503.69999999998254 523.6999999999825 543.6999999999825 563.6999999999825 583.6999999999825 603.6999999999825 623.6999999999825 643.6999999999825 663.6999999999825 683.6999999999825 703.6999999999824 723.6999999999824 743.6999999999824 763.6999999999824 783.6999999999824 803.6999999999824 823.6999999999824 843.6999999999824 863.6999999999824 883.6999999999824 903.6999999999823 923.6999999999823 943.6999999999823 963.6999999999823 983.6999999999823 1003.6999999999823 1023.6999999999823
cb_10,21.0,enc_trial,stim,response,Fine Arts students,869.5000000715373,enc_trial,1.0,21.0,s_sh_19_1,student_shared,fold-a,portable plastic drawer,10.0,competing,far,paired,s_sh_19_1.jpg,,student-b1,STEM students,Fine Arts students,sub-14,0.0,0.0,0.0,1.0,0.5109375 0.5104166666666666 0.5104166666666666 0.515625 0.5307291666666667 0.6020833333333333 0.653125 0.7046875 0.75 0.7854166666666667 0.8140625 0.8453125 0.8515625 0.8536458333333333 0.8541666666666666 0.8541666666666666 0.853125 0.8520833333333333,0.8090277777777778 0.8048611111111111 0.7965277777777777 0.7729166666666667 0.7270833333333333 0.5784722222222223 0.4881944444444445 0.40208333333333335 0.32638888888888884 0.2715277777777778 0.2270833333333333 0.1743055555555556 0.16388888888888886 0.15902777777777774 0.15763888888888888 0.15763888888888888 0.15694444444444444 0.15694444444444444,383.6000000000058 403.6000000000058 423.6000000000058 443.6000000000058 463.6000000000058 483.6000000000058 503.6000000000058 523.6000000000058 543.6000000000058 563.6000000000057 583.6000000000057 603.6000000000057 623.6000000000057 643.6000000000057 663.6000000000057 683.6000000000057 703.6000000000058 723.6000000000058
cb_10,22.0,enc_trial,stim,response,Fine Arts students,737.7999999761522,enc_trial,1.0,22.0,s_sh_07_1,student_shared,fold-a,ruler,10.0,competing,far,paired,s_sh_07_1.jpg,,student-b1,STEM students,Fine Arts students,sub-14,0.0,0.0,1.0,0.0,0.5182291666666666 0.5208333333333334 0.528125 0.5421875 0.5609375 0.590625 0.6666666666666666 0.7036458333333333 0.7447916666666666 0.7859375 0.8234375 0.8635416666666667 0.8697916666666666 0.8703125 0.8703125 0.8692708333333333 0.8671875 0.8671875 0.8677083333333333,0.8131944444444444 0.8034722222222223 0.7840277777777778 0.7444444444444445 0.6881944444444444 0.6097222222222223 0.42708333333333337 0.3430555555555556 0.2743055555555556 0.22291666666666665 0.1826388888888889 0.1347222222222222 0.1215277777777778 0.1166666666666667 0.11597222222222225 0.11388888888888893 0.1069444444444444 0.1020833333333333 0.09999999999999998,300.29999999998836 320.29999999998836 340.29999999998836 360.2999999999884 380.2999999999884 400.2999999999884 420.2999999999884 440.2999999999884 460.2999999999884 480.2999999999884 500.2999999999884 520.2999999999884 540.2999999999884 560.2999999999884 580.2999999999884 600.2999999999884 620.2999999999884 640.2999999999884 660.2999999999884
cb_10,23.0,enc_trial,stim,response,STEM students,896.2000000715198,enc_trial,1.0,23.0,s_s_01_1,student_stem,fold-b,microscope,10.0,unique,far,paired,s_s_01_1.jpg,stem,student-b1,STEM students,Fine Arts students,sub-14,1.0,1.0,1.0,1.0,0.4984375 0.4984375 0.4984375 0.4984375 0.4984375 0.4984375 0.4984375 0.4984375 0.4984375 0.4984375 0.4984375 0.4984375 0.4984375 0.4984375 0.4984375 0.4973958333333333 0.4958333333333334 0.4942708333333333 0.4927083333333334 0.4921875 0.4916666666666666 0.4901041666666667 0.4890625 0.4864583333333333 0.4807291666666666 0.4666666666666667 0.40208333333333335 0.3552083333333333 0.30416666666666664 0.259375 0.2171875 0.15729166666666666 0.1390625 0.128125 0.12291666666666665 0.11927083333333335 0.1109375 0.10677083333333333 0.1046875 0.10416666666666667 0.10416666666666667,0.7944444444444445 0.7944444444444445 0.7944444444444445 0.7944444444444445 0.7944444444444445 0.7944444444444445 0.7944444444444445 0.7944444444444445 0.7944444444444445 0.7944444444444445 0.7944444444444445 0.7944444444444445 0.7944444444444445 0.7944444444444445 0.7944444444444445 0.7944444444444445 0.7923611111111111 0.7895833333333333 0.7875 0.7868055555555555 0.7861111111111111 0.7833333333333333 0.78125 0.7756944444444445 0.7631944444444445 0.7368055555555555 0.6277777777777778 0.5541666666666667 0.4777777777777778 0.4055555555555556 0.33472222222222225 0.22916666666666666 0.19513888888888886 0.17638888888888893 0.1694444444444444 0.1659722222222222 0.15902777777777774 0.15694444444444444 0.15625 0.15625 0.15694444444444444,0.0 20.0 40.0 60.0 80.0 100.0 120.0 140.0 160.0 180.0 200.0 220.0 240.0 260.0 280.0 300.0 320.0 340.0 360.0 380.0 400.0 420.0 440.0 460.0 480.0 500.0 520.0 540.0 560.0 580.0 600.0 620.0 640.0 660.0 680.0 700.0 720.0 740.0 760.0 780.0 800.0
cb_10,24.0,enc_trial,stim,response,Fine Arts students,928.6000000715139,enc_trial,1.0,24.0,s_a_16_1,student_art,fold-b,piano,10.0,unique,far,paired,s_a_16_1.jpg,art,student-b1,STEM students,Fine Arts students,sub-14,1.0,1.0,1.0,1.0,0.5067708333333333 0.5057291666666667 0.5036458333333333 0.5026041666666666 0.5015625 0.5010416666666667 0.5265625 0.5572916666666666 0.5963541666666666 0.6458333333333334 0.6921875 0.7520833333333333 0.7651041666666667 0.7713541666666667 0.771875 0.771875 0.7682291666666666 0.7677083333333333 0.7677083333333333 0.7682291666666666 0.7682291666666666 0.7682291666666666 0.771875 0.7885416666666667 0.8145833333333333 0.8416666666666667 0.8755208333333333 0.878125 0.8786458333333333 0.8786458333333333,0.8125 0.8111111111111111 0.8090277777777778 0.80625 0.8027777777777778 0.79375 0.7131944444444445 0.6159722222222221 0.5027777777777778 0.38125 0.2826388888888889 0.1840277777777778 0.16736111111111107 0.16180555555555556 0.1611111111111111 0.1611111111111111 0.17152777777777772 0.17638888888888893 0.1791666666666667 0.18125 0.1826388888888889 0.1826388888888889 0.18194444444444446 0.17222222222222228 0.15763888888888888 0.1430555555555556 0.13611111111111107 0.1368055555555555 0.13888888888888884 0.13958333333333328,317.0 337.0 357.0 377.0 397.0 417.0 437.0 457.0 477.0 497.0 517.0 537.0 557.0 577.0 597.0 617.0 637.0 657.0 677.0 697.0 717.0 737.0 757.0 777.0 797.0 817.0 837.0 857.0 877.0 897.0
cb_10,25.0,enc_trial,stim,response,Fine Arts students,944.9000000238302,enc_trial,1.0,25.0,s_a_15_1,student_art,fold-d-single,drum kit,10.0,unique,,single,s_a_15_1.jpg,art,student-b1,STEM students,Fine Arts students,sub-14,1.0,,1.0,,0.5078125 0.5078125 0.5078125 0.5078125 0.5078125 0.5166666666666667 0.5291666666666667 0.5427083333333333 0.5567708333333333 0.571875 0.5880208333333333 0.6333333333333333 0.6640625 0.7041666666666667 0.7427083333333333 0.7770833333333333 0.8296875 0.8369791666666667 0.8385416666666666 0.8395833333333333 0.8421875 0.8494791666666667 0.85 0.85 0.8515625 0.8583333333333333 0.8760416666666667 0.8786458333333333 0.8786458333333333 0.8786458333333333,0.80625 0.8048611111111111 0.8 0.7888888888888889 0.7631944444444445 0.6513888888888889 0.5715277777777779 0.5 0.4298611111111112 0.37083333333333335 0.3236111111111111 0.24236111111111114 0.21458333333333326 0.1972222222222222 0.1902777777777777 0.1923611111111111 0.21111111111111114 0.21458333333333326 0.2152777777777778 0.2152777777777778 0.2090277777777778 0.1993055555555555 0.1993055555555555 0.1993055555555555 0.19861111111111107 0.1944444444444444 0.1840277777777778 0.18194444444444446 0.18194444444444446 0.18125,317.0 337.0 357.0 377.0 397.0 417.0 437.0 457.0 477.0 497.0 517.0 537.0 557.0 577.0 597.0 617.0 637.0 657.0 677.0 697.0 717.0 737.0 757.0 777.0 797.0 817.0 837.0 857.0 877.0 897.0
cb_10,26.0,enc_trial,stim,response,Fine Arts students,828.0999999761698,enc_trial,1.0,26.0,s_sh_16_2,student_shared,fold-a,stapler,10.0,competing,far,paired,s_sh_16_2.jpg,,student-b1,STEM students,Fine Arts students,sub-14,1.0,1.0,1.0,0.0,0.50625 0.5067708333333333 0.5125 0.5265625 0.5578125 0.6036458333333333 0.7088541666666667 0.7557291666666667 0.7890625 0.815625 0.8333333333333334 0.8421875 0.8427083333333333 0.840625 0.8395833333333333 0.8395833333333333 0.8385416666666666 0.8380208333333333,0.7951388888888888 0.7881944444444444 0.7715277777777778 0.7381944444444444 0.675 0.5791666666666666 0.3625 0.2673611111111112 0.2 0.15902777777777774 0.14722222222222225 0.1513888888888889 0.1611111111111111 0.1694444444444444 0.17291666666666672 0.17291666666666672 0.17500000000000004 0.1756944444444445,350.30000000001746 370.30000000001746 390.30000000001746 410.30000000001746 430.30000000001746 450.30000000001746 470.30000000001746 490.30000000001746 510.30000000001746 530.3000000000175 550.3000000000175 570.3000000000175 590.3000000000175 610.3000000000175 630.3000000000175 650.3000000000175 670.3000000000175 690.3000000000176
cb_10,27.0,enc_trial,stim,response,Fine Arts students,1074.600000071514,enc_trial,1.0,27.0,s_sh_14_1,student_shared,fold-b,printer,10.0,competing,close,paired,s_sh_14_1.jpg,,student-b1,STEM students,Fine Arts students,sub-14,0.0,0.0,0.0,1.0,0.484375 0.4854166666666666 0.4927083333333334 0.5260416666666666 0.58125 0.6432291666666666 0.728125 0.7479166666666667 0.7583333333333333 0.7651041666666667 0.7703125 0.7744791666666667 0.7776041666666667 0.7859375 0.8005208333333333 0.8197916666666667 0.8427083333333333 0.846875 0.8520833333333333 0.8583333333333333 0.8635416666666667 0.8692708333333333 0.8703125 0.8708333333333333,0.8069444444444445 0.8020833333333334 0.7895833333333333 0.7361111111111112 0.6326388888888889 0.49375 0.2958333333333333 0.25416666666666665 0.2340277777777777 0.225 0.21944444444444444 0.21597222222222226 0.2152777777777778 0.2138888888888889 0.2090277777777778 0.2048611111111112 0.19861111111111107 0.1958333333333333 0.1902777777777777 0.18333333333333326 0.1791666666666667 0.17500000000000004 0.1743055555555556 0.1743055555555556,367.0 387.0 407.0 427.0 447.0 467.0 487.0 507.0 527.0 547.0 567.0 587.0 607.0 627.0 647.0 667.0 687.0 707.0 727.0 747.0 767.0 787.0 807.0 827.0
cb_10,28.0,enc_trial,stim,response,STEM students,1328.2000000000114,enc_trial,1.0,28.0,s_s_11_1,student_stem,fold-d-single,scientific scale,10.0,unique,,single,s_s_11_1.jpg,stem,student-b1,STEM students,Fine Arts students,sub-14,1.0,,1.0,,0.5036458333333333 0.5036458333333333 0.5041666666666667 0.5052083333333334 0.5083333333333333 0.5161458333333333 0.584375 0.6369791666666667 0.6859375 0.7213541666666666 0.7432291666666667 0.7713541666666667 0.7765625 0.7776041666666667 0.7776041666666667 0.7776041666666667 0.7776041666666667 0.7776041666666667 0.7776041666666667 0.7776041666666667 0.7776041666666667 0.7770833333333333 0.7770833333333333 0.7770833333333333 0.7729166666666667 0.7427083333333333 0.5489583333333333 0.4244791666666667 0.315625 0.21302083333333333 0.12864583333333332 0.04166666666666666 0.033854166666666664 0.033854166666666664 0.035416666666666666 0.040625 0.056770833333333326 0.06770833333333333 0.0796875 0.096875 0.11302083333333332 0.11979166666666667 0.11875 0.115625 0.11302083333333332 0.1125,0.8048611111111111 0.8020833333333334 0.7979166666666666 0.7909722222222222 0.7791666666666667 0.7604166666666666 0.6381944444444445 0.5444444444444445 0.4451388888888889 0.3652777777777778 0.3138888888888889 0.25277777777777777 0.2381944444444445 0.2340277777777777 0.2333333333333333 0.23263888888888884 0.2319444444444444 0.2319444444444444 0.2319444444444444 0.2319444444444444 0.2319444444444444 0.2354166666666667 0.2354166666666667 0.2354166666666667 0.2298611111111111 0.20972222222222225 0.125 0.09513888888888887 0.08680555555555558 0.0902777777777778 0.0972222222222222 0.08750000000000002 0.0854166666666667 0.0854166666666667 0.08472222222222225 0.08472222222222225 0.08819444444444446 0.09305555555555556 0.09930555555555554 0.10763888888888884 0.11458333333333336 0.11736111111111115 0.11805555555555558 0.11805555555555558 0.11805555555555558 0.11805555555555558,433.7000000000117 453.7000000000117 473.7000000000117 493.7000000000117 513.7000000000116 533.7000000000116 553.7000000000116 573.7000000000116 593.7000000000116 613.7000000000116 633.7000000000116 653.7000000000116 673.7000000000116 693.7000000000116 713.7000000000116 733.7000000000116 753.7000000000116 773.7000000000116 793.7000000000116 813.7000000000116 833.7000000000116 853.7000000000116 873.7000000000116 893.7000000000116 913.7000000000116 933.7000000000116 953.7000000000116 973.7000000000116 993.7000000000116 1013.7000000000116 1033.7000000000116 1053.7000000000116 1073.7000000000116 1093.7000000000116 1113.7000000000116 1133.7000000000114 1153.7000000000114 1173.7000000000114 1193.7000000000114 1213.7000000000114 1233.7000000000114 1253.7000000000114 1273.7000000000114 1293.7000000000114 1313.7000000000114 1333.7000000000114
cb_10,29.0,enc_trial,stim,response,Fine Arts students,1079.2000000715198,enc_trial,1.0,29.0,s_sh_23_2,student_shared,fold-a,ballpoint pen,10.0,competing,far,paired,s_sh_23_2.jpg,,student-b1,STEM students,Fine Arts students,sub-14,1.0,1.0,1.0,1.0,0.5083333333333333 0.5104166666666666 0.5109375 0.5140625 0.5255208333333333 0.5494791666666666 0.6369791666666667 0.6770833333333334 0.7020833333333333 0.721875 0.7385416666666667 0.7671875 0.7796875 0.79375 0.809375 0.8229166666666666 0.8286458333333333 0.8270833333333333 0.8255208333333334 0.8239583333333333 0.8239583333333333 0.8296875 0.8354166666666667 0.8411458333333334 0.8453125 0.8479166666666667 0.8494791666666667 0.8494791666666667 0.8505208333333333 0.8526041666666667 0.8552083333333333 0.85625 0.8567708333333334,0.8034722222222223 0.8027777777777778 0.7993055555555555 0.7895833333333333 0.7673611111111112 0.7305555555555556 0.6138888888888889 0.5548611111111111 0.5076388888888889 0.4666666666666667 0.4305555555555556 0.3659722222222223 0.34375 0.3270833333333333 0.3159722222222222 0.3118055555555556 0.3111111111111111 0.3111111111111111 0.3090277777777778 0.30208333333333337 0.2902777777777777 0.26041666666666663 0.2458333333333333 0.2277777777777777 0.20763888888888893 0.1875 0.1659722222222222 0.16180555555555556 0.15833333333333333 0.1527777777777778 0.14722222222222225 0.14583333333333334 0.14583333333333334,400.2999999999884 420.2999999999884 440.2999999999884 460.2999999999884 480.2999999999884 500.2999999999884 520.2999999999884 540.2999999999884 560.2999999999884 580.2999999999884 600.2999999999884 620.2999999999884 640.2999999999884 660.2999999999884 680.2999999999884 700.2999999999884 720.2999999999884 740.2999999999884 760.2999999999884 780.2999999999884 800.2999999999884 820.2999999999884 840.2999999999884 860.2999999999884 880.2999999999884 900.2999999999884 920.2999999999884 940.2999999999884 960.2999999999884 980.2999999999884 1000.2999999999884 1020.2999999999884 1040.2999999999884
cb_10,30.0,enc_trial,stim,response,Fine Arts students,854.4000000238302,enc_trial,1.0,30.0,s_sh_14_2,student_shared,fold-b,printer,10.0,competing,close,paired,s_sh_14_2.jpg,,student-b1,STEM students,Fine Arts students,sub-14,0.0,0.0,0.0,1.0,0.4614583333333334 0.4692708333333334 0.4817708333333333 0.4958333333333334 0.5182291666666666 0.5916666666666667 0.6317708333333333 0.6630208333333333 0.690625 0.7135416666666666 0.7328125 0.7588541666666667 0.7619791666666667 0.765625 0.7776041666666667 0.8005208333333333 0.8244791666666667 0.8255208333333334 0.8302083333333333 0.8421875 0.8552083333333333 0.8625,0.8034722222222223 0.7805555555555556 0.7270833333333333 0.6284722222222222 0.4958333333333334 0.2243055555555556 0.13402777777777775 0.09097222222222223 0.07777777777777772 0.07430555555555551 0.07430555555555551 0.08194444444444449 0.08611111111111114 0.0888888888888889 0.09513888888888887 0.10486111111111107 0.1215277777777778 0.1298611111111111 0.13958333333333328 0.14930555555555558 0.15555555555555556 0.15763888888888888,350.3999999999942 370.3999999999942 390.3999999999942 410.3999999999942 430.3999999999942 450.3999999999942 470.3999999999942 490.3999999999942 510.3999999999942 530.3999999999942 550.3999999999942 570.3999999999943 590.3999999999943 610.3999999999943 630.3999999999943 650.3999999999943 670.3999999999943 690.3999999999942 710.3999999999942 730.3999999999942 750.3999999999942 770.3999999999942
cb_10,31.0,enc_trial,stim,response,Fine Arts students,1321.2000000238475,enc_trial,1.0,31.0,s_a_07_1,student_art,fold-d-single,yarn,10.0,unique,,single,s_a_07_1.jpg,art,student-b1,STEM students,Fine Arts students,sub-14,1.0,,1.0,,0.5020833333333333 0.5020833333333333 0.5020833333333333 0.5020833333333333 0.5020833333333333 0.5020833333333333 0.5020833333333333 0.5020833333333333 0.5020833333333333 0.5020833333333333 0.5010416666666667 0.5005208333333333 0.5005208333333333 0.503125 0.5125 0.5265625 0.5557291666666667 0.5708333333333333 0.5880208333333333 0.6046875 0.6234375 0.6640625 0.6864583333333333 0.7114583333333333 0.7364583333333333 0.75625 0.7838541666666666 0.79375 0.8036458333333333 0.8130208333333333 0.8208333333333333 0.8296875 0.8333333333333334 0.8380208333333333 0.8427083333333333 0.8494791666666667 0.8635416666666667 0.865625 0.8671875 0.8677083333333333 0.8682291666666667 0.8677083333333333 0.8677083333333333 0.8677083333333333 0.8677083333333333 0.8677083333333333 0.8677083333333333 0.8677083333333333 0.8677083333333333 0.8677083333333333 0.8677083333333333 0.8677083333333333 0.8677083333333333 0.8677083333333333 0.8677083333333333 0.8677083333333333 0.8677083333333333 0.8677083333333333 0.8671875,0.7944444444444445 0.7944444444444445 0.7944444444444445 0.7944444444444445 0.7944444444444445 0.7944444444444445 0.7944444444444445 0.7944444444444445 0.7944444444444445 0.7923611111111111 0.7888888888888889 0.7805555555555556 0.7666666666666666 0.7388888888888889 0.6951388888888889 0.6388888888888888 0.5423611111111111 0.4979166666666667 0.4604166666666667 0.4291666666666667 0.4006944444444445 0.35625 0.3402777777777778 0.3270833333333333 0.3173611111111111 0.3118055555555556 0.2979166666666667 0.2902777777777777 0.2833333333333333 0.2763888888888889 0.26875000000000004 0.2548611111111111 0.2458333333333333 0.2368055555555556 0.22916666666666666 0.21944444444444444 0.20208333333333328 0.19861111111111107 0.1944444444444444 0.1875 0.1791666666666667 0.17222222222222228 0.17222222222222228 0.17222222222222228 0.17222222222222228 0.17222222222222228 0.17222222222222228 0.17222222222222228 0.17222222222222228 0.17222222222222228 0.17222222222222228 0.17222222222222228 0.17222222222222228 0.17222222222222228 0.17222222222222228 0.17222222222222228 0.17222222222222228 0.17222222222222228 0.17222222222222228,0.0 20.0 40.0 60.0 80.0 100.0 120.0 140.0 160.0 180.0 200.0 220.0 240.0 260.0 280.0 300.0 320.0 340.0 360.0 380.0 400.0 420.0 440.0 460.0 480.0 500.0 520.0 540.0 560.0 580.0 600.0 620.0 640.0 660.0 680.0 700.0 720.0 740.0 760.0 780.0 800.0 820.0 840.0 860.0 880.0 900.0 920.0 940.0 960.0 980.0 1000.0 1020.0 1040.0 1060.0 1080.0 1100.0 1120.0 1140.0 1160.0
cb_10,32.0,enc_trial,stim,response,STEM students,793.6000000715138,enc_trial,1.0,32.0,s_s_02_2,student_stem,fold-b,flask,10.0,unique,far,paired,s_s_02_2.jpg,stem,student-b1,STEM students,Fine Arts students,sub-14,1.0,1.0,1.0,1.0,0.4755208333333333 0.4723958333333334 0.465625 0.4479166666666667 0.41458333333333336 0.3645833333333333 0.2364583333333333 0.17395833333333333 0.12916666666666668 0.10520833333333332 0.09479166666666666 0.08229166666666668 0.08072916666666667 0.08020833333333334 0.08020833333333334 0.08020833333333334 0.08020833333333334 0.08020833333333334 0.08072916666666667 0.08177083333333332 0.0828125 0.084375 0.08697916666666666 0.0890625,0.8298611111111112 0.8131944444444444 0.7756944444444445 0.7090277777777778 0.6152777777777778 0.5131944444444445 0.3305555555555556 0.2673611111111112 0.22916666666666666 0.20347222222222228 0.1868055555555556 0.1659722222222222 0.1611111111111111 0.16041666666666665 0.16041666666666665 0.16041666666666665 0.15763888888888888 0.15069444444444444 0.14375000000000004 0.13888888888888884 0.13749999999999996 0.13749999999999996 0.1381944444444444 0.1381944444444444,317.0 337.0 357.0 377.0 397.0 417.0 437.0 457.0 477.0 497.0 517.0 537.0 557.0 577.0 597.0 617.0 637.0 657.0 677.0 697.0 717.0 737.0 757.0 777.0
cb_10,33.0,enc_trial,stim,response,Fine Arts students,908.9000000476954,enc_trial,1.0,33.0,s_a_17_2,student_art,fold-b,microphone,10.0,unique,far,paired,s_a_17_2.jpg,art,student-b1,STEM students,Fine Arts students,sub-14,1.0,1.0,1.0,1.0,0.490625 0.4911458333333333 0.4932291666666666 0.4973958333333333 0.5005208333333333 0.5010416666666667 0.4958333333333334 0.4942708333333333 0.4979166666666667 0.5208333333333334 0.5546875 0.6447916666666667 0.69375 0.7333333333333333 0.759375 0.7760416666666666 0.7895833333333333 0.7911458333333333 0.7921875 0.7932291666666667 0.7963541666666667 0.803125 0.8104166666666667 0.8265625 0.8458333333333333 0.8619791666666666 0.8708333333333333,0.8145833333333333 0.8076388888888889 0.7958333333333334 0.7784722222222222 0.7638888888888888 0.7520833333333333 0.7263888888888889 0.7104166666666667 0.6715277777777777 0.5902777777777778 0.4895833333333334 0.3194444444444444 0.27847222222222223 0.25277777777777777 0.2388888888888889 0.22916666666666666 0.2138888888888889 0.20972222222222225 0.2069444444444445 0.20416666666666672 0.2006944444444444 0.2 0.2 0.1958333333333333 0.1902777777777777 0.18333333333333326 0.17847222222222225,333.6000000000058 353.6000000000058 373.6000000000058 393.6000000000058 413.6000000000058 433.6000000000058 453.6000000000058 473.6000000000058 493.6000000000058 513.6000000000058 533.6000000000058 553.6000000000058 573.6000000000057 593.6000000000057 613.6000000000057 633.6000000000057 653.6000000000057 673.6000000000057 693.6000000000058 713.6000000000058 733.6000000000058 753.6000000000058 773.6000000000058 793.6000000000058 813.6000000000058 833.6000000000058 853.6000000000058
cb_10,34.0,enc_trial,stim,response,Fine Arts students,1124.8000000715256,enc_trial,1.0,34.0,s_sh_22_1,student_shared,fold-c-single,hole puncher,10.0,competing,,single,s_sh_22_1.jpg,,student-b1,STEM students,Fine Arts students,sub-14,1.0,,1.0,,0.490625 0.4895833333333333 0.4880208333333334 0.4869791666666667 0.4859375 0.4828125 0.4786458333333333 0.4713541666666667 0.4635416666666667 0.45625 0.4479166666666667 0.43802083333333336 0.4401041666666667 0.4526041666666666 0.4744791666666667 0.5036458333333333 0.5395833333333333 0.5489583333333333 0.5557291666666667 0.5640625 0.5776041666666667 0.6197916666666666 0.6536458333333334 0.6932291666666667 0.73125 0.7588541666666667 0.7791666666666667 0.7848958333333333 0.7875 0.7880208333333333 0.7885416666666667 0.7911458333333333 0.79375 0.7989583333333333 0.8057291666666667 0.815625 0.8427083333333333 0.8489583333333334 0.853125 0.8567708333333334 0.8583333333333333 0.8598958333333333 0.8609375 0.8609375,0.8222222222222222 0.8208333333333333 0.81875 0.8166666666666667 0.8145833333333333 0.8083333333333333 0.7965277777777777 0.7701388888888889 0.7298611111111111 0.6798611111111111 0.6215277777777778 0.5076388888888889 0.4590277777777778 0.425 0.4055555555555556 0.3916666666666667 0.37083333333333335 0.3638888888888889 0.3569444444444444 0.3486111111111111 0.3402777777777778 0.32291666666666663 0.30208333333333337 0.2715277777777778 0.2381944444444445 0.20347222222222228 0.15486111111111112 0.14097222222222228 0.1381944444444444 0.1381944444444444 0.1381944444444444 0.13888888888888884 0.13958333333333328 0.14097222222222228 0.1430555555555556 0.14583333333333334 0.15069444444444444 0.1513888888888889 0.1527777777777778 0.1527777777777778 0.15347222222222226 0.15416666666666667 0.15416666666666667 0.15486111111111112,250.29999999998842 270.2999999999884 290.29999999998836 310.29999999998836 330.29999999998836 350.2999999999884 370.2999999999884 390.2999999999884 410.2999999999884 430.2999999999884 450.2999999999884 470.2999999999884 490.2999999999884 510.2999999999884 530.2999999999884 550.2999999999884 570.2999999999884 590.2999999999884 610.2999999999884 630.2999999999884 650.2999999999884 670.2999999999884 690.2999999999884 710.2999999999884 730.2999999999884 750.2999999999884 770.2999999999884 790.2999999999884 810.2999999999884 830.2999999999884 850.2999999999884 870.2999999999884 890.2999999999884 910.2999999999884 930.2999999999884 950.2999999999884 970.2999999999884 990.2999999999884 1010.2999999999884 1030.2999999999884 1050.2999999999884 1070.2999999999884 1090.2999999999884 1110.2999999999884
cb_10,35.0,enc_trial,stim,response,Fine Arts students,1156.3000000238535,enc_trial,1.0,35.0,s_sh_10_1,student_shared,fold-b,scissors,10.0,competing,close,paired,s_sh_10_1.jpg,,student-b1,STEM students,Fine Arts students,sub-14,0.0,0.0,1.0,1.0,0.5005208333333333 0.50625 0.5171875 0.5359375 0.5598958333333334 0.5953125 0.715625 0.784375 0.8395833333333333 0.88125 0.9010416666666666 0.9052083333333332 0.9015625 0.896875 0.8921875 0.8890625 0.8833333333333333 0.8822916666666667 0.8822916666666667 0.8838541666666667 0.884375 0.884375 0.884375 0.884375 0.884375 0.884375 0.884375 0.884375 0.884375 0.884375 0.884375 0.884375 0.884375 0.884375 0.884375 0.884375 0.884375,0.8138888888888889 0.7972222222222223 0.7652777777777777 0.6979166666666667 0.5909722222222222 0.4493055555555555 0.15694444444444444 0.056944444444444464 0.011111111111111072 0.009027777777777746 0.020138888888888932 0.04097222222222219 0.054166666666666696 0.06805555555555554 0.07916666666666672 0.08472222222222225 0.0902777777777778 0.09513888888888887 0.10069444444444442 0.10416666666666664 0.10555555555555553 0.1069444444444444 0.1069444444444444 0.1069444444444444 0.1069444444444444 0.1069444444444444 0.10833333333333328 0.10972222222222228 0.10972222222222228 0.10972222222222228 0.10972222222222228 0.10972222222222228 0.10972222222222228 0.10972222222222228 0.10972222222222228 0.11041666666666672 0.11111111111111116,400.10000000003487 420.10000000003487 440.10000000003487 460.10000000003487 480.10000000003487 500.10000000003487 520.1000000000348 540.1000000000348 560.1000000000348 580.1000000000348 600.1000000000348 620.1000000000348 640.1000000000348 660.1000000000348 680.1000000000348 700.1000000000349 720.1000000000349 740.1000000000349 760.1000000000349 780.1000000000349 800.1000000000349 820.1000000000349 840.1000000000349 860.1000000000349 880.1000000000349 900.1000000000349 920.1000000000348 940.1000000000348 960.1000000000348 980.1000000000348 1000.1000000000348 1020.1000000000348 1040.100000000035 1060.100000000035 1080.100000000035 1100.100000000035 1120.100000000035
cb_10,36.0,enc_trial,stim,response,Fine Arts students,935.4000000238302,enc_trial,1.0,36.0,s_sh_19_2,student_shared,fold-a,portable plastic drawer,10.0,competing,far,paired,s_sh_19_2.jpg,,student-b1,STEM students,Fine Arts students,sub-14,0.0,0.0,0.0,1.0,0.5020833333333333 0.5020833333333333 0.5005208333333333 0.4989583333333333 0.4973958333333333 0.4973958333333333 0.5078125 0.525 0.5484375 0.5828125 0.6239583333333333 0.6953125 0.721875 0.7421875 0.7588541666666667 0.7703125 0.7833333333333333 0.7854166666666667 0.7875 0.7916666666666666 0.8005208333333333 0.8166666666666667 0.8223958333333333 0.8276041666666667 0.8354166666666667 0.8473958333333333 0.8671875 0.8723958333333334 0.8734375,0.7979166666666666 0.7951388888888888 0.7916666666666666 0.7840277777777778 0.7736111111111111 0.7583333333333333 0.7013888888888888 0.6486111111111111 0.5895833333333333 0.51875 0.4430555555555555 0.3208333333333333 0.2756944444444445 0.24375 0.21458333333333326 0.1875 0.15763888888888888 0.15486111111111112 0.15347222222222226 0.1513888888888889 0.14722222222222225 0.14166666666666672 0.14166666666666672 0.14236111111111116 0.14513888888888893 0.1465277777777778 0.14930555555555558 0.15000000000000002 0.15069444444444444,350.2999999999884 370.2999999999884 390.2999999999884 410.2999999999884 430.2999999999884 450.2999999999884 470.2999999999884 490.2999999999884 510.2999999999884 530.2999999999884 550.2999999999884 570.2999999999884 590.2999999999884 610.2999999999884 630.2999999999884 650.2999999999884 670.2999999999884 690.2999999999884 710.2999999999884 730.2999999999884 750.2999999999884 770.2999999999884 790.2999999999884 810.2999999999884 830.2999999999884 850.2999999999884 870.2999999999884 890.2999999999884 910.2999999999884
cb_10,37.0,enc_trial,stim,response,Fine Arts students,999.7000000238188,enc_trial,1.0,37.0,s_sh_07_2,student_shared,fold-a,ruler,10.0,competing,far,paired,s_sh_07_2.jpg,,student-b1,STEM students,Fine Arts students,sub-14,0.0,0.0,1.0,0.0,0.5041666666666667 0.5052083333333334 0.5057291666666667 0.5057291666666667 0.5057291666666667 0.50625 0.5328125 0.5692708333333333 0.6083333333333333 0.6416666666666667 0.6765625 0.7557291666666667 0.7880208333333333 0.8052083333333333 0.815625 0.8255208333333334 0.8390625 0.8411458333333334 0.8411458333333334 0.8411458333333334 0.8463541666666666 0.8645833333333334 0.8729166666666667 0.8786458333333333 0.8796875 0.8786458333333333 0.875 0.8734375 0.871875 0.8713541666666667 0.8703125 0.8697916666666666,0.81875 0.8159722222222222 0.8138888888888889 0.8138888888888889 0.8125 0.8055555555555556 0.7298611111111111 0.6395833333333334 0.5402777777777779 0.45625 0.37777777777777777 0.22083333333333333 0.15486111111111112 0.11736111111111115 0.09305555555555556 0.0756944444444444 0.0576388888888889 0.05625000000000002 0.05625000000000002 0.05625000000000002 0.05555555555555558 0.05833333333333335 0.06527777777777778 0.0756944444444444 0.08680555555555558 0.09791666666666664 0.10972222222222228 0.11458333333333336 0.11875000000000002 0.1215277777777778 0.125 0.12569444444444444,350.19999999995343 370.19999999995343 390.19999999995343 410.19999999995343 430.19999999995343 450.19999999995343 470.19999999995343 490.19999999995343 510.19999999995343 530.1999999999534 550.1999999999534 570.1999999999534 590.1999999999534 610.1999999999534 630.1999999999534 650.1999999999534 670.1999999999534 690.1999999999533 710.1999999999533 730.1999999999533 750.1999999999533 770.1999999999533 790.1999999999533 810.1999999999533 830.1999999999533 850.1999999999533 870.1999999999533 890.1999999999533 910.1999999999533 930.1999999999533 950.1999999999533 970.1999999999533
cb_10,38.0,enc_trial,stim,response,Fine Arts students,848.8000000715256,enc_trial,1.0,38.0,s_sh_10_2,student_shared,fold-b,scissors,10.0,competing,close,paired,s_sh_10_2.jpg,,student-b1,STEM students,Fine Arts students,sub-14,0.0,0.0,1.0,1.0,0.5072916666666667 0.5072916666666667 0.5072916666666667 0.5072916666666667 0.5072916666666667 0.5072916666666667 0.5072916666666667 0.5072916666666667 0.5072916666666667 0.5072916666666667 0.5072916666666667 0.5072916666666667 0.5072916666666667 0.5072916666666667 0.5072916666666667 0.5072916666666667 0.5088541666666667 0.5130208333333334 0.5197916666666667 0.5333333333333333 0.5536458333333333 0.6239583333333333 0.6692708333333334 0.7182291666666667 0.7630208333333334 0.7973958333333333 0.8338541666666667 0.8421875 0.8479166666666667 0.85 0.8505208333333333 0.8505208333333333 0.8526041666666667 0.8598958333333333 0.8692708333333333 0.8744791666666667 0.8755208333333333 0.8739583333333333 0.8703125 0.8666666666666667 0.8645833333333334 0.8640625,0.8166666666666667 0.8166666666666667 0.8166666666666667 0.8166666666666667 0.8166666666666667 0.8166666666666667 0.8166666666666667 0.8166666666666667 0.8166666666666667 0.8166666666666667 0.8166666666666667 0.8166666666666667 0.8166666666666667 0.8166666666666667 0.8166666666666667 0.8152777777777778 0.7972222222222223 0.7743055555555556 0.7416666666666667 0.6888888888888889 0.6208333333333333 0.4513888888888888 0.3638888888888889 0.30486111111111114 0.27847222222222223 0.2652777777777777 0.2493055555555556 0.2395833333333333 0.23125 0.2263888888888889 0.2256944444444444 0.2256944444444444 0.22013888888888888 0.20763888888888893 0.1923611111111111 0.18472222222222226 0.1777777777777778 0.17083333333333328 0.16249999999999998 0.15625 0.1527777777777778 0.15208333333333335,0.0 20.0 40.0 60.0 80.0 100.0 120.0 140.0 160.0 180.0 200.0 220.0 240.0 260.0 280.0 300.0 320.0 340.0 360.0 380.0 400.0 420.0 440.0 460.0 480.0 500.0 520.0 540.0 560.0 580.0 600.0 620.0 640.0 660.0 680.0 700.0 720.0 740.0 760.0 780.0 800.0 820.0
cb_10,39.0,enc_trial,stim,response,STEM students,772.9000000000232,enc_trial,1.0,39.0,s_s_01_2,student_stem,fold-b,microscope,10.0,unique,far,paired,s_s_01_2.jpg,stem,student-b1,STEM students,Fine Arts students,sub-14,1.0,1.0,1.0,1.0,0.509375 0.5057291666666667 0.4984375 0.4880208333333334 0.4765625 0.4598958333333333 0.41041666666666665 0.38385416666666666 0.3541666666666667 0.3151041666666667 0.26979166666666665 0.1848958333333333 0.15885416666666666 0.14375 0.1328125 0.12916666666666668 0.12916666666666668 0.12916666666666668 0.13020833333333334,0.8104166666666667 0.8020833333333334 0.7840277777777778 0.7555555555555555 0.71875 0.6673611111111111 0.5097222222222222 0.425 0.3423611111111111 0.2756944444444445 0.23125 0.17986111111111114 0.15902777777777774 0.1444444444444445 0.1333333333333333 0.1298611111111111 0.1298611111111111 0.1298611111111111 0.13055555555555556,333.60000000003487 353.60000000003487 373.60000000003487 393.60000000003487 413.60000000003487 433.60000000003487 453.60000000003487 473.60000000003487 493.60000000003487 513.6000000000348 533.6000000000348 553.6000000000348 573.6000000000348 593.6000000000348 613.6000000000348 633.6000000000348 653.6000000000348 673.6000000000348 693.6000000000349
cb_10,40.0,enc_trial,stim,response,Fine Arts students,969.8000000715256,enc_trial,1.0,40.0,s_s_16_1,student_stem,fold-d-single,toolbox,10.0,unique,,single,s_s_16_1.jpg,stem,student-b1,STEM students,Fine Arts students,sub-14,0.0,,1.0,,0.503125 0.503125 0.503125 0.503125 0.503125 0.503125 0.503125 0.503125 0.503125 0.503125 0.5020833333333333 0.5 0.5 0.5005208333333333 0.5010416666666667 0.5026041666666666 0.5083333333333333 0.5130208333333334 0.5203125 0.5328125 0.5552083333333333 0.6322916666666667 0.6807291666666667 0.7229166666666667 0.7505208333333333 0.7651041666666667 0.7755208333333333 0.7765625 0.7765625 0.7765625 0.7765625 0.7765625 0.7765625 0.7776041666666667 0.7807291666666667 0.7869791666666667 0.8145833333333333 0.83125 0.84375 0.8510416666666667 0.8557291666666667 0.8583333333333333 0.8583333333333333 0.8583333333333333,0.8138888888888889 0.8138888888888889 0.8138888888888889 0.8138888888888889 0.8138888888888889 0.8138888888888889 0.8138888888888889 0.8138888888888889 0.8138888888888889 0.8131944444444444 0.8104166666666667 0.7993055555555555 0.7916666666666666 0.7840277777777778 0.7756944444444445 0.7659722222222223 0.7326388888888888 0.7097222222222221 0.6791666666666667 0.6381944444444445 0.5784722222222223 0.41875 0.3375 0.2715277777777778 0.2319444444444444 0.2118055555555556 0.1902777777777777 0.18472222222222226 0.18333333333333326 0.18333333333333326 0.18333333333333326 0.18333333333333326 0.18333333333333326 0.18611111111111112 0.19375 0.2006944444444444 0.20277777777777767 0.1944444444444444 0.18472222222222226 0.1777777777777778 0.17222222222222228 0.1680555555555555 0.1680555555555555 0.16736111111111107,50.0 70.0 90.0 110.0 130.0 150.0 170.0 190.0 210.0 230.0 250.0 270.0 290.0 310.0 330.0 350.0 370.0 390.0 410.0 430.0 450.0 470.0 490.0 510.0 530.0 550.0 570.0 590.0 610.0 630.0 650.0 670.0 690.0 710.0 730.0 750.0 770.0 790.0 810.0 830.0 850.0 870.0 890.0 910.0
cb_10,41.0,enc_trial,stim,response,Miami trip,1199.399999976158,enc_trial,2.0,1.0,t_m_05_1,travel_Miami,fold-d-single,sunscreen,10.0,unique,,single,t_m_05_1.jpg,Miami,travel-b1,Iceland trip,Miami trip,sub-14,1.0,,1.0,,0.5296875 0.5463541666666667 0.5651041666666666 0.5776041666666667 0.5828125 0.5838541666666667 0.5838541666666667 0.5833333333333334 0.5776041666666667 0.5734375 0.571875 0.5947916666666667 0.6260416666666667 0.6713541666666667 0.7244791666666667 0.7869791666666667 0.9057291666666668 0.9526041666666668 0.9875 1.0015625 1.0041666666666669 1.0067708333333334 1.0098958333333334 1.0114583333333331 1.0114583333333331 1.0078125 0.9744791666666668 0.9520833333333332 0.9276041666666668 0.9104166666666668 0.903125 0.9036458333333334 0.9046875 0.9057291666666668 0.9057291666666668 0.9057291666666668 0.903125 0.903125 0.903125 0.903125,0.83125 0.8368055555555556 0.8430555555555556 0.8486111111111111 0.8493055555555555 0.8493055555555555 0.8493055555555555 0.8493055555555555 0.8493055555555555 0.8451388888888889 0.8319444444444444 0.7520833333333333 0.6854166666666667 0.6006944444444444 0.5048611111111111 0.3965277777777778 0.1840277777777778 0.09583333333333333 0.022916666666666696 0.000694444444444442 0.000694444444444442 0.000694444444444442 0.000694444444444442 0.000694444444444442 0.000694444444444442 0.004166666666666653 0.033333333333333326 0.05208333333333337 0.07291666666666663 0.09236111111111113 0.1020833333333333 0.10972222222222228 0.11250000000000004 0.11458333333333336 0.11805555555555558 0.12291666666666667 0.1298611111111111 0.1298611111111111 0.1298611111111111 0.12916666666666665,417.0 437.0 457.0 477.0 497.0 517.0 537.0 557.0 577.0 597.0 617.0 637.0 657.0 677.0 697.0 717.0 737.0 757.0 777.0 797.0 817.0 837.0 857.0 877.0 897.0 917.0 937.0 957.0 977.0 997.0 1017.0 1037.0 1057.0 1077.0 1097.0 1117.0 1137.0 1157.0 1177.0 1197.0
cb_10,42.0,enc_trial,stim,response,Miami trip,1818.5999999999767,enc_trial,2.0,2.0,t_s_13_1,travel_shared,fold-c-single,contact lens case,10.0,competing,,single,t_s_13_1.jpg,,travel-b1,Iceland trip,Miami trip,sub-14,1.0,,1.0,,0.4890625 0.4885416666666666 0.4885416666666666 0.4885416666666666 0.4885416666666666 0.4885416666666666 0.4911458333333333 0.496875 0.5135416666666667 0.5375 0.5661458333333333 0.6244791666666667 0.6604166666666667 0.6984375 0.7317708333333334 0.7651041666666667 0.8161458333333333 0.8369791666666667 0.8526041666666667 0.859375 0.8619791666666666 0.86875 0.8708333333333333 0.8713541666666667 0.8744791666666667 0.8770833333333333 0.8822916666666667 0.8828125 0.8828125 0.8828125 0.8828125 0.8765625 0.8723958333333334 0.8692708333333333 0.86875 0.8682291666666667 0.86875 0.86875 0.86875 0.86875 0.86875 0.86875 0.86875 0.86875 0.86875 0.86875 0.86875 0.86875 0.86875 0.8682291666666667,0.8326388888888889 0.83125 0.8291666666666666 0.8284722222222223 0.8284722222222223 0.8277777777777777 0.8236111111111111 0.8083333333333333 0.7722222222222223 0.7243055555555555 0.6680555555555556 0.5347222222222222 0.45625 0.3770833333333333 0.3069444444444445 0.2354166666666667 0.11875000000000002 0.07499999999999996 0.0444444444444444 0.02777777777777779 0.015972222222222276 0.000694444444444442 0.000694444444444442 0.000694444444444442 0.000694444444444442 0.000694444444444442 0.000694444444444442 0.000694444444444442 0.000694444444444442 0.006249999999999978 0.019444444444444486 0.05486111111111114 0.07291666666666663 0.08819444444444446 0.1020833333333333 0.10902777777777772 0.11458333333333336 0.1166666666666667 0.1166666666666667 0.1166666666666667 0.1166666666666667 0.1166666666666667 0.1166666666666667 0.1166666666666667 0.1166666666666667 0.1166666666666667 0.1166666666666667 0.1166666666666667 0.11736111111111115 0.11944444444444445,500.2999999999884 520.2999999999884 540.2999999999884 560.2999999999881 580.2999999999881 600.2999999999881 620.2999999999881 640.299999999988 660.2999999999879 680.2999999999879 700.2999999999879 720.2999999999878 740.2999999999878 760.2999999999878 780.2999999999878 800.2999999999877 820.2999999999873 840.2999999999873 860.2999999999873 880.2999999999872 900.2999999999872 920.2999999999872 940.2999999999872 960.2999999999872 980.299999999987 1000.299999999987 1020.299999999987 1040.2999999999868 1060.2999999999868 1080.2999999999868 1100.2999999999868 1120.2999999999863 1140.2999999999865 1160.2999999999865 1180.2999999999865 1200.2999999999865 1220.2999999999865 1240.2999999999865 1260.2999999999865 1280.2999999999859 1300.2999999999859 1320.2999999999859 1340.2999999999859 1360.2999999999859 1380.2999999999859 1400.2999999999859 1420.2999999999859 1440.2999999999854 1460.2999999999854 1480.2999999999854
cb_10,43.0,enc_trial,stim,response,Miami trip,1233.9000000000233,enc_trial,2.0,3.0,t_m_19_1,travel_Miami,fold-b,surfboard,10.0,unique,far,paired,t_m_19_1.jpg,Miami,travel-b1,Iceland trip,Miami trip,sub-14,1.0,1.0,1.0,1.0,0.4848958333333334 0.4854166666666666 0.4859375 0.4859375 0.4864583333333333 0.4864583333333333 0.4864583333333333 0.4864583333333333 0.4864583333333333 0.4864583333333333 0.4864583333333333 0.4864583333333333 0.4864583333333333 0.4864583333333333 0.4864583333333333 0.4864583333333333 0.4864583333333333 0.4864583333333333 0.4864583333333333 0.4864583333333333 0.4864583333333333 0.4864583333333333 0.4864583333333333 0.4864583333333333 0.4864583333333333 0.4864583333333333 0.4864583333333333 0.4864583333333333 0.4864583333333333 0.4864583333333333 0.4864583333333333 0.4864583333333333 0.4864583333333333 0.4864583333333333 0.4864583333333333 0.4864583333333333 0.4880208333333334 0.4921875 0.5 0.5166666666666667 0.5473958333333333 0.634375 0.6848958333333334 0.7276041666666667 0.7614583333333333 0.7890625 0.8390625 0.8583333333333333 0.8708333333333333 0.8796875 0.8875 0.8963541666666667 0.896875 0.896875 0.8963541666666667 0.8947916666666667 0.8864583333333333 0.8833333333333333 0.8828125 0.8822916666666667 0.8822916666666667 0.8822916666666667,0.8020833333333334 0.8020833333333334 0.8020833333333334 0.8020833333333334 0.8020833333333334 0.8013888888888889 0.8013888888888889 0.8013888888888889 0.8013888888888889 0.8013888888888889 0.8013888888888889 0.8013888888888889 0.8013888888888889 0.8013888888888889 0.8013888888888889 0.8013888888888889 0.8013888888888889 0.8013888888888889 0.8013888888888889 0.8013888888888889 0.8013888888888889 0.8013888888888889 0.8013888888888889 0.8013888888888889 0.8013888888888889 0.8013888888888889 0.8013888888888889 0.8013888888888889 0.8013888888888889 0.8013888888888889 0.8013888888888889 0.8013888888888889 0.8013888888888889 0.8013888888888889 0.8 0.7986111111111112 0.7888888888888889 0.7777777777777778 0.7625 0.7333333333333334 0.6854166666666667 0.5402777777777779 0.4541666666666667 0.38125 0.3236111111111111 0.2805555555555556 0.2277777777777777 0.22083333333333333 0.22013888888888888 0.2243055555555556 0.2298611111111111 0.2361111111111112 0.2361111111111112 0.2361111111111112 0.23263888888888884 0.2277777777777777 0.2222222222222222 0.22083333333333333 0.21875 0.21666666666666667 0.21597222222222226 0.2152777777777778,16.600000000034925 36.60000000003493 56.60000000003493 76.60000000003492 96.60000000003492 116.60000000003492 136.60000000003492 156.6000000000349 176.6000000000349 196.60000000003487 216.60000000003487 236.60000000003487 256.6000000000349 276.6000000000349 296.60000000003487 316.60000000003487 336.60000000003487 356.60000000003487 376.60000000003487 396.60000000003487 416.60000000003487 436.60000000003487 456.60000000003487 476.60000000003487 496.60000000003487 516.6000000000348 536.6000000000348 556.6000000000348 576.6000000000348 596.6000000000348 616.6000000000348 636.6000000000348 656.6000000000348 676.6000000000348 696.6000000000349 716.6000000000349 736.6000000000349 756.6000000000349 776.6000000000349 796.6000000000349 816.6000000000349 836.6000000000349 856.6000000000349 876.6000000000349 896.6000000000349 916.6000000000348 936.6000000000348 956.6000000000348 976.6000000000348 996.6000000000348 1016.6000000000348 1036.600000000035 1056.600000000035 1076.600000000035 1096.600000000035 1116.600000000035 1136.600000000035 1156.600000000035 1176.600000000035 1196.600000000035 1216.600000000035 1236.600000000035
