Current Spreadsheet,Trial Number,Display,Screen,Response Type,Response,Reaction Time,display,block,block_trial,stimulus_id,expected_goal,fold,stimulus_name,c_group,condition,within_block_dist,paired_status,stimulus_path,expected_location,block_split,respStim_1,respStim_2,sub_label,acc,both_enc_acc,assoc_stim1_acc,assoc_stim2_acc,x_pos,y_pos,time_trajectories
cb_03,1.0,enc_trial,stim,response,Iceland trip,1660.0000000000873,enc_trial,1.0,1.0,t_i_20_1,travel_Iceland,fold-b-single,lantern,3.0,unique,,single,t_i_20_1.jpg,Iceland,travel-b1,Iceland trip,Miami trip,sub-72,1.0,,1.0,,0.4937395659432388 0.4812186978297162 0.4824707846410685 0.4862270450751252 0.4924874791318865 0.5125208681135225 0.5212854757929883 0.5262938230383973 0.5300500834724541 0.5363105175292153 0.6076794657762938 0.6439899833055092 0.6565108514190316 0.6590150250417361 0.6602671118530884 0.6627712854757929 0.6652754590984974 0.6665275459098496 0.6677796327212019 0.6652754590984974 0.5550918196994992 0.4236227045075125 0.3459933222036728 0.2921535893155259 0.2658597662771285 0.25709515859766274 0.25709515859766274 0.2558430717863105 0.2558430717863105 0.25459098497495825 0.25459098497495825 0.2508347245409015 0.22203672787979964 0.1957429048414024 0.1832220367278798 0.179465776293823 0.17696160267111852 0.17070116861435725 0.16193656093489148 0.15191986644407346 0.14315525876460766 0.1419031719532554 0.14065108514190314 0.14065108514190314,0.7412353923205341 0.5592654424040067 0.4891485809682805 0.4056761268781303 0.37395659432387307 0.28046744574290483 0.23372287145242066 0.21869782971619367 0.21035058430717868 0.2053422370617696 0.21035058430717868 0.21702838063439067 0.21869782971619367 0.21869782971619367 0.21869782971619367 0.21702838063439067 0.21535893155258767 0.21535893155258767 0.21368948247078468 0.20868113522537568 0.1435726210350584 0.1452420701168614 0.1652754590984975 0.1702838063439065 0.1585976627712855 0.1519198664440734 0.1519198664440734 0.1535893155258765 0.1535893155258765 0.1535893155258765 0.1535893155258765 0.1552587646076795 0.1736227045075125 0.1869782971619366 0.19365609348914856 0.19365609348914856 0.19365609348914856 0.1903171953255426 0.1853088480801336 0.1769616026711185 0.1719532554257095 0.1702838063439065 0.1702838063439065 0.1702838063439065,583.2999999999884 603.2999999999884 623.2999999999884 643.2999999999884 663.2999999999884 683.2999999999884 703.2999999999884 723.2999999999884 743.2999999999884 763.2999999999884 783.2999999999884 803.2999999999884 823.2999999999884 843.2999999999884 863.2999999999884 883.2999999999884 903.2999999999884 923.2999999999884 943.2999999999884 963.2999999999884 983.2999999999884 1003.2999999999884 1023.2999999999884 1043.2999999999884 1063.2999999999884 1083.2999999999884 1103.2999999999884 1123.2999999999884 1143.2999999999886 1163.2999999999886 1183.2999999999886 1203.2999999999886 1223.2999999999886 1243.2999999999886 1263.2999999999886 1283.2999999999886 1303.2999999999886 1323.2999999999886 1343.2999999999886 1363.2999999999886 1383.2999999999884 1403.2999999999884 1423.2999999999884 1443.2999999999884
cb_03,2.0,enc_trial,stim,response,Iceland trip,3004.3999999999073,enc_trial,1.0,2.0,t_s_24_1,travel_shared,fold-c,ear plugs,3.0,competing,far,paired,t_s_24_1.jpg,,travel-b1,Iceland trip,Miami trip,sub-72,1.0,1.0,0.0,1.0,0.5162771285475793 0.5613522537562604 0.578881469115192 0.6227045075125208 0.6227045075125208 0.6677796327212019 0.6752921535893155 0.67779632721202 0.6790484140233722 0.6803005008347245 0.6815525876460767 0.6815525876460767 0.6815525876460767 0.6865609348914857 0.7504173622704506 0.8005008347245408 0.8067612687813022 0.8130217028380634 0.8155258764607679 0.8180300500834724 0.8205342237061769 0.8230383973288814 0.8255425709515859 0.8305509181969949 0.8330550918196994 0.8393155258764607 0.8418196994991652 0.8430717863105175 0.850584307178631 0.8568447412353922 0.8656093489148581 0.8668614357262103 0.8668614357262103 0.8681135225375626 0.8643572621035058 0.8643572621035058 0.8631051752921536 0.8618530884808013 0.8618530884808013 0.8580968280467445 0.5976627712854758 0.4974958263772955 0.4098497495826377 0.39232053422370616 0.3873121869782972 0.3810517529215359 0.3372287145242069 0.2395659432387312 0.11560934891485808 0.07053422370617694 0.019198664440734536 0.016694490818030032 0.014190317195325519 0.012938230383973265 0.012938230383973265 0.011686143572621013 0.011686143572621013 0.011686143572621013 0.010434056761268759 0.010434056761268759 0.012938230383973265 0.026711185308848057 0.04048414023372285 0.07804674457429046 0.09181969949916527 0.09808013355592653 0.09808013355592653 0.09808013355592653 0.09808013355592653 0.09808013355592653,0.7228714524207012 0.5409015025041737 0.4808013355592654 0.3756260434056762 0.3756260434056762 0.23038397328881466 0.19699499165275453 0.1886477462437396 0.1819699499165276 0.1803005008347245 0.1769616026711185 0.1769616026711185 0.1752921535893155 0.1769616026711185 0.21035058430717868 0.22704507512520866 0.22704507512520866 0.2253756260434057 0.22370617696160267 0.22370617696160267 0.22036727879799667 0.21869782971619367 0.21535893155258767 0.21035058430717868 0.2070116861435725 0.2020033388981636 0.1986644407345576 0.19699499165275453 0.1869782971619366 0.1786310517529215 0.1652754590984975 0.1636060100166945 0.1636060100166945 0.1636060100166945 0.1669449081803005 0.1669449081803005 0.1669449081803005 0.1669449081803005 0.1669449081803005 0.1652754590984975 0.10016694490818034 0.08180300500834725 0.10517529215358934 0.12186978297161932 0.12520868113522546 0.12854757929883145 0.12353923205342232 0.09849749582637736 0.08180300500834725 0.08347245409015025 0.10851419031719534 0.11185308848080132 0.11519198664440733 0.11686143572621033 0.11686143572621033 0.11686143572621033 0.11686143572621033 0.11686143572621033 0.11686143572621033 0.11686143572621033 0.12020033388981632 0.12854757929883145 0.13355592654424042 0.13522537562604342 0.13355592654424042 0.13021702838063445 0.13021702838063445 0.13021702838063445 0.12854757929883145 0.12854757929883145,516.6000000000058 536.6000000000058 556.6000000000058 576.6000000000057 596.6000000000057 616.6000000000057 636.6000000000057 656.6000000000057 676.6000000000057 696.6000000000058 716.6000000000058 736.6000000000058 756.6000000000058 776.6000000000058 796.6000000000058 816.6000000000058 836.6000000000058 856.6000000000058 876.6000000000058 896.6000000000058 916.6000000000058 936.6000000000058 956.6000000000058 976.6000000000058 996.6000000000058 1016.6000000000058 1036.6000000000058 1056.6000000000058 1076.6000000000058 1096.6000000000058 1116.6000000000058 1136.6000000000058 1156.6000000000058 1176.6000000000058 1196.6000000000058 1216.6000000000058 1236.6000000000058 1256.6000000000058 1276.6000000000058 1296.6000000000058 1316.6000000000058 1336.6000000000058 1356.6000000000058 1376.6000000000058 1396.6000000000058 1416.6000000000058 1436.6000000000058 1456.6000000000058 1476.6000000000058 1496.6000000000058 1516.6000000000058 1536.6000000000058 1556.6000000000058 1576.6000000000058 1596.6000000000058 1616.6000000000058 1636.6000000000058 1656.6000000000058 1676.6000000000058 1696.6000000000058 1716.6000000000058 1736.6000000000058 1756.6000000000058 1776.6000000000058 1796.6000000000058 1816.6000000000056 1836.6000000000056 1856.6000000000056 1876.6000000000056 1896.6000000000056
cb_03,3.0,enc_trial,stim,response,Iceland trip,2599.700000000012,enc_trial,1.0,3.0,t_s_02_1,travel_shared,fold-b,water bottle,3.0,competing,close,paired,t_s_02_1.jpg,,travel-b1,Iceland trip,Miami trip,sub-72,1.0,1.0,1.0,1.0,0.5400667779632721 0.5588480801335559 0.5976627712854758 0.6339732888146912 0.6815525876460767 0.7203672787979966 0.7178631051752921 0.7003338898163606 0.6803005008347245 0.6264607679465777 0.5338063439065108 0.4524207011686144 0.3535058430717863 0.3209515859766277 0.3121869782971619 0.3096828046744574 0.3096828046744574 0.3084307178631052 0.3084307178631052 0.3021702838063439 0.11936560934891485 0.10559265442404003 0.10058430717863104 0.09933222036727878 0.09808013355592653 0.05676126878130215 0.0016694490818029814 -0.012103505843071807 -0.012103505843071807 -0.012103505843071807 -0.012103505843071807 -0.012103505843071807 -0.012103505843071807 -0.012103505843071807 0.05926544240400665 0.10308848080133554 0.11185308848080132 0.11936560934891485 0.16318864774624373 0.22454090150250414 0.4123539232053423 0.4511686143572621 0.4762103505843072 0.4924874791318865 0.5112687813021702 0.5162771285475793 0.5162771285475793 0.5162771285475793 0.5162771285475793 0.5162771285475793 0.5150250417362271 0.5150250417362271 0.5137729549248748 0.5137729549248748 0.5087646076794657 0.5012520868113522 0.5012520868113522 0.5012520868113522 0.4937395659432388 0.4749582637729549 0.34724540901502504 0.21702838063439064 0.1419031719532554 0.053005008347245385 0.026711185308848057 0.020450751252086792 0.020450751252086792 0.019198664440734536 0.019198664440734536 0.019198664440734536 0.019198664440734536 0.019198664440734536 0.019198664440734536 0.019198664440734536 0.02170283806343904 0.04549248747913186 0.055509181969949896 0.06176961602671116 0.06552587646076792 0.06552587646076792 0.06677796327212017 0.06803005008347242 0.06928213689482468 0.07178631051752919 0.07303839732888145 0.07679465776293821 0.07804674457429046 0.08055091819699498 0.08055091819699498,0.7462437395659433 0.676126878130217 0.5809682804674458 0.4974958263772955 0.3572621035058431 0.20868113522537568 0.19365609348914856 0.1602671118530885 0.13856427378964942 0.11853088480801333 0.13355592654424042 0.1752921535893155 0.27045075125208684 0.335559265442404 0.37395659432387307 0.3839732888146912 0.3839732888146912 0.3839732888146912 0.3839732888146912 0.3789649415692822 0.1719532554257095 0.1585976627712855 0.1552587646076795 0.1552587646076795 0.1552587646076795 0.10517529215358934 0.023372287145242088 0.0016694490818029983 0.0016694490818029983 0.0016694490818029983 0.0016694490818029983 0.0016694490818029983 0.0016694490818029983 0.0016694490818029983 0.013355592654423987 0.013355592654423987 0.011686143572620988 0.011686143572620988 0.03005008347245408 0.08681135225375625 0.25709515859766274 0.2854757929883138 0.3021702838063439 0.3121869782971619 0.323873121869783 0.325542570951586 0.325542570951586 0.325542570951586 0.325542570951586 0.325542570951586 0.323873121869783 0.323873121869783 0.323873121869783 0.32220367278798 0.3121869782971619 0.2871452420701168 0.28213689482470783 0.27545909849749584 0.2437395659432388 0.20868113522537568 0.1552587646076795 0.13689482470784642 0.1519198664440734 0.1886477462437396 0.20367278797996646 0.20868113522537568 0.21035058430717868 0.21035058430717868 0.21035058430717868 0.21035058430717868 0.21035058430717868 0.21035058430717868 0.21035058430717868 0.21035058430717868 0.21035058430717868 0.19699499165275453 0.1903171953255426 0.1836393989983306 0.1803005008347245 0.1786310517529215 0.1752921535893155 0.1736227045075125 0.1736227045075125 0.1719532554257095 0.1702838063439065 0.1669449081803005 0.1669449081803005 0.1652754590984975 0.1652754590984975,616.7000000000116 636.7000000000116 656.7000000000116 676.7000000000116 696.7000000000116 716.7000000000116 736.7000000000116 756.7000000000116 776.7000000000116 796.7000000000116 816.7000000000116 836.7000000000116 856.7000000000116 876.7000000000116 896.7000000000116 916.7000000000116 936.7000000000116 956.7000000000116 976.7000000000116 996.7000000000116 1016.7000000000116 1036.7000000000116 1056.7000000000116 1076.7000000000116 1096.7000000000116 1116.7000000000116 1136.7000000000114 1156.7000000000114 1176.7000000000114 1196.7000000000114 1216.7000000000114 1236.7000000000114 1256.7000000000114 1276.7000000000114 1296.7000000000114 1316.7000000000114 1336.7000000000114 1356.7000000000114 1376.7000000000116 1396.7000000000116 1416.7000000000116 1436.7000000000116 1456.7000000000116 1476.7000000000116 1496.7000000000116 1516.7000000000116 1536.7000000000116 1556.7000000000116 1576.7000000000116 1596.7000000000116 1616.7000000000116 1636.7000000000116 1656.7000000000116 1676.7000000000116 1696.7000000000116 1716.7000000000116 1736.7000000000116 1756.7000000000116 1776.7000000000116 1796.7000000000116 1816.7000000000119 1836.7000000000119 1856.7000000000119 1876.7000000000119 1896.7000000000119 1916.7000000000119 1936.7000000000119 1956.7000000000119 1976.7000000000119 1996.7000000000119 2016.7000000000119 2036.7000000000119 2056.700000000012 2076.700000000012 2096.700000000012 2116.700000000012 2136.700000000012 2156.700000000012 2176.700000000012 2196.700000000012 2216.700000000012 2236.700000000012 2256.700000000012 2276.700000000012 2296.700000000012 2316.700000000012 2336.700000000012 2356.700000000012 2376.700000000012
cb_03,4.0,enc_trial,stim,response,Iceland trip,1675.7999999999884,enc_trial,1.0,4.0,t_i_15_1,travel_Iceland,fold-a,compass,3.0,unique,far,paired,t_i_15_1.jpg,Iceland,travel-b1,Iceland trip,Miami trip,sub-72,1.0,1.0,1.0,1.0,0.5112687813021702 0.5763772954924875 0.5876460767946577 0.5763772954924875 0.5500834724540902 0.479966611018364 0.4273789649415693 0.3722871452420701 0.26836393989983304 0.26836393989983304 0.16569282136894822 0.1581803005008347 0.1556761268781302 0.15442404006677796 0.15442404006677796 0.15692821368948245 0.1581803005008347 0.1581803005008347 0.15943238731218695 0.16193656093489148 0.16318864774624373 0.16318864774624373 0.16318864774624373 0.16318864774624373 0.16318864774624373 0.16318864774624373 0.16318864774624373 0.16318864774624373 0.16318864774624373 0.16318864774624373 0.1581803005008347 0.1556761268781302 0.1556761268781302,0.7929883138564273 0.647746243739566 0.5909849749582639 0.4490818030050083 0.330550918196995 0.1502504173622704 0.08347245409015025 0.05175292153589317 0.026711185308848084 0.026711185308848084 0.11018363939899832 0.13355592654424042 0.1419031719532554 0.1435726210350584 0.1452420701168614 0.1535893155258765 0.1569282136894825 0.1585976627712855 0.1602671118530885 0.1652754590984975 0.1686143572621035 0.1686143572621035 0.1686143572621035 0.1686143572621035 0.1686143572621035 0.1686143572621035 0.1686143572621035 0.1686143572621035 0.1686143572621035 0.1686143572621035 0.1686143572621035 0.1686143572621035 0.1702838063439065,799.0999999999768 819.0999999999768 839.0999999999768 859.0999999999768 879.0999999999768 899.0999999999768 919.0999999999768 939.0999999999768 959.0999999999768 979.0999999999768 999.0999999999768 1019.0999999999768 1039.0999999999767 1059.0999999999767 1079.0999999999767 1099.0999999999767 1119.0999999999767 1139.0999999999767 1159.0999999999767 1179.0999999999767 1199.0999999999767 1219.0999999999767 1239.0999999999767 1259.0999999999767 1279.0999999999767 1299.0999999999767 1319.0999999999767 1339.0999999999767 1359.0999999999767 1379.0999999999767 1399.0999999999767 1419.0999999999767 1439.0999999999767
cb_03,5.0,enc_trial,stim,response,Miami trip,1275.6999999999534,enc_trial,1.0,5.0,t_s_23_1,travel_shared,fold-c,ball cap,3.0,competing,far,paired,t_s_23_1.jpg,,travel-b1,Iceland trip,Miami trip,sub-72,1.0,1.0,0.0,1.0,0.5175292153589316 0.5425709515859767 0.5813856427378965 0.6602671118530884 0.7216193656093488 0.8343071786310517 0.8643572621035058 0.8718697829716193 0.8731218697829716 0.8743739565943238 0.8743739565943238 0.8743739565943238 0.8743739565943238 0.8743739565943238 0.8743739565943238 0.8743739565943238 0.8768781302170283 0.8781302170283806 0.8793823038397328 0.8793823038397328 0.8793823038397328 0.8793823038397328,0.8113522537562604 0.7395659432387311 0.6460767946577629 0.5091819699499165 0.4273789649415693 0.24707846410684475 0.1769616026711185 0.1519198664440734 0.1435726210350584 0.14023372287145242 0.13522537562604342 0.13522537562604342 0.13522537562604342 0.13355592654424042 0.13355592654424042 0.13021702838063445 0.12353923205342232 0.12020033388981632 0.11686143572621033 0.11686143572621033 0.11519198664440733 0.11519198664440733,599.8999999999943 619.8999999999943 639.8999999999943 659.8999999999943 679.8999999999943 699.8999999999942 719.8999999999942 739.8999999999942 759.8999999999942 779.8999999999942 799.8999999999942 819.8999999999942 839.8999999999942 859.8999999999942 879.8999999999942 899.8999999999942 919.8999999999944 939.8999999999944 959.8999999999944 979.8999999999944 999.8999999999944 1019.8999999999944
cb_03,6.0,enc_trial,stim,response,Iceland trip,2025.7000000000119,enc_trial,1.0,6.0,t_s_04_2,travel_shared,fold-c,instant camera,3.0,competing,far,paired,t_s_04_2.jpg,,travel-b1,Iceland trip,Miami trip,sub-72,1.0,1.0,1.0,0.0,0.5262938230383973 0.5438230383973289 0.5763772954924875 0.593906510851419 0.6014190317195326 0.6039232053422371 0.5475792988313857 0.39482470784641066 0.2921535893155259 0.19949916527545908 0.11936560934891485 0.1068447412353923 0.10559265442404003 0.1043405676126878 0.1043405676126878 0.10308848080133554 0.10183639398998327 0.10058430717863104 0.09933222036727878 0.09933222036727878 0.09808013355592653 0.09808013355592653 0.09808013355592653 0.09808013355592653 0.09808013355592653 0.10058430717863104 0.10058430717863104 0.10308848080133554 0.1068447412353923 0.11560934891485808 0.24457429048414026 0.27712854757929883 0.2846410684474123 0.2971619365609349 0.30342237061769617 0.3084307178631052 0.3084307178631052 0.3084307178631052 0.3084307178631052 0.2921535893155259 0.16569282136894822 0.1556761268781302 0.14315525876460766 0.14065108514190314 0.13814691151919864 0.1368948247078464,0.6911519198664441 0.6210350584307178 0.4791318864774624 0.3572621035058431 0.25375626043405675 0.13188647746243742 0.10016694490818034 0.08347245409015025 0.10183639398998334 0.13522537562604342 0.1519198664440734 0.1485809682804674 0.1485809682804674 0.1485809682804674 0.1502504173622704 0.1519198664440734 0.1535893155258765 0.1535893155258765 0.1552587646076795 0.1569282136894825 0.1569282136894825 0.1569282136894825 0.1569282136894825 0.1585976627712855 0.1585976627712855 0.1602671118530885 0.1602671118530885 0.1602671118530885 0.1602671118530885 0.1602671118530885 0.20367278797996646 0.21035058430717868 0.21202003338898168 0.21035058430717868 0.20868113522537568 0.2070116861435725 0.2053422370617696 0.2053422370617696 0.20367278797996646 0.19699499165275453 0.1819699499165276 0.1803005008347245 0.1786310517529215 0.1786310517529215 0.1786310517529215 0.1786310517529215,881.9000000000232 901.9000000000232 921.9000000000232 941.9000000000232 961.9000000000232 981.9000000000232 1001.9000000000232 1021.9000000000232 1041.9000000000233 1061.9000000000233 1081.9000000000233 1101.9000000000233 1121.9000000000233 1141.9000000000233 1161.9000000000233 1181.9000000000233 1201.9000000000233 1221.9000000000233 1241.9000000000233 1261.9000000000233 1281.9000000000233 1301.9000000000233 1321.9000000000233 1341.9000000000233 1361.9000000000233 1381.9000000000233 1401.9000000000233 1421.9000000000233 1441.9000000000233 1461.9000000000233 1481.9000000000233 1501.9000000000233 1521.9000000000233 1541.9000000000233 1561.9000000000233 1581.9000000000233 1601.9000000000233 1621.9000000000233 1641.9000000000233 1661.9000000000233 1681.9000000000233 1701.9000000000233 1721.9000000000233 1741.9000000000233 1761.9000000000233 1781.9000000000233
cb_03,7.0,enc_trial,stim,response,Miami trip,1460.2999999999884,enc_trial,1.0,7.0,t_m_04_1,travel_Miami,fold-e,UV jacket,3.0,unique,close,paired,t_m_04_1.jpg,Miami,travel-b1,Iceland trip,Miami trip,sub-72,0.0,0.0,1.0,0.0,0.5680538172715895 0.6093554443053817 0.6637984981226533 0.7341989987484355 0.7708072590738423 0.7970901126408009 0.8346370463078849 0.8412077596996246 0.8468397997496871 0.8562265331664581 0.8599812265331664 0.8618585732165207 0.8618585732165207 0.8618585732165207 0.8618585732165207 0.8618585732165207,0.7484355444305382 0.6558197747183979 0.5481852315394242 0.3842302878598248 0.2991239048811014 0.2415519399249061 0.16896120150187732 0.1589486858573217 0.15394242803504374 0.14518147684605753 0.14142678347934926 0.14017521902377972 0.1389236545682102 0.1389236545682102 0.1389236545682102 0.1389236545682102,866.0999999999768 886.0999999999768 906.0999999999768 926.0999999999768 946.0999999999768 966.0999999999768 986.0999999999768 1006.0999999999768 1026.0999999999767 1046.0999999999767 1066.0999999999767 1086.0999999999767 1106.0999999999767 1126.0999999999767 1146.0999999999767 1166.0999999999767
cb_03,8.0,enc_trial,stim,response,Iceland trip,1346.8000000001048,enc_trial,1.0,8.0,t_i_19_1,travel_Iceland,fold-b-single,rope,3.0,unique,,single,t_i_19_1.jpg,Iceland,travel-b1,Iceland trip,Miami trip,sub-72,1.0,,1.0,,0.4525969962453066 0.3418335419274092 0.2742490613266583 0.18695244055068835 0.13814142678347932 0.06867959949937419 0.05178347934918645 0.04333541927409258 0.0405193992490613 0.03488735919899871 0.03113266583229033 0.029255319148936136 0.029255319148936136 0.027377972465581945 0.027377972465581945 0.02550062578222775 0.02550062578222775 0.02550062578222775 0.03207133917396743 0.048967459324155166 0.06867959949937419 0.07712765957446806 0.08557571964956193 0.0902690863579474 0.0940237797246558 0.10247183979974966 0.10528785982478096 0.11185857321652062 0.12124530663329156 0.12875469336670836 0.12875469336670836,0.7284105131414268 0.5381727158948686 0.4155193992490613 0.2315394242803505 0.1339173967459324 0.025031289111389188 0.015018773466833557 0.015018773466833557 0.018773466833541967 0.030037546933667118 0.052565707133917394 0.06132665832290363 0.06382978723404252 0.06633291614518144 0.06633291614518144 0.06633291614518144 0.06633291614518144 0.06758448060075095 0.0801001251564456 0.10387984981226528 0.12015018773466835 0.12515644555694616 0.12765957446808507 0.12891113892365458 0.13016270337922398 0.13016270337922398 0.13141426783479349 0.1339173967459324 0.1376720901126408 0.14142678347934926 0.14142678347934926,548.7000000000116 568.7000000000116 588.7000000000116 608.7000000000116 628.7000000000116 648.7000000000116 668.7000000000116 688.7000000000116 708.7000000000116 728.7000000000116 748.7000000000116 768.7000000000116 788.7000000000116 808.7000000000116 828.7000000000116 848.7000000000116 868.7000000000116 888.7000000000116 908.7000000000116 928.7000000000116 948.7000000000116 968.7000000000116 988.7000000000116 1008.7000000000116 1028.7000000000116 1048.7000000000116 1068.7000000000116 1088.7000000000116 1108.7000000000116 1128.7000000000114 1148.7000000000114
cb_03,9.0,enc_trial,stim,response,Iceland trip,2219.200000000012,enc_trial,1.0,9.0,t_s_11_1,travel_shared,fold-a-single,eye mask,3.0,competing,,single,t_s_11_1.jpg,,travel-b1,Iceland trip,Miami trip,sub-72,1.0,,1.0,,0.4845118898623279 0.4629224030037547 0.4610450563204005 0.4638610763454318 0.4967146433041302 0.5971526908635795 0.7013454317897372 0.7360763454317898 0.7501564455569462 0.7520337922403004 0.7266896120150188 0.6300062578222778 0.5502190237797246 0.4676157697121402 0.3249374217772215 0.14846683354192738 0.13438673341677093 0.13438673341677093 0.13438673341677093 0.17381101376720898 0.329630788485607 0.4103566958698373 0.5567897371714643 0.6741239048811014 0.8177409261576971 0.9097309136420526 0.9341364205256572 0.9378911138923656 0.9397684605757196 0.9397684605757196 0.9388297872340424 0.9388297872340424 0.9388297872340424 0.9388297872340424 0.9388297872340424 0.9388297872340424 0.9407071339173968 0.9407071339173968 0.941645807259074 0.941645807259074 0.922872340425532 0.922872340425532 0.922872340425532 0.913485607008761 0.9087922403003756 0.8815707133917396 0.679755944931164 0.6121714643304129 0.6121714643304129 0.6121714643304129 0.6121714643304129 0.6121714643304129 0.10247183979974966 0.10247183979974966 0.10341051314142677 0.10716520650813514 0.10716520650813514 0.10622653316645804 0.10528785982478096 0.10434918648310383 0.10153316645807256 0.10528785982478096 0.11279724655819773 0.11373591989987482 0.11373591989987482 0.11373591989987482,0.7734668335419275 0.7008760951188986 0.6408010012515645 0.623279098873592 0.5694618272841051 0.4818523153942428 0.4067584480600751 0.3654568210262829 0.3354192740926157 0.3304130162703379 0.31163954943679595 0.2816020025031289 0.2740926157697121 0.2640801001251565 0.2590738423028785 0.31289111389236546 0.3229036295369212 0.3229036295369212 0.3229036295369212 0.3516896120150188 0.376720901126408 0.3516896120150188 0.3103879849812265 0.2891113892365457 0.25657071339173965 0.20275344180225285 0.17396745932415525 0.1652065081351689 0.15644555694618267 0.15394242803504374 0.15143929912390486 0.15018773466833546 0.15018773466833546 0.14893617021276595 0.14893617021276595 0.14768460575719644 0.14518147684605753 0.14392991239048816 0.14142678347934926 0.1389236545682102 0.1339173967459324 0.1339173967459324 0.1339173967459324 0.1376720901126408 0.1389236545682102 0.1351689612015019 0.05006257822277849 0.018773466833541967 0.018773466833541967 0.018773466833541967 0.018773466833541967 0.018773466833541967 0.0012515644555695091 0.0012515644555695091 0.008760951188986229 0.03254067584480602 0.03254067584480602 0.03379224030037542 0.03504380475594493 0.03629536921151444 0.07634543178973717 0.1389236545682102 0.195244055068836 0.20901126408010007 0.2102628285356696 0.2115143929912391,499.0 519.0 539.0 559.0 579.0 599.0 619.0 639.0 659.0 679.0 699.0 719.0 739.0 759.0 779.0 799.0 819.0 839.0 859.0 879.0 899.0 919.0 939.0 959.0 979.0 999.0 1019.0 1039.0 1059.0 1079.0 1099.0 1119.0 1139.0 1159.0 1179.0 1199.0 1219.0 1239.0 1259.0 1279.0 1299.0 1319.0 1339.0 1359.0 1379.0 1399.0 1419.0 1439.0 1459.0 1479.0 1499.0 1519.0 1539.0 1559.0 1579.0 1599.0 1619.0 1639.0 1659.0 1679.0 1699.0 1719.0 1739.0 1759.0 1779.0 1799.0
cb_03,10.0,enc_trial,stim,response,Miami trip,1999.7999999999595,enc_trial,1.0,10.0,t_s_02_2,travel_shared,fold-b,water bottle,3.0,competing,close,paired,t_s_02_2.jpg,,travel-b1,Iceland trip,Miami trip,sub-72,1.0,1.0,1.0,1.0,0.5117334167709637 0.5117334167709637 0.5117334167709637 0.5117334167709637 0.5117334167709637 0.5117334167709637 0.5117334167709637 0.5117334167709637 0.5117334167709637 0.5117334167709637 0.5117334167709637 0.5117334167709637 0.5117334167709637 0.5117334167709637 0.5117334167709637 0.5117334167709637 0.5117334167709637 0.5117334167709637 0.5117334167709637 0.5117334167709637 0.5117334167709637 0.5117334167709637 0.5117334167709637 0.5117334167709637 0.5117334167709637 0.5117334167709637 0.5117334167709637 0.5117334167709637 0.5117334167709637 0.5117334167709637 0.5117334167709637 0.5117334167709637 0.5117334167709637 0.5117334167709637 0.5089173967459324 0.494837296620776 0.5042240300375469 0.543648310387985 0.5868272841051314 0.6093554443053817 0.7529724655819775 0.7895807259073843 0.8149249061326659 0.8186795994993742 0.8205569461827285 0.8205569461827285 0.8196182728410514 0.8102315394242804 0.7980287859824782 0.7970901126408009 0.7952127659574468 0.7952127659574468 0.7952127659574468 0.7952127659574468 0.7961514392991239 0.8008448060075094 0.8036608260325407 0.8102315394242804 0.8149249061326659 0.8214956195244055 0.8327596996245307,0.851063829787234 0.8485607008760951 0.8485607008760951 0.8473091364205256 0.8473091364205256 0.8473091364205256 0.8473091364205256 0.8473091364205256 0.8473091364205256 0.8473091364205256 0.8473091364205256 0.8473091364205256 0.8473091364205256 0.8473091364205256 0.8473091364205256 0.8473091364205256 0.8473091364205256 0.8473091364205256 0.8473091364205256 0.8473091364205256 0.8473091364205256 0.8473091364205256 0.8473091364205256 0.8473091364205256 0.8473091364205256 0.8473091364205256 0.8473091364205256 0.8473091364205256 0.8473091364205256 0.8473091364205256 0.8473091364205256 0.8473091364205256 0.8473091364205256 0.8473091364205256 0.6983729662077597 0.4555694618272841 0.4267834793491865 0.3742177722152691 0.3516896120150188 0.3454317897371715 0.2753441802252816 0.2578222778473092 0.2390488110137672 0.2315394242803505 0.2252816020025032 0.22152690863579472 0.2177722152690864 0.1927409261576971 0.1602002503128911 0.15644555694618267 0.14768460575719644 0.14643304130162704 0.14518147684605753 0.14392991239048816 0.14267834793491865 0.14017521902377972 0.14017521902377972 0.1389236545682102 0.1389236545682102 0.1389236545682102 0.1389236545682102,549.8999999999942 569.8999999999943 589.8999999999943 609.8999999999943 629.8999999999943 649.8999999999943 669.8999999999943 689.8999999999942 709.8999999999942 729.8999999999942 749.8999999999942 769.8999999999942 789.8999999999942 809.8999999999942 829.8999999999942 849.8999999999942 869.8999999999942 889.8999999999942 909.8999999999942 929.8999999999942 949.8999999999942 969.8999999999942 989.8999999999942 1009.8999999999942 1029.8999999999942 1049.8999999999942 1069.8999999999942 1089.8999999999942 1109.8999999999942 1129.8999999999942 1149.8999999999942 1169.8999999999942 1189.8999999999942 1209.8999999999942 1229.8999999999942 1249.8999999999942 1269.8999999999942 1289.8999999999942 1309.8999999999942 1329.8999999999942 1349.8999999999942 1369.8999999999942 1389.8999999999942 1409.8999999999942 1429.8999999999942 1449.8999999999942 1469.8999999999942 1489.8999999999942 1509.8999999999942 1529.8999999999942 1549.8999999999942 1569.8999999999942 1589.8999999999942 1609.8999999999942 1629.8999999999942 1649.8999999999942 1669.8999999999942 1689.8999999999942 1709.8999999999942 1729.8999999999942 1749.8999999999942
cb_03,11.0,enc_trial,stim,response,Miami trip,1842.4999999999127,enc_trial,1.0,11.0,t_m_20_1,travel_Miami,fold-e,inflatable beachball,3.0,unique,close,paired,t_m_20_1.jpg,Miami,travel-b1,Iceland trip,Miami trip,sub-72,1.0,1.0,1.0,1.0,0.4572903629536921 0.3559136420525657 0.2780037546933667 0.20760325406758445 0.115613266583229 0.08182102628285354 0.08182102628285354 0.08275969962453063 0.08557571964956193 0.2535982478097622 0.494837296620776 0.5858886107634543 0.6450250312891114 0.6450250312891114 0.6450250312891114 0.6450250312891114 0.6450250312891114 0.6450250312891114 0.6450250312891114 0.6450250312891114 0.6450250312891114 0.6450250312891114 0.6450250312891114 0.6450250312891114 0.6450250312891114 0.6450250312891114 0.6450250312891114 0.6450250312891114 0.6450250312891114 0.6450250312891114 0.6450250312891114 0.6450250312891114 0.6450250312891114 0.6450250312891114 0.6450250312891114 0.6450250312891114 0.6450250312891114 0.6450250312891114 0.6450250312891114 0.6450250312891114 0.6450250312891114 0.6450250312891114 0.6450250312891114 0.7529724655819775 0.7895807259073843 0.8158635794743431 0.8205569461827285 0.8224342928660826 0.8224342928660826 0.8224342928660826 0.8224342928660826 0.8224342928660826 0.8224342928660826 0.8224342928660826 0.8224342928660826 0.8252503128911141,0.7747183979974969 0.590738423028786 0.4580725907384229 0.3204005006257822 0.17772215269086356 0.1088861076345432 0.1063829787234043 0.1063829787234043 0.1051314142678348 0.13016270337922398 0.09762202753441808 0.048811013767208984 0.008760951188986229 0.008760951188986229 0.008760951188986229 0.008760951188986229 0.008760951188986229 0.008760951188986229 0.008760951188986229 0.008760951188986229 0.008760951188986229 0.008760951188986229 0.008760951188986229 0.008760951188986229 0.008760951188986229 0.008760951188986229 0.008760951188986229 0.008760951188986229 0.008760951188986229 0.008760951188986229 0.008760951188986229 0.008760951188986229 0.008760951188986229 0.008760951188986229 0.008760951188986229 0.008760951188986229 0.008760951188986229 0.008760951188986229 0.008760951188986229 0.008760951188986229 0.008760951188986229 0.008760951188986229 0.008760951188986229 0.016270337922402955 0.08760951188986232 0.13141426783479349 0.1364205256570713 0.1389236545682102 0.1389236545682102 0.1389236545682102 0.1389236545682102 0.1389236545682102 0.1389236545682102 0.1389236545682102 0.1389236545682102 0.14142678347934926,532.6000000000058 552.6000000000058 572.6000000000057 592.6000000000057 612.6000000000057 632.6000000000057 652.6000000000057 672.6000000000057 692.6000000000058 712.6000000000058 732.6000000000058 752.6000000000058 772.6000000000058 792.6000000000058 812.6000000000058 832.6000000000058 852.6000000000058 872.6000000000058 892.6000000000058 912.6000000000058 932.6000000000058 952.6000000000058 972.6000000000058 992.6000000000058 1012.6000000000058 1032.6000000000058 1052.6000000000058 1072.6000000000058 1092.6000000000058 1112.6000000000058 1132.6000000000058 1152.6000000000058 1172.6000000000058 1192.6000000000058 1212.6000000000058 1232.6000000000058 1252.6000000000058 1272.6000000000058 1292.6000000000058 1312.6000000000058 1332.6000000000058 1352.6000000000058 1372.6000000000058 1392.6000000000058 1412.6000000000058 1432.6000000000058 1452.6000000000058 1472.6000000000058 1492.6000000000058 1512.6000000000058 1532.6000000000058 1552.6000000000058 1572.6000000000058 1592.6000000000058 1612.6000000000058 1632.6000000000058
cb_03,12.0,enc_trial,stim,response,Miami trip,3411.300000000017,enc_trial,1.0,12.0,t_m_01_1,travel_Miami,fold-a,sandals,3.0,unique,far,paired,t_m_01_1.jpg,Miami,travel-b1,Iceland trip,Miami trip,sub-72,1.0,1.0,0.0,1.0,0.4610450563204005 0.4629224030037547 0.4760638297872341 0.4892052565707134 0.5004693366708386 0.5107947434292867 0.5183041301627034 0.5239361702127661 0.5427096370463079 0.5849499374217773 0.6525344180225282 0.6750625782227785 0.6891426783479351 0.7004067584480601 0.7182415519399249 0.7313829787234043 0.7323216520650814 0.7313829787234043 0.728566958698373 0.6975907384230288 0.6975907384230288 0.6975907384230288 0.611232790988736 0.4338235294117647 0.3324468085106383 0.06867959949937419 0.06867959949937419 0.033948685857321616 0.010481852315394207 0.009543178973717113 0.005788485607008726 0.006727158948685822 0.007665832290362919 0.007665832290362919 0.008604505632040016 0.009543178973717113 0.014236545682102591 0.019868585732165173 0.033010012515644525 0.09777847309136416 0.2367021276595745 0.31273466833541924 0.31273466833541924 0.32118272841051315 0.3230600750938673 0.32399874843554444 0.3230600750938673 0.31742803504380473 0.18601376720901125 0.08651439299123903 -0.02706508135168965 -0.03269712140175223 -0.03363579474342932 -0.03457446808510642 -0.03457446808510642 -0.035513141426783516 -0.035513141426783516 -0.035513141426783516 -0.035513141426783516 -0.031758448060075134 0.04709011264080097 0.07994367959949934 0.10904255319148934 0.1193679599499374 0.13438673341677093 0.15691489361702124 0.15973091364205255 0.16160826032540673 0.16254693366708384 0.16254693366708384 0.16254693366708384 0.17756570713391734 0.3230600750938673 0.4723091364205256 0.5718085106382979 0.7417083854818524 0.7417083854818524 0.767052565707134 0.7717459324155194 0.7820713391739674 0.7989674593241552 0.8017834793491865 0.8036608260325407 0.8036608260325407 0.8036608260325407 0.8036608260325407 0.8036608260325407 0.8036608260325407 0.8036608260325407 0.8036608260325407 0.8036608260325407 0.8036608260325407 0.8036608260325407 0.8036608260325407 0.8036608260325407 0.8036608260325407 0.8036608260325407 0.8036608260325407 0.8036608260325407 0.8036608260325407 0.8036608260325407 0.8036608260325407 0.8092928660826033 0.8102315394242804 0.8121088861076345 0.8121088861076345 0.8121088861076345 0.8121088861076345 0.8121088861076345 0.8121088861076345 0.8121088861076345 0.8121088861076345 0.8121088861076345 0.8121088861076345 0.8121088861076345 0.8121088861076345 0.8121088861076345 0.8121088861076345 0.8121088861076345 0.8121088861076345 0.8121088861076345 0.8121088861076345 0.8121088861076345 0.8121088861076345 0.8121088861076345 0.8121088861076345 0.8121088861076345 0.8121088861076345 0.8121088861076345 0.8121088861076345 0.8121088861076345 0.8121088861076345 0.8121088861076345 0.8402690863579475 0.8505944931163956 0.8515331664580726 0.8524718397997497,0.7596996245306633 0.7396745932415519 0.6445556946182729 0.5331664580725908 0.39549436795995 0.3003754693366708 0.28535669586983725 0.2778473091364205 0.2703379224030038 0.276595744680851 0.2916145181476846 0.295369211514393 0.2941176470588235 0.2891113892365457 0.2715894868585732 0.2428035043804756 0.2365456821026283 0.2352941176470589 0.2302878598247809 0.2240300375469336 0.2240300375469336 0.2240300375469336 0.20525657071339176 0.1602002503128911 0.14142678347934926 0.1927409261576971 0.1927409261576971 0.2102628285356696 0.2252816020025032 0.22653316645807264 0.2340425531914893 0.2503128911138923 0.25406758448060074 0.25657071339173965 0.2578222778473092 0.2578222778473092 0.25657071339173965 0.25406758448060074 0.2428035043804756 0.17521902377972465 0.09762202753441808 0.09261576971214014 0.09261576971214014 0.09011264080100123 0.08886107634543182 0.08635794743429281 0.08635794743429281 0.08510638297872343 0.06382978723404252 0.05006257822277849 0.07384230287859828 0.0801001251564456 0.08260325406758451 0.0838548185231539 0.08510638297872343 0.08510638297872343 0.08510638297872343 0.08510638297872343 0.08510638297872343 0.08635794743429281 0.1063829787234043 0.12015018773466835 0.1389236545682102 0.14392991239048816 0.15018773466833546 0.15519399249061328 0.15519399249061328 0.15394242803504374 0.15394242803504374 0.15269086357947434 0.15143929912390486 0.15018773466833546 0.17897371714643304 0.2177722152690864 0.2302878598247809 0.2177722152690864 0.2177722152690864 0.20400500625782225 0.19899874843554444 0.18022528160200246 0.14142678347934926 0.13266583229036302 0.12891113892365458 0.12765957446808507 0.12765957446808507 0.12765957446808507 0.12765957446808507 0.12765957446808507 0.12765957446808507 0.12765957446808507 0.12765957446808507 0.12765957446808507 0.12765957446808507 0.12765957446808507 0.12765957446808507 0.12765957446808507 0.12765957446808507 0.12765957446808507 0.12765957446808507 0.12765957446808507 0.12765957446808507 0.12765957446808507 0.12515644555694616 0.12390488110137675 0.12390488110137675 0.12265331664580725 0.12265331664580725 0.12265331664580725 0.12265331664580725 0.12265331664580725 0.12265331664580725 0.12265331664580725 0.12265331664580725 0.12265331664580725 0.12265331664580725 0.12265331664580725 0.12265331664580725 0.12265331664580725 0.12265331664580725 0.12265331664580725 0.12265331664580725 0.12265331664580725 0.12265331664580725 0.12265331664580725 0.12265331664580725 0.12265331664580725 0.12265331664580725 0.12265331664580725 0.12265331664580725 0.12265331664580725 0.12265331664580725 0.12265331664580725 0.12265331664580725 0.12640801001251567 0.12640801001251567 0.12640801001251567 0.12515644555694616,483.2000000000117 503.2000000000117 523.2000000000116 543.2000000000116 563.2000000000116 583.2000000000116 603.2000000000116 623.2000000000116 643.2000000000116 663.2000000000116 683.2000000000116 703.2000000000116 723.2000000000116 743.2000000000116 763.2000000000116 783.2000000000116 803.2000000000116 823.2000000000116 843.2000000000116 863.2000000000116 883.2000000000116 903.2000000000116 923.2000000000116 943.2000000000116 963.2000000000116 983.2000000000116 1003.2000000000116 1023.2000000000116 1043.2000000000116 1063.2000000000116 1083.2000000000116 1103.2000000000116 1123.2000000000116 1143.2000000000114 1163.2000000000114 1183.2000000000114 1203.2000000000114 1223.2000000000114 1243.2000000000114 1263.2000000000114 1283.2000000000114 1303.2000000000114 1323.2000000000114 1343.2000000000114 1363.2000000000114 1383.2000000000116 1403.2000000000116 1423.2000000000116 1443.2000000000116 1463.2000000000116 1483.2000000000116 1503.2000000000116 1523.2000000000116 1543.2000000000116 1563.2000000000116 1583.2000000000116 1603.2000000000116 1623.2000000000116 1643.2000000000116 1663.2000000000116 1683.2000000000116 1703.2000000000116 1723.2000000000116 1743.2000000000116 1763.2000000000116 1783.2000000000116 1803.2000000000119 1823.2000000000119 1843.2000000000119 1863.2000000000119 1883.2000000000119 1903.2000000000119 1923.2000000000119 1943.2000000000119 1963.2000000000119 1983.2000000000119 2003.2000000000119 2023.2000000000119 2043.2000000000119 2063.200000000012 2083.200000000012 2103.200000000012 2123.200000000012 2143.200000000012 2163.200000000012 2183.200000000012 2203.200000000012 2223.200000000012 2243.200000000012 2263.200000000012 2283.200000000012 2303.200000000012 2323.200000000012 2343.200000000012 2363.200000000012 2383.200000000012 2403.200000000012 2423.200000000012 2443.200000000012 2463.200000000012 2483.200000000012 2503.200000000012 2523.200000000012 2543.200000000012 2563.200000000012 2583.200000000012 2603.200000000012 2623.200000000012 2643.200000000012 2663.200000000012 2683.200000000012 2703.200000000012 2723.200000000012 2743.200000000012 2763.200000000012 2783.200000000012 2803.200000000012 2823.200000000012 2843.200000000012 2863.200000000012 2883.200000000012 2903.200000000012 2923.200000000012 2943.200000000012 2963.200000000012 2983.200000000012 3003.200000000012 3023.200000000012 3043.200000000012 3063.200000000012 3083.200000000012 3103.200000000012 3123.200000000012 3143.200000000012 3163.200000000012 3183.200000000012 3203.200000000012
cb_03,13.0,enc_trial,stim,response,Iceland trip,2004.7999999999595,enc_trial,1.0,13.0,t_m_04_2,travel_Miami,fold-e,UV jacket,3.0,unique,close,paired,t_m_04_2.jpg,Miami,travel-b1,Iceland trip,Miami trip,sub-72,0.0,0.0,1.0,0.0,0.5520963704630788 0.5877659574468085 0.6206195244055069 0.6206195244055069 0.6412703379224031 0.6450250312891114 0.6450250312891114 0.6440863579474343 0.6440863579474343 0.6431476846057572 0.5558510638297872 0.4507196495619524 0.4075406758448061 0.3925219023779725 0.3915832290362954 0.3906445556946183 0.3897058823529412 0.3859511889862328 0.3803191489361702 0.3465269086357947 0.2160513141426784 0.19164580725907385 0.18038172715894865 0.17944305381727158 0.17850438047559447 0.17850438047559447 0.17850438047559447 0.15316020025031288 0.1165519399249061 0.09965581977471837 0.0902690863579474 0.0893304130162703 0.0893304130162703 0.08839173967459321 0.0902690863579474 0.10716520650813514 0.11373591989987482 0.1184292866082603 0.12124530663329156 0.12218397997496867 0.12875469336670836 0.13344806007509386 0.13814142678347932 0.14001877346683353 0.1409574468085106 0.1409574468085106 0.1409574468085106 0.1409574468085106 0.14001877346683353 0.14001877346683353 0.14001877346683353 0.13908010012515645 0.13908010012515645 0.13814142678347932 0.13720275344180222 0.13344806007509386,0.7033792240300376 0.6145181476846058 0.5181476846057572 0.5181476846057572 0.41927409261576976 0.3479349186483104 0.26282853566958697 0.2603254067584481 0.2578222778473092 0.25657071339173965 0.2866082603254068 0.362953692115144 0.3992490613266583 0.4155193992490613 0.41802252816020025 0.41927409261576976 0.4205256570713392 0.4242803504380476 0.42803504380475604 0.4292866082603254 0.3754693366708386 0.3554443053817271 0.3454317897371715 0.344180225281602 0.344180225281602 0.34292866082603257 0.34167709637046306 0.30913642052565704 0.26282853566958697 0.246558197747184 0.2403003754693367 0.2403003754693367 0.2403003754693367 0.2365456821026283 0.21276595744680848 0.13141426783479349 0.12015018773466835 0.11264080100125153 0.11138923654568213 0.1101376720901126 0.1076345431789737 0.1051314142678348 0.10137672090112636 0.10012515644555696 0.09887359198998746 0.09887359198998746 0.09887359198998746 0.10012515644555696 0.10012515644555696 0.10137672090112636 0.1063829787234043 0.1076345431789737 0.1088861076345432 0.11138923654568213 0.11389236545682102 0.12640801001251567,599.8000000000175 619.8000000000175 639.8000000000175 659.8000000000175 679.8000000000175 699.8000000000176 719.8000000000176 739.8000000000176 759.8000000000176 779.8000000000176 799.8000000000176 819.8000000000176 839.8000000000176 859.8000000000176 879.8000000000176 899.8000000000176 919.8000000000177 939.8000000000177 959.8000000000177 979.8000000000177 999.8000000000177 1019.8000000000177 1039.8000000000177 1059.8000000000177 1079.8000000000177 1099.8000000000177 1119.8000000000177 1139.8000000000175 1159.8000000000175 1179.8000000000175 1199.8000000000175 1219.8000000000175 1239.8000000000175 1259.8000000000175 1279.8000000000175 1299.8000000000175 1319.8000000000175 1339.8000000000175 1359.8000000000175 1379.8000000000175 1399.8000000000175 1419.8000000000175 1439.8000000000175 1459.8000000000175 1479.8000000000175 1499.8000000000175 1519.8000000000175 1539.8000000000175 1559.8000000000175 1579.8000000000175 1599.8000000000175 1619.8000000000175 1639.8000000000175 1659.8000000000175 1679.8000000000175 1699.8000000000175
cb_03,14.0,enc_trial,stim,response,Miami trip,2404.699999999895,enc_trial,1.0,14.0,t_s_06_1,travel_shared,fold-b,luggage,3.0,competing,close,paired,t_s_06_1.jpg,,travel-b1,Iceland trip,Miami trip,sub-72,1.0,1.0,0.0,1.0,0.5042240300375469 0.5107947434292867 0.5173654568210263 0.5295682102628285 0.5361389236545682 0.553035043804756 0.5577284105131415 0.5652377972465582 0.5746245306633292 0.583072590738423 0.5999687108886108 0.6065394242803505 0.6149874843554443 0.6206195244055069 0.6234355444305382 0.6375156445556946 0.6469023779724656 0.6515957446808511 0.6553504380475594 0.6581664580725908 0.6591051314142679 0.6562891113892365 0.5549123904881101 0.5549123904881101 0.5183041301627034 0.4178660826032541 0.4066020025031289 0.4019086357947434 0.4000312891113893 0.3943992490613267 0.3793804755944931 0.3746871088861076 0.37374843554443055 0.3718710888610763 0.3718710888610763 0.3709324155193993 0.3709324155193993 0.3906445556946183 0.4920212765957447 0.5380162703379224 0.5624217772215269 0.6056007509386734 0.6656758448060075 0.6985294117647058 0.7276282853566959 0.7360763454317898 0.7370150187734669 0.7379536921151439 0.7379536921151439 0.7388923654568209 0.7388923654568209 0.7426470588235294 0.7576658322903629 0.7755006257822278 0.7886420525657072 0.8168022528160199 0.8271276595744681 0.8299436795994994 0.8346370463078849 0.8355757196495619 0.8374530663329162 0.8374530663329162 0.8374530663329162,0.7884856070087609 0.7584480600750938 0.7284105131414268 0.6570713391739675 0.6082603254067585 0.5031289111389237 0.4718397997496872 0.3754693366708386 0.32790988735919896 0.2916145181476846 0.2578222778473092 0.2478097622027534 0.2352941176470589 0.22778473091364204 0.22277847309136425 0.19899874843554444 0.181476846057572 0.16896120150187732 0.1589486858573217 0.14893617021276595 0.14392991239048816 0.14017521902377972 0.12765957446808507 0.12765957446808507 0.14267834793491865 0.16896120150187732 0.16645807259073842 0.16645807259073842 0.16645807259073842 0.16896120150187732 0.17271589486858574 0.17521902377972465 0.17521902377972465 0.17647058823529416 0.17647058823529416 0.17647058823529416 0.181476846057572 0.2240300375469336 0.32790988735919896 0.344180225281602 0.3304130162703379 0.3016270337922403 0.2478097622027534 0.2115143929912391 0.15644555694618267 0.1088861076345432 0.1051314142678348 0.10262828535669588 0.10137672090112636 0.10137672090112636 0.09887359198998746 0.09762202753441808 0.09887359198998746 0.10012515644555696 0.10137672090112636 0.10387984981226528 0.1051314142678348 0.1063829787234043 0.1063829787234043 0.1076345431789737 0.1088861076345432 0.1088861076345432 0.1101376720901126,948.8999999999942 968.8999999999942 988.8999999999942 1008.8999999999942 1028.8999999999942 1048.8999999999942 1068.8999999999942 1088.8999999999942 1108.8999999999942 1128.8999999999942 1148.8999999999942 1168.8999999999942 1188.8999999999942 1208.8999999999942 1228.8999999999942 1248.8999999999942 1268.8999999999942 1288.8999999999942 1308.8999999999942 1328.8999999999942 1348.8999999999942 1368.8999999999942 1388.8999999999942 1408.8999999999942 1428.8999999999942 1448.8999999999942 1468.8999999999942 1488.8999999999942 1508.8999999999942 1528.8999999999942 1548.8999999999942 1568.8999999999942 1588.8999999999942 1608.8999999999942 1628.8999999999942 1648.8999999999942 1668.8999999999942 1688.8999999999942 1708.8999999999942 1728.8999999999942 1748.8999999999942 1768.8999999999942 1788.8999999999942 1808.8999999999944 1828.8999999999944 1848.8999999999944 1868.8999999999944 1888.8999999999944 1908.8999999999944 1928.8999999999944 1948.8999999999944 1968.8999999999944 1988.8999999999944 2008.8999999999944 2028.8999999999944 2048.8999999999937 2068.8999999999937 2088.8999999999937 2108.8999999999937 2128.8999999999937 2148.8999999999937 2168.8999999999937 2188.8999999999937
cb_03,15.0,enc_trial,stim,response,Miami trip,1475.2000000000116,enc_trial,1.0,15.0,t_m_17_1,travel_Miami,fold-a,water gun,3.0,unique,far,paired,t_m_17_1.jpg,Miami,travel-b1,Iceland trip,Miami trip,sub-72,1.0,1.0,1.0,1.0,0.5877659574468085 0.6572277847309137 0.7970901126408009 0.8421464330413017 0.9022215269086358 0.9660513141426784 0.982947434292866 0.9848247809762202 0.982947434292866 0.9801314142678348 0.9763767209011264 0.9763767209011264 0.9763767209011264 0.9754380475594492 0.9754380475594492 0.9669899874843554 0.953848560700876 0.9256883604505632 0.90409887359199 0.8928347934918649 0.8881414267834794 0.8872027534418023 0.8862640801001251 0.8862640801001251 0.8862640801001251 0.8862640801001251,0.7471839799749687 0.6883604505632039 0.5594493116395494 0.5143929912390488 0.4267834793491865 0.3003754693366708 0.25406758448060074 0.2252816020025032 0.2102628285356696 0.19899874843554444 0.1864831038798498 0.18272841051314148 0.181476846057572 0.18022528160200246 0.17897371714643304 0.16645807259073842 0.14893617021276595 0.12140175219023774 0.10387984981226528 0.09762202753441808 0.09887359198998746 0.10137672090112636 0.1076345431789737 0.1101376720901126 0.11138923654568213 0.11264080100125153,783.2000000000116 803.2000000000116 823.2000000000116 843.2000000000116 863.2000000000116 883.2000000000116 903.2000000000116 923.2000000000116 943.2000000000116 963.2000000000116 983.2000000000116 1003.2000000000116 1023.2000000000116 1043.2000000000116 1063.2000000000116 1083.2000000000116 1103.2000000000116 1123.2000000000116 1143.2000000000114 1163.2000000000114 1183.2000000000114 1203.2000000000114 1223.2000000000114 1243.2000000000114 1263.2000000000114 1283.2000000000114
cb_03,16.0,enc_trial,stim,response,Miami trip,1294.5,enc_trial,1.0,16.0,t_m_20_2,travel_Miami,fold-e,inflatable beachball,3.0,unique,close,paired,t_m_20_2.jpg,Miami,travel-b1,Iceland trip,Miami trip,sub-72,1.0,1.0,1.0,1.0,0.5896433041301627 0.6093554443053817 0.6647371714643304 0.6900813516896122 0.7379536921151439 0.7529724655819775 0.7877033792240301 0.7895807259073843 0.7905193992490613 0.7905193992490613 0.7905193992490613 0.7999061326658323 0.8055381727158949 0.8186795994993742 0.8233729662077597 0.8261889862327909 0.8355757196495619 0.8393304130162703 0.8412077596996246 0.8440237797246558 0.8449624530663329 0.8449624530663329,0.5206508135168961 0.4605757196495619 0.3216520650813517 0.2453066332916145 0.12515644555694616 0.09637046307884856 0.017521902377972458 0.015018773466833557 0.013767209011264048 0.013767209011264048 0.013767209011264048 0.040050062578222745 0.06382978723404252 0.10387984981226528 0.11514392991239053 0.11764705882352945 0.12265331664580725 0.12390488110137675 0.12390488110137675 0.12265331664580725 0.12140175219023774 0.12140175219023774,666.5999999999767 686.5999999999767 706.5999999999768 726.5999999999768 746.5999999999768 766.5999999999768 786.5999999999768 806.5999999999768 826.5999999999768 846.5999999999768 866.5999999999768 886.5999999999768 906.5999999999768 926.5999999999768 946.5999999999768 966.5999999999768 986.5999999999768 1006.5999999999768 1026.5999999999767 1046.5999999999767 1066.5999999999767 1086.5999999999767
cb_03,17.0,enc_trial,stim,response,Iceland trip,1225.6999999999534,enc_trial,1.0,17.0,t_i_15_2,travel_Iceland,fold-a,compass,3.0,unique,far,paired,t_i_15_2.jpg,Iceland,travel-b1,Iceland trip,Miami trip,sub-72,1.0,1.0,1.0,1.0,0.4357008760951189 0.3183667083854819 0.2489048811013767 0.13814142678347932 0.07525031289111386 0.029255319148936136 0.029255319148936136 0.02831664580725904 0.02831664580725904 0.02831664580725904 0.029255319148936136 0.029255319148936136 0.03113266583229033 0.03676470588235292 0.07149561952440547 0.13814142678347932 0.15691489361702124 0.16160826032540673 0.1672403003754693 0.1709949937421777 0.1766270337922403,0.7096370463078849 0.4893617021276596 0.3817271589486858 0.2315394242803505 0.14768460575719644 0.09762202753441808 0.09762202753441808 0.09887359198998746 0.09887359198998746 0.09887359198998746 0.10012515644555696 0.10137672090112636 0.10387984981226528 0.11138923654568213 0.14643304130162704 0.1964956195244056 0.20025031289111395 0.20025031289111395 0.20150187734668326 0.20150187734668326 0.20150187734668326,598.4000000000233 618.4000000000233 638.4000000000233 658.4000000000233 678.4000000000233 698.4000000000232 718.4000000000232 738.4000000000232 758.4000000000232 778.4000000000232 798.4000000000232 818.4000000000232 838.4000000000232 858.4000000000232 878.4000000000232 898.4000000000232 918.4000000000232 938.4000000000232 958.4000000000232 978.4000000000232 998.4000000000232
cb_03,18.0,enc_trial,stim,response,Miami trip,1759.4000000000233,enc_trial,1.0,18.0,t_s_24_2,travel_shared,fold-c,ear plugs,3.0,competing,far,paired,t_s_24_2.jpg,,travel-b1,Iceland trip,Miami trip,sub-72,1.0,1.0,0.0,1.0,0.4422715894868586 0.4225594493116395 0.42068210262828537 0.4291301627033792 0.44508760951188986 0.4835732165206508 0.5061013767209012 0.5539737171464331 0.6074780976220275 0.6544117647058824 0.6994680851063829 0.7079161451814768 0.7126095118898623 0.7135481852315394 0.7135481852315394 0.7135481852315394 0.7154255319148937 0.7154255319148937 0.7229349186483104 0.7313829787234043 0.7360763454317898 0.7360763454317898 0.7360763454317898 0.7360763454317898 0.7360763454317898 0.7360763454317898 0.7360763454317898 0.7360763454317898 0.7360763454317898 0.7360763454317898 0.7360763454317898 0.7360763454317898 0.7360763454317898 0.7360763454317898 0.7360763454317898 0.7360763454317898 0.7360763454317898 0.7360763454317898 0.7360763454317898 0.7360763454317898 0.7360763454317898 0.7360763454317898 0.7745619524405507 0.8102315394242804 0.8168022528160199 0.8280663329161452 0.8374530663329162 0.8412077596996246 0.8430851063829787 0.8477784730913642 0.8571652065081352 0.8609198998748436 0.8637359198998749,0.6445556946182729 0.5131414267834793 0.4443053817271589 0.3854818523153942 0.33667083854818525 0.246558197747184 0.22903629536921155 0.2065081351689612 0.1927409261576971 0.17146433041301626 0.14518147684605753 0.14017521902377972 0.1389236545682102 0.1389236545682102 0.1389236545682102 0.1389236545682102 0.1389236545682102 0.1389236545682102 0.14017521902377972 0.14017521902377972 0.14017521902377972 0.14017521902377972 0.14017521902377972 0.14017521902377972 0.14017521902377972 0.14017521902377972 0.14017521902377972 0.14017521902377972 0.14017521902377972 0.1389236545682102 0.1389236545682102 0.1389236545682102 0.1389236545682102 0.1389236545682102 0.1389236545682102 0.1389236545682102 0.1389236545682102 0.1389236545682102 0.1389236545682102 0.1389236545682102 0.1389236545682102 0.1389236545682102 0.15394242803504374 0.1589486858573217 0.1589486858573217 0.1589486858573217 0.15519399249061328 0.15394242803504374 0.15269086357947434 0.15143929912390486 0.15018773466833546 0.15143929912390486 0.15143929912390486,516.4000000000234 536.4000000000234 556.4000000000234 576.4000000000234 596.4000000000234 616.4000000000234 636.4000000000234 656.4000000000234 676.4000000000234 696.4000000000234 716.4000000000234 736.4000000000234 756.4000000000234 776.4000000000234 796.4000000000234 816.4000000000234 836.4000000000234 856.4000000000234 876.4000000000234 896.4000000000234 916.4000000000234 936.4000000000234 956.4000000000234 976.4000000000234 996.4000000000234 1016.4000000000234 1036.4000000000233 1056.4000000000233 1076.4000000000233 1096.4000000000233 1116.4000000000233 1136.4000000000233 1156.4000000000233 1176.4000000000233 1196.4000000000233 1216.4000000000233 1236.4000000000233 1256.4000000000233 1276.4000000000233 1296.4000000000233 1316.4000000000233 1336.4000000000233 1356.4000000000233 1376.4000000000233 1396.4000000000233 1416.4000000000233 1436.4000000000233 1456.4000000000233 1476.4000000000233 1496.4000000000233 1516.4000000000233 1536.4000000000233 1556.4000000000233
cb_03,19.0,enc_trial,stim,response,Iceland trip,1249.0999999999767,enc_trial,1.0,19.0,t_s_23_2,travel_shared,fold-c,ball cap,3.0,competing,far,paired,t_s_23_2.jpg,,travel-b1,Iceland trip,Miami trip,sub-72,1.0,1.0,0.0,1.0,0.4798185231539424 0.4460262828535669 0.3699937421777221 0.32024405506883596 0.18695244055068835 0.10904255319148934 0.10810387984981223 0.10716520650813514 0.10716520650813514 0.10622653316645804 0.12312265331664578 0.12593867334167708 0.12781602002503126 0.12781602002503126 0.12781602002503126 0.12781602002503126 0.12781602002503126 0.12781602002503126 0.12687734668335415 0.12687734668335415 0.12593867334167708 0.12593867334167708 0.12593867334167708,0.7596996245306633 0.6695869837296621 0.5206508135168961 0.42553191489361697 0.1602002503128911 0.02753441802252821 0.025031289111389188 0.025031289111389188 0.026282853566958697 0.028785982478097605 0.12140175219023774 0.1389236545682102 0.14392991239048816 0.14518147684605753 0.14643304130162704 0.14643304130162704 0.14643304130162704 0.14643304130162704 0.14643304130162704 0.14643304130162704 0.15269086357947434 0.15394242803504374 0.15519399249061328,599.0 619.0 639.0 659.0 679.0 699.0 719.0 739.0 759.0 779.0 799.0 819.0 839.0 859.0 879.0 899.0 919.0 939.0 959.0 979.0 999.0 1019.0 1039.0
cb_03,20.0,enc_trial,stim,response,Iceland trip,1729.7999999999884,enc_trial,1.0,20.0,t_s_06_2,travel_shared,fold-b,luggage,3.0,competing,close,paired,t_s_06_2.jpg,,travel-b1,Iceland trip,Miami trip,sub-72,1.0,1.0,0.0,1.0,0.4863892365456821 0.3831351689612015 0.3033479349186483 0.18132040050062576 0.12312265331664578 0.0658635794743429 0.05553817271589484 0.05553817271589484 0.05553817271589484 0.05553817271589484 0.05553817271589484 0.05553817271589484 0.05553817271589484 0.05553817271589484 0.056476846057571924 0.058354192740926125 0.07618898623279095 0.08745306633291612 0.0902690863579474 0.09308510638297868 0.09308510638297868 0.0940237797246558 0.0940237797246558 0.09871714643304128 0.10528785982478096,0.8047559449311641 0.6483103879849812 0.5294117647058824 0.3404255319148937 0.25531914893617025 0.17772215269086356 0.15644555694618267 0.15644555694618267 0.15394242803504374 0.15269086357947434 0.15143929912390486 0.14893617021276595 0.14643304130162704 0.14518147684605753 0.14392991239048816 0.14142678347934926 0.12140175219023774 0.1063829787234043 0.10387984981226528 0.10012515644555696 0.10012515644555696 0.09887359198998746 0.09762202753441808 0.10012515644555696 0.1076345431789737,1014.3999999999652 1034.399999999965 1054.399999999965 1074.3999999999648 1094.3999999999646 1114.3999999999646 1134.3999999999644 1154.3999999999644 1174.3999999999644 1194.3999999999644 1214.3999999999644 1234.399999999964 1254.3999999999635 1274.3999999999635 1294.3999999999635 1314.3999999999635 1334.3999999999633 1354.3999999999633 1374.3999999999635 1394.399999999963 1414.3999999999628 1434.3999999999628 1454.3999999999628 1474.3999999999626 1494.3999999999626
cb_03,21.0,enc_trial,stim,response,Miami trip,1602.9000000000233,enc_trial,1.0,21.0,t_s_04_1,travel_shared,fold-c,instant camera,3.0,competing,far,paired,t_s_04_1.jpg,,travel-b1,Iceland trip,Miami trip,sub-72,1.0,1.0,1.0,0.0,0.5229974968710889 0.5765018773466833 0.6553504380475594 0.7266896120150188 0.7980287859824782 0.8618585732165207 0.8618585732165207 0.8618585732165207 0.8618585732165207 0.8618585732165207 0.8618585732165207 0.8618585732165207 0.8618585732165207 0.8618585732165207 0.8618585732165207 0.8618585732165207 0.8618585732165207 0.8618585732165207 0.8618585732165207 0.9106695869837296 0.893773466833542 0.8881414267834794 0.884386733416771 0.8834480600750939 0.8825093867334168 0.8815707133917396 0.8815707133917396 0.8815707133917396 0.8806320400500626 0.8806320400500626 0.8806320400500626 0.8806320400500626 0.8806320400500626 0.8806320400500626 0.8806320400500626 0.8778160200250313 0.8712453066332917 0.8665519399249062 0.8627972465581978 0.8618585732165207 0.8609198998748436,0.7571964956195244 0.6020025031289111 0.4017521902377973 0.25406758448060074 0.12390488110137675 0.02002503128911137 0.02002503128911137 0.02002503128911137 0.02002503128911137 0.02002503128911137 0.02002503128911137 0.02002503128911137 0.02002503128911137 0.02002503128911137 0.02002503128911137 0.02002503128911137 0.02002503128911137 0.02002503128911137 0.02002503128911137 0.01126408010012514 0.0550688360450563 0.06382978723404252 0.06758448060075095 0.06883604505632035 0.07008760951188986 0.07008760951188986 0.07008760951188986 0.07008760951188986 0.07008760951188986 0.07008760951188986 0.07008760951188986 0.07008760951188986 0.07008760951188986 0.07008760951188986 0.07133917396745937 0.081351689612015 0.10387984981226528 0.12390488110137675 0.1364205256570713 0.14142678347934926 0.14392991239048816,516.6999999999534 536.6999999999534 556.6999999999534 576.6999999999534 596.6999999999534 616.6999999999534 636.6999999999534 656.6999999999534 676.6999999999534 696.6999999999533 716.6999999999533 736.6999999999533 756.6999999999533 776.6999999999533 796.6999999999533 816.6999999999533 836.6999999999533 856.6999999999533 876.6999999999533 896.6999999999533 916.6999999999533 936.6999999999533 956.6999999999533 976.6999999999533 996.6999999999533 1016.6999999999533 1036.6999999999532 1056.6999999999532 1076.6999999999532 1096.6999999999532 1116.6999999999532 1136.6999999999534 1156.6999999999534 1176.6999999999534 1196.6999999999534 1216.6999999999534 1236.6999999999534 1256.6999999999534 1276.6999999999534 1296.6999999999534 1316.6999999999534
cb_03,22.0,enc_trial,stim,response,Iceland trip,1546.7999999999302,enc_trial,1.0,22.0,t_i_13_1,travel_Iceland,fold-a,sleeping bag,3.0,unique,far,paired,t_i_13_1.jpg,Iceland,travel-b1,Iceland trip,Miami trip,sub-72,1.0,1.0,1.0,1.0,0.4319461827284105 0.3587296620775971 0.2620463078848561 0.2179286608260325 0.18789111389236546 0.1822590738423029 0.1822590738423029 0.1822590738423029 0.1822590738423029 0.1822590738423029 0.18132040050062576 0.18132040050062576 0.18132040050062576 0.18132040050062576 0.18132040050062576 0.17944305381727158 0.15597622027534416 0.10716520650813514 0.09590112640801 0.08651439299123903 0.08275969962453063 0.08182102628285354 0.08182102628285354 0.08182102628285354 0.08088235294117645 0.07994367959949934 0.07994367959949934 0.07994367959949934 0.07994367959949934 0.07994367959949934 0.09871714643304128 0.10528785982478096 0.10622653316645804 0.10622653316645804 0.10622653316645804 0.10716520650813514 0.10716520650813514,0.7284105131414268 0.6120150187734668 0.4618272841051314 0.3842302878598248 0.3291614518147684 0.3204005006257822 0.3191489361702128 0.3191489361702128 0.3191489361702128 0.3191489361702128 0.3204005006257822 0.3204005006257822 0.3204005006257822 0.3204005006257822 0.3204005006257822 0.3191489361702128 0.26282853566958697 0.13141426783479349 0.08510638297872343 0.05632040050062581 0.048811013767208984 0.04755944931163958 0.04755944931163958 0.04755944931163958 0.04755944931163958 0.04755944931163958 0.04755944931163958 0.048811013767208984 0.048811013767208984 0.052565707133917394 0.10387984981226528 0.11764705882352945 0.11889862327909885 0.11889862327909885 0.11889862327909885 0.12015018773466835 0.12015018773466835,565.9000000000233 585.9000000000233 605.9000000000233 625.9000000000233 645.9000000000233 665.9000000000233 685.9000000000233 705.9000000000232 725.9000000000232 745.9000000000232 765.9000000000232 785.9000000000232 805.9000000000232 825.9000000000232 845.9000000000232 865.9000000000232 885.9000000000232 905.9000000000232 925.9000000000232 945.9000000000232 965.9000000000232 985.9000000000232 1005.9000000000232 1025.9000000000233 1045.9000000000233 1065.9000000000233 1085.9000000000233 1105.9000000000233 1125.9000000000233 1145.9000000000233 1165.9000000000233 1185.9000000000233 1205.9000000000233 1225.9000000000233 1245.9000000000233 1265.9000000000233 1285.9000000000233
cb_03,23.0,enc_trial,stim,response,Miami trip,1498.8999999999646,enc_trial,1.0,23.0,t_s_05_1,travel_shared,fold-a-single,neck pillow,3.0,competing,,single,t_s_05_1.jpg,,travel-b1,Iceland trip,Miami trip,sub-72,1.0,,1.0,,0.5239361702127661 0.6206195244055069 0.6459637046307884 0.6947747183979975 0.7323216520650814 0.8045994993742178 0.8158635794743431 0.8196182728410514 0.8205569461827285 0.8224342928660826 0.8233729662077597 0.8243116395494369 0.8252503128911141 0.8271276595744681 0.8308823529411765 0.8402690863579475 0.8449624530663329 0.8468397997496871 0.8477784730913642 0.8487171464330413 0.8477784730913642 0.8468397997496871 0.8468397997496871 0.8468397997496871 0.8459011264080101 0.8449624530663329,0.8160200250312891 0.6570713391739675 0.6182728410513141 0.5469336670838548 0.4868585732165206 0.3541927409261577 0.3266583229036295 0.3153942428035044 0.3066332916145181 0.2991239048811014 0.2928660826032541 0.2916145181476846 0.2903629536921152 0.2866082603254068 0.28035043804755944 0.2640801001251565 0.25406758448060074 0.2490613266583229 0.23779724655819776 0.2177722152690864 0.20525657071339176 0.20275344180225285 0.20025031289111395 0.19899874843554444 0.195244055068836 0.195244055068836,782.4000000000232 802.4000000000232 822.4000000000232 842.4000000000232 862.4000000000232 882.4000000000232 902.4000000000232 922.4000000000232 942.4000000000232 962.4000000000232 982.4000000000232 1002.4000000000232 1022.4000000000232 1042.4000000000233 1062.4000000000233 1082.4000000000233 1102.4000000000233 1122.4000000000233 1142.4000000000233 1162.4000000000233 1182.4000000000233 1202.4000000000233 1222.4000000000233 1242.4000000000233 1262.4000000000233 1282.4000000000233
cb_03,24.0,enc_trial,stim,response,Iceland trip,1221.4000000000233,enc_trial,1.0,24.0,t_i_17_1,travel_Iceland,fold-e,binoculars,3.0,unique,close,paired,t_i_17_1.jpg,Iceland,travel-b1,Iceland trip,Miami trip,sub-72,1.0,1.0,1.0,1.0,0.4563516896120151 0.3718710888610763 0.3155506883604505 0.2658010012515644 0.20948060075093866 0.19164580725907385 0.19070713391739672 0.19070713391739672 0.1954005006257822 0.20948060075093866 0.2169899874843554 0.2179286608260325 0.2179286608260325 0.2179286608260325 0.2169899874843554 0.21417396745932413 0.20948060075093866 0.1634856070087609 0.12406132665832288 0.10528785982478096 0.09777847309136416 0.09683979974968708 0.09683979974968708,0.6282853566958698 0.390488110137672 0.2440550688360451 0.14893617021276595 0.07384230287859828 0.060075093867334124 0.060075093867334124 0.060075093867334124 0.09386733416770963 0.14267834793491865 0.16270337922403 0.16645807259073842 0.16770963704630792 0.16896120150187732 0.17146433041301626 0.17521902377972465 0.17647058823529416 0.1639549436795995 0.14893617021276595 0.14518147684605753 0.14518147684605753 0.14518147684605753 0.14518147684605753,582.3999999999653 602.3999999999653 622.3999999999653 642.3999999999653 662.3999999999653 682.3999999999653 702.3999999999652 722.3999999999652 742.3999999999652 762.3999999999652 782.3999999999652 802.3999999999652 822.3999999999652 842.3999999999652 862.3999999999652 882.3999999999652 902.3999999999652 922.3999999999652 942.3999999999652 962.3999999999652 982.3999999999652 1002.3999999999652 1022.3999999999652
cb_03,25.0,enc_trial,stim,response,Miami trip,2732.899999999965,enc_trial,1.0,25.0,t_m_01_2,travel_Miami,fold-a,sandals,3.0,unique,far,paired,t_m_01_2.jpg,Miami,travel-b1,Iceland trip,Miami trip,sub-72,1.0,1.0,0.0,1.0,0.543648310387985 0.5765018773466833 0.6131101376720901 0.6572277847309137 0.6778785982478098 0.6957133917396746 0.6994680851063829 0.7032227784730913 0.7060387984981227 0.7079161451814768 0.7163642052565707 0.7351376720901126 0.7623591989987485 0.7764392991239049 0.7914580725907384 0.7952127659574468 0.7370150187734669 0.5971526908635795 0.4582290362953692 0.4582290362953692 0.26673967459324155 0.23107008760951184 0.2301314142678348 0.2291927409261577 0.2291927409261577 0.2282540675844805 0.2282540675844805 0.2282540675844805 0.2282540675844805 0.2301314142678348 0.2367021276595745 0.23764080100125154 0.23764080100125154 0.2367021276595745 0.23482478097622025 0.2329474342928661 0.2235607008760951 0.19258448060075087 0.17005632040050062 0.15879224030037545 0.15034418022528154 0.1494055068836045 0.1494055068836045 0.14846683354192738 0.14846683354192738 0.14846683354192738 0.14846683354192738 0.14846683354192738 0.14846683354192738 0.14846683354192738 0.14846683354192738 0.14846683354192738 0.14846683354192738 0.14846683354192738 0.14846683354192738 0.14846683354192738 0.14846683354192738 0.14846683354192738 0.14846683354192738 0.14846683354192738 0.2526595744680851 0.3596683354192741 0.5427096370463079 0.6131101376720901 0.8233729662077597 0.9463391739674594 1.000782227784731 1.0326971214017522 1.0402065081351688 1.043961201501877 1.0448998748435545 1.0448998748435545 1.0448998748435545 1.043961201501877 1.041145181476846 0.9585419274092616 0.8515331664580726 0.7961514392991239 0.7745619524405507 0.7698685857321652 0.7689299123904881 0.7679912390488111 0.7679912390488111 0.7679912390488111 0.7679912390488111 0.7689299123904881 0.7698685857321652 0.7708072590738423 0.7745619524405507 0.7877033792240301 0.8374530663329162 0.8468397997496871 0.8496558197747184 0.8515331664580726 0.8515331664580726 0.8524718397997497,0.7158948685857321 0.6483103879849812 0.5744680851063829 0.4780976220275344 0.4330413016270338 0.3754693366708386 0.3604505632040049 0.3466833541927409 0.34292866082603257 0.3391739674593241 0.33792240300375465 0.3404255319148937 0.3454317897371715 0.344180225281602 0.3404255319148937 0.33416770963704634 0.2740926157697121 0.18397997496871088 0.14392991239048816 0.14392991239048816 0.16270337922403 0.1614518147684606 0.1614518147684606 0.16270337922403 0.16270337922403 0.16270337922403 0.16270337922403 0.16270337922403 0.16270337922403 0.1639549436795995 0.16770963704630792 0.16770963704630792 0.16770963704630792 0.16770963704630792 0.16770963704630792 0.16770963704630792 0.16645807259073842 0.1602002503128911 0.15769712140175218 0.15769712140175218 0.1602002503128911 0.1602002503128911 0.1614518147684606 0.1614518147684606 0.1614518147684606 0.1614518147684606 0.1614518147684606 0.1614518147684606 0.1614518147684606 0.1614518147684606 0.1614518147684606 0.1614518147684606 0.1614518147684606 0.1614518147684606 0.1614518147684606 0.1614518147684606 0.1614518147684606 0.1614518147684606 0.1614518147684606 0.1614518147684606 0.1877346683354193 0.195244055068836 0.1864831038798498 0.17897371714643304 0.14267834793491865 0.11389236545682102 0.10012515644555696 0.09511889862327903 0.09511889862327903 0.09637046307884856 0.09637046307884856 0.09637046307884856 0.09637046307884856 0.09762202753441808 0.09887359198998746 0.12265331664580725 0.12765957446808507 0.12015018773466835 0.12140175219023774 0.12265331664580725 0.12515644555694616 0.12515644555694616 0.12515644555694616 0.12515644555694616 0.12515644555694616 0.12515644555694616 0.12515644555694616 0.12390488110137675 0.12390488110137675 0.12390488110137675 0.13016270337922398 0.13016270337922398 0.12891113892365458 0.12891113892365458 0.12765957446808507 0.12765957446808507,583.2999999999884 603.2999999999884 623.2999999999884 643.2999999999884 663.2999999999884 683.2999999999884 703.2999999999884 723.2999999999884 743.2999999999884 763.2999999999884 783.2999999999884 803.2999999999884 823.2999999999884 843.2999999999884 863.2999999999884 883.2999999999884 903.2999999999884 923.2999999999884 943.2999999999884 963.2999999999884 983.2999999999884 1003.2999999999884 1023.2999999999884 1043.2999999999884 1063.2999999999884 1083.2999999999884 1103.2999999999884 1123.2999999999884 1143.2999999999886 1163.2999999999886 1183.2999999999886 1203.2999999999886 1223.2999999999886 1243.2999999999886 1263.2999999999886 1283.2999999999886 1303.2999999999886 1323.2999999999886 1343.2999999999886 1363.2999999999886 1383.2999999999884 1403.2999999999884 1423.2999999999884 1443.2999999999884 1463.2999999999884 1483.2999999999884 1503.2999999999884 1523.2999999999884 1543.2999999999884 1563.2999999999884 1583.2999999999884 1603.2999999999884 1623.2999999999884 1643.2999999999884 1663.2999999999884 1683.2999999999884 1703.2999999999884 1723.2999999999884 1743.2999999999884 1763.2999999999884 1783.2999999999884 1803.2999999999884 1823.2999999999884 1843.2999999999884 1863.2999999999884 1883.2999999999884 1903.2999999999884 1923.2999999999884 1943.2999999999884 1963.2999999999884 1983.2999999999884 2003.2999999999884 2023.2999999999884 2043.2999999999884 2063.2999999999884 2083.2999999999884 2103.2999999999884 2123.2999999999884 2143.2999999999884 2163.2999999999884 2183.2999999999884 2203.2999999999884 2223.2999999999884 2243.2999999999884 2263.2999999999884 2283.2999999999884 2303.2999999999884 2323.2999999999884 2343.2999999999884 2363.2999999999884 2383.2999999999884 2403.2999999999884 2423.2999999999884 2443.2999999999884 2463.2999999999884 2483.2999999999884
cb_03,26.0,enc_trial,stim,response,Miami trip,1957.2000000000119,enc_trial,1.0,26.0,t_m_18_1,travel_Miami,fold-b-single,waterproof tote,3.0,unique,,single,t_m_18_1.jpg,Miami,travel-b1,Iceland trip,Miami trip,sub-72,1.0,,1.0,,0.4882665832290363 0.4441489361702128 0.4075406758448061 0.3512202753441802 0.3155506883604505 0.2733103879849812 0.2704943679599499 0.2704943679599499 0.2704943679599499 0.2676783479349186 0.26298498122653313 0.2620463078848561 0.261107634543179 0.26016896120150185 0.25735294117647056 0.15691489361702124 0.1465894868585732 0.1428347934918648 0.1418961201501877 0.1418961201501877 0.1409574468085106 0.14001877346683353 0.14001877346683353 0.14001877346683353 0.14001877346683353 0.14001877346683353 0.14001877346683353 0.14001877346683353 0.14001877346683353 0.14001877346683353 0.14001877346683353 0.14001877346683353 0.14001877346683353 0.1418961201501877 0.3315081351689612 0.6572277847309137 0.7398310387984981 0.8374530663329162 0.8374530663329162 0.8646745932415519 0.8825093867334168 0.8834480600750939 0.884386733416771 0.884386733416771 0.884386733416771 0.8853254067584481 0.8853254067584481 0.8853254067584481 0.8853254067584481 0.8853254067584481 0.8290050062578223 0.8252503128911141 0.8233729662077597 0.8233729662077597 0.8224342928660826 0.8214956195244055 0.8214956195244055 0.8214956195244055,0.7484355444305382 0.5506883604505632 0.4342928660826032 0.2916145181476846 0.2302878598247809 0.1902377972465582 0.1914893617021277 0.1914893617021277 0.1914893617021277 0.19774718397997493 0.2102628285356696 0.21276595744680848 0.21401752190237802 0.2152690863579474 0.2152690863579474 0.12265331664580725 0.11264080100125153 0.1088861076345432 0.1088861076345432 0.1088861076345432 0.1088861076345432 0.1088861076345432 0.1088861076345432 0.1088861076345432 0.1088861076345432 0.1088861076345432 0.1088861076345432 0.1088861076345432 0.1088861076345432 0.1088861076345432 0.1088861076345432 0.1088861076345432 0.1088861076345432 0.11389236545682102 0.25406758448060074 0.2966207759699625 0.2740926157697121 0.2352941176470589 0.2352941176470589 0.22152690863579472 0.20901126408010007 0.20775969962453067 0.2065081351689612 0.2065081351689612 0.20525657071339176 0.20525657071339176 0.20525657071339176 0.20525657071339176 0.20400500625782225 0.20400500625782225 0.18272841051314148 0.18272841051314148 0.18272841051314148 0.18272841051314148 0.18272841051314148 0.18272841051314148 0.18272841051314148 0.18272841051314148,599.0 619.0 639.0 659.0 679.0 699.0 719.0 739.0 759.0 779.0 799.0 819.0 839.0 859.0 879.0 899.0 919.0 939.0 959.0 979.0 999.0 1019.0 1039.0 1059.0 1079.0 1099.0 1119.0 1139.0 1159.0 1179.0 1199.0 1219.0 1239.0 1259.0 1279.0 1299.0 1319.0 1339.0 1359.0 1379.0 1399.0 1419.0 1439.0 1459.0 1479.0 1499.0 1519.0 1539.0 1559.0 1579.0 1599.0 1619.0 1639.0 1659.0 1679.0 1699.0 1719.0 1739.0
cb_03,27.0,enc_trial,stim,response,Iceland trip,1444.6999999999537,enc_trial,1.0,27.0,t_s_10_2,travel_shared,fold-c,luggage lock,3.0,competing,far,paired,t_s_10_2.jpg,,travel-b1,Iceland trip,Miami trip,sub-72,0.0,0.0,1.0,1.0,0.4300688360450563 0.3906445556946183 0.34464956195244056 0.2704943679599499 0.2320087609511889 0.2151126408010013 0.21323529411764705 0.21323529411764705 0.21229662077596995 0.21229662077596995 0.21135794743429284 0.21041927409261574 0.21041927409261574 0.2000938673341677 0.18132040050062576 0.1418961201501877 0.13720275344180222 0.13626408010012514 0.13532540675844806 0.13532540675844806 0.13532540675844806 0.13532540675844806 0.13532540675844806 0.13532540675844806 0.13532540675844806 0.13532540675844806,0.6207759699624531 0.5331664580725908 0.4643304130162703 0.3667083854818524 0.3229036295369212 0.30913642052565704 0.31163954943679595 0.31163954943679595 0.31163954943679595 0.31289111389236546 0.31414267834793497 0.31414267834793497 0.31414267834793497 0.3016270337922403 0.2640801001251565 0.1614518147684606 0.14518147684605753 0.14142678347934926 0.14142678347934926 0.14142678347934926 0.14142678347934926 0.14142678347934926 0.14142678347934926 0.14142678347934926 0.14142678347934926 0.14142678347934926,733.2000000000116 753.2000000000116 773.2000000000116 793.2000000000116 813.2000000000116 833.2000000000116 853.2000000000116 873.2000000000116 893.2000000000116 913.2000000000116 933.2000000000116 953.2000000000116 973.2000000000116 993.2000000000116 1013.2000000000116 1033.2000000000116 1053.2000000000116 1073.2000000000116 1093.2000000000116 1113.2000000000116 1133.2000000000114 1153.2000000000114 1173.2000000000114 1193.2000000000114 1213.2000000000114 1233.2000000000114
cb_03,28.0,enc_trial,stim,response,Iceland trip,1409.5,enc_trial,1.0,28.0,t_i_02_1,travel_Iceland,fold-e,scarf,3.0,unique,close,paired,t_i_02_1.jpg,Iceland,travel-b1,Iceland trip,Miami trip,sub-72,1.0,1.0,1.0,1.0,0.5793178973717147 0.5990300375469336 0.6459637046307884 0.6872653316645807 0.7266896120150188 0.7510951188986233 0.7557884856070087 0.7576658322903629 0.748279098873592 0.6863266583229036 0.5586670838548186 0.4300688360450563 0.3831351689612015 0.2526595744680851 0.2000938673341677 0.1672403003754693 0.1634856070087609 0.16254693366708384 0.16160826032540673 0.16066958698372966 0.16066958698372966 0.16066958698372966 0.16066958698372966 0.16066958698372966 0.16066958698372966 0.16160826032540673 0.16160826032540673,0.7108886107634543 0.6695869837296621 0.5657071339173967 0.4618272841051314 0.3466833541927409 0.28035043804755944 0.25406758448060074 0.22152690863579472 0.1964956195244056 0.12265331664580725 0.06883604505632035 0.06508135168961204 0.07133917396745937 0.07509386733416767 0.08260325406758451 0.09637046307884856 0.10137672090112636 0.10387984981226528 0.1051314142678348 0.1076345431789737 0.1088861076345432 0.1088861076345432 0.1088861076345432 0.1088861076345432 0.1101376720901126 0.11639549436795993 0.11764705882352945,683.2999999999884 703.2999999999884 723.2999999999884 743.2999999999884 763.2999999999884 783.2999999999884 803.2999999999884 823.2999999999884 843.2999999999884 863.2999999999884 883.2999999999884 903.2999999999884 923.2999999999884 943.2999999999884 963.2999999999884 983.2999999999884 1003.2999999999884 1023.2999999999884 1043.2999999999884 1063.2999999999884 1083.2999999999884 1103.2999999999884 1123.2999999999884 1143.2999999999886 1163.2999999999886 1183.2999999999886 1203.2999999999886
cb_03,29.0,enc_trial,stim,response,Iceland trip,1894.7000000000119,enc_trial,1.0,29.0,t_i_17_2,travel_Iceland,fold-e,binoculars,3.0,unique,close,paired,t_i_17_2.jpg,Iceland,travel-b1,Iceland trip,Miami trip,sub-72,1.0,1.0,1.0,1.0,0.5126720901126408 0.485450563204005 0.4253754693366708 0.3108573216520651 0.2470275344180225 0.17944305381727158 0.14846683354192738 0.14846683354192738 0.14752816020025028 0.144712140175219 0.1428347934918648 0.1418961201501877 0.1418961201501877 0.1409574468085106 0.1409574468085106 0.1409574468085106 0.13814142678347932 0.13626408010012514 0.13532540675844806 0.13438673341677093 0.13344806007509386 0.13344806007509386,0.8010012515644556 0.5732165206508135 0.4155193992490613 0.2102628285356696 0.13141426783479349 0.06508135168961204 0.0538172715894869 0.0538172715894869 0.05632040050062581 0.06132665832290363 0.06883604505632035 0.07259073842302878 0.07384230287859828 0.07384230287859828 0.07384230287859828 0.07384230287859828 0.07759699624530657 0.08260325406758451 0.08635794743429281 0.09011264080100123 0.09136420525657074 0.09261576971214014,664.7000000000116 684.7000000000116 704.7000000000116 724.7000000000116 744.7000000000116 764.7000000000116 784.7000000000116 804.7000000000116 824.7000000000116 844.7000000000116 864.7000000000116 884.7000000000116 904.7000000000116 924.7000000000116 944.7000000000116 964.7000000000116 984.7000000000116 1004.7000000000116 1024.7000000000116 1044.7000000000116 1064.7000000000116 1084.7000000000116
cb_03,30.0,enc_trial,stim,response,Iceland trip,1658.0000000001166,enc_trial,1.0,30.0,t_s_22_1,travel_shared,fold-a-single,belt,3.0,competing,,single,t_s_22_1.jpg,,travel-b1,Iceland trip,Miami trip,sub-72,1.0,,1.0,,0.4976533166458073 0.4976533166458073 0.4976533166458073 0.4976533166458073 0.4976533166458073 0.4976533166458073 0.4976533166458073 0.4976533166458073 0.4976533166458073 0.4976533166458073 0.4976533166458073 0.4976533166458073 0.4976533166458073 0.4976533166458073 0.4976533166458073 0.4976533166458073 0.4976533166458073 0.4976533166458073 0.4432102628285357 0.33901752190237794 0.27143304130162704 0.18882978723404253 0.16630162703379225 0.15973091364205255 0.15597622027534416 0.15409887359198995 0.15128285356695867 0.15128285356695867 0.15128285356695867 0.15128285356695867 0.15128285356695867 0.15128285356695867 0.15128285356695867 0.15316020025031288 0.15503754693366706 0.144712140175219 0.13720275344180222 0.13626408010012514 0.13626408010012514,0.8598247809762203 0.8598247809762203 0.8585732165206508 0.8585732165206508 0.8573216520650814 0.8573216520650814 0.8573216520650814 0.8573216520650814 0.8573216520650814 0.8573216520650814 0.8573216520650814 0.8573216520650814 0.8573216520650814 0.8573216520650814 0.8573216520650814 0.8573216520650814 0.8573216520650814 0.8573216520650814 0.7797246558197747 0.6282853566958698 0.5406758448060075 0.4080100125156445 0.3604505632040049 0.33792240300375465 0.3229036295369212 0.3153942428035044 0.3016270337922403 0.2966207759699625 0.295369211514393 0.2941176470588235 0.2941176470588235 0.2928660826032541 0.2916145181476846 0.2891113892365457 0.2653316645807259 0.15018773466833546 0.10262828535669588 0.10137672090112636 0.10012515644555696,666.6000000000347 686.6000000000347 706.6000000000348 726.6000000000348 746.6000000000348 766.6000000000348 786.6000000000348 806.6000000000348 826.6000000000348 846.6000000000348 866.6000000000348 886.6000000000348 906.6000000000348 926.6000000000348 946.6000000000348 966.6000000000348 986.6000000000348 1006.6000000000348 1026.6000000000347 1046.6000000000347 1066.6000000000347 1086.6000000000347 1106.6000000000347 1126.6000000000347 1146.6000000000347 1166.6000000000347 1186.6000000000347 1206.6000000000347 1226.6000000000347 1246.6000000000347 1266.6000000000347 1286.6000000000347 1306.6000000000347 1326.6000000000347 1346.6000000000347 1366.6000000000347 1386.6000000000347 1406.6000000000347 1426.6000000000347
cb_03,31.0,enc_trial,stim,response,Miami trip,1708.8000000000463,enc_trial,1.0,31.0,t_s_12_1,travel_shared,fold-b,clear toiletry bag,3.0,competing,close,paired,t_s_12_1.jpg,,travel-b1,Iceland trip,Miami trip,sub-72,0.0,0.0,1.0,1.0,0.3925219023779725 0.3305694618272841 0.2676783479349186 0.23857947434292864 0.2047872340425532 0.18695244055068835 0.18695244055068835 0.18695244055068835 0.18695244055068835 0.18695244055068835 0.28175844806007505 0.3887672090112641 0.4131727158948686 0.42819148936170215 0.43100750938673343 0.4319461827284105 0.4319461827284105 0.4300688360450563 0.4225594493116395 0.3315081351689612 0.21229662077596995 0.20197121401752188 0.1963391739674593 0.1954005006257822 0.1944618272841051 0.193523153942428 0.193523153942428 0.19164580725907385 0.18695244055068835 0.18319774718398 0.17944305381727158 0.17850438047559447 0.18038172715894865 0.3577909887359199 0.5192428035043805 0.7557884856070087 0.8224342928660826 0.8796933667083855 0.8918961201501877 0.9003441802252816 0.903160200250313 0.903160200250313 0.903160200250313 0.903160200250313 0.903160200250313 0.903160200250313 0.90409887359199 0.90409887359199 0.90409887359199 0.8994055068836045 0.8872027534418023 0.8872027534418023,0.5957446808510638 0.4580725907384229 0.28535669586983725 0.1902377972465582 0.07509386733416767 0.02252816020025028 0.02252816020025028 0.02252816020025028 0.02252816020025028 0.02252816020025028 0.06633291614518144 0.14768460575719644 0.15644555694618267 0.15769712140175218 0.15644555694618267 0.15519399249061328 0.15519399249061328 0.15644555694618267 0.1602002503128911 0.17271589486858574 0.195244055068836 0.20400500625782225 0.2102628285356696 0.21276595744680848 0.21276595744680848 0.21401752190237802 0.21401752190237802 0.21276595744680848 0.2102628285356696 0.2065081351689612 0.20150187734668326 0.20025031289111395 0.19774718397997493 0.2490613266583229 0.2866082603254068 0.2453066332916145 0.22653316645807264 0.20525657071339176 0.19774718397997493 0.1914893617021277 0.1877346683354193 0.1877346683354193 0.1877346683354193 0.1864831038798498 0.1852315394242804 0.1852315394242804 0.18272841051314148 0.181476846057572 0.17521902377972465 0.16270337922403 0.14142678347934926 0.14017521902377972,449.0 469.0 489.0 509.0 529.0 549.0 569.0 589.0 609.0 629.0 649.0 669.0 689.0 709.0 729.0 749.0 769.0 789.0 809.0 829.0 849.0 869.0 889.0 909.0 929.0 949.0 969.0 989.0 1009.0 1029.0 1049.0 1069.0 1089.0 1109.0 1129.0 1149.0 1169.0 1189.0 1209.0 1229.0 1249.0 1269.0 1289.0 1309.0 1329.0 1349.0 1369.0 1389.0 1409.0 1429.0 1449.0 1469.0
cb_03,32.0,enc_trial,stim,response,Miami trip,2054.79999999993,enc_trial,1.0,32.0,t_m_17_2,travel_Miami,fold-a,water gun,3.0,unique,far,paired,t_m_17_2.jpg,Miami,travel-b1,Iceland trip,Miami trip,sub-72,1.0,1.0,1.0,1.0,0.4676157697121402 0.4319461827284105 0.397215269086358 0.3943992490613267 0.4000312891113893 0.4666770963704631 0.5126720901126408 0.5915206508135169 0.6431476846057572 0.6919586983729662 0.7557884856070087 0.7801939924906133 0.7886420525657072 0.7970901126408009 0.8036608260325407 0.8299436795994994 0.8393304130162703 0.8412077596996246 0.8412077596996246 0.8412077596996246 0.8402690863579475 0.8393304130162703 0.8393304130162703 0.8393304130162703 0.8393304130162703,0.7822277847309136 0.6846057571964956 0.5819774718397998 0.5531914893617021 0.4705882352941176 0.3829787234042553 0.3491864831038799 0.30538172715894873 0.2753441802252816 0.25406758448060074 0.2240300375469336 0.2102628285356696 0.20150187734668326 0.1927409261576971 0.1864831038798498 0.15769712140175218 0.1389236545682102 0.1339173967459324 0.13016270337922398 0.12891113892365458 0.12765957446808507 0.12765957446808507 0.12640801001251567 0.12640801001251567 0.12640801001251567,599.8999999999653 619.8999999999653 639.8999999999653 659.8999999999653 679.8999999999653 699.8999999999652 719.8999999999652 739.8999999999652 759.8999999999652 779.8999999999652 799.8999999999652 819.8999999999652 839.8999999999652 859.8999999999652 879.8999999999652 899.8999999999652 919.8999999999652 939.8999999999652 959.8999999999652 979.8999999999652 999.8999999999652 1019.8999999999652 1039.8999999999653 1059.8999999999653 1079.8999999999653
cb_03,33.0,enc_trial,stim,response,Iceland trip,1606.0000000000582,enc_trial,1.0,33.0,t_i_02_2,travel_Iceland,fold-e,scarf,3.0,unique,close,paired,t_i_02_2.jpg,Iceland,travel-b1,Iceland trip,Miami trip,sub-72,1.0,1.0,1.0,1.0,0.4582290362953692 0.3775031289111389 0.31179599499374216 0.2207446808510638 0.15785356695869834 0.08275969962453063 0.07900500625782225 0.07712765957446806 0.07712765957446806 0.07712765957446806 0.07900500625782225 0.07994367959949934 0.07900500625782225 0.07806633291614515 0.07712765957446806 0.07525031289111386 0.07431163954943677 0.07525031289111386 0.07712765957446806 0.08088235294117645 0.08275969962453063,0.7021276595744681 0.5131414267834793 0.3942428035043805 0.2528160200250313 0.17897371714643304 0.12891113892365458 0.13016270337922398 0.13141426783479349 0.13266583229036302 0.1351689612015019 0.14267834793491865 0.14643304130162704 0.14768460575719644 0.14768460575719644 0.14768460575719644 0.14768460575719644 0.14768460575719644 0.14893617021276595 0.15143929912390486 0.15269086357947434 0.15269086357947434,1015.4000000000232 1035.4000000000233 1055.4000000000233 1075.4000000000237 1095.4000000000237 1115.4000000000237 1135.4000000000235 1155.400000000024 1175.4000000000242 1195.4000000000242 1215.4000000000242 1235.4000000000246 1255.4000000000246 1275.4000000000246 1295.4000000000246 1315.4000000000246 1335.400000000025 1355.400000000025 1375.400000000025 1395.4000000000253 1415.4000000000256
cb_03,34.0,enc_trial,stim,response,Miami trip,1265.399999999965,enc_trial,1.0,34.0,t_s_12_2,travel_shared,fold-b,clear toiletry bag,3.0,competing,close,paired,t_s_12_2.jpg,,travel-b1,Iceland trip,Miami trip,sub-72,0.0,0.0,1.0,1.0,0.505162703379224 0.5211201501877347 0.5380162703379224 0.5596057571964956 0.611232790988736 0.611232790988736 0.6581664580725908 0.6994680851063829 0.7173028785982478 0.7323216520650814 0.7360763454317898 0.7360763454317898 0.7370150187734669 0.7379536921151439 0.7379536921151439 0.7426470588235294 0.7651752190237797 0.7914580725907384 0.8177409261576971 0.8308823529411765 0.8374530663329162 0.8402690863579475 0.8421464330413017 0.8440237797246558 0.8449624530663329 0.8449624530663329 0.8449624530663329,0.7471839799749687 0.6220275344180226 0.5431789737171464 0.4793491864831039 0.39549436795995 0.39549436795995 0.3491864831038799 0.2941176470588235 0.2678347934918648 0.2415519399249061 0.22778473091364204 0.2252816020025032 0.22277847309136425 0.2177722152690864 0.2152690863579474 0.2115143929912391 0.21401752190237802 0.2152690863579474 0.20901126408010007 0.20525657071339176 0.20150187734668326 0.19899874843554444 0.19774718397997493 0.1964956195244056 0.195244055068836 0.1927409261576971 0.1927409261576971,516.5 536.5 556.5 576.5 596.5 616.5 636.5 656.5 676.5 696.5 716.5 736.5 756.5 776.5 796.5 816.5 836.5 856.5 876.5 896.5 916.5 936.5 956.5 976.5 996.5 1016.5 1036.5
cb_03,35.0,enc_trial,stim,response,Iceland trip,1369.9000000000233,enc_trial,1.0,35.0,t_i_13_2,travel_Iceland,fold-a,sleeping bag,3.0,unique,far,paired,t_i_13_2.jpg,Iceland,travel-b1,Iceland trip,Miami trip,sub-72,1.0,1.0,1.0,1.0,0.4788798498122653 0.4375782227784731 0.4150500625782227 0.39533792240300375 0.3746871088861076 0.3634230287859825 0.3615456821026283 0.3577909887359199 0.3540362953692115 0.34558823529411764 0.29583854818523153 0.2742490613266583 0.2535982478097622 0.2479662077596996 0.2451501877346683 0.2432728410513141 0.2395181476846057 0.21135794743429284 0.18507509386733406 0.18319774718398 0.1766270337922403 0.17005632040050062 0.16630162703379225 0.16160826032540673 0.15879224030037545 0.15503754693366706 0.15409887359198995 0.15316020025031288 0.15316020025031288 0.15316020025031288,0.6770963704630788 0.4780976220275344 0.3804755944931164 0.3153942428035044 0.2578222778473092 0.2428035043804756 0.2428035043804756 0.2453066332916145 0.246558197747184 0.2503128911138923 0.2478097622027534 0.2428035043804756 0.2352941176470589 0.2340425531914893 0.2340425531914893 0.2340425531914893 0.2302878598247809 0.1927409261576971 0.15519399249061328 0.15269086357947434 0.14768460575719644 0.14518147684605753 0.14518147684605753 0.14518147684605753 0.14643304130162704 0.14768460575719644 0.14768460575719644 0.14768460575719644 0.14768460575719644 0.14768460575719644,599.1999999999534 619.1999999999534 639.1999999999534 659.1999999999534 679.1999999999534 699.1999999999533 719.1999999999533 739.1999999999533 759.1999999999533 779.1999999999533 799.1999999999533 819.1999999999533 839.1999999999533 859.1999999999533 879.1999999999533 899.1999999999533 919.1999999999533 939.1999999999533 959.1999999999533 979.1999999999533 999.1999999999533 1019.1999999999533 1039.1999999999532 1059.1999999999532 1079.1999999999532 1099.1999999999532 1119.1999999999532 1139.1999999999534 1159.1999999999534 1179.1999999999534
cb_03,36.0,enc_trial,stim,response,Miami trip,1410.7999999999302,enc_trial,1.0,36.0,t_s_21_1,travel_shared,fold-b,umbrella,3.0,competing,close,paired,t_s_21_1.jpg,,travel-b1,Iceland trip,Miami trip,sub-72,0.0,0.0,1.0,1.0,0.5408322903629537 0.5699311639549437 0.5999687108886108 0.6356382978723404 0.6469023779724656 0.6487797246558198 0.6300062578222778 0.6196808510638298 0.6168648310387985 0.6159261576971214 0.6159261576971214 0.6178035043804756 0.7379536921151439 0.8487171464330413 0.8693679599499374 0.9191176470588236 0.9219336670838548 0.922872340425532 0.922872340425532 0.922872340425532 0.922872340425532 0.9219336670838548 0.9209949937421776 0.9191176470588236 0.9172403003754692 0.90409887359199 0.884386733416771 0.8712453066332917 0.8618585732165207 0.8599812265331664,0.7083854818523154 0.5431789737171464 0.4292866082603254 0.30788485607008764 0.25657071339173965 0.14142678347934926 0.0838548185231539 0.06508135168961204 0.06132665832290363 0.060075093867334124 0.060075093867334124 0.060075093867334124 0.1051314142678348 0.12891113892365458 0.12140175219023774 0.09511889862327903 0.09386733416770963 0.09261576971214014 0.09136420525657074 0.09136420525657074 0.09011264080100123 0.09136420525657074 0.09261576971214014 0.09511889862327903 0.09637046307884856 0.1088861076345432 0.12640801001251567 0.1389236545682102 0.14893617021276595 0.15143929912390486,565.8999999999653 585.8999999999653 605.8999999999653 625.8999999999653 645.8999999999653 665.8999999999653 685.8999999999653 705.8999999999652 725.8999999999652 745.8999999999652 765.8999999999652 785.8999999999652 805.8999999999652 825.8999999999652 845.8999999999652 865.8999999999652 885.8999999999652 905.8999999999652 925.8999999999652 945.8999999999652 965.8999999999652 985.8999999999652 1005.8999999999652 1025.8999999999653 1045.8999999999653 1065.8999999999653 1085.8999999999653 1105.8999999999653 1125.8999999999653 1145.8999999999653
cb_03,37.0,enc_trial,stim,response,Miami trip,1914.6999999999528,enc_trial,1.0,37.0,t_s_08_1,travel_shared,fold-a-single,hand lotion,3.0,competing,,single,t_s_08_1.jpg,,travel-b1,Iceland trip,Miami trip,sub-72,1.0,,1.0,,0.4835732165206508 0.4816958698372966 0.4807571964956195 0.4807571964956195 0.4807571964956195 0.4807571964956195 0.4807571964956195 0.4807571964956195 0.4741864831038798 0.43851689612015016 0.33620150187734665 0.2920838548185231 0.26673967459324155 0.2489048811013767 0.2254380475594493 0.18789111389236546 0.18132040050062576 0.17850438047559447 0.17756570713391734 0.1756883604505632 0.17381101376720898 0.17381101376720898 0.17381101376720898 0.17944305381727158 0.2000938673341677 0.2676783479349186 0.2751877346683354 0.27894242803504377 0.3033479349186483 0.397215269086358 0.5314455569461828 0.670369211514393 0.7248122653316647 0.7595431789737171 0.7933354192740927 0.7989674593241552 0.7999061326658323 0.7999061326658323 0.7999061326658323 0.8008448060075094 0.8045994993742178 0.8064768460575721 0.8139862327909888 0.8346370463078849 0.8412077596996246 0.8449624530663329 0.8449624530663329 0.8449624530663329 0.8449624530663329 0.8459011264080101 0.8468397997496871,0.8047559449311641 0.8010012515644556 0.7997496871088859 0.7997496871088859 0.7997496871088859 0.7997496871088859 0.7997496871088859 0.7997496871088859 0.7872340425531915 0.7183979974968709 0.5331664580725908 0.4693366708385481 0.4317897371714643 0.4017521902377973 0.3667083854818524 0.30913642052565704 0.3016270337922403 0.2966207759699625 0.2941176470588235 0.2903629536921152 0.28410513141426785 0.2816020025031289 0.2778473091364205 0.2665832290362954 0.2365456821026283 0.05632040050062581 0.041301627033792254 0.03754693366708384 0.03254067584480602 0.03504380475594493 0.06883604505632035 0.10137672090112636 0.11138923654568213 0.11138923654568213 0.1063829787234043 0.10262828535669588 0.10262828535669588 0.10262828535669588 0.10137672090112636 0.10012515644555696 0.09637046307884856 0.09637046307884856 0.09637046307884856 0.10387984981226528 0.1076345431789737 0.1076345431789737 0.1076345431789737 0.1076345431789737 0.1088861076345432 0.1101376720901126 0.11264080100125153,681.2999999999884 701.2999999999884 721.2999999999884 741.2999999999884 761.2999999999884 781.2999999999884 801.2999999999884 821.2999999999884 841.2999999999884 861.2999999999884 881.2999999999884 901.2999999999884 921.2999999999884 941.2999999999884 961.2999999999884 981.2999999999884 1001.2999999999884 1021.2999999999884 1041.2999999999884 1061.2999999999884 1081.2999999999884 1101.2999999999884 1121.2999999999884 1141.2999999999886 1161.2999999999886 1181.2999999999886 1201.2999999999886 1221.2999999999886 1241.2999999999886 1261.2999999999886 1281.2999999999886 1301.2999999999886 1321.2999999999886 1341.2999999999886 1361.2999999999886 1381.2999999999884 1401.2999999999884 1421.2999999999884 1441.2999999999884 1461.2999999999884 1481.2999999999884 1501.2999999999884 1521.2999999999884 1541.2999999999884 1561.2999999999884 1581.2999999999884 1601.2999999999884 1621.2999999999884 1641.2999999999884 1661.2999999999884 1681.2999999999884
cb_03,38.0,enc_trial,stim,response,Miami trip,1602.7000000000698,enc_trial,1.0,38.0,t_m_16_1,travel_Miami,fold-b-single,flippers,3.0,unique,,single,t_m_16_1.jpg,Miami,travel-b1,Iceland trip,Miami trip,sub-72,1.0,,1.0,,0.4863892365456821 0.4535356695869837 0.37374843554443055 0.26298498122653313 0.21135794743429284 0.144712140175219 0.1437734668335419 0.1428347934918648 0.1428347934918648 0.1428347934918648 0.2742490613266583 0.4141113892365457 0.4920212765957447 0.5680538172715895 0.6619211514392991 0.7970901126408009 0.8421464330413017 0.8881414267834794 0.9012828535669588 0.9087922403003756 0.9209949937421776 0.9238110137672092 0.9256883604505632 0.9266270337922404 0.9275657071339174 0.9275657071339174 0.9285043804755944 0.9285043804755944 0.9256883604505632 0.9012828535669588 0.8796933667083855 0.8778160200250313 0.8778160200250313 0.8778160200250313 0.8787546933667084 0.8787546933667084,0.7622027534418022 0.6896120150187734 0.5356695869837297 0.3504380475594493 0.2490613266583229 0.11514392991239053 0.1101376720901126 0.1101376720901126 0.1101376720901126 0.1101376720901126 0.2065081351689612 0.2190237797246558 0.2115143929912391 0.19774718397997493 0.14768460575719644 0.06758448060075095 0.0550688360450563 0.0550688360450563 0.052565707133917394 0.052565707133917394 0.051314142678347885 0.05006257822277849 0.05006257822277849 0.05006257822277849 0.05006257822277849 0.05006257822277849 0.05006257822277849 0.051314142678347885 0.05632040050062581 0.07259073842302878 0.0838548185231539 0.10262828535669588 0.11138923654568213 0.11514392991239053 0.11764705882352945 0.11889862327909885,665.4000000000233 685.4000000000233 705.4000000000232 725.4000000000232 745.4000000000232 765.4000000000232 785.4000000000232 805.4000000000232 825.4000000000232 845.4000000000232 865.4000000000232 885.4000000000232 905.4000000000232 925.4000000000232 945.4000000000232 965.4000000000232 985.4000000000232 1005.4000000000232 1025.4000000000233 1045.4000000000233 1065.4000000000233 1085.4000000000233 1105.4000000000233 1125.4000000000233 1145.4000000000233 1165.4000000000233 1185.4000000000233 1205.4000000000233 1225.4000000000233 1245.4000000000233 1265.4000000000233 1285.4000000000233 1305.4000000000233 1325.4000000000233 1345.4000000000233 1365.4000000000233
