Current Spreadsheet,Trial Number,Display,Screen,Response Type,Response,Reaction Time,display,block,block_trial,stimulus_id,expected_goal,fold,stimulus_name,c_group,condition,within_block_dist,paired_status,stimulus_path,expected_location,block_split,respStim_1,respStim_2,sub_label,acc,both_enc_acc,assoc_stim1_acc,assoc_stim2_acc,x_pos,y_pos,time_trajectories
cb_07,1.0,enc_trial,stim,response,Miami trip,1596.5,enc_trial,1.0,1.0,t_s_02_1,travel_shared,fold-b,water bottle,7.0,competing,far,paired,t_s_02_1.jpg,,travel-b1,Iceland trip,Miami trip,sub-05,0.0,0.0,0.0,1.0,0.53125 0.5388888888888889 0.5520833333333334 0.5694444444444444 0.5916666666666667 0.6270833333333333 0.6395833333333333 0.6465277777777778 0.6506944444444445 0.6513888888888889 0.6527777777777778 0.6534722222222222 0.6534722222222222 0.6534722222222222 0.6534722222222222 0.6534722222222222 0.6534722222222222 0.6534722222222222 0.6534722222222222 0.6534722222222222 0.6527777777777778 0.6520833333333333 0.6520833333333333 0.6520833333333333 0.6520833333333333 0.65 0.6486111111111111 0.6465277777777778 0.64375 0.6409722222222223 0.6354166666666666 0.6326388888888889 0.6263888888888889 0.6138888888888889 0.5923611111111111 0.4902777777777778 0.4201388888888889 0.3194444444444444 0.22847222222222224 0.16805555555555554 0.125 0.14097222222222222 0.18125 0.23472222222222225 0.3034722222222222 0.4881944444444444 0.55 0.6458333333333334 0.7138888888888889 0.75625 0.7930555555555555 0.7958333333333333 0.7958333333333333 0.7958333333333333 0.7958333333333333 0.7958333333333333 0.7958333333333333 0.7958333333333333 0.7958333333333333 0.7958333333333333 0.7958333333333333 0.7958333333333333 0.7958333333333333 0.7958333333333333 0.7958333333333333 0.7944444444444444 0.7819444444444444 0.7409722222222223 0.6770833333333334 0.6236111111111111 0.5902777777777778 0.5909722222222222 0.6006944444444444 0.6375 0.7 0.7881944444444444 0.8173611111111111 0.8402777777777778 0.8465277777777778,0.8425925925925926 0.8351851851851853 0.8231481481481482 0.8074074074074074 0.787962962962963 0.7527777777777778 0.7388888888888889 0.7324074074074074 0.7287037037037036 0.7259259259259259 0.7222222222222222 0.7203703703703703 0.7194444444444444 0.7185185185185186 0.7175925925925926 0.7175925925925926 0.7175925925925926 0.7175925925925926 0.7175925925925926 0.7166666666666667 0.7166666666666667 0.7166666666666667 0.7166666666666667 0.7166666666666667 0.7166666666666667 0.7166666666666667 0.7157407407407408 0.7157407407407408 0.7157407407407408 0.7157407407407408 0.7157407407407408 0.7157407407407408 0.7157407407407408 0.712037037037037 0.7027777777777777 0.6481481481481481 0.6064814814814814 0.5361111111111111 0.4564814814814815 0.3833333333333333 0.2629629629629629 0.2083333333333333 0.1592592592592592 0.12592592592592589 0.10370370370370374 0.08981481481481479 0.0907407407407408 0.0981481481481481 0.10648148148148152 0.11388888888888893 0.12777777777777774 0.12962962962962965 0.12962962962962965 0.12962962962962965 0.12962962962962965 0.12962962962962965 0.12962962962962965 0.12962962962962965 0.12962962962962965 0.12962962962962965 0.12962962962962965 0.12962962962962965 0.12962962962962965 0.12962962962962965 0.12962962962962965 0.13055555555555556 0.1351851851851852 0.14537037037037034 0.14907407407407405 0.14537037037037034 0.1425925925925926 0.1425925925925926 0.1425925925925926 0.1425925925925926 0.13981481481481484 0.13703703703703707 0.1342592592592593 0.13240740740740742 0.13240740740740742,0.0 20.0 40.0 60.0 80.0 100.0 120.0 140.0 160.0 180.0 200.0 220.0 240.0 260.0 280.0 300.0 320.0 340.0 360.0 380.0 400.0 420.0 440.0 460.0 480.0 500.0 520.0 540.0 560.0 580.0 600.0 620.0 640.0 660.0 680.0 700.0 720.0 740.0 760.0 780.0 800.0 820.0 840.0 860.0 880.0 900.0 920.0 940.0 960.0 980.0 1000.0 1020.0 1040.0 1060.0 1080.0 1100.0 1120.0 1140.0 1160.0 1180.0 1200.0 1220.0 1240.0 1260.0 1280.0 1300.0 1320.0 1340.0 1360.0 1380.0 1400.0 1420.0 1440.0 1460.0 1480.0 1500.0 1520.0 1540.0 1560.0
cb_07,2.0,enc_trial,stim,response,Iceland trip,1819.200000023848,enc_trial,1.0,2.0,t_s_18_1,travel_shared,fold-a,first aid kit,7.0,competing,close,paired,t_s_18_1.jpg,,travel-b1,Iceland trip,Miami trip,sub-05,0.0,0.0,1.0,1.0,0.5284722222222222 0.5284722222222222 0.5284722222222222 0.53125 0.5368055555555555 0.5631944444444444 0.5854166666666667 0.6111111111111112 0.6354166666666666 0.6541666666666667 0.675 0.6784722222222223 0.6798611111111111 0.6805555555555556 0.68125 0.68125 0.68125 0.68125 0.68125 0.68125 0.6805555555555556 0.6791666666666667 0.6777777777777778 0.6756944444444445 0.6743055555555556 0.6715277777777777 0.6659722222222222 0.6583333333333333 0.65 0.6486111111111111 0.65 0.65 0.65 0.65 0.65 0.65 0.65 0.6458333333333334 0.6111111111111112 0.5756944444444444 0.4944444444444445 0.4263888888888889 0.35 0.28958333333333336 0.2361111111111111 0.1736111111111111 0.16319444444444445 0.1597222222222222 0.1597222222222222 0.16041666666666668 0.16111111111111112 0.16111111111111112 0.16041666666666668 0.1597222222222222 0.1597222222222222 0.18333333333333326 0.2375 0.32083333333333336 0.4388888888888889 0.5729166666666666 0.7777777777777778 0.8465277777777778 0.8840277777777777 0.9 0.9041666666666668 0.9041666666666668 0.9027777777777778 0.8993055555555556 0.8923611111111112 0.8756944444444444 0.8118055555555556 0.7305555555555555 0.6361111111111111 0.5138888888888888 0.4152777777777778 0.3076388888888889 0.2722222222222222 0.2465277777777778 0.2361111111111111 0.23472222222222225 0.2333333333333333 0.22847222222222224 0.22291666666666668 0.21736111111111112 0.21180555555555555 0.19375 0.18472222222222226 0.18055555555555555 0.17777777777777778 0.17569444444444446 0.17430555555555555,0.8203703703703704 0.8194444444444444 0.8157407407407408 0.8074074074074074 0.8 0.775 0.7592592592592593 0.7425925925925926 0.7287037037037036 0.7175925925925926 0.7037037037037037 0.6990740740740741 0.6962962962962963 0.6944444444444444 0.6925925925925926 0.6861111111111111 0.6833333333333333 0.6787037037037037 0.674074074074074 0.6703703703703704 0.6648148148148147 0.6638888888888889 0.662962962962963 0.662962962962963 0.662037037037037 0.6611111111111111 0.6592592592592592 0.6555555555555556 0.6537037037037037 0.6537037037037037 0.6555555555555556 0.6555555555555556 0.6555555555555556 0.6555555555555556 0.6555555555555556 0.6555555555555556 0.6555555555555556 0.6611111111111111 0.6861111111111111 0.6990740740740741 0.7027777777777777 0.6879629629629629 0.6564814814814814 0.6111111111111112 0.5425925925925925 0.3824074074074074 0.325 0.2861111111111111 0.2611111111111111 0.2425925925925925 0.2157407407407408 0.2083333333333333 0.2046296296296296 0.20277777777777767 0.20092592592592595 0.1898148148148148 0.18240740740740746 0.1777777777777778 0.17129629629629628 0.1620370370370371 0.1518518518518519 0.14907407407407405 0.14814814814814814 0.14722222222222225 0.14722222222222225 0.14722222222222225 0.14722222222222225 0.14722222222222225 0.14722222222222225 0.14907407407407405 0.1611111111111111 0.1805555555555556 0.1972222222222222 0.20277777777777767 0.20092592592592595 0.19166666666666665 0.19259259259259254 0.19351851851851853 0.19351851851851853 0.19351851851851853 0.19351851851851853 0.19351851851851853 0.19351851851851853 0.19351851851851853 0.19351851851851853 0.1907407407407408 0.18796296296296305 0.18611111111111112 0.18518518518518529 0.18518518518518529 0.18425925925925926,16.80000000000291 36.8000000000029 56.80000000000291 76.80000000000291 96.80000000000292 116.80000000000292 136.8000000000029 156.8000000000029 176.8000000000029 196.8000000000029 216.8000000000029 236.8000000000029 256.8000000000029 276.8000000000029 296.80000000000285 316.80000000000285 336.80000000000285 356.8000000000029 376.8000000000029 396.8000000000029 416.8000000000029 436.8000000000029 456.8000000000029 476.8000000000029 496.8000000000029 516.8000000000029 536.8000000000029 556.8000000000029 576.8000000000029 596.8000000000029 616.8000000000029 636.8000000000029 656.8000000000029 676.8000000000029 696.8000000000029 716.8000000000029 736.8000000000029 756.8000000000029 776.8000000000029 796.8000000000029 816.8000000000029 836.8000000000029 856.8000000000029 876.8000000000029 896.8000000000029 916.8000000000028 936.8000000000028 956.8000000000028 976.8000000000028 996.8000000000028 1016.8000000000028 1036.8000000000031 1056.8000000000031 1076.8000000000031 1096.8000000000031 1116.8000000000031 1136.8000000000031 1156.8000000000031 1176.8000000000031 1196.8000000000031 1216.8000000000031 1236.8000000000031 1256.8000000000031 1276.8000000000031 1296.8000000000031 1316.8000000000031 1336.8000000000031 1356.8000000000031 1376.8000000000031 1396.8000000000031 1416.8000000000031 1436.8000000000031 1456.8000000000031 1476.8000000000031 1496.8000000000031 1516.8000000000031 1536.8000000000031 1556.8000000000031 1576.8000000000031 1596.8000000000031 1616.8000000000031 1636.8000000000031 1656.8000000000031 1676.8000000000031 1696.8000000000031 1716.8000000000031 1736.8000000000031 1756.8000000000031 1776.8000000000031 1796.8000000000031 1816.8000000000031
cb_07,3.0,enc_trial,stim,response,Miami trip,1492.8999999999942,enc_trial,1.0,3.0,t_s_06_1,travel_shared,fold-b,luggage,7.0,competing,far,paired,t_s_06_1.jpg,,travel-b1,Iceland trip,Miami trip,sub-05,1.0,1.0,0.0,0.0,0.6631944444444444 0.6701388888888888 0.6743055555555556 0.6770833333333334 0.6777777777777778 0.6784722222222223 0.6791666666666667 0.6791666666666667 0.6791666666666667 0.6791666666666667 0.6791666666666667 0.6791666666666667 0.6791666666666667 0.6791666666666667 0.6791666666666667 0.6791666666666667 0.6791666666666667 0.6791666666666667 0.6791666666666667 0.6791666666666667 0.6791666666666667 0.6791666666666667 0.6791666666666667 0.6791666666666667 0.6791666666666667 0.6791666666666667 0.6791666666666667 0.6791666666666667 0.6791666666666667 0.6791666666666667 0.6791666666666667 0.6791666666666667 0.6791666666666667 0.6791666666666667 0.6791666666666667 0.6743055555555556 0.6722222222222223 0.6708333333333333 0.6694444444444444 0.6694444444444444 0.6708333333333333 0.6729166666666667 0.6791666666666667 0.6979166666666666 0.7340277777777777 0.8104166666666667 0.8305555555555556 0.8541666666666666 0.8736111111111111 0.8833333333333333 0.8881944444444444 0.8881944444444444 0.8861111111111111 0.8819444444444444 0.8798611111111111 0.8777777777777778 0.8777777777777778 0.8777777777777778,0.7175925925925926 0.7092592592592593 0.7018518518518518 0.6962962962962963 0.6935185185185185 0.6907407407407408 0.6898148148148149 0.6888888888888889 0.6888888888888889 0.6888888888888889 0.6879629629629629 0.6879629629629629 0.6870370370370371 0.6861111111111111 0.6851851851851851 0.6842592592592592 0.6833333333333333 0.6824074074074074 0.6824074074074074 0.6824074074074074 0.6824074074074074 0.6824074074074074 0.6824074074074074 0.6824074074074074 0.6824074074074074 0.6824074074074074 0.6824074074074074 0.6824074074074074 0.6824074074074074 0.6824074074074074 0.6824074074074074 0.6824074074074074 0.6824074074074074 0.6824074074074074 0.6814814814814815 0.6796296296296296 0.6787037037037037 0.6759259259259259 0.6722222222222223 0.6657407407407407 0.6425925925925926 0.6222222222222222 0.5796296296296296 0.4888888888888889 0.3648148148148148 0.1703703703703704 0.13981481481481484 0.11944444444444445 0.10555555555555553 0.09999999999999998 0.0981481481481481 0.09907407407407408 0.10462962962962964 0.11018518518518516 0.11296296296296293 0.1166666666666667 0.1166666666666667 0.11759259259259258,0.0 20.0 40.0 60.0 80.0 100.0 120.0 140.0 160.0 180.0 200.0 220.0 240.0 260.0 280.0 300.0 320.0 340.0 360.0 380.0 400.0 420.0 440.0 460.0 480.0 500.0 520.0 540.0 560.0 580.0 600.0 620.0 640.0 660.0 680.0 700.0 720.0 740.0 760.0 780.0 800.0 820.0 840.0 860.0 880.0 900.0 920.0 940.0 960.0 980.0 1000.0 1020.0 1040.0 1060.0 1080.0 1100.0 1120.0 1140.0
cb_07,4.0,enc_trial,stim,response,Iceland trip,1327.8999999880764,enc_trial,1.0,4.0,t_i_11_2,travel_Iceland,fold-d,headlamp,7.0,unique,far,paired,t_i_11_2.jpg,Iceland,travel-b1,Iceland trip,Miami trip,sub-05,1.0,1.0,1.0,1.0,0.5180555555555556 0.5215277777777778 0.53125 0.5506944444444445 0.5756944444444444 0.6208333333333333 0.63125 0.6375 0.6395833333333333 0.6395833333333333 0.6395833333333333 0.6395833333333333 0.6416666666666667 0.6451388888888889 0.6465277777777778 0.6472222222222223 0.6472222222222223 0.6472222222222223 0.6472222222222223 0.6472222222222223 0.6472222222222223 0.6472222222222223 0.6465277777777778 0.6444444444444445 0.6423611111111112 0.6416666666666667 0.6416666666666667 0.6416666666666667 0.6416666666666667 0.6416666666666667 0.6416666666666667 0.6416666666666667 0.6416666666666667 0.6416666666666667 0.6284722222222222 0.5513888888888889 0.5173611111111112 0.4888888888888889 0.4548611111111111 0.4131944444444444 0.3215277777777778 0.2923611111111111 0.28680555555555554 0.3020833333333333 0.3388888888888889 0.41458333333333336 0.425 0.42291666666666666 0.40902777777777777 0.3784722222222222 0.26805555555555555 0.2013888888888889 0.15069444444444444 0.12222222222222222 0.1111111111111111 0.11041666666666666 0.11388888888888887 0.11805555555555555 0.11875,0.8203703703703704 0.8111111111111111 0.7916666666666666 0.7574074074074074 0.7175925925925926 0.6555555555555556 0.6407407407407407 0.6314814814814815 0.6277777777777778 0.6268518518518518 0.625925925925926 0.625925925925926 0.625 0.624074074074074 0.6212962962962962 0.6203703703703703 0.6203703703703703 0.6203703703703703 0.6203703703703703 0.6203703703703703 0.6203703703703703 0.6203703703703703 0.6166666666666667 0.6092592592592593 0.6018518518518519 0.5953703703703703 0.5953703703703703 0.5953703703703703 0.5953703703703703 0.5953703703703703 0.5953703703703703 0.5953703703703703 0.5953703703703703 0.5953703703703703 0.6037037037037036 0.6342592592592593 0.6351851851851852 0.6277777777777778 0.6027777777777779 0.5601851851851851 0.45 0.3861111111111111 0.3388888888888889 0.3055555555555556 0.28240740740740744 0.2768518518518519 0.2805555555555556 0.28240740740740744 0.28240740740740744 0.2796296296296297 0.25277777777777777 0.22685185185185186 0.20092592592592595 0.17962962962962958 0.1620370370370371 0.1425925925925926 0.13611111111111107 0.1333333333333333 0.13240740740740742,33.30000000000291 53.30000000000291 73.30000000000291 93.30000000000292 113.30000000000292 133.3000000000029 153.3000000000029 173.3000000000029 193.3000000000029 213.3000000000029 233.3000000000029 253.3000000000029 273.3000000000029 293.30000000000285 313.30000000000285 333.30000000000285 353.3000000000029 373.3000000000029 393.3000000000029 413.3000000000029 433.3000000000029 453.3000000000029 473.3000000000029 493.3000000000029 513.3000000000029 533.3000000000029 553.3000000000029 573.3000000000029 593.3000000000029 613.3000000000029 633.3000000000029 653.3000000000029 673.3000000000029 693.3000000000029 713.3000000000029 733.3000000000029 753.3000000000029 773.3000000000029 793.3000000000029 813.3000000000029 833.3000000000029 853.3000000000029 873.3000000000029 893.3000000000029 913.3000000000028 933.3000000000028 953.3000000000028 973.3000000000028 993.3000000000028 1013.3000000000028 1033.3000000000031 1053.3000000000031 1073.3000000000031 1093.3000000000031 1113.3000000000031 1133.3000000000031 1153.3000000000031 1173.3000000000031 1193.3000000000031
cb_07,5.0,enc_trial,stim,response,Iceland trip,2082.5,enc_trial,1.0,5.0,t_s_18_2,travel_shared,fold-a,first aid kit,7.0,competing,close,paired,t_s_18_2.jpg,,travel-b1,Iceland trip,Miami trip,sub-05,0.0,0.0,1.0,1.0,0.6145833333333334 0.6145833333333334 0.6145833333333334 0.6138888888888889 0.6125 0.6111111111111112 0.6111111111111112 0.6111111111111112 0.6111111111111112 0.6104166666666667 0.6097222222222223 0.6090277777777777 0.6090277777777777 0.6090277777777777 0.6083333333333333 0.6083333333333333 0.6083333333333333 0.6083333333333333 0.6083333333333333 0.6076388888888888 0.6076388888888888 0.6076388888888888 0.6076388888888888 0.6076388888888888 0.6076388888888888 0.6076388888888888 0.6076388888888888 0.6076388888888888 0.6076388888888888 0.6076388888888888 0.6 0.5951388888888889 0.5902777777777778 0.5875 0.5861111111111111 0.58125 0.5763888888888888 0.5729166666666666 0.5701388888888889 0.5680555555555555 0.5680555555555555 0.5680555555555555 0.5680555555555555 0.5680555555555555 0.5680555555555555 0.5680555555555555 0.5680555555555555 0.5680555555555555 0.5680555555555555 0.5680555555555555 0.5680555555555555 0.5680555555555555 0.5680555555555555 0.5680555555555555 0.5680555555555555 0.5680555555555555 0.5680555555555555 0.5680555555555555 0.5680555555555555 0.5680555555555555 0.5680555555555555 0.5680555555555555 0.5680555555555555 0.5680555555555555 0.5680555555555555 0.5659722222222222 0.5618055555555556 0.5548611111111111 0.5402777777777777 0.5145833333333333 0.4243055555555556 0.3701388888888889 0.33125 0.24722222222222226 0.18611111111111112 0.10625 0.08819444444444445 0.08125 0.08125 0.08333333333333333 0.09305555555555556 0.09375 0.09444444444444444 0.09444444444444444 0.09513888888888887 0.09930555555555556 0.10208333333333333 0.10486111111111113 0.10625,0.7 0.7 0.6925925925925926 0.6879629629629629 0.6833333333333333 0.6777777777777778 0.6777777777777778 0.6768518518518518 0.6759259259259259 0.6759259259259259 0.6731481481481482 0.6722222222222223 0.6712962962962963 0.6703703703703704 0.6694444444444445 0.6694444444444445 0.6685185185185185 0.6685185185185185 0.6675925925925925 0.6648148148148147 0.662037037037037 0.662037037037037 0.662037037037037 0.662037037037037 0.662037037037037 0.662037037037037 0.662037037037037 0.662037037037037 0.662037037037037 0.662037037037037 0.6787037037037037 0.6861111111111111 0.6907407407407408 0.6925925925925926 0.6935185185185185 0.6935185185185185 0.6935185185185185 0.6925925925925926 0.6916666666666667 0.6907407407407408 0.6907407407407408 0.6907407407407408 0.6907407407407408 0.6907407407407408 0.6907407407407408 0.6907407407407408 0.6907407407407408 0.6907407407407408 0.6907407407407408 0.6907407407407408 0.6907407407407408 0.6907407407407408 0.6907407407407408 0.6907407407407408 0.6907407407407408 0.6907407407407408 0.6907407407407408 0.6907407407407408 0.6907407407407408 0.6907407407407408 0.6907407407407408 0.6907407407407408 0.6907407407407408 0.6907407407407408 0.6907407407407408 0.6907407407407408 0.6907407407407408 0.6907407407407408 0.6907407407407408 0.6870370370370371 0.6592592592592592 0.6305555555555555 0.6018518518518519 0.5268518518518519 0.4611111111111112 0.33518518518518514 0.2805555555555556 0.24537037037037035 0.21759259259259256 0.20370370370370366 0.18333333333333326 0.1787037037037037 0.17685185185185182 0.17592592592592593 0.17500000000000004 0.17129629629629628 0.1685185185185185 0.16666666666666666 0.16666666666666666,0.0 20.0 40.0 60.0 80.0 100.0 120.0 140.0 160.0 180.0 200.0 220.0 240.0 260.0 280.0 300.0 320.0 340.0 360.0 380.0 400.0 420.0 440.0 460.0 480.0 500.0 520.0 540.0 560.0 580.0 600.0 620.0 640.0 660.0 680.0 700.0 720.0 740.0 760.0 780.0 800.0 820.0 840.0 860.0 880.0 900.0 920.0 940.0 960.0 980.0 1000.0 1020.0 1040.0 1060.0 1080.0 1100.0 1120.0 1140.0 1160.0 1180.0 1200.0 1220.0 1240.0 1260.0 1280.0 1300.0 1320.0 1340.0 1360.0 1380.0 1400.0 1420.0 1440.0 1460.0 1480.0 1500.0 1520.0 1540.0 1560.0 1580.0 1600.0 1620.0 1640.0 1660.0 1680.0 1700.0 1720.0 1740.0 1760.0
cb_07,6.0,enc_trial,stim,response,Miami trip,1246.0999999880733,enc_trial,1.0,6.0,t_m_10_1,travel_Miami,fold-e-single,tanktop,7.0,unique,,single,t_m_10_1.jpg,Miami,travel-b1,Iceland trip,Miami trip,sub-05,1.0,,1.0,,0.4527777777777778 0.45 0.4451388888888889 0.4368055555555556 0.4263888888888889 0.3986111111111112 0.3881944444444445 0.38125 0.3784722222222222 0.37777777777777777 0.3784722222222222 0.3784722222222222 0.3784722222222222 0.3784722222222222 0.3784722222222222 0.3784722222222222 0.3770833333333333 0.3756944444444445 0.3756944444444445 0.375 0.375 0.375 0.3743055555555556 0.3743055555555556 0.3743055555555556 0.3743055555555556 0.3743055555555556 0.3743055555555556 0.3743055555555556 0.3743055555555556 0.3743055555555556 0.3743055555555556 0.3743055555555556 0.3743055555555556 0.3743055555555556 0.3743055555555556 0.3743055555555556 0.37222222222222223 0.3715277777777778 0.3743055555555556 0.4534722222222222 0.5472222222222223 0.6493055555555556 0.7430555555555556 0.8201388888888889 0.9097222222222222 0.9243055555555556 0.9284722222222224 0.9284722222222224 0.9277777777777778 0.9263888888888888 0.9263888888888888 0.9263888888888888 0.9263888888888888 0.9263888888888888 0.9263888888888888 0.9256944444444444 0.9236111111111112 0.9201388888888888 0.9145833333333332 0.9104166666666668,0.825 0.8203703703703704 0.812962962962963 0.7981481481481482 0.7777777777777778 0.712962962962963 0.6814814814814815 0.6574074074074074 0.6398148148148148 0.6296296296296297 0.6212962962962962 0.6203703703703703 0.6194444444444445 0.6185185185185185 0.6185185185185185 0.6175925925925926 0.6166666666666667 0.6138888888888889 0.612037037037037 0.6111111111111112 0.6101851851851852 0.6092592592592593 0.6092592592592593 0.6092592592592593 0.6092592592592593 0.6092592592592593 0.6092592592592593 0.6092592592592593 0.6092592592592593 0.6092592592592593 0.6092592592592593 0.6092592592592593 0.6092592592592593 0.6092592592592593 0.6092592592592593 0.6092592592592593 0.6092592592592593 0.6092592592592593 0.6092592592592593 0.6018518518518519 0.5 0.412962962962963 0.34259259259259256 0.2870370370370371 0.2425925925925925 0.19166666666666665 0.18425925925925926 0.18333333333333326 0.18333333333333326 0.18333333333333326 0.18333333333333326 0.18333333333333326 0.18333333333333326 0.18333333333333326 0.18333333333333326 0.18333333333333326 0.18333333333333326 0.18333333333333326 0.18333333333333326 0.18240740740740746 0.18148148148148147,0.0 20.0 40.0 60.0 80.0 100.0 120.0 140.0 160.0 180.0 200.0 220.0 240.0 260.0 280.0 300.0 320.0 340.0 360.0 380.0 400.0 420.0 440.0 460.0 480.0 500.0 520.0 540.0 560.0 580.0 600.0 620.0 640.0 660.0 680.0 700.0 720.0 740.0 760.0 780.0 800.0 820.0 840.0 860.0 880.0 900.0 920.0 940.0 960.0 980.0 1000.0 1020.0 1040.0 1060.0 1080.0 1100.0 1120.0 1140.0 1160.0 1180.0 1200.0
cb_07,7.0,enc_trial,stim,response,Miami trip,1035.3999999880764,enc_trial,1.0,7.0,t_s_21_1,travel_shared,fold-b,umbrella,7.0,competing,far,paired,t_s_21_1.jpg,,travel-b1,Iceland trip,Miami trip,sub-05,0.0,0.0,1.0,1.0,0.5305555555555556 0.5333333333333333 0.5375 0.5423611111111111 0.5513888888888889 0.5847222222222223 0.5993055555555555 0.6159722222222223 0.6256944444444444 0.63125 0.6354166666666666 0.6402777777777777 0.6430555555555556 0.64375 0.64375 0.64375 0.64375 0.64375 0.64375 0.6416666666666667 0.6326388888888889 0.6277777777777778 0.6270833333333333 0.6277777777777778 0.6277777777777778 0.6277777777777778 0.6277777777777778 0.6277777777777778 0.6277777777777778 0.6277777777777778 0.6215277777777778 0.5930555555555556 0.5645833333333333 0.5375 0.5215277777777778 0.5048611111111111 0.5118055555555555 0.5319444444444444 0.5701388888888889 0.6354166666666666 0.7854166666666667 0.8368055555555556 0.8569444444444444 0.8694444444444445 0.875 0.8777777777777778,0.8212962962962963 0.8175925925925926 0.8138888888888889 0.8074074074074074 0.7953703703703704 0.75 0.7296296296296296 0.7 0.6805555555555556 0.6703703703703704 0.662037037037037 0.6537037037037037 0.6490740740740741 0.6472222222222221 0.6472222222222221 0.6472222222222221 0.6472222222222221 0.6472222222222221 0.6472222222222221 0.6444444444444444 0.6277777777777778 0.6203703703703703 0.6166666666666667 0.6138888888888889 0.6138888888888889 0.6138888888888889 0.6138888888888889 0.6138888888888889 0.6138888888888889 0.6138888888888889 0.6175925925925926 0.6333333333333333 0.6444444444444444 0.6509259259259259 0.6509259259259259 0.6175925925925926 0.5703703703703704 0.5101851851851852 0.43333333333333335 0.3462962962962963 0.22129629629629632 0.1953703703703704 0.18611111111111112 0.17962962962962958 0.17500000000000004 0.17129629629629628,16.5 36.5 56.5 76.5 96.5 116.5 136.5 156.5 176.5 196.5 216.5 236.5 256.5 276.5 296.5 316.5 336.5 356.5 376.5 396.5 416.5 436.5 456.5 476.5 496.5 516.5 536.5 556.5 576.5 596.5 616.5 636.5 656.5 676.5 696.5 716.5 736.5 756.5 776.5 796.5 816.5 836.5 856.5 876.5 896.5 916.5
cb_07,8.0,enc_trial,stim,response,Miami trip,1341.9000000119267,enc_trial,1.0,8.0,t_m_06_2,travel_Miami,fold-c,handheld fan,7.0,unique,close,paired,t_m_06_2.jpg,Miami,travel-b1,Iceland trip,Miami trip,sub-05,1.0,1.0,1.0,1.0,0.6354166666666666 0.6444444444444445 0.65 0.6513888888888889 0.6513888888888889 0.6513888888888889 0.6513888888888889 0.6513888888888889 0.6513888888888889 0.6513888888888889 0.6513888888888889 0.6513888888888889 0.6513888888888889 0.6513888888888889 0.6513888888888889 0.6513888888888889 0.6513888888888889 0.6513888888888889 0.6513888888888889 0.6513888888888889 0.6513888888888889 0.6513888888888889 0.6513888888888889 0.6513888888888889 0.6513888888888889 0.6513888888888889 0.6513888888888889 0.6534722222222222 0.65625 0.65625 0.65625 0.65625 0.65625 0.65625 0.65625 0.65625 0.65625 0.65625 0.6520833333333333 0.6375 0.6208333333333333 0.6215277777777778 0.6361111111111111 0.6680555555555555 0.7159722222222222 0.8305555555555556 0.8694444444444445 0.8888888888888888 0.9 0.9055555555555556 0.9083333333333332 0.9083333333333332 0.9083333333333332 0.9083333333333332 0.9090277777777778 0.9097222222222222 0.9104166666666668 0.9111111111111112,0.612037037037037 0.5925925925925926 0.5805555555555555 0.575 0.5740740740740741 0.5740740740740741 0.5740740740740741 0.5740740740740741 0.5740740740740741 0.5740740740740741 0.5740740740740741 0.5740740740740741 0.5740740740740741 0.5740740740740741 0.5740740740740741 0.5740740740740741 0.5740740740740741 0.5740740740740741 0.5740740740740741 0.5740740740740741 0.5740740740740741 0.5740740740740741 0.5740740740740741 0.5740740740740741 0.5740740740740741 0.5740740740740741 0.5740740740740741 0.5740740740740741 0.5768518518518518 0.5768518518518518 0.5768518518518518 0.5768518518518518 0.5768518518518518 0.5768518518518518 0.5768518518518518 0.5768518518518518 0.5768518518518518 0.5768518518518518 0.5833333333333333 0.5944444444444444 0.587962962962963 0.5611111111111111 0.5101851851851852 0.4444444444444444 0.3768518518518519 0.2611111111111111 0.2287037037037037 0.21203703703703705 0.20092592592592595 0.19351851851851853 0.18888888888888888 0.18888888888888888 0.18888888888888888 0.18703703703703692 0.18611111111111112 0.18240740740740746 0.1787037037037037 0.1787037037037037,0.0 20.0 40.0 60.0 80.0 100.0 120.0 140.0 160.0 180.0 200.0 220.0 240.0 260.0 280.0 300.0 320.0 340.0 360.0 380.0 400.0 420.0 440.0 460.0 480.0 500.0 520.0 540.0 560.0 580.0 600.0 620.0 640.0 660.0 680.0 700.0 720.0 740.0 760.0 780.0 800.0 820.0 840.0 860.0 880.0 900.0 920.0 940.0 960.0 980.0 1000.0 1020.0 1040.0 1060.0 1080.0 1100.0 1120.0 1140.0
cb_07,9.0,enc_trial,stim,response,Iceland trip,1399.6000000000058,enc_trial,1.0,9.0,t_s_22_1,travel_shared,fold-a,belt,7.0,competing,close,paired,t_s_22_1.jpg,,travel-b1,Iceland trip,Miami trip,sub-05,0.0,0.0,1.0,1.0,0.5222222222222223 0.525 0.5333333333333333 0.54375 0.5652777777777778 0.6173611111111111 0.6354166666666666 0.65 0.6597222222222222 0.6673611111111111 0.6694444444444444 0.6694444444444444 0.6694444444444444 0.6694444444444444 0.6694444444444444 0.6694444444444444 0.6694444444444444 0.6659722222222222 0.6638888888888889 0.6638888888888889 0.6666666666666666 0.6666666666666666 0.6666666666666666 0.6652777777777777 0.6631944444444444 0.6583333333333333 0.65625 0.6541666666666667 0.6520833333333333 0.6513888888888889 0.6513888888888889 0.6513888888888889 0.6513888888888889 0.6513888888888889 0.6513888888888889 0.6513888888888889 0.6513888888888889 0.65 0.6479166666666667 0.64375 0.6270833333333333 0.6041666666666666 0.5583333333333333 0.4833333333333333 0.3840277777777778 0.2069444444444445 0.1451388888888889 0.1125 0.1076388888888889 0.11805555555555555 0.15555555555555556 0.18263888888888888 0.21666666666666667 0.25416666666666665 0.28194444444444444 0.3333333333333333 0.3375 0.3375 0.33125 0.3111111111111111 0.2548611111111111 0.2333333333333333 0.2111111111111111 0.19652777777777766 0.18472222222222226 0.16527777777777775 0.15763888888888888 0.15347222222222226,0.825925925925926 0.8185185185185185 0.8046296296296296 0.7898148148148147 0.7638888888888888 0.7148148148148148 0.700925925925926 0.6898148148148149 0.6842592592592592 0.6814814814814815 0.6814814814814815 0.6814814814814815 0.6814814814814815 0.6814814814814815 0.6814814814814815 0.6814814814814815 0.6814814814814815 0.6925925925925926 0.7046296296296296 0.712037037037037 0.7166666666666667 0.7166666666666667 0.7166666666666667 0.7166666666666667 0.7175925925925926 0.7175925925925926 0.7175925925925926 0.7175925925925926 0.7175925925925926 0.7175925925925926 0.7175925925925926 0.7175925925925926 0.7175925925925926 0.7175925925925926 0.7175925925925926 0.7175925925925926 0.7175925925925926 0.7175925925925926 0.7175925925925926 0.7185185185185186 0.7212962962962963 0.7175925925925926 0.6972222222222222 0.6537037037037037 0.5907407407407408 0.4657407407407408 0.4018518518518519 0.3379629629629629 0.28148148148148144 0.2361111111111112 0.18240740740740746 0.16296296296296298 0.15000000000000002 0.14537037037037034 0.14537037037037034 0.15462962962962967 0.15648148148148144 0.15833333333333333 0.1611111111111111 0.1685185185185185 0.17685185185185182 0.17592592592592593 0.17500000000000004 0.17314814814814816 0.1694444444444444 0.16388888888888886 0.16296296296296298 0.1620370370370371,0.0 20.0 40.0 60.0 80.0 100.0 120.0 140.0 160.0 180.0 200.0 220.0 240.0 260.0 280.0 300.0 320.0 340.0 360.0 380.0 400.0 420.0 440.0 460.0 480.0 500.0 520.0 540.0 560.0 580.0 600.0 620.0 640.0 660.0 680.0 700.0 720.0 740.0 760.0 780.0 800.0 820.0 840.0 860.0 880.0 900.0 920.0 940.0 960.0 980.0 1000.0 1020.0 1040.0 1060.0 1080.0 1100.0 1120.0 1140.0 1160.0 1180.0 1200.0 1220.0 1240.0 1260.0 1280.0 1300.0 1320.0 1340.0
cb_07,10.0,enc_trial,stim,response,Miami trip,1055.7999999880851,enc_trial,1.0,10.0,t_m_03_1,travel_Miami,fold-c,wetsuit,7.0,unique,close,paired,t_m_03_1.jpg,Miami,travel-b1,Iceland trip,Miami trip,sub-05,1.0,1.0,1.0,1.0,0.5166666666666667 0.5305555555555556 0.5631944444444444 0.6006944444444444 0.6388888888888888 0.6819444444444445 0.6895833333333333 0.6916666666666667 0.6916666666666667 0.6916666666666667 0.6916666666666667 0.6916666666666667 0.6916666666666667 0.6916666666666667 0.6916666666666667 0.6916666666666667 0.6916666666666667 0.6916666666666667 0.6916666666666667 0.6916666666666667 0.6916666666666667 0.6930555555555555 0.6930555555555555 0.6930555555555555 0.6930555555555555 0.6930555555555555 0.6930555555555555 0.6930555555555555 0.6930555555555555 0.6930555555555555 0.6826388888888889 0.6604166666666667 0.6444444444444445 0.6347222222222222 0.6180555555555556 0.5861111111111111 0.6020833333333333 0.6493055555555556 0.7055555555555556 0.7743055555555556 0.8590277777777777 0.8791666666666667 0.8916666666666667 0.8944444444444445 0.8951388888888889 0.8951388888888889 0.8951388888888889 0.8951388888888889 0.8951388888888889,0.8157407407407408 0.8 0.7694444444444444 0.7388888888888889 0.712037037037037 0.6814814814814815 0.674074074074074 0.6712962962962963 0.6712962962962963 0.6712962962962963 0.6712962962962963 0.6712962962962963 0.6712962962962963 0.6712962962962963 0.6712962962962963 0.6712962962962963 0.6712962962962963 0.6712962962962963 0.6712962962962963 0.6712962962962963 0.6666666666666667 0.6638888888888889 0.6638888888888889 0.6638888888888889 0.6638888888888889 0.6638888888888889 0.6638888888888889 0.6638888888888889 0.6638888888888889 0.6638888888888889 0.6787037037037037 0.7037037037037037 0.7166666666666667 0.7194444444444444 0.7083333333333333 0.6027777777777779 0.5166666666666666 0.4138888888888889 0.33611111111111114 0.26481481481481484 0.1898148148148148 0.17129629629629628 0.1601851851851852 0.15833333333333333 0.15833333333333333 0.15833333333333333 0.15833333333333333 0.15833333333333333 0.15740740740740744,50.10000000000582 70.10000000000582 90.10000000000582 110.10000000000582 130.10000000000582 150.10000000000582 170.10000000000582 190.10000000000585 210.10000000000585 230.10000000000585 250.10000000000585 270.1000000000058 290.1000000000058 310.1000000000058 330.1000000000058 350.1000000000058 370.1000000000058 390.1000000000058 410.1000000000058 430.1000000000058 450.1000000000058 470.1000000000058 490.1000000000058 510.1000000000058 530.1000000000058 550.1000000000058 570.1000000000057 590.1000000000057 610.1000000000057 630.1000000000057 650.1000000000057 670.1000000000057 690.1000000000058 710.1000000000058 730.1000000000058 750.1000000000058 770.1000000000058 790.1000000000058 810.1000000000058 830.1000000000058 850.1000000000058 870.1000000000058 890.1000000000058 910.1000000000058 930.1000000000058 950.1000000000058 970.1000000000058 990.1000000000058 1010.1000000000058
cb_07,11.0,enc_trial,stim,response,Iceland trip,1502.3999999880907,enc_trial,1.0,11.0,t_i_06_1,travel_Iceland,fold-d,knit hat,7.0,unique,far,paired,t_i_06_1.jpg,Iceland,travel-b1,Iceland trip,Miami trip,sub-05,1.0,1.0,1.0,1.0,0.6784722222222223 0.6784722222222223 0.6784722222222223 0.6777777777777778 0.6777777777777778 0.6770833333333334 0.6770833333333334 0.6763888888888889 0.6763888888888889 0.6763888888888889 0.6756944444444445 0.6756944444444445 0.6756944444444445 0.6756944444444445 0.6756944444444445 0.675 0.675 0.675 0.675 0.675 0.675 0.675 0.675 0.675 0.6743055555555556 0.6680555555555555 0.6680555555555555 0.6680555555555555 0.6680555555555555 0.6680555555555555 0.6680555555555555 0.6680555555555555 0.6680555555555555 0.6680555555555555 0.6680555555555555 0.6680555555555555 0.6819444444444445 0.7291666666666666 0.78125 0.8347222222222223 0.8847222222222222 0.89375 0.8993055555555556 0.9006944444444445 0.9006944444444445 0.9006944444444445 0.9006944444444445 0.9006944444444445 0.9006944444444445 0.9006944444444445 0.9006944444444445 0.9006944444444445 0.9006944444444445 0.9 0.8965277777777778 0.8319444444444445 0.7201388888888889 0.5701388888888889 0.40347222222222223 0.2423611111111111 0.0625 0.04236111111111111 0.04236111111111111 0.04861111111111111 0.056944444444444436 0.06805555555555555 0.06944444444444445 0.07013888888888889 0.07152777777777777 0.07152777777777777 0.07152777777777777 0.07152777777777777 0.07152777777777777 0.07291666666666667 0.07569444444444444 0.07708333333333334,0.5953703703703703 0.5953703703703703 0.5944444444444444 0.5944444444444444 0.5944444444444444 0.5935185185185186 0.5925925925925926 0.5925925925925926 0.5925925925925926 0.5925925925925926 0.5916666666666667 0.5916666666666667 0.5916666666666667 0.5916666666666667 0.5916666666666667 0.5916666666666667 0.5916666666666667 0.5916666666666667 0.5916666666666667 0.5916666666666667 0.5916666666666667 0.5916666666666667 0.5916666666666667 0.5916666666666667 0.5907407407407408 0.587962962962963 0.5851851851851853 0.5842592592592593 0.5842592592592593 0.5842592592592593 0.5842592592592593 0.5842592592592593 0.5842592592592593 0.5842592592592593 0.5842592592592593 0.5824074074074075 0.5555555555555556 0.4935185185185185 0.4185185185185185 0.3296296296296296 0.2333333333333333 0.2138888888888889 0.2 0.1907407407407408 0.18611111111111112 0.18148148148148147 0.17962962962962958 0.1777777777777778 0.17685185185185182 0.17685185185185182 0.17685185185185182 0.17685185185185182 0.17592592592592593 0.17592592592592593 0.17592592592592593 0.18888888888888888 0.20740740740740726 0.2157407407407408 0.2083333333333333 0.1907407407407408 0.15462962962962967 0.14166666666666672 0.13796296296296295 0.1342592592592593 0.12870370370370365 0.12129629629629635 0.12037037037037035 0.11944444444444445 0.11851851851851848 0.11851851851851848 0.11759259259259258 0.11759259259259258 0.11759259259259258 0.11759259259259258 0.11759259259259258 0.11759259259259258,0.0 20.0 40.0 60.0 80.0 100.0 120.0 140.0 160.0 180.0 200.0 220.0 240.0 260.0 280.0 300.0 320.0 340.0 360.0 380.0 400.0 420.0 440.0 460.0 480.0 500.0 520.0 540.0 560.0 580.0 600.0 620.0 640.0 660.0 680.0 700.0 720.0 740.0 760.0 780.0 800.0 820.0 840.0 860.0 880.0 900.0 920.0 940.0 960.0 980.0 1000.0 1020.0 1040.0 1060.0 1080.0 1100.0 1120.0 1140.0 1160.0 1180.0 1200.0 1220.0 1240.0 1260.0 1280.0 1300.0 1320.0 1340.0 1360.0 1380.0 1400.0 1420.0 1440.0 1460.0 1480.0 1500.0
cb_07,12.0,enc_trial,stim,response,Miami trip,952.2000000000116,enc_trial,1.0,12.0,t_m_06_1,travel_Miami,fold-c,handheld fan,7.0,unique,close,paired,t_m_06_1.jpg,Miami,travel-b1,Iceland trip,Miami trip,sub-05,1.0,1.0,1.0,1.0,0.5027777777777778 0.4944444444444445 0.4805555555555556 0.4604166666666666 0.4361111111111111 0.37222222222222223 0.3416666666666667 0.33611111111111114 0.3513888888888889 0.3930555555555556 0.5041666666666667 0.5618055555555556 0.6347222222222222 0.7027777777777777 0.7625 0.8256944444444444 0.8333333333333334 0.8347222222222223 0.8354166666666667 0.8361111111111111 0.8368055555555556 0.8381944444444445 0.8409722222222222 0.8430555555555556,0.8314814814814815 0.8240740740740741 0.812962962962963 0.7935185185185185 0.7574074074074074 0.6268518518518518 0.5361111111111111 0.4648148148148148 0.42314814814814816 0.37222222222222223 0.29907407407407405 0.2759259259259259 0.25462962962962965 0.2407407407407407 0.2305555555555555 0.2148148148148148 0.21203703703703705 0.21203703703703705 0.21111111111111114 0.21018518518518514 0.20925925925925928 0.2083333333333333 0.2046296296296296 0.20277777777777767,399.90000000002334 419.90000000002334 439.90000000002334 459.90000000002334 479.90000000002334 499.90000000002334 519.9000000000234 539.9000000000234 559.9000000000234 579.9000000000233 599.9000000000233 619.9000000000233 639.9000000000233 659.9000000000233 679.9000000000233 699.9000000000232 719.9000000000232 739.9000000000232 759.9000000000232 779.9000000000232 799.9000000000232 819.9000000000232 839.9000000000232 859.9000000000232
cb_07,13.0,enc_trial,stim,response,Miami trip,853.4999999880673,enc_trial,1.0,13.0,t_m_03_2,travel_Miami,fold-c,wetsuit,7.0,unique,close,paired,t_m_03_2.jpg,Miami,travel-b1,Iceland trip,Miami trip,sub-05,1.0,1.0,1.0,1.0,0.4715277777777778 0.475 0.4777777777777778 0.48125 0.4833333333333333 0.4888888888888889 0.4895833333333333 0.4902777777777778 0.4902777777777778 0.4902777777777778 0.4923611111111112 0.4923611111111112 0.4923611111111112 0.4923611111111112 0.4923611111111112 0.4923611111111112 0.4944444444444445 0.4965277777777778 0.5 0.5 0.4805555555555556 0.4590277777777778 0.4354166666666667 0.4097222222222222 0.3881944444444445 0.3618055555555556 0.38472222222222224 0.4430555555555555 0.5173611111111112 0.6027777777777777 0.7326388888888888 0.78125 0.8131944444444444 0.8284722222222223 0.8402777777777778 0.8423611111111111,0.7620370370370371 0.7425925925925926 0.7231481481481481 0.7 0.6796296296296296 0.6564814814814814 0.6518518518518519 0.6509259259259259 0.6509259259259259 0.65 0.6462962962962964 0.6462962962962964 0.6462962962962964 0.6462962962962964 0.6462962962962964 0.6453703703703704 0.6444444444444444 0.6453703703703704 0.6490740740740741 0.6592592592592592 0.6953703703703704 0.7166666666666667 0.7259259259259259 0.7212962962962963 0.6953703703703704 0.5638888888888889 0.4833333333333333 0.4027777777777778 0.34351851851851856 0.2953703703703704 0.2333333333333333 0.2138888888888889 0.2046296296296296 0.20185185185185184 0.19907407407407407 0.19814814814814816,0.0 20.0 40.0 60.0 80.0 100.0 120.0 140.0 160.0 180.0 200.0 220.0 240.0 260.0 280.0 300.0 320.0 340.0 360.0 380.0 400.0 420.0 440.0 460.0 480.0 500.0 520.0 540.0 560.0 580.0 600.0 620.0 640.0 660.0 680.0 700.0
cb_07,14.0,enc_trial,stim,response,Iceland trip,1546.3000000119214,enc_trial,1.0,14.0,t_s_22_2,travel_shared,fold-a,belt,7.0,competing,close,paired,t_s_22_2.jpg,,travel-b1,Iceland trip,Miami trip,sub-05,0.0,0.0,1.0,1.0,0.5340277777777778 0.5347222222222222 0.5347222222222222 0.5354166666666667 0.5354166666666667 0.5354166666666667 0.5354166666666667 0.5361111111111111 0.5361111111111111 0.5361111111111111 0.5361111111111111 0.5361111111111111 0.5361111111111111 0.5361111111111111 0.5361111111111111 0.5361111111111111 0.5368055555555555 0.5375 0.5395833333333333 0.5409722222222222 0.5423611111111111 0.5451388888888888 0.5465277777777777 0.5465277777777777 0.5465277777777777 0.5472222222222223 0.5444444444444444 0.5361111111111111 0.5229166666666667 0.5097222222222222 0.4791666666666667 0.4729166666666666 0.4708333333333333 0.4680555555555556 0.4631944444444445 0.4451388888888889 0.4201388888888889 0.3756944444444445 0.3159722222222222 0.2388888888888889 0.08958333333333332 0.05555555555555555 0.03888888888888889 0.03611111111111112 0.03680555555555557 0.04861111111111111 0.05347222222222222 0.05486111111111111 0.05486111111111111 0.05486111111111111 0.060416666666666674 0.06805555555555555 0.07708333333333334 0.08402777777777777 0.09097222222222222 0.11805555555555555 0.13541666666666666 0.15069444444444444 0.15902777777777774 0.1625 0.1625 0.16111111111111112 0.15694444444444444 0.15208333333333332 0.15 0.14652777777777778,0.5925925925925926 0.5694444444444444 0.5527777777777778 0.5425925925925925 0.537962962962963 0.537037037037037 0.5351851851851852 0.5351851851851852 0.5351851851851852 0.5351851851851852 0.5351851851851852 0.5351851851851852 0.5351851851851852 0.5351851851851852 0.5351851851851852 0.5361111111111111 0.5361111111111111 0.537962962962963 0.5407407407407407 0.5425925925925925 0.5462962962962963 0.5490740740740739 0.5509259259259259 0.5509259259259259 0.5509259259259259 0.5666666666666667 0.5935185185185186 0.6203703703703703 0.6462962962962964 0.6648148148148147 0.6953703703703704 0.7018518518518518 0.7046296296296296 0.7046296296296296 0.7018518518518518 0.6916666666666667 0.6777777777777778 0.6490740740740741 0.6037037037037036 0.5407407407407407 0.4037037037037037 0.3648148148148148 0.33518518518518514 0.3175925925925925 0.3046296296296296 0.28796296296296303 0.2842592592592592 0.2833333333333333 0.2833333333333333 0.2833333333333333 0.2768518518518519 0.2694444444444445 0.2611111111111111 0.25277777777777777 0.2435185185185185 0.20740740740740726 0.18888888888888888 0.1777777777777778 0.17222222222222228 0.17129629629629628 0.17129629629629628 0.1703703703703704 0.16759259259259265 0.16388888888888886 0.1611111111111111 0.15648148148148144,0.0 20.0 40.0 60.0 80.0 100.0 120.0 140.0 160.0 180.0 200.0 220.0 240.0 260.0 280.0 300.0 320.0 340.0 360.0 380.0 400.0 420.0 440.0 460.0 480.0 500.0 520.0 540.0 560.0 580.0 600.0 620.0 640.0 660.0 680.0 700.0 720.0 740.0 760.0 780.0 800.0 820.0 840.0 860.0 880.0 900.0 920.0 940.0 960.0 980.0 1000.0 1020.0 1040.0 1060.0 1080.0 1100.0 1120.0 1140.0 1160.0 1180.0 1200.0 1220.0 1240.0 1260.0 1280.0 1300.0
cb_07,15.0,enc_trial,stim,response,Miami trip,985.3999999999942,enc_trial,1.0,15.0,t_m_05_1,travel_Miami,fold-d,sunscreen,7.0,unique,far,paired,t_m_05_1.jpg,Miami,travel-b1,Iceland trip,Miami trip,sub-05,1.0,1.0,1.0,1.0,0.5048611111111111 0.50625 0.5090277777777777 0.5131944444444444 0.5173611111111112 0.525 0.5277777777777778 0.5298611111111111 0.5298611111111111 0.5298611111111111 0.5298611111111111 0.5298611111111111 0.5298611111111111 0.5298611111111111 0.5298611111111111 0.5298611111111111 0.5298611111111111 0.5298611111111111 0.5298611111111111 0.5298611111111111 0.5298611111111111 0.5298611111111111 0.5298611111111111 0.5298611111111111 0.5298611111111111 0.5298611111111111 0.5298611111111111 0.5298611111111111 0.5298611111111111 0.5298611111111111 0.5298611111111111 0.53125 0.5458333333333333 0.5881944444444445 0.6451388888888889 0.775 0.825 0.8569444444444444 0.8708333333333333 0.8743055555555556 0.8722222222222222 0.8708333333333333 0.86875 0.8680555555555556 0.8680555555555556 0.8708333333333333 0.8715277777777778,0.825 0.8185185185185185 0.8083333333333333 0.7898148148148147 0.7703703703703704 0.7407407407407407 0.7314814814814814 0.7259259259259259 0.7231481481481481 0.7212962962962963 0.7175925925925926 0.7175925925925926 0.7175925925925926 0.7175925925925926 0.7175925925925926 0.7175925925925926 0.7175925925925926 0.7175925925925926 0.7175925925925926 0.7175925925925926 0.7175925925925926 0.7175925925925926 0.7175925925925926 0.7175925925925926 0.7175925925925926 0.7175925925925926 0.7175925925925926 0.7175925925925926 0.7175925925925926 0.7175925925925926 0.7166666666666667 0.7055555555555555 0.6611111111111111 0.5703703703703704 0.4731481481481481 0.30092592592592593 0.2407407407407407 0.20277777777777767 0.1787037037037037 0.16388888888888886 0.14629629629629626 0.1425925925925926 0.14074074074074072 0.13981481481481484 0.1342592592592593 0.12037037037037035 0.11851851851851848,0.0 20.0 40.0 60.0 80.0 100.0 120.0 140.0 160.0 180.0 200.0 220.0 240.0 260.0 280.0 300.0 320.0 340.0 360.0 380.0 400.0 420.0 440.0 460.0 480.0 500.0 520.0 540.0 560.0 580.0 600.0 620.0 640.0 660.0 680.0 700.0 720.0 740.0 760.0 780.0 800.0 820.0 840.0 860.0 880.0 900.0 920.0
cb_07,16.0,enc_trial,stim,response,Iceland trip,1374.8000000357572,enc_trial,1.0,16.0,t_s_06_2,travel_shared,fold-b,luggage,7.0,competing,far,paired,t_s_06_2.jpg,,travel-b1,Iceland trip,Miami trip,sub-05,1.0,1.0,0.0,0.0,0.4875 0.4888888888888889 0.4902777777777778 0.4923611111111112 0.49375 0.49375 0.49375 0.49375 0.49375 0.49375 0.49375 0.49375 0.49375 0.49375 0.4923611111111112 0.4895833333333333 0.4895833333333333 0.4888888888888889 0.4888888888888889 0.4881944444444444 0.4881944444444444 0.4881944444444444 0.4881944444444444 0.4875 0.4868055555555556 0.4861111111111111 0.4854166666666666 0.4847222222222222 0.4826388888888889 0.4819444444444445 0.4777777777777778 0.4743055555555555 0.4708333333333333 0.4645833333333334 0.4569444444444444 0.4527777777777778 0.4527777777777778 0.4527777777777778 0.4527777777777778 0.4527777777777778 0.4527777777777778 0.4527777777777778 0.4527777777777778 0.4479166666666667 0.4215277777777778 0.3763888888888889 0.34652777777777777 0.3069444444444445 0.2652777777777778 0.2277777777777777 0.16875 0.15555555555555556 0.1527777777777778 0.1527777777777778 0.15416666666666667 0.15486111111111112,0.7833333333333333 0.7787037037037037 0.775 0.7703703703703704 0.7685185185185185 0.7685185185185185 0.7685185185185185 0.7685185185185185 0.7685185185185185 0.7685185185185185 0.7685185185185185 0.7685185185185185 0.7685185185185185 0.7703703703703704 0.7768518518518519 0.7861111111111111 0.7888888888888889 0.7898148148148147 0.7907407407407407 0.7907407407407407 0.7907407407407407 0.7907407407407407 0.7907407407407407 0.7907407407407407 0.7907407407407407 0.7907407407407407 0.7907407407407407 0.7898148148148147 0.7898148148148147 0.7888888888888889 0.7851851851851852 0.7814814814814814 0.7731481481481481 0.7583333333333333 0.7388888888888889 0.7166666666666667 0.7166666666666667 0.7166666666666667 0.7166666666666667 0.7166666666666667 0.7166666666666667 0.7166666666666667 0.7166666666666667 0.7194444444444444 0.7333333333333334 0.7287037037037036 0.6953703703703704 0.6324074074074074 0.537037037037037 0.4185185185185185 0.1944444444444444 0.1435185185185185 0.12777777777777774 0.12407407407407413 0.12407407407407413 0.12407407407407413,0.0 20.0 40.0 60.0 80.0 100.0 120.0 140.0 160.0 180.0 200.0 220.0 240.0 260.0 280.0 300.0 320.0 340.0 360.0 380.0 400.0 420.0 440.0 460.0 480.0 500.0 520.0 540.0 560.0 580.0 600.0 620.0 640.0 660.0 680.0 700.0 720.0 740.0 760.0 780.0 800.0 820.0 840.0 860.0 880.0 900.0 920.0 940.0 960.0 980.0 1000.0 1020.0 1040.0 1060.0 1080.0 1100.0
cb_07,17.0,enc_trial,stim,response,Iceland trip,1248.7000000119149,enc_trial,1.0,17.0,t_i_14_1,travel_Iceland,fold-c,snow pants,7.0,unique,close,paired,t_i_14_1.jpg,Iceland,travel-b1,Iceland trip,Miami trip,sub-05,1.0,1.0,1.0,1.0,0.5111111111111111 0.5111111111111111 0.5111111111111111 0.5111111111111111 0.5111111111111111 0.5125 0.5131944444444444 0.5131944444444444 0.5131944444444444 0.5131944444444444 0.5131944444444444 0.5131944444444444 0.5131944444444444 0.5131944444444444 0.5131944444444444 0.5131944444444444 0.5131944444444444 0.5131944444444444 0.5131944444444444 0.5131944444444444 0.5131944444444444 0.5131944444444444 0.5131944444444444 0.5131944444444444 0.5131944444444444 0.5131944444444444 0.5131944444444444 0.5131944444444444 0.5131944444444444 0.5131944444444444 0.5131944444444444 0.5131944444444444 0.5131944444444444 0.5131944444444444 0.5131944444444444 0.5131944444444444 0.5131944444444444 0.5131944444444444 0.5131944444444444 0.5131944444444444 0.5131944444444444 0.5055555555555555 0.4902777777777778 0.4569444444444444 0.41041666666666665 0.2916666666666667 0.2361111111111111 0.19444444444444445 0.1763888888888889 0.17222222222222222 0.175 0.17569444444444446 0.17569444444444446 0.17569444444444446,0.8231481481481482 0.8203703703703704 0.8166666666666667 0.812962962962963 0.8092592592592592 0.8037037037037037 0.8018518518518518 0.8018518518518518 0.8009259259259259 0.8009259259259259 0.8 0.8 0.8 0.8 0.8 0.8 0.8 0.8 0.8 0.8 0.8 0.8 0.8 0.8 0.8 0.8 0.8 0.8 0.8 0.8 0.8 0.8 0.8 0.8 0.8 0.8 0.8 0.8 0.8 0.8 0.8 0.799074074074074 0.7916666666666666 0.75 0.6842592592592592 0.4768518518518519 0.3574074074074074 0.2685185185185185 0.22685185185185186 0.2046296296296296 0.17962962962962958 0.17222222222222228 0.1694444444444444 0.1685185185185185,16.60000000000582 36.60000000000582 56.60000000000582 76.6000000000058 96.60000000000582 116.60000000000582 136.60000000000582 156.60000000000582 176.6000000000058 196.60000000000585 216.60000000000585 236.60000000000585 256.6000000000058 276.6000000000058 296.6000000000058 316.6000000000058 336.6000000000058 356.6000000000058 376.6000000000058 396.6000000000058 416.6000000000058 436.6000000000058 456.6000000000058 476.6000000000058 496.6000000000058 516.6000000000058 536.6000000000058 556.6000000000058 576.6000000000057 596.6000000000057 616.6000000000057 636.6000000000057 656.6000000000057 676.6000000000057 696.6000000000058 716.6000000000058 736.6000000000058 756.6000000000058 776.6000000000058 796.6000000000058 816.6000000000058 836.6000000000058 856.6000000000058 876.6000000000058 896.6000000000058 916.6000000000058 936.6000000000058 956.6000000000058 976.6000000000058 996.6000000000058 1016.6000000000058 1036.6000000000058 1056.6000000000058 1076.6000000000058
cb_07,18.0,enc_trial,stim,response,Miami trip,1668.9999999880677,enc_trial,1.0,18.0,t_s_02_2,travel_shared,fold-b,water bottle,7.0,competing,far,paired,t_s_02_2.jpg,,travel-b1,Iceland trip,Miami trip,sub-05,0.0,0.0,0.0,1.0,0.5027777777777778 0.5027777777777778 0.5027777777777778 0.5027777777777778 0.5027777777777778 0.5027777777777778 0.5027777777777778 0.5027777777777778 0.5027777777777778 0.5027777777777778 0.5027777777777778 0.5027777777777778 0.5027777777777778 0.5027777777777778 0.5027777777777778 0.5027777777777778 0.5027777777777778 0.5027777777777778 0.5027777777777778 0.5027777777777778 0.5027777777777778 0.5027777777777778 0.5027777777777778 0.5027777777777778 0.5027777777777778 0.5027777777777778 0.5027777777777778 0.5027777777777778 0.5027777777777778 0.5013888888888889 0.4979166666666667 0.4965277777777778 0.4958333333333334 0.4958333333333334 0.4958333333333334 0.4951388888888889 0.4944444444444445 0.4944444444444445 0.4944444444444445 0.49375 0.4930555555555556 0.4923611111111112 0.4916666666666666 0.4916666666666666 0.5055555555555555 0.5895833333333333 0.6534722222222222 0.7340277777777777 0.7944444444444444 0.8423611111111111 0.8798611111111111 0.88125 0.88125 0.8798611111111111 0.8791666666666667 0.8777777777777778,0.8361111111111111 0.8333333333333334 0.8324074074074074 0.8296296296296296 0.8287037037037037 0.8277777777777777 0.8268518518518518 0.8268518518518518 0.8268518518518518 0.8268518518518518 0.8268518518518518 0.8268518518518518 0.8268518518518518 0.8268518518518518 0.8268518518518518 0.8268518518518518 0.8268518518518518 0.8268518518518518 0.8268518518518518 0.8268518518518518 0.8268518518518518 0.8268518518518518 0.8268518518518518 0.8268518518518518 0.8268518518518518 0.8268518518518518 0.8268518518518518 0.8268518518518518 0.8268518518518518 0.825 0.8212962962962963 0.8203703703703704 0.8194444444444444 0.8194444444444444 0.8185185185185185 0.8175925925925926 0.8175925925925926 0.8175925925925926 0.8166666666666667 0.8166666666666667 0.8138888888888889 0.812962962962963 0.8092592592592592 0.7916666666666666 0.7388888888888889 0.537962962962963 0.43333333333333335 0.325 0.25277777777777777 0.1953703703703704 0.14907407407407405 0.14629629629629626 0.14537037037037034 0.14537037037037034 0.14537037037037034 0.14537037037037034,116.5 136.5 156.5 176.5 196.5 216.5 236.5 256.5 276.5 296.5 316.5 336.5 356.5 376.5 396.5 416.5 436.5 456.5 476.5 496.5 516.5 536.5 556.5 576.5 596.5 616.5 636.5 656.5 676.5 696.5 716.5 736.5 756.5 776.5 796.5 816.5 836.5 856.5 876.5 896.5 916.5 936.5 956.5 976.5 996.5 1016.5 1036.5 1056.5 1076.5 1096.5 1116.5 1136.5 1156.5 1176.5 1196.5 1216.5
cb_07,19.0,enc_trial,stim,response,Iceland trip,1243.1000000000058,enc_trial,1.0,19.0,t_i_11_1,travel_Iceland,fold-d,headlamp,7.0,unique,far,paired,t_i_11_1.jpg,Iceland,travel-b1,Iceland trip,Miami trip,sub-05,1.0,1.0,1.0,1.0,0.4958333333333334 0.4909722222222222 0.4847222222222222 0.4777777777777778 0.4604166666666666 0.37777777777777777 0.3159722222222222 0.26944444444444443 0.22916666666666666 0.20277777777777767 0.18263888888888888 0.18125 0.18194444444444444 0.18333333333333326 0.18333333333333326 0.18333333333333326,0.8037037037037037 0.8037037037037037 0.8037037037037037 0.799074074074074 0.7796296296296297 0.6685185185185185 0.5712962962962963 0.4842592592592593 0.3888888888888888 0.3027777777777778 0.2138888888888889 0.2 0.1907407407407408 0.18703703703703692 0.18518518518518529 0.18333333333333326,816.3999999999942 836.3999999999942 856.3999999999942 876.3999999999942 896.3999999999942 916.3999999999942 936.3999999999942 956.3999999999942 976.3999999999942 996.3999999999942 1016.3999999999942 1036.3999999999942 1056.3999999999942 1076.3999999999942 1096.3999999999942 1116.3999999999942
cb_07,20.0,enc_trial,stim,response,Miami trip,1080.500000023836,enc_trial,1.0,20.0,t_m_11_1,travel_Miami,fold-d,collapsible beach chair,7.0,unique,far,paired,t_m_11_1.jpg,Miami,travel-b1,Iceland trip,Miami trip,sub-05,1.0,1.0,1.0,1.0,0.5048611111111111 0.5180555555555556 0.5590277777777778 0.6222222222222222 0.6868055555555556 0.7513888888888889 0.8555555555555555 0.8736111111111111 0.88125 0.8833333333333333,0.7962962962962963 0.7481481481481482 0.6361111111111111 0.4916666666666667 0.3657407407407407 0.2731481481481481 0.16388888888888886 0.14814814814814814 0.13981481481481484 0.13796296296296295,732.7999999999884 752.7999999999884 772.7999999999884 792.7999999999884 812.7999999999884 832.7999999999884 852.7999999999884 872.7999999999884 892.7999999999884 912.7999999999884
cb_07,21.0,enc_trial,stim,response,Miami trip,1553.1000000000058,enc_trial,1.0,21.0,t_s_12_1,travel_shared,fold-b,clear toiletry bag,7.0,competing,far,paired,t_s_12_1.jpg,,travel-b1,Iceland trip,Miami trip,sub-05,1.0,1.0,1.0,1.0,0.4833333333333333 0.4819444444444445 0.4805555555555556 0.4798611111111111 0.4777777777777778 0.4673611111111111 0.4652777777777778 0.4638888888888889 0.4659722222222222 0.4701388888888889 0.4701388888888889 0.4701388888888889 0.4701388888888889 0.4701388888888889 0.4701388888888889 0.4701388888888889 0.4701388888888889 0.4701388888888889 0.4701388888888889 0.4652777777777778 0.4625 0.4625 0.4625 0.4625 0.4625 0.4625 0.4625 0.4625 0.4625 0.4631944444444445 0.5034722222222222 0.5652777777777778 0.6451388888888889 0.7319444444444444 0.8 0.8756944444444444 0.8861111111111111 0.8881944444444444 0.8881944444444444 0.8861111111111111 0.8840277777777777 0.8840277777777777 0.8840277777777777 0.8840277777777777 0.8840277777777777 0.8833333333333333 0.8833333333333333 0.8826388888888889 0.8826388888888889,0.8092592592592592 0.8092592592592592 0.8092592592592592 0.8092592592592592 0.8064814814814815 0.7907407407407407 0.7805555555555556 0.7703703703703704 0.7620370370370371 0.7592592592592593 0.7592592592592593 0.7592592592592593 0.7592592592592593 0.7592592592592593 0.7592592592592593 0.7592592592592593 0.7592592592592593 0.7592592592592593 0.7592592592592593 0.7712962962962963 0.7824074074074074 0.7833333333333333 0.7833333333333333 0.7833333333333333 0.7833333333333333 0.7842592592592592 0.7842592592592592 0.7842592592592592 0.7842592592592592 0.7814814814814814 0.6981481481481482 0.5824074074074075 0.4509259259259261 0.3388888888888889 0.27129629629629626 0.2157407407407408 0.2083333333333333 0.2064814814814815 0.2064814814814815 0.2055555555555556 0.2046296296296296 0.2046296296296296 0.2046296296296296 0.2046296296296296 0.2046296296296296 0.2046296296296296 0.20370370370370366 0.20277777777777767 0.20185185185185184,499.80000000001746 519.8000000000175 539.8000000000175 559.8000000000175 579.8000000000175 599.8000000000175 619.8000000000175 639.8000000000175 659.8000000000175 679.8000000000175 699.8000000000176 719.8000000000176 739.8000000000176 759.8000000000176 779.8000000000176 799.8000000000176 819.8000000000176 839.8000000000176 859.8000000000176 879.8000000000176 899.8000000000176 919.8000000000177 939.8000000000177 959.8000000000177 979.8000000000177 999.8000000000177 1019.8000000000177 1039.8000000000177 1059.8000000000177 1079.8000000000177 1099.8000000000177 1119.8000000000177 1139.8000000000175 1159.8000000000175 1179.8000000000175 1199.8000000000175 1219.8000000000175 1239.8000000000175 1259.8000000000175 1279.8000000000175 1299.8000000000175 1319.8000000000175 1339.8000000000175 1359.8000000000175 1379.8000000000175 1399.8000000000175 1419.8000000000175 1439.8000000000175 1459.8000000000175
cb_07,22.0,enc_trial,stim,response,Iceland trip,1230.7000000238475,enc_trial,1.0,22.0,t_i_07_1,travel_Iceland,fold-e-single,hiking backpack,7.0,unique,,single,t_i_07_1.jpg,Iceland,travel-b1,Iceland trip,Miami trip,sub-05,1.0,,1.0,,0.4909722222222222 0.4881944444444444 0.4826388888888889 0.4618055555555556 0.4291666666666665 0.2930555555555556 0.2326388888888889 0.17152777777777778 0.14583333333333334 0.14027777777777778 0.15555555555555556 0.16180555555555556 0.16319444444444445 0.16319444444444445 0.16319444444444445 0.16319444444444445 0.16319444444444445 0.16319444444444445 0.16319444444444445 0.16319444444444445 0.16319444444444445,0.8342592592592593 0.8342592592592593 0.8305555555555555 0.8055555555555556 0.7620370370370371 0.5351851851851852 0.4157407407407408 0.2759259259259259 0.1898148148148148 0.13611111111111107 0.0981481481481481 0.09351851851851856 0.09166666666666667 0.09166666666666667 0.09166666666666667 0.09166666666666667 0.09166666666666667 0.09166666666666667 0.09166666666666667 0.09166666666666667 0.09259259259259256,799.8999999999942 819.8999999999942 839.8999999999942 859.8999999999942 879.8999999999942 899.8999999999942 919.8999999999942 939.8999999999942 959.8999999999942 979.8999999999942 999.8999999999942 1019.8999999999942 1039.8999999999942 1059.8999999999942 1079.8999999999942 1099.8999999999942 1119.8999999999942 1139.8999999999942 1159.8999999999942 1179.8999999999942 1199.8999999999942
cb_07,23.0,enc_trial,stim,response,Miami trip,1038.9000000119267,enc_trial,1.0,23.0,t_s_21_2,travel_shared,fold-b,umbrella,7.0,competing,far,paired,t_s_21_2.jpg,,travel-b1,Iceland trip,Miami trip,sub-05,0.0,0.0,1.0,1.0,0.5034722222222222 0.5034722222222222 0.5034722222222222 0.5034722222222222 0.5034722222222222 0.5034722222222222 0.5034722222222222 0.5034722222222222 0.5034722222222222 0.5034722222222222 0.5034722222222222 0.5034722222222222 0.5034722222222222 0.5034722222222222 0.5034722222222222 0.5034722222222222 0.5034722222222222 0.5034722222222222 0.5034722222222222 0.5034722222222222 0.5034722222222222 0.5034722222222222 0.5034722222222222 0.5034722222222222 0.5034722222222222 0.5034722222222222 0.5055555555555555 0.5118055555555555 0.5236111111111111 0.5416666666666666 0.5965277777777778 0.63125 0.6770833333333334 0.7180555555555556 0.7520833333333333 0.7923611111111111 0.80625 0.8152777777777778 0.8194444444444444 0.8201388888888889 0.8201388888888889 0.8201388888888889 0.8201388888888889 0.8201388888888889 0.8201388888888889 0.8201388888888889 0.8201388888888889 0.8215277777777777 0.8229166666666666,0.8185185185185185 0.8175925925925926 0.8166666666666667 0.8166666666666667 0.8166666666666667 0.8157407407407408 0.8157407407407408 0.8157407407407408 0.8157407407407408 0.8157407407407408 0.8157407407407408 0.8157407407407408 0.8157407407407408 0.8157407407407408 0.8157407407407408 0.8157407407407408 0.8157407407407408 0.8157407407407408 0.8157407407407408 0.8157407407407408 0.8157407407407408 0.8157407407407408 0.8157407407407408 0.8157407407407408 0.8157407407407408 0.8157407407407408 0.8092592592592592 0.7944444444444445 0.7592592592592593 0.7018518518518518 0.5240740740740741 0.4296296296296296 0.3296296296296296 0.25555555555555554 0.2055555555555556 0.1601851851851852 0.14722222222222225 0.13981481481481484 0.13796296296296295 0.13796296296296295 0.13796296296296295 0.13796296296296295 0.13796296296296295 0.13796296296296295 0.13796296296296295 0.13796296296296295 0.13796296296296295 0.13796296296296295 0.13796296296296295,33.39999999999418 53.39999999999418 73.3999999999942 93.39999999999418 113.39999999999418 133.39999999999418 153.39999999999418 173.3999999999942 193.39999999999415 213.39999999999415 233.39999999999415 253.39999999999415 273.3999999999942 293.3999999999942 313.3999999999942 333.3999999999942 353.3999999999942 373.3999999999942 393.3999999999942 413.3999999999942 433.3999999999942 453.3999999999942 473.3999999999942 493.3999999999942 513.3999999999942 533.3999999999942 553.3999999999942 573.3999999999943 593.3999999999943 613.3999999999943 633.3999999999943 653.3999999999943 673.3999999999943 693.3999999999942 713.3999999999942 733.3999999999942 753.3999999999942 773.3999999999942 793.3999999999942 813.3999999999942 833.3999999999942 853.3999999999942 873.3999999999942 893.3999999999942 913.3999999999942 933.3999999999942 953.3999999999942 973.3999999999942 993.3999999999942
cb_07,24.0,enc_trial,stim,response,Iceland trip,1166.100000023842,enc_trial,1.0,24.0,t_i_14_2,travel_Iceland,fold-c,snow pants,7.0,unique,close,paired,t_i_14_2.jpg,Iceland,travel-b1,Iceland trip,Miami trip,sub-05,1.0,1.0,1.0,1.0,0.4972222222222222 0.5055555555555555 0.5208333333333334 0.5361111111111111 0.5506944444444445 0.5798611111111112 0.5819444444444445 0.5819444444444445 0.5819444444444445 0.5819444444444445 0.5819444444444445 0.5819444444444445 0.5819444444444445 0.5819444444444445 0.5819444444444445 0.5444444444444444 0.5055555555555555 0.4493055555555556 0.37916666666666665 0.3229166666666667 0.20972222222222225 0.17430555555555555 0.15416666666666667 0.14652777777777778 0.14583333333333334 0.14583333333333334 0.14583333333333334 0.14583333333333334 0.14583333333333334 0.14583333333333334,0.8231481481481482 0.7962962962962963 0.7425925925925926 0.6861111111111111 0.6388888888888888 0.5916666666666667 0.5898148148148148 0.5898148148148148 0.5898148148148148 0.5898148148148148 0.5898148148148148 0.5898148148148148 0.5898148148148148 0.5898148148148148 0.5898148148148148 0.5796296296296296 0.537037037037037 0.4694444444444445 0.3814814814814815 0.3055555555555556 0.18611111111111112 0.16759259259259265 0.15648148148148144 0.14907407407407405 0.14814814814814814 0.14814814814814814 0.14814814814814814 0.14814814814814814 0.14814814814814814 0.14907407407407405,516.5 536.5 556.5 576.5 596.5 616.5 636.5 656.5 676.5 696.5 716.5 736.5 756.5 776.5 796.5 816.5 836.5 856.5 876.5 896.5 916.5 936.5 956.5 976.5 996.5 1016.5 1036.5 1056.5 1076.5 1096.5
cb_07,25.0,enc_trial,stim,response,Miami trip,1447.8999999880907,enc_trial,1.0,25.0,t_s_04_1,travel_shared,fold-c-single,instant camera,7.0,competing,,single,t_s_04_1.jpg,,travel-b1,Iceland trip,Miami trip,sub-05,1.0,,1.0,,0.5201388888888889 0.5229166666666667 0.525 0.5263888888888889 0.5277777777777778 0.5298611111111111 0.5298611111111111 0.5298611111111111 0.5298611111111111 0.5298611111111111 0.5298611111111111 0.5298611111111111 0.5298611111111111 0.5298611111111111 0.5298611111111111 0.5298611111111111 0.5298611111111111 0.5298611111111111 0.5298611111111111 0.5298611111111111 0.5298611111111111 0.5298611111111111 0.5298611111111111 0.5298611111111111 0.5298611111111111 0.5298611111111111 0.5298611111111111 0.5298611111111111 0.5298611111111111 0.5298611111111111 0.5270833333333333 0.5256944444444445 0.5256944444444445 0.5256944444444445 0.5256944444444445 0.5256944444444445 0.5256944444444445 0.5256944444444445 0.5256944444444445 0.5256944444444445 0.5256944444444445 0.5236111111111111 0.5180555555555556 0.5166666666666667 0.5166666666666667 0.5222222222222223 0.5395833333333333 0.5729166666666666 0.6243055555555556 0.6736111111111112 0.7486111111111111 0.7756944444444445 0.7916666666666666 0.7993055555555556 0.8020833333333334 0.8020833333333334 0.8020833333333334 0.8020833333333334 0.8020833333333334 0.8020833333333334 0.8020833333333334 0.8020833333333334 0.8020833333333334 0.8020833333333334 0.8020833333333334 0.8027777777777778 0.80625 0.8104166666666667 0.8152777777777778 0.8180555555555555,0.7194444444444444 0.6925925925925926 0.6731481481481482 0.6601851851851852 0.65 0.637962962962963 0.6361111111111111 0.6351851851851852 0.6351851851851852 0.6351851851851852 0.6351851851851852 0.6351851851851852 0.6351851851851852 0.6351851851851852 0.6351851851851852 0.6351851851851852 0.6342592592592593 0.6342592592592593 0.6342592592592593 0.6342592592592593 0.6342592592592593 0.6342592592592593 0.6342592592592593 0.6342592592592593 0.6342592592592593 0.6342592592592593 0.6342592592592593 0.6342592592592593 0.6342592592592593 0.6342592592592593 0.6314814814814815 0.6277777777777778 0.6277777777777778 0.6277777777777778 0.6277777777777778 0.6277777777777778 0.6277777777777778 0.6277777777777778 0.6277777777777778 0.6277777777777778 0.6277777777777778 0.6296296296296297 0.6351851851851852 0.6351851851851852 0.6351851851851852 0.6055555555555556 0.5583333333333333 0.487037037037037 0.3925925925925926 0.3212962962962963 0.2398148148148148 0.2157407407407408 0.20092592592592595 0.19351851851851853 0.1898148148148148 0.1898148148148148 0.1898148148148148 0.1898148148148148 0.1898148148148148 0.1898148148148148 0.1898148148148148 0.1898148148148148 0.1898148148148148 0.1898148148148148 0.1898148148148148 0.1898148148148148 0.18611111111111112 0.18240740740740746 0.17962962962962958 0.1777777777777778,0.0 20.0 40.0 60.0 80.0 100.0 120.0 140.0 160.0 180.0 200.0 220.0 240.0 260.0 280.0 300.0 320.0 340.0 360.0 380.0 400.0 420.0 440.0 460.0 480.0 500.0 520.0 540.0 560.0 580.0 600.0 620.0 640.0 660.0 680.0 700.0 720.0 740.0 760.0 780.0 800.0 820.0 840.0 860.0 880.0 900.0 920.0 940.0 960.0 980.0 1000.0 1020.0 1040.0 1060.0 1080.0 1100.0 1120.0 1140.0 1160.0 1180.0 1200.0 1220.0 1240.0 1260.0 1280.0 1300.0 1320.0 1340.0 1360.0 1380.0
cb_07,26.0,enc_trial,stim,response,Miami trip,1375.2000000238475,enc_trial,1.0,26.0,t_s_08_1,travel_shared,fold-a,hand lotion,7.0,competing,close,paired,t_s_08_1.jpg,,travel-b1,Iceland trip,Miami trip,sub-05,0.0,0.0,1.0,1.0,0.5 0.5 0.5 0.5 0.5 0.5 0.5 0.5 0.5 0.5 0.5 0.5 0.5 0.5 0.5 0.5 0.5 0.5 0.5 0.5 0.5 0.5 0.5 0.5 0.5 0.5 0.5 0.5 0.5 0.5 0.5 0.5 0.5 0.5 0.5 0.49375 0.4881944444444444 0.48125 0.4736111111111111 0.4618055555555556 0.4097222222222222 0.3631944444444444 0.31666666666666665 0.2923611111111111 0.29375 0.3736111111111111 0.4340277777777778 0.5055555555555555 0.5458333333333333 0.6131944444444445 0.7576388888888889 0.7965277777777777 0.8180555555555555 0.8229166666666666 0.8229166666666666 0.8229166666666666 0.8229166666666666 0.8229166666666666 0.8229166666666666 0.8236111111111111 0.8236111111111111 0.8236111111111111 0.8236111111111111 0.825 0.8277777777777777 0.8305555555555556,0.8361111111111111 0.8361111111111111 0.8361111111111111 0.8361111111111111 0.8361111111111111 0.8361111111111111 0.8361111111111111 0.8361111111111111 0.8361111111111111 0.8361111111111111 0.8361111111111111 0.8361111111111111 0.8361111111111111 0.8361111111111111 0.8361111111111111 0.8361111111111111 0.8361111111111111 0.8361111111111111 0.8361111111111111 0.8361111111111111 0.8361111111111111 0.8361111111111111 0.8361111111111111 0.8361111111111111 0.8361111111111111 0.8361111111111111 0.8361111111111111 0.8361111111111111 0.8361111111111111 0.8361111111111111 0.8361111111111111 0.8361111111111111 0.8361111111111111 0.8361111111111111 0.8361111111111111 0.8333333333333334 0.8324074074074074 0.8296296296296296 0.825 0.8157407407407408 0.7537037037037038 0.6777777777777778 0.587037037037037 0.4861111111111112 0.4027777777777778 0.2768518518518519 0.2416666666666667 0.2129629629629629 0.20092592592592595 0.18518518518518529 0.17314814814814816 0.17314814814814816 0.17314814814814816 0.17314814814814816 0.17314814814814816 0.17314814814814816 0.17314814814814816 0.17314814814814816 0.17314814814814816 0.17314814814814816 0.17314814814814816 0.17314814814814816 0.17314814814814816 0.17222222222222228 0.1703703703703704 0.1685185185185185,16.60000000000582 36.60000000000582 56.60000000000582 76.6000000000058 96.60000000000582 116.60000000000582 136.60000000000582 156.60000000000582 176.6000000000058 196.60000000000585 216.60000000000585 236.60000000000585 256.6000000000058 276.6000000000058 296.6000000000058 316.6000000000058 336.6000000000058 356.6000000000058 376.6000000000058 396.6000000000058 416.6000000000058 436.6000000000058 456.6000000000058 476.6000000000058 496.6000000000058 516.6000000000058 536.6000000000058 556.6000000000058 576.6000000000057 596.6000000000057 616.6000000000057 636.6000000000057 656.6000000000057 676.6000000000057 696.6000000000058 716.6000000000058 736.6000000000058 756.6000000000058 776.6000000000058 796.6000000000058 816.6000000000058 836.6000000000058 856.6000000000058 876.6000000000058 896.6000000000058 916.6000000000058 936.6000000000058 956.6000000000058 976.6000000000058 996.6000000000058 1016.6000000000058 1036.6000000000058 1056.6000000000058 1076.6000000000058 1096.6000000000058 1116.6000000000058 1136.6000000000058 1156.6000000000058 1176.6000000000058 1196.6000000000058 1216.6000000000058 1236.6000000000058 1256.6000000000058 1276.6000000000058 1296.6000000000058 1316.6000000000058
cb_07,27.0,enc_trial,stim,response,Iceland trip,1165.2000000119149,enc_trial,1.0,27.0,t_i_02_1,travel_Iceland,fold-e-single,scarf,7.0,unique,,single,t_i_02_1.jpg,Iceland,travel-b1,Iceland trip,Miami trip,sub-05,1.0,,1.0,,0.6236111111111111 0.6402777777777777 0.65 0.6569444444444444 0.6611111111111111 0.6625 0.6625 0.6625 0.6625 0.6625 0.6625 0.6625 0.6625 0.6625 0.6625 0.6625 0.6625 0.6625 0.6625 0.6618055555555555 0.6618055555555555 0.6618055555555555 0.6618055555555555 0.6611111111111111 0.6611111111111111 0.6604166666666667 0.6604166666666667 0.6604166666666667 0.6604166666666667 0.6604166666666667 0.6604166666666667 0.6604166666666667 0.6604166666666667 0.6604166666666667 0.6604166666666667 0.6381944444444444 0.6319444444444444 0.6236111111111111 0.6152777777777778 0.6027777777777777 0.5652777777777778 0.5201388888888889 0.4479166666666667 0.35347222222222224 0.2534722222222222 0.10972222222222222 0.07569444444444444 0.06319444444444444 0.0625 0.06597222222222222 0.07361111111111111 0.07430555555555557,0.6731481481481482 0.6574074074074074 0.6481481481481481 0.6407407407407407 0.6370370370370371 0.6342592592592593 0.6342592592592593 0.6342592592592593 0.6342592592592593 0.6342592592592593 0.6342592592592593 0.6342592592592593 0.6342592592592593 0.6342592592592593 0.6342592592592593 0.6342592592592593 0.6342592592592593 0.6342592592592593 0.6342592592592593 0.6342592592592593 0.6342592592592593 0.6342592592592593 0.6342592592592593 0.6342592592592593 0.6342592592592593 0.6296296296296297 0.6296296296296297 0.6296296296296297 0.6296296296296297 0.6296296296296297 0.6296296296296297 0.6296296296296297 0.6296296296296297 0.6296296296296297 0.6296296296296297 0.6472222222222221 0.65 0.6518518518518519 0.6518518518518519 0.6453703703703704 0.625925925925926 0.6 0.55 0.4796296296296296 0.39907407407407397 0.2694444444444445 0.2240740740740741 0.19907407407407407 0.18611111111111112 0.1805555555555556 0.17592592592592593 0.17592592592592593,0.0 20.0 40.0 60.0 80.0 100.0 120.0 140.0 160.0 180.0 200.0 220.0 240.0 260.0 280.0 300.0 320.0 340.0 360.0 380.0 400.0 420.0 440.0 460.0 480.0 500.0 520.0 540.0 560.0 580.0 600.0 620.0 640.0 660.0 680.0 700.0 720.0 740.0 760.0 780.0 800.0 820.0 840.0 860.0 880.0 900.0 920.0 940.0 960.0 980.0 1000.0 1020.0
cb_07,28.0,enc_trial,stim,response,Iceland trip,1143.7000000000114,enc_trial,1.0,28.0,t_i_06_2,travel_Iceland,fold-d,knit hat,7.0,unique,far,paired,t_i_06_2.jpg,Iceland,travel-b1,Iceland trip,Miami trip,sub-05,1.0,1.0,1.0,1.0,0.6298611111111111 0.6298611111111111 0.6298611111111111 0.6298611111111111 0.6298611111111111 0.6298611111111111 0.6298611111111111 0.6298611111111111 0.6298611111111111 0.6298611111111111 0.6298611111111111 0.6298611111111111 0.6298611111111111 0.6298611111111111 0.6298611111111111 0.6298611111111111 0.6298611111111111 0.6298611111111111 0.6298611111111111 0.6298611111111111 0.6298611111111111 0.6298611111111111 0.6298611111111111 0.6298611111111111 0.6298611111111111 0.6298611111111111 0.6277777777777778 0.625 0.6208333333333333 0.6166666666666667 0.6076388888888888 0.5993055555555555 0.5826388888888889 0.5569444444444445 0.5145833333333333 0.4243055555555556 0.3958333333333333 0.37222222222222223 0.3486111111111111 0.3395833333333333 0.3395833333333333 0.3395833333333333 0.3395833333333333 0.3395833333333333 0.3395833333333333 0.3395833333333333 0.3395833333333333 0.3388888888888889 0.31527777777777777 0.27847222222222223 0.2180555555555556 0.19375 0.17569444444444446 0.16597222222222222 0.1625 0.16180555555555556,0.8768518518518519 0.8768518518518519 0.8768518518518519 0.8768518518518519 0.8768518518518519 0.8768518518518519 0.8768518518518519 0.8768518518518519 0.8768518518518519 0.8768518518518519 0.8768518518518519 0.8768518518518519 0.8768518518518519 0.8768518518518519 0.8768518518518519 0.8768518518518519 0.8768518518518519 0.8768518518518519 0.8768518518518519 0.8768518518518519 0.8768518518518519 0.8768518518518519 0.8768518518518519 0.8768518518518519 0.8768518518518519 0.8768518518518519 0.8740740740740741 0.8694444444444445 0.8611111111111112 0.8453703703703703 0.7805555555555556 0.7212962962962963 0.6398148148148148 0.5555555555555556 0.4712962962962963 0.34351851851851856 0.31018518518518523 0.2972222222222223 0.2962962962962963 0.29814814814814816 0.29814814814814816 0.29814814814814816 0.29814814814814816 0.29814814814814816 0.29814814814814816 0.29814814814814816 0.29814814814814816 0.29814814814814816 0.2861111111111111 0.2601851851851852 0.2157407407407408 0.19814814814814816 0.18425925925925926 0.17407407407407405 0.16759259259259265 0.16481481481481486,0.0 20.0 40.0 60.0 80.0 100.0 120.0 140.0 160.0 180.0 200.0 220.0 240.0 260.0 280.0 300.0 320.0 340.0 360.0 380.0 400.0 420.0 440.0 460.0 480.0 500.0 520.0 540.0 560.0 580.0 600.0 620.0 640.0 660.0 680.0 700.0 720.0 740.0 760.0 780.0 800.0 820.0 840.0 860.0 880.0 900.0 920.0 940.0 960.0 980.0 1000.0 1020.0 1040.0 1060.0 1080.0 1100.0
cb_07,29.0,enc_trial,stim,response,Miami trip,1303.0,enc_trial,1.0,29.0,t_s_13_1,travel_shared,fold-c-single,contact lens case,7.0,competing,,single,t_s_13_1.jpg,,travel-b1,Iceland trip,Miami trip,sub-05,1.0,,1.0,,0.27291666666666664 0.26666666666666666 0.2652777777777778 0.2652777777777778 0.2652777777777778 0.2652777777777778 0.2652777777777778 0.2652777777777778 0.2652777777777778 0.2652777777777778 0.2652777777777778 0.2652777777777778 0.2652777777777778 0.2652777777777778 0.2652777777777778 0.2652777777777778 0.2652777777777778 0.2652777777777778 0.2652777777777778 0.2652777777777778 0.2652777777777778 0.2652777777777778 0.2652777777777778 0.2652777777777778 0.2652777777777778 0.2652777777777778 0.2652777777777778 0.2652777777777778 0.2652777777777778 0.2652777777777778 0.2652777777777778 0.2652777777777778 0.2645833333333333 0.2638888888888889 0.2638888888888889 0.2638888888888889 0.2638888888888889 0.2638888888888889 0.2638888888888889 0.2638888888888889 0.2618055555555556 0.2611111111111111 0.2604166666666667 0.2659722222222222 0.2861111111111111 0.4041666666666667 0.4861111111111111 0.5701388888888889 0.6569444444444444 0.7368055555555556 0.8409722222222222 0.8583333333333333 0.8618055555555556 0.8618055555555556 0.8618055555555556 0.8618055555555556 0.8618055555555556 0.8618055555555556 0.8618055555555556 0.8645833333333334 0.86875 0.8694444444444445,0.7731481481481481 0.7694444444444444 0.7675925925925926 0.7666666666666666 0.7666666666666666 0.7666666666666666 0.7666666666666666 0.7666666666666666 0.7666666666666666 0.7666666666666666 0.7666666666666666 0.7666666666666666 0.7666666666666666 0.7666666666666666 0.7666666666666666 0.7666666666666666 0.7666666666666666 0.7666666666666666 0.7666666666666666 0.7666666666666666 0.7666666666666666 0.7666666666666666 0.7666666666666666 0.7666666666666666 0.7666666666666666 0.7666666666666666 0.7666666666666666 0.7666666666666666 0.7666666666666666 0.7666666666666666 0.7666666666666666 0.7666666666666666 0.7666666666666666 0.7666666666666666 0.7666666666666666 0.7666666666666666 0.7666666666666666 0.7666666666666666 0.7666666666666666 0.7666666666666666 0.7657407407407407 0.7648148148148148 0.7601851851851852 0.7435185185185185 0.7064814814814815 0.5435185185185185 0.4509259259259261 0.3731481481481481 0.3037037037037037 0.24722222222222226 0.1805555555555556 0.1703703703703704 0.16666666666666666 0.16666666666666666 0.16666666666666666 0.16574074074074074 0.16481481481481486 0.1620370370370371 0.15833333333333333 0.15462962962962967 0.14722222222222225 0.14722222222222225,0.0 20.0 40.0 60.0 80.0 100.0 120.0 140.0 160.0 180.0 200.0 220.0 240.0 260.0 280.0 300.0 320.0 340.0 360.0 380.0 400.0 420.0 440.0 460.0 480.0 500.0 520.0 540.0 560.0 580.0 600.0 620.0 640.0 660.0 680.0 700.0 720.0 740.0 760.0 780.0 800.0 820.0 840.0 860.0 880.0 900.0 920.0 940.0 960.0 980.0 1000.0 1020.0 1040.0 1060.0 1080.0 1100.0 1120.0 1140.0 1160.0 1180.0 1200.0 1220.0
cb_07,30.0,enc_trial,stim,response,Miami trip,1086.1000000000058,enc_trial,1.0,30.0,t_m_20_1,travel_Miami,fold-e-single,inflatable beachball,7.0,unique,,single,t_m_20_1.jpg,Miami,travel-b1,Iceland trip,Miami trip,sub-05,1.0,,1.0,,0.5416666666666666 0.5361111111111111 0.5236111111111111 0.5041666666666667 0.4770833333333334 0.4180555555555556 0.39166666666666666 0.3694444444444445 0.35347222222222224 0.3458333333333333 0.3423611111111111 0.3423611111111111 0.3423611111111111 0.3423611111111111 0.3423611111111111 0.3423611111111111 0.3423611111111111 0.3423611111111111 0.3423611111111111 0.3423611111111111 0.3416666666666667 0.34097222222222223 0.3402777777777778 0.3388888888888889 0.3375 0.3368055555555556 0.3368055555555556 0.3368055555555556 0.3368055555555556 0.3368055555555556 0.3368055555555556 0.3368055555555556 0.3368055555555556 0.33611111111111114 0.3118055555555556 0.3090277777777778 0.3381944444444445 0.4006944444444445 0.4916666666666666 0.5854166666666667 0.7569444444444444 0.8222222222222222 0.8666666666666667 0.88125 0.8833333333333333 0.8833333333333333 0.8826388888888889 0.8819444444444444 0.88125,0.812037037037037 0.812037037037037 0.812962962962963 0.812962962962963 0.812962962962963 0.8138888888888889 0.8138888888888889 0.8138888888888889 0.812962962962963 0.812037037037037 0.8111111111111111 0.8111111111111111 0.8111111111111111 0.8111111111111111 0.8111111111111111 0.8111111111111111 0.8111111111111111 0.8111111111111111 0.8101851851851851 0.8101851851851851 0.8083333333333333 0.8064814814814815 0.8046296296296296 0.8009259259259259 0.7972222222222223 0.7916666666666666 0.7916666666666666 0.7916666666666666 0.7916666666666666 0.7916666666666666 0.7916666666666666 0.7916666666666666 0.7916666666666666 0.7916666666666666 0.799074074074074 0.787037037037037 0.7425925925925926 0.6574074074074074 0.537962962962963 0.4185185185185185 0.2277777777777777 0.17129629629629628 0.1435185185185185 0.13703703703703707 0.13703703703703707 0.13703703703703707 0.13703703703703707 0.13703703703703707 0.13796296296296295,16.5 36.5 56.5 76.5 96.5 116.5 136.5 156.5 176.5 196.5 216.5 236.5 256.5 276.5 296.5 316.5 336.5 356.5 376.5 396.5 416.5 436.5 456.5 476.5 496.5 516.5 536.5 556.5 576.5 596.5 616.5 636.5 656.5 676.5 696.5 716.5 736.5 756.5 776.5 796.5 816.5 836.5 856.5 876.5 896.5 916.5 936.5 956.5 976.5
cb_07,31.0,enc_trial,stim,response,Miami trip,1405.1000000357744,enc_trial,1.0,31.0,t_m_05_2,travel_Miami,fold-d,sunscreen,7.0,unique,far,paired,t_m_05_2.jpg,Miami,travel-b1,Iceland trip,Miami trip,sub-05,1.0,1.0,1.0,1.0,0.4979166666666667 0.4979166666666667 0.4993055555555556 0.5006944444444444 0.5020833333333333 0.5048611111111111 0.5069444444444444 0.5083333333333333 0.5090277777777777 0.5097222222222222 0.5097222222222222 0.5097222222222222 0.5097222222222222 0.5097222222222222 0.5097222222222222 0.5097222222222222 0.5097222222222222 0.5097222222222222 0.5097222222222222 0.5097222222222222 0.5097222222222222 0.5097222222222222 0.5097222222222222 0.5083333333333333 0.5069444444444444 0.5013888888888889 0.4979166666666667 0.4972222222222222 0.4965277777777778 0.4965277777777778 0.4930555555555556 0.4916666666666666 0.4902777777777778 0.4895833333333333 0.4895833333333333 0.4881944444444444 0.4881944444444444 0.4868055555555556 0.4854166666666666 0.4847222222222222 0.4833333333333333 0.4833333333333333 0.4833333333333333 0.4833333333333333 0.4833333333333333 0.4833333333333333 0.4833333333333333 0.4833333333333333 0.4819444444444445 0.4861111111111111 0.5680555555555555 0.6423611111111112 0.7229166666666667 0.7902777777777777 0.8402777777777778 0.8756944444444444 0.8770833333333333,0.8111111111111111 0.8046296296296296 0.7953703703703704 0.7833333333333333 0.7638888888888888 0.7157407407407408 0.6888888888888889 0.6694444444444445 0.6555555555555556 0.6462962962962964 0.6361111111111111 0.6342592592592593 0.6333333333333333 0.6324074074074074 0.6324074074074074 0.6324074074074074 0.6324074074074074 0.6324074074074074 0.6324074074074074 0.6324074074074074 0.6324074074074074 0.6324074074074074 0.6324074074074074 0.6324074074074074 0.6324074074074074 0.6342592592592593 0.6342592592592593 0.6342592592592593 0.6342592592592593 0.6342592592592593 0.6342592592592593 0.6351851851851852 0.6351851851851852 0.6351851851851852 0.6351851851851852 0.6351851851851852 0.6351851851851852 0.6351851851851852 0.6351851851851852 0.6351851851851852 0.6351851851851852 0.6351851851851852 0.6351851851851852 0.6351851851851852 0.6351851851851852 0.6351851851851852 0.6351851851851852 0.6351851851851852 0.6314814814814815 0.6092592592592593 0.4435185185185185 0.33333333333333337 0.2416666666666667 0.18425925925925926 0.14907407407407405 0.12592592592592589 0.125,0.0 20.0 40.0 60.0 80.0 100.0 120.0 140.0 160.0 180.0 200.0 220.0 240.0 260.0 280.0 300.0 320.0 340.0 360.0 380.0 400.0 420.0 440.0 460.0 480.0 500.0 520.0 540.0 560.0 580.0 600.0 620.0 640.0 660.0 680.0 700.0 720.0 740.0 760.0 780.0 800.0 820.0 840.0 860.0 880.0 900.0 920.0 940.0 960.0 980.0 1000.0 1020.0 1040.0 1060.0 1080.0 1100.0 1120.0
cb_07,32.0,enc_trial,stim,response,Miami trip,1251.199999988079,enc_trial,1.0,32.0,t_s_08_2,travel_shared,fold-a,hand lotion,7.0,competing,close,paired,t_s_08_2.jpg,,travel-b1,Iceland trip,Miami trip,sub-05,0.0,0.0,1.0,1.0,0.5076388888888889 0.5055555555555555 0.5034722222222222 0.5006944444444444 0.4979166666666667 0.4909722222222222 0.4833333333333333 0.4715277777777778 0.4486111111111111 0.41597222222222224 0.3263888888888889 0.2847222222222222 0.2520833333333333 0.2381944444444445 0.2375 0.2756944444444445 0.3083333333333333 0.34791666666666665 0.38333333333333336 0.41875 0.525 0.6090277777777777 0.7076388888888889 0.7902777777777777 0.8375 0.8652777777777778,0.8342592592592593 0.8351851851851853 0.8351851851851853 0.8361111111111111 0.8361111111111111 0.8361111111111111 0.8342592592592593 0.8296296296296296 0.8157407407407408 0.7851851851851852 0.6722222222222223 0.6064814814814814 0.5435185185185185 0.4935185185185185 0.4472222222222222 0.3592592592592593 0.3222222222222222 0.2935185185185185 0.2731481481481481 0.25462962962962965 0.2333333333333333 0.2231481481481481 0.2064814814814815 0.1898148148148148 0.1787037037037037 0.17129629629629628,566.6000000000057 586.6000000000057 606.6000000000057 626.6000000000057 646.6000000000057 666.6000000000057 686.6000000000057 706.6000000000058 726.6000000000058 746.6000000000058 766.6000000000058 786.6000000000058 806.6000000000058 826.6000000000058 846.6000000000058 866.6000000000058 886.6000000000058 906.6000000000056 926.6000000000056 946.6000000000056 966.6000000000056 986.6000000000056 1006.6000000000056 1026.6000000000058 1046.6000000000058 1066.6000000000058
cb_07,33.0,enc_trial,stim,response,Miami trip,1321.2999999999886,enc_trial,1.0,33.0,t_m_11_2,travel_Miami,fold-d,collapsible beach chair,7.0,unique,far,paired,t_m_11_2.jpg,Miami,travel-b1,Iceland trip,Miami trip,sub-05,1.0,1.0,1.0,1.0,0.4791666666666667 0.4777777777777778 0.4777777777777778 0.4777777777777778 0.4777777777777778 0.4777777777777778 0.4777777777777778 0.4777777777777778 0.4777777777777778 0.4777777777777778 0.4777777777777778 0.4777777777777778 0.4777777777777778 0.4777777777777778 0.4777777777777778 0.4777777777777778 0.4777777777777778 0.4777777777777778 0.4777777777777778 0.4777777777777778 0.4777777777777778 0.4777777777777778 0.4777777777777778 0.4777777777777778 0.4770833333333334 0.4770833333333334 0.4770833333333334 0.475 0.4708333333333333 0.4666666666666667 0.4659722222222222 0.4659722222222222 0.4659722222222222 0.4659722222222222 0.4659722222222222 0.4659722222222222 0.4659722222222222 0.4659722222222222 0.4659722222222222 0.4659722222222222 0.4576388888888889 0.4493055555555556 0.4444444444444444 0.44375 0.4423611111111111 0.4361111111111111 0.4319444444444445 0.4298611111111112 0.43125 0.44375 0.5333333333333333 0.6041666666666666 0.6791666666666667 0.7479166666666667 0.8083333333333333 0.8680555555555556 0.875 0.8763888888888889,0.6425925925925926 0.6314814814814815 0.6268518518518518 0.624074074074074 0.624074074074074 0.624074074074074 0.624074074074074 0.624074074074074 0.624074074074074 0.624074074074074 0.624074074074074 0.624074074074074 0.624074074074074 0.624074074074074 0.624074074074074 0.624074074074074 0.624074074074074 0.624074074074074 0.624074074074074 0.624074074074074 0.624074074074074 0.624074074074074 0.624074074074074 0.624074074074074 0.624074074074074 0.624074074074074 0.624074074074074 0.624074074074074 0.6231481481481482 0.6203703703703703 0.6166666666666667 0.6166666666666667 0.6166666666666667 0.6166666666666667 0.6166666666666667 0.6166666666666667 0.6166666666666667 0.6166666666666667 0.6166666666666667 0.6166666666666667 0.6212962962962962 0.6268518518518518 0.6287037037037038 0.6287037037037038 0.6287037037037038 0.6222222222222222 0.6157407407407407 0.6018518518518519 0.5768518518518518 0.5333333333333333 0.3953703703703704 0.3305555555555556 0.2787037037037037 0.2425925925925925 0.21759259259259256 0.19907407407407407 0.1962962962962963 0.1962962962962963,0.0 20.0 40.0 60.0 80.0 100.0 120.0 140.0 160.0 180.0 200.0 220.0 240.0 260.0 280.0 300.0 320.0 340.0 360.0 380.0 400.0 420.0 440.0 460.0 480.0 500.0 520.0 540.0 560.0 580.0 600.0 620.0 640.0 660.0 680.0 700.0 720.0 740.0 760.0 780.0 800.0 820.0 840.0 860.0 880.0 900.0 920.0 940.0 960.0 980.0 1000.0 1020.0 1040.0 1060.0 1080.0 1100.0 1120.0 1140.0
cb_07,34.0,enc_trial,stim,response,Iceland trip,1845.8999999999944,enc_trial,1.0,34.0,t_s_12_2,travel_shared,fold-b,clear toiletry bag,7.0,competing,far,paired,t_s_12_2.jpg,,travel-b1,Iceland trip,Miami trip,sub-05,1.0,1.0,1.0,1.0,0.50625 0.5131944444444444 0.5152777777777777 0.5159722222222223 0.51875 0.5208333333333334 0.5208333333333334 0.5208333333333334 0.5208333333333334 0.5208333333333334 0.5208333333333334 0.5208333333333334 0.5208333333333334 0.5208333333333334 0.5152777777777777 0.5069444444444444 0.5048611111111111 0.5020833333333333 0.5 0.4979166666666667 0.4958333333333334 0.4958333333333334 0.4958333333333334 0.4958333333333334 0.4958333333333334 0.4958333333333334 0.4958333333333334 0.4958333333333334 0.4958333333333334 0.4958333333333334 0.4958333333333334 0.4958333333333334 0.4958333333333334 0.4958333333333334 0.4958333333333334 0.4958333333333334 0.4958333333333334 0.4958333333333334 0.4958333333333334 0.4958333333333334 0.4958333333333334 0.4958333333333334 0.4958333333333334 0.4958333333333334 0.4958333333333334 0.4958333333333334 0.4958333333333334 0.4958333333333334 0.4958333333333334 0.4958333333333334 0.49375 0.4902777777777778 0.4826388888888889 0.4736111111111111 0.4618055555555556 0.4465277777777778 0.4430555555555555 0.44027777777777777 0.4395833333333333 0.4395833333333333 0.4388888888888889 0.4388888888888889 0.4388888888888889 0.4388888888888889 0.4388888888888889 0.4388888888888889 0.4361111111111111 0.4298611111111112 0.41458333333333336 0.3854166666666667 0.30416666666666664 0.2743055555555556 0.2520833333333333 0.2388888888888889 0.23680555555555555 0.2416666666666667 0.2416666666666667 0.2416666666666667 0.2416666666666667 0.2416666666666667 0.2416666666666667 0.2416666666666667 0.24027777777777776 0.22569444444444445 0.21041666666666667 0.1868055555555556 0.1701388888888889 0.15833333333333333 0.1486111111111111 0.1423611111111111 0.13958333333333334,0.7027777777777777 0.6787037037037037 0.6648148148148147 0.6555555555555556 0.65 0.6490740740740741 0.6490740740740741 0.6490740740740741 0.6490740740740741 0.6490740740740741 0.6490740740740741 0.6490740740740741 0.6490740740740741 0.6490740740740741 0.6527777777777778 0.6583333333333333 0.6583333333333333 0.6564814814814814 0.6518518518518519 0.6453703703703704 0.6388888888888888 0.637962962962963 0.637962962962963 0.637962962962963 0.637962962962963 0.637962962962963 0.637962962962963 0.637962962962963 0.637962962962963 0.637962962962963 0.637962962962963 0.637962962962963 0.637962962962963 0.637962962962963 0.6388888888888888 0.6388888888888888 0.6388888888888888 0.6388888888888888 0.6388888888888888 0.6388888888888888 0.6388888888888888 0.6388888888888888 0.6388888888888888 0.6388888888888888 0.6388888888888888 0.6388888888888888 0.6388888888888888 0.6388888888888888 0.6388888888888888 0.6388888888888888 0.6388888888888888 0.6388888888888888 0.6361111111111111 0.6333333333333333 0.6296296296296297 0.625 0.624074074074074 0.624074074074074 0.624074074074074 0.624074074074074 0.624074074074074 0.624074074074074 0.624074074074074 0.624074074074074 0.624074074074074 0.624074074074074 0.6212962962962962 0.6129629629629629 0.5851851851851853 0.5212962962962964 0.3712962962962964 0.3314814814814815 0.3083333333333333 0.2953703703703704 0.2935185185185185 0.29907407407407405 0.29907407407407405 0.29907407407407405 0.29907407407407405 0.29907407407407405 0.29907407407407405 0.29907407407407405 0.29907407407407405 0.2898148148148149 0.2685185185185185 0.2064814814814815 0.1805555555555556 0.16666666666666666 0.15462962962962967 0.14907407407407405 0.14537037037037034,0.0 20.0 40.0 60.0 80.0 100.0 120.0 140.0 160.0 180.0 200.0 220.0 240.0 260.0 280.0 300.0 320.0 340.0 360.0 380.0 400.0 420.0 440.0 460.0 480.0 500.0 520.0 540.0 560.0 580.0 600.0 620.0 640.0 660.0 680.0 700.0 720.0 740.0 760.0 780.0 800.0 820.0 840.0 860.0 880.0 900.0 920.0 940.0 960.0 980.0 1000.0 1020.0 1040.0 1060.0 1080.0 1100.0 1120.0 1140.0 1160.0 1180.0 1200.0 1220.0 1240.0 1260.0 1280.0 1300.0 1320.0 1340.0 1360.0 1380.0 1400.0 1420.0 1440.0 1460.0 1480.0 1500.0 1520.0 1540.0 1560.0 1580.0 1600.0 1620.0 1640.0 1660.0 1680.0 1700.0 1720.0 1740.0 1760.0 1780.0 1800.0
cb_07,35.0,enc_trial,stim,response,Iceland trip,1451.9000000357626,enc_trial,1.0,35.0,t_i_04_1,travel_Iceland,fold-c,portable camping stove,7.0,unique,close,paired,t_i_04_1.jpg,Iceland,travel-b1,Iceland trip,Miami trip,sub-05,1.0,1.0,1.0,1.0,0.5145833333333333 0.5131944444444444 0.5090277777777777 0.5041666666666667 0.4993055555555556 0.4840277777777778 0.4791666666666667 0.4763888888888889 0.475 0.475 0.475 0.475 0.4743055555555555 0.4743055555555555 0.4743055555555555 0.4743055555555555 0.4743055555555555 0.4743055555555555 0.4743055555555555 0.4743055555555555 0.4743055555555555 0.4743055555555555 0.475 0.475 0.475 0.475 0.475 0.475 0.475 0.4729166666666666 0.4666666666666667 0.4659722222222222 0.4659722222222222 0.4659722222222222 0.4659722222222222 0.4652777777777778 0.4652777777777778 0.4652777777777778 0.4652777777777778 0.4652777777777778 0.4652777777777778 0.4652777777777778 0.4652777777777778 0.4652777777777778 0.4652777777777778 0.4638888888888889 0.4569444444444444 0.4375 0.4118055555555555 0.3680555555555556 0.2902777777777778 0.25416666666666665 0.21875 0.2 0.19375 0.1951388888888889 0.19791666666666666 0.1986111111111111 0.1986111111111111 0.19722222222222224 0.1951388888888889 0.19444444444444445 0.19444444444444445 0.19444444444444445 0.19375 0.18541666666666667 0.17569444444444446 0.16805555555555554 0.16319444444444445 0.16111111111111112 0.16041666666666668,0.8148148148148149 0.8101851851851851 0.799074074074074 0.7833333333333333 0.7657407407407407 0.7138888888888889 0.6953703703703704 0.6833333333333333 0.675 0.6712962962962963 0.6675925925925925 0.6675925925925925 0.6666666666666667 0.6666666666666667 0.6657407407407407 0.6657407407407407 0.6657407407407407 0.6648148148148147 0.6648148148148147 0.6648148148148147 0.6638888888888889 0.6638888888888889 0.6638888888888889 0.6638888888888889 0.6638888888888889 0.6638888888888889 0.6638888888888889 0.6638888888888889 0.6638888888888889 0.6685185185185185 0.6768518518518518 0.6777777777777778 0.6777777777777778 0.6777777777777778 0.6777777777777778 0.6777777777777778 0.6777777777777778 0.6777777777777778 0.6777777777777778 0.6777777777777778 0.6777777777777778 0.6777777777777778 0.6777777777777778 0.6777777777777778 0.6777777777777778 0.6777777777777778 0.6731481481481482 0.6601851851851852 0.6342592592592593 0.5703703703703704 0.4314814814814815 0.3472222222222222 0.2611111111111111 0.2148148148148148 0.18888888888888888 0.16759259259259265 0.15740740740740744 0.14907407407407405 0.1444444444444445 0.14166666666666672 0.13981481481481484 0.13888888888888884 0.13888888888888884 0.13888888888888884 0.13888888888888884 0.13888888888888884 0.14074074074074072 0.14166666666666672 0.1425925925925926 0.1435185185185185 0.1435185185185185,33.39999999999418 53.39999999999418 73.3999999999942 93.39999999999418 113.39999999999418 133.39999999999418 153.39999999999418 173.3999999999942 193.39999999999415 213.39999999999415 233.39999999999415 253.39999999999415 273.3999999999942 293.3999999999942 313.3999999999942 333.3999999999942 353.3999999999942 373.3999999999942 393.3999999999942 413.3999999999942 433.3999999999942 453.3999999999942 473.3999999999942 493.3999999999942 513.3999999999942 533.3999999999942 553.3999999999942 573.3999999999943 593.3999999999943 613.3999999999943 633.3999999999943 653.3999999999943 673.3999999999943 693.3999999999942 713.3999999999942 733.3999999999942 753.3999999999942 773.3999999999942 793.3999999999942 813.3999999999942 833.3999999999942 853.3999999999942 873.3999999999942 893.3999999999942 913.3999999999942 933.3999999999942 953.3999999999942 973.3999999999942 993.3999999999942 1013.3999999999942 1033.3999999999942 1053.3999999999942 1073.3999999999942 1093.3999999999942 1113.3999999999942 1133.3999999999942 1153.3999999999942 1173.3999999999942 1193.3999999999942 1213.3999999999942 1233.3999999999942 1253.3999999999942 1273.3999999999942 1293.3999999999942 1313.3999999999942 1333.3999999999942 1353.3999999999942 1373.3999999999942 1393.3999999999942 1413.3999999999942 1433.3999999999942
cb_07,36.0,enc_trial,stim,response,Miami trip,1444.500000023836,enc_trial,1.0,36.0,t_s_20_2,travel_shared,fold-a,travel pill case,7.0,competing,close,paired,t_s_20_2.jpg,,travel-b1,Iceland trip,Miami trip,sub-05,1.0,1.0,1.0,0.0,0.5055555555555555 0.5125 0.5423611111111111 0.5868055555555556 0.6486111111111111 0.7118055555555556 0.8166666666666667 0.8423611111111111 0.8597222222222223 0.8659722222222223 0.8666666666666667 0.8666666666666667 0.8666666666666667 0.8673611111111111,0.7907407407407407 0.7638888888888888 0.6759259259259259 0.5666666666666667 0.4462962962962963 0.3564814814814815 0.24537037037037035 0.2138888888888889 0.18888888888888888 0.17962962962962958 0.1777777777777778 0.17592592592592593 0.17592592592592593 0.17592592592592593,799.6999999999823 819.6999999999823 839.6999999999823 859.6999999999823 879.6999999999823 899.6999999999823 919.6999999999823 939.6999999999823 959.6999999999823 979.6999999999823 999.6999999999823 1019.6999999999823 1039.6999999999823 1059.6999999999823
