Current Spreadsheet,Trial Number,Display,Screen,Response Type,Response,Reaction Time,display,block,block_trial,stimulus_id,expected_goal,fold,stimulus_name,c_group,condition,within_block_dist,paired_status,stimulus_path,expected_location,block_split,respStim_1,respStim_2,sub_label,acc,both_enc_acc,assoc_stim1_acc,assoc_stim2_acc,x_pos,y_pos,time_trajectories
cb_01,1.0,enc_trial,stim,response,Miami trip,1425.0,enc_trial,1.0,1.0,t_m_17_1,travel_Miami,fold-a,water gun,1.0,unique,close,paired,t_m_17_1.jpg,Miami,travel-b1,Iceland trip,Miami trip,sub-82,1.0,1.0,1.0,1.0,0.4985676088617265 0.4991405653170359 0.4991405653170359 0.4985676088617265 0.4985676088617265 0.4985676088617265 0.4985676088617265 0.4985676088617265 0.4991405653170359 0.4991405653170359 0.5002864782276547 0.5002864782276547 0.5008594346829641 0.4968487394957983 0.4859625668449198 0.4641902215431627 0.4395530939648585 0.4109052711993889 0.3776737967914439 0.34616119174942706 0.3232429335370512 0.3129297173414821 0.3026165011459129 0.28485485103132163 0.2625095492742551 0.2413101604278075 0.22354851031321613 0.21552711993888465 0.21208938120702825 0.21552711993888465 0.2413101604278075 0.28542780748663105 0.2934491978609626 0.2934491978609626 0.2934491978609626 0.2957410236822001 0.3312643239113827 0.3885599694423224 0.4624713521772345 0.5381016042780749 0.6177425515660809 0.7191558441558441 0.7667112299465241 0.7896294881588999 0.7965049656226126 0.7976508785332315 0.7976508785332315 0.7976508785332315 0.7976508785332315 0.7976508785332315 0.7976508785332315 0.7976508785332315 0.7976508785332315 0.7976508785332315 0.7976508785332315 0.8050993124522535 0.8154125286478228 0.8165584415584415 0.8228609625668448 0.8331741787624141 0.8406226126814361,0.8204736440030558 0.8158899923605806 0.812070282658518 0.8051948051948052 0.7967914438502673 0.7830404889228418 0.7723453017570665 0.7639419404125286 0.7547746371275783 0.7456073338426279 0.7372039724980901 0.7303284950343774 0.7196333078686019 0.6974789915966386 0.6577540106951871 0.5859434682964095 0.5294117647058824 0.4751718869365929 0.4216959511077159 0.36898395721925137 0.3223834988540871 0.3048128342245989 0.2910618792971734 0.26508785332314744 0.2307104660045837 0.1963330786860199 0.16806722689075626 0.15508021390374327 0.14820473644003052 0.14744079449961806 0.14591291061879294 0.14744079449961806 0.14820473644003052 0.14820473644003052 0.14744079449961806 0.14132925897631776 0.1298701298701299 0.12605042016806722 0.12757830404889225 0.1336898395721925 0.13521772345301752 0.1291061879297173 0.12681436210847974 0.12681436210847974 0.12757830404889225 0.12757830404889225 0.12757830404889225 0.12757830404889225 0.12757830404889225 0.12757830404889225 0.12757830404889225 0.12757830404889225 0.12757830404889225 0.12757830404889225 0.12757830404889225 0.12834224598930474 0.1291061879297173 0.1291061879297173 0.1298701298701299 0.12834224598930474 0.12681436210847974,231.29999999998842 251.29999999998842 271.2999999999884 291.29999999998836 311.29999999998836 331.29999999998836 351.2999999999884 371.2999999999884 391.2999999999884 411.2999999999884 431.2999999999884 451.2999999999884 471.2999999999884 491.2999999999884 511.2999999999884 531.2999999999884 551.2999999999884 571.2999999999884 591.2999999999884 611.2999999999884 631.2999999999884 651.2999999999884 671.2999999999884 691.2999999999884 711.2999999999884 731.2999999999884 751.2999999999884 771.2999999999884 791.2999999999884 811.2999999999884 831.2999999999884 851.2999999999884 871.2999999999884 891.2999999999884 911.2999999999884 931.2999999999884 951.2999999999884 971.2999999999884 991.2999999999884 1011.2999999999884 1031.2999999999884 1051.2999999999884 1071.2999999999884 1091.2999999999884 1111.2999999999884 1131.2999999999886 1151.2999999999886 1171.2999999999886 1191.2999999999886 1211.2999999999886 1231.2999999999886 1251.2999999999886 1271.2999999999886 1291.2999999999886 1311.2999999999886 1331.2999999999886 1351.2999999999886 1371.2999999999886 1391.2999999999884 1411.2999999999884 1431.2999999999884
cb_01,2.0,enc_trial,stim,response,Iceland trip,1181.6999999998952,enc_trial,1.0,2.0,t_i_10_1,travel_Iceland,fold-b,trekking poles,1.0,unique,far,paired,t_i_10_1.jpg,Iceland,travel-b1,Iceland trip,Miami trip,sub-82,1.0,1.0,1.0,1.0,0.5020053475935828 0.5020053475935828 0.5031512605042017 0.5048701298701299 0.5071619556913675 0.5088808250572956 0.5088808250572956 0.5077349121466769 0.5031512605042017 0.4962757830404889 0.4871084797555386 0.479087089381207 0.4704927425515661 0.4618983957219252 0.454449961802903 0.44413674560733385 0.4349694423223835 0.42637509549274255 0.42064553093964857 0.4172077922077922 0.4166348357524828 0.4160618792971734 0.4166348357524828 0.4177807486631016 0.418353705118411 0.4109052711993889 0.3776737967914439 0.3398586707410237 0.2951680672268908 0.26136363636363635 0.2413101604278075 0.22584033613445376 0.21667303284950346 0.20750572956455307 0.19948433919022154 0.1891711229946524 0.17943086325439264 0.1737012987012987 0.17140947288006111 0.17140947288006111 0.1679717341482047 0.15937738731856374 0.1559396485867074 0.1547937356760886,0.8242933537051185 0.8220015278838808 0.8158899923605806 0.8051948051948052 0.7937356760886173 0.7784568372803666 0.7639419404125286 0.7425515660809778 0.7097020626432391 0.6676852559205501 0.6126814362108479 0.5760122230710466 0.5454545454545454 0.5126050420168067 0.4835752482811306 0.4476699770817418 0.4232238349885409 0.4018334606569901 0.3834988540870894 0.37203972498090143 0.3659281894576012 0.3605805958747135 0.3559969442322384 0.3491214667685256 0.3376623376623377 0.31856378915202443 0.2902979373567609 0.2734912146676852 0.2620320855614974 0.2505729564553094 0.2368220015278839 0.21772345301757068 0.2024446142093201 0.1871657754010695 0.17570664629488164 0.16271963330786865 0.15278838808250572 0.14744079449961806 0.14514896867838045 0.14514896867838045 0.14362108479755542 0.13980137509549273 0.13750954927425518 0.13674560733384267,325.0999999999767 345.09999999997666 365.09999999997666 385.09999999997666 405.09999999997666 425.09999999997666 445.09999999997666 465.09999999997666 485.09999999997666 505.09999999997666 525.0999999999766 545.0999999999766 565.0999999999767 585.0999999999767 605.0999999999767 625.0999999999767 645.0999999999767 665.0999999999767 685.0999999999767 705.0999999999768 725.0999999999768 745.0999999999768 765.0999999999768 785.0999999999768 805.0999999999768 825.0999999999768 845.0999999999768 865.0999999999768 885.0999999999768 905.0999999999768 925.0999999999768 945.0999999999768 965.0999999999768 985.0999999999768 1005.0999999999768 1025.0999999999767 1045.0999999999767 1065.0999999999767 1085.0999999999767 1105.0999999999767 1125.0999999999767 1145.0999999999767 1165.0999999999767 1185.0999999999767
cb_01,3.0,enc_trial,stim,response,Iceland trip,1957.9000000000524,enc_trial,1.0,3.0,t_i_18_1,travel_Iceland,fold-c-single,ski mask,1.0,unique,,single,t_i_18_1.jpg,Iceland,travel-b1,Iceland trip,Miami trip,sub-82,1.0,,1.0,,0.5014323911382735 0.5020053475935828 0.5031512605042017 0.5031512605042017 0.5031512605042017 0.5037242169595111 0.5048701298701299 0.5054430863254392 0.5060160427807486 0.5071619556913675 0.5083078686019863 0.5094537815126049 0.5123185637891521 0.5169022154316272 0.5249236058059588 0.5409663865546218 0.5512796027501911 0.5593009931245225 0.5673223834988541 0.5770626432391138 0.5885217723453017 0.6068563789152024 0.6240450725744843 0.6429526355996944 0.6652979373567608 0.6916539343009931 0.7237394957983193 0.7426470588235293 0.7604087089381206 0.7735867074102367 0.7816080977845683 0.7810351413292589 0.7644194041252864 0.7231665393430099 0.6652979373567608 0.6016997708174178 0.5054430863254392 0.4235103132161956 0.3421504965622613 0.2837089381207028 0.2527692895339954 0.22870511841100075 0.22469442322383493 0.22469442322383493 0.22354851031321613 0.2172459893048128 0.2103705118411001 0.20578686019862488 0.20292207792207792 0.2023491214667685 0.2023491214667685 0.2023491214667685 0.19719251336898394 0.1880252100840336 0.18401451489686785 0.18286860198624905 0.18286860198624905 0.18401451489686785 0.19432773109243687 0.2206837280366692 0.2676661573720397 0.3541825821237586 0.4303857906799083 0.5232047364400305 0.614877769289534 0.69451871657754 0.7758785332314744 0.8165584415584415 0.8492169595110771 0.8641138273491215 0.8583842627960274 0.7982238349885408 0.7122803666921314 0.603418640183346 0.4997135217723453 0.4080404889228417 0.28886554621848737 0.21667303284950346 0.15995034377387318 0.12843773873185635 0.11239495798319328 0.11010313216195568 0.11010313216195568 0.11010313216195568 0.11010313216195568 0.11010313216195568 0.11010313216195568,0.7990832696715049 0.7914438502673797 0.7799847211611918 0.7662337662337663 0.7547746371275783 0.7394957983193278 0.7127578304048892 0.6913674560733385 0.6760886172650878 0.6692131398013751 0.6653934300993125 0.6608097784568373 0.6554621848739496 0.6455309396485867 0.6287242169595111 0.59816653934301 0.5760122230710466 0.5553857906799083 0.5271199388846448 0.4904507257448434 0.4507257448433919 0.4041252864782277 0.3750954927425516 0.3529411764705882 0.3315508021390374 0.3109243697478992 0.2857142857142857 0.26967150496562264 0.25439266615737194 0.2414056531703589 0.22994652406417115 0.22459893048128346 0.22230710466004588 0.2261268143621085 0.2337662337662337 0.2360580595874714 0.2330022918258212 0.2330022918258212 0.23453017570664625 0.23147440794499616 0.2230710466004584 0.213903743315508 0.21084797555385792 0.20702826585179526 0.2009167303284949 0.1925133689839572 0.18487394957983194 0.1779984721161192 0.17035905271199392 0.16730328495034374 0.16653934300993126 0.1657754010695187 0.16348357524828114 0.16042780748663096 0.15508021390374327 0.15049656226126815 0.14973262032085566 0.14820473644003052 0.14744079449961806 0.14820473644003052 0.14973262032085566 0.14973262032085566 0.14667685255920548 0.14362108479755542 0.14362108479755542 0.14973262032085566 0.15431627196333075 0.15355233002291824 0.14973262032085566 0.14591291061879294 0.14514896867838045 0.15049656226126815 0.16806722689075626 0.19098548510313207 0.20015278838808248 0.19098548510313207 0.18105423987776925 0.18487394957983194 0.19098548510313207 0.1917494270435447 0.1917494270435447 0.19098548510313207 0.19098548510313207 0.19098548510313207 0.19098548510313207 0.18945760122230715 0.18869365928189447,231.30000000001743 251.30000000001743 271.3000000000174 291.3000000000174 311.3000000000174 331.3000000000174 351.30000000001746 371.30000000001746 391.30000000001746 411.30000000001746 431.30000000001746 451.30000000001746 471.30000000001746 491.30000000001746 511.30000000001746 531.3000000000175 551.3000000000175 571.3000000000175 591.3000000000175 611.3000000000175 631.3000000000175 651.3000000000175 671.3000000000175 691.3000000000176 711.3000000000176 731.3000000000176 751.3000000000176 771.3000000000176 791.3000000000176 811.3000000000176 831.3000000000176 851.3000000000176 871.3000000000176 891.3000000000176 911.3000000000177 931.3000000000177 951.3000000000177 971.3000000000177 991.3000000000177 1011.3000000000177 1031.3000000000177 1051.3000000000177 1071.3000000000177 1091.3000000000177 1111.3000000000177 1131.3000000000175 1151.3000000000175 1171.3000000000175 1191.3000000000175 1211.3000000000175 1231.3000000000175 1251.3000000000175 1271.3000000000175 1291.3000000000175 1311.3000000000175 1331.3000000000175 1351.3000000000175 1371.3000000000175 1391.3000000000175 1411.3000000000175 1431.3000000000175 1451.3000000000175 1471.3000000000175 1491.3000000000175 1511.3000000000175 1531.3000000000175 1551.3000000000175 1571.3000000000175 1591.3000000000175 1611.3000000000175 1631.3000000000175 1651.3000000000175 1671.3000000000175 1691.3000000000175 1711.3000000000175 1731.3000000000175 1751.3000000000175 1771.3000000000175 1791.3000000000175 1811.3000000000175 1831.3000000000175 1851.3000000000175 1871.3000000000175 1891.3000000000175 1911.3000000000175 1931.3000000000175 1951.3000000000175
cb_01,4.0,enc_trial,stim,response,Miami trip,790.9999999999417,enc_trial,1.0,4.0,t_m_17_2,travel_Miami,fold-a,water gun,1.0,unique,close,paired,t_m_17_2.jpg,Miami,travel-b1,Iceland trip,Miami trip,sub-82,1.0,1.0,1.0,1.0,0.5002864782276547 0.4997135217723453 0.4985676088617265 0.4968487394957983 0.4957028265851795 0.4945569136745607 0.493411000763942 0.493411000763942 0.493411000763942 0.493411000763942 0.4899732620320856 0.4888273491214668 0.493411000763942 0.5083078686019863 0.5375286478227654 0.5868029029793735 0.6716004583651642 0.736344537815126 0.7884835752482809 0.8228609625668448 0.8480710466004583 0.8698433919022154 0.8801566080977845 0.8847402597402597 0.8853132161955691 0.8853132161955691 0.8830213903743315 0.8830213903743315,0.8227654698242933 0.8166539343009931 0.8029029793735676 0.7807486631016043 0.7524828113063406 0.7181054239877769 0.7012987012987013 0.6913674560733385 0.6867838044308632 0.6814362108479756 0.6569900687547746 0.6165011459129106 0.5676088617265087 0.5164247517188694 0.4660045836516424 0.4079449961802904 0.3315508021390374 0.2841864018334607 0.24828113063407176 0.22459893048128346 0.2047364400305577 0.1833460656990069 0.17035905271199392 0.1611917494270435 0.15737203972498093 0.1566080977845684 0.15508021390374327 0.15431627196333075,250.0 270.0 290.0 310.0 330.0 350.0 370.0 390.0 410.0 430.0 450.0 470.0 490.0 510.0 530.0 550.0 570.0 590.0 610.0 630.0 650.0 670.0 690.0 710.0 730.0 750.0 770.0 790.0
cb_01,5.0,enc_trial,stim,response,Miami trip,1300.1999999999825,enc_trial,1.0,5.0,t_m_07_1,travel_Miami,fold-c-single,sunglasses,1.0,unique,,single,t_m_07_1.jpg,Miami,travel-b1,Iceland trip,Miami trip,sub-82,1.0,,1.0,,0.4997135217723453 0.4997135217723453 0.4997135217723453 0.4997135217723453 0.5002864782276547 0.5020053475935828 0.5020053475935828 0.5002864782276547 0.4985676088617265 0.4974216959511077 0.4974216959511077 0.4957028265851795 0.4922650878533231 0.4853896103896104 0.4773682200152789 0.4641902215431627 0.44642857142857145 0.4194996180290298 0.38798701298701294 0.35991214667685256 0.3369938884644767 0.3203781512605042 0.3106378915202445 0.29860580595874714 0.2837089381207028 0.2676661573720397 0.2413101604278075 0.22469442322383493 0.2103705118411001 0.19776546982429333 0.18286860198624905 0.16625286478227652 0.15880443086325438 0.1559396485867074 0.1547937356760886 0.15364782276546982 0.152501909854851 0.152501909854851 0.152501909854851 0.16052330022918254 0.17885790679908325 0.2172459893048128 0.2584988540870894 0.3112108479755539 0.3753819709702063 0.4573147440794499 0.5701871657754011 0.6521199388846447 0.7283231474407944 0.7884835752482809 0.8354660045836516 0.8732811306340718 0.8893239113827348 0.8933346065699006,0.8021390374331551 0.7983193277310925 0.7937356760886173 0.7853323147440794 0.7761650114591291 0.758594346829641 0.7417876241405653 0.7226890756302521 0.7066462948815891 0.6936592818945759 0.6814362108479756 0.6661573720397249 0.6524064171122994 0.6325439266615738 0.6134453781512605 0.5912910618792973 0.5691367456073338 0.5401069518716577 0.5034377387318564 0.4652406417112299 0.4232238349885409 0.3735676088617265 0.3430099312452254 0.3177998472116119 0.2987012987012987 0.2811306340718105 0.25744843391902217 0.2383498854087089 0.2184873949579832 0.2047364400305577 0.1925133689839572 0.1787624140565317 0.17188693659281895 0.16883116883116878 0.16730328495034374 0.1657754010695187 0.16348357524828114 0.16348357524828114 0.16348357524828114 0.1611917494270435 0.1611917494270435 0.1611917494270435 0.16271963330786865 0.16653934300993126 0.17341482047364398 0.18487394957983194 0.19786096256684493 0.2024446142093201 0.2024446142093201 0.19556913674560736 0.187929717341482 0.18105423987776925 0.17723453017570667 0.17570664629488164,206.19999999998254 226.19999999998254 246.19999999998254 266.19999999998254 286.1999999999825 306.1999999999825 326.1999999999825 346.19999999998254 366.19999999998254 386.19999999998254 406.19999999998254 426.19999999998254 446.19999999998254 466.19999999998254 486.19999999998254 506.19999999998254 526.1999999999825 546.1999999999825 566.1999999999825 586.1999999999825 606.1999999999825 626.1999999999825 646.1999999999825 666.1999999999825 686.1999999999825 706.1999999999824 726.1999999999824 746.1999999999824 766.1999999999824 786.1999999999824 806.1999999999824 826.1999999999824 846.1999999999824 866.1999999999824 886.1999999999824 906.1999999999823 926.1999999999823 946.1999999999823 966.1999999999823 986.1999999999823 1006.1999999999823 1026.1999999999823 1046.1999999999823 1066.1999999999823 1086.1999999999823 1106.1999999999823 1126.1999999999825 1146.1999999999825 1166.1999999999825 1186.1999999999825 1206.1999999999825 1226.1999999999825 1246.1999999999825 1266.1999999999825
cb_01,6.0,enc_trial,stim,response,Miami trip,1258.100000000035,enc_trial,1.0,6.0,t_s_21_1,travel_shared,fold-b,umbrella,1.0,competing,far,paired,t_s_21_1.jpg,,travel-b1,Iceland trip,Miami trip,sub-82,0.0,0.0,1.0,1.0,0.5008594346829641 0.5008594346829641 0.5008594346829641 0.5008594346829641 0.5008594346829641 0.5008594346829641 0.5008594346829641 0.5008594346829641 0.5008594346829641 0.5008594346829641 0.5014323911382735 0.5014323911382735 0.5008594346829641 0.5002864782276547 0.4997135217723453 0.4985676088617265 0.4957028265851795 0.493411000763942 0.4911191749427044 0.4882543926661574 0.4853896103896104 0.4773682200152789 0.4693468296409473 0.4538770053475936 0.4338235294117647 0.3977272727272727 0.36334988540870894 0.33011841100076394 0.29631398013750954 0.2630825057295645 0.2378724216959511 0.2172459893048128 0.2103705118411001 0.20693277310924368 0.20578686019862488 0.20578686019862488 0.2052139037433155 0.2103705118411001 0.22354851031321613 0.2418831168831169 0.25907181054239875 0.2951680672268908 0.33011841100076394 0.3759549274255157 0.4280939648586707 0.4842436974789916 0.5552902979373567 0.603418640183346 0.6498281130634072 0.6939457601222306 0.733479755538579 0.7753055767761651 0.7987967914438502 0.8154125286478228 0.8245798319327731 0.8303093964858671 0.8371848739495797 0.8383307868601986 0.8394766997708174 0.8411955691367455,0.8036669213139801 0.8036669213139801 0.8036669213139801 0.8036669213139801 0.8036669213139801 0.8036669213139801 0.8029029793735676 0.8029029793735676 0.7983193277310925 0.7914438502673797 0.7830404889228418 0.7700534759358288 0.7616501145912911 0.7532467532467533 0.7417876241405653 0.7249809014514896 0.6913674560733385 0.6653934300993125 0.6424751718869366 0.627196333078686 0.6149732620320856 0.5951107715813598 0.5760122230710466 0.5469824293353704 0.5148968678380443 0.4721161191749426 0.4407944996180291 0.4079449961802904 0.37203972498090143 0.3330786860198625 0.29258976317799845 0.25210084033613445 0.2330022918258212 0.22154316271963329 0.21619556913674565 0.21237585943468296 0.20626432391138272 0.19862490450725745 0.19098548510313207 0.18563789152024449 0.18411000763941945 0.1818181818181817 0.1787624140565317 0.17723453017570667 0.17265087853323147 0.1695951107715814 0.16195569136745602 0.1566080977845684 0.1512605042016807 0.14820473644003052 0.14438502673796794 0.13980137509549273 0.13674560733384267 0.13292589763177998 0.13139801375095495 0.1298701298701299 0.12834224598930474 0.12834224598930474 0.12834224598930474 0.12757830404889225,62.599999999976724 82.59999999997672 102.59999999997672 122.59999999997672 142.5999999999767 162.5999999999767 182.5999999999767 202.5999999999766 222.5999999999766 242.5999999999766 262.5999999999766 282.5999999999766 302.5999999999766 322.5999999999766 342.5999999999766 362.59999999997666 382.59999999997666 402.59999999997666 422.59999999997666 442.59999999997666 462.59999999997666 482.5999999999766 502.5999999999766 522.5999999999766 542.5999999999766 562.5999999999766 582.5999999999765 602.5999999999765 622.5999999999765 642.5999999999765 662.5999999999765 682.5999999999765 702.5999999999765 722.5999999999765 742.5999999999765 762.5999999999765 782.5999999999765 802.5999999999765 822.5999999999765 842.5999999999765 862.5999999999765 882.5999999999764 902.5999999999764 922.5999999999764 942.5999999999764 962.5999999999764 982.5999999999764 1002.5999999999764 1022.5999999999764 1042.5999999999763 1062.5999999999763 1082.5999999999763 1102.5999999999763 1122.5999999999763 1142.5999999999765 1162.5999999999765 1182.5999999999765 1202.5999999999765 1222.5999999999765 1242.5999999999765
cb_01,7.0,enc_trial,stim,response,Iceland trip,1227.4000000000524,enc_trial,1.0,7.0,t_i_13_1,travel_Iceland,fold-a,sleeping bag,1.0,unique,close,paired,t_i_13_1.jpg,Iceland,travel-b1,Iceland trip,Miami trip,sub-82,1.0,1.0,1.0,1.0,0.4951298701298701 0.4951298701298701 0.4951298701298701 0.4951298701298701 0.4951298701298701 0.4939839572192513 0.4939839572192513 0.4939839572192513 0.4939839572192513 0.4939839572192513 0.4945569136745607 0.4945569136745607 0.493411000763942 0.4916921313980138 0.4882543926661574 0.4836707410236822 0.4745034377387319 0.4630443086325439 0.4452826585179526 0.42064553093964857 0.3776737967914439 0.34329640947288004 0.3129297173414821 0.28485485103132163 0.2653743315508021 0.2504774637127578 0.2378724216959511 0.22985103132161955 0.22182964094728796 0.21495416348357524 0.20693277310924368 0.19604660045836514 0.185733384262796 0.17771199388846445 0.17140947288006111 0.1679717341482047 0.16396103896103895 0.16166921313980134 0.16109625668449196 0.15995034377387318,0.8036669213139801 0.7983193277310925 0.7914438502673797 0.7807486631016043 0.7708174178762415 0.7608861726508785 0.7440794499618029 0.7280366692131398 0.7112299465240641 0.6967150496562261 0.6799083269671504 0.6592818945760122 0.6417112299465241 0.6233766233766234 0.6035141329258976 0.5798319327731092 0.5485103132161956 0.5233002291825821 0.4957983193277311 0.466768525592055 0.4232238349885409 0.3896103896103896 0.3559969442322384 0.3200916730328495 0.2887700534759359 0.2635599694423224 0.2429335370511841 0.23147440794499616 0.22230710466004588 0.213903743315508 0.2039724980901452 0.19022154316271966 0.17723453017570667 0.16730328495034374 0.1611917494270435 0.15737203972498093 0.15355233002291824 0.15049656226126815 0.14973262032085566 0.14820473644003052,231.30000000001743 251.30000000001743 271.3000000000174 291.3000000000174 311.3000000000174 331.3000000000174 351.30000000001746 371.30000000001746 391.30000000001746 411.30000000001746 431.30000000001746 451.30000000001746 471.30000000001746 491.30000000001746 511.30000000001746 531.3000000000175 551.3000000000175 571.3000000000175 591.3000000000175 611.3000000000175 631.3000000000175 651.3000000000175 671.3000000000175 691.3000000000176 711.3000000000176 731.3000000000176 751.3000000000176 771.3000000000176 791.3000000000176 811.3000000000176 831.3000000000176 851.3000000000176 871.3000000000176 891.3000000000176 911.3000000000177 931.3000000000177 951.3000000000177 971.3000000000177 991.3000000000177 1011.3000000000177
cb_01,8.0,enc_trial,stim,response,Iceland trip,1687.5999999999767,enc_trial,1.0,8.0,t_s_12_1,travel_shared,fold-b,clear toiletry bag,1.0,competing,far,paired,t_s_12_1.jpg,,travel-b1,Iceland trip,Miami trip,sub-82,1.0,1.0,1.0,1.0,0.4951298701298701 0.4957028265851795 0.4974216959511077 0.4997135217723453 0.5020053475935828 0.5042971734148205 0.5060160427807486 0.5083078686019863 0.5100267379679144 0.5117456073338427 0.5128915202444614 0.5134644766997708 0.5134644766997708 0.5134644766997708 0.5146103896103896 0.5146103896103896 0.5146103896103896 0.5146103896103896 0.5146103896103896 0.5146103896103896 0.5146103896103896 0.5146103896103896 0.5140374331550802 0.5140374331550802 0.5140374331550802 0.5140374331550802 0.5140374331550802 0.5140374331550802 0.5146103896103896 0.5146103896103896 0.515183346065699 0.5163292589763178 0.5186210847975554 0.5214858670741024 0.5249236058059588 0.5266424751718869 0.5277883880825057 0.5283613445378151 0.5283613445378151 0.5283613445378151 0.5277883880825057 0.5203399541634836 0.5134644766997708 0.5025783040488923 0.4871084797555386 0.4687738731856379 0.4401260504201681 0.4172077922077922 0.39371657754010697 0.3725171886936593 0.3541825821237586 0.3266806722689076 0.31006493506493504 0.2945951107715813 0.27912528647822765 0.2642284186401833 0.2441749427043545 0.2332887700534759 0.22354851031321613 0.2195378151260504 0.2195378151260504 0.2183919022154316 0.21495416348357524 0.2092245989304813 0.19948433919022154 0.1880252100840336 0.17885790679908325 0.17885790679908325 0.18401451489686785 0.2023491214667685 0.2241214667685256 0.2361535523300229 0.2361535523300229 0.22813216195569136 0.21323529411764705 0.19432773109243687 0.16338808250572956 0.14677234530175706 0.14104278074866308,0.7952635599694423 0.7914438502673797 0.7845683728036671 0.7761650114591291 0.7662337662337663 0.7509549274255156 0.7372039724980901 0.7219251336898396 0.7074102368220015 0.6944232238349886 0.677616501145913 0.6646294881588999 0.651642475171887 0.6401833460656989 0.6310160427807487 0.6218487394957983 0.6103896103896104 0.6012223071046601 0.5951107715813598 0.5897631779984721 0.5844155844155844 0.5783040488922842 0.5729564553093964 0.5676088617265087 0.5622612681436211 0.5576776165011459 0.5492742551566081 0.5431627196333079 0.5370511841100076 0.5317035905271199 0.5248281130634072 0.5202444614209321 0.5148968678380443 0.5095492742551566 0.5057295645530939 0.5019098548510313 0.4988540870893812 0.4973262032085562 0.4965622612681436 0.4950343773873186 0.4927425515660809 0.4858670741023682 0.4782276546982429 0.4690603514132926 0.4576012223071047 0.4453781512605042 0.4300993124522536 0.4163483575248281 0.4018334606569901 0.3857906799083269 0.3705118411000764 0.34606569900687545 0.32849503437738736 0.31016042780748665 0.29182582123758594 0.2719633307868602 0.2467532467532467 0.23147440794499616 0.2184873949579832 0.21084797555385792 0.2055003819709702 0.19862490450725745 0.1925133689839572 0.18487394957983194 0.17723453017570667 0.17035905271199392 0.16271963330786865 0.16195569136745602 0.16195569136745602 0.16271963330786865 0.16271963330786865 0.16271963330786865 0.16271963330786865 0.15966386554621848 0.1566080977845684 0.15508021390374327 0.1566080977845684 0.15889992360580596 0.15889992360580596,131.20000000001164 151.2000000000116 171.2000000000116 191.20000000001164 211.20000000001164 231.20000000001164 251.20000000001164 271.20000000001164 291.20000000001164 311.20000000001164 331.20000000001164 351.2000000000116 371.2000000000117 391.2000000000117 411.2000000000117 431.2000000000117 451.2000000000117 471.2000000000117 491.2000000000117 511.2000000000117 531.2000000000116 551.2000000000116 571.2000000000116 591.2000000000116 611.2000000000116 631.2000000000116 651.2000000000116 671.2000000000116 691.2000000000116 711.2000000000116 731.2000000000116 751.2000000000116 771.2000000000116 791.2000000000116 811.2000000000116 831.2000000000116 851.2000000000116 871.2000000000116 891.2000000000116 911.2000000000116 931.2000000000116 951.2000000000116 971.2000000000116 991.2000000000116 1011.2000000000116 1031.2000000000116 1051.2000000000116 1071.2000000000116 1091.2000000000116 1111.2000000000116 1131.2000000000114 1151.2000000000114 1171.2000000000114 1191.2000000000114 1211.2000000000114 1231.2000000000114 1251.2000000000114 1271.2000000000114 1291.2000000000114 1311.2000000000114 1331.2000000000114 1351.2000000000114 1371.2000000000114 1391.2000000000116 1411.2000000000116 1431.2000000000116 1451.2000000000116 1471.2000000000116 1491.2000000000116 1511.2000000000116 1531.2000000000116 1551.2000000000116 1571.2000000000116 1591.2000000000116 1611.2000000000116 1631.2000000000116 1651.2000000000116 1671.2000000000116 1691.2000000000116
cb_01,9.0,enc_trial,stim,response,Miami trip,939.2000000000407,enc_trial,1.0,9.0,t_m_03_1,travel_Miami,fold-c-single,wetsuit,1.0,unique,,single,t_m_03_1.jpg,Miami,travel-b1,Iceland trip,Miami trip,sub-82,1.0,,1.0,,0.4974216959511077 0.4974216959511077 0.4968487394957983 0.4968487394957983 0.4968487394957983 0.4968487394957983 0.4968487394957983 0.4968487394957983 0.4968487394957983 0.4968487394957983 0.4968487394957983 0.4968487394957983 0.4968487394957983 0.4968487394957983 0.4968487394957983 0.4979946524064171 0.5008594346829641 0.5037242169595111 0.5071619556913675 0.5094537815126049 0.5123185637891521 0.5163292589763178 0.5197669977081741 0.5232047364400305 0.529507257448434 0.5386745607333843 0.5604469060351414 0.5799274255156608 0.5999809014514896 0.6263368983957218 0.6572765469824293 0.7013941940412528 0.7283231474407944 0.7523873185637892 0.7707219251336898 0.7821810542398777 0.7936401833460657 0.8016615737203971 0.8079640947288006 0.8136936592818945 0.8205691367456073 0.8257257448433919 0.8262987012987012 0.8274446142093199 0.8291634835752483 0.8320282658517952 0.8343200916730328,0.8090145148968678 0.8044308632543926 0.7967914438502673 0.7899159663865546 0.7853323147440794 0.7830404889228418 0.7830404889228418 0.7815126050420168 0.7815126050420168 0.7815126050420168 0.7807486631016043 0.7769289533995416 0.7761650114591291 0.7746371275783042 0.7708174178762415 0.7647058823529411 0.7478991596638656 0.7303284950343774 0.7112299465240641 0.6921313980137509 0.6722689075630253 0.6409472880061116 0.6149732620320856 0.5943468296409473 0.5760122230710466 0.5584415584415585 0.5233002291825821 0.4927425515660809 0.4606569900687548 0.4232238349885409 0.3796791443850267 0.31474407944996186 0.2750190985485104 0.2421695951107717 0.21619556913674565 0.19862490450725745 0.18105423987776925 0.1695951107715814 0.1611917494270435 0.15355233002291824 0.14591291061879294 0.13980137509549273 0.1390374331550802 0.1382734912146677 0.13750954927425518 0.13521772345301752 0.13445378151260498,0.0 20.0 40.0 60.0 80.0 100.0 120.0 140.0 160.0 180.0 200.0 220.0 240.0 260.0 280.0 300.0 320.0 340.0 360.0 380.0 400.0 420.0 440.0 460.0 480.0 500.0 520.0 540.0 560.0 580.0 600.0 620.0 640.0 660.0 680.0 700.0 720.0 740.0 760.0 780.0 800.0 820.0 840.0 860.0 880.0 900.0 920.0
cb_01,10.0,enc_trial,stim,response,Iceland trip,1152.1999999999534,enc_trial,1.0,10.0,t_i_13_2,travel_Iceland,fold-a,sleeping bag,1.0,unique,close,paired,t_i_13_2.jpg,Iceland,travel-b1,Iceland trip,Miami trip,sub-82,1.0,1.0,1.0,1.0,0.4991405653170359 0.4991405653170359 0.4991405653170359 0.4991405653170359 0.4991405653170359 0.4985676088617265 0.4985676088617265 0.4974216959511077 0.4974216959511077 0.4974216959511077 0.4968487394957983 0.4962757830404889 0.4951298701298701 0.493411000763942 0.4911191749427044 0.4871084797555386 0.4825248281130634 0.4802330022918258 0.4785141329258976 0.4745034377387319 0.4664820473644003 0.442990832696715 0.4120511841100076 0.3759549274255157 0.3318372803666921 0.28542780748663105 0.22240259740259727 0.1874522536287242 0.16739877769289532 0.1547937356760886 0.14791825821237586 0.14218869365928188 0.1404698242933537 0.13989686783804428 0.14161573720397247 0.14448051948051946 0.14677234530175706 0.14677234530175706 0.14677234530175706 0.14791825821237586 0.14906417112299464 0.14963712757830402,0.813598166539343 0.8090145148968678 0.8036669213139801 0.7967914438502673 0.7853323147440794 0.7677616501145913 0.7524828113063406 0.7402597402597403 0.7303284950343774 0.7219251336898396 0.7119938884644768 0.7020626432391138 0.6913674560733385 0.6745607333842628 0.6569900687547746 0.6348357524828113 0.6019862490450726 0.5798319327731092 0.5607333842627961 0.5401069518716577 0.5148968678380443 0.4789915966386554 0.4453781512605042 0.4071810542398777 0.35981665393430096 0.31398013750954923 0.26508785332314744 0.2429335370511841 0.228418640183346 0.21619556913674565 0.2093200916730329 0.2009167303284949 0.1970970206264324 0.19327731092436973 0.1871657754010695 0.18105423987776925 0.1779984721161192 0.17723453017570667 0.17570664629488164 0.17265087853323147 0.17035905271199392 0.1695951107715814,200.0 220.0 240.0 260.0 280.0 300.0 320.0 340.0 360.0 380.0 400.0 420.0 440.0 460.0 480.0 500.0 520.0 540.0 560.0 580.0 600.0 620.0 640.0 660.0 680.0 700.0 720.0 740.0 760.0 780.0 800.0 820.0 840.0 860.0 880.0 900.0 920.0 940.0 960.0 980.0 1000.0 1020.0
cb_01,11.0,enc_trial,stim,response,Iceland trip,1204.9999999998836,enc_trial,1.0,11.0,t_i_19_1,travel_Iceland,fold-b,rope,1.0,unique,far,paired,t_i_19_1.jpg,Iceland,travel-b1,Iceland trip,Miami trip,sub-82,1.0,1.0,1.0,1.0,0.4968487394957983 0.4962757830404889 0.4957028265851795 0.4951298701298701 0.4945569136745607 0.493411000763942 0.493411000763942 0.4922650878533231 0.4911191749427044 0.4899732620320856 0.4888273491214668 0.4871084797555386 0.4853896103896104 0.4830977845683728 0.4819518716577539 0.4836707410236822 0.4865355233002292 0.4894003055767762 0.4888273491214668 0.4882543926661574 0.4882543926661574 0.4882543926661574 0.4882543926661574 0.4882543926661574 0.4882543926661574 0.4882543926661574 0.4882543926661574 0.4882543926661574 0.4951298701298701 0.4985676088617265 0.4962757830404889 0.4859625668449198 0.479087089381207 0.4767952635599694 0.4756493506493506 0.4750763941940413 0.4882543926661574 0.5083078686019863 0.5323720397249809 0.573051948051948 0.6165966386554621 0.6693086325439266 0.6996753246753247 0.7151451489686783 0.7174369747899159 0.7048319327731092 0.6601413292589763 0.6028456837280366 0.5392475171886937 0.4745034377387319 0.4046027501909855 0.3060542398777693 0.24761268143621085 0.1937547746371276 0.1530748663101604 0.13187547746371275 0.11640565317035904 0.10895721925133688 0.1060924369747899 0.10494652406417113,0.8220015278838808 0.8189457601222307 0.8151260504201681 0.812070282658518 0.8090145148968678 0.8029029793735676 0.7960275019098548 0.7860962566844921 0.7723453017570665 0.7540106951871658 0.7288006111535523 0.6822001527883881 0.6386554621848739 0.5935828877005347 0.5454545454545454 0.4988540870893812 0.4407944996180291 0.4094728800611154 0.3919022154316272 0.39113827349121466 0.39113827349121466 0.3919022154316272 0.3919022154316272 0.3919022154316272 0.3919022154316272 0.3919022154316272 0.3919022154316272 0.3919022154316272 0.39572192513368987 0.4041252864782277 0.4094728800611154 0.41252864782276544 0.4117647058823529 0.4071810542398777 0.39495798319327735 0.3750954927425516 0.3300229182582124 0.29258976317799845 0.2635599694423224 0.2429335370511841 0.22918258212375864 0.21237585943468296 0.2009167303284949 0.19404125286478224 0.1925133689839572 0.19022154316271966 0.19327731092436973 0.19862490450725745 0.19938884644767 0.18945760122230715 0.17570664629488164 0.1650114591291062 0.1657754010695187 0.17035905271199392 0.17341482047364398 0.17035905271199392 0.16883116883116878 0.16806722689075626 0.16806722689075626 0.16806722689075626,0.0 20.0 40.0 60.0 80.0 100.0 120.0 140.0 160.0 180.0 200.0 220.0 240.0 260.0 280.0 300.0 320.0 340.0 360.0 380.0 400.0 420.0 440.0 460.0 480.0 500.0 520.0 540.0 560.0 580.0 600.0 620.0 640.0 660.0 680.0 700.0 720.0 740.0 760.0 780.0 800.0 820.0 840.0 860.0 880.0 900.0 920.0 940.0 960.0 980.0 1000.0 1020.0 1040.0 1060.0 1080.0 1100.0 1120.0 1140.0 1160.0 1180.0
cb_01,12.0,enc_trial,stim,response,Iceland trip,995.4999999998836,enc_trial,1.0,12.0,t_i_14_1,travel_Iceland,fold-c-single,snow pants,1.0,unique,,single,t_i_14_1.jpg,Iceland,travel-b1,Iceland trip,Miami trip,sub-82,1.0,,1.0,,0.4997135217723453 0.4997135217723453 0.4997135217723453 0.4997135217723453 0.4997135217723453 0.4997135217723453 0.4997135217723453 0.4997135217723453 0.4997135217723453 0.4985676088617265 0.4985676088617265 0.4985676088617265 0.4985676088617265 0.4985676088617265 0.4985676088617265 0.4985676088617265 0.4974216959511077 0.4974216959511077 0.4974216959511077 0.4991405653170359 0.5031512605042017 0.5060160427807486 0.5071619556913675 0.5071619556913675 0.5071619556913675 0.5048701298701299 0.5014323911382735 0.4922650878533231 0.4727845683728037 0.4458556149732621 0.3965813598166539 0.3559014514896868 0.3203781512605042 0.29115737203972497 0.2711038961038961 0.26136363636363635 0.2630825057295645 0.27282276546982426 0.2928762414056532 0.31464858670741025 0.3266806722689076 0.3266806722689076 0.31407563025210083 0.28542780748663105 0.24532085561497324 0.20693277310924368 0.1725553857906799 0.1559396485867074 0.14791825821237586 0.14734530175706645,0.812070282658518 0.8113063407181054 0.8105423987776931 0.8105423987776931 0.8097784568372803 0.8097784568372803 0.8097784568372803 0.8097784568372803 0.8097784568372803 0.8090145148968678 0.8074866310160428 0.8051948051948052 0.7990832696715049 0.7899159663865546 0.7776928953399542 0.7555385790679908 0.7303284950343774 0.6997708174178763 0.6608097784568373 0.6233766233766234 0.5821237585943468 0.5607333842627961 0.5485103132161956 0.5408708938120703 0.5339954163483576 0.518716577540107 0.5026737967914439 0.4820473644003056 0.4537815126050421 0.4232238349885409 0.3842627960275019 0.35523300229182586 0.32849503437738736 0.2994652406417112 0.2704354469060352 0.2360580595874714 0.21313980137509547 0.19556913674560736 0.1802902979373568 0.17035905271199392 0.16730328495034374 0.1657754010695187 0.16195569136745602 0.1611917494270435 0.1657754010695187 0.1695951107715814 0.16730328495034374 0.1650114591291062 0.16348357524828114 0.16348357524828114,0.0 20.0 40.0 60.0 80.0 100.0 120.0 140.0 160.0 180.0 200.0 220.0 240.0 260.0 280.0 300.0 320.0 340.0 360.0 380.0 400.0 420.0 440.0 460.0 480.0 500.0 520.0 540.0 560.0 580.0 600.0 620.0 640.0 660.0 680.0 700.0 720.0 740.0 760.0 780.0 800.0 820.0 840.0 860.0 880.0 900.0 920.0 940.0 960.0 980.0
cb_01,13.0,enc_trial,stim,response,Miami trip,1084.3000000000468,enc_trial,1.0,13.0,t_s_08_1,travel_shared,fold-a,hand lotion,1.0,competing,close,paired,t_s_08_1.jpg,,travel-b1,Iceland trip,Miami trip,sub-82,1.0,1.0,0.0,0.0,0.4979946524064171 0.4979946524064171 0.4979946524064171 0.4979946524064171 0.4979946524064171 0.4979946524064171 0.4979946524064171 0.4979946524064171 0.4979946524064171 0.4979946524064171 0.4974216959511077 0.4974216959511077 0.4974216959511077 0.4974216959511077 0.4974216959511077 0.4962757830404889 0.493411000763942 0.4922650878533231 0.4916921313980138 0.4916921313980138 0.4916921313980138 0.4916921313980138 0.4916921313980138 0.4916921313980138 0.4939839572192513 0.4957028265851795 0.4985676088617265 0.5042971734148205 0.5117456073338427 0.5226317799847212 0.5375286478227654 0.5615928189457601 0.5850840336134454 0.6125859434682963 0.6446715049656225 0.6773300229182582 0.7225935828877005 0.7558250572956455 0.7856187929717341 0.8085370511841099 0.8251527883880825 0.8417685255920551 0.8503628724216958 0.8583842627960274 0.8652597402597402 0.8675515660809778,0.8067226890756303 0.8067226890756303 0.8067226890756303 0.8051948051948052 0.8051948051948052 0.8036669213139801 0.8013750954927426 0.7990832696715049 0.7967914438502673 0.7937356760886173 0.7845683728036671 0.7761650114591291 0.7631779984721161 0.7478991596638656 0.7265087853323147 0.7005347593582888 0.6585179526355998 0.6249045072574484 0.5958747135217723 0.5729564553093964 0.5561497326203209 0.5385790679908327 0.5240641711229946 0.5080213903743316 0.4935064935064936 0.4774637127578304 0.4652406417112299 0.4491978609625669 0.43162719633307867 0.4110007639419404 0.38655462184873945 0.35064935064935066 0.3208556149732619 0.2895339954163484 0.2582123758594347 0.23147440794499616 0.2039724980901452 0.19098548510313207 0.1802902979373568 0.17188693659281895 0.16653934300993126 0.16042780748663096 0.15737203972498093 0.15508021390374327 0.1512605042016807 0.15049656226126815,62.599999999976724 82.59999999997672 102.59999999997672 122.59999999997672 142.5999999999767 162.5999999999767 182.5999999999767 202.5999999999766 222.5999999999766 242.5999999999766 262.5999999999766 282.5999999999766 302.5999999999766 322.5999999999766 342.5999999999766 362.59999999997666 382.59999999997666 402.59999999997666 422.59999999997666 442.59999999997666 462.59999999997666 482.5999999999766 502.5999999999766 522.5999999999766 542.5999999999766 562.5999999999766 582.5999999999765 602.5999999999765 622.5999999999765 642.5999999999765 662.5999999999765 682.5999999999765 702.5999999999765 722.5999999999765 742.5999999999765 762.5999999999765 782.5999999999765 802.5999999999765 822.5999999999765 842.5999999999765 862.5999999999765 882.5999999999764 902.5999999999764 922.5999999999764 942.5999999999764 962.5999999999764
cb_01,14.0,enc_trial,stim,response,Miami trip,1180.899999999849,enc_trial,1.0,14.0,t_m_18_1,travel_Miami,fold-b,waterproof tote,1.0,unique,far,paired,t_m_18_1.jpg,Miami,travel-b1,Iceland trip,Miami trip,sub-82,1.0,1.0,1.0,1.0,0.5031512605042017 0.5031512605042017 0.5031512605042017 0.5031512605042017 0.5031512605042017 0.5031512605042017 0.5020053475935828 0.5014323911382735 0.5002864782276547 0.4997135217723453 0.4974216959511077 0.4957028265851795 0.4951298701298701 0.4945569136745607 0.4945569136745607 0.4945569136745607 0.4939839572192513 0.4939839572192513 0.4939839572192513 0.493411000763942 0.493411000763942 0.4922650878533231 0.4916921313980138 0.4899732620320856 0.4871084797555386 0.4802330022918258 0.4727845683728037 0.4618983957219252 0.4492933537051184 0.4378342245989305 0.4246562261268144 0.4194996180290298 0.418353705118411 0.42866692131398015 0.4555958747135218 0.5083078686019863 0.5529984721161192 0.6028456837280366 0.6509740259740259 0.6864973262032085 0.7283231474407944 0.7518143621084797 0.7678571428571428 0.7810351413292589 0.7947860962566844 0.8125477463712757 0.8177043544690603 0.8182773109243697,0.8036669213139801 0.80061115355233 0.7967914438502673 0.7914438502673797 0.7860962566844921 0.773109243697479 0.7593582887700535 0.7372039724980901 0.7066462948815891 0.6715049656226126 0.6348357524828113 0.6134453781512605 0.59816653934301 0.5851795263559969 0.572192513368984 0.5569136745607334 0.5477463712757831 0.5416348357524828 0.5370511841100076 0.5339954163483576 0.5301757066462949 0.5255920550038198 0.518716577540107 0.5080213903743316 0.4950343773873186 0.4728800611153552 0.4537815126050421 0.4331550802139037 0.4163483575248281 0.3995416348357525 0.3758594346829641 0.35981665393430096 0.34148204736440035 0.3177998472116119 0.2887700534759359 0.25286478227654696 0.2352941176470589 0.22077922077922074 0.20855614973262027 0.19786096256684493 0.1818181818181817 0.17265087853323147 0.1657754010695187 0.16195569136745602 0.1566080977845684 0.14973262032085566 0.14667685255920548 0.14667685255920548,218.79999999998842 238.79999999998842 258.7999999999884 278.7999999999884 298.79999999998836 318.79999999998836 338.79999999998836 358.7999999999884 378.7999999999884 398.7999999999884 418.7999999999884 438.7999999999884 458.7999999999884 478.7999999999884 498.7999999999884 518.7999999999884 538.7999999999884 558.7999999999884 578.7999999999884 598.7999999999884 618.7999999999884 638.7999999999884 658.7999999999884 678.7999999999884 698.7999999999884 718.7999999999884 738.7999999999884 758.7999999999884 778.7999999999884 798.7999999999884 818.7999999999884 838.7999999999884 858.7999999999884 878.7999999999884 898.7999999999884 918.7999999999884 938.7999999999884 958.7999999999884 978.7999999999884 998.7999999999884 1018.7999999999884 1038.7999999999884 1058.7999999999884 1078.7999999999884 1098.7999999999884 1118.7999999999884 1138.7999999999886 1158.7999999999886
cb_01,15.0,enc_trial,stim,response,Iceland trip,1315.100000000035,enc_trial,1.0,15.0,t_s_22_1,travel_shared,fold-a,belt,1.0,competing,close,paired,t_s_22_1.jpg,,travel-b1,Iceland trip,Miami trip,sub-82,1.0,1.0,0.0,0.0,0.493411000763942 0.493411000763942 0.493411000763942 0.4922650878533231 0.4922650878533231 0.4922650878533231 0.4922650878533231 0.4922650878533231 0.4922650878533231 0.4922650878533231 0.4922650878533231 0.4922650878533231 0.4916921313980138 0.4916921313980138 0.4905462184873949 0.4899732620320856 0.4882543926661574 0.4871084797555386 0.4859625668449198 0.4859625668449198 0.4859625668449198 0.4859625668449198 0.4859625668449198 0.4859625668449198 0.4865355233002292 0.4871084797555386 0.4876814362108479 0.4876814362108479 0.4876814362108479 0.4882543926661574 0.4882543926661574 0.4871084797555386 0.484816653934301 0.4802330022918258 0.4722116119174943 0.4527310924369748 0.4332505729564553 0.4120511841100076 0.39085179526356 0.3696524064171123 0.34730710466004583 0.3318372803666921 0.3180863254392666 0.3026165011459129 0.28485485103132163 0.26193659281894577 0.24761268143621085 0.2350076394194041 0.22354851031321613 0.21380825057295644 0.2052139037433155 0.19604660045836514 0.19203590527119926 0.1903170359052712 0.1874522536287242 0.18401451489686785 0.17885790679908325 0.17771199388846445 0.17771199388846445 0.17771199388846445 0.17656608097784568 0.17656608097784568 0.17427425515660808 0.1725553857906799 0.17140947288006111 0.1708365164247517,0.8113063407181054 0.8090145148968678 0.8074866310160428 0.8067226890756303 0.8051948051948052 0.8044308632543926 0.8029029793735676 0.8021390374331551 0.8013750954927426 0.7998472116119175 0.7983193277310925 0.7952635599694423 0.7922077922077921 0.7883880825057296 0.7815126050420168 0.7677616501145913 0.7532467532467533 0.7349121466768526 0.7150496562261268 0.6951871657754011 0.6707410236822002 0.6546982429335371 0.6401833460656989 0.627196333078686 0.6134453781512605 0.59816653934301 0.5905271199388846 0.5828877005347594 0.5783040488922842 0.5744843391902215 0.5676088617265087 0.5607333842627961 0.5492742551566081 0.5332314744079449 0.5103132161955691 0.4759358288770054 0.4453781512605042 0.4148204736440031 0.3873185637891521 0.3613445378151261 0.3330786860198625 0.3132161955691367 0.2971734148204737 0.28036669213139803 0.2643239113827349 0.2452253628724217 0.2330022918258212 0.22230710466004588 0.21237585943468296 0.2039724980901452 0.1963330786860199 0.187929717341482 0.1833460656990069 0.1802902979373568 0.1779984721161192 0.1741787624140565 0.1695951107715814 0.16806722689075626 0.16806722689075626 0.16806722689075626 0.16806722689075626 0.16730328495034374 0.1657754010695187 0.1650114591291062 0.1650114591291062 0.1650114591291062,0.0 20.0 40.0 60.0 80.0 100.0 120.0 140.0 160.0 180.0 200.0 220.0 240.0 260.0 280.0 300.0 320.0 340.0 360.0 380.0 400.0 420.0 440.0 460.0 480.0 500.0 520.0 540.0 560.0 580.0 600.0 620.0 640.0 660.0 680.0 700.0 720.0 740.0 760.0 780.0 800.0 820.0 840.0 860.0 880.0 900.0 920.0 940.0 960.0 980.0 1000.0 1020.0 1040.0 1060.0 1080.0 1100.0 1120.0 1140.0 1160.0 1180.0 1200.0 1220.0 1240.0 1260.0 1280.0 1300.0
cb_01,16.0,enc_trial,stim,response,Iceland trip,1149.2999999999306,enc_trial,1.0,16.0,t_s_08_2,travel_shared,fold-a,hand lotion,1.0,competing,close,paired,t_s_08_2.jpg,,travel-b1,Iceland trip,Miami trip,sub-82,1.0,1.0,0.0,0.0,0.4962757830404889 0.4957028265851795 0.4957028265851795 0.4957028265851795 0.4957028265851795 0.4957028265851795 0.4968487394957983 0.4968487394957983 0.4957028265851795 0.4951298701298701 0.4957028265851795 0.4974216959511077 0.4985676088617265 0.4991405653170359 0.5008594346829641 0.5048701298701299 0.5100267379679144 0.5186210847975554 0.5300802139037433 0.5466959511077158 0.575916730328495 0.6051375095492741 0.6349312452253628 0.6624331550802138 0.6893621084797554 0.7128533231474408 0.7197288006111535 0.7203017570664629 0.7099885408708938 0.6864973262032085 0.6498281130634072 0.5787815126050421 0.5100267379679144 0.4435637891520244 0.3679335370511841 0.29860580595874714 0.25907181054239875 0.227559205500382 0.20693277310924368 0.19318181818181807 0.18401451489686785 0.17542016806722688 0.1748472116119175 0.1748472116119175 0.1748472116119175 0.1748472116119175 0.17427425515660808 0.1725553857906799 0.1725553857906799,0.7922077922077921 0.7899159663865546 0.7860962566844921 0.7815126050420168 0.7738731856378915 0.7578304048892284 0.7402597402597403 0.7203972498090145 0.7012987012987013 0.6806722689075629 0.6493506493506493 0.6241405653170359 0.6035141329258976 0.5874713521772346 0.5691367456073338 0.5446906035141329 0.5278838808250572 0.5126050420168067 0.4973262032085562 0.479755538579068 0.4476699770817418 0.4163483575248281 0.3842627960275019 0.35523300229182586 0.3262032085561497 0.2941176470588235 0.2773109243697479 0.26508785332314744 0.2551566080977846 0.2452253628724217 0.2352941176470589 0.22230710466004588 0.2154316271963332 0.2093200916730329 0.2024446142093201 0.19022154316271966 0.1787624140565317 0.1695951107715814 0.16348357524828114 0.15966386554621848 0.15737203972498093 0.15431627196333075 0.15355233002291824 0.15355233002291824 0.15355233002291824 0.15355233002291824 0.15355233002291824 0.15355233002291824 0.15431627196333075,175.0 195.0 215.0 235.0 255.0 275.0 295.0 315.0 335.0 355.0 375.0 395.0 415.0 435.0 455.0 475.0 495.0 515.0 535.0 555.0 575.0 595.0 615.0 635.0 655.0 675.0 695.0 715.0 735.0 755.0 775.0 795.0 815.0 835.0 855.0 875.0 895.0 915.0 935.0 955.0 975.0 995.0 1015.0 1035.0 1055.0 1075.0 1095.0 1115.0 1135.0
cb_01,17.0,enc_trial,stim,response,Iceland trip,904.1999999998953,enc_trial,1.0,17.0,t_i_10_2,travel_Iceland,fold-b,trekking poles,1.0,unique,far,paired,t_i_10_2.jpg,Iceland,travel-b1,Iceland trip,Miami trip,sub-82,1.0,1.0,1.0,1.0,0.5020053475935828 0.5020053475935828 0.5020053475935828 0.5014323911382735 0.5014323911382735 0.5008594346829641 0.5002864782276547 0.4997135217723453 0.4997135217723453 0.4985676088617265 0.4968487394957983 0.4951298701298701 0.493411000763942 0.4922650878533231 0.4916921313980138 0.4894003055767762 0.4882543926661574 0.4853896103896104 0.4819518716577539 0.4767952635599694 0.4704927425515661 0.4578877005347594 0.44413674560733385 0.42866692131398015 0.4114782276546982 0.3919977081741788 0.3673605805958747 0.3444423223834989 0.3192322383498854 0.28886554621848737 0.24818563789152026 0.22354851031321613 0.2040679908326967 0.1874522536287242 0.1708365164247517 0.1559396485867074 0.14448051948051946 0.14161573720397247 0.14104278074866308,0.80061115355233 0.7990832696715049 0.7983193277310925 0.7960275019098548 0.7937356760886173 0.7899159663865546 0.7830404889228418 0.7761650114591291 0.7677616501145913 0.7570664629488159 0.7433155080213903 0.7165775401069518 0.6890756302521008 0.6585179526355998 0.6249045072574484 0.5951107715813598 0.5607333842627961 0.5355233002291826 0.5126050420168067 0.4866310160427807 0.4621848739495799 0.4346829640947288 0.4163483575248281 0.3987776928953399 0.3789152024446142 0.3575248281130634 0.3315508021390374 0.3116883116883117 0.29258976317799845 0.2727272727272727 0.24828113063407176 0.2330022918258212 0.2192513368983957 0.2055003819709702 0.1917494270435447 0.1818181818181817 0.17341482047364398 0.17188693659281895 0.17188693659281895,93.79999999998836 113.79999999998836 133.79999999998836 153.7999999999884 173.79999999998836 193.79999999998842 213.79999999998842 233.79999999998842 253.79999999998842 273.7999999999884 293.79999999998836 313.79999999998836 333.79999999998836 353.7999999999884 373.7999999999884 393.7999999999884 413.7999999999884 433.7999999999884 453.7999999999884 473.7999999999884 493.7999999999884 513.7999999999884 533.7999999999884 553.7999999999884 573.7999999999884 593.7999999999884 613.7999999999884 633.7999999999884 653.7999999999884 673.7999999999884 693.7999999999884 713.7999999999884 733.7999999999884 753.7999999999884 773.7999999999884 793.7999999999884 813.7999999999884 833.7999999999884 853.7999999999884
cb_01,18.0,enc_trial,stim,response,Miami trip,1075.600000000035,enc_trial,1.0,18.0,t_s_22_2,travel_shared,fold-a,belt,1.0,competing,close,paired,t_s_22_2.jpg,,travel-b1,Iceland trip,Miami trip,sub-82,1.0,1.0,0.0,0.0,0.4922650878533231 0.4922650878533231 0.493411000763942 0.4945569136745607 0.4957028265851795 0.4974216959511077 0.4985676088617265 0.4991405653170359 0.5008594346829641 0.5020053475935828 0.5054430863254392 0.5083078686019863 0.5100267379679144 0.5123185637891521 0.5134644766997708 0.5134644766997708 0.5134644766997708 0.5111726508785333 0.506588999236058 0.5008594346829641 0.4899732620320856 0.4756493506493506 0.4538770053475936 0.4229373567608862 0.3862681436210848 0.3335561497326203 0.2968869365928189 0.2630825057295645 0.2350076394194041 0.21495416348357524 0.19948433919022154 0.1903170359052712 0.18401451489686785 0.17885790679908325 0.1748472116119175 0.17140947288006111 0.1702635599694423 0.1748472116119175 0.1937547746371276 0.22698624904507256 0.2779793735676089 0.3616310160427808 0.4258021390374331 0.4945569136745607 0.5684682964094728 0.639514896867838 0.7180099312452253 0.7678571428571428 0.802807486631016 0.8274446142093199 0.8434873949579832 0.8520817417876241,0.8067226890756303 0.8036669213139801 0.7990832696715049 0.7929717341482048 0.7845683728036671 0.7746371275783042 0.7692895339954163 0.7654698242933538 0.7593582887700535 0.7509549274255156 0.7349121466768526 0.7173414820473645 0.6982429335370512 0.6791443850267379 0.6592818945760122 0.6310160427807487 0.6088617265087853 0.5859434682964095 0.5630252100840336 0.5416348357524828 0.5148968678380443 0.4904507257448434 0.4621848739495799 0.4300993124522536 0.3972498090145149 0.3483575248281131 0.31474407944996186 0.2841864018334607 0.25668449197860965 0.23453017570664625 0.21772345301757068 0.20702826585179526 0.20015278838808248 0.19327731092436973 0.1871657754010695 0.1818181818181817 0.17647058823529416 0.1695951107715814 0.16195569136745602 0.1566080977845684 0.15508021390374327 0.15508021390374327 0.1558441558441559 0.15737203972498093 0.15813598166539344 0.15737203972498093 0.15508021390374327 0.15278838808250572 0.1512605042016807 0.1512605042016807 0.1512605042016807 0.14973262032085566,31.200000000011638 51.20000000001164 71.20000000001164 91.20000000001166 111.20000000001166 131.20000000001164 151.2000000000117 171.2000000000117 191.20000000001167 211.20000000001167 231.20000000001167 251.20000000001167 271.2000000000117 291.2000000000117 311.2000000000117 331.2000000000117 351.2000000000117 371.2000000000117 391.2000000000117 411.2000000000117 431.2000000000117 451.2000000000117 471.2000000000117 491.2000000000117 511.20000000001176 531.2000000000119 551.2000000000119 571.2000000000118 591.2000000000118 611.2000000000118 631.2000000000118 651.2000000000118 671.2000000000118 691.2000000000118 711.2000000000118 731.2000000000118 751.2000000000118 771.2000000000118 791.2000000000118 811.2000000000118 831.2000000000118 851.2000000000118 871.2000000000118 891.2000000000118 911.2000000000118 931.2000000000118 951.2000000000118 971.2000000000118 991.2000000000121 1011.2000000000121 1031.200000000012 1051.200000000012
cb_01,19.0,enc_trial,stim,response,Miami trip,1028.3000000000468,enc_trial,1.0,19.0,t_m_01_1,travel_Miami,fold-a,sandals,1.0,unique,close,paired,t_m_01_1.jpg,Miami,travel-b1,Iceland trip,Miami trip,sub-82,1.0,1.0,1.0,1.0,0.4957028265851795 0.493411000763942 0.4922650878533231 0.4905462184873949 0.4894003055767762 0.4888273491214668 0.4882543926661574 0.4871084797555386 0.484816653934301 0.4819518716577539 0.4779411764705882 0.4745034377387319 0.4710656990068754 0.4653361344537815 0.4578877005347594 0.4504392666157372 0.4389801375095493 0.4309587471352177 0.4229373567608862 0.4143430099312452 0.4086134453781513 0.4023109243697479 0.3983002291825821 0.39085179526356 0.3799656226126814 0.3707983193277311 0.3587662337662337 0.3450152788388082 0.3289724980901451 0.30834606569900685 0.2905844155844156 0.27740641711229946 0.2762605042016807 0.28313598166539344 0.3089190221543163 0.3513177998472116 0.4194996180290298 0.4727845683728037 0.5169022154316272 0.5604469060351414 0.6045645530939648 0.6601413292589763 0.7013941940412528 0.7374904507257448 0.7632734912146676 0.7810351413292589 0.8016615737203971 0.8188502673796791 0.8337471352177234 0.8446333078686019 0.8543735676088616 0.8612490450725744,0.7922077922077921 0.7830404889228418 0.773109243697479 0.7654698242933538 0.7578304048892284 0.7478991596638656 0.7394957983193278 0.7318563789152024 0.7219251336898396 0.7066462948815891 0.6822001527883881 0.6562261268143621 0.6256684491978609 0.5958747135217723 0.5637891520244461 0.5324675324675325 0.4843391902215432 0.4476699770817418 0.41711229946524064 0.3926661573720397 0.3705118411000764 0.3430099312452254 0.3254392666157372 0.3124522536287242 0.3002291825821237 0.28724216959511073 0.2704354469060352 0.2582123758594347 0.24828113063407176 0.2383498854087089 0.2268907563025209 0.2154316271963332 0.21084797555385792 0.2055003819709702 0.19786096256684493 0.1917494270435447 0.1871657754010695 0.1871657754010695 0.18563789152024449 0.1833460656990069 0.1802902979373568 0.174942704354469 0.17188693659281895 0.17035905271199392 0.17035905271199392 0.17035905271199392 0.17035905271199392 0.16730328495034374 0.1650114591291062 0.16271963330786865 0.15966386554621848 0.15813598166539344,0.0 20.0 40.0 60.0 80.0 100.0 120.0 140.0 160.0 180.0 200.0 220.0 240.0 260.0 280.0 300.0 320.0 340.0 360.0 380.0 400.0 420.0 440.0 460.0 480.0 500.0 520.0 540.0 560.0 580.0 600.0 620.0 640.0 660.0 680.0 700.0 720.0 740.0 760.0 780.0 800.0 820.0 840.0 860.0 880.0 900.0 920.0 940.0 960.0 980.0 1000.0 1020.0
cb_01,20.0,enc_trial,stim,response,Miami trip,809.7999999999303,enc_trial,1.0,20.0,t_m_19_1,travel_Miami,fold-b,surfboard,1.0,unique,far,paired,t_m_19_1.jpg,Miami,travel-b1,Iceland trip,Miami trip,sub-82,1.0,1.0,1.0,1.0,0.5014323911382735 0.5020053475935828 0.5031512605042017 0.5042971734148205 0.5060160427807486 0.5083078686019863 0.5105996944232238 0.5123185637891521 0.5128915202444614 0.5128915202444614 0.5128915202444614 0.5128915202444614 0.5123185637891521 0.5111726508785333 0.5088808250572956 0.5071619556913675 0.5037242169595111 0.5002864782276547 0.4957028265851795 0.4922650878533231 0.4916921313980138 0.4916921313980138 0.4945569136745607 0.5020053475935828 0.5157563025210085 0.5398204736440031 0.5799274255156608 0.6143048128342246 0.653838808250573 0.7008212375859434 0.739209320091673 0.7735867074102367 0.791348357524828 0.8039533995416348 0.8131207028265851 0.8217150496562261 0.8320282658517952 0.8452062643239113 0.8583842627960274 0.8618220015278838,0.7234530175706646 0.6967150496562261 0.6730328495034377 0.651642475171887 0.6317799847211611 0.6134453781512605 0.5943468296409473 0.5844155844155844 0.5760122230710466 0.5630252100840336 0.5477463712757831 0.5164247517188694 0.4896867838044309 0.4621848739495799 0.4400305576776165 0.41711229946524064 0.39113827349121466 0.3758594346829641 0.3636363636363637 0.3537051184110007 0.3491214667685256 0.3437738731856379 0.33689839572192515 0.3254392666157372 0.307868601986249 0.2849503437738732 0.2551566080977846 0.23911382734912145 0.22459893048128346 0.21084797555385792 0.19786096256684493 0.18563789152024449 0.1787624140565317 0.17265087853323147 0.16883116883116878 0.16348357524828114 0.1566080977845684 0.14973262032085566 0.14209320091673028 0.13980137509549273,0.0 20.0 40.0 60.0 80.0 100.0 120.0 140.0 160.0 180.0 200.0 220.0 240.0 260.0 280.0 300.0 320.0 340.0 360.0 380.0 400.0 420.0 440.0 460.0 480.0 500.0 520.0 540.0 560.0 580.0 600.0 620.0 640.0 660.0 680.0 700.0 720.0 740.0 760.0 780.0
cb_01,21.0,enc_trial,stim,response,Iceland trip,893.4000000000232,enc_trial,1.0,21.0,t_s_02_1,travel_shared,fold-b,water bottle,1.0,competing,far,paired,t_s_02_1.jpg,,travel-b1,Iceland trip,Miami trip,sub-82,1.0,1.0,1.0,0.0,0.4974216959511077 0.4974216959511077 0.4968487394957983 0.4968487394957983 0.5008594346829641 0.5083078686019863 0.515183346065699 0.5197669977081741 0.5197669977081741 0.5197669977081741 0.5197669977081741 0.5197669977081741 0.5197669977081741 0.5197669977081741 0.5197669977081741 0.5203399541634836 0.5163292589763178 0.5100267379679144 0.5054430863254392 0.5025783040488923 0.4997135217723453 0.4985676088617265 0.4957028265851795 0.4922650878533231 0.4882543926661574 0.4767952635599694 0.4618983957219252 0.442990832696715 0.4235103132161956 0.3965813598166539 0.3627769289533995 0.3381398013750955 0.3152215431627196 0.29402215431627193 0.27454163483575245 0.25964476699770817 0.2418831168831169 0.2264132925897632 0.20865164247517187 0.19432773109243687 0.18401451489686785 0.1737012987012987 0.16854469060351412 0.16396103896103895 0.15995034377387318 0.15937738731856374,0.7379679144385027 0.6898395721925134 0.6401833460656989 0.5996944232238349 0.5653170359052713 0.5362872421695951 0.5301757066462949 0.5301757066462949 0.5301757066462949 0.5301757066462949 0.5301757066462949 0.5301757066462949 0.5301757066462949 0.5301757066462949 0.5301757066462949 0.53475935828877 0.5462184873949579 0.5538579067990832 0.5546218487394958 0.5523300229182582 0.5446906035141329 0.5370511841100076 0.5240641711229946 0.5080213903743316 0.4858670741023682 0.4537815126050421 0.4300993124522536 0.4079449961802904 0.3834988540870894 0.3521772345301757 0.3116883116883117 0.2834224598930481 0.2620320855614974 0.2490450725744844 0.2375859434682964 0.2276546982429335 0.21772345301757068 0.21084797555385792 0.2055003819709702 0.1970970206264324 0.187929717341482 0.1787624140565317 0.17265087853323147 0.16883116883116878 0.1650114591291062 0.16348357524828114,0.0 20.0 40.0 60.0 80.0 100.0 120.0 140.0 160.0 180.0 200.0 220.0 240.0 260.0 280.0 300.0 320.0 340.0 360.0 380.0 400.0 420.0 440.0 460.0 480.0 500.0 520.0 540.0 560.0 580.0 600.0 620.0 640.0 660.0 680.0 700.0 720.0 740.0 760.0 780.0 800.0 820.0 840.0 860.0 880.0 900.0
cb_01,22.0,enc_trial,stim,response,Miami trip,1180.5,enc_trial,1.0,22.0,t_s_21_2,travel_shared,fold-b,umbrella,1.0,competing,far,paired,t_s_21_2.jpg,,travel-b1,Iceland trip,Miami trip,sub-82,0.0,0.0,1.0,1.0,0.4991405653170359 0.4991405653170359 0.4985676088617265 0.4974216959511077 0.4974216959511077 0.4968487394957983 0.4968487394957983 0.4968487394957983 0.4968487394957983 0.4968487394957983 0.4968487394957983 0.4968487394957983 0.4968487394957983 0.4968487394957983 0.4968487394957983 0.4968487394957983 0.4968487394957983 0.4968487394957983 0.4968487394957983 0.4968487394957983 0.4968487394957983 0.4968487394957983 0.4968487394957983 0.4968487394957983 0.4985676088617265 0.5020053475935828 0.506588999236058 0.5134644766997708 0.5266424751718869 0.5507066462948816 0.5805003819709702 0.6292016806722689 0.6733193277310924 0.7174369747899159 0.7581168831168831 0.7850458365164247 0.8033804430863254 0.8096829640947287 0.811401833460657 0.811401833460657 0.8091100076394193 0.7976508785332315 0.783899923605806 0.7621275783040489 0.7340527119938884 0.7013941940412528 0.6641520244461421 0.6521199388846447 0.6549847211611917 0.6738922841864018 0.7013941940412528 0.7426470588235293 0.7707219251336898 0.7959320091673032 0.8228609625668448 0.8452062643239113 0.8589572192513368 0.8601031321619557,0.7616501145912911 0.7356760886172651 0.7135217723453018 0.6936592818945759 0.677616501145913 0.6646294881588999 0.6592818945760122 0.6539343009931244 0.651642475171887 0.6508785332314744 0.6508785332314744 0.6508785332314744 0.6508785332314744 0.6508785332314744 0.6501145912910619 0.6501145912910619 0.6493506493506493 0.6485867074102368 0.6470588235294117 0.6455309396485867 0.6432391138273491 0.6417112299465241 0.6401833460656989 0.6386554621848739 0.6340718105423988 0.6264323911382734 0.6187929717341483 0.6065699006875478 0.5851795263559969 0.5477463712757831 0.4996180290297937 0.4262796027501909 0.3659281894576012 0.3093964858670741 0.2620320855614974 0.2307104660045837 0.21084797555385792 0.20320855614973266 0.2024446142093201 0.2024446142093201 0.2009167303284949 0.19862490450725745 0.1963330786860199 0.19327731092436973 0.18945760122230715 0.1871657754010695 0.1802902979373568 0.17341482047364398 0.16806722689075626 0.16042780748663096 0.15355233002291824 0.14820473644003052 0.14438502673796794 0.14209320091673028 0.13674560733384267 0.13139801375095495 0.12681436210847974 0.12681436210847974,0.0 20.0 40.0 60.0 80.0 100.0 120.0 140.0 160.0 180.0 200.0 220.0 240.0 260.0 280.0 300.0 320.0 340.0 360.0 380.0 400.0 420.0 440.0 460.0 480.0 500.0 520.0 540.0 560.0 580.0 600.0 620.0 640.0 660.0 680.0 700.0 720.0 740.0 760.0 780.0 800.0 820.0 840.0 860.0 880.0 900.0 920.0 940.0 960.0 980.0 1000.0 1020.0 1040.0 1060.0 1080.0 1100.0 1120.0 1140.0
cb_01,23.0,enc_trial,stim,response,Miami trip,1351.9000000000233,enc_trial,1.0,23.0,t_s_12_2,travel_shared,fold-b,clear toiletry bag,1.0,competing,far,paired,t_s_12_2.jpg,,travel-b1,Iceland trip,Miami trip,sub-82,1.0,1.0,1.0,1.0,0.5014323911382735 0.5014323911382735 0.5014323911382735 0.5014323911382735 0.5014323911382735 0.5020053475935828 0.5020053475935828 0.5020053475935828 0.5020053475935828 0.5020053475935828 0.5020053475935828 0.5031512605042017 0.5031512605042017 0.5031512605042017 0.5031512605042017 0.5031512605042017 0.5031512605042017 0.5031512605042017 0.5031512605042017 0.5031512605042017 0.5031512605042017 0.5031512605042017 0.5031512605042017 0.5025783040488923 0.5025783040488923 0.5020053475935828 0.5008594346829641 0.5008594346829641 0.5008594346829641 0.5008594346829641 0.5008594346829641 0.5020053475935828 0.5054430863254392 0.5117456073338427 0.5203399541634836 0.5340909090909091 0.5564362108479756 0.5770626432391138 0.5965431627196333 0.614877769289534 0.6320664629488159 0.6572765469824293 0.6750381970970206 0.6899350649350648 0.7036860198624904 0.7134262796027502 0.7260313216195569 0.736344537815126 0.7478036669213142 0.7586898395721925 0.7684300993124522 0.7821810542398777 0.7924942704354468 0.7999427043544691 0.8039533995416348 0.8039533995416348 0.7982238349885408 0.7902024446142093 0.7850458365164247 0.7821810542398777 0.7810351413292589 0.7833269671504965 0.791348357524828 0.8108288770053476 0.8308823529411764 0.8423414820473644 0.8469251336898396,0.7983193277310925 0.7952635599694423 0.7922077922077921 0.7899159663865546 0.7868601986249045 0.7830404889228418 0.7761650114591291 0.7715813598166539 0.7677616501145913 0.7639419404125286 0.7593582887700535 0.7540106951871658 0.7486631016042781 0.7433155080213903 0.7372039724980901 0.7310924369747901 0.7203972498090145 0.7089381207028266 0.6921313980137509 0.6745607333842628 0.6592818945760122 0.6424751718869366 0.6302521008403361 0.6172650878533231 0.6035141329258976 0.5912910618792973 0.5760122230710466 0.5660809778456837 0.5569136745607334 0.5500381970970206 0.5454545454545454 0.5370511841100076 0.5271199388846448 0.5148968678380443 0.4996180290297937 0.4828113063407181 0.4606569900687548 0.4446142093200917 0.4278074866310161 0.4094728800611154 0.3903743315508021 0.3575248281130634 0.3315508021390374 0.306340718105424 0.2834224598930481 0.2666157372039725 0.24828113063407176 0.2352941176470589 0.2230710466004584 0.21161191749427044 0.2009167303284949 0.18869365928189447 0.1802902979373568 0.174942704354469 0.17188693659281895 0.17188693659281895 0.17188693659281895 0.17188693659281895 0.16806722689075626 0.1650114591291062 0.16348357524828114 0.1611917494270435 0.1566080977845684 0.14973262032085566 0.14362108479755542 0.14132925897631776 0.14132925897631776,0.0 20.0 40.0 60.0 80.0 100.0 120.0 140.0 160.0 180.0 200.0 220.0 240.0 260.0 280.0 300.0 320.0 340.0 360.0 380.0 400.0 420.0 440.0 460.0 480.0 500.0 520.0 540.0 560.0 580.0 600.0 620.0 640.0 660.0 680.0 700.0 720.0 740.0 760.0 780.0 800.0 820.0 840.0 860.0 880.0 900.0 920.0 940.0 960.0 980.0 1000.0 1020.0 1040.0 1060.0 1080.0 1100.0 1120.0 1140.0 1160.0 1180.0 1200.0 1220.0 1240.0 1260.0 1280.0 1300.0 1320.0
cb_01,24.0,enc_trial,stim,response,Miami trip,1427.4000000000233,enc_trial,1.0,24.0,t_s_06_1,travel_shared,fold-b,luggage,1.0,competing,far,paired,t_s_06_1.jpg,,travel-b1,Iceland trip,Miami trip,sub-82,1.0,1.0,1.0,1.0,0.4991405653170359 0.4991405653170359 0.4997135217723453 0.5002864782276547 0.5002864782276547 0.5008594346829641 0.5008594346829641 0.5014323911382735 0.5020053475935828 0.5020053475935828 0.5031512605042017 0.5042971734148205 0.5054430863254392 0.5071619556913675 0.5083078686019863 0.5094537815126049 0.5117456073338427 0.5134644766997708 0.5146103896103896 0.5157563025210085 0.5157563025210085 0.515183346065699 0.5134644766997708 0.5111726508785333 0.5077349121466769 0.5031512605042017 0.4957028265851795 0.4888273491214668 0.4819518716577539 0.4745034377387319 0.4653361344537815 0.4458556149732621 0.4298128342245989 0.4217914438502674 0.4172077922077922 0.4172077922077922 0.4280939648586707 0.44184491978609625 0.4584606569900688 0.4802330022918258 0.5054430863254392 0.5507066462948816 0.5913865546218486 0.6292016806722689 0.6635790679908327 0.6939457601222306 0.7340527119938884 0.7592627960275019 0.7821810542398777 0.8016615737203971 0.8177043544690603 0.8343200916730328 0.8423414820473644 0.8474980901451489 0.8486440030557677 0.8486440030557677 0.8486440030557677 0.8486440030557677 0.8486440030557677 0.8486440030557677 0.8486440030557677 0.8486440030557677 0.8486440030557677 0.8486440030557677 0.8457792207792207 0.8400496562261268 0.8371848739495797,0.7983193277310925 0.7960275019098548 0.7914438502673797 0.7883880825057296 0.7860962566844921 0.7838044308632544 0.7830404889228418 0.7807486631016043 0.7776928953399542 0.7746371275783042 0.7677616501145913 0.7608861726508785 0.7509549274255156 0.7387318563789151 0.7249809014514896 0.7089381207028266 0.6844919786096257 0.6669213139801375 0.6493506493506493 0.6333078686019862 0.6180290297937356 0.5958747135217723 0.5805958747135218 0.5660809778456837 0.5523300229182582 0.5385790679908327 0.5194805194805194 0.5026737967914439 0.4866310160427807 0.4705882352941176 0.4553093964858671 0.4300993124522536 0.4079449961802904 0.3896103896103896 0.372803666921314 0.3613445378151261 0.34606569900687545 0.3330786860198625 0.3216195569136746 0.3093964858670741 0.29640947288006114 0.2788388082505729 0.2643239113827349 0.2505729564553094 0.2375859434682964 0.2261268143621085 0.21313980137509547 0.2055003819709702 0.19862490450725745 0.1925133689839572 0.1871657754010695 0.1818181818181817 0.1779984721161192 0.17570664629488164 0.174942704354469 0.174942704354469 0.174942704354469 0.174942704354469 0.174942704354469 0.174942704354469 0.174942704354469 0.174942704354469 0.174942704354469 0.174942704354469 0.174942704354469 0.17647058823529416 0.17647058823529416,43.69999999995344 63.69999999995344 83.69999999995345 103.69999999995345 123.69999999995345 143.69999999995343 163.69999999995343 183.69999999995343 203.69999999995343 223.69999999995343 243.69999999995343 263.69999999995343 283.69999999995343 303.69999999995343 323.69999999995343 343.69999999995343 363.69999999995343 383.69999999995343 403.69999999995343 423.69999999995343 443.69999999995343 463.69999999995343 483.69999999995343 503.69999999995343 523.6999999999534 543.6999999999534 563.6999999999534 583.6999999999534 603.6999999999534 623.6999999999534 643.6999999999534 663.6999999999534 683.6999999999534 703.6999999999533 723.6999999999533 743.6999999999533 763.6999999999533 783.6999999999533 803.6999999999533 823.6999999999533 843.6999999999533 863.6999999999533 883.6999999999533 903.6999999999533 923.6999999999533 943.6999999999533 963.6999999999533 983.6999999999533 1003.6999999999533 1023.6999999999533 1043.6999999999532 1063.6999999999532 1083.6999999999532 1103.6999999999532 1123.6999999999532 1143.6999999999534 1163.6999999999534 1183.6999999999534 1203.6999999999534 1223.6999999999534 1243.6999999999534 1263.6999999999534 1283.6999999999534 1303.6999999999534 1323.6999999999534 1343.6999999999534 1363.6999999999534
cb_01,25.0,enc_trial,stim,response,Iceland trip,1264.0999999999185,enc_trial,1.0,25.0,t_s_18_1,travel_shared,fold-a,first aid kit,1.0,competing,close,paired,t_s_18_1.jpg,,travel-b1,Iceland trip,Miami trip,sub-82,1.0,1.0,1.0,1.0,0.4962757830404889 0.4968487394957983 0.4968487394957983 0.4974216959511077 0.4979946524064171 0.4979946524064171 0.4979946524064171 0.4985676088617265 0.4985676088617265 0.4985676088617265 0.4985676088617265 0.4985676088617265 0.4985676088617265 0.4985676088617265 0.4985676088617265 0.4985676088617265 0.4991405653170359 0.4991405653170359 0.4991405653170359 0.4991405653170359 0.4985676088617265 0.4974216959511077 0.4974216959511077 0.4957028265851795 0.4922650878533231 0.4899732620320856 0.4859625668449198 0.4819518716577539 0.4767952635599694 0.4722116119174943 0.4693468296409473 0.4687738731856379 0.4745034377387319 0.4830977845683728 0.4928380443086325 0.5060160427807486 0.5289343009931246 0.545550038197097 0.5604469060351414 0.5678953399541635 0.5690412528647822 0.557009167303285 0.5340909090909091 0.5037242169595111 0.4693468296409473 0.4309587471352177 0.3805385790679908 0.34616119174942706 0.3129297173414821 0.2842818945760122 0.2544881588999236 0.22182964094728796 0.2023491214667685 0.1891711229946524 0.17771199388846445 0.17140947288006111 0.1691176470588235 0.16739877769289532 0.16281512605042014 0.15823147440794502 0.1547937356760886 0.1530748663101604,0.7792207792207793 0.7677616501145913 0.7578304048892284 0.7509549274255156 0.7456073338426279 0.7417876241405653 0.7394957983193278 0.7387318563789151 0.7379679144385027 0.7372039724980901 0.7356760886172651 0.7341482047364399 0.732620320855615 0.7303284950343774 0.7280366692131398 0.7226890756302521 0.7158135981665393 0.7066462948815891 0.6951871657754011 0.6829640947288006 0.6692131398013751 0.6508785332314744 0.6363636363636364 0.6203208556149733 0.6042780748663101 0.5859434682964095 0.5622612681436211 0.5439266615737204 0.5271199388846448 0.5110771581359816 0.4935064935064936 0.4721161191749426 0.4553093964858671 0.4415584415584416 0.4293353705118411 0.4163483575248281 0.3980137509549274 0.3842627960275019 0.36898395721925137 0.35523300229182586 0.3453017570664629 0.3315508021390374 0.3177998472116119 0.30099312452253624 0.2841864018334607 0.267379679144385 0.2490450725744844 0.239877769289534 0.2337662337662337 0.23147440794499616 0.2268907563025209 0.2192513368983957 0.21161191749427044 0.2055003819709702 0.2009167303284949 0.19786096256684493 0.19556913674560736 0.19404125286478224 0.19022154316271966 0.18563789152024449 0.1833460656990069 0.1802902979373568,0.0 20.0 40.0 60.0 80.0 100.0 120.0 140.0 160.0 180.0 200.0 220.0 240.0 260.0 280.0 300.0 320.0 340.0 360.0 380.0 400.0 420.0 440.0 460.0 480.0 500.0 520.0 540.0 560.0 580.0 600.0 620.0 640.0 660.0 680.0 700.0 720.0 740.0 760.0 780.0 800.0 820.0 840.0 860.0 880.0 900.0 920.0 940.0 960.0 980.0 1000.0 1020.0 1040.0 1060.0 1080.0 1100.0 1120.0 1140.0 1160.0 1180.0 1200.0 1220.0
cb_01,26.0,enc_trial,stim,response,Miami trip,1080.100000000035,enc_trial,1.0,26.0,t_m_01_2,travel_Miami,fold-a,sandals,1.0,unique,close,paired,t_m_01_2.jpg,Miami,travel-b1,Iceland trip,Miami trip,sub-82,1.0,1.0,1.0,1.0,0.4974216959511077 0.4979946524064171 0.4985676088617265 0.4997135217723453 0.5020053475935828 0.5037242169595111 0.5060160427807486 0.5071619556913675 0.5071619556913675 0.5071619556913675 0.5071619556913675 0.5083078686019863 0.5100267379679144 0.5128915202444614 0.5157563025210085 0.5186210847975554 0.5232047364400305 0.5272154316271963 0.5323720397249809 0.5386745607333843 0.545550038197097 0.5564362108479756 0.5644576012223071 0.5719060351413293 0.5799274255156608 0.5902406417112299 0.6045645530939648 0.6137318563789151 0.6217532467532467 0.6314935064935064 0.6440985485103131 0.6601413292589763 0.6738922841864018 0.6864973262032085 0.6968105423987776 0.7082696715049656 0.7266042780748663 0.7409281894576012 0.7535332314744079 0.7649923605805958 0.7770244461420931 0.7947860962566844 0.8096829640947287 0.8240068754774637 0.8354660045836516 0.8434873949579832 0.8452062643239113,0.7967914438502673 0.7868601986249045 0.7761650114591291 0.7616501145912911 0.7456073338426279 0.7265087853323147 0.7035905271199389 0.6928953399541635 0.6898395721925134 0.6883116883116883 0.6867838044308632 0.6822001527883881 0.6730328495034377 0.6592818945760122 0.6417112299465241 0.6218487394957983 0.5974025974025974 0.5760122230710466 0.5515660809778458 0.5271199388846448 0.5011459129106188 0.4705882352941176 0.4499618029029794 0.43162719633307867 0.4163483575248281 0.3987776928953399 0.3758594346829641 0.3605805958747135 0.3468296409472881 0.3330786860198625 0.31856378915202443 0.30099312452253624 0.28800611153552325 0.2773109243697479 0.2689075630252101 0.2589763177998472 0.2429335370511841 0.22918258212375864 0.21619556913674565 0.2055003819709702 0.19556913674560736 0.18411000763941945 0.174942704354469 0.16730328495034374 0.16195569136745602 0.15737203972498093 0.1566080977845684,0.0 20.0 40.0 60.0 80.0 100.0 120.0 140.0 160.0 180.0 200.0 220.0 240.0 260.0 280.0 300.0 320.0 340.0 360.0 380.0 400.0 420.0 440.0 460.0 480.0 500.0 520.0 540.0 560.0 580.0 600.0 620.0 640.0 660.0 680.0 700.0 720.0 740.0 760.0 780.0 800.0 820.0 840.0 860.0 880.0 900.0 920.0
cb_01,27.0,enc_trial,stim,response,Iceland trip,869.8999999998488,enc_trial,1.0,27.0,t_i_19_2,travel_Iceland,fold-b,rope,1.0,unique,far,paired,t_i_19_2.jpg,Iceland,travel-b1,Iceland trip,Miami trip,sub-82,1.0,1.0,1.0,1.0,0.4974216959511077 0.4974216959511077 0.4974216959511077 0.4974216959511077 0.4974216959511077 0.4974216959511077 0.4974216959511077 0.4974216959511077 0.4974216959511077 0.4979946524064171 0.4985676088617265 0.4997135217723453 0.5008594346829641 0.5020053475935828 0.5031512605042017 0.5037242169595111 0.5037242169595111 0.5037242169595111 0.5037242169595111 0.5037242169595111 0.5025783040488923 0.5008594346829641 0.5014323911382735 0.5031512605042017 0.5037242169595111 0.4957028265851795 0.4756493506493506 0.4435637891520244 0.4057486631016043 0.3696524064171123 0.33011841100076394 0.27912528647822765 0.24761268143621085 0.22240259740259727 0.2052139037433155 0.1937547746371276 0.18114973262032089 0.17140947288006111 0.16338808250572956 0.15995034377387318 0.15937738731856374,0.8342245989304813 0.8319327731092436 0.8296409472880061 0.8288770053475936 0.8288770053475936 0.8273491214667685 0.8273491214667685 0.8250572956455309 0.8220015278838808 0.8181818181818181 0.8097784568372803 0.8013750954927426 0.7914438502673797 0.7807486631016043 0.7616501145912911 0.7333842627960274 0.6852559205500381 0.6470588235294117 0.6134453781512605 0.5775401069518716 0.5355233002291826 0.5011459129106188 0.4660045836516424 0.4362108479755539 0.4117647058823529 0.3873185637891521 0.3705118411000764 0.3529411764705882 0.33384262796027503 0.31016042780748665 0.2811306340718105 0.2467532467532467 0.228418640183346 0.21772345301757068 0.21084797555385792 0.2055003819709702 0.1970970206264324 0.18945760122230715 0.1833460656990069 0.1787624140565317 0.1787624140565317,37.5 57.5 77.5 97.5 117.5 137.5 157.5 177.5 197.5 217.5 237.5 257.5 277.5 297.5 317.5 337.5 357.5 377.5 397.5 417.5 437.5 457.5 477.5 497.5 517.5 537.5 557.5 577.5 597.5 617.5 637.5 657.5 677.5 697.5 717.5 737.5 757.5 777.5 797.5 817.5 837.5
cb_01,28.0,enc_trial,stim,response,Iceland trip,1170.5999999999767,enc_trial,1.0,28.0,t_s_13_1,travel_shared,fold-c-single,contact lens case,1.0,competing,,single,t_s_13_1.jpg,,travel-b1,Iceland trip,Miami trip,sub-82,1.0,,1.0,,0.5048701298701299 0.5037242169595111 0.5020053475935828 0.5002864782276547 0.4985676088617265 0.4962757830404889 0.4957028265851795 0.4985676088617265 0.4985676088617265 0.4985676088617265 0.4985676088617265 0.4985676088617265 0.4985676088617265 0.4985676088617265 0.4985676088617265 0.4985676088617265 0.4991405653170359 0.4985676088617265 0.4939839572192513 0.4894003055767762 0.4830977845683728 0.4779411764705882 0.4739304812834225 0.4716386554621849 0.4670550038197097 0.4590336134453781 0.4510122230710466 0.4424178762414057 0.4349694423223835 0.4298128342245989 0.426948051948052 0.4252291825821238 0.4235103132161956 0.418353705118411 0.4080404889228417 0.39085179526356 0.3748090145148968 0.35475553857906794 0.32782658517952634 0.3037624140565317 0.27740641711229946 0.26193659281894577 0.2504774637127578 0.2390183346065699 0.22870511841100075 0.2172459893048128 0.21094346829640945 0.20693277310924368 0.2040679908326967 0.20063025210084032 0.19661955691367453 0.19432773109243687 0.19203590527119926 0.1903170359052712 0.18630634071810545 0.18172268907563024 0.17885790679908325 0.17771199388846445 0.17656608097784568,0.8051948051948052 0.7967914438502673 0.7830404889228418 0.7608861726508785 0.7356760886172651 0.7104660045836517 0.7012987012987013 0.7012987012987013 0.7012987012987013 0.7012987012987013 0.7012987012987013 0.7012987012987013 0.7012987012987013 0.7012987012987013 0.7012987012987013 0.7012987012987013 0.7028265851795263 0.7043544690603514 0.7043544690603514 0.7051184110007641 0.7051184110007641 0.7051184110007641 0.7035905271199389 0.7005347593582888 0.6913674560733385 0.6715049656226126 0.6478227654698243 0.6203208556149733 0.5912910618792973 0.5668449197860963 0.5317035905271199 0.5080213903743316 0.4896867838044309 0.4736440030557678 0.4560733384262796 0.4300993124522536 0.4033613445378152 0.3743315508021391 0.3468296409472881 0.32314744079449964 0.2979373567608862 0.27960275019098546 0.26585179526355995 0.25286478227654696 0.2414056531703589 0.22918258212375864 0.22230710466004588 0.21772345301757068 0.213903743315508 0.21084797555385792 0.2047364400305577 0.2009167303284949 0.19862490450725745 0.19556913674560736 0.19327731092436973 0.18945760122230715 0.1871657754010695 0.1871657754010695 0.1871657754010695,0.0 20.0 40.0 60.0 80.0 100.0 120.0 140.0 160.0 180.0 200.0 220.0 240.0 260.0 280.0 300.0 320.0 340.0 360.0 380.0 400.0 420.0 440.0 460.0 480.0 500.0 520.0 540.0 560.0 580.0 600.0 620.0 640.0 660.0 680.0 700.0 720.0 740.0 760.0 780.0 800.0 820.0 840.0 860.0 880.0 900.0 920.0 940.0 960.0 980.0 1000.0 1020.0 1040.0 1060.0 1080.0 1100.0 1120.0 1140.0 1160.0
cb_01,29.0,enc_trial,stim,response,Iceland trip,1192.2000000000694,enc_trial,1.0,29.0,t_i_15_1,travel_Iceland,fold-a,compass,1.0,unique,close,paired,t_i_15_1.jpg,Iceland,travel-b1,Iceland trip,Miami trip,sub-82,1.0,1.0,1.0,1.0,0.5020053475935828 0.5020053475935828 0.5014323911382735 0.5008594346829641 0.5008594346829641 0.5008594346829641 0.5008594346829641 0.5002864782276547 0.5002864782276547 0.5002864782276547 0.5002864782276547 0.5002864782276547 0.5002864782276547 0.5002864782276547 0.5014323911382735 0.5037242169595111 0.506588999236058 0.5083078686019863 0.5094537815126049 0.5123185637891521 0.5146103896103896 0.5169022154316272 0.515183346065699 0.5100267379679144 0.5025783040488923 0.4962757830404889 0.4888273491214668 0.4825248281130634 0.473357524828113 0.4596065699006875 0.4458556149732621 0.4223644003055768 0.39257066462948814 0.35762032085561496 0.3232429335370512 0.29115737203972497 0.24646676852559204 0.21667303284950346 0.1903170359052712 0.17140947288006111 0.15651260504201678 0.14333460656990069 0.1387509549274255 0.1381779984721161,0.8227654698242933 0.8204736440030558 0.8174178762414057 0.813598166539343 0.8090145148968678 0.8036669213139801 0.7922077922077921 0.7815126050420168 0.7647058823529411 0.7440794499618029 0.7226890756302521 0.6936592818945759 0.6715049656226126 0.6501145912910619 0.6287242169595111 0.6080977845683728 0.5828877005347594 0.5653170359052713 0.5492742551566081 0.5301757066462949 0.5133689839572193 0.4927425515660809 0.4805194805194806 0.4690603514132926 0.4537815126050421 0.43544690603514136 0.4110007639419404 0.3941940412528648 0.3789152024446142 0.3636363636363637 0.3468296409472881 0.3223834988540871 0.30099312452253624 0.2811306340718105 0.2643239113827349 0.2536287242169595 0.2444614209320092 0.2360580595874714 0.22459893048128346 0.213903743315508 0.2039724980901452 0.19556913674560736 0.19022154316271966 0.18869365928189447,262.4000000000233 282.4000000000233 302.4000000000233 322.4000000000233 342.4000000000233 362.40000000002334 382.40000000002334 402.40000000002334 422.40000000002334 442.40000000002334 462.40000000002334 482.40000000002334 502.40000000002334 522.4000000000234 542.4000000000234 562.4000000000234 582.4000000000233 602.4000000000233 622.4000000000233 642.4000000000233 662.4000000000233 682.4000000000233 702.4000000000232 722.4000000000232 742.4000000000232 762.4000000000232 782.4000000000232 802.4000000000232 822.4000000000232 842.4000000000232 862.4000000000232 882.4000000000232 902.4000000000232 922.4000000000232 942.4000000000232 962.4000000000232 982.4000000000232 1002.4000000000232 1022.4000000000232 1042.4000000000233 1062.4000000000233 1082.4000000000233 1102.4000000000233 1122.4000000000233
cb_01,30.0,enc_trial,stim,response,Iceland trip,1249.4999999998836,enc_trial,1.0,30.0,t_s_15_1,travel_shared,fold-c-single,luggage tag,1.0,competing,,single,t_s_15_1.jpg,,travel-b1,Iceland trip,Miami trip,sub-82,1.0,,1.0,,0.4945569136745607 0.4911191749427044 0.4871084797555386 0.4819518716577539 0.4767952635599694 0.4704927425515661 0.4704927425515661 0.4704927425515661 0.4704927425515661 0.4704927425515661 0.4704927425515661 0.4704927425515661 0.4704927425515661 0.4704927425515661 0.4704927425515661 0.4704927425515661 0.4704927425515661 0.4693468296409473 0.4682009167303285 0.4664820473644003 0.4659090909090909 0.4659090909090909 0.4664820473644003 0.4659090909090909 0.4641902215431627 0.4613254392666157 0.4567417876241406 0.4527310924369748 0.4492933537051184 0.44642857142857145 0.44413674560733385 0.4389801375095493 0.4309587471352177 0.4223644003055768 0.4109052711993889 0.3954354469060352 0.3696524064171123 0.3484530175706646 0.32839954163483576 0.3089190221543163 0.2923032849503437 0.2705309396485867 0.2567799847211612 0.24532085561497324 0.2367265087853323 0.23099694423223835 0.22354851031321613 0.21438120702826585 0.20693277310924368 0.19948433919022154 0.1926088617265088 0.18114973262032089 0.17140947288006111 0.16396103896103895 0.15823147440794502 0.1547937356760886 0.15364782276546982,0.7891520244461421 0.7662337662337663 0.7417876241405653 0.7127578304048892 0.6890756302521008 0.677616501145913 0.6768525592055004 0.6768525592055004 0.6768525592055004 0.6768525592055004 0.6768525592055004 0.6768525592055004 0.6768525592055004 0.6768525592055004 0.6768525592055004 0.6768525592055004 0.6768525592055004 0.6768525592055004 0.677616501145913 0.677616501145913 0.6745607333842628 0.6707410236822002 0.6676852559205501 0.6592818945760122 0.6470588235294117 0.6325439266615738 0.6065699006875478 0.5844155844155844 0.5561497326203209 0.5286478227654698 0.5019098548510313 0.4637127578304049 0.4331550802139037 0.4071810542398777 0.3804430863254392 0.3529411764705882 0.31474407944996186 0.2857142857142857 0.26126814362108475 0.23911382734912145 0.22230710466004588 0.2055003819709702 0.19556913674560736 0.18563789152024449 0.1787624140565317 0.17188693659281895 0.1657754010695187 0.16042780748663096 0.1566080977845684 0.1520244461420932 0.14973262032085566 0.14667685255920548 0.14438502673796794 0.1428571428571429 0.14132925897631776 0.14132925897631776 0.14132925897631776,0.0 20.0 40.0 60.0 80.0 100.0 120.0 140.0 160.0 180.0 200.0 220.0 240.0 260.0 280.0 300.0 320.0 340.0 360.0 380.0 400.0 420.0 440.0 460.0 480.0 500.0 520.0 540.0 560.0 580.0 600.0 620.0 640.0 660.0 680.0 700.0 720.0 740.0 760.0 780.0 800.0 820.0 840.0 860.0 880.0 900.0 920.0 940.0 960.0 980.0 1000.0 1020.0 1040.0 1060.0 1080.0 1100.0 1120.0
cb_01,31.0,enc_trial,stim,response,Miami trip,1015.5999999999768,enc_trial,1.0,31.0,t_m_18_2,travel_Miami,fold-b,waterproof tote,1.0,unique,far,paired,t_m_18_2.jpg,Miami,travel-b1,Iceland trip,Miami trip,sub-82,1.0,1.0,1.0,1.0,0.5002864782276547 0.5002864782276547 0.4997135217723453 0.4997135217723453 0.4997135217723453 0.4997135217723453 0.4997135217723453 0.4997135217723453 0.4997135217723453 0.4985676088617265 0.4985676088617265 0.4985676088617265 0.4985676088617265 0.4985676088617265 0.4991405653170359 0.5002864782276547 0.5020053475935828 0.5020053475935828 0.5031512605042017 0.5031512605042017 0.5031512605042017 0.5042971734148205 0.5054430863254392 0.5071619556913675 0.5083078686019863 0.5088808250572956 0.5123185637891521 0.5157563025210085 0.520912910618793 0.5272154316271963 0.5340909090909091 0.5449770817417876 0.5541443850267379 0.5638846447669977 0.5741978609625669 0.5868029029793735 0.6051375095492741 0.6217532467532467 0.639514896867838 0.6635790679908327 0.6905080213903743 0.7237394957983193 0.7478036669213142 0.7678571428571428 0.7867647058823529 0.8050993124522535 0.8280175706646294 0.8429144385026738 0.8538006111535523 0.8601031321619557 0.8612490450725744,0.8250572956455309 0.8227654698242933 0.8204736440030558 0.8181818181818181 0.8166539343009931 0.8151260504201681 0.8143621084797555 0.813598166539343 0.812070282658518 0.8113063407181054 0.8082505729564553 0.8013750954927426 0.7944996180290298 0.7845683728036671 0.7715813598166539 0.7547746371275783 0.7310924369747901 0.7127578304048892 0.6944232238349886 0.6760886172650878 0.6562261268143621 0.6287242169595111 0.6065699006875478 0.5851795263559969 0.5676088617265087 0.5508021390374331 0.5286478227654698 0.5110771581359816 0.4950343773873186 0.4782276546982429 0.4637127578304049 0.4446142093200917 0.43162719633307867 0.4194041252864782 0.4071810542398777 0.3926661573720397 0.37203972498090143 0.35523300229182586 0.3376623376623377 0.3177998472116119 0.2971734148204737 0.2727272727272727 0.25668449197860965 0.2429335370511841 0.2276546982429335 0.21161191749427044 0.19327731092436973 0.18105423987776925 0.17188693659281895 0.16653934300993126 0.1650114591291062,0.0 20.0 40.0 60.0 80.0 100.0 120.0 140.0 160.0 180.0 200.0 220.0 240.0 260.0 280.0 300.0 320.0 340.0 360.0 380.0 400.0 420.0 440.0 460.0 480.0 500.0 520.0 540.0 560.0 580.0 600.0 620.0 640.0 660.0 680.0 700.0 720.0 740.0 760.0 780.0 800.0 820.0 840.0 860.0 880.0 900.0 920.0 940.0 960.0 980.0 1000.0
cb_01,32.0,enc_trial,stim,response,Miami trip,1115.3000000000468,enc_trial,1.0,32.0,t_s_18_2,travel_shared,fold-a,first aid kit,1.0,competing,close,paired,t_s_18_2.jpg,,travel-b1,Iceland trip,Miami trip,sub-82,1.0,1.0,1.0,1.0,0.4974216959511077 0.4979946524064171 0.4991405653170359 0.4997135217723453 0.4997135217723453 0.5002864782276547 0.5002864782276547 0.5002864782276547 0.5002864782276547 0.5002864782276547 0.5008594346829641 0.5014323911382735 0.5020053475935828 0.5031512605042017 0.5042971734148205 0.5071619556913675 0.5094537815126049 0.5111726508785333 0.5117456073338427 0.5123185637891521 0.5123185637891521 0.5134644766997708 0.5157563025210085 0.5197669977081741 0.5249236058059588 0.5300802139037433 0.5358097784568373 0.5375286478227654 0.5375286478227654 0.5346638655462185 0.5243506493506493 0.5111726508785333 0.4945569136745607 0.473357524828113 0.4424178762414057 0.4160618792971734 0.3862681436210848 0.3725171886936593 0.3685064935064935 0.3759549274255157 0.3942895339954163 0.4343964858670741 0.4773682200152789 0.5197669977081741 0.5627387318563789 0.606283422459893 0.6589954163483575 0.6905080213903743 0.7185828877005347 0.7437929717341482 0.7667112299465241 0.7953590527119938 0.8165584415584415 0.8331741787624141 0.8434873949579832 0.8457792207792207,0.8220015278838808 0.8166539343009931 0.8113063407181054 0.8051948051948052 0.8021390374331551 0.7998472116119175 0.7983193277310925 0.7983193277310925 0.7967914438502673 0.7960275019098548 0.7914438502673797 0.7876241405653169 0.7815126050420168 0.7723453017570665 0.7593582887700535 0.7341482047364399 0.7135217723453018 0.6928953399541635 0.6730328495034377 0.6501145912910619 0.6233766233766234 0.5844155844155844 0.5569136745607334 0.53475935828877 0.5118411000763943 0.4927425515660809 0.4705882352941176 0.4530175706646294 0.4377387318563789 0.4194041252864782 0.3980137509549274 0.3819709702062644 0.3659281894576012 0.3483575248281131 0.3246753246753247 0.2994652406417112 0.2666157372039725 0.2459893048128342 0.228418640183346 0.21084797555385792 0.19327731092436973 0.174942704354469 0.1650114591291062 0.1611917494270435 0.15889992360580596 0.15737203972498093 0.1566080977845684 0.1566080977845684 0.1566080977845684 0.15508021390374327 0.15431627196333075 0.15278838808250572 0.15049656226126815 0.14820473644003052 0.14820473644003052 0.14820473644003052,0.0 20.0 40.0 60.0 80.0 100.0 120.0 140.0 160.0 180.0 200.0 220.0 240.0 260.0 280.0 300.0 320.0 340.0 360.0 380.0 400.0 420.0 440.0 460.0 480.0 500.0 520.0 540.0 560.0 580.0 600.0 620.0 640.0 660.0 680.0 700.0 720.0 740.0 760.0 780.0 800.0 820.0 840.0 860.0 880.0 900.0 920.0 940.0 960.0 980.0 1000.0 1020.0 1040.0 1060.0 1080.0 1100.0
cb_01,33.0,enc_trial,stim,response,Miami trip,1446.3999999999066,enc_trial,1.0,33.0,t_s_04_1,travel_shared,fold-c-single,instant camera,1.0,competing,,single,t_s_04_1.jpg,,travel-b1,Iceland trip,Miami trip,sub-82,1.0,,1.0,,0.5008594346829641 0.5014323911382735 0.5020053475935828 0.5031512605042017 0.5037242169595111 0.5054430863254392 0.5071619556913675 0.5083078686019863 0.5088808250572956 0.5100267379679144 0.5123185637891521 0.5146103896103896 0.5163292589763178 0.5186210847975554 0.5197669977081741 0.5226317799847212 0.5237776928953399 0.5249236058059588 0.5249236058059588 0.5249236058059588 0.5249236058059588 0.5249236058059588 0.5249236058059588 0.5249236058059588 0.5249236058059588 0.5243506493506493 0.5232047364400305 0.5214858670741024 0.5203399541634836 0.5191940412528648 0.5163292589763178 0.5146103896103896 0.5117456073338427 0.5088808250572956 0.5048701298701299 0.4997135217723453 0.493411000763942 0.4882543926661574 0.4819518716577539 0.4745034377387319 0.4641902215431627 0.448720397249809 0.4378342245989305 0.4258021390374331 0.4120511841100076 0.39371657754010697 0.3776737967914439 0.35991214667685256 0.3421504965622613 0.32553475935828874 0.31178380443086323 0.2997517188693659 0.2968869365928189 0.2968869365928189 0.3054812834224599 0.3249618029029794 0.3627769289533995 0.3983002291825821 0.4384071810542399 0.4842436974789916 0.5289343009931246 0.5856569900687548 0.6257639419404125 0.6584224598930479 0.6905080213903743 0.7214476699770817 0.7627005347593583 0.7930672268907563 0.8159854851031321 0.8257257448433919 0.8291634835752483 0.8308823529411764,0.8204736440030558 0.812070282658518 0.80061115355233 0.7891520244461421 0.7776928953399542 0.7647058823529411 0.7532467532467533 0.7456073338426279 0.7372039724980901 0.7288006111535523 0.7158135981665393 0.7028265851795263 0.6890756302521008 0.6722689075630253 0.6554621848739496 0.6340718105423988 0.6187929717341483 0.6050420168067228 0.5882352941176471 0.5676088617265087 0.5385790679908327 0.5148968678380443 0.4950343773873186 0.4789915966386554 0.4660045836516424 0.4514896867838044 0.4423223834988541 0.4346829640947288 0.42704354469060346 0.4209320091673033 0.41252864782276544 0.4064171122994652 0.3995416348357525 0.3926661573720397 0.3857906799083269 0.3773873185637892 0.3666921313980137 0.35905271199388844 0.35064935064935066 0.3422459893048129 0.3330786860198625 0.3193277310924369 0.3093964858670741 0.3002291825821237 0.2902979373567609 0.2765469824293354 0.2666157372039725 0.2582123758594347 0.24828113063407176 0.23911382734912145 0.22994652406417115 0.22077922077922074 0.21772345301757068 0.2146676852559205 0.20855614973262027 0.2009167303284949 0.19327731092436973 0.187929717341482 0.18411000763941945 0.1787624140565317 0.1741787624140565 0.16653934300993126 0.16195569136745602 0.15737203972498093 0.15508021390374327 0.1520244461420932 0.14973262032085566 0.14820473644003052 0.14744079449961806 0.14667685255920548 0.14667685255920548 0.14667685255920548,0.0 20.0 40.0 60.0 80.0 100.0 120.0 140.0 160.0 180.0 200.0 220.0 240.0 260.0 280.0 300.0 320.0 340.0 360.0 380.0 400.0 420.0 440.0 460.0 480.0 500.0 520.0 540.0 560.0 580.0 600.0 620.0 640.0 660.0 680.0 700.0 720.0 740.0 760.0 780.0 800.0 820.0 840.0 860.0 880.0 900.0 920.0 940.0 960.0 980.0 1000.0 1020.0 1040.0 1060.0 1080.0 1100.0 1120.0 1140.0 1160.0 1180.0 1200.0 1220.0 1240.0 1260.0 1280.0 1300.0 1320.0 1340.0 1360.0 1380.0 1400.0 1420.0
cb_01,34.0,enc_trial,stim,response,Iceland trip,1645.1999999998952,enc_trial,1.0,34.0,t_i_15_2,travel_Iceland,fold-a,compass,1.0,unique,close,paired,t_i_15_2.jpg,Iceland,travel-b1,Iceland trip,Miami trip,sub-82,1.0,1.0,1.0,1.0,0.5083078686019863 0.5094537815126049 0.5111726508785333 0.5128915202444614 0.5134644766997708 0.5117456073338427 0.5054430863254392 0.5031512605042017 0.5031512605042017 0.5031512605042017 0.5031512605042017 0.5031512605042017 0.5031512605042017 0.5031512605042017 0.5031512605042017 0.5031512605042017 0.5014323911382735 0.5002864782276547 0.4985676088617265 0.4968487394957983 0.493411000763942 0.493411000763942 0.4922650878533231 0.4916921313980138 0.4905462184873949 0.4882543926661574 0.4871084797555386 0.4853896103896104 0.4819518716577539 0.479087089381207 0.4767952635599694 0.4745034377387319 0.4693468296409473 0.4607524828113063 0.44986631016042783 0.4349694423223835 0.42064553093964857 0.4040297937356761 0.38913292589763177 0.3776737967914439 0.3707983193277311 0.3696524064171123 0.3707983193277311 0.3793926661573721 0.3965813598166539 0.4252291825821238 0.4727845683728037 0.5146103896103896 0.5593009931245225 0.5999809014514896 0.6412337662337662 0.6887891520244461 0.7174369747899159 0.7409281894576012 0.7592627960275019 0.7781703590527119 0.7999427043544691 0.8136936592818945 0.8240068754774637 0.8343200916730328 0.8446333078686019 0.8526546982429335 0.8526546982429335 0.8526546982429335 0.8526546982429335 0.8526546982429335 0.8526546982429335 0.8526546982429335 0.8509358288770053 0.8394766997708174 0.8142666157372039 0.7747326203208555 0.7340527119938884 0.6807677616501145 0.6120129870129869 0.5214858670741024 0.3954354469060352 0.3135026737967914 0.24761268143621085 0.20063025210084032 0.1725553857906799 0.16396103896103895,0.7066462948815891 0.6791443850267379 0.6524064171122994 0.6249045072574484 0.5996944232238349 0.5775401069518716 0.5752482811306341 0.5760122230710466 0.5760122230710466 0.5760122230710466 0.5760122230710466 0.5760122230710466 0.5760122230710466 0.5760122230710466 0.5760122230710466 0.5760122230710466 0.5790679908326968 0.5805958747135218 0.5821237585943468 0.5828877005347594 0.5836516424751719 0.5836516424751719 0.5828877005347594 0.5775401069518716 0.5706646294881589 0.5584415584415585 0.5439266615737204 0.5202444614209321 0.4927425515660809 0.4637127578304049 0.4232238349885409 0.39495798319327735 0.37203972498090143 0.3514132925897632 0.3307868601986249 0.30099312452253624 0.27960275019098546 0.26126814362108475 0.2444614209320092 0.2268907563025209 0.2055003819709702 0.19404125286478224 0.18945760122230715 0.1818181818181817 0.17341482047364398 0.16348357524828114 0.1566080977845684 0.1520244461420932 0.14973262032085566 0.14820473644003052 0.14667685255920548 0.14362108479755542 0.14209320091673028 0.13980137509549273 0.1382734912146677 0.13598166539343015 0.13445378151260498 0.13292589763177998 0.13292589763177998 0.13292589763177998 0.13292589763177998 0.13216195569136746 0.13216195569136746 0.13216195569136746 0.13216195569136746 0.13216195569136746 0.13216195569136746 0.13216195569136746 0.13216195569136746 0.13750954927425518 0.14973262032085566 0.15966386554621848 0.16271963330786865 0.1657754010695187 0.1741787624140565 0.1871657754010695 0.1948051948051948 0.18563789152024449 0.16806722689075626 0.15431627196333075 0.14591291061879294 0.14209320091673028,0.0 20.0 40.0 60.0 80.0 100.0 120.0 140.0 160.0 180.0 200.0 220.0 240.0 260.0 280.0 300.0 320.0 340.0 360.0 380.0 400.0 420.0 440.0 460.0 480.0 500.0 520.0 540.0 560.0 580.0 600.0 620.0 640.0 660.0 680.0 700.0 720.0 740.0 760.0 780.0 800.0 820.0 840.0 860.0 880.0 900.0 920.0 940.0 960.0 980.0 1000.0 1020.0 1040.0 1060.0 1080.0 1100.0 1120.0 1140.0 1160.0 1180.0 1200.0 1220.0 1240.0 1260.0 1280.0 1300.0 1320.0 1340.0 1360.0 1380.0 1400.0 1420.0 1440.0 1460.0 1480.0 1500.0 1520.0 1540.0 1560.0 1580.0 1600.0 1620.0
