Current Spreadsheet,Trial Number,Display,Screen,Response Type,Response,Reaction Time,display,block,block_trial,stimulus_id,expected_goal,fold,stimulus_name,c_group,condition,within_block_dist,paired_status,stimulus_path,expected_location,block_split,respStim_1,respStim_2,sub_label,acc,both_enc_acc,assoc_stim1_acc,assoc_stim2_acc,x_pos,y_pos,time_trajectories
cb_06,1.0,enc_trial,stim,response,STEM students,1558.2400000000052,enc_trial,1.0,1.0,s_s_14_1,student_stem,fold-e,funnel,6.0,unique,close,paired,s_s_14_1.jpg,stem,student-b1,STEM students,Fine Arts students,sub-20,1.0,1.0,1.0,1.0,0.528125 0.528125 0.528125 0.528125 0.528125 0.5291666666666667 0.5291666666666667 0.5291666666666667 0.5302083333333333 0.5302083333333333 0.534375 0.5375 0.54375 0.5489583333333333 0.553125 0.5677083333333334 0.575 0.5791666666666667 0.5822916666666667 0.584375 0.584375 0.5791666666666667 0.5677083333333334 0.5552083333333333 0.5510416666666667 0.6052083333333333 0.640625 0.690625 0.74375 0.7864583333333334 0.8583333333333333 0.884375 0.9 0.90625 0.9072916666666668 0.9072916666666668 0.9072916666666668 0.9072916666666668 0.90625 0.9052083333333332 0.8864583333333333 0.8395833333333333 0.7447916666666666 0.621875 0.4677083333333333 0.16354166666666667 0.10208333333333333 0.08229166666666668 0.08020833333333334 0.08020833333333334 0.08645833333333333 0.09270833333333334 0.09895833333333333 0.10729166666666666 0.11770833333333333 0.128125 0.128125 0.128125 0.128125 0.128125 0.128125 0.128125 0.128125 0.128125 0.128125 0.128125 0.128125 0.128125,0.8166666666666667 0.8166666666666667 0.8166666666666667 0.8166666666666667 0.8166666666666667 0.8166666666666667 0.8166666666666667 0.8166666666666667 0.8152777777777778 0.8152777777777778 0.8097222222222222 0.8055555555555556 0.8 0.7930555555555556 0.7847222222222222 0.7375 0.7069444444444444 0.6777777777777778 0.6486111111111111 0.625 0.5930555555555556 0.5708333333333333 0.5277777777777778 0.4680555555555556 0.3972222222222223 0.27083333333333337 0.24722222222222226 0.2180555555555556 0.1875 0.1611111111111111 0.1166666666666667 0.10555555555555553 0.0986111111111111 0.09444444444444444 0.09305555555555556 0.09305555555555556 0.09305555555555556 0.09305555555555556 0.09305555555555556 0.09305555555555556 0.09305555555555556 0.09583333333333333 0.10416666666666664 0.12083333333333335 0.13888888888888884 0.13194444444444442 0.12361111111111113 0.11805555555555558 0.11805555555555558 0.11805555555555558 0.11805555555555558 0.11805555555555558 0.11805555555555558 0.1166666666666667 0.1166666666666667 0.1166666666666667 0.1166666666666667 0.1166666666666667 0.1166666666666667 0.1166666666666667 0.1166666666666667 0.1166666666666667 0.1166666666666667 0.1166666666666667 0.1166666666666667 0.1166666666666667 0.1166666666666667 0.1152777777777778,49.98000000001048 69.98000000001048 89.98000000001049 109.98000000001049 129.98000000001048 149.98000000001048 169.98000000001048 189.98000000001045 209.98000000001045 229.98000000001045 249.98000000001045 269.9800000000105 289.9800000000105 309.9800000000105 329.9800000000105 349.98000000001053 369.98000000001053 389.98000000001053 409.98000000001053 429.98000000001053 449.98000000001053 469.98000000001053 489.98000000001053 509.98000000001053 529.9800000000105 549.9800000000105 569.9800000000105 589.9800000000105 609.9800000000105 629.9800000000105 649.9800000000105 669.9800000000105 689.9800000000105 709.9800000000105 729.9800000000105 749.9800000000105 769.9800000000105 789.9800000000105 809.9800000000105 829.9800000000105 849.9800000000105 869.9800000000105 889.9800000000105 909.9800000000104 929.9800000000104 949.9800000000104 969.9800000000104 989.9800000000104 1009.9800000000104 1029.9800000000105 1049.9800000000105 1069.9800000000105 1089.9800000000105 1109.9800000000105 1129.9800000000105 1149.9800000000105 1169.9800000000105 1189.9800000000105 1209.9800000000105 1229.9800000000105 1249.9800000000105 1269.9800000000105 1289.9800000000105 1309.9800000000105 1329.9800000000105 1349.9800000000105 1369.9800000000105 1389.9800000000105
cb_06,2.0,enc_trial,stim,response,Fine Arts students,1070.1000000000058,enc_trial,1.0,2.0,s_a_15_1,student_art,fold-d,drum kit,6.0,unique,far,paired,s_a_15_1.jpg,art,student-b1,STEM students,Fine Arts students,sub-20,1.0,1.0,1.0,1.0,0.496875 0.4979166666666667 0.503125 0.515625 0.5541666666666667 0.628125 0.6708333333333333 0.70625 0.7354166666666667 0.7541666666666667 0.7760416666666666 0.7833333333333333 0.7885416666666667 0.7895833333333333 0.7927083333333333 0.7989583333333333 0.8041666666666667 0.8114583333333333 0.8197916666666667 0.8260416666666667 0.8322916666666667 0.834375 0.8385416666666666 0.8427083333333333 0.8447916666666667 0.8479166666666667,0.8069444444444445 0.8041666666666667 0.7958333333333334 0.7736111111111111 0.7097222222222221 0.5777777777777777 0.5041666666666667 0.44027777777777777 0.3888888888888888 0.3555555555555555 0.3125 0.2958333333333333 0.2833333333333333 0.2763888888888889 0.2625 0.2430555555555556 0.2305555555555555 0.2125 0.1930555555555556 0.1805555555555556 0.16666666666666666 0.1597222222222222 0.14861111111111114 0.13749999999999996 0.12916666666666665 0.12361111111111113,449.8400000000111 469.8400000000111 489.8400000000111 509.8400000000111 529.8400000000112 549.8400000000112 569.8400000000112 589.8400000000112 609.8400000000112 629.8400000000112 649.8400000000112 669.8400000000112 689.8400000000112 709.8400000000112 729.8400000000112 749.8400000000112 769.8400000000112 789.8400000000112 809.8400000000112 829.8400000000112 849.8400000000112 869.8400000000112 889.8400000000112 909.8400000000113 929.8400000000113 949.8400000000113
cb_06,3.0,enc_trial,stim,response,Fine Arts students,1435.1000000000058,enc_trial,1.0,3.0,s_sh_23_1,student_shared,fold-a-single,ballpoint pen,6.0,competing,,single,s_sh_23_1.jpg,,student-b1,STEM students,Fine Arts students,sub-20,1.0,,1.0,,0.496875 0.496875 0.4979166666666667 0.5010416666666667 0.5010416666666667 0.490625 0.4739583333333333 0.4572916666666666 0.43854166666666666 0.4135416666666665 0.365625 0.34479166666666666 0.3125 0.303125 0.28229166666666666 0.2760416666666667 0.2760416666666667 0.27395833333333336 0.26979166666666665 0.25729166666666664 0.2395833333333333 0.2385416666666667 0.240625 0.2520833333333333 0.27291666666666664 0.2927083333333333 0.30104166666666665 0.31666666666666665 0.3395833333333333 0.3739583333333333 0.546875 0.6354166666666666 0.7114583333333333 0.775 0.8072916666666666 0.821875 0.8197916666666667 0.8177083333333334 0.815625 0.8135416666666667 0.8104166666666667 0.8104166666666667 0.809375 0.809375 0.8104166666666667 0.8177083333333334 0.8239583333333333 0.8322916666666667 0.840625 0.8510416666666667 0.8572916666666667,0.8097222222222222 0.8069444444444445 0.8013888888888889 0.7763888888888889 0.7486111111111111 0.6625 0.5986111111111111 0.5430555555555556 0.4888888888888889 0.43333333333333335 0.35 0.3236111111111111 0.2861111111111111 0.275 0.2458333333333333 0.2305555555555555 0.22916666666666666 0.22083333333333333 0.20972222222222225 0.1902777777777777 0.1597222222222222 0.15694444444444444 0.15555555555555556 0.15416666666666667 0.15416666666666667 0.1513888888888889 0.1444444444444445 0.1347222222222222 0.125 0.12222222222222225 0.11944444444444445 0.12638888888888888 0.13611111111111107 0.14027777777777772 0.14027777777777772 0.14027777777777772 0.14027777777777772 0.14027777777777772 0.14027777777777772 0.14027777777777772 0.13888888888888884 0.13888888888888884 0.13888888888888884 0.13749999999999996 0.13611111111111107 0.13194444444444442 0.13194444444444442 0.13194444444444442 0.13194444444444442 0.13194444444444442 0.13194444444444442,349.88000000000466 369.8800000000047 389.8800000000047 409.8800000000047 429.8800000000047 449.8800000000047 469.8800000000047 489.8800000000047 509.8800000000047 529.8800000000047 549.8800000000047 569.8800000000048 589.8800000000048 609.8800000000048 629.8800000000048 649.8800000000048 669.8800000000048 689.8800000000048 709.8800000000048 729.8800000000048 749.8800000000048 769.8800000000048 789.8800000000048 809.8800000000048 829.8800000000048 849.8800000000048 869.8800000000048 889.8800000000048 909.8800000000048 929.8800000000048 949.8800000000048 969.8800000000048 989.8800000000048 1009.8800000000048 1029.8800000000047 1049.8800000000047 1069.8800000000047 1089.8800000000047 1109.8800000000047 1129.8800000000047 1149.8800000000047 1169.8800000000047 1189.8800000000047 1209.8800000000047 1229.8800000000047 1249.8800000000047 1269.8800000000047 1289.8800000000047 1309.8800000000047 1329.8800000000047 1349.8800000000047
cb_06,4.0,enc_trial,stim,response,STEM students,1613.4600000000064,enc_trial,1.0,4.0,s_s_20_1,student_stem,fold-d,dna model,6.0,unique,far,paired,s_s_20_1.jpg,stem,student-b1,STEM students,Fine Arts students,sub-20,1.0,1.0,1.0,1.0,0.4947916666666667 0.4947916666666667 0.4947916666666667 0.496875 0.4979166666666667 0.5052083333333334 0.5072916666666667 0.5083333333333333 0.5072916666666667 0.503125 0.4854166666666666 0.465625 0.4510416666666667 0.43333333333333335 0.4135416666666665 0.3572916666666667 0.3229166666666667 0.2927083333333333 0.2677083333333333 0.24479166666666666 0.21041666666666667 0.20729166666666668 0.20104166666666667 0.196875 0.18958333333333333 0.17291666666666666 0.16875 0.16979166666666667 0.18854166666666666 0.2302083333333333 0.5072916666666667 0.5666666666666667 0.7135416666666666 0.7739583333333333 0.80625 0.8322916666666667 0.8364583333333333 0.8375 0.8375 0.8375 0.8364583333333333 0.8364583333333333 0.834375 0.8270833333333333 0.8072916666666666 0.6927083333333334 0.571875 0.4635416666666667 0.378125 0.30520833333333336 0.234375 0.2302083333333333 0.221875 0.21770833333333334 0.21145833333333333 0.19479166666666667 0.190625 0.190625 0.18958333333333333 0.18854166666666666 0.18125 0.16979166666666667 0.16354166666666667 0.16041666666666668,0.8180555555555555 0.8180555555555555 0.8166666666666667 0.8138888888888889 0.8041666666666667 0.7708333333333334 0.7472222222222222 0.7180555555555556 0.6847222222222222 0.65 0.5777777777777777 0.5263888888888889 0.4916666666666667 0.4652777777777778 0.4430555555555555 0.39583333333333337 0.37083333333333335 0.3513888888888889 0.33333333333333337 0.31805555555555554 0.2847222222222222 0.2763888888888889 0.2652777777777777 0.25555555555555554 0.2430555555555556 0.2138888888888889 0.20277777777777767 0.1944444444444444 0.18472222222222226 0.17638888888888893 0.17083333333333328 0.17083333333333328 0.17083333333333328 0.16666666666666666 0.16249999999999998 0.15694444444444444 0.15416666666666667 0.1513888888888889 0.15000000000000002 0.14861111111111114 0.14861111111111114 0.14861111111111114 0.14861111111111114 0.14722222222222225 0.1430555555555556 0.14166666666666672 0.14166666666666672 0.14027777777777772 0.13194444444444442 0.12222222222222225 0.1152777777777778 0.1152777777777778 0.1152777777777778 0.1152777777777778 0.11388888888888893 0.10972222222222228 0.10833333333333328 0.10833333333333328 0.10833333333333328 0.1069444444444444 0.10555555555555553 0.10416666666666664 0.10416666666666664 0.10416666666666664,299.8600000000006 319.8600000000006 339.8600000000006 359.8600000000006 379.8600000000006 399.8600000000006 419.8600000000006 439.8600000000006 459.8600000000006 479.8600000000006 499.8600000000006 519.8600000000006 539.8600000000006 559.8600000000006 579.8600000000006 599.8600000000006 619.8600000000006 639.8600000000006 659.8600000000006 679.8600000000006 699.8600000000006 719.8600000000006 739.8600000000006 759.8600000000006 779.8600000000006 799.8600000000006 819.8600000000006 839.8600000000006 859.8600000000006 879.8600000000006 899.8600000000006 919.8600000000006 939.8600000000006 959.8600000000006 979.8600000000006 999.8600000000006 1019.8600000000006 1039.8600000000006 1059.8600000000006 1079.8600000000006 1099.8600000000006 1119.8600000000006 1139.8600000000004 1159.8600000000004 1179.8600000000004 1199.8600000000004 1219.8600000000004 1239.8600000000004 1259.8600000000004 1279.8600000000004 1299.8600000000004 1319.8600000000004 1339.8600000000004 1359.8600000000004 1379.8600000000006 1399.8600000000006 1419.8600000000006 1439.8600000000006 1459.8600000000006 1479.8600000000006 1499.8600000000006 1519.8600000000006 1539.8600000000006 1559.8600000000006
cb_06,5.0,enc_trial,stim,response,STEM students,1788.3399999999967,enc_trial,1.0,5.0,s_sh_24_1,student_shared,fold-b,desk organizer,6.0,competing,far,paired,s_sh_24_1.jpg,,student-b1,STEM students,Fine Arts students,sub-20,1.0,1.0,0.0,1.0,0.5083333333333333 0.5125 0.5177083333333333 0.5239583333333333 0.5239583333333333 0.4760416666666666 0.44895833333333335 0.39375 0.340625 0.2927083333333333 0.253125 0.2552083333333333 0.271875 0.3260416666666667 0.403125 0.540625 0.5572916666666666 0.5583333333333333 0.5416666666666666 0.5135416666666667 0.4927083333333334 0.5052083333333334 0.559375 0.6510416666666666 0.7458333333333333 0.8572916666666667 0.8614583333333333 0.859375 0.853125 0.8479166666666667 0.84375 0.8489583333333334 0.8572916666666667 0.8614583333333333 0.8635416666666667 0.8635416666666667 0.8625 0.8625 0.8625 0.8625 0.8552083333333333 0.8375 0.7927083333333333 0.6854166666666667 0.5427083333333333 0.21979166666666666 0.13020833333333334 0.06979166666666667 0.04375 0.0375 0.034375 0.034375 0.034375 0.034375 0.034375 0.034375 0.034375 0.034375 0.036458333333333336 0.04791666666666667 0.1 0.14479166666666668 0.17083333333333334 0.18333333333333326 0.18645833333333334 0.175 0.153125 0.14479166666666668 0.140625 0.13958333333333334 0.13854166666666667 0.13854166666666667 0.1375 0.13645833333333332 0.134375 0.12395833333333335 0.11979166666666667,0.8152777777777778 0.8097222222222222 0.7958333333333334 0.7736111111111111 0.7319444444444445 0.575 0.5569444444444445 0.5430555555555556 0.5347222222222222 0.5277777777777778 0.5138888888888888 0.5125 0.5152777777777777 0.5236111111111111 0.5277777777777778 0.4902777777777778 0.4569444444444445 0.4208333333333333 0.3805555555555555 0.3416666666666667 0.3208333333333333 0.3138888888888889 0.3055555555555556 0.30000000000000004 0.2902777777777777 0.2583333333333333 0.24722222222222226 0.2319444444444444 0.2180555555555556 0.2083333333333333 0.1902777777777777 0.1791666666666667 0.1694444444444444 0.16388888888888886 0.1611111111111111 0.15416666666666667 0.14861111111111114 0.14583333333333334 0.1430555555555556 0.1430555555555556 0.14027777777777772 0.13888888888888884 0.13888888888888884 0.13888888888888884 0.14861111111111114 0.13888888888888884 0.12916666666666665 0.125 0.12083333333333335 0.11805555555555558 0.1166666666666667 0.1166666666666667 0.1152777777777778 0.1152777777777778 0.11388888888888893 0.11388888888888893 0.11388888888888893 0.11250000000000004 0.11250000000000004 0.10972222222222228 0.10972222222222228 0.11388888888888893 0.1152777777777778 0.1152777777777778 0.1152777777777778 0.11250000000000004 0.11250000000000004 0.11250000000000004 0.11250000000000004 0.11250000000000004 0.11250000000000004 0.11250000000000004 0.11250000000000004 0.11250000000000004 0.11111111111111116 0.10972222222222228 0.10972222222222228,166.58000000000175 186.58000000000172 206.58000000000172 226.58000000000172 246.58000000000172 266.5800000000017 286.58000000000175 306.58000000000175 326.58000000000175 346.58000000000175 366.58000000000175 386.58000000000175 406.58000000000175 426.58000000000175 446.58000000000175 466.58000000000175 486.58000000000175 506.58000000000175 526.5800000000016 546.5800000000016 566.5800000000017 586.5800000000017 606.5800000000017 626.5800000000017 646.5800000000017 666.5800000000017 686.5800000000017 706.5800000000016 726.5800000000016 746.5800000000016 766.5800000000016 786.5800000000016 806.5800000000016 826.5800000000016 846.5800000000016 866.5800000000016 886.5800000000016 906.5800000000016 926.5800000000016 946.5800000000016 966.5800000000016 986.5800000000016 1006.5800000000016 1026.5800000000017 1046.5800000000017 1066.5800000000017 1086.5800000000017 1106.5800000000017 1126.5800000000015 1146.5800000000015 1166.5800000000015 1186.5800000000015 1206.5800000000015 1226.5800000000015 1246.5800000000015 1266.5800000000015 1286.5800000000015 1306.5800000000015 1326.5800000000015 1346.5800000000015 1366.5800000000015 1386.5800000000015 1406.5800000000015 1426.5800000000015 1446.5800000000015 1466.5800000000015 1486.5800000000015 1506.5800000000015 1526.5800000000015 1546.5800000000015 1566.5800000000015 1586.5800000000015 1606.5800000000015 1626.5800000000015 1646.5800000000015 1666.5800000000015 1686.5800000000015
cb_06,6.0,enc_trial,stim,response,STEM students,1769.9400000000023,enc_trial,1.0,6.0,s_s_14_2,student_stem,fold-e,funnel,6.0,unique,close,paired,s_s_14_2.jpg,stem,student-b1,STEM students,Fine Arts students,sub-20,1.0,1.0,1.0,1.0,0.5270833333333333 0.5302083333333333 0.5354166666666667 0.5447916666666667 0.5541666666666667 0.5729166666666666 0.584375 0.5947916666666667 0.6104166666666667 0.615625 0.6375 0.646875 0.6572916666666667 0.6625 0.665625 0.6635416666666667 0.6583333333333333 0.646875 0.6302083333333334 0.6270833333333333 0.6270833333333333 0.6270833333333333 0.6270833333333333 0.628125 0.6333333333333333 0.6489583333333333 0.65625 0.6625 0.671875 0.68125 0.69375 0.6989583333333333 0.7010416666666667 0.703125 0.703125 0.6927083333333334 0.6864583333333333 0.6822916666666666 0.68125 0.68125 0.6802083333333333 0.678125 0.6770833333333334 0.6822916666666666 0.690625 0.709375 0.7114583333333333 0.7104166666666667 0.7052083333333333 0.6989583333333333 0.6927083333333334 0.6875 0.6739583333333333 0.646875 0.590625 0.41770833333333335 0.3666666666666665 0.3239583333333333 0.296875 0.275 0.25104166666666666 0.2479166666666667 0.246875 0.2427083333333333 0.234375 0.196875 0.18854166666666666 0.18645833333333334 0.18645833333333334 0.18541666666666667 0.17708333333333334 0.17083333333333334 0.16145833333333334 0.15 0.13541666666666666 0.115625 0.115625 0.115625 0.11354166666666668,0.8180555555555555 0.8152777777777778 0.8125 0.8069444444444445 0.8027777777777778 0.7944444444444445 0.7861111111111111 0.7763888888888889 0.7597222222222222 0.7527777777777778 0.7111111111111111 0.675 0.6194444444444445 0.5652777777777778 0.5152777777777777 0.4611111111111112 0.4611111111111112 0.4708333333333333 0.4958333333333334 0.5152777777777777 0.5152777777777777 0.5152777777777777 0.5152777777777777 0.5208333333333333 0.5208333333333333 0.5 0.4902777777777778 0.4819444444444444 0.4611111111111112 0.43472222222222223 0.4083333333333333 0.3972222222222223 0.3888888888888888 0.37916666666666665 0.37083333333333335 0.3472222222222222 0.3319444444444445 0.31527777777777777 0.3013888888888889 0.2986111111111112 0.2847222222222222 0.27083333333333337 0.25 0.2263888888888889 0.2125 0.1930555555555556 0.18888888888888888 0.18472222222222226 0.18194444444444446 0.17638888888888893 0.17083333333333328 0.1694444444444444 0.16388888888888886 0.15833333333333333 0.14861111111111114 0.1444444444444445 0.13611111111111107 0.13055555555555556 0.12916666666666665 0.12916666666666665 0.12916666666666665 0.12916666666666665 0.12916666666666665 0.12777777777777774 0.125 0.11944444444444445 0.11805555555555558 0.1152777777777778 0.1152777777777778 0.1152777777777778 0.11111111111111116 0.10972222222222228 0.1069444444444444 0.10416666666666664 0.10277777777777776 0.0986111111111111 0.0986111111111111 0.0986111111111111 0.0986111111111111,49.979999999995925 69.97999999999593 89.97999999999594 109.97999999999591 129.97999999999593 149.9799999999959 169.9799999999959 189.97999999999595 209.97999999999595 229.97999999999595 249.97999999999595 269.9799999999959 289.97999999999587 309.97999999999587 329.97999999999587 349.97999999999587 369.97999999999587 389.97999999999587 409.97999999999587 429.97999999999587 449.97999999999587 469.97999999999587 489.97999999999587 509.97999999999587 529.9799999999959 549.9799999999959 569.9799999999959 589.9799999999959 609.9799999999959 629.9799999999959 649.9799999999959 669.9799999999959 689.9799999999959 709.9799999999959 729.9799999999959 749.9799999999959 769.9799999999959 789.9799999999959 809.9799999999959 829.9799999999959 849.9799999999959 869.9799999999959 889.9799999999959 909.979999999996 929.979999999996 949.979999999996 969.979999999996 989.979999999996 1009.979999999996 1029.979999999996 1049.979999999996 1069.979999999996 1089.979999999996 1109.979999999996 1129.979999999996 1149.979999999996 1169.979999999996 1189.979999999996 1209.979999999996 1229.979999999996 1249.979999999996 1269.979999999996 1289.979999999996 1309.979999999996 1329.979999999996 1349.979999999996 1369.979999999996 1389.979999999996 1409.979999999996 1429.979999999996 1449.979999999996 1469.979999999996 1489.979999999996 1509.979999999996 1529.979999999996 1549.979999999996 1569.979999999996 1589.979999999996 1609.979999999996
cb_06,7.0,enc_trial,stim,response,Fine Arts students,1299.2200000000012,enc_trial,1.0,7.0,s_sh_09_1,student_shared,fold-c,paper clips,6.0,competing,close,paired,s_sh_09_1.jpg,,student-b1,STEM students,Fine Arts students,sub-20,1.0,1.0,1.0,0.0,0.4947916666666667 0.496875 0.503125 0.5114583333333333 0.5239583333333333 0.5552083333333333 0.5677083333333334 0.5739583333333333 0.5739583333333333 0.5739583333333333 0.5739583333333333 0.575 0.575 0.575 0.575 0.5760416666666667 0.5760416666666667 0.5760416666666667 0.5770833333333333 0.578125 0.5854166666666667 0.5947916666666667 0.603125 0.6166666666666667 0.640625 0.715625 0.7427083333333333 0.7583333333333333 0.7708333333333334 0.7791666666666667 0.7927083333333333 0.8010416666666667 0.8052083333333333 0.809375 0.8145833333333333 0.8197916666666667 0.821875 0.825 0.828125 0.83125 0.834375 0.834375 0.834375 0.8333333333333334 0.8322916666666667 0.8302083333333333 0.8302083333333333 0.8333333333333334 0.8364583333333333 0.8385416666666666 0.840625 0.8416666666666667 0.8416666666666667 0.8416666666666667 0.8416666666666667 0.8427083333333333 0.84375 0.8447916666666667 0.8447916666666667 0.8447916666666667 0.8447916666666667 0.8447916666666667 0.8447916666666667 0.8447916666666667 0.8447916666666667 0.8458333333333333,0.8263888888888888 0.8222222222222222 0.8180555555555555 0.8138888888888889 0.8069444444444445 0.7902777777777777 0.7861111111111111 0.7819444444444444 0.7819444444444444 0.7819444444444444 0.7819444444444444 0.7819444444444444 0.7819444444444444 0.7819444444444444 0.7819444444444444 0.7805555555555556 0.7791666666666667 0.7791666666666667 0.7763888888888889 0.7736111111111111 0.7625 0.7416666666666667 0.7152777777777778 0.6819444444444445 0.6291666666666667 0.4944444444444445 0.45 0.4208333333333333 0.3916666666666667 0.3652777777777778 0.2888888888888889 0.24722222222222226 0.2319444444444444 0.22083333333333333 0.2138888888888889 0.20277777777777767 0.1930555555555556 0.18472222222222226 0.1777777777777778 0.17361111111111116 0.17083333333333328 0.1680555555555555 0.16527777777777775 0.16527777777777775 0.1597222222222222 0.1513888888888889 0.14722222222222225 0.1430555555555556 0.14027777777777772 0.13749999999999996 0.13749999999999996 0.13749999999999996 0.13749999999999996 0.13749999999999996 0.13749999999999996 0.13749999999999996 0.13611111111111107 0.1347222222222222 0.1347222222222222 0.1347222222222222 0.1347222222222222 0.1347222222222222 0.1347222222222222 0.1347222222222222 0.1347222222222222 0.1347222222222222,0.0 20.0 40.0 60.0 80.0 100.0 120.0 140.0 160.0 180.0 200.0 220.0 240.0 260.0 280.0 300.0 320.0 340.0 360.0 380.0 400.0 420.0 440.0 460.0 480.0 500.0 520.0 540.0 560.0 580.0 600.0 620.0 640.0 660.0 680.0 700.0 720.0 740.0 760.0 780.0 800.0 820.0 840.0 860.0 880.0 900.0 920.0 940.0 960.0 980.0 1000.0 1020.0 1040.0 1060.0 1080.0 1100.0 1120.0 1140.0 1160.0 1180.0 1200.0 1220.0 1240.0 1260.0 1280.0 1300.0
cb_06,8.0,enc_trial,stim,response,Fine Arts students,1650.6000000000058,enc_trial,1.0,8.0,s_a_09_2,student_art,fold-e,picture frame,6.0,unique,close,paired,s_a_09_2.jpg,art,student-b1,STEM students,Fine Arts students,sub-20,0.0,0.0,1.0,1.0,0.5072916666666667 0.525 0.5583333333333333 0.5697916666666667 0.6 0.621875 0.6260416666666667 0.6270833333333333 0.6270833333333333 0.6270833333333333 0.6270833333333333 0.6270833333333333 0.6270833333333333 0.628125 0.628125 0.628125 0.628125 0.6270833333333333 0.625 0.6208333333333333 0.6072916666666667 0.5927083333333333 0.575 0.5541666666666667 0.5020833333333333 0.459375 0.4479166666666667 0.44375 0.4395833333333333 0.43333333333333335 0.4239583333333333 0.4239583333333333 0.4239583333333333 0.4239583333333333 0.42604166666666665 0.44166666666666665 0.4614583333333334 0.4697916666666666 0.4666666666666667 0.4541666666666666 0.41770833333333335 0.39479166666666665 0.365625 0.334375 0.303125 0.2770833333333333 0.271875 0.265625 0.2604166666666667 0.2520833333333333 0.2333333333333333 0.2239583333333333 0.215625 0.20625 0.196875 0.190625 0.1927083333333333 0.20729166666666668 0.246875 0.3260416666666667 0.5979166666666667 0.7510416666666667 0.8864583333333333 0.996875 1.0645833333333334 1.0802083333333334 1.078125 1.071875 1.0614583333333334 1.0489583333333334 1.0239583333333333 1.0166666666666666 1.0125 1.0072916666666667 1.0010416666666666 0.959375 0.940625 0.9239583333333332 0.915625 0.9135416666666668,0.8013888888888889 0.7791666666666667 0.7430555555555556 0.7319444444444445 0.7013888888888888 0.6819444444444445 0.6763888888888889 0.675 0.675 0.675 0.675 0.675 0.675 0.6736111111111112 0.6708333333333334 0.6583333333333333 0.65 0.6388888888888888 0.6263888888888889 0.6111111111111112 0.5694444444444444 0.5416666666666667 0.5180555555555555 0.4916666666666667 0.44027777777777777 0.4069444444444445 0.4013888888888889 0.4 0.4041666666666667 0.4111111111111111 0.43472222222222223 0.44027777777777777 0.4430555555555555 0.4430555555555555 0.4430555555555555 0.4430555555555555 0.4291666666666667 0.4055555555555556 0.3902777777777777 0.37916666666666665 0.33472222222222225 0.3111111111111111 0.2777777777777778 0.2444444444444445 0.2083333333333333 0.18194444444444446 0.17638888888888893 0.17361111111111116 0.1694444444444444 0.16527777777777775 0.15694444444444444 0.15416666666666667 0.1527777777777778 0.15000000000000002 0.1444444444444445 0.13888888888888884 0.13611111111111107 0.13055555555555556 0.12638888888888888 0.12361111111111113 0.13055555555555556 0.1430555555555556 0.14583333333333334 0.14583333333333334 0.1430555555555556 0.13749999999999996 0.13749999999999996 0.13194444444444442 0.12916666666666665 0.12361111111111113 0.11944444444444445 0.11944444444444445 0.11805555555555558 0.1166666666666667 0.1166666666666667 0.11388888888888893 0.11388888888888893 0.11111111111111116 0.10972222222222228 0.10833333333333328,0.0 20.0 40.0 60.0 80.0 100.0 120.0 140.0 160.0 180.0 200.0 220.0 240.0 260.0 280.0 300.0 320.0 340.0 360.0 380.0 400.0 420.0 440.0 460.0 480.0 500.0 520.0 540.0 560.0 580.0 600.0 620.0 640.0 660.0 680.0 700.0 720.0 740.0 760.0 780.0 800.0 820.0 840.0 860.0 880.0 900.0 920.0 940.0 960.0 980.0 1000.0 1020.0 1040.0 1060.0 1080.0 1100.0 1120.0 1140.0 1160.0 1180.0 1200.0 1220.0 1240.0 1260.0 1280.0 1300.0 1320.0 1340.0 1360.0 1380.0 1400.0 1420.0 1440.0 1460.0 1480.0 1500.0 1520.0 1540.0 1560.0 1580.0
cb_06,9.0,enc_trial,stim,response,STEM students,1053.2599999999948,enc_trial,1.0,9.0,s_s_11_1,student_stem,fold-d,scientific scale,6.0,unique,far,paired,s_s_11_1.jpg,stem,student-b1,STEM students,Fine Arts students,sub-20,1.0,1.0,1.0,1.0,0.528125 0.521875 0.515625 0.515625 0.515625 0.515625 0.515625 0.515625 0.515625 0.515625 0.515625 0.5145833333333333 0.5145833333333333 0.515625 0.5177083333333333 0.5239583333333333 0.528125 0.5333333333333333 0.540625 0.5510416666666667 0.5729166666666666 0.5802083333333333 0.5833333333333334 0.5822916666666667 0.571875 0.5427083333333333 0.5322916666666667 0.521875 0.5114583333333333 0.5 0.4625 0.428125 0.37916666666666665 0.33229166666666665 0.2958333333333333 0.2916666666666667 0.290625 0.2864583333333333 0.28125 0.2677083333333333 0.21979166666666666 0.19166666666666668 0.16770833333333332 0.153125 0.14479166666666668 0.14166666666666666 0.14166666666666666 0.14166666666666666 0.14166666666666666 0.14166666666666666 0.140625,0.7875 0.7819444444444444 0.7791666666666667 0.7791666666666667 0.7791666666666667 0.7791666666666667 0.7791666666666667 0.7791666666666667 0.7791666666666667 0.7791666666666667 0.7791666666666667 0.7791666666666667 0.7763888888888889 0.7736111111111111 0.7722222222222223 0.7625 0.7569444444444444 0.7513888888888889 0.7430555555555556 0.7291666666666667 0.6875 0.6597222222222222 0.6222222222222222 0.5875 0.5375 0.4597222222222223 0.43333333333333335 0.4125 0.39583333333333337 0.37916666666666665 0.3236111111111111 0.2791666666666667 0.2319444444444444 0.1958333333333333 0.16666666666666666 0.1611111111111111 0.1597222222222222 0.15694444444444444 0.1513888888888889 0.14027777777777772 0.12638888888888888 0.12222222222222225 0.1152777777777778 0.11111111111111116 0.10972222222222228 0.10972222222222228 0.10972222222222228 0.10972222222222228 0.10972222222222228 0.10972222222222228 0.10972222222222228,0.0 20.0 40.0 60.0 80.0 100.0 120.0 140.0 160.0 180.0 200.0 220.0 240.0 260.0 280.0 300.0 320.0 340.0 360.0 380.0 400.0 420.0 440.0 460.0 480.0 500.0 520.0 540.0 560.0 580.0 600.0 620.0 640.0 660.0 680.0 700.0 720.0 740.0 760.0 780.0 800.0 820.0 840.0 860.0 880.0 900.0 920.0 940.0 960.0 980.0 1000.0
cb_06,10.0,enc_trial,stim,response,STEM students,984.9600000000064,enc_trial,1.0,10.0,s_sh_04_1,student_shared,fold-c,laptop stand,6.0,competing,close,paired,s_sh_04_1.jpg,,student-b1,STEM students,Fine Arts students,sub-20,1.0,1.0,1.0,0.0,0.5260416666666666 0.5166666666666667 0.50625 0.4958333333333334 0.4885416666666666 0.4802083333333334 0.4802083333333334 0.4802083333333334 0.4802083333333334 0.4802083333333334 0.4802083333333334 0.4802083333333334 0.4802083333333334 0.4802083333333334 0.4791666666666667 0.478125 0.4760416666666666 0.471875 0.4635416666666667 0.453125 0.4322916666666667 0.41875 0.40625 0.3885416666666667 0.3614583333333333 0.29375 0.25833333333333336 0.21979166666666666 0.19479166666666667 0.178125 0.16770833333333332 0.16770833333333332 0.165625 0.16458333333333333 0.159375 0.13854166666666667 0.13020833333333334 0.12604166666666666 0.12395833333333335,0.6263888888888889 0.5930555555555556 0.5625 0.5444444444444445 0.5375 0.5347222222222222 0.5347222222222222 0.5347222222222222 0.5347222222222222 0.5347222222222222 0.5347222222222222 0.5347222222222222 0.5347222222222222 0.5347222222222222 0.5347222222222222 0.5319444444444444 0.525 0.5152777777777777 0.5013888888888889 0.4847222222222223 0.4597222222222223 0.4388888888888889 0.4208333333333333 0.3944444444444445 0.3513888888888889 0.2625 0.2263888888888889 0.19861111111111107 0.18194444444444446 0.1694444444444444 0.1611111111111111 0.1611111111111111 0.1597222222222222 0.15694444444444444 0.15416666666666667 0.14027777777777772 0.13611111111111107 0.1333333333333333 0.13194444444444442,0.0 20.0 40.0 60.0 80.0 100.0 120.0 140.0 160.0 180.0 200.0 220.0 240.0 260.0 280.0 300.0 320.0 340.0 360.0 380.0 400.0 420.0 440.0 460.0 480.0 500.0 520.0 540.0 560.0 580.0 600.0 620.0 640.0 660.0 680.0 700.0 720.0 740.0 760.0
cb_06,11.0,enc_trial,stim,response,STEM students,1598.1600000000033,enc_trial,1.0,11.0,s_sh_09_2,student_shared,fold-c,paper clips,6.0,competing,close,paired,s_sh_09_2.jpg,,student-b1,STEM students,Fine Arts students,sub-20,1.0,1.0,1.0,0.0,0.521875 0.521875 0.5239583333333333 0.525 0.528125 0.534375 0.5375 0.5395833333333333 0.5427083333333333 0.5479166666666667 0.5520833333333334 0.5489583333333333 0.5416666666666666 0.53125 0.5166666666666667 0.465625 0.43020833333333336 0.396875 0.36354166666666665 0.30520833333333336 0.2479166666666667 0.21979166666666666 0.20104166666666667 0.190625 0.18541666666666667 0.18125 0.178125 0.175 0.17291666666666666 0.171875 0.215625 0.296875 0.409375 0.5447916666666667 0.6645833333333333 0.8364583333333333 0.8864583333333333 0.9052083333333332 0.9083333333333332 0.9083333333333332 0.9041666666666668 0.8989583333333333 0.8947916666666667 0.8895833333333333 0.8833333333333333 0.8791666666666667 0.8791666666666667 0.8802083333333334 0.8802083333333334 0.8802083333333334 0.8802083333333334 0.8791666666666667 0.8645833333333334 0.8260416666666667 0.7447916666666666 0.4864583333333333 0.365625 0.2614583333333333 0.17083333333333334 0.11770833333333333 0.09583333333333334 0.09583333333333334 0.09583333333333334 0.096875 0.09791666666666668 0.109375 0.115625 0.11666666666666667 0.11666666666666667 0.11666666666666667 0.11666666666666667 0.11666666666666667 0.11770833333333333,0.8055555555555556 0.8041666666666667 0.8027777777777778 0.7986111111111112 0.7958333333333334 0.7861111111111111 0.7805555555555556 0.775 0.7652777777777777 0.7430555555555556 0.6888888888888889 0.6555555555555556 0.6152777777777778 0.5805555555555555 0.5541666666666667 0.4972222222222222 0.4625 0.4236111111111112 0.3805555555555555 0.3069444444444445 0.2625 0.25416666666666665 0.2486111111111111 0.2458333333333333 0.2430555555555556 0.2402777777777778 0.23750000000000004 0.2319444444444444 0.22916666666666666 0.22916666666666666 0.2152777777777778 0.2069444444444445 0.2069444444444445 0.20138888888888884 0.1958333333333333 0.16388888888888886 0.1430555555555556 0.13194444444444442 0.13055555555555556 0.13055555555555556 0.12916666666666665 0.12916666666666665 0.12916666666666665 0.12916666666666665 0.12916666666666665 0.12777777777777774 0.12777777777777774 0.12777777777777774 0.12777777777777774 0.12777777777777774 0.12777777777777774 0.12638888888888888 0.12361111111111113 0.12222222222222225 0.12222222222222225 0.13194444444444442 0.1347222222222222 0.1347222222222222 0.1347222222222222 0.13194444444444442 0.12361111111111113 0.12361111111111113 0.12222222222222225 0.12222222222222225 0.12083333333333335 0.11388888888888893 0.11250000000000004 0.11250000000000004 0.11250000000000004 0.11250000000000004 0.11250000000000004 0.11250000000000004 0.11250000000000004,149.9600000000064 169.9600000000064 189.9600000000064 209.9600000000064 229.9600000000064 249.9600000000064 269.9600000000064 289.96000000000635 309.96000000000635 329.96000000000635 349.9600000000064 369.9600000000064 389.9600000000064 409.9600000000064 429.9600000000064 449.9600000000064 469.9600000000064 489.9600000000064 509.9600000000064 529.9600000000064 549.9600000000064 569.9600000000064 589.9600000000064 609.9600000000064 629.9600000000064 649.9600000000064 669.9600000000064 689.9600000000064 709.9600000000064 729.9600000000064 749.9600000000064 769.9600000000064 789.9600000000064 809.9600000000064 829.9600000000064 849.9600000000064 869.9600000000064 889.9600000000064 909.9600000000064 929.9600000000064 949.9600000000064 969.9600000000064 989.9600000000064 1009.9600000000064 1029.9600000000064 1049.9600000000064 1069.9600000000064 1089.9600000000064 1109.9600000000064 1129.9600000000066 1149.9600000000066 1169.9600000000066 1189.9600000000066 1209.9600000000066 1229.9600000000066 1249.9600000000066 1269.9600000000066 1289.9600000000066 1309.9600000000066 1329.9600000000066 1349.9600000000066 1369.9600000000066 1389.9600000000064 1409.9600000000064 1429.9600000000064 1449.9600000000064 1469.9600000000064 1489.9600000000064 1509.9600000000064 1529.9600000000064 1549.9600000000064 1569.9600000000064 1589.9600000000064
cb_06,12.0,enc_trial,stim,response,STEM students,1212.7200000000012,enc_trial,1.0,12.0,s_a_09_1,student_art,fold-e,picture frame,6.0,unique,close,paired,s_a_09_1.jpg,art,student-b1,STEM students,Fine Arts students,sub-20,0.0,0.0,1.0,1.0,0.490625 0.4770833333333334 0.465625 0.4572916666666666 0.453125 0.4520833333333333 0.4510416666666667 0.44895833333333335 0.44895833333333335 0.45625 0.4802083333333334 0.4947916666666667 0.5010416666666667 0.4958333333333334 0.465625 0.4572916666666666 0.4572916666666666 0.4572916666666666 0.4572916666666666 0.4552083333333333 0.46875 0.4885416666666666 0.5052083333333334 0.515625 0.5135416666666667 0.5052083333333334 0.5072916666666667 0.5177083333333333 0.540625 0.575 0.6083333333333333 0.6104166666666667 0.603125 0.5958333333333333 0.5947916666666667 0.596875 0.6 0.5989583333333334 0.5947916666666667 0.5677083333333334 0.4947916666666667 0.43333333333333335 0.3552083333333333 0.271875 0.21354166666666666 0.19895833333333326 0.19895833333333326 0.19895833333333326 0.196875 0.19479166666666667 0.1927083333333333 0.190625 0.18645833333333334 0.178125 0.159375 0.121875 0.11979166666666667,0.7458333333333333 0.7263888888888889 0.7166666666666667 0.7111111111111111 0.7069444444444444 0.7013888888888888 0.6875 0.6680555555555556 0.6430555555555555 0.6180555555555556 0.5736111111111111 0.55 0.5305555555555556 0.5236111111111111 0.5263888888888889 0.5319444444444444 0.5319444444444444 0.5319444444444444 0.5319444444444444 0.5319444444444444 0.5416666666666667 0.5388888888888889 0.5319444444444444 0.5180555555555555 0.4847222222222223 0.4611111111111112 0.4291666666666667 0.4125 0.39583333333333337 0.3819444444444444 0.3666666666666667 0.3527777777777777 0.3319444444444445 0.30972222222222223 0.2944444444444444 0.2888888888888889 0.2861111111111111 0.2833333333333333 0.2791666666666667 0.25555555555555554 0.21111111111111114 0.20138888888888884 0.1972222222222222 0.18472222222222226 0.16527777777777775 0.1597222222222222 0.1597222222222222 0.1597222222222222 0.15833333333333333 0.15694444444444444 0.15555555555555556 0.15416666666666667 0.1527777777777778 0.14861111111111114 0.1430555555555556 0.12916666666666665 0.12916666666666665,0.0 20.0 40.0 60.0 80.0 100.0 120.0 140.0 160.0 180.0 200.0 220.0 240.0 260.0 280.0 300.0 320.0 340.0 360.0 380.0 400.0 420.0 440.0 460.0 480.0 500.0 520.0 540.0 560.0 580.0 600.0 620.0 640.0 660.0 680.0 700.0 720.0 740.0 760.0 780.0 800.0 820.0 840.0 860.0 880.0 900.0 920.0 940.0 960.0 980.0 1000.0 1020.0 1040.0 1060.0 1080.0 1100.0 1120.0
cb_06,13.0,enc_trial,stim,response,STEM students,1082.8399999999963,enc_trial,1.0,13.0,s_s_04_1,student_stem,fold-a-single,bunsen burner,6.0,unique,,single,s_s_04_1.jpg,stem,student-b1,STEM students,Fine Arts students,sub-20,1.0,,1.0,,0.5322916666666667 0.5385416666666667 0.5520833333333334 0.5572916666666666 0.5666666666666667 0.5729166666666666 0.5739583333333333 0.5739583333333333 0.5739583333333333 0.5739583333333333 0.575 0.575 0.5760416666666667 0.5770833333333333 0.578125 0.58125 0.5822916666666667 0.584375 0.5854166666666667 0.5854166666666667 0.5854166666666667 0.5885416666666666 0.5927083333333333 0.5927083333333333 0.5739583333333333 0.509375 0.509375 0.4010416666666667 0.3333333333333333 0.26666666666666666 0.146875 0.121875 0.10729166666666666 0.103125 0.1 0.09791666666666668 0.096875 0.09479166666666666 0.09166666666666666 0.08854166666666667 0.08645833333333333,0.8013888888888889 0.7916666666666666 0.7708333333333334 0.7597222222222222 0.7305555555555556 0.6930555555555555 0.6736111111111112 0.6597222222222222 0.6486111111111111 0.6430555555555555 0.6375 0.6375 0.6375 0.6347222222222222 0.6319444444444444 0.6236111111111111 0.6166666666666667 0.6083333333333334 0.5944444444444444 0.5680555555555555 0.5125 0.4763888888888889 0.4263888888888889 0.4097222222222222 0.35416666666666663 0.2847222222222222 0.2847222222222222 0.2569444444444444 0.25416666666666665 0.2486111111111111 0.2277777777777777 0.21666666666666667 0.21111111111111114 0.20972222222222225 0.20972222222222225 0.20416666666666672 0.2 0.1958333333333333 0.1902777777777777 0.18472222222222226 0.18194444444444446,183.2600000000093 203.2600000000093 223.2600000000093 243.2600000000093 263.2600000000093 283.2600000000093 303.2600000000093 323.2600000000093 343.2600000000093 363.2600000000093 383.2600000000093 403.2600000000093 423.2600000000093 443.2600000000093 463.2600000000093 483.2600000000093 503.2600000000093 523.2600000000093 543.2600000000093 563.2600000000092 583.2600000000092 603.2600000000092 623.2600000000092 643.2600000000092 663.2600000000092 683.2600000000092 703.2600000000093 723.2600000000093 743.2600000000093 763.2600000000093 783.2600000000093 803.2600000000093 823.2600000000093 843.2600000000093 863.2600000000093 883.2600000000093 903.2600000000093 923.2600000000093 943.2600000000093 963.2600000000093 983.2600000000093
cb_06,14.0,enc_trial,stim,response,Fine Arts students,1182.7200000000155,enc_trial,1.0,14.0,s_a_03_1,student_art,fold-e,palette,6.0,unique,close,paired,s_a_03_1.jpg,art,student-b1,STEM students,Fine Arts students,sub-20,1.0,1.0,1.0,1.0,0.5125 0.5135416666666667 0.5166666666666667 0.5177083333333333 0.5177083333333333 0.4927083333333334 0.4947916666666667 0.5135416666666667 0.5572916666666666 0.5979166666666667 0.6802083333333333 0.7302083333333333 0.7635416666666667 0.7864583333333334 0.7989583333333333 0.803125 0.8041666666666667 0.8052083333333333 0.809375 0.8114583333333333 0.8125 0.8135416666666667 0.8145833333333333 0.8145833333333333 0.815625 0.8302083333333333 0.8364583333333333 0.8416666666666667 0.8416666666666667 0.8416666666666667 0.8416666666666667 0.8416666666666667 0.8416666666666667 0.8416666666666667 0.8416666666666667 0.8416666666666667 0.8427083333333333 0.8447916666666667,0.8166666666666667 0.7930555555555556 0.7541666666666667 0.6847222222222222 0.6055555555555556 0.37916666666666665 0.32638888888888884 0.2875 0.2625 0.25277777777777777 0.25416666666666665 0.25416666666666665 0.25277777777777777 0.2486111111111111 0.2430555555555556 0.2347222222222223 0.22916666666666666 0.2236111111111111 0.2180555555555556 0.2125 0.20972222222222225 0.2083333333333333 0.2069444444444445 0.2055555555555556 0.20277777777777767 0.18333333333333326 0.1777777777777778 0.17500000000000004 0.17500000000000004 0.17500000000000004 0.17500000000000004 0.17500000000000004 0.17500000000000004 0.17500000000000004 0.17500000000000004 0.17500000000000004 0.17361111111111116 0.17361111111111116,433.12000000000984 453.12000000000984 473.12000000000984 493.12000000000984 513.1200000000099 533.1200000000099 553.1200000000099 573.1200000000098 593.1200000000098 613.1200000000098 633.1200000000098 653.1200000000098 673.1200000000098 693.1200000000098 713.1200000000098 733.1200000000098 753.1200000000098 773.1200000000098 793.1200000000098 813.1200000000098 833.1200000000098 853.1200000000098 873.1200000000098 893.1200000000098 913.1200000000098 933.1200000000098 953.1200000000098 973.1200000000098 993.1200000000098 1013.1200000000098 1033.12000000001 1053.12000000001 1073.12000000001 1093.12000000001 1113.12000000001 1133.12000000001 1153.12000000001 1173.12000000001
cb_06,15.0,enc_trial,stim,response,STEM students,861.2400000000052,enc_trial,1.0,15.0,s_sh_14_1,student_shared,fold-b,printer,6.0,competing,far,paired,s_sh_14_1.jpg,,student-b1,STEM students,Fine Arts students,sub-20,1.0,1.0,0.0,0.0,0.5072916666666667 0.5114583333333333 0.5177083333333333 0.521875 0.5239583333333333 0.528125 0.528125 0.528125 0.528125 0.528125 0.5291666666666667 0.5302083333333333 0.5302083333333333 0.5322916666666667 0.534375 0.5416666666666666 0.5447916666666667 0.5458333333333333 0.5458333333333333 0.5427083333333333 0.50625 0.4677083333333333 0.4135416666666665 0.328125 0.240625 0.12395833333333335 0.11145833333333334 0.10833333333333334 0.10833333333333334 0.10729166666666666 0.10729166666666666 0.10729166666666666 0.10729166666666666 0.10729166666666666 0.10729166666666666 0.10729166666666666 0.10729166666666666,0.7847222222222222 0.7791666666666667 0.775 0.7722222222222223 0.7708333333333334 0.7680555555555555 0.7666666666666666 0.7666666666666666 0.7666666666666666 0.7666666666666666 0.7666666666666666 0.7652777777777777 0.7652777777777777 0.7638888888888888 0.7625 0.7541666666666667 0.7472222222222222 0.7347222222222223 0.7152777777777778 0.6902777777777778 0.6013888888888889 0.5263888888888889 0.4375 0.3291666666666667 0.2416666666666667 0.15694444444444444 0.1513888888888889 0.14861111111111114 0.14861111111111114 0.14861111111111114 0.14583333333333334 0.1444444444444445 0.1444444444444445 0.1444444444444445 0.1430555555555556 0.13888888888888884 0.13749999999999996,0.0 20.0 40.0 60.0 80.0 100.0 120.0 140.0 160.0 180.0 200.0 220.0 240.0 260.0 280.0 300.0 320.0 340.0 360.0 380.0 400.0 420.0 440.0 460.0 480.0 500.0 520.0 540.0 560.0 580.0 600.0 620.0 640.0 660.0 680.0 700.0 720.0
cb_06,16.0,enc_trial,stim,response,Fine Arts students,1200.7799999999988,enc_trial,1.0,16.0,s_sh_04_2,student_shared,fold-c,laptop stand,6.0,competing,close,paired,s_sh_04_2.jpg,,student-b1,STEM students,Fine Arts students,sub-20,1.0,1.0,1.0,0.0,0.5145833333333333 0.5208333333333334 0.5302083333333333 0.5427083333333333 0.5510416666666667 0.565625 0.571875 0.5760416666666667 0.578125 0.578125 0.578125 0.578125 0.578125 0.578125 0.578125 0.578125 0.578125 0.578125 0.578125 0.578125 0.578125 0.578125 0.5770833333333333 0.571875 0.5635416666666667 0.5427083333333333 0.5229166666666667 0.5 0.4697916666666666 0.4291666666666665 0.325 0.2802083333333333 0.23541666666666666 0.21041666666666667 0.19479166666666667 0.17395833333333333 0.165625 0.159375 0.15 0.14791666666666667 0.146875 0.15520833333333334 0.18645833333333334 0.2635416666666667 0.39479166666666665 0.628125 0.7 0.7552083333333334 0.7760416666666666 0.7833333333333333 0.803125 0.8072916666666666 0.809375 0.809375 0.8114583333333333 0.8197916666666667,0.7902777777777777 0.7791666666666667 0.7583333333333333 0.7361111111111112 0.7152777777777778 0.6736111111111112 0.6569444444444444 0.6430555555555555 0.6388888888888888 0.6388888888888888 0.6388888888888888 0.6388888888888888 0.6388888888888888 0.6388888888888888 0.6388888888888888 0.6388888888888888 0.6388888888888888 0.6388888888888888 0.6388888888888888 0.6388888888888888 0.6319444444444444 0.6263888888888889 0.6166666666666667 0.6013888888888889 0.5777777777777777 0.525 0.4902777777777778 0.45 0.4097222222222222 0.37083333333333335 0.3041666666666667 0.27083333333333337 0.22916666666666666 0.20416666666666672 0.1875 0.16527777777777775 0.15416666666666667 0.14027777777777772 0.12222222222222225 0.11944444444444445 0.1152777777777778 0.1152777777777778 0.1152777777777778 0.11805555555555558 0.13055555555555556 0.1513888888888889 0.1527777777777778 0.14027777777777772 0.12361111111111113 0.11805555555555558 0.10416666666666664 0.10138888888888886 0.10138888888888886 0.10138888888888886 0.09999999999999998 0.09999999999999998,0.0 20.0 40.0 60.0 80.0 100.0 120.0 140.0 160.0 180.0 200.0 220.0 240.0 260.0 280.0 300.0 320.0 340.0 360.0 380.0 400.0 420.0 440.0 460.0 480.0 500.0 520.0 540.0 560.0 580.0 600.0 620.0 640.0 660.0 680.0 700.0 720.0 740.0 760.0 780.0 800.0 820.0 840.0 860.0 880.0 900.0 920.0 940.0 960.0 980.0 1000.0 1020.0 1040.0 1060.0 1080.0 1100.0
cb_06,17.0,enc_trial,stim,response,Fine Arts students,1157.5,enc_trial,1.0,17.0,s_a_15_2,student_art,fold-d,drum kit,6.0,unique,far,paired,s_a_15_2.jpg,art,student-b1,STEM students,Fine Arts students,sub-20,1.0,1.0,1.0,1.0,0.496875 0.496875 0.496875 0.496875 0.496875 0.4947916666666667 0.4864583333333333 0.4697916666666666 0.4479166666666667 0.4208333333333333 0.3083333333333333 0.278125 0.25729166666666664 0.2375 0.21770833333333334 0.1927083333333333 0.19166666666666668 0.2 0.228125 0.284375 0.553125 0.6864583333333333 0.8083333333333333 0.9083333333333332 0.9947916666666666 1.0614583333333334 1.0635416666666666 1.0625 1.0541666666666667 1.0416666666666667 1.015625 1.0010416666666666 0.9958333333333332 0.9927083333333332 0.9885416666666668 0.9697916666666668 0.9510416666666668 0.928125 0.909375 0.9010416666666666 0.896875,0.7986111111111112 0.7972222222222223 0.7944444444444445 0.7888888888888889 0.7763888888888889 0.7291666666666667 0.6958333333333333 0.6430555555555555 0.5791666666666666 0.5069444444444444 0.27083333333333337 0.225 0.20416666666666672 0.1875 0.17361111111111116 0.14861111111111114 0.14583333333333334 0.13749999999999996 0.12916666666666665 0.12083333333333335 0.1152777777777778 0.12083333333333335 0.13194444444444442 0.13888888888888884 0.1444444444444445 0.15000000000000002 0.15000000000000002 0.15000000000000002 0.15000000000000002 0.15000000000000002 0.14583333333333334 0.14166666666666672 0.14166666666666672 0.14166666666666672 0.14166666666666672 0.14166666666666672 0.14166666666666672 0.14166666666666672 0.13888888888888884 0.13611111111111107 0.1347222222222222,316.5599999999977 336.5599999999977 356.55999999999773 376.55999999999773 396.55999999999773 416.55999999999773 436.55999999999773 456.55999999999773 476.55999999999773 496.55999999999773 516.5599999999977 536.5599999999977 556.5599999999977 576.5599999999978 596.5599999999978 616.5599999999978 636.5599999999978 656.5599999999978 676.5599999999978 696.5599999999977 716.5599999999977 736.5599999999977 756.5599999999977 776.5599999999977 796.5599999999977 816.5599999999977 836.5599999999977 856.5599999999977 876.5599999999977 896.5599999999977 916.5599999999976 936.5599999999976 956.5599999999976 976.5599999999976 996.5599999999976 1016.5599999999976 1036.5599999999977 1056.5599999999977 1076.5599999999977 1096.5599999999977 1116.5599999999977
cb_06,18.0,enc_trial,stim,response,STEM students,932.9200000000128,enc_trial,1.0,18.0,s_s_20_2,student_stem,fold-d,dna model,6.0,unique,far,paired,s_s_20_2.jpg,stem,student-b1,STEM students,Fine Arts students,sub-20,1.0,1.0,1.0,1.0,0.5072916666666667 0.5072916666666667 0.5072916666666667 0.5083333333333333 0.5083333333333333 0.5083333333333333 0.5083333333333333 0.5083333333333333 0.5083333333333333 0.5083333333333333 0.5083333333333333 0.5083333333333333 0.5083333333333333 0.5083333333333333 0.5083333333333333 0.5083333333333333 0.509375 0.509375 0.5125 0.5166666666666667 0.5197916666666667 0.515625 0.5052083333333334 0.484375 0.4427083333333333 0.3145833333333333 0.2677083333333333 0.228125 0.18020833333333333 0.14270833333333333 0.09479166666666666 0.08645833333333333 0.084375 0.08333333333333333 0.08333333333333333 0.084375 0.084375 0.084375 0.084375 0.08541666666666667 0.08645833333333333 0.08645833333333333 0.08645833333333333 0.08645833333333333 0.08645833333333333 0.08645833333333333,0.7972222222222223 0.7958333333333334 0.7958333333333334 0.7958333333333334 0.7944444444444445 0.7944444444444445 0.7944444444444445 0.7944444444444445 0.7944444444444445 0.7944444444444445 0.7944444444444445 0.7944444444444445 0.7944444444444445 0.7944444444444445 0.7944444444444445 0.7930555555555556 0.7916666666666666 0.7875 0.7777777777777778 0.7597222222222222 0.7055555555555555 0.6722222222222223 0.6305555555555555 0.5763888888888888 0.5069444444444444 0.375 0.3375 0.3041666666666667 0.2486111111111111 0.19861111111111107 0.13888888888888884 0.12777777777777774 0.12361111111111113 0.12222222222222225 0.11944444444444445 0.11805555555555558 0.11805555555555558 0.1166666666666667 0.1166666666666667 0.1152777777777778 0.11250000000000004 0.11250000000000004 0.11250000000000004 0.11250000000000004 0.11250000000000004 0.11250000000000004,16.660000000003492 36.66000000000349 56.66000000000349 76.66000000000348 96.66000000000349 116.66000000000349 136.66000000000352 156.66000000000352 176.66000000000352 196.66000000000352 216.66000000000352 236.66000000000352 256.6600000000035 276.6600000000035 296.6600000000035 316.6600000000035 336.6600000000035 356.6600000000035 376.6600000000035 396.6600000000035 416.6600000000035 436.6600000000035 456.6600000000035 476.6600000000035 496.6600000000035 516.6600000000035 536.6600000000035 556.6600000000035 576.6600000000035 596.6600000000035 616.6600000000035 636.6600000000035 656.6600000000035 676.6600000000035 696.6600000000035 716.6600000000035 736.6600000000035 756.6600000000035 776.6600000000035 796.6600000000035 816.6600000000035 836.6600000000035 856.6600000000035 876.6600000000035 896.6600000000035 916.6600000000036
cb_06,19.0,enc_trial,stim,response,Fine Arts students,990.0,enc_trial,1.0,19.0,s_a_06_1,student_art,fold-d,pastels,6.0,unique,far,paired,s_a_06_1.jpg,art,student-b1,STEM students,Fine Arts students,sub-20,1.0,1.0,1.0,1.0,0.5052083333333334 0.5052083333333334 0.5052083333333334 0.5041666666666667 0.5010416666666667 0.4958333333333334 0.4864583333333333 0.4760416666666666 0.459375 0.428125 0.32083333333333336 0.27291666666666664 0.221875 0.17604166666666668 0.12604166666666666 0.090625 0.090625 0.08958333333333332 0.090625 0.103125 0.2239583333333333 0.340625 0.4677083333333333 0.5927083333333333 0.7083333333333334 0.8552083333333333 0.871875 0.8760416666666667 0.8760416666666667 0.8760416666666667 0.875 0.875 0.8739583333333333 0.8739583333333333 0.8739583333333333 0.8739583333333333,0.8069444444444445 0.8041666666666667 0.8013888888888889 0.7958333333333334 0.775 0.7125 0.6486111111111111 0.5888888888888889 0.5263888888888889 0.45 0.2680555555555556 0.21111111111111114 0.1680555555555555 0.1347222222222222 0.0902777777777778 0.04861111111111116 0.04861111111111116 0.04722222222222228 0.04583333333333328 0.04583333333333328 0.056944444444444464 0.06527777777777778 0.0708333333333333 0.07916666666666672 0.08194444444444449 0.08472222222222225 0.0902777777777778 0.09305555555555556 0.09444444444444444 0.09583333333333333 0.0986111111111111 0.10138888888888886 0.10138888888888886 0.10138888888888886 0.10138888888888886 0.10277777777777776,249.9200000000128 269.9200000000128 289.9200000000128 309.9200000000128 329.9200000000128 349.9200000000128 369.9200000000128 389.9200000000128 409.9200000000128 429.9200000000128 449.9200000000128 469.9200000000128 489.9200000000128 509.9200000000128 529.9200000000128 549.9200000000128 569.9200000000127 589.9200000000127 609.9200000000127 629.9200000000127 649.9200000000127 669.9200000000127 689.9200000000128 709.9200000000128 729.9200000000128 749.9200000000128 769.9200000000128 789.9200000000128 809.9200000000128 829.9200000000128 849.9200000000128 869.9200000000128 889.9200000000128 909.9200000000128 929.9200000000128 949.9200000000128
cb_06,20.0,enc_trial,stim,response,Fine Arts students,909.2600000000093,enc_trial,1.0,20.0,s_a_03_2,student_art,fold-e,palette,6.0,unique,close,paired,s_a_03_2.jpg,art,student-b1,STEM students,Fine Arts students,sub-20,1.0,1.0,1.0,1.0,0.5052083333333334 0.5135416666666667 0.521875 0.534375 0.5364583333333334 0.5395833333333333 0.540625 0.540625 0.540625 0.540625 0.540625 0.540625 0.5385416666666667 0.534375 0.5270833333333333 0.5135416666666667 0.4989583333333333 0.4802083333333334 0.459375 0.43020833333333336 0.38125 0.3625 0.35208333333333336 0.3489583333333333 0.3552083333333333 0.45 0.54375 0.628125 0.6947916666666667 0.7510416666666667 0.8395833333333333 0.859375 0.8635416666666667 0.8635416666666667 0.8635416666666667 0.865625 0.865625 0.865625 0.865625 0.8677083333333333 0.8833333333333333 0.890625 0.89375 0.8947916666666667 0.8958333333333334,0.7847222222222222 0.7736111111111111 0.7597222222222222 0.7416666666666667 0.7319444444444445 0.7152777777777778 0.7069444444444444 0.6972222222222222 0.6875 0.6763888888888889 0.6402777777777777 0.6208333333333333 0.5972222222222222 0.5736111111111111 0.5416666666666667 0.4986111111111111 0.4680555555555556 0.43333333333333335 0.4 0.3597222222222223 0.3055555555555556 0.28194444444444444 0.26388888888888884 0.25277777777777777 0.2430555555555556 0.2222222222222222 0.2180555555555556 0.2180555555555556 0.2152777777777778 0.20416666666666672 0.1944444444444444 0.1944444444444444 0.1944444444444444 0.1944444444444444 0.1944444444444444 0.1944444444444444 0.1944444444444444 0.1944444444444444 0.1944444444444444 0.1930555555555556 0.1805555555555556 0.17638888888888893 0.17500000000000004 0.17361111111111116 0.17361111111111116,0.0 20.0 40.0 60.0 80.0 100.0 120.0 140.0 160.0 180.0 200.0 220.0 240.0 260.0 280.0 300.0 320.0 340.0 360.0 380.0 400.0 420.0 440.0 460.0 480.0 500.0 520.0 540.0 560.0 580.0 600.0 620.0 640.0 660.0 680.0 700.0 720.0 740.0 760.0 780.0 800.0 820.0 840.0 860.0 880.0
cb_06,21.0,enc_trial,stim,response,STEM students,1157.7799999999988,enc_trial,1.0,21.0,s_s_17_2,student_stem,fold-e,ring stand,6.0,unique,close,paired,s_s_17_2.jpg,stem,student-b1,STEM students,Fine Arts students,sub-20,1.0,1.0,1.0,1.0,0.515625 0.5208333333333334 0.5260416666666666 0.528125 0.5302083333333333 0.5322916666666667 0.534375 0.5364583333333334 0.5385416666666667 0.540625 0.540625 0.540625 0.540625 0.5416666666666666 0.5416666666666666 0.5447916666666667 0.5489583333333333 0.5510416666666667 0.5510416666666667 0.5510416666666667 0.5447916666666667 0.5302083333333333 0.4989583333333333 0.4677083333333333 0.44166666666666665 0.3729166666666667 0.321875 0.2989583333333333 0.2833333333333333 0.2760416666666667 0.27395833333333336 0.27395833333333336 0.2760416666666667 0.284375 0.296875 0.340625 0.359375 0.37083333333333335 0.3697916666666667 0.3552083333333333 0.303125 0.2604166666666667 0.228125 0.20416666666666666 0.18333333333333326 0.15104166666666666 0.15 0.15 0.15 0.15 0.15 0.15 0.15 0.15 0.15 0.15 0.15 0.15 0.14895833333333333,0.7652777777777777 0.7597222222222222 0.7527777777777778 0.7486111111111111 0.7458333333333333 0.7430555555555556 0.7402777777777778 0.7347222222222223 0.7305555555555556 0.7277777777777779 0.7277777777777779 0.7277777777777779 0.7277777777777779 0.7263888888888889 0.7236111111111111 0.7055555555555555 0.6736111111111112 0.65 0.6277777777777778 0.6055555555555556 0.5305555555555556 0.4722222222222222 0.4013888888888889 0.3569444444444444 0.33472222222222225 0.30972222222222223 0.29166666666666663 0.2791666666666667 0.2694444444444445 0.2652777777777777 0.2625 0.2611111111111111 0.2569444444444444 0.2458333333333333 0.2347222222222223 0.22083333333333333 0.2152777777777778 0.2069444444444445 0.20138888888888884 0.1875 0.16527777777777775 0.15694444444444444 0.1513888888888889 0.14861111111111114 0.1430555555555556 0.13749999999999996 0.13611111111111107 0.13611111111111107 0.13611111111111107 0.13611111111111107 0.13611111111111107 0.13611111111111107 0.13611111111111107 0.13611111111111107 0.13611111111111107 0.13611111111111107 0.13611111111111107 0.13611111111111107 0.13611111111111107,0.0 20.0 40.0 60.0 80.0 100.0 120.0 140.0 160.0 180.0 200.0 220.0 240.0 260.0 280.0 300.0 320.0 340.0 360.0 380.0 400.0 420.0 440.0 460.0 480.0 500.0 520.0 540.0 560.0 580.0 600.0 620.0 640.0 660.0 680.0 700.0 720.0 740.0 760.0 780.0 800.0 820.0 840.0 860.0 880.0 900.0 920.0 940.0 960.0 980.0 1000.0 1020.0 1040.0 1060.0 1080.0 1100.0 1120.0 1140.0 1160.0
cb_06,22.0,enc_trial,stim,response,Fine Arts students,1157.4200000000128,enc_trial,1.0,22.0,s_sh_24_2,student_shared,fold-b,desk organizer,6.0,competing,far,paired,s_sh_24_2.jpg,,student-b1,STEM students,Fine Arts students,sub-20,1.0,1.0,0.0,1.0,0.5104166666666666 0.5104166666666666 0.5104166666666666 0.5104166666666666 0.5104166666666666 0.5072916666666667 0.5052083333333334 0.503125 0.5 0.496875 0.4802083333333334 0.4677083333333333 0.446875 0.42291666666666666 0.41875 0.4135416666666665 0.41458333333333336 0.41875 0.42291666666666666 0.43020833333333336 0.4791666666666667 0.525 0.5739583333333333 0.6333333333333333 0.715625 0.7572916666666667 0.765625 0.7739583333333333 0.784375 0.7989583333333333 0.81875 0.8208333333333333 0.8208333333333333 0.821875 0.8197916666666667 0.8072916666666666 0.7947916666666667 0.79375 0.803125 0.8291666666666667 0.8697916666666666 0.8854166666666666 0.890625 0.890625 0.890625 0.8916666666666667,0.7944444444444445 0.7930555555555556 0.7916666666666666 0.7902777777777777 0.7861111111111111 0.7486111111111111 0.7166666666666667 0.6777777777777778 0.6347222222222222 0.5791666666666666 0.4736111111111111 0.4194444444444444 0.3555555555555555 0.3027777777777778 0.2930555555555555 0.28194444444444444 0.2777777777777778 0.27083333333333337 0.2625 0.25416666666666665 0.2263888888888889 0.21666666666666667 0.2152777777777778 0.2152777777777778 0.2152777777777778 0.2152777777777778 0.2152777777777778 0.2138888888888889 0.2125 0.2125 0.2125 0.2125 0.2125 0.21111111111111114 0.20972222222222225 0.20416666666666672 0.1972222222222222 0.1930555555555556 0.18611111111111112 0.17500000000000004 0.17083333333333328 0.17083333333333328 0.17083333333333328 0.17083333333333328 0.17083333333333328 0.17083333333333328,216.5 236.5 256.5 276.5 296.5 316.5 336.5 356.5 376.5 396.5 416.5 436.5 456.5 476.5 496.5 516.5 536.5 556.5 576.5 596.5 616.5 636.5 656.5 676.5 696.5 716.5 736.5 756.5 776.5 796.5 816.5 836.5 856.5 876.5 896.5 916.5 936.5 956.5 976.5 996.5 1016.5 1036.5 1056.5 1076.5 1096.5 1116.5
cb_06,23.0,enc_trial,stim,response,STEM students,1111.0599999999977,enc_trial,1.0,23.0,s_sh_11_1,student_shared,fold-b,pencil case,6.0,competing,far,paired,s_sh_11_1.jpg,,student-b1,STEM students,Fine Arts students,sub-20,1.0,1.0,1.0,1.0,0.5020833333333333 0.503125 0.503125 0.503125 0.503125 0.503125 0.503125 0.503125 0.503125 0.503125 0.503125 0.503125 0.503125 0.503125 0.503125 0.503125 0.4958333333333334 0.484375 0.4677083333333333 0.44895833333333335 0.403125 0.3697916666666667 0.3229166666666667 0.27395833333333336 0.2302083333333333 0.16875 0.16041666666666668 0.15729166666666666 0.15625 0.15520833333333334 0.15104166666666666 0.14895833333333333 0.14895833333333333 0.14895833333333333 0.14895833333333333 0.14895833333333333 0.14791666666666667 0.14791666666666667 0.14791666666666667 0.14791666666666667 0.14791666666666667 0.14791666666666667 0.14791666666666667 0.14791666666666667 0.14791666666666667 0.14791666666666667 0.14791666666666667 0.14791666666666667 0.14791666666666667 0.14791666666666667 0.14791666666666667 0.14791666666666667 0.14791666666666667 0.14791666666666667 0.14791666666666667 0.14895833333333333,0.7833333333333333 0.7819444444444444 0.7805555555555556 0.7805555555555556 0.7805555555555556 0.7805555555555556 0.7805555555555556 0.7805555555555556 0.7805555555555556 0.7805555555555556 0.7805555555555556 0.7805555555555556 0.7805555555555556 0.7791666666666667 0.7777777777777778 0.7541666666666667 0.725 0.6902777777777778 0.6486111111111111 0.6069444444444445 0.5361111111111111 0.4930555555555556 0.425 0.35 0.2791666666666667 0.1958333333333333 0.18888888888888888 0.18472222222222226 0.18194444444444446 0.17500000000000004 0.1611111111111111 0.1597222222222222 0.1597222222222222 0.1597222222222222 0.1597222222222222 0.15694444444444444 0.15416666666666667 0.15416666666666667 0.15416666666666667 0.15416666666666667 0.15416666666666667 0.15416666666666667 0.15416666666666667 0.15416666666666667 0.15416666666666667 0.15416666666666667 0.15416666666666667 0.15416666666666667 0.15416666666666667 0.15416666666666667 0.15416666666666667 0.15416666666666667 0.15416666666666667 0.15416666666666667 0.15416666666666667 0.15694444444444444,0.0 20.0 40.0 60.0 80.0 100.0 120.0 140.0 160.0 180.0 200.0 220.0 240.0 260.0 280.0 300.0 320.0 340.0 360.0 380.0 400.0 420.0 440.0 460.0 480.0 500.0 520.0 540.0 560.0 580.0 600.0 620.0 640.0 660.0 680.0 700.0 720.0 740.0 760.0 780.0 800.0 820.0 840.0 860.0 880.0 900.0 920.0 940.0 960.0 980.0 1000.0 1020.0 1040.0 1060.0 1080.0 1100.0
cb_06,24.0,enc_trial,stim,response,Fine Arts students,1350.7600000000093,enc_trial,1.0,24.0,s_sh_10_1,student_shared,fold-b,scissors,6.0,competing,far,paired,s_sh_10_1.jpg,,student-b1,STEM students,Fine Arts students,sub-20,0.0,0.0,1.0,1.0,0.496875 0.4989583333333333 0.5 0.5010416666666667 0.5020833333333333 0.5052083333333334 0.50625 0.5083333333333333 0.509375 0.5104166666666666 0.5114583333333333 0.5114583333333333 0.5114583333333333 0.5114583333333333 0.5125 0.5135416666666667 0.5135416666666667 0.5135416666666667 0.5114583333333333 0.503125 0.4604166666666666 0.42604166666666665 0.384375 0.33229166666666665 0.2802083333333333 0.18854166666666666 0.15833333333333333 0.13958333333333334 0.13333333333333333 0.13125 0.13020833333333334 0.13020833333333334 0.13020833333333334 0.13020833333333334 0.13020833333333334 0.128125 0.12604166666666666 0.12604166666666666 0.12604166666666666 0.12604166666666666 0.12604166666666666 0.12604166666666666 0.12604166666666666 0.12604166666666666 0.128125 0.2416666666666667 0.3104166666666667 0.5072916666666667 0.6427083333333333 0.771875 0.95 0.978125 0.978125 0.9822916666666668 0.978125 0.965625 0.9614583333333332 0.953125 0.95 0.9458333333333332 0.9322916666666666 0.9145833333333332 0.8927083333333333 0.8729166666666667 0.8583333333333333 0.8541666666666666,0.7986111111111112 0.7958333333333334 0.7944444444444445 0.7916666666666666 0.7888888888888889 0.7847222222222222 0.7833333333333333 0.7791666666666667 0.7777777777777778 0.7763888888888889 0.7736111111111111 0.7736111111111111 0.7736111111111111 0.7722222222222223 0.7708333333333334 0.7652777777777777 0.7597222222222222 0.7416666666666667 0.7208333333333333 0.6916666666666667 0.5972222222222222 0.5388888888888889 0.4819444444444444 0.4125 0.3416666666666667 0.2347222222222223 0.2055555555555556 0.18472222222222226 0.17638888888888893 0.17222222222222228 0.17083333333333328 0.17083333333333328 0.17083333333333328 0.17083333333333328 0.17083333333333328 0.16527777777777775 0.16249999999999998 0.1611111111111111 0.1597222222222222 0.15694444444444444 0.15416666666666667 0.1527777777777778 0.1513888888888889 0.15000000000000002 0.14861111111111114 0.12222222222222225 0.1166666666666667 0.11388888888888893 0.11388888888888893 0.11388888888888893 0.10138888888888886 0.09999999999999998 0.09999999999999998 0.09999999999999998 0.09999999999999998 0.09999999999999998 0.09999999999999998 0.09999999999999998 0.09999999999999998 0.09999999999999998 0.09999999999999998 0.0986111111111111 0.0986111111111111 0.09583333333333333 0.09583333333333333 0.09305555555555556,0.0 20.0 40.0 60.0 80.0 100.0 120.0 140.0 160.0 180.0 200.0 220.0 240.0 260.0 280.0 300.0 320.0 340.0 360.0 380.0 400.0 420.0 440.0 460.0 480.0 500.0 520.0 540.0 560.0 580.0 600.0 620.0 640.0 660.0 680.0 700.0 720.0 740.0 760.0 780.0 800.0 820.0 840.0 860.0 880.0 900.0 920.0 940.0 960.0 980.0 1000.0 1020.0 1040.0 1060.0 1080.0 1100.0 1120.0 1140.0 1160.0 1180.0 1200.0 1220.0 1240.0 1260.0 1280.0 1300.0
cb_06,25.0,enc_trial,stim,response,Fine Arts students,1559.5199999999895,enc_trial,1.0,25.0,s_sh_20_1,student_shared,fold-c,tape,6.0,competing,close,paired,s_sh_20_1.jpg,,student-b1,STEM students,Fine Arts students,sub-20,0.0,0.0,1.0,1.0,0.503125 0.503125 0.503125 0.4958333333333334 0.490625 0.484375 0.4822916666666667 0.4802083333333334 0.475 0.4635416666666667 0.446875 0.45 0.4677083333333333 0.528125 0.5958333333333333 0.6854166666666667 0.6979166666666666 0.7010416666666667 0.6947916666666667 0.6739583333333333 0.5447916666666667 0.453125 0.353125 0.27395833333333336 0.2270833333333333 0.18958333333333333 0.19479166666666667 0.21770833333333334 0.2770833333333333 0.3802083333333333 0.615625 0.7385416666666667 0.821875 0.85625 0.8729166666666667 0.884375 0.8864583333333333 0.8885416666666667 0.8989583333333333 0.909375 0.9197916666666668 0.9239583333333332 0.9270833333333334 0.940625 0.9427083333333334 0.9447916666666668 0.9447916666666668 0.9447916666666668 0.9447916666666668 0.9447916666666668 0.9447916666666668 0.9447916666666668 0.9447916666666668 0.9447916666666668 0.9447916666666668 0.94375 0.9427083333333334 0.9395833333333332 0.9302083333333332 0.921875 0.9072916666666668 0.90625 0.90625 0.90625 0.9052083333333332,0.8 0.7958333333333334 0.7847222222222222 0.7527777777777778 0.7180555555555556 0.6569444444444444 0.6333333333333333 0.6097222222222223 0.5847222222222221 0.5430555555555556 0.4208333333333333 0.3902777777777777 0.37222222222222223 0.3430555555555556 0.3208333333333333 0.2569444444444444 0.2319444444444444 0.2152777777777778 0.20972222222222225 0.2069444444444445 0.21944444444444444 0.2263888888888889 0.2319444444444444 0.2305555555555555 0.2180555555555556 0.20138888888888884 0.1944444444444444 0.17638888888888893 0.15694444444444444 0.14861111111111114 0.16388888888888886 0.17500000000000004 0.18194444444444446 0.18194444444444446 0.18194444444444446 0.1777777777777778 0.17638888888888893 0.17361111111111116 0.17083333333333328 0.1680555555555555 0.16666666666666666 0.16527777777777775 0.16527777777777775 0.15694444444444444 0.15694444444444444 0.15694444444444444 0.15694444444444444 0.15694444444444444 0.15694444444444444 0.15694444444444444 0.15694444444444444 0.15694444444444444 0.15694444444444444 0.15694444444444444 0.15694444444444444 0.15694444444444444 0.15694444444444444 0.15555555555555556 0.1527777777777778 0.1513888888888889 0.14861111111111114 0.14861111111111114 0.14861111111111114 0.14861111111111114 0.14861111111111114,283.2399999999907 303.2399999999907 323.2399999999907 343.2399999999907 363.2399999999907 383.2399999999907 403.2399999999907 423.2399999999907 443.2399999999907 463.2399999999907 483.2399999999907 503.2399999999907 523.2399999999907 543.2399999999907 563.2399999999908 583.2399999999908 603.2399999999908 623.2399999999908 643.2399999999908 663.2399999999908 683.2399999999908 703.2399999999907 723.2399999999907 743.2399999999907 763.2399999999907 783.2399999999907 803.2399999999907 823.2399999999907 843.2399999999907 863.2399999999907 883.2399999999907 903.2399999999907 923.2399999999907 943.2399999999907 963.2399999999907 983.2399999999907 1003.2399999999907 1023.2399999999907 1043.2399999999907 1063.2399999999907 1083.2399999999907 1103.2399999999907 1123.2399999999907 1143.2399999999907 1163.2399999999907 1183.2399999999907 1203.2399999999907 1223.2399999999907 1243.2399999999907 1263.2399999999907 1283.2399999999907 1303.2399999999907 1323.2399999999907 1343.2399999999907 1363.2399999999907 1383.239999999991 1403.239999999991 1423.239999999991 1443.239999999991 1463.239999999991 1483.239999999991 1503.239999999991 1523.239999999991 1543.239999999991 1563.239999999991
cb_06,26.0,enc_trial,stim,response,STEM students,1182.2799999999988,enc_trial,1.0,26.0,s_s_11_2,student_stem,fold-d,scientific scale,6.0,unique,far,paired,s_s_11_2.jpg,stem,student-b1,STEM students,Fine Arts students,sub-20,1.0,1.0,1.0,1.0,0.528125 0.5322916666666667 0.534375 0.5354166666666667 0.5375 0.5427083333333333 0.5489583333333333 0.55 0.553125 0.5552083333333333 0.5552083333333333 0.5552083333333333 0.5552083333333333 0.553125 0.5479166666666667 0.5322916666666667 0.5291666666666667 0.5166666666666667 0.5010416666666667 0.48125 0.434375 0.3958333333333333 0.353125 0.303125 0.259375 0.196875 0.184375 0.18020833333333333 0.17708333333333334 0.17604166666666668 0.171875 0.16666666666666666 0.159375 0.15729166666666666 0.15729166666666666 0.15625 0.15520833333333334 0.15416666666666667 0.153125 0.15 0.146875 0.146875 0.146875 0.146875 0.15 0.184375 0.21770833333333334 0.2552083333333333 0.2708333333333333 0.2760416666666667 0.26979166666666665 0.25416666666666665 0.2302083333333333 0.203125 0.17395833333333333 0.134375 0.13020833333333334,0.7597222222222222 0.7541666666666667 0.7513888888888889 0.7486111111111111 0.7444444444444445 0.7319444444444445 0.7152777777777778 0.7111111111111111 0.6944444444444444 0.6861111111111111 0.6708333333333334 0.6625 0.6472222222222221 0.6194444444444445 0.5875 0.5180555555555555 0.5083333333333333 0.4805555555555555 0.4555555555555556 0.4263888888888889 0.3847222222222222 0.3680555555555556 0.3527777777777777 0.33611111111111114 0.31805555555555554 0.2847222222222222 0.2763888888888889 0.27361111111111114 0.2694444444444445 0.2666666666666667 0.25416666666666665 0.2444444444444445 0.2347222222222223 0.2319444444444444 0.2319444444444444 0.22916666666666666 0.225 0.2180555555555556 0.2138888888888889 0.2083333333333333 0.20138888888888884 0.19861111111111107 0.1958333333333333 0.1958333333333333 0.1930555555555556 0.18888888888888888 0.18611111111111112 0.18194444444444446 0.17361111111111116 0.16666666666666666 0.1597222222222222 0.1597222222222222 0.1597222222222222 0.1597222222222222 0.15833333333333333 0.15416666666666667 0.15416666666666667,0.0 20.0 40.0 60.0 80.0 100.0 120.0 140.0 160.0 180.0 200.0 220.0 240.0 260.0 280.0 300.0 320.0 340.0 360.0 380.0 400.0 420.0 440.0 460.0 480.0 500.0 520.0 540.0 560.0 580.0 600.0 620.0 640.0 660.0 680.0 700.0 720.0 740.0 760.0 780.0 800.0 820.0 840.0 860.0 880.0 900.0 920.0 940.0 960.0 980.0 1000.0 1020.0 1040.0 1060.0 1080.0 1100.0 1120.0
cb_06,27.0,enc_trial,stim,response,STEM students,869.2999999999884,enc_trial,1.0,27.0,s_s_17_1,student_stem,fold-e,ring stand,6.0,unique,close,paired,s_s_17_1.jpg,stem,student-b1,STEM students,Fine Arts students,sub-20,1.0,1.0,1.0,1.0,0.5197916666666667 0.5208333333333334 0.521875 0.521875 0.521875 0.521875 0.521875 0.5239583333333333 0.525 0.528125 0.540625 0.54375 0.54375 0.5395833333333333 0.5260416666666666 0.4864583333333333 0.4541666666666666 0.4125 0.371875 0.3302083333333333 0.2 0.171875 0.15208333333333332 0.14166666666666666 0.13854166666666667 0.13854166666666667 0.13854166666666667 0.13854166666666667 0.140625 0.140625 0.14270833333333333 0.14479166666666668 0.146875 0.146875 0.146875 0.14479166666666668 0.14479166666666668,0.8083333333333333 0.8069444444444445 0.8069444444444445 0.8069444444444445 0.8069444444444445 0.8069444444444445 0.8041666666666667 0.8027777777777778 0.7972222222222223 0.7819444444444444 0.6944444444444444 0.6208333333333333 0.5458333333333334 0.4708333333333333 0.4125 0.3597222222222223 0.3430555555555556 0.3291666666666667 0.3222222222222222 0.31527777777777777 0.2930555555555555 0.2791666666666667 0.2652777777777777 0.2569444444444444 0.25555555555555554 0.25416666666666665 0.25277777777777777 0.25 0.2486111111111111 0.2458333333333333 0.23750000000000004 0.2305555555555555 0.22083333333333333 0.2083333333333333 0.2 0.1930555555555556 0.1902777777777777,116.61999999999534 136.61999999999534 156.61999999999534 176.61999999999534 196.61999999999531 216.61999999999531 236.61999999999531 256.6199999999953 276.6199999999953 296.6199999999953 316.6199999999953 336.6199999999953 356.61999999999534 376.61999999999534 396.61999999999534 416.61999999999534 436.61999999999534 456.61999999999534 476.61999999999534 496.61999999999534 516.6199999999953 536.6199999999953 556.6199999999953 576.6199999999952 596.6199999999952 616.6199999999952 636.6199999999952 656.6199999999952 676.6199999999952 696.6199999999952 716.6199999999952 736.6199999999952 756.6199999999952 776.6199999999952 796.6199999999952 816.6199999999952 836.6199999999952
cb_06,28.0,enc_trial,stim,response,STEM students,1153.2399999999907,enc_trial,1.0,28.0,s_a_10_1,student_art,fold-a-single,tripod,6.0,unique,,single,s_a_10_1.jpg,art,student-b1,STEM students,Fine Arts students,sub-20,0.0,,0.0,,0.5010416666666667 0.5010416666666667 0.5010416666666667 0.5020833333333333 0.503125 0.5041666666666667 0.5041666666666667 0.5041666666666667 0.5010416666666667 0.4927083333333334 0.453125 0.4239583333333333 0.3958333333333333 0.38645833333333335 0.3822916666666665 0.378125 0.3729166666666667 0.3645833333333333 0.3614583333333333 0.3614583333333333 0.3614583333333333 0.3614583333333333 0.365625 0.371875 0.378125 0.365625 0.3385416666666667 0.3072916666666667 0.271875 0.21875 0.18229166666666666 0.17083333333333334 0.16145833333333334 0.15729166666666666 0.15729166666666666 0.1927083333333333 0.25 0.34375 0.4375 0.5041666666666667 0.5416666666666666 0.534375 0.5041666666666667 0.4427083333333333 0.3697916666666667 0.2416666666666667 0.20729166666666668 0.18333333333333326 0.16354166666666667 0.15104166666666666 0.14479166666666668 0.14479166666666668 0.14375 0.14166666666666666 0.13854166666666667 0.13854166666666667,0.7972222222222223 0.7972222222222223 0.7958333333333334 0.7958333333333334 0.7944444444444445 0.7875 0.7791666666666667 0.7652777777777777 0.7277777777777779 0.6819444444444445 0.5 0.3930555555555556 0.3069444444444445 0.28194444444444444 0.2777777777777778 0.2791666666666667 0.2930555555555555 0.3125 0.3291666666666667 0.3319444444444445 0.3319444444444445 0.33333333333333337 0.33472222222222225 0.33611111111111114 0.32638888888888884 0.2902777777777777 0.25277777777777777 0.225 0.20416666666666672 0.17361111111111116 0.14861111111111114 0.1347222222222222 0.125 0.11805555555555558 0.11250000000000004 0.0888888888888889 0.07361111111111107 0.0708333333333333 0.07638888888888884 0.07916666666666672 0.07916666666666672 0.07638888888888884 0.07638888888888884 0.07916666666666672 0.08194444444444449 0.08194444444444449 0.08194444444444449 0.08194444444444449 0.08194444444444449 0.08194444444444449 0.0805555555555556 0.0805555555555556 0.07916666666666672 0.07638888888888884 0.07638888888888884 0.07638888888888884,0.0 20.0 40.0 60.0 80.0 100.0 120.0 140.0 160.0 180.0 200.0 220.0 240.0 260.0 280.0 300.0 320.0 340.0 360.0 380.0 400.0 420.0 440.0 460.0 480.0 500.0 520.0 540.0 560.0 580.0 600.0 620.0 640.0 660.0 680.0 700.0 720.0 740.0 760.0 780.0 800.0 820.0 840.0 860.0 880.0 900.0 920.0 940.0 960.0 980.0 1000.0 1020.0 1040.0 1060.0 1080.0 1100.0
cb_06,29.0,enc_trial,stim,response,STEM students,854.7999999999884,enc_trial,1.0,29.0,s_sh_07_1,student_shared,fold-a-single,ruler,6.0,competing,,single,s_sh_07_1.jpg,,student-b1,STEM students,Fine Arts students,sub-20,1.0,,1.0,,0.515625 0.5208333333333334 0.5270833333333333 0.534375 0.5375 0.540625 0.540625 0.5416666666666666 0.5416666666666666 0.5416666666666666 0.5416666666666666 0.5416666666666666 0.5416666666666666 0.5427083333333333 0.5427083333333333 0.5416666666666666 0.5385416666666667 0.5322916666666667 0.5239583333333333 0.5041666666666667 0.4364583333333333 0.3927083333333333 0.340625 0.2833333333333333 0.2260416666666667 0.171875 0.1625 0.15833333333333333 0.15833333333333333 0.15833333333333333 0.15833333333333333 0.15833333333333333 0.15833333333333333 0.15833333333333333 0.15833333333333333 0.15729166666666666 0.15729166666666666 0.15729166666666666 0.15520833333333334 0.15 0.146875 0.146875,0.7972222222222223 0.7902777777777777 0.7847222222222222 0.7791666666666667 0.7736111111111111 0.7708333333333334 0.7680555555555555 0.7652777777777777 0.7638888888888888 0.7625 0.7625 0.7625 0.7611111111111111 0.7597222222222222 0.7569444444444444 0.7458333333333333 0.7361111111111112 0.7152777777777778 0.6888888888888889 0.6402777777777777 0.475 0.3916666666666667 0.3041666666666667 0.2138888888888889 0.14027777777777772 0.08194444444444449 0.07361111111111107 0.0708333333333333 0.0708333333333333 0.0708333333333333 0.0708333333333333 0.0708333333333333 0.0708333333333333 0.0708333333333333 0.0708333333333333 0.0708333333333333 0.0708333333333333 0.07222222222222219 0.07361111111111107 0.07916666666666672 0.08611111111111114 0.08750000000000002,0.0 20.0 40.0 60.0 80.0 100.0 120.0 140.0 160.0 180.0 200.0 220.0 240.0 260.0 280.0 300.0 320.0 340.0 360.0 380.0 400.0 420.0 440.0 460.0 480.0 500.0 520.0 540.0 560.0 580.0 600.0 620.0 640.0 660.0 680.0 700.0 720.0 740.0 760.0 780.0 800.0 820.0
cb_06,30.0,enc_trial,stim,response,Fine Arts students,996.3800000000048,enc_trial,1.0,30.0,s_sh_14_2,student_shared,fold-b,printer,6.0,competing,far,paired,s_sh_14_2.jpg,,student-b1,STEM students,Fine Arts students,sub-20,1.0,1.0,0.0,0.0,0.4989583333333333 0.4989583333333333 0.4989583333333333 0.4989583333333333 0.4989583333333333 0.4979166666666667 0.4958333333333334 0.4947916666666667 0.484375 0.4802083333333334 0.4635416666666667 0.4635416666666667 0.4635416666666667 0.471875 0.496875 0.6072916666666667 0.6708333333333333 0.721875 0.7614583333333333 0.7885416666666667 0.8083333333333333 0.8083333333333333 0.8083333333333333 0.8083333333333333 0.809375 0.81875 0.8385416666666666 0.8604166666666667 0.8729166666666667 0.8802083333333334 0.8822916666666667 0.8822916666666667 0.8833333333333333 0.8833333333333333 0.8833333333333333 0.884375,0.8041666666666667 0.8041666666666667 0.8013888888888889 0.7986111111111112 0.7944444444444445 0.7805555555555556 0.7680555555555555 0.7597222222222222 0.6972222222222222 0.6708333333333334 0.5138888888888888 0.4902777777777778 0.4791666666666666 0.4638888888888889 0.4291666666666667 0.27222222222222225 0.1902777777777777 0.1430555555555556 0.11944444444444445 0.10833333333333328 0.10138888888888886 0.10138888888888886 0.10138888888888886 0.10138888888888886 0.10138888888888886 0.0986111111111111 0.0902777777777778 0.08611111111111114 0.08472222222222225 0.08472222222222225 0.08472222222222225 0.08472222222222225 0.08472222222222225 0.08472222222222225 0.08472222222222225 0.08472222222222225,266.58000000001635 286.58000000001635 306.58000000001635 326.58000000001635 346.5800000000164 366.5800000000164 386.5800000000164 406.5800000000164 426.5800000000164 446.5800000000164 466.5800000000164 486.5800000000164 506.5800000000164 526.5800000000163 546.5800000000163 566.5800000000163 586.5800000000163 606.5800000000163 626.5800000000163 646.5800000000163 666.5800000000163 686.5800000000163 706.5800000000162 726.5800000000162 746.5800000000162 766.5800000000162 786.5800000000162 806.5800000000162 826.5800000000162 846.5800000000162 866.5800000000162 886.5800000000162 906.5800000000163 926.5800000000163 946.5800000000163 966.5800000000163
cb_06,31.0,enc_trial,stim,response,Fine Arts students,1187.6199999999953,enc_trial,1.0,31.0,s_sh_20_2,student_shared,fold-c,tape,6.0,competing,close,paired,s_sh_20_2.jpg,,student-b1,STEM students,Fine Arts students,sub-20,0.0,0.0,1.0,1.0,0.5010416666666667 0.5010416666666667 0.5020833333333333 0.503125 0.5052083333333334 0.509375 0.5114583333333333 0.5135416666666667 0.515625 0.5177083333333333 0.5302083333333333 0.5354166666666667 0.540625 0.5447916666666667 0.546875 0.5458333333333333 0.540625 0.5302083333333333 0.5010416666666667 0.4697916666666666 0.38645833333333335 0.35104166666666664 0.321875 0.2947916666666667 0.25729166666666664 0.196875 0.18229166666666666 0.17916666666666667 0.18020833333333333 0.19479166666666667 0.2302083333333333 0.25729166666666664 0.29375 0.37916666666666665 0.4947916666666667 0.73125 0.8083333333333333 0.8479166666666667 0.8677083333333333 0.8708333333333333 0.8635416666666667 0.8552083333333333 0.8458333333333333 0.840625 0.8364583333333333 0.8260416666666667 0.81875 0.8166666666666667 0.8177083333333334 0.821875 0.8354166666666667 0.8489583333333334 0.871875 0.8895833333333333 0.8979166666666667,0.8111111111111111 0.8097222222222222 0.8083333333333333 0.8069444444444445 0.8041666666666667 0.7986111111111112 0.7944444444444445 0.7902777777777777 0.7875 0.7819444444444444 0.7486111111111111 0.7263888888888889 0.6986111111111111 0.6736111111111112 0.6541666666666667 0.6222222222222222 0.6013888888888889 0.5791666666666666 0.5319444444444444 0.4930555555555556 0.4138888888888889 0.3875 0.3666666666666667 0.3486111111111111 0.3125 0.2458333333333333 0.22916666666666666 0.2236111111111111 0.22083333333333333 0.20972222222222225 0.19861111111111107 0.1958333333333333 0.1930555555555556 0.1875 0.1875 0.1875 0.18472222222222226 0.1791666666666667 0.17638888888888893 0.17500000000000004 0.17361111111111116 0.17083333333333328 0.1680555555555555 0.16527777777777775 0.16527777777777775 0.1597222222222222 0.1513888888888889 0.1430555555555556 0.1347222222222222 0.12916666666666665 0.12638888888888888 0.12638888888888888 0.12638888888888888 0.12638888888888888 0.12638888888888888,33.320000000006985 53.32000000000698 73.32000000000698 93.32000000000698 113.32000000000698 133.32000000000698 153.32000000000696 173.32000000000698 193.32000000000698 213.32000000000698 233.32000000000698 253.32000000000698 273.32000000000704 293.32000000000704 313.32000000000704 333.32000000000704 353.32000000000704 373.32000000000704 393.32000000000704 413.32000000000704 433.32000000000704 453.32000000000704 473.32000000000704 493.32000000000704 513.320000000007 533.320000000007 553.320000000007 573.320000000007 593.320000000007 613.320000000007 633.320000000007 653.320000000007 673.320000000007 693.320000000007 713.320000000007 733.320000000007 753.320000000007 773.320000000007 793.320000000007 813.320000000007 833.320000000007 853.320000000007 873.320000000007 893.320000000007 913.320000000007 933.320000000007 953.320000000007 973.320000000007 993.320000000007 1013.320000000007 1033.320000000007 1053.320000000007 1073.320000000007 1093.320000000007 1113.320000000007
cb_06,32.0,enc_trial,stim,response,Fine Arts students,863.8999999999942,enc_trial,1.0,32.0,s_a_06_2,student_art,fold-d,pastels,6.0,unique,far,paired,s_a_06_2.jpg,art,student-b1,STEM students,Fine Arts students,sub-20,1.0,1.0,1.0,1.0,0.5010416666666667 0.5010416666666667 0.5010416666666667 0.5010416666666667 0.4989583333333333 0.4989583333333333 0.515625 0.5552083333333333 0.6177083333333333 0.675 0.7541666666666667 0.7802083333333333 0.803125 0.815625 0.821875 0.8229166666666666 0.8229166666666666 0.8229166666666666 0.8229166666666666 0.8229166666666666 0.8229166666666666 0.8229166666666666 0.8229166666666666 0.8239583333333333 0.8260416666666667 0.8322916666666667,0.8180555555555555 0.8166666666666667 0.8069444444444445 0.7708333333333334 0.7361111111111112 0.6291666666666667 0.5597222222222222 0.4847222222222223 0.4125 0.37083333333333335 0.3236111111111111 0.29166666666666663 0.25555555555555554 0.2180555555555556 0.1958333333333333 0.19166666666666665 0.19166666666666665 0.19166666666666665 0.19166666666666665 0.19166666666666665 0.19166666666666665 0.19166666666666665 0.19166666666666665 0.1902777777777777 0.18472222222222226 0.17361111111111116,316.54000000000815 336.54000000000815 356.5400000000081 376.54000000000815 396.54000000000815 416.54000000000815 436.54000000000815 456.54000000000815 476.54000000000815 496.54000000000815 516.540000000008 536.540000000008 556.540000000008 576.540000000008 596.540000000008 616.540000000008 636.540000000008 656.540000000008 676.540000000008 696.540000000008 716.540000000008 736.540000000008 756.540000000008 776.540000000008 796.540000000008 816.540000000008
cb_06,33.0,enc_trial,stim,response,STEM students,1259.4800000000105,enc_trial,1.0,33.0,s_sh_18_1,student_shared,fold-c,wall calendar,6.0,competing,close,paired,s_sh_18_1.jpg,,student-b1,STEM students,Fine Arts students,sub-20,0.0,0.0,1.0,0.0,0.4885416666666666 0.4885416666666666 0.4885416666666666 0.4895833333333333 0.4895833333333333 0.4895833333333333 0.490625 0.490625 0.490625 0.490625 0.490625 0.490625 0.490625 0.4916666666666666 0.4927083333333334 0.496875 0.5010416666666667 0.5083333333333333 0.521875 0.5489583333333333 0.6395833333333333 0.6791666666666667 0.725 0.7447916666666666 0.759375 0.778125 0.7864583333333334 0.7958333333333333 0.80625 0.8125 0.8177083333333334 0.8197916666666667 0.8229166666666666 0.8291666666666667 0.840625 0.8635416666666667 0.8760416666666667 0.8927083333333333 0.9041666666666668 0.909375 0.9125 0.9125 0.8947916666666667 0.8447916666666667 0.728125 0.4270833333333333 0.2770833333333333 0.16354166666666667 0.10208333333333333 0.08020833333333334 0.07708333333333334 0.08229166666666668 0.08854166666666667 0.09479166666666666 0.10104166666666667 0.10729166666666666 0.10729166666666666 0.10833333333333334,0.7958333333333334 0.7930555555555556 0.7916666666666666 0.7902777777777777 0.7902777777777777 0.7902777777777777 0.7902777777777777 0.7888888888888889 0.7888888888888889 0.7888888888888889 0.7888888888888889 0.7888888888888889 0.7875 0.7875 0.7847222222222222 0.7791666666666667 0.7708333333333334 0.7569444444444444 0.7319444444444445 0.6861111111111111 0.5208333333333333 0.4555555555555556 0.3847222222222222 0.3611111111111112 0.3402777777777778 0.2930555555555555 0.2680555555555556 0.24722222222222226 0.2319444444444444 0.22083333333333333 0.2125 0.21111111111111114 0.20416666666666672 0.1958333333333333 0.18333333333333326 0.16249999999999998 0.15416666666666667 0.1430555555555556 0.13194444444444442 0.12638888888888888 0.12361111111111113 0.12083333333333335 0.11805555555555558 0.11250000000000004 0.1166666666666667 0.14583333333333334 0.1513888888888889 0.15000000000000002 0.14027777777777772 0.13749999999999996 0.13194444444444442 0.13055555555555556 0.12777777777777774 0.125 0.12222222222222225 0.12083333333333335 0.11944444444444445 0.11944444444444445,33.320000000006985 53.32000000000698 73.32000000000698 93.32000000000698 113.32000000000698 133.32000000000698 153.32000000000696 173.32000000000698 193.32000000000698 213.32000000000698 233.32000000000698 253.32000000000698 273.32000000000704 293.32000000000704 313.32000000000704 333.32000000000704 353.32000000000704 373.32000000000704 393.32000000000704 413.32000000000704 433.32000000000704 453.32000000000704 473.32000000000704 493.32000000000704 513.320000000007 533.320000000007 553.320000000007 573.320000000007 593.320000000007 613.320000000007 633.320000000007 653.320000000007 673.320000000007 693.320000000007 713.320000000007 733.320000000007 753.320000000007 773.320000000007 793.320000000007 813.320000000007 833.320000000007 853.320000000007 873.320000000007 893.320000000007 913.320000000007 933.320000000007 953.320000000007 973.320000000007 993.320000000007 1013.320000000007 1033.320000000007 1053.320000000007 1073.320000000007 1093.320000000007 1113.320000000007 1133.320000000007 1153.320000000007 1173.320000000007
cb_06,34.0,enc_trial,stim,response,Fine Arts students,824.2399999999907,enc_trial,1.0,34.0,s_sh_02_1,student_shared,fold-a-single,eraser,6.0,competing,,single,s_sh_02_1.jpg,,student-b1,STEM students,Fine Arts students,sub-20,1.0,,1.0,,0.4802083333333334 0.48125 0.4864583333333333 0.4989583333333333 0.534375 0.634375 0.6833333333333333 0.7302083333333333 0.7833333333333333 0.8385416666666666 0.934375 0.9677083333333332 0.9802083333333332 0.9802083333333332 0.9822916666666668 0.9729166666666668 0.965625 0.9541666666666668 0.9385416666666668 0.925 0.9135416666666668 0.9135416666666668 0.9135416666666668 0.9114583333333334 0.9052083333333332 0.8947916666666667,0.8083333333333333 0.8041666666666667 0.7958333333333334 0.775 0.7125 0.5402777777777779 0.4652777777777778 0.4097222222222222 0.3513888888888889 0.29166666666666663 0.1430555555555556 0.0902777777777778 0.07361111111111107 0.07361111111111107 0.06944444444444442 0.06805555555555554 0.06805555555555554 0.06944444444444442 0.07638888888888884 0.07777777777777772 0.07777777777777772 0.07777777777777772 0.07777777777777772 0.07916666666666672 0.08194444444444449 0.08611111111111114,283.2399999999907 303.2399999999907 323.2399999999907 343.2399999999907 363.2399999999907 383.2399999999907 403.2399999999907 423.2399999999907 443.2399999999907 463.2399999999907 483.2399999999907 503.2399999999907 523.2399999999907 543.2399999999907 563.2399999999908 583.2399999999908 603.2399999999908 623.2399999999908 643.2399999999908 663.2399999999908 683.2399999999908 703.2399999999907 723.2399999999907 743.2399999999907 763.2399999999907 783.2399999999907
cb_06,35.0,enc_trial,stim,response,STEM students,1263.359999999986,enc_trial,1.0,35.0,s_s_12_1,student_stem,fold-a-single,robotic arm,6.0,unique,,single,s_s_12_1.jpg,stem,student-b1,STEM students,Fine Arts students,sub-20,1.0,,1.0,,0.4854166666666666 0.4854166666666666 0.4864583333333333 0.4875 0.490625 0.5010416666666667 0.5083333333333333 0.515625 0.5177083333333333 0.5177083333333333 0.5177083333333333 0.5177083333333333 0.51875 0.51875 0.51875 0.5197916666666667 0.5197916666666667 0.5197916666666667 0.5197916666666667 0.5197916666666667 0.509375 0.503125 0.4989583333333333 0.4979166666666667 0.496875 0.4927083333333334 0.484375 0.4614583333333334 0.4197916666666667 0.33541666666666664 0.240625 0.22916666666666666 0.225 0.2239583333333333 0.22291666666666668 0.22291666666666668 0.221875 0.21458333333333326 0.21041666666666667 0.209375 0.209375 0.2083333333333333 0.20520833333333333 0.19895833333333326 0.18854166666666666 0.18020833333333333,0.8152777777777778 0.8138888888888889 0.8125 0.8083333333333333 0.8013888888888889 0.7694444444444444 0.7388888888888889 0.6958333333333333 0.6847222222222222 0.6597222222222222 0.6569444444444444 0.6569444444444444 0.6541666666666667 0.6541666666666667 0.6541666666666667 0.6597222222222222 0.6625 0.6625 0.6638888888888889 0.6666666666666667 0.6819444444444445 0.6875 0.6902777777777778 0.6916666666666667 0.6930555555555555 0.6958333333333333 0.6958333333333333 0.6777777777777778 0.6361111111111111 0.5263888888888889 0.4041666666666667 0.3875 0.37777777777777777 0.3638888888888889 0.3416666666666667 0.2875 0.2569444444444444 0.22083333333333333 0.1972222222222222 0.1930555555555556 0.1930555555555556 0.1902777777777777 0.1875 0.1791666666666667 0.17361111111111116 0.1680555555555555,349.7599999999801 369.7599999999801 389.7599999999801 409.7599999999801 429.7599999999801 449.7599999999801 469.7599999999801 489.7599999999801 509.7599999999801 529.7599999999801 549.7599999999801 569.7599999999801 589.7599999999801 609.7599999999801 629.7599999999801 649.7599999999801 669.7599999999801 689.7599999999802 709.7599999999802 729.7599999999802 749.7599999999802 769.7599999999802 789.7599999999802 809.7599999999802 829.7599999999802 849.7599999999802 869.7599999999802 889.7599999999802 909.75999999998 929.75999999998 949.75999999998 969.75999999998 989.75999999998 1009.75999999998 1029.7599999999802 1049.7599999999802 1069.7599999999802 1089.7599999999802 1109.7599999999802 1129.7599999999802 1149.7599999999802 1169.7599999999802 1189.7599999999802 1209.7599999999802 1229.7599999999802 1249.7599999999802
cb_06,36.0,enc_trial,stim,response,STEM students,810.0599999999977,enc_trial,1.0,36.0,s_sh_03_1,student_shared,fold-a-single,highlighter,6.0,competing,,single,s_sh_03_1.jpg,,student-b1,STEM students,Fine Arts students,sub-20,1.0,,1.0,,0.4979166666666667 0.4979166666666667 0.496875 0.4947916666666667 0.4895833333333333 0.4614583333333334 0.4322916666666667 0.39166666666666666 0.3541666666666667 0.3177083333333333 0.228125 0.20520833333333333 0.18854166666666666 0.17083333333333334 0.15520833333333334 0.14479166666666668 0.14270833333333333 0.13958333333333334 0.13645833333333332 0.134375 0.13125 0.13125 0.13125 0.13125 0.13125 0.13020833333333334,0.8041666666666667 0.8027777777777778 0.8013888888888889 0.7958333333333334 0.7833333333333333 0.7263888888888889 0.6763888888888889 0.6 0.525 0.4597222222222223 0.31666666666666665 0.2763888888888889 0.2430555555555556 0.2083333333333333 0.1805555555555556 0.16249999999999998 0.1611111111111111 0.1611111111111111 0.1611111111111111 0.1611111111111111 0.1597222222222222 0.1597222222222222 0.1597222222222222 0.1597222222222222 0.1597222222222222 0.15694444444444444,199.8999999999941 219.8999999999941 239.8999999999941 259.89999999999407 279.89999999999407 299.8999999999941 319.8999999999941 339.8999999999941 359.8999999999941 379.8999999999941 399.8999999999941 419.8999999999941 439.8999999999941 459.8999999999941 479.8999999999941 499.8999999999941 519.8999999999942 539.8999999999942 559.8999999999942 579.8999999999943 599.8999999999943 619.8999999999943 639.8999999999943 659.8999999999943 679.8999999999943 699.8999999999942
cb_06,37.0,enc_trial,stim,response,Fine Arts students,998.5199999999896,enc_trial,1.0,37.0,s_a_04_1,student_art,fold-a-single,easel,6.0,unique,,single,s_a_04_1.jpg,art,student-b1,STEM students,Fine Arts students,sub-20,1.0,,1.0,,0.5010416666666667 0.4989583333333333 0.4958333333333334 0.4895833333333333 0.48125 0.428125 0.39895833333333336 0.3770833333333333 0.371875 0.37083333333333335 0.3802083333333333 0.3895833333333333 0.39375 0.40208333333333335 0.421875 0.503125 0.5802083333333333 0.653125 0.728125 0.7802083333333333 0.825 0.825 0.8270833333333333 0.8270833333333333 0.8260416666666667 0.8260416666666667 0.8260416666666667 0.8260416666666667 0.8260416666666667 0.8260416666666667 0.8270833333333333 0.8322916666666667 0.8375 0.8447916666666667 0.8447916666666667 0.846875,0.8125 0.8055555555555556 0.7930555555555556 0.7680555555555555 0.7305555555555556 0.5180555555555555 0.4 0.3125 0.28194444444444444 0.27083333333333337 0.2597222222222222 0.25 0.24722222222222226 0.2430555555555556 0.23750000000000004 0.22916666666666666 0.2236111111111111 0.2152777777777778 0.19861111111111107 0.1805555555555556 0.16527777777777775 0.16527777777777775 0.16249999999999998 0.1611111111111111 0.15833333333333333 0.14861111111111114 0.14861111111111114 0.14861111111111114 0.14861111111111114 0.14861111111111114 0.1444444444444445 0.14027777777777772 0.13749999999999996 0.13749999999999996 0.13749999999999996 0.13749999999999996,299.79999999998836 319.79999999998836 339.79999999998836 359.7999999999884 379.7999999999884 399.7999999999884 419.7999999999884 439.7999999999884 459.7999999999884 479.7999999999884 499.7999999999884 519.7999999999884 539.7999999999884 559.7999999999884 579.7999999999884 599.7999999999884 619.7999999999884 639.7999999999884 659.7999999999884 679.7999999999884 699.7999999999884 719.7999999999884 739.7999999999884 759.7999999999884 779.7999999999884 799.7999999999884 819.7999999999884 839.7999999999884 859.7999999999884 879.7999999999884 899.7999999999884 919.7999999999884 939.7999999999884 959.7999999999884 979.7999999999884 999.7999999999884
cb_06,38.0,enc_trial,stim,response,Fine Arts students,973.820000000007,enc_trial,1.0,38.0,s_sh_10_2,student_shared,fold-b,scissors,6.0,competing,far,paired,s_sh_10_2.jpg,,student-b1,STEM students,Fine Arts students,sub-20,0.0,0.0,1.0,1.0,0.5072916666666667 0.5052083333333334 0.4989583333333333 0.4875 0.4677083333333333 0.4395833333333333 0.4395833333333333 0.446875 0.4552083333333333 0.4635416666666667 0.51875 0.5739583333333333 0.6375 0.703125 0.7541666666666667 0.8010416666666667 0.80625 0.8072916666666666 0.8072916666666666 0.80625 0.80625 0.80625 0.80625 0.8104166666666667 0.8135416666666667 0.81875 0.8229166666666666 0.8302083333333333 0.846875 0.8614583333333333 0.871875 0.871875 0.8739583333333333 0.8739583333333333 0.875,0.8069444444444445 0.7902777777777777 0.7625 0.7138888888888889 0.6472222222222221 0.5222222222222221 0.4875 0.4680555555555556 0.4513888888888888 0.4305555555555556 0.3041666666666667 0.2458333333333333 0.2152777777777778 0.20138888888888884 0.1930555555555556 0.17638888888888893 0.17083333333333328 0.17083333333333328 0.1694444444444444 0.1680555555555555 0.1680555555555555 0.16527777777777775 0.16249999999999998 0.15833333333333333 0.15416666666666667 0.1513888888888889 0.14861111111111114 0.14583333333333334 0.14027777777777772 0.1347222222222222 0.13194444444444442 0.13194444444444442 0.13194444444444442 0.13194444444444442 0.13194444444444442,283.04000000000815 303.04000000000815 323.04000000000815 343.04000000000815 363.04000000000815 383.04000000000815 403.04000000000815 423.04000000000815 443.04000000000815 463.04000000000815 483.04000000000815 503.04000000000815 523.040000000008 543.040000000008 563.040000000008 583.040000000008 603.040000000008 623.040000000008 643.040000000008 663.040000000008 683.040000000008 703.040000000008 723.040000000008 743.040000000008 763.040000000008 783.040000000008 803.040000000008 823.040000000008 843.040000000008 863.040000000008 883.040000000008 903.0400000000079 923.0400000000079 943.0400000000079 963.0400000000079
