Current Spreadsheet,Trial Number,Display,Screen,Response Type,Response,Reaction Time,display,block,block_trial,stimulus_id,expected_goal,fold,stimulus_name,c_group,condition,within_block_dist,paired_status,stimulus_path,expected_location,block_split,respStim_1,respStim_2,sub_label,acc,both_enc_acc,assoc_stim1_acc,assoc_stim2_acc,x_pos,y_pos,time_trajectories
cb_10,1.0,enc_trial,stim,response,Fine Arts students,2583.3999999999937,enc_trial,1.0,1.0,s_sh_04_1,student_shared,fold-c-single,laptop stand,10.0,competing,,single,s_sh_04_1.jpg,,student-b1,STEM students,Fine Arts students,sub-34,1.0,,0.0,,0.4925905598243688 0.4934138309549945 0.4934138309549945 0.4934138309549945 0.4934138309549945 0.4942371020856202 0.5008232711306256 0.5016465422612514 0.5082327113062569 0.5205817782656421 0.5526893523600439 0.5642151481888035 0.5699780461031833 0.5724478594950604 0.5724478594950604 0.5724478594950604 0.539517014270033 0.531284302963776 0.5304610318331504 0.5304610318331504 0.5304610318331504 0.5592755214050494 0.5987925356750823 0.6506586169045006 0.741218441273326 0.7799121844127332 0.8153128430296377 0.8243688254665202 0.8293084522502744 0.8317782656421515 0.8326015367727772 0.8326015367727772 0.8326015367727772 0.8326015367727772 0.8326015367727772 0.8326015367727772 0.8326015367727772 0.8326015367727772 0.8326015367727772 0.8326015367727772 0.8326015367727772 0.8326015367727772 0.8326015367727772 0.8326015367727772 0.8309549945115258 0.7486278814489572 0.672886937431394 0.5938529088913282 0.5699780461031833 0.5337541163556532 0.4983534577387486 0.4357848518111965 0.400384193194292 0.3707464324917673 0.35016465422612514 0.3057080131723381 0.27195389681668497 0.23243688254665204 0.2085620197585072 0.18551042810098795 0.16163556531284304 0.11964873765093305 0.10647639956092207 0.10318331503841936 0.10236004390779366 0.10236004390779366 0.10236004390779366 0.10318331503841936 0.10400658616904504 0.10482985729967073 0.1056531284302964 0.1056531284302964 0.1056531284302964 0.1056531284302964 0.1056531284302964 0.10647639956092207 0.11553238199780465 0.159165751920966 0.20362239297475304 0.2694840834248079 0.3518111964873765 0.5716245883644346 0.6078485181119648 0.6852360043907794 0.7963776070252471 0.8680021953896817 0.9445664105378704 0.9577387486278816 0.9610318331503842 0.9610318331503842 0.9198682766191 0.8885839736553239 0.8688254665203075 0.8482436882546652 0.8433040614709112 0.8276619099890229 0.8276619099890229 0.8276619099890229 0.8284851811196488 0.8326015367727772 0.8424807903402853 0.8474204171240396 0.8490669593852909 0.8490669593852909 0.8498902305159166 0.8556531284302964 0.8605927552140505 0.8630625686059277 0.8655323819978047 0.8655323819978047,0.8122941822173436 0.7848518111964874 0.7585071350164654 0.7354555433589463 0.7145993413830956 0.6882546652030735 0.6443468715697036 0.6311745334796927 0.5883644346871569 0.5532381997804611 0.4884742041712404 0.4709110867178924 0.4577387486278814 0.4533479692645445 0.4533479692645445 0.4533479692645445 0.5115257958287596 0.5257958287596048 0.5290889132821075 0.5290889132821075 0.5290889132821075 0.5082327113062568 0.464324917672887 0.4083424807903403 0.30076838638858394 0.2491767288693744 0.2041712403951701 0.18990120746432493 0.18111964873765096 0.1734357848518112 0.17014270032930845 0.16904500548847426 0.16684961580680568 0.16684961580680568 0.16465422612513725 0.16355653128430292 0.16355653128430292 0.16355653128430292 0.16355653128430292 0.16355653128430292 0.16355653128430292 0.16355653128430292 0.16355653128430292 0.16355653128430292 0.1624588364434687 0.1833150384193194 0.19758507135016468 0.2096597145993414 0.2096597145993414 0.2074643249176729 0.1942919868276619 0.17233809001097694 0.15916575192096594 0.14818880351262353 0.141602634467618 0.13391877058177826 0.1306256860592755 0.1306256860592755 0.12952799121844127 0.12952799121844127 0.12733260153677273 0.12733260153677273 0.12733260153677273 0.12733260153677273 0.12733260153677273 0.12733260153677273 0.12843029637760706 0.13282107574094404 0.13391877058177826 0.1361141602634468 0.1361141602634468 0.1361141602634468 0.1361141602634468 0.1361141602634468 0.1361141602634468 0.1361141602634468 0.13501646542261247 0.12403951701427007 0.11855104281009875 0.11306256860592755 0.11306256860592755 0.10318331503841928 0.10098792535675084 0.09220636663007686 0.08013172338090012 0.07793633369923159 0.07793633369923159 0.07793633369923159 0.08013172338090012 0.08232711306256857 0.1888035126234907 0.2546652030735456 0.2930845225027442 0.3347969264544457 0.3446761800219539 0.3776070252469813 0.3776070252469813 0.3732162458836443 0.35345773874862785 0.32711306256860595 0.27881448957189897 0.2601536772777168 0.2535675082327113 0.2491767288693744 0.23819978046103185 0.2074643249176729 0.19099890230515915 0.18660812294182216 0.1822173435784852 0.18111964873765096,333.3000000000028 353.3000000000028 373.3000000000028 393.3000000000028 413.3000000000028 433.3000000000028 453.3000000000028 473.3000000000028 493.3000000000028 513.3000000000028 533.3000000000028 553.3000000000028 573.3000000000028 593.3000000000028 613.3000000000028 633.3000000000028 653.3000000000028 673.3000000000028 693.3000000000028 713.3000000000028 733.3000000000028 753.3000000000028 773.3000000000028 793.3000000000028 813.3000000000028 833.3000000000028 853.3000000000028 873.3000000000028 893.3000000000028 913.3000000000028 933.3000000000028 953.3000000000028 973.3000000000028 993.3000000000028 1013.3000000000028 1033.3000000000031 1053.3000000000031 1073.3000000000031 1093.3000000000031 1113.3000000000031 1133.3000000000031 1153.3000000000031 1173.3000000000031 1193.3000000000031 1213.3000000000031 1233.3000000000031 1253.3000000000031 1273.3000000000031 1293.3000000000031 1313.3000000000031 1333.3000000000031 1353.3000000000031 1373.3000000000031 1393.3000000000031 1413.3000000000031 1433.3000000000031 1453.3000000000031 1473.3000000000031 1493.3000000000031 1513.3000000000031 1533.3000000000031 1553.3000000000031 1573.3000000000031 1593.3000000000031 1613.3000000000031 1633.3000000000031 1653.3000000000031 1673.3000000000031 1693.3000000000031 1713.3000000000031 1733.3000000000031 1753.3000000000031 1773.3000000000031 1793.3000000000031 1813.3000000000031 1833.3000000000031 1853.3000000000031 1873.3000000000031 1893.3000000000031 1913.3000000000031 1933.3000000000031 1953.3000000000031 1973.3000000000031 1993.3000000000031 2013.3000000000031 2033.3000000000031 2053.300000000003 2073.300000000003 2093.300000000003 2113.300000000003 2133.300000000003 2153.300000000003 2173.300000000003 2193.300000000003 2213.300000000003 2233.300000000003 2253.300000000003 2273.300000000003 2293.300000000003 2313.300000000003 2333.300000000003 2353.300000000003 2373.300000000003 2393.300000000003 2413.300000000003 2433.300000000003 2453.300000000003 2473.300000000003 2493.300000000003 2513.300000000003
cb_10,2.0,enc_trial,stim,response,STEM students,1633.2999999999884,enc_trial,1.0,2.0,s_s_15_1,student_stem,fold-c,jumper cables,10.0,unique,close,paired,s_s_15_1.jpg,stem,student-b1,STEM students,Fine Arts students,sub-34,1.0,1.0,1.0,1.0,0.5082327113062569 0.5065861690450055 0.5065861690450055 0.5074094401756312 0.5123490669593853 0.5246981339187706 0.5354006586169044 0.5502195389681669 0.5675082327113062 0.5913830954994511 0.6086717892425906 0.6144346871569704 0.6119648737650933 0.6119648737650933 0.6136114160263446 0.6267837541163557 0.6358397365532382 0.6473655323819978 0.6597145993413831 0.6695938529088913 0.6877058177826564 0.6877058177826564 0.6877058177826564 0.6827661909989023 0.6490120746432492 0.5889132821075741 0.5749176728869374 0.5551591657519209 0.5436333699231614 0.5337541163556532 0.4892974753018661 0.4662458836443469 0.4316684961580681 0.3773326015367728 0.3246432491767289 0.2143249176728869 0.16986827661909992 0.13199780461031835 0.09495060373216248 0.06284302963776073 0.05543358946212956 0.05378704720087819 0.05131723380900114 0.05131723380900114 0.05131723380900114 0.05131723380900114 0.05131723380900114 0.057080131723380924 0.07107574094401757 0.08918770581778268 0.13117453347969266 0.13446761800219542 0.13529088913282108,0.8210757409440176 0.7826564215148188 0.7530186608122942 0.712403951701427 0.6652030735455543 0.6037321624588364 0.5708013172338089 0.544456641053787 0.5148188803512623 0.4873765093304061 0.4698133918770582 0.4610318331503842 0.4500548847420417 0.4412733260153677 0.4291986827661911 0.3918770581778266 0.37431394072447854 0.3556531284302964 0.3391877058177827 0.3293084522502744 0.3095499451152579 0.3084522502744237 0.3084522502744237 0.3095499451152579 0.32272228320526897 0.33260153677277715 0.33260153677277715 0.33260153677277715 0.3315038419319429 0.3293084522502744 0.318331503841932 0.31613611416026344 0.31613611416026344 0.31613611416026344 0.3084522502744237 0.2590559824368825 0.24368825466520305 0.2316136114160263 0.2151481888035126 0.19758507135016468 0.19538968166849613 0.19538968166849613 0.1942919868276619 0.1942919868276619 0.1942919868276619 0.1942919868276619 0.1942919868276619 0.19099890230515915 0.18441273326015373 0.17892425905598242 0.16684961580680568 0.16684961580680568 0.16684961580680568,450.0 470.0 490.0 510.0 530.0 550.0 570.0 590.0 610.0 630.0 650.0 670.0 690.0 710.0 730.0 750.0 770.0 790.0 810.0 830.0 850.0 870.0 890.0 910.0 930.0 950.0 970.0 990.0 1010.0 1030.0 1050.0 1070.0 1090.0 1110.0 1130.0 1150.0 1170.0 1190.0 1210.0 1230.0 1250.0 1270.0 1290.0 1310.0 1330.0 1350.0 1370.0 1390.0 1410.0 1430.0 1450.0 1470.0 1490.0
cb_10,3.0,enc_trial,stim,response,Fine Arts students,1107.6999996185334,enc_trial,1.0,3.0,s_sh_11_1,student_shared,fold-b,pencil case,10.0,competing,close,paired,s_sh_11_1.jpg,,student-b1,STEM students,Fine Arts students,sub-34,1.0,1.0,1.0,1.0,0.4983534577387486 0.4983534577387486 0.4983534577387486 0.4983534577387486 0.4983534577387486 0.4909440175631175 0.4843578485181121 0.4753018660812294 0.4637760702524698 0.4604829857299671 0.45801317233809 0.45801317233809 0.455543358946213 0.455543358946213 0.455543358946213 0.455543358946213 0.455543358946213 0.455543358946213 0.455543358946213 0.455543358946213 0.455543358946213 0.455543358946213 0.455543358946213 0.455543358946213 0.455543358946213 0.4637760702524698 0.4720087815587266 0.4909440175631175 0.5082327113062569 0.5222283205268935 0.6416026344676179 0.7140504939626784 0.7708562019758507 0.8095499451152579 0.8326015367727772 0.8680021953896817 0.8737650933040615 0.8745883644346872 0.8754116355653129 0.8754116355653129 0.8795279912184414 0.8819978046103184 0.8836443468715698,0.8386388583973655 0.8166849615806806 0.7925356750823271 0.7650933040614709 0.7310647639956092 0.6169045005488474 0.5488474204171241 0.4654226125137212 0.3699231613611416 0.3347969264544457 0.283205268935236 0.2612513721185511 0.24149286498353464 0.2305159165751921 0.2261251372118551 0.22392974753018646 0.22392974753018646 0.22392974753018646 0.22392974753018646 0.22392974753018646 0.22392974753018646 0.22392974753018646 0.22392974753018646 0.22392974753018646 0.22392974753018646 0.22392974753018646 0.22392974753018646 0.21734357848518115 0.2140504939626784 0.2096597145993414 0.17233809001097694 0.1514818880351262 0.13830954994511524 0.1306256860592755 0.1262349066959385 0.12294182217343574 0.12294182217343574 0.12294182217343574 0.12294182217343574 0.12294182217343574 0.1262349066959385 0.12733260153677273 0.12843029637760706,183.3000000000029 203.3000000000029 223.3000000000029 243.3000000000029 263.3000000000029 283.30000000000285 303.30000000000285 323.30000000000285 343.30000000000285 363.3000000000029 383.3000000000029 403.3000000000029 423.3000000000029 443.3000000000029 463.3000000000029 483.3000000000029 503.3000000000029 523.3000000000029 543.3000000000029 563.3000000000029 583.3000000000029 603.3000000000029 623.3000000000029 643.3000000000029 663.3000000000029 683.3000000000029 703.3000000000029 723.3000000000029 743.3000000000029 763.3000000000029 783.3000000000029 803.3000000000029 823.3000000000029 843.3000000000029 863.3000000000029 883.3000000000029 903.3000000000028 923.3000000000028 943.3000000000028 963.3000000000028 983.3000000000028 1003.3000000000028 1023.3000000000028
cb_10,4.0,enc_trial,stim,response,Fine Arts students,1148.6999996185334,enc_trial,1.0,4.0,s_a_12_1,student_art,fold-c,saxophone,10.0,unique,close,paired,s_a_12_1.jpg,art,student-b1,STEM students,Fine Arts students,sub-34,1.0,1.0,1.0,1.0,0.4958836443468715 0.4942371020856202 0.4934138309549945 0.4925905598243688 0.4925905598243688 0.4901207464324918 0.4892974753018661 0.4884742041712404 0.4843578485181121 0.4810647639956092 0.4604829857299671 0.4538968166849616 0.4489571899012075 0.4431942919868277 0.43660812294182216 0.4308452250274424 0.4308452250274424 0.4431942919868277 0.4547200878155873 0.4728320526893524 0.5658616904500549 0.6037321624588364 0.6506586169045006 0.6909989023051591 0.7140504939626784 0.7609769484083425 0.7774423710208562 0.7963776070252471 0.8079034028540065 0.8161361141602634 0.8342480790340285 0.8498902305159166 0.8647091108671789 0.8762349066959386 0.8770581778265643,0.8243688254665202 0.8024149286498353 0.7848518111964874 0.7639956092206367 0.7431394072447859 0.6838638858397366 0.6454445664105379 0.5729967069154775 0.5104281009879253 0.4851811196487377 0.3754116355653129 0.3512623490669594 0.32711306256860595 0.3073545554335895 0.2843029637760702 0.23819978046103185 0.2151481888035126 0.18660812294182216 0.17892425905598242 0.17014270032930845 0.15806805708013172 0.15806805708013172 0.15806805708013172 0.15806805708013172 0.15806805708013172 0.15806805708013172 0.15806805708013172 0.15916575192096594 0.16355653128430292 0.16684961580680568 0.1679473106476399 0.1679473106476399 0.1679473106476399 0.1679473106476399 0.1679473106476399,349.90000000000884 369.90000000000884 389.90000000000884 409.90000000000884 429.90000000000884 449.90000000000884 469.90000000000884 489.90000000000884 509.90000000000884 529.9000000000088 549.9000000000088 569.9000000000087 589.9000000000087 609.9000000000087 629.9000000000087 649.9000000000087 669.9000000000087 689.9000000000087 709.9000000000087 729.9000000000087 749.9000000000087 769.9000000000087 789.9000000000087 809.9000000000087 829.9000000000087 849.9000000000087 869.9000000000087 889.9000000000087 909.9000000000087 929.9000000000087 949.9000000000087 969.9000000000087 989.9000000000087 1009.9000000000087 1029.9000000000087
cb_10,5.0,enc_trial,stim,response,STEM students,1157.5,enc_trial,1.0,5.0,s_s_15_2,student_stem,fold-c,jumper cables,10.0,unique,close,paired,s_s_15_2.jpg,stem,student-b1,STEM students,Fine Arts students,sub-34,1.0,1.0,1.0,1.0,0.513172338090011 0.5172886937431395 0.5222283205268935 0.5279912184412733 0.5370472008781558 0.5584522502744237 0.5675082327113062 0.5782107574094402 0.5847969264544457 0.5856201975850713 0.44484083424807896 0.2843029637760703 0.1287047200878156 -0.004665203073545523 -0.06723380900109767 -0.0886388583973655 -0.08369923161361137 -0.07381997804610314 -0.06888035126234904 -0.059824368825466476 -0.03924259055982434 -0.029363336992316105 -0.018660812294182184 -0.016190998902305128 0.010153677277716823 0.03979143798024152 0.05214050493962681 0.05954994511525799 0.06860592755214054 0.07519209659714601 0.09083424807903404 0.10729967069154778 0.11306256860592755 0.117178924259056 0.12047200878155875 0.1229418221734358,0.8068057080131723 0.7892425905598244 0.7650933040614709 0.7387486278814491 0.712403951701427 0.6608122941822173 0.6399560922063666 0.6180021953896817 0.5982436882546652 0.5697036223929748 0.5159165751920967 0.5137211855104281 0.4840834248079034 0.42480790340285396 0.3710208562019759 0.3260153677277717 0.31064763995609224 0.28979143798024154 0.28100987925356746 0.2645444566410537 0.2480790340285401 0.24149286498353464 0.2360043907793633 0.2338090010976949 0.2195389681668496 0.2074643249176729 0.2041712403951701 0.2019758507135017 0.19758507135016468 0.1931942919868277 0.18111964873765096 0.17124039517014267 0.1679473106476399 0.16575192096597147 0.16355653128430292 0.16136114160263448,383.5 403.5 423.5 443.5 463.5 483.5 503.5 523.5 543.5 563.5 583.5 603.5 623.5 643.5 663.5 683.5 703.5 723.5 743.5 763.5 783.5 803.5 823.5 843.5 863.5 883.5 903.5 923.5 943.5 963.5 983.5 1003.5 1023.5 1043.5 1063.5 1083.5
cb_10,6.0,enc_trial,stim,response,STEM students,1431.5,enc_trial,1.0,6.0,s_s_19_1,student_stem,fold-c,circuit board,10.0,unique,close,paired,s_s_19_1.jpg,stem,student-b1,STEM students,Fine Arts students,sub-34,1.0,1.0,1.0,1.0,0.4917672886937432 0.4917672886937432 0.4925905598243688 0.4967069154774973 0.5115257958287596 0.5255214050493963 0.5304610318331504 0.5403402854006586 0.54198682766191 0.54198682766191 0.5428100987925357 0.54198682766191 0.5428100987925357 0.5428100987925357 0.5428100987925357 0.5428100987925357 0.5428100987925357 0.5428100987925357 0.5428100987925357 0.5428100987925357 0.5428100987925357 0.5436333699231614 0.544456641053787 0.5452799121844127 0.5461031833150384 0.4975301866081229 0.2637211855104281 0.10894621295279916 -0.003018660812294151 -0.07464324917672882 -0.09193194291986824 -0.09275521405049393 -0.09193194291986824 -0.09028540065861687 -0.08946212952799118 -0.08534577387486275 -0.08205268935236001 -0.07546652030735453 -0.06641053787047198 -0.05653128430296374 -0.02854006586169042 -0.018660812294182184 -0.0054884742041712105 0.00027442371020859315 0.00933040614709114 0.038968166849615835 0.052963776070252495 0.06119648737650936 0.06531284302963779 0.06860592755214054 0.07930845225027447 0.08260153677277719 0.08424807903402856 0.08589462129527994 0.09001097694840837 0.09742041712403954 0.10400658616904504 0.10482985729967073,0.8397365532381997 0.8210757409440176 0.7980241492864983 0.7661909989023051 0.686059275521405 0.6037321624588364 0.5477497255762898 0.4709110867178924 0.4237102085620198 0.3819978046103183 0.32821075740944017 0.3040614709110867 0.28540065861690445 0.2678375411635565 0.25246981339187696 0.2261251372118551 0.22392974753018646 0.22392974753018646 0.2228320526893524 0.2228320526893524 0.21844127332601526 0.21624588364434685 0.21185510428100984 0.2085620197585072 0.2074643249176729 0.21624588364434685 0.2843029637760702 0.29088913282107576 0.2425905598243689 0.1931942919868277 0.17892425905598242 0.17563117453347965 0.17233809001097694 0.16904500548847426 0.1679473106476399 0.16465422612513725 0.1624588364434687 0.15806805708013172 0.1514818880351262 0.145993413830955 0.13721185510428102 0.13501646542261247 0.13172338090010982 0.12952799121844127 0.1262349066959385 0.12184412733260153 0.12074643249176732 0.11964873765093308 0.11964873765093308 0.11964873765093308 0.11964873765093308 0.11964873765093308 0.11964873765093308 0.11964873765093308 0.11964873765093308 0.11964873765093308 0.11964873765093308 0.11964873765093308,266.6000000000058 286.6000000000058 306.6000000000058 326.6000000000058 346.6000000000058 366.6000000000058 386.6000000000058 406.6000000000058 426.6000000000058 446.6000000000058 466.6000000000058 486.6000000000058 506.6000000000058 526.6000000000058 546.6000000000058 566.6000000000057 586.6000000000057 606.6000000000057 626.6000000000057 646.6000000000057 666.6000000000057 686.6000000000057 706.6000000000058 726.6000000000058 746.6000000000058 766.6000000000058 786.6000000000058 806.6000000000058 826.6000000000058 846.6000000000058 866.6000000000058 886.6000000000058 906.6000000000058 926.6000000000058 946.6000000000058 966.6000000000058 986.6000000000058 1006.6000000000058 1026.6000000000058 1046.6000000000058 1066.6000000000058 1086.6000000000058 1106.6000000000058 1126.6000000000058 1146.6000000000058 1166.6000000000058 1186.6000000000058 1206.6000000000058 1226.6000000000058 1246.6000000000058 1266.6000000000058 1286.6000000000058 1306.6000000000058 1326.6000000000058 1346.6000000000058 1366.6000000000058 1386.6000000000058 1406.6000000000058
cb_10,7.0,enc_trial,stim,response,STEM students,1292.8999996185305,enc_trial,1.0,7.0,s_sh_11_2,student_shared,fold-b,pencil case,10.0,competing,close,paired,s_sh_11_2.jpg,,student-b1,STEM students,Fine Arts students,sub-34,1.0,1.0,1.0,1.0,0.5065861690450055 0.5098792535675082 0.5115257958287596 0.513172338090011 0.5156421514818881 0.5164654226125137 0.5164654226125137 0.5164654226125137 0.513172338090011 0.5115257958287596 0.5049396267837541 0.5016465422612514 0.4892974753018661 0.4489571899012075 0.4407244785949506 0.4086169045005488 0.4102634467618002 0.4291986827661911 0.4851811196487377 0.5600987925356751 0.6358397365532382 0.7222832052689352 0.7288693743139407 0.7296926454445664 0.7239297475301866 0.7017014270032931 0.686059275521405 0.6605378704720087 0.5987925356750823 0.5345773874862788 0.4094401756311745 0.3641602634467617 0.3188803512623491 0.27360043907793635 0.23819978046103185 0.18551042810098795 0.16986827661909992 0.1641053787047201 0.15175631174533485 0.13446761800219542 0.12788144895718992 0.12541163556531287 0.1229418221734358 0.11306256860592755 0.1114160263446762 0.11059275521405053 0.11059275521405053 0.11059275521405053 0.11059275521405053 0.11059275521405053 0.1114160263446762,0.7903402854006586 0.7639956092206367 0.7310647639956092 0.6981339187705817 0.6684961580680571 0.5960482985729967 0.5795828759604829 0.544456641053787 0.5049396267837539 0.4478594950603733 0.3567508232711306 0.3380900109769485 0.3260153677277717 0.3073545554335895 0.30076838638858394 0.2392974753018661 0.2074643249176729 0.1888035126234907 0.17014270032930845 0.1624588364434687 0.1624588364434687 0.16904500548847426 0.17124039517014267 0.17563117453347965 0.18111964873765096 0.18441273326015373 0.18441273326015373 0.1833150384193194 0.17453347969264546 0.16355653128430292 0.12843029637760706 0.11196487376509334 0.09330406147091108 0.0735455543358946 0.06037321624588365 0.05598243688254667 0.05488474204171245 0.05488474204171245 0.05488474204171245 0.05817782656421513 0.059275521405049436 0.06147091108671787 0.06915477497255762 0.08562019758507132 0.0889132821075741 0.09001097694840833 0.09879253567508227 0.1053787047200878 0.110867178924259 0.11416026344676178 0.11855104281009875,266.8000000000029 286.80000000000285 306.80000000000285 326.80000000000285 346.8000000000029 366.8000000000029 386.8000000000029 406.8000000000029 426.8000000000029 446.8000000000029 466.8000000000029 486.8000000000029 506.8000000000029 526.8000000000029 546.8000000000029 566.8000000000029 586.8000000000029 606.8000000000029 626.8000000000029 646.8000000000029 666.8000000000029 686.8000000000029 706.8000000000029 726.8000000000029 746.8000000000029 766.8000000000029 786.8000000000029 806.8000000000029 826.8000000000029 846.8000000000029 866.8000000000029 886.8000000000029 906.8000000000028 926.8000000000028 946.8000000000028 966.8000000000028 986.8000000000028 1006.8000000000028 1026.8000000000031 1046.8000000000031 1066.8000000000031 1086.8000000000031 1106.8000000000031 1126.8000000000031 1146.8000000000031 1166.8000000000031 1186.8000000000031 1206.8000000000031 1226.8000000000031 1246.8000000000031 1266.8000000000031
cb_10,8.0,enc_trial,stim,response,Fine Arts students,1333.2000000000114,enc_trial,1.0,8.0,s_a_16_2,student_art,fold-b,piano,10.0,unique,far,paired,s_a_16_2.jpg,art,student-b1,STEM students,Fine Arts students,sub-34,1.0,1.0,1.0,1.0,0.5016465422612514 0.4983534577387486 0.4950603732162459 0.4917672886937432 0.4892974753018661 0.4835345773874863 0.4703622392974753 0.4604829857299671 0.4497804610318332 0.4349615806805708 0.4201427003293085 0.4036772777167947 0.3888583973655324 0.3699231613611416 0.3542810098792536 0.2999451152579583 0.2867727771679473 0.2711306256860593 0.2530186608122942 0.2307903402854007 0.2110318331503842 0.1995060373216246 0.1937431394072448 0.1929198682766191 0.1945664105378705 0.2060922063666301 0.2414928649835346 0.26125137211855104 0.27360043907793635 0.27442371020856204 0.2892425905598244 0.3345225027442371 0.3905049396267838 0.4464873765093304 0.5082327113062569 0.5584522502744237 0.6309001097694841 0.6490120746432492 0.6605378704720087 0.6687705817782656 0.6877058177826564 0.7008781558726674 0.7156970362239298 0.7321624588364435 0.7461580680570801 0.7700329308452251 0.7881448957189902 0.8046103183315039 0.8218990120746432 0.851536772777168 0.8877607025246982 0.9231613611416029 0.924807903402854 0.924807903402854 0.924807903402854,0.8155872667398463 0.8013172338090011 0.7837541163556532 0.7650933040614709 0.7453347969264544 0.7233809001097695 0.6673984632272228 0.6344676180021953 0.6070252469813392 0.5686059275521405 0.5290889132821075 0.4862788144895719 0.442371020856202 0.37980241492864986 0.3369923161361141 0.2305159165751921 0.2129527991218441 0.19538968166849613 0.18002195389681666 0.15806805708013172 0.13721185510428102 0.12403951701427007 0.11416026344676178 0.10757409440175636 0.09879253567508227 0.09001097694840833 0.08562019758507132 0.08562019758507132 0.08562019758507132 0.08562019758507132 0.08452250274423713 0.06695938529088917 0.05598243688254667 0.05598243688254667 0.06256860592755209 0.07574094401756315 0.1042810098792536 0.11196487376509334 0.11635565312843033 0.11964873765093308 0.12403951701427007 0.12733260153677273 0.12733260153677273 0.12843029637760706 0.12952799121844127 0.12952799121844127 0.12843029637760706 0.1251372118551043 0.12294182217343574 0.11964873765093308 0.11964873765093308 0.12294182217343574 0.1262349066959385 0.12733260153677273 0.12843029637760706,216.60000000000585 236.60000000000585 256.6000000000058 276.6000000000058 296.6000000000058 316.6000000000058 336.6000000000058 356.6000000000058 376.6000000000058 396.6000000000058 416.6000000000058 436.6000000000058 456.6000000000058 476.6000000000058 496.6000000000058 516.6000000000058 536.6000000000058 556.6000000000058 576.6000000000057 596.6000000000057 616.6000000000057 636.6000000000057 656.6000000000057 676.6000000000057 696.6000000000058 716.6000000000058 736.6000000000058 756.6000000000058 776.6000000000058 796.6000000000058 816.6000000000058 836.6000000000058 856.6000000000058 876.6000000000058 896.6000000000058 916.6000000000058 936.6000000000058 956.6000000000058 976.6000000000058 996.6000000000058 1016.6000000000058 1036.6000000000058 1056.6000000000058 1076.6000000000058 1096.6000000000058 1116.6000000000058 1136.6000000000058 1156.6000000000058 1176.6000000000058 1196.6000000000058 1216.6000000000058 1236.6000000000058 1256.6000000000058 1276.6000000000058 1296.6000000000058
cb_10,9.0,enc_trial,stim,response,Fine Arts students,1470.4999998092678,enc_trial,1.0,9.0,s_sh_18_1,student_shared,fold-c-single,wall calendar,10.0,competing,,single,s_sh_18_1.jpg,,student-b1,STEM students,Fine Arts students,sub-34,1.0,,1.0,,0.4925905598243688 0.4884742041712404 0.4810647639956092 0.4794182217343578 0.4769484083424808 0.4736553238199781 0.4728320526893524 0.47118551042810103 0.47118551042810103 0.47118551042810103 0.4777716794731065 0.4777716794731065 0.4769484083424808 0.4744785949506037 0.4637760702524698 0.41849615806805707 0.3954445664105379 0.387211855104281 0.3608671789242591 0.3435784851811197 0.30900109769484085 0.29335894621295283 0.27854006586169044 0.2760702524698134 0.2760702524698134 0.2760702524698134 0.2760702524698134 0.2760702524698134 0.2760702524698134 0.2760702524698134 0.2760702524698134 0.2768935236004391 0.2801866081229418 0.29665203073545554 0.3122941822173436 0.3732162458836444 0.4053238199780461 0.4563666300768386 0.5288144895718989 0.5930296377607025 0.6918221734357849 0.7165203073545554 0.7379253567508233 0.7420417124039517 0.7428649835345774 0.7445115257958288 0.7469813391877058 0.7552140504939626 0.7659165751920965 0.7790889132821076 0.8013172338090011 0.8095499451152579 0.8136663007683864 0.8177826564215148 0.8317782656421515 0.8605927552140505 0.8770581778265643 0.8861141602634468 0.8869374313940726,0.8177826564215148 0.7969264544456641 0.7661909989023051 0.7563117453347971 0.7376509330406147 0.6926454445664105 0.6564215148188803 0.6223929747530186 0.5905598243688255 0.5499451152579583 0.4763995609220637 0.442371020856202 0.3896816684961581 0.37431394072447854 0.3490669593852909 0.2974753018660812 0.27991218441273324 0.27442371020856204 0.256860592755214 0.2447859495060373 0.2250274423710209 0.21734357848518115 0.2074643249176729 0.2052689352360044 0.2052689352360044 0.2052689352360044 0.2052689352360044 0.2052689352360044 0.2052689352360044 0.2052689352360044 0.2052689352360044 0.2052689352360044 0.2041712403951701 0.2041712403951701 0.2041712403951701 0.2019758507135017 0.1986827661909989 0.19209659714599334 0.18551042810098795 0.1778265642151482 0.1679473106476399 0.16465422612513725 0.16465422612513725 0.16465422612513725 0.16575192096597147 0.17014270032930845 0.17233809001097694 0.17563117453347965 0.17892425905598242 0.18111964873765096 0.18441273326015373 0.18441273326015373 0.18441273326015373 0.18441273326015373 0.17892425905598242 0.16465422612513725 0.15587266739846328 0.14928649835345775 0.14928649835345775,250.0 270.0 290.0 310.0 330.0 350.0 370.0 390.0 410.0 430.0 450.0 470.0 490.0 510.0 530.0 550.0 570.0 590.0 610.0 630.0 650.0 670.0 690.0 710.0 730.0 750.0 770.0 790.0 810.0 830.0 850.0 870.0 890.0 910.0 930.0 950.0 970.0 990.0 1010.0 1030.0 1050.0 1070.0 1090.0 1110.0 1130.0 1150.0 1170.0 1190.0 1210.0 1230.0 1250.0 1270.0 1290.0 1310.0 1330.0 1350.0 1370.0 1390.0 1410.0
cb_10,10.0,enc_trial,stim,response,STEM students,942.1999999046384,enc_trial,1.0,10.0,s_s_19_2,student_stem,fold-c,circuit board,10.0,unique,close,paired,s_s_19_2.jpg,stem,student-b1,STEM students,Fine Arts students,sub-34,1.0,1.0,1.0,1.0,0.5008232711306256 0.4983534577387486 0.4958836443468715 0.4892974753018661 0.4860043907793634 0.4777716794731065 0.4728320526893524 0.4662458836443469 0.4629527991218441 0.4613062568605927 0.4514270032930846 0.4481339187705818 0.43331503841931945 0.3723929747530187 0.2941822173435785 0.1706915477497256 0.13776070252469816 0.12623490669593854 0.12211855104281012 0.12211855104281012 0.12211855104281012 0.12211855104281012 0.12211855104281012 0.12211855104281012 0.12211855104281012 0.12788144895718992 0.130351262349067 0.13282107574094404 0.13611416026344678 0.13776070252469816 0.13776070252469816,0.8298572996706916 0.8057080131723381 0.7607025246981339 0.7222832052689352 0.6684961580680571 0.5740944017563118 0.5290889132821075 0.4654226125137212 0.4017563117453348 0.3435784851811197 0.2612513721185511 0.2491767288693744 0.2261251372118551 0.1877058177826564 0.17124039517014267 0.12403951701427007 0.10757409440175636 0.1042810098792536 0.1042810098792536 0.1042810098792536 0.1042810098792536 0.1042810098792536 0.10867178924259058 0.110867178924259 0.11964873765093308 0.14489571899012074 0.16136114160263448 0.17672886937431398 0.19538968166849613 0.19758507135016468 0.1986827661909989,266.70000000001164 286.70000000001164 306.70000000001164 326.70000000001164 346.7000000000116 366.7000000000117 386.7000000000117 406.7000000000117 426.7000000000117 446.7000000000117 466.7000000000117 486.7000000000117 506.7000000000117 526.7000000000116 546.7000000000116 566.7000000000116 586.7000000000116 606.7000000000116 626.7000000000116 646.7000000000116 666.7000000000116 686.7000000000116 706.7000000000116 726.7000000000116 746.7000000000116 766.7000000000116 786.7000000000116 806.7000000000116 826.7000000000116 846.7000000000116 866.7000000000116
cb_10,11.0,enc_trial,stim,response,Fine Arts students,850.1000000000058,enc_trial,1.0,11.0,s_a_12_2,student_art,fold-c,saxophone,10.0,unique,close,paired,s_a_12_2.jpg,art,student-b1,STEM students,Fine Arts students,sub-34,1.0,1.0,1.0,1.0,0.4892974753018661 0.4901207464324918 0.4901207464324918 0.4958836443468715 0.5049396267837541 0.5288144895718989 0.5469264544456641 0.5642151481888035 0.58397365532382 0.5963227222832053 0.6078485181119648 0.6152579582875961 0.6218441273326015 0.6325466520307355 0.6457189901207464 0.686059275521405 0.7156970362239298 0.7576838638858397 0.7930845225027442 0.8136663007683864 0.8326015367727772 0.8334248079034028 0.8358946212952799 0.8416575192096597 0.8474204171240396 0.8581229418221735 0.8614160263446763 0.8647091108671789 0.8663556531284303,0.8024149286498353 0.7782656421514819 0.7639956092206367 0.7167947310647641 0.6673984632272228 0.5400658616904501 0.4566410537870472 0.3732162458836443 0.29527991218441274 0.23819978046103185 0.1997804610318331 0.17014270032930845 0.15257958287596052 0.13172338090010982 0.115257958287596 0.0944017563117453 0.08452250274423713 0.08122941822173435 0.08122941822173435 0.08122941822173435 0.08671789242590555 0.0889132821075741 0.09330406147091108 0.10208562019758503 0.11306256860592755 0.12952799121844127 0.13501646542261247 0.1405049396267838 0.14489571899012074,216.59999999999127 236.59999999999127 256.59999999999127 276.59999999999127 296.59999999999127 316.59999999999127 336.59999999999127 356.5999999999912 376.5999999999912 396.5999999999912 416.5999999999912 436.5999999999912 456.5999999999912 476.5999999999912 496.5999999999912 516.5999999999913 536.5999999999913 556.5999999999913 576.5999999999913 596.5999999999913 616.5999999999913 636.5999999999913 656.5999999999913 676.5999999999913 696.5999999999913 716.5999999999913 736.5999999999913 756.5999999999913 776.5999999999913
cb_10,12.0,enc_trial,stim,response,STEM students,1482.0999997139004,enc_trial,1.0,12.0,s_sh_16_1,student_shared,fold-a,stapler,10.0,competing,far,paired,s_sh_16_1.jpg,,student-b1,STEM students,Fine Arts students,sub-34,1.0,1.0,0.0,0.0,0.486827661909989 0.4884742041712404 0.4901207464324918 0.4925905598243688 0.4967069154774973 0.5082327113062569 0.5172886937431395 0.5230515916575192 0.5271679473106476 0.5304610318331504 0.5469264544456641 0.5493962678375411 0.5502195389681669 0.5502195389681669 0.5502195389681669 0.5502195389681669 0.5502195389681669 0.5502195389681669 0.5502195389681669 0.5502195389681669 0.5502195389681669 0.5502195389681669 0.5502195389681669 0.5502195389681669 0.5502195389681669 0.5485729967069155 0.5354006586169044 0.5222283205268935 0.502469813391877 0.4827113062568606 0.4604829857299671 0.3995609220636663 0.37156970362239294 0.3551042810098793 0.3040614709110867 0.19209659714599345 0.174807903402854 0.16822173435784854 0.16657519209659716 0.16657519209659716 0.16657519209659716 0.16657519209659716 0.16657519209659716 0.16657519209659716 0.1657519209659715 0.1641053787047201 0.16163556531284304 0.16081229418221735 0.16081229418221735 0.159165751920966 0.1575192096597146 0.14928649835345775 0.1476399560922064 0.14599341383095502 0.14599341383095502,0.8002195389681669 0.7563117453347971 0.7376509330406147 0.6970362239297475 0.6520307354555434 0.5653128430296377 0.4533479692645445 0.398463227222832 0.3402854006586169 0.287596048298573 0.18002195389681666 0.14379802414928655 0.11635565312843033 0.11196487376509334 0.1097694840834248 0.1097694840834248 0.1097694840834248 0.1097694840834248 0.1097694840834248 0.1097694840834248 0.1097694840834248 0.1097694840834248 0.1097694840834248 0.1097694840834248 0.11416026344676178 0.11855104281009875 0.1405049396267838 0.15257958287596052 0.1624588364434687 0.16684961580680568 0.16904500548847426 0.17124039517014267 0.17233809001097694 0.1734357848518112 0.18111964873765096 0.18111964873765096 0.17892425905598242 0.1778265642151482 0.1778265642151482 0.1778265642151482 0.1778265642151482 0.1778265642151482 0.1778265642151482 0.1778265642151482 0.1778265642151482 0.17672886937431398 0.17453347969264546 0.1734357848518112 0.1734357848518112 0.1734357848518112 0.17124039517014267 0.16136114160263448 0.15916575192096594 0.1569703622392975 0.15587266739846328,299.8000000000028 319.8000000000028 339.8000000000028 359.8000000000028 379.8000000000028 399.8000000000028 419.8000000000028 439.8000000000028 459.8000000000028 479.8000000000028 499.8000000000028 519.8000000000028 539.8000000000028 559.8000000000028 579.8000000000028 599.8000000000028 619.8000000000028 639.8000000000028 659.8000000000028 679.8000000000028 699.8000000000028 719.8000000000028 739.8000000000028 759.8000000000028 779.8000000000028 799.8000000000028 819.8000000000028 839.8000000000028 859.8000000000028 879.8000000000028 899.8000000000028 919.8000000000028 939.8000000000028 959.8000000000028 979.8000000000028 999.8000000000028 1019.8000000000028 1039.8000000000031 1059.8000000000031 1079.8000000000031 1099.8000000000031 1119.8000000000031 1139.8000000000031 1159.8000000000031 1179.8000000000031 1199.8000000000031 1219.8000000000031 1239.8000000000031 1259.8000000000031 1279.8000000000031 1299.8000000000031 1319.8000000000031 1339.8000000000031 1359.8000000000031 1379.8000000000031
cb_10,13.0,enc_trial,stim,response,Fine Arts students,1565.0999997139004,enc_trial,1.0,13.0,s_sh_23_1,student_shared,fold-a,ballpoint pen,10.0,competing,far,paired,s_sh_23_1.jpg,,student-b1,STEM students,Fine Arts students,sub-34,1.0,1.0,0.0,0.0,0.513172338090011 0.513172338090011 0.513172338090011 0.513172338090011 0.513172338090011 0.5139956092206367 0.5139956092206367 0.5172886937431395 0.5172886937431395 0.5181119648737651 0.5181119648737651 0.5181119648737651 0.513172338090011 0.5090559824368825 0.5032930845225028 0.4991767288693743 0.4991767288693743 0.5016465422612514 0.5065861690450055 0.5082327113062569 0.5098792535675082 0.5098792535675082 0.5139956092206367 0.5164654226125137 0.5279912184412733 0.5650384193194292 0.5765642151481888 0.5765642151481888 0.5765642151481888 0.5765642151481888 0.5675082327113062 0.5436333699231614 0.5139956092206367 0.4621295279912184 0.4061470911086718 0.387211855104281 0.2892425905598244 0.23161361141602635 0.16904500548847426 0.12541163556531287 0.07519209659714601 0.06942919868276623 0.06531284302963779 0.06284302963776073 0.06119648737650936 0.06119648737650936 0.06119648737650936 0.06284302963776073 0.0760153677277717 0.09577387486278817 0.18139407244785952 0.21350164654226128 0.2554884742041713 0.3139407244785949 0.3608671789242591 0.5633918770581778 0.6341931942919868 0.6745334796926454 0.7140504939626784 0.7346322722283205 0.754390779363337 0.7626234906695938 0.7774423710208562 0.7955543358946213 0.8128430296377607 0.8367178924259056 0.8367178924259056 0.8367178924259056 0.8383644346871569 0.8416575192096597 0.851536772777168 0.851536772777168,0.8221734357848518 0.8090010976948409 0.8013172338090011 0.7914379802414928 0.7881448957189902 0.7716794731064764 0.7563117453347971 0.7354555433589463 0.712403951701427 0.6849615806805708 0.6223929747530186 0.6103183315038418 0.5861690450054885 0.5642151481888036 0.5257958287596048 0.4709110867178924 0.4401756311745335 0.4182217343578485 0.4017563117453348 0.398463227222832 0.39517014270032935 0.39517014270032935 0.3918770581778266 0.3874862788144896 0.3787047200878157 0.3556531284302964 0.3501646542261251 0.3501646542261251 0.3501646542261251 0.3501646542261251 0.35345773874862785 0.3556531284302964 0.3556531284302964 0.3457738748627881 0.32272228320526897 0.3128430296377607 0.2151481888035126 0.1624588364434687 0.110867178924259 0.07793633369923159 0.04500548847420417 0.04500548847420417 0.04720087815587271 0.05159165751920969 0.05598243688254667 0.06147091108671787 0.06256860592755209 0.06476399560922064 0.07025246981339184 0.07574094401756315 0.10208562019758503 0.10867178924259058 0.11416026344676178 0.11416026344676178 0.11416026344676178 0.1042810098792536 0.1042810098792536 0.1042810098792536 0.10318331503841928 0.10318331503841928 0.10318331503841928 0.10318331503841928 0.10318331503841928 0.10318331503841928 0.10318331503841928 0.1053787047200878 0.1053787047200878 0.1053787047200878 0.1053787047200878 0.10867178924259058 0.11416026344676178 0.11635565312843033,83.40000000000873 103.40000000000872 123.40000000000872 143.4000000000087 163.4000000000087 183.40000000000873 203.40000000000873 223.40000000000873 243.40000000000873 263.40000000000873 283.40000000000873 303.40000000000873 323.40000000000873 343.40000000000873 363.4000000000088 383.4000000000088 403.4000000000088 423.4000000000088 443.4000000000088 463.4000000000088 483.4000000000088 503.4000000000088 523.4000000000087 543.4000000000087 563.4000000000087 583.4000000000087 603.4000000000087 623.4000000000087 643.4000000000087 663.4000000000087 683.4000000000087 703.4000000000087 723.4000000000087 743.4000000000087 763.4000000000087 783.4000000000087 803.4000000000087 823.4000000000087 843.4000000000087 863.4000000000087 883.4000000000087 903.4000000000087 923.4000000000087 943.4000000000087 963.4000000000087 983.4000000000087 1003.4000000000087 1023.4000000000087 1043.4000000000087 1063.4000000000087 1083.4000000000087 1103.4000000000087 1123.4000000000087 1143.4000000000087 1163.4000000000087 1183.4000000000087 1203.4000000000087 1223.4000000000087 1243.4000000000087 1263.4000000000087 1283.4000000000087 1303.4000000000087 1323.4000000000087 1343.4000000000087 1363.4000000000087 1383.400000000009 1403.400000000009 1423.400000000009 1443.400000000009 1463.400000000009 1483.400000000009 1503.400000000009
cb_10,14.0,enc_trial,stim,response,STEM students,1330.9999997138948,enc_trial,1.0,14.0,s_sh_24_1,student_shared,fold-b,desk organizer,10.0,competing,close,paired,s_sh_24_1.jpg,,student-b1,STEM students,Fine Arts students,sub-34,1.0,1.0,0.0,0.0,0.4892974753018661 0.4901207464324918 0.4909440175631175 0.4917672886937432 0.4958836443468715 0.4991767288693743 0.5107025246981339 0.5189352360043907 0.5263446761800219 0.5370472008781558 0.5502195389681669 0.5584522502744237 0.5642151481888035 0.5650384193194292 0.5650384193194292 0.5642151481888035 0.5625686059275521 0.5625686059275521 0.5625686059275521 0.5625686059275521 0.5469264544456641 0.513172338090011 0.4695389681668496 0.4209659714599341 0.3658068057080132 0.3172338090010977 0.2554884742041713 0.22255762897914386 0.19127332601536776 0.17892425905598244 0.1756311745334797 0.1756311745334797 0.1756311745334797 0.17398463227222835 0.17151481888035128 0.16822173435784854 0.16739846322722285 0.16739846322722285 0.16739846322722285 0.16739846322722285 0.16739846322722285 0.16739846322722285 0.16739846322722285 0.16245883644346873 0.15422612513721187 0.13446761800219542 0.13282107574094404 0.13199780461031835,0.8232711306256859 0.7914379802414928 0.7639956092206367 0.7244785949506037 0.6739846322722283 0.6158068057080132 0.4961580680570802 0.43798024149286496 0.39407244785949497 0.3512623490669594 0.29088913282107576 0.26344676180021953 0.2360043907793633 0.22392974753018646 0.2129527991218441 0.19209659714599334 0.18660812294182216 0.18660812294182216 0.18551042810098795 0.18551042810098795 0.19209659714599334 0.20087815587266744 0.2019758507135017 0.19648737650933049 0.1778265642151482 0.16355653128430292 0.15038419319429194 0.1470911086717892 0.13501646542261247 0.1251372118551043 0.12294182217343574 0.12294182217343574 0.12294182217343574 0.12184412733260153 0.12184412733260153 0.12074643249176732 0.11964873765093308 0.11964873765093308 0.11964873765093308 0.11964873765093308 0.11964873765093308 0.11964873765093308 0.11964873765093308 0.12074643249176732 0.1251372118551043 0.13282107574094404 0.13391877058177826 0.13391877058177826,283.3000000000028 303.3000000000028 323.3000000000028 343.3000000000028 363.3000000000028 383.3000000000028 403.3000000000028 423.3000000000028 443.3000000000028 463.3000000000028 483.3000000000028 503.3000000000028 523.3000000000028 543.3000000000028 563.3000000000028 583.3000000000028 603.3000000000028 623.3000000000028 643.3000000000028 663.3000000000028 683.3000000000028 703.3000000000028 723.3000000000028 743.3000000000028 763.3000000000028 783.3000000000028 803.3000000000028 823.3000000000028 843.3000000000028 863.3000000000028 883.3000000000028 903.3000000000028 923.3000000000028 943.3000000000028 963.3000000000028 983.3000000000028 1003.3000000000028 1023.3000000000028 1043.3000000000031 1063.3000000000031 1083.3000000000031 1103.3000000000031 1123.3000000000031 1143.3000000000031 1163.3000000000031 1183.3000000000031 1203.3000000000031 1223.3000000000031
cb_10,15.0,enc_trial,stim,response,STEM students,1040.499999618536,enc_trial,1.0,15.0,s_s_02_1,student_stem,fold-b,flask,10.0,unique,far,paired,s_s_02_1.jpg,stem,student-b1,STEM students,Fine Arts students,sub-34,1.0,1.0,1.0,1.0,0.5115257958287596 0.5189352360043907 0.5288144895718989 0.5378704720087816 0.5469264544456641 0.5559824368825467 0.5609220636663008 0.5625686059275521 0.5625686059275521 0.5625686059275521 0.5592755214050494 0.5609220636663008 0.5609220636663008 0.5798572996706916 0.5930296377607025 0.6037321624588364 0.6037321624588364 0.5806805708013172 0.4753018660812294 0.3435784851811197 0.16245883644346873 0.1476399560922064 0.13446761800219542 0.13199780461031835,0.8046103183315039 0.7661909989023051 0.7310647639956092 0.6937431394072449 0.6652030735455543 0.6004390779363338 0.5587266739846323 0.5181119648737651 0.464324917672887 0.4357848518111965 0.3874862788144896 0.2930845225027442 0.21844127332601526 0.1624588364434687 0.141602634467618 0.12952799121844127 0.12952799121844127 0.13940724478594946 0.18990120746432493 0.2283205268935236 0.2019758507135017 0.1931942919868277 0.18441273326015373 0.18111964873765096,316.8000000000028 336.8000000000028 356.8000000000028 376.8000000000028 396.8000000000028 416.8000000000028 436.8000000000028 456.8000000000028 476.8000000000028 496.8000000000028 516.8000000000028 536.8000000000028 556.8000000000028 576.8000000000028 596.8000000000028 616.8000000000028 636.8000000000028 656.8000000000028 676.8000000000028 696.8000000000028 716.8000000000028 736.8000000000028 756.8000000000028 776.8000000000028
cb_10,16.0,enc_trial,stim,response,Fine Arts students,1228.899999904621,enc_trial,1.0,16.0,s_a_14_1,student_art,fold-c,guitar pick,10.0,unique,close,paired,s_a_14_1.jpg,art,student-b1,STEM students,Fine Arts students,sub-34,1.0,1.0,1.0,1.0,0.5148188803512623 0.5123490669593853 0.5123490669593853 0.5115257958287596 0.5115257958287596 0.513172338090011 0.5148188803512623 0.5156421514818881 0.5156421514818881 0.5172886937431395 0.5222283205268935 0.5288144895718989 0.5329308452250274 0.5362239297475302 0.5370472008781558 0.5370472008781558 0.5370472008781558 0.5271679473106476 0.486827661909989 0.4242590559824369 0.3122941822173436 0.3073545554335895 0.3073545554335895 0.3073545554335895 0.3073545554335895 0.3073545554335895 0.3122941822173436 0.3369923161361142 0.4226125137211855 0.4958836443468715 0.6259604829857299 0.6737102085620198 0.7107574094401756 0.7313391877058177 0.7445115257958288 0.7576838638858397 0.7683863885839737 0.7815587266739846 0.7906147091108672 0.8004939626783754 0.8037870472008781 0.8037870472008781 0.8095499451152579 0.8194291986827662 0.8317782656421515 0.8531833150384194 0.8572996706915478 0.8581229418221735,0.8057080131723381 0.7793633369923161 0.7508232711306257 0.7200878155872668 0.6849615806805708 0.6026344676180022 0.5422612513721186 0.4665203073545554 0.3863885839736553 0.2458836443468716 0.18002195389681666 0.16465422612513725 0.1569703622392975 0.15477497255762895 0.15367727771679476 0.15367727771679476 0.15367727771679476 0.16355653128430292 0.18660812294182216 0.2107574094401756 0.2228320526893524 0.2228320526893524 0.2228320526893524 0.2228320526893524 0.2228320526893524 0.2228320526893524 0.2228320526893524 0.2228320526893524 0.22392974753018646 0.22392974753018646 0.2261251372118551 0.22392974753018646 0.22392974753018646 0.22392974753018646 0.22392974753018646 0.22173435784851814 0.21624588364434685 0.20636663007683864 0.20087815587266744 0.19209659714599334 0.18660812294182216 0.18551042810098795 0.17892425905598242 0.16684961580680568 0.15587266739846328 0.13830954994511524 0.13391877058177826 0.13391877058177826,217.0 237.0 257.0 277.0 297.0 317.0 337.0 357.0 377.0 397.0 417.0 437.0 457.0 477.0 497.0 517.0 537.0 557.0 577.0 597.0 617.0 637.0 657.0 677.0 697.0 717.0 737.0 757.0 777.0 797.0 817.0 837.0 857.0 877.0 897.0 917.0 937.0 957.0 977.0 997.0 1017.0 1037.0 1057.0 1077.0 1097.0 1117.0 1137.0 1157.0
cb_10,17.0,enc_trial,stim,response,Fine Arts students,952.5,enc_trial,1.0,17.0,s_sh_08_1,student_shared,fold-c-single,post-its,10.0,competing,,single,s_sh_08_1.jpg,,student-b1,STEM students,Fine Arts students,sub-34,1.0,,1.0,,0.4991767288693743 0.5008232711306256 0.5016465422612514 0.502469813391877 0.5032930845225028 0.5041163556531284 0.5065861690450055 0.5082327113062569 0.5098792535675082 0.5115257958287596 0.5156421514818881 0.5181119648737651 0.5197585071350165 0.5197585071350165 0.5197585071350165 0.5189352360043907 0.5139956092206367 0.5139956092206367 0.5139956092206367 0.5148188803512623 0.5189352360043907 0.539517014270033 0.5666849615806806 0.6070252469813392 0.6514818880351262 0.7395718990120747 0.7642700329308452 0.7782656421514819 0.7832052689352359 0.7848518111964874 0.7980241492864983 0.8079034028540065 0.8218990120746432 0.8342480790340285 0.8465971459934141 0.8844676180021954 0.8861141602634468 0.8885839736553239,0.8342480790340285 0.8276619099890229 0.8210757409440176 0.8155872667398463 0.8079034028540066 0.8035126234906695 0.7947310647639956 0.7837541163556532 0.7672886937431393 0.7486278814489572 0.7014270032930845 0.6739846322722283 0.6443468715697036 0.6223929747530186 0.5982436882546652 0.5697036223929748 0.4950603732162458 0.4818880351262349 0.4335894621295279 0.4094401756311745 0.3863885839736553 0.3435784851811197 0.3150384193194292 0.2886937431394072 0.2656421514818881 0.2294182217343579 0.21734357848518115 0.2096597145993414 0.2074643249176729 0.20636663007683864 0.1942919868276619 0.1833150384193194 0.17124039517014267 0.16026344676180027 0.14928649835345775 0.11964873765093308 0.11745334796926454 0.11745334796926454,99.79999999998836 119.79999999998836 139.79999999998836 159.7999999999884 179.79999999998836 199.79999999998842 219.79999999998842 239.79999999998842 259.7999999999884 279.7999999999884 299.79999999998836 319.79999999998836 339.79999999998836 359.7999999999884 379.7999999999884 399.7999999999884 419.7999999999884 439.7999999999884 459.7999999999884 479.7999999999884 499.7999999999884 519.7999999999884 539.7999999999884 559.7999999999884 579.7999999999884 599.7999999999884 619.7999999999884 639.7999999999884 659.7999999999884 679.7999999999884 699.7999999999884 719.7999999999884 739.7999999999884 759.7999999999884 779.7999999999884 799.7999999999884 819.7999999999884 839.7999999999884
cb_10,18.0,enc_trial,stim,response,Fine Arts students,965.1999999046384,enc_trial,1.0,18.0,s_a_17_1,student_art,fold-b,microphone,10.0,unique,far,paired,s_a_17_1.jpg,art,student-b1,STEM students,Fine Arts students,sub-34,1.0,1.0,1.0,1.0,0.4917672886937432 0.4917672886937432 0.4917672886937432 0.4925905598243688 0.4934138309549945 0.4950603732162459 0.4958836443468715 0.4958836443468715 0.4950603732162459 0.4925905598243688 0.4835345773874863 0.4761251372118551 0.4670691547749726 0.4637760702524698 0.4538968166849616 0.4431942919868277 0.4176728869374314 0.3937980241492865 0.3896816684961581 0.40203073545554335 0.4720087815587266 0.5930296377607025 0.6712403951701427 0.7239297475301866 0.7741492864983535 0.8186059275521405 0.8350713501646542 0.8449506037321626 0.8507135016465424 0.8564763995609221 0.8795279912184414 0.8869374313940726 0.891053787047201 0.8951701427003294,0.7980241492864983 0.7925356750823271 0.7793633369923161 0.7486278814489572 0.7233809001097695 0.6695938529088914 0.6399560922063666 0.6092206366630077 0.5828759604829857 0.5565312843029637 0.5060373216245884 0.4698133918770582 0.4456641053787047 0.4357848518111965 0.4149286498353457 0.39407244785949497 0.3435784851811197 0.287596048298573 0.256860592755214 0.2195389681668496 0.19758507135016468 0.20087815587266744 0.2107574094401756 0.2195389681668496 0.2228320526893524 0.2228320526893524 0.2195389681668496 0.2140504939626784 0.2085620197585072 0.2019758507135017 0.1778265642151482 0.17124039517014267 0.1679473106476399 0.16355653128430292,183.3999999999941 203.3999999999941 223.3999999999941 243.3999999999941 263.39999999999407 283.3999999999941 303.3999999999941 323.3999999999941 343.3999999999941 363.3999999999941 383.3999999999941 403.3999999999941 423.3999999999941 443.3999999999941 463.3999999999941 483.3999999999941 503.3999999999941 523.3999999999942 543.3999999999942 563.3999999999943 583.3999999999943 603.3999999999943 623.3999999999943 643.3999999999943 663.3999999999943 683.3999999999943 703.3999999999942 723.3999999999942 743.3999999999942 763.3999999999942 783.3999999999942 803.3999999999942 823.3999999999942 843.3999999999942
cb_10,19.0,enc_trial,stim,response,Fine Arts students,1339.8999997139035,enc_trial,1.0,19.0,s_a_14_2,student_art,fold-c,guitar pick,10.0,unique,close,paired,s_a_14_2.jpg,art,student-b1,STEM students,Fine Arts students,sub-34,1.0,1.0,1.0,1.0,0.4950603732162459 0.4934138309549945 0.4934138309549945 0.4934138309549945 0.4950603732162459 0.5032930845225028 0.5082327113062569 0.5123490669593853 0.5164654226125137 0.5189352360043907 0.5222283205268935 0.5230515916575192 0.5230515916575192 0.5222283205268935 0.5205817782656421 0.5181119648737651 0.5172886937431395 0.5156421514818881 0.5123490669593853 0.5115257958287596 0.5 0.4917672886937432 0.4810647639956092 0.4794182217343578 0.4794182217343578 0.4851811196487377 0.5098792535675082 0.5675082327113062 0.6498353457738748 0.7214599341383096 0.8383644346871569 0.8540065861690451 0.8614160263446763 0.8680021953896817 0.8729418221734359 0.8852908891328212 0.8984632272228321 0.9091657519209659 0.9223380900109772 0.924807903402854 0.9264544456641054 0.9264544456641054 0.9264544456641054 0.9264544456641054 0.9264544456641054 0.9264544456641054 0.9264544456641054 0.9264544456641054 0.9264544456641054 0.9264544456641054 0.9264544456641054 0.9264544456641054 0.9182217343578486 0.9066959385290893 0.8976399560922065 0.8819978046103184 0.8787047200878156 0.8770581778265643,0.8353457738748628 0.8276619099890229 0.8057080131723381 0.7892425905598244 0.7727771679473107 0.721185510428101 0.694840834248079 0.6663007683863886 0.6355653128430296 0.6048298572996706 0.5532381997804611 0.5225027442371021 0.5082327113062568 0.4906695938529089 0.4818880351262349 0.4676180021953898 0.45993413830955 0.45554335894621295 0.4478594950603733 0.442371020856202 0.4193194291986828 0.4050493962678376 0.3863885839736553 0.3809001097694841 0.3765093304061471 0.3644346871569704 0.35236004390779363 0.33369923161361137 0.3150384193194292 0.3040614709110867 0.2722283205268935 0.2623490669593853 0.2546652030735456 0.24368825466520305 0.2338090010976949 0.2041712403951701 0.17892425905598242 0.15367727771679476 0.13282107574094404 0.12733260153677273 0.1251372118551043 0.1251372118551043 0.1251372118551043 0.1251372118551043 0.1251372118551043 0.1251372118551043 0.1251372118551043 0.1251372118551043 0.1251372118551043 0.1251372118551043 0.1251372118551043 0.1251372118551043 0.12843029637760706 0.12952799121844127 0.1306256860592755 0.13172338090010982 0.13172338090010982 0.13172338090010982,133.39999999999418 153.39999999999418 173.3999999999942 193.39999999999415 213.39999999999415 233.39999999999415 253.39999999999415 273.3999999999942 293.3999999999942 313.3999999999942 333.3999999999942 353.3999999999942 373.3999999999942 393.3999999999942 413.3999999999942 433.3999999999942 453.3999999999942 473.3999999999942 493.3999999999942 513.3999999999942 533.3999999999942 553.3999999999942 573.3999999999943 593.3999999999943 613.3999999999943 633.3999999999943 653.3999999999943 673.3999999999943 693.3999999999942 713.3999999999942 733.3999999999942 753.3999999999942 773.3999999999942 793.3999999999942 813.3999999999942 833.3999999999942 853.3999999999942 873.3999999999942 893.3999999999942 913.3999999999942 933.3999999999942 953.3999999999942 973.3999999999942 993.3999999999942 1013.3999999999942 1033.3999999999942 1053.3999999999942 1073.3999999999942 1093.3999999999942 1113.3999999999942 1133.3999999999942 1153.3999999999942 1173.3999999999942 1193.3999999999942 1213.3999999999942 1233.3999999999942 1253.3999999999942 1273.3999999999942
cb_10,20.0,enc_trial,stim,response,Fine Arts students,1321.1000000000058,enc_trial,1.0,20.0,s_sh_24_2,student_shared,fold-b,desk organizer,10.0,competing,close,paired,s_sh_24_2.jpg,,student-b1,STEM students,Fine Arts students,sub-34,1.0,1.0,0.0,0.0,0.4901207464324918 0.4901207464324918 0.4901207464324918 0.4901207464324918 0.4917672886937432 0.5090559824368825 0.513172338090011 0.5230515916575192 0.5386937431394072 0.5502195389681669 0.5773874862788145 0.5905598243688255 0.6004390779363337 0.6078485181119648 0.6136114160263446 0.6193743139407245 0.6300768386388584 0.6366630076838639 0.639132821075741 0.6465422612513722 0.6671240395170143 0.6745334796926454 0.6761800219538968 0.6778265642151482 0.6778265642151482 0.6802963776070252 0.681119648737651 0.683589462129528 0.6852360043907794 0.686059275521405 0.6893523600439078 0.6909989023051591 0.6926454445664105 0.6942919868276619 0.6967618002195389 0.7091108671789242 0.7165203073545554 0.7296926454445664 0.7436882546652029 0.7527442371020856 0.7930845225027442 0.8079034028540065 0.8218990120746432 0.8334248079034028 0.8416575192096597 0.8474204171240396 0.8474204171240396 0.8490669593852909 0.8490669593852909 0.8498902305159166 0.8507135016465424,0.8188803512623491 0.7980241492864983 0.7771679473106476 0.7519209659714599 0.7200878155872668 0.6267837541163557 0.6037321624588364 0.5477497255762898 0.4368825466520308 0.3830954994511526 0.29527991218441274 0.2711306256860593 0.2502744237102086 0.2349066959385291 0.2228320526893524 0.21185510428100984 0.19538968166849613 0.18660812294182216 0.18441273326015373 0.17563117453347965 0.15916575192096594 0.15477497255762895 0.15477497255762895 0.15367727771679476 0.15367727771679476 0.15367727771679476 0.15367727771679476 0.15367727771679476 0.15367727771679476 0.15367727771679476 0.15367727771679476 0.15367727771679476 0.15367727771679476 0.15367727771679476 0.15367727771679476 0.1514818880351262 0.15038419319429194 0.15038419319429194 0.15038419319429194 0.15038419319429194 0.15038419319429194 0.1514818880351262 0.1514818880351262 0.1514818880351262 0.15367727771679476 0.15806805708013172 0.16026344676180027 0.16136114160263448 0.1624588364434687 0.16355653128430292 0.16465422612513725,183.10000000000585 203.10000000000585 223.10000000000585 243.10000000000585 263.1000000000058 283.1000000000058 303.1000000000058 323.1000000000058 343.1000000000058 363.1000000000058 383.1000000000058 403.1000000000058 423.1000000000058 443.1000000000058 463.1000000000058 483.1000000000058 503.1000000000058 523.1000000000058 543.1000000000058 563.1000000000057 583.1000000000057 603.1000000000057 623.1000000000057 643.1000000000057 663.1000000000057 683.1000000000057 703.1000000000058 723.1000000000058 743.1000000000058 763.1000000000058 783.1000000000058 803.1000000000058 823.1000000000058 843.1000000000058 863.1000000000058 883.1000000000058 903.1000000000058 923.1000000000058 943.1000000000058 963.1000000000058 983.1000000000058 1003.1000000000058 1023.1000000000058 1043.1000000000058 1063.1000000000058 1083.1000000000058 1103.1000000000058 1123.1000000000058 1143.1000000000058 1163.1000000000058 1183.1000000000058
cb_10,21.0,enc_trial,stim,response,Fine Arts students,1222.3999997139035,enc_trial,1.0,21.0,s_sh_19_1,student_shared,fold-a,portable plastic drawer,10.0,competing,far,paired,s_sh_19_1.jpg,,student-b1,STEM students,Fine Arts students,sub-34,1.0,1.0,0.0,0.0,0.4901207464324918 0.4917672886937432 0.4958836443468715 0.502469813391877 0.5139956092206367 0.5304610318331504 0.5354006586169044 0.5403402854006586 0.54198682766191 0.5436333699231614 0.5485729967069155 0.5518660812294183 0.5543358946212953 0.5568057080131723 0.5568057080131723 0.5568057080131723 0.5568057080131723 0.5568057080131723 0.5568057080131723 0.5568057080131723 0.5568057080131723 0.5568057080131723 0.5576289791437979 0.5584522502744237 0.5617453347969265 0.58397365532382 0.6053787047200878 0.6588913282107574 0.7206366630076838 0.7593304061470911 0.8556531284302964 0.8663556531284303 0.8696487376509331 0.8762349066959386 0.8770581778265643 0.8770581778265643 0.8770581778265643 0.8770581778265643 0.8770581778265643 0.8770581778265643 0.8770581778265643 0.8770581778265643 0.8754116355653129 0.8737650933040615 0.8729418221734359 0.8721185510428102 0.8721185510428102,0.8309549945115258 0.8100987925356751 0.7892425905598244 0.7618002195389681 0.7113062568605928 0.6421514818880352 0.6092206366630077 0.5762897914379803 0.5477497255762898 0.5246981339187706 0.4796926454445664 0.4544456641053787 0.4149286498353457 0.3841931942919869 0.37431394072447854 0.34796926454445665 0.3446761800219539 0.3391877058177827 0.3369923161361141 0.3358946212952799 0.33260153677277715 0.3304061470911087 0.32821075740944017 0.3260153677277717 0.32162458836443464 0.31064763995609224 0.3029637760702525 0.28540065861690445 0.2678375411635565 0.2513721185510428 0.2096597145993414 0.2019758507135017 0.1986827661909989 0.1931942919868277 0.19209659714599334 0.19209659714599334 0.19209659714599334 0.19209659714599334 0.19209659714599334 0.19209659714599334 0.19209659714599334 0.1888035126234907 0.1833150384193194 0.17892425905598242 0.17672886937431398 0.16355653128430292 0.1624588364434687,250.20000000001164 270.20000000001164 290.20000000001164 310.20000000001164 330.20000000001164 350.2000000000116 370.2000000000117 390.2000000000117 410.2000000000117 430.2000000000117 450.2000000000117 470.2000000000117 490.2000000000117 510.2000000000117 530.2000000000116 550.2000000000116 570.2000000000116 590.2000000000116 610.2000000000116 630.2000000000116 650.2000000000116 670.2000000000116 690.2000000000116 710.2000000000116 730.2000000000116 750.2000000000116 770.2000000000116 790.2000000000116 810.2000000000116 830.2000000000116 850.2000000000116 870.2000000000116 890.2000000000116 910.2000000000116 930.2000000000116 950.2000000000116 970.2000000000116 990.2000000000116 1010.2000000000116 1030.2000000000116 1050.2000000000116 1070.2000000000116 1090.2000000000116 1110.2000000000116 1130.2000000000114 1150.2000000000114 1170.2000000000114
cb_10,22.0,enc_trial,stim,response,Fine Arts students,1065.6999998092654,enc_trial,1.0,22.0,s_sh_07_1,student_shared,fold-a,ruler,10.0,competing,far,paired,s_sh_07_1.jpg,,student-b1,STEM students,Fine Arts students,sub-34,1.0,1.0,1.0,1.0,0.5 0.5 0.4983534577387486 0.4983534577387486 0.4983534577387486 0.4991767288693743 0.5008232711306256 0.5016465422612514 0.5032930845225028 0.5057628979143798 0.5139956092206367 0.5238748627881449 0.5378704720087816 0.5526893523600439 0.5633918770581778 0.5831503841931943 0.5930296377607025 0.6020856201975849 0.612788144895719 0.6276070252469813 0.6547749725576291 0.683589462129528 0.7239297475301866 0.7683863885839737 0.8046103183315039 0.8622392974753019 0.880351262349067 0.8959934138309551 0.9017563117453348 0.9034028540065864 0.9034028540065864 0.9034028540065864 0.9034028540065864 0.9034028540065864 0.9034028540065864 0.9034028540065864 0.9025795828759604 0.8918770581778266 0.8754116355653129 0.8548298572996708 0.8449506037321626 0.8416575192096597 0.8416575192096597 0.8416575192096597 0.8416575192096597 0.8416575192096597 0.8416575192096597 0.8424807903402853,0.8441273326015368 0.8364434687156971 0.8298572996706916 0.8210757409440176 0.8122941822173436 0.7903402854006586 0.7639956092206367 0.7420417124039518 0.7321624588364435 0.7058177826564216 0.6245883644346872 0.5806805708013172 0.5367727771679474 0.4895718990120746 0.4577387486278814 0.39517014270032935 0.3666300768386389 0.3435784851811197 0.32272228320526897 0.29198682766191 0.25795828759604833 0.2338090010976949 0.2096597145993414 0.18441273326015373 0.1624588364434687 0.12843029637760706 0.11416026344676178 0.0998902305159166 0.09330406147091108 0.09220636663007686 0.09110867178924263 0.09110867178924263 0.09110867178924263 0.09110867178924263 0.09110867178924263 0.09110867178924263 0.09220636663007686 0.1042810098792536 0.11745334796926454 0.13721185510428102 0.14928649835345775 0.15477497255762895 0.15587266739846328 0.1569703622392975 0.1569703622392975 0.1569703622392975 0.15916575192096594 0.15916575192096594,116.79999999998836 136.79999999998836 156.7999999999884 176.79999999998836 196.79999999998842 216.79999999998842 236.79999999998842 256.7999999999884 276.7999999999884 296.79999999998836 316.79999999998836 336.79999999998836 356.7999999999884 376.7999999999884 396.7999999999884 416.7999999999884 436.7999999999884 456.7999999999884 476.7999999999884 496.7999999999884 516.7999999999884 536.7999999999884 556.7999999999884 576.7999999999884 596.7999999999884 616.7999999999884 636.7999999999884 656.7999999999884 676.7999999999884 696.7999999999884 716.7999999999884 736.7999999999884 756.7999999999884 776.7999999999884 796.7999999999884 816.7999999999884 836.7999999999884 856.7999999999884 876.7999999999884 896.7999999999884 916.7999999999884 936.7999999999884 956.7999999999884 976.7999999999884 996.7999999999884 1016.7999999999884 1036.7999999999884 1056.7999999999884
cb_10,23.0,enc_trial,stim,response,STEM students,1186.099999713886,enc_trial,1.0,23.0,s_s_01_1,student_stem,fold-b,microscope,10.0,unique,far,paired,s_s_01_1.jpg,stem,student-b1,STEM students,Fine Arts students,sub-34,1.0,1.0,1.0,1.0,0.4983534577387486 0.5074094401756312 0.5222283205268935 0.5378704720087816 0.5485729967069155 0.5658616904500549 0.573271130625686 0.5790340285400658 0.5815038419319429 0.5815038419319429 0.5699780461031833 0.5518660812294183 0.5345773874862788 0.5172886937431395 0.4983534577387486 0.4613062568605927 0.4464873765093304 0.400384193194292 0.3913282107574094 0.3674533479692645 0.32546652030735457 0.31311745334796925 0.3040614709110867 0.29088913282107576 0.2752469813391877 0.24560922063666304 0.2439626783754117 0.2398463227222833 0.23161361141602635 0.21350164654226128 0.18551042810098795 0.17233809001097694 0.1575192096597146 0.1418770581778266 0.1287047200878156 0.11553238199780465 0.11388583973655328 0.11306256860592755,0.7936333699231614 0.7552140504939626 0.7080131723380899 0.6630076838638859 0.6092206366630077 0.5126234906695939 0.468715697036224 0.4390779363336992 0.4072447859495061 0.39517014270032935 0.38529088913282106 0.3699231613611416 0.3655323819978046 0.35784851811196483 0.35236004390779363 0.3249176728869374 0.3128430296377607 0.28100987925356746 0.2766190998902305 0.2645444566410537 0.2458836443468716 0.2425905598243689 0.24149286498353464 0.24149286498353464 0.2403951701427003 0.2338090010976949 0.2327113062568605 0.2305159165751921 0.2294182217343579 0.22173435784851814 0.20636663007683864 0.1888035126234907 0.17233809001097694 0.15587266739846328 0.141602634467618 0.12843029637760706 0.12733260153677273 0.12733260153677273,349.8999999999942 369.8999999999942 389.8999999999942 409.8999999999942 429.8999999999942 449.8999999999942 469.8999999999942 489.8999999999942 509.8999999999942 529.8999999999942 549.8999999999942 569.8999999999943 589.8999999999943 609.8999999999943 629.8999999999943 649.8999999999943 669.8999999999943 689.8999999999942 709.8999999999942 729.8999999999942 749.8999999999942 769.8999999999942 789.8999999999942 809.8999999999942 829.8999999999942 849.8999999999942 869.8999999999942 889.8999999999942 909.8999999999942 929.8999999999942 949.8999999999942 969.8999999999942 989.8999999999942 1009.8999999999942 1029.8999999999942 1049.8999999999942 1069.8999999999942 1089.8999999999942
cb_10,24.0,enc_trial,stim,response,Fine Arts students,1175.8999997139035,enc_trial,1.0,24.0,s_a_16_1,student_art,fold-b,piano,10.0,unique,far,paired,s_a_16_1.jpg,art,student-b1,STEM students,Fine Arts students,sub-34,1.0,1.0,1.0,1.0,0.5065861690450055 0.5016465422612514 0.4991767288693743 0.4942371020856202 0.4925905598243688 0.4925905598243688 0.4892974753018661 0.4876509330406147 0.4810647639956092 0.4670691547749726 0.43249176728869376 0.4160263446761801 0.4012074643249177 0.3929747530186608 0.3913282107574094 0.3970911086717893 0.4110867178924259 0.4160263446761801 0.4176728869374314 0.41849615806805707 0.41849615806805707 0.41849615806805707 0.4193194291986828 0.4300219538968167 0.4456641053787047 0.5378704720087816 0.5568057080131723 0.5864434687156971 0.6234906695938529 0.6432491767288694 0.6802963776070252 0.6868825466520307 0.6992316136114161 0.714873765093304 0.7346322722283205 0.7568605927552141 0.7757958287596048 0.7848518111964874 0.7939077936333699 0.8095499451152579 0.8367178924259056 0.8474204171240396 0.8540065861690451 0.8548298572996708 0.8564763995609221 0.8581229418221735,0.8057080131723381 0.7837541163556532 0.7585071350164654 0.6970362239297475 0.672886937431394 0.6158068057080132 0.4654226125137212 0.4390779363336992 0.4160263446761801 0.39407244785949497 0.3512623490669594 0.33260153677277715 0.31613611416026344 0.2930845225027442 0.27552140504939626 0.2447859495060373 0.2305159165751921 0.2305159165751921 0.2305159165751921 0.2305159165751921 0.2305159165751921 0.2305159165751921 0.2283205268935236 0.21734357848518115 0.2052689352360044 0.18111964873765096 0.1778265642151482 0.17124039517014267 0.1624588364434687 0.1569703622392975 0.14818880351262353 0.145993413830955 0.14379802414928655 0.141602634467618 0.13940724478594946 0.13501646542261247 0.13282107574094404 0.13282107574094404 0.13282107574094404 0.13282107574094404 0.13391877058177826 0.13721185510428102 0.141602634467618 0.14270032930845222 0.14489571899012074 0.14489571899012074,250.0 270.0 290.0 310.0 330.0 350.0 370.0 390.0 410.0 430.0 450.0 470.0 490.0 510.0 530.0 550.0 570.0 590.0 610.0 630.0 650.0 670.0 690.0 710.0 730.0 750.0 770.0 790.0 810.0 830.0 850.0 870.0 890.0 910.0 930.0 950.0 970.0 990.0 1010.0 1030.0 1050.0 1070.0 1090.0 1110.0 1130.0 1150.0
cb_10,25.0,enc_trial,stim,response,Fine Arts students,1039.099999809259,enc_trial,1.0,25.0,s_a_15_1,student_art,fold-d-single,drum kit,10.0,unique,,single,s_a_15_1.jpg,art,student-b1,STEM students,Fine Arts students,sub-34,1.0,,0.0,,0.4794182217343578 0.4794182217343578 0.4810647639956092 0.4835345773874863 0.4876509330406147 0.4925905598243688 0.5074094401756312 0.5107025246981339 0.5238748627881449 0.5321075740944018 0.5378704720087816 0.5461031833150384 0.5502195389681669 0.5551591657519209 0.5576289791437979 0.5691547749725576 0.5724478594950604 0.5815038419319429 0.6037321624588364 0.6300768386388584 0.6580680570801317 0.7107574094401756 0.7305159165751921 0.7453347969264544 0.7552140504939626 0.7667398463227223 0.7749725576289791 0.7807354555433589 0.7906147091108672 0.7980241492864983 0.8087266739846323 0.8111964873765093 0.814489571899012 0.8169593852908891 0.8210757409440176 0.8260153677277716 0.8293084522502744 0.8301317233809001,0.7980241492864983 0.7749725576289792 0.7475301866081229 0.7135016465422612 0.6783754116355654 0.6355653128430296 0.5367727771679474 0.4862788144895719 0.4072447859495061 0.3600439077936334 0.3172338090010977 0.256860592755214 0.2316136114160263 0.2140504939626784 0.1986827661909989 0.16136114160263448 0.15477497255762895 0.14270032930845222 0.12733260153677273 0.11745334796926454 0.110867178924259 0.10867178924259058 0.10867178924259058 0.10867178924259058 0.1097694840834248 0.11745334796926454 0.12403951701427007 0.1262349066959385 0.13282107574094404 0.13830954994511524 0.1514818880351262 0.15367727771679476 0.1569703622392975 0.15916575192096594 0.1624588364434687 0.16355653128430292 0.16465422612513725 0.16465422612513725,283.29999999998836 303.29999999998836 323.29999999998836 343.29999999998836 363.2999999999884 383.2999999999884 403.2999999999884 423.2999999999884 443.2999999999884 463.2999999999884 483.2999999999884 503.2999999999884 523.2999999999884 543.2999999999884 563.2999999999884 583.2999999999884 603.2999999999884 623.2999999999884 643.2999999999884 663.2999999999884 683.2999999999884 703.2999999999884 723.2999999999884 743.2999999999884 763.2999999999884 783.2999999999884 803.2999999999884 823.2999999999884 843.2999999999884 863.2999999999884 883.2999999999884 903.2999999999884 923.2999999999884 943.2999999999884 963.2999999999884 983.2999999999884 1003.2999999999884 1023.2999999999884
cb_10,26.0,enc_trial,stim,response,Fine Arts students,1982.8999999999944,enc_trial,1.0,26.0,s_sh_16_2,student_shared,fold-a,stapler,10.0,competing,far,paired,s_sh_16_2.jpg,,student-b1,STEM students,Fine Arts students,sub-34,1.0,1.0,0.0,0.0,0.4934138309549945 0.4934138309549945 0.4934138309549945 0.4934138309549945 0.4934138309549945 0.4942371020856202 0.4958836443468715 0.4975301866081229 0.4991767288693743 0.5041163556531284 0.513172338090011 0.5197585071350165 0.5197585071350165 0.5197585071350165 0.5156421514818881 0.4942371020856202 0.4728320526893524 0.4390779363336992 0.3962678375411636 0.3526344676180022 0.28512623490669603 0.2554884742041713 0.2489023051591657 0.2480790340285401 0.2480790340285401 0.2480790340285401 0.2480790340285401 0.25795828759604833 0.2752469813391877 0.31476399560922064 0.3756860592755214 0.413556531284303 0.43249176728869376 0.4473106476399561 0.4596597145993414 0.4967069154774973 0.5115257958287596 0.5263446761800219 0.5403402854006586 0.5543358946212953 0.5708013172338089 0.5963227222832053 0.6201975850713501 0.6531284302963776 0.6984083424807903 0.7165203073545554 0.7198133918770582 0.7247530186608123 0.728046103183315 0.7313391877058177 0.7387486278814489 0.7420417124039517 0.7428649835345774 0.7469813391877058 0.7486278814489572 0.7486278814489572 0.7486278814489572 0.7486278814489572 0.7486278814489572 0.7486278814489572 0.7486278814489572 0.7486278814489572 0.7486278814489572 0.7486278814489572 0.7486278814489572 0.7486278814489572 0.7486278814489572 0.7486278814489572 0.7486278814489572 0.7461580680570801 0.7519209659714599 0.7601536772777168 0.7708562019758507 0.7749725576289791 0.7749725576289791 0.7749725576289791 0.7815587266739846 0.7889681668496158 0.8210757409440176 0.8433040614709112 0.8614160263446763 0.8614160263446763 0.8614160263446763,0.8199780461031834 0.8013172338090011 0.7837541163556532 0.7639956092206367 0.7387486278814491 0.6926454445664105 0.6641053787047201 0.6355653128430296 0.6037321624588364 0.5598243688254665 0.5170142700329308 0.4884742041712404 0.4742041712403952 0.4665203073545554 0.4544456641053787 0.4281009879253568 0.4083424807903403 0.3863885839736553 0.3622392974753018 0.3391877058177827 0.28979143798024154 0.2645444566410537 0.2590559824368825 0.25795828759604833 0.25795828759604833 0.25795828759604833 0.25795828759604833 0.2557628979143798 0.25246981339187696 0.2491767288693744 0.2425905598243689 0.2349066959385291 0.2283205268935236 0.22392974753018646 0.2195389681668496 0.1997804610318331 0.19099890230515915 0.1833150384193194 0.17672886937431398 0.17014270032930845 0.16465422612513725 0.15477497255762895 0.1514818880351262 0.1470911086717892 0.14489571899012074 0.14489571899012074 0.14489571899012074 0.14928649835345775 0.15257958287596052 0.15477497255762895 0.15477497255762895 0.15367727771679476 0.1514818880351262 0.14818880351262353 0.15038419319429194 0.15806805708013172 0.15806805708013172 0.15806805708013172 0.15806805708013172 0.15806805708013172 0.15806805708013172 0.15806805708013172 0.15806805708013172 0.15806805708013172 0.15806805708013172 0.15806805708013172 0.15806805708013172 0.15806805708013172 0.15916575192096594 0.15916575192096594 0.15257958287596052 0.14928649835345775 0.14818880351262353 0.15038419319429194 0.1514818880351262 0.1514818880351262 0.1514818880351262 0.1514818880351262 0.14379802414928655 0.141602634467618 0.13940724478594946 0.13940724478594946 0.1405049396267838,216.60000000000585 236.60000000000585 256.6000000000058 276.6000000000058 296.6000000000058 316.6000000000058 336.6000000000058 356.6000000000058 376.6000000000058 396.6000000000058 416.6000000000058 436.6000000000058 456.6000000000058 476.6000000000058 496.6000000000058 516.6000000000058 536.6000000000058 556.6000000000058 576.6000000000057 596.6000000000057 616.6000000000057 636.6000000000057 656.6000000000057 676.6000000000057 696.6000000000058 716.6000000000058 736.6000000000058 756.6000000000058 776.6000000000058 796.6000000000058 816.6000000000058 836.6000000000058 856.6000000000058 876.6000000000058 896.6000000000058 916.6000000000058 936.6000000000058 956.6000000000058 976.6000000000058 996.6000000000058 1016.6000000000058 1036.6000000000058 1056.6000000000058 1076.6000000000058 1096.6000000000058 1116.6000000000058 1136.6000000000058 1156.6000000000058 1176.6000000000058 1196.6000000000058 1216.6000000000058 1236.6000000000058 1256.6000000000058 1276.6000000000058 1296.6000000000058 1316.6000000000058 1336.6000000000058 1356.6000000000058 1376.6000000000058 1396.6000000000058 1416.6000000000058 1436.6000000000058 1456.6000000000058 1476.6000000000058 1496.6000000000058 1516.6000000000058 1536.6000000000058 1556.6000000000058 1576.6000000000058 1596.6000000000058 1616.6000000000058 1636.6000000000058 1656.6000000000058 1676.6000000000058 1696.6000000000058 1716.6000000000058 1736.6000000000058 1756.6000000000058 1776.6000000000058 1796.6000000000058 1816.6000000000056 1836.6000000000056 1856.6000000000056
cb_10,27.0,enc_trial,stim,response,Fine Arts students,1113.3999999999942,enc_trial,1.0,27.0,s_sh_14_1,student_shared,fold-b,printer,10.0,competing,close,paired,s_sh_14_1.jpg,,student-b1,STEM students,Fine Arts students,sub-34,1.0,1.0,1.0,1.0,0.4983534577387486 0.4967069154774973 0.4958836443468715 0.4950603732162459 0.4950603732162459 0.5008232711306256 0.5098792535675082 0.5288144895718989 0.5543358946212953 0.5823271130625686 0.6416026344676179 0.6778265642151482 0.7354555433589463 0.7585071350164654 0.7585071350164654 0.7585071350164654 0.7585071350164654 0.7585071350164654 0.7585071350164654 0.7585071350164654 0.7585071350164654 0.7585071350164654 0.7585071350164654 0.7585071350164654 0.7585071350164654 0.8984632272228321 0.8778814489571899 0.8647091108671789 0.8614160263446763 0.8614160263446763 0.8614160263446763 0.8614160263446763 0.8564763995609221 0.8540065861690451 0.8531833150384194 0.8457738748627882 0.8441273326015368 0.8433040614709112 0.8424807903402853 0.8424807903402853,0.7771679473106476 0.7574094401756312 0.7167947310647641 0.6805708013172338 0.6267837541163557 0.5653128430296377 0.5214050493962679 0.45993413830955 0.4039517014270033 0.3446761800219539 0.1888035126234907 0.11416026344676178 0.035126234906695974 0.005488474204171201 0.005488474204171201 0.005488474204171201 0.005488474204171201 0.005488474204171201 0.005488474204171201 0.005488474204171201 0.005488474204171201 0.005488474204171201 0.005488474204171201 0.005488474204171201 0.005488474204171201 0.03622392974753018 0.049396267837541134 0.05708013172338089 0.05708013172338089 0.05708013172338089 0.05708013172338089 0.06366630076838642 0.0834248079034029 0.09879253567508227 0.1042810098792536 0.1470911086717892 0.1569703622392975 0.16136114160263448 0.16575192096597147 0.1679473106476399,266.69999999998254 286.6999999999825 306.6999999999825 326.6999999999825 346.69999999998254 366.69999999998254 386.69999999998254 406.69999999998254 426.69999999998254 446.69999999998254 466.69999999998254 486.69999999998254 506.69999999998254 526.6999999999825 546.6999999999825 566.6999999999825 586.6999999999825 606.6999999999825 626.6999999999825 646.6999999999825 666.6999999999825 686.6999999999825 706.6999999999824 726.6999999999824 746.6999999999824 766.6999999999824 786.6999999999824 806.6999999999824 826.6999999999824 846.6999999999824 866.6999999999824 886.6999999999824 906.6999999999823 926.6999999999823 946.6999999999823 966.6999999999823 986.6999999999823 1006.6999999999823 1026.6999999999823 1046.6999999999823
cb_10,28.0,enc_trial,stim,response,STEM students,1049.899999999965,enc_trial,1.0,28.0,s_s_11_1,student_stem,fold-d-single,scientific scale,10.0,unique,,single,s_s_11_1.jpg,stem,student-b1,STEM students,Fine Arts students,sub-34,1.0,,1.0,,0.4884742041712404 0.4884742041712404 0.4884742041712404 0.4892974753018661 0.4892974753018661 0.4892974753018661 0.4892974753018661 0.4892974753018661 0.4901207464324918 0.4925905598243688 0.4958836443468715 0.5 0.5008232711306256 0.5074094401756312 0.539517014270033 0.5773874862788145 0.6045554335894622 0.6325466520307355 0.6407793633369923 0.6424259055982436 0.6424259055982436 0.6407793633369923 0.6309001097694841 0.6218441273326015 0.6012623490669594 0.5238748627881449 0.4843578485181121 0.4695389681668496 0.4110867178924259 0.3608671789242591 0.2843029637760703 0.2596048298572997 0.2414928649835346 0.21926454445664104 0.2085620197585072 0.19045005488474206 0.17974753018660813 0.17398463227222835 0.16739846322722285 0.16163556531284304 0.14928649835345775 0.14846322722283206 0.1468166849615807,0.8386388583973655 0.8320526893523601 0.8287596048298573 0.8254665203073546 0.8210757409440176 0.8155872667398463 0.8100987925356751 0.8046103183315039 0.7936333699231614 0.7760702524698134 0.7167947310647641 0.6783754116355654 0.6476399560922064 0.6114160263446762 0.5049396267837539 0.40614709110867175 0.34248079034028545 0.283205268935236 0.2645444566410537 0.2601536772777168 0.2601536772777168 0.25795828759604833 0.2513721185510428 0.2458836443468716 0.2360043907793633 0.19758507135016468 0.18441273326015373 0.1822173435784852 0.17453347969264546 0.17233809001097694 0.16465422612513725 0.1624588364434687 0.15916575192096594 0.15477497255762895 0.1514818880351262 0.145993413830955 0.14379802414928655 0.14379802414928655 0.14379802414928655 0.14379802414928655 0.14489571899012074 0.14489571899012074 0.145993413830955,83.5 103.5 123.5 143.5 163.5 183.5 203.5 223.5 243.5 263.5 283.5 303.5 323.5 343.5 363.5 383.5 403.5 423.5 443.5 463.5 483.5 503.5 523.5 543.5 563.5 583.5 603.5 623.5 643.5 663.5 683.5 703.5 723.5 743.5 763.5 783.5 803.5 823.5 843.5 863.5 883.5 903.5 923.5
cb_10,29.0,enc_trial,stim,response,STEM students,1450.1000000000354,enc_trial,1.0,29.0,s_sh_23_2,student_shared,fold-a,ballpoint pen,10.0,competing,far,paired,s_sh_23_2.jpg,,student-b1,STEM students,Fine Arts students,sub-34,1.0,1.0,0.0,0.0,0.4942371020856202 0.4950603732162459 0.4958836443468715 0.4991767288693743 0.502469813391877 0.513172338090011 0.5205817782656421 0.5337541163556532 0.5666849615806806 0.5971459934138309 0.6374862788144896 0.6770032930845225 0.7008781558726674 0.7198133918770582 0.7362788144895719 0.7519209659714599 0.754390779363337 0.754390779363337 0.754390779363337 0.7535675082327112 0.7321624588364435 0.725576289791438 0.6951152579582875 0.6621844127332601 0.5930296377607025 0.329582875960483 0.1772777167947311 0.12788144895718992 0.11059275521405053 0.10482985729967073 0.10318331503841936 0.10318331503841936 0.10318331503841936 0.10318331503841936 0.10318331503841936 0.10318331503841936 0.10318331503841936 0.10812294182217344 0.12541163556531287 0.1402305159165752 0.159165751920966 0.16245883644346873 0.16245883644346873 0.16245883644346873 0.16245883644346873 0.16245883644346873 0.16163556531284304 0.16163556531284304,0.814489571899012 0.7980241492864983 0.7804610318331504 0.7552140504939626 0.7244785949506037 0.6498353457738748 0.6004390779363338 0.5433589462129528 0.4138309549945115 0.31613611416026344 0.1986827661909989 0.1361141602634468 0.12952799121844127 0.12294182217343574 0.12294182217343574 0.12733260153677273 0.12952799121844127 0.1306256860592755 0.13172338090010982 0.1361141602634468 0.145993413830955 0.145993413830955 0.1470911086717892 0.1514818880351262 0.16355653128430292 0.20307354555433588 0.2096597145993414 0.2096597145993414 0.2096597145993414 0.2096597145993414 0.2107574094401756 0.2107574094401756 0.2107574094401756 0.2107574094401756 0.2107574094401756 0.2107574094401756 0.2107574094401756 0.2041712403951701 0.1877058177826564 0.17892425905598242 0.16575192096597147 0.16355653128430292 0.16355653128430292 0.16355653128430292 0.16355653128430292 0.15806805708013172 0.15587266739846328 0.15477497255762895,233.5 253.5 273.5 293.5 313.5 333.5 353.5 373.5 393.5 413.5 433.5 453.5 473.5 493.5 513.5 533.5 553.5 573.5 593.5 613.5 633.5 653.5 673.5 693.5 713.5 733.5 753.5 773.5 793.5 813.5 833.5 853.5 873.5 893.5 913.5 933.5 953.5 973.5 993.5 1013.5 1033.5 1053.5 1073.5 1093.5 1113.5 1133.5 1153.5 1173.5
cb_10,30.0,enc_trial,stim,response,STEM students,1835.6000000000056,enc_trial,1.0,30.0,s_sh_14_2,student_shared,fold-b,printer,10.0,competing,close,paired,s_sh_14_2.jpg,,student-b1,STEM students,Fine Arts students,sub-34,1.0,1.0,1.0,1.0,0.513172338090011 0.513172338090011 0.513172338090011 0.513172338090011 0.513172338090011 0.5139956092206367 0.5205817782656421 0.5230515916575192 0.5255214050493963 0.5288144895718989 0.5337541163556532 0.539517014270033 0.539517014270033 0.5461031833150384 0.5576289791437979 0.5922063666300769 0.6012623490669594 0.6185510428100988 0.6399560922063666 0.6473655323819978 0.6514818880351262 0.6531284302963776 0.6539517014270033 0.6539517014270033 0.6539517014270033 0.6539517014270033 0.6539517014270033 0.6490120746432492 0.6243139407244785 0.5897365532381997 0.4571899012074643 0.4069703622392975 0.3748627881448957 0.3542810098792536 0.3402854006586169 0.3386388583973655 0.3378155872667399 0.3378155872667399 0.3378155872667399 0.3378155872667399 0.3336992316136114 0.31558726673984633 0.2768935236004391 0.22667398463227226 0.1641053787047201 0.07189901207464328 0.06695938529088916 0.06284302963776073 0.06284302963776073 0.06284302963776073 0.06284302963776073 0.06284302963776073 0.06284302963776073 0.06284302963776073 0.06284302963776073 0.06284302963776073 0.06695938529088916 0.07930845225027447 0.09495060373216248 0.117178924259056 0.1575192096597146 0.16328210757409442,0.8177826564215148 0.8024149286498353 0.7870472008781559 0.7694840834248079 0.7299670691547749 0.6849615806805708 0.6333699231613612 0.5971459934138311 0.562019758507135 0.5148188803512623 0.43249176728869376 0.3929747530186608 0.3611416026344676 0.3369923161361141 0.30076838638858394 0.2195389681668496 0.2052689352360044 0.17672886937431398 0.14379802414928655 0.13391877058177826 0.1262349066959385 0.12294182217343574 0.12074643249176732 0.11964873765093308 0.11964873765093308 0.11964873765093308 0.11964873765093308 0.12184412733260153 0.1262349066959385 0.13391877058177826 0.1470911086717892 0.14928649835345775 0.1470911086717892 0.14379802414928655 0.1361141602634468 0.13391877058177826 0.1306256860592755 0.12952799121844127 0.12952799121844127 0.12952799121844127 0.12733260153677273 0.1262349066959385 0.1262349066959385 0.1262349066959385 0.12843029637760706 0.12843029637760706 0.12843029637760706 0.12843029637760706 0.12843029637760706 0.12843029637760706 0.12843029637760706 0.12843029637760706 0.12843029637760706 0.12843029637760706 0.12843029637760706 0.12843029637760706 0.12952799121844127 0.12952799121844127 0.1306256860592755 0.1306256860592755 0.1306256860592755 0.1306256860592755,266.8999999999942 286.8999999999942 306.8999999999942 326.8999999999942 346.8999999999942 366.8999999999942 386.8999999999942 406.8999999999942 426.8999999999942 446.8999999999942 466.8999999999942 486.8999999999942 506.8999999999942 526.8999999999942 546.8999999999942 566.8999999999943 586.8999999999943 606.8999999999943 626.8999999999943 646.8999999999943 666.8999999999943 686.8999999999943 706.8999999999942 726.8999999999942 746.8999999999942 766.8999999999942 786.8999999999942 806.8999999999942 826.8999999999942 846.8999999999942 866.8999999999942 886.8999999999942 906.8999999999942 926.8999999999942 946.8999999999942 966.8999999999942 986.8999999999942 1006.8999999999942 1026.8999999999942 1046.8999999999942 1066.8999999999942 1086.8999999999942 1106.8999999999942 1126.8999999999942 1146.8999999999942 1166.8999999999942 1186.8999999999942 1206.8999999999942 1226.8999999999942 1246.8999999999942 1266.8999999999942 1286.8999999999942 1306.8999999999942 1326.8999999999942 1346.8999999999942 1366.8999999999942 1386.8999999999942 1406.8999999999942 1426.8999999999942 1446.8999999999942 1466.8999999999942 1486.8999999999942
cb_10,31.0,enc_trial,stim,response,Fine Arts students,1011.1999996185186,enc_trial,1.0,31.0,s_a_07_1,student_art,fold-d-single,yarn,10.0,unique,,single,s_a_07_1.jpg,art,student-b1,STEM students,Fine Arts students,sub-34,1.0,,1.0,,0.5016465422612514 0.5016465422612514 0.5041163556531284 0.5049396267837541 0.5057628979143798 0.5082327113062569 0.5090559824368825 0.5123490669593853 0.5172886937431395 0.5189352360043907 0.5246981339187706 0.5271679473106476 0.5214050493962679 0.5246981339187706 0.5271679473106476 0.5296377607025247 0.5296377607025247 0.5238748627881449 0.5156421514818881 0.4967069154774973 0.4851811196487377 0.4818880351262349 0.4818880351262349 0.4818880351262349 0.4901207464324918 0.5600987925356751 0.6070252469813392 0.6481888035126235 0.6942919868276619 0.7239297475301866 0.7675631174533479 0.7774423710208562 0.7823819978046103 0.7922612513721186 0.7963776070252471 0.8153128430296377 0.8276619099890229 0.8391877058177827 0.8465971459934141 0.8540065861690451 0.8630625686059277 0.8778814489571899 0.8852908891328212 0.8927003293084523,0.8111964873765093 0.8068057080131723 0.7936333699231614 0.7881448957189902 0.7826564215148188 0.7683863885839737 0.7563117453347971 0.7398463227222831 0.7080131723380899 0.6981339187705817 0.6344676180021953 0.5642151481888036 0.5071350164654227 0.45993413830955 0.398463227222832 0.3095499451152579 0.27881448957189897 0.2535675082327113 0.2392974753018661 0.2107574094401756 0.1888035126234907 0.1778265642151482 0.17563117453347965 0.17453347969264546 0.17014270032930845 0.16136114160263448 0.16136114160263448 0.16355653128430292 0.16684961580680568 0.17233809001097694 0.17892425905598242 0.18111964873765096 0.1822173435784852 0.18551042810098795 0.1877058177826564 0.18990120746432493 0.18990120746432493 0.18990120746432493 0.18990120746432493 0.18990120746432493 0.18551042810098795 0.1734357848518112 0.16684961580680568 0.16136114160263448,66.59999999997672 86.59999999997672 106.59999999997672 126.59999999997672 146.59999999997672 166.59999999997672 186.59999999997672 206.59999999997672 226.59999999997672 246.59999999997672 266.5999999999767 286.5999999999767 306.5999999999767 326.5999999999767 346.59999999997666 366.59999999997666 386.59999999997666 406.59999999997666 426.59999999997666 446.59999999997666 466.59999999997666 486.59999999997666 506.59999999997666 526.5999999999766 546.5999999999766 566.5999999999767 586.5999999999767 606.5999999999767 626.5999999999767 646.5999999999767 666.5999999999767 686.5999999999767 706.5999999999768 726.5999999999768 746.5999999999768 766.5999999999768 786.5999999999768 806.5999999999768 826.5999999999768 846.5999999999768 866.5999999999768 886.5999999999768 906.5999999999768 926.5999999999768
cb_10,32.0,enc_trial,stim,response,STEM students,961.8999996185304,enc_trial,1.0,32.0,s_s_02_2,student_stem,fold-b,flask,10.0,unique,far,paired,s_s_02_2.jpg,stem,student-b1,STEM students,Fine Arts students,sub-34,1.0,1.0,1.0,1.0,0.5 0.4991767288693743 0.4991767288693743 0.4991767288693743 0.4991767288693743 0.4991767288693743 0.5 0.5008232711306256 0.5032930845225028 0.5074094401756312 0.5156421514818881 0.5222283205268935 0.5230515916575192 0.5230515916575192 0.5205817782656421 0.5148188803512623 0.4818880351262349 0.45801317233809 0.4440175631174533 0.4086169045005488 0.35016465422612514 0.3032381997804611 0.26125137211855104 0.22667398463227226 0.2003293084522503 0.174807903402854 0.16657519209659716 0.15998902305159168 0.1468166849615807 0.13776070252469816 0.1287047200878156 0.12541163556531287 0.12541163556531287 0.12458836443468715 0.12458836443468715 0.12376509330406148 0.12211855104281012 0.12129527991218444,0.8276619099890229 0.8221734357848518 0.8166849615806806 0.8111964873765093 0.8046103183315039 0.7936333699231614 0.7585071350164654 0.7354555433589463 0.7102085620197585 0.6838638858397366 0.6377607025246981 0.5949506037321625 0.562019758507135 0.5477497255762898 0.5301866081229418 0.5192096597145993 0.4807903402854007 0.4577387486278814 0.442371020856202 0.40614709110867175 0.3435784851811197 0.29198682766191 0.24368825466520305 0.19538968166849613 0.16026344676180027 0.12294182217343574 0.11416026344676178 0.1097694840834248 0.10318331503841928 0.09769484083424806 0.09220636663007686 0.09001097694840833 0.09001097694840833 0.09001097694840833 0.09001097694840833 0.09001097694840833 0.09879253567508227 0.10098792535675084,166.70000000001158 186.70000000001158 206.70000000001158 226.70000000001158 246.70000000001158 266.7000000000116 286.70000000001164 306.70000000001164 326.70000000001164 346.7000000000116 366.7000000000116 386.7000000000116 406.7000000000116 426.7000000000116 446.7000000000116 466.7000000000116 486.7000000000116 506.7000000000116 526.7000000000116 546.7000000000116 566.7000000000116 586.7000000000116 606.7000000000116 626.7000000000116 646.7000000000116 666.7000000000116 686.7000000000116 706.7000000000116 726.7000000000116 746.7000000000116 766.7000000000116 786.7000000000116 806.7000000000116 826.7000000000116 846.7000000000116 866.7000000000116 886.7000000000116 906.7000000000116
cb_10,33.0,enc_trial,stim,response,Fine Arts students,1051.4999999046267,enc_trial,1.0,33.0,s_a_17_2,student_art,fold-b,microphone,10.0,unique,far,paired,s_a_17_2.jpg,art,student-b1,STEM students,Fine Arts students,sub-34,1.0,1.0,1.0,1.0,0.4975301866081229 0.4975301866081229 0.4975301866081229 0.4975301866081229 0.4975301866081229 0.4967069154774973 0.4958836443468715 0.4934138309549945 0.4901207464324918 0.4892974753018661 0.4876509330406147 0.486827661909989 0.486827661909989 0.4991767288693743 0.5279912184412733 0.5946761800219539 0.6975850713501647 0.7782656421514819 0.8474204171240396 0.8951701427003294 0.9173984632272228 0.9330406147091108 0.9330406147091108 0.9330406147091108 0.9330406147091108 0.9330406147091108 0.9330406147091108 0.9330406147091108 0.9322173435784852 0.9322173435784852 0.9297475301866082 0.9281009879253568 0.924807903402854 0.9141053787047202 0.9050493962678376 0.9001097694840835 0.8959934138309551 0.8943468715697037 0.8943468715697037,0.8353457738748628 0.8232711306256859 0.8068057080131723 0.7749725576289792 0.7650933040614709 0.7058177826564216 0.6816684961580681 0.6586169045005488 0.6377607025246981 0.6147091108671789 0.562019758507135 0.5257958287596048 0.4939626783754116 0.43249176728869376 0.3732162458836443 0.3051591657519209 0.2623490669593853 0.2425905598243689 0.2305159165751921 0.2195389681668496 0.2107574094401756 0.1997804610318331 0.1997804610318331 0.1997804610318331 0.1997804610318331 0.19758507135016468 0.19648737650933049 0.19648737650933049 0.19538968166849613 0.19538968166849613 0.1931942919868277 0.1931942919868277 0.19099890230515915 0.18551042810098795 0.18002195389681666 0.17672886937431398 0.1734357848518112 0.17233809001097694 0.17124039517014267,233.29999999998842 253.29999999998842 273.2999999999884 293.29999999998836 313.29999999998836 333.29999999998836 353.2999999999884 373.2999999999884 393.2999999999884 413.2999999999884 433.2999999999884 453.2999999999884 473.2999999999884 493.2999999999884 513.2999999999884 533.2999999999884 553.2999999999884 573.2999999999884 593.2999999999884 613.2999999999884 633.2999999999884 653.2999999999884 673.2999999999884 693.2999999999884 713.2999999999884 733.2999999999884 753.2999999999884 773.2999999999884 793.2999999999884 813.2999999999884 833.2999999999884 853.2999999999884 873.2999999999884 893.2999999999884 913.2999999999884 933.2999999999884 953.2999999999884 973.2999999999884 993.2999999999884
cb_10,34.0,enc_trial,stim,response,STEM students,1213.5,enc_trial,1.0,34.0,s_sh_22_1,student_shared,fold-c-single,hole puncher,10.0,competing,,single,s_sh_22_1.jpg,,student-b1,STEM students,Fine Arts students,sub-34,1.0,,1.0,,0.4884742041712404 0.4860043907793634 0.4835345773874863 0.4835345773874863 0.4835345773874863 0.486827661909989 0.4876509330406147 0.4876509330406147 0.4876509330406147 0.4851811196487377 0.4818880351262349 0.4621295279912184 0.4440175631174533 0.4201427003293085 0.4119099890230516 0.3855653128430296 0.3674533479692645 0.3575740944017563 0.34522502744237105 0.33205268935236004 0.31064763995609224 0.300768386388584 0.2867727771679473 0.26783754116355657 0.2447859495060373 0.201152579582876 0.18551042810098795 0.1641053787047201 0.1575192096597146 0.14928649835345775 0.14599341383095502,0.8320526893523601 0.8100987925356751 0.7837541163556532 0.7563117453347971 0.7299670691547749 0.6838638858397366 0.6673984632272228 0.6432491767288694 0.6212952799121845 0.5982436882546652 0.5718990120746432 0.5257958287596048 0.5038419319429199 0.4610318331503842 0.4489571899012075 0.398463227222832 0.3666300768386389 0.3512623490669594 0.3402854006586169 0.3293084522502744 0.3084522502744237 0.2985729967069155 0.2864983534577388 0.27003293084522506 0.2502744237102086 0.2052689352360044 0.1888035126234907 0.17233809001097694 0.16904500548847426 0.16465422612513725 0.1624588364434687,300.1000000000058 320.1000000000058 340.1000000000058 360.1000000000058 380.1000000000058 400.1000000000058 420.1000000000058 440.1000000000058 460.1000000000058 480.1000000000058 500.1000000000058 520.1000000000058 540.1000000000058 560.1000000000058 580.1000000000057 600.1000000000057 620.1000000000057 640.1000000000057 660.1000000000057 680.1000000000057 700.1000000000058 720.1000000000058 740.1000000000058 760.1000000000058 780.1000000000058 800.1000000000058 820.1000000000058 840.1000000000058 860.1000000000058 880.1000000000058 900.1000000000058
cb_10,35.0,enc_trial,stim,response,STEM students,1251.7999997138975,enc_trial,1.0,35.0,s_sh_10_1,student_shared,fold-b,scissors,10.0,competing,close,paired,s_sh_10_1.jpg,,student-b1,STEM students,Fine Arts students,sub-34,1.0,1.0,0.0,0.0,0.5074094401756312 0.5016465422612514 0.4958836443468715 0.4892974753018661 0.4835345773874863 0.4810647639956092 0.4744785949506037 0.4720087815587266 0.468715697036224 0.4645993413830955 0.4613062568605927 0.4563666300768386 0.4547200878155873 0.4547200878155873 0.4538968166849616 0.4530735455543359 0.4530735455543359 0.4530735455543359 0.4530735455543359 0.4530735455543359 0.4530735455543359 0.4530735455543359 0.4522502744237102 0.4514270032930846 0.4489571899012075 0.4464873765093304 0.43331503841931945 0.41684961580680574 0.3888583973655324 0.3542810098792536 0.29500548847420416 0.27442371020856204 0.2604281009879253 0.2513721185510428 0.2423161361141603 0.2143249176728869 0.2044456641053788 0.2003293084522503 0.18633369923161364 0.17398463227222835 0.1476399560922064 0.13529088913282108 0.12705817782656426 0.1229418221734358 0.1229418221734358 0.12211855104281012,0.8166849615806806 0.8035126234906695 0.7892425905598244 0.7705817782656421 0.7519209659714599 0.7354555433589463 0.7091108671789242 0.6926454445664105 0.6652030735455543 0.6465422612513722 0.6311745334796927 0.6026344676180022 0.5883644346871569 0.5740944017563118 0.562019758507135 0.5499451152579583 0.5257958287596048 0.4895718990120746 0.4763995609220637 0.4500548847420417 0.43798024149286496 0.4259055982436882 0.4182217343578485 0.4116355653128431 0.4039517014270033 0.3973655323819978 0.3809001097694841 0.3732162458836443 0.36333699231613614 0.3490669593852909 0.3205268935236004 0.3084522502744237 0.29637760702524696 0.2886937431394072 0.27881448957189897 0.23819978046103185 0.2195389681668496 0.2096597145993414 0.18660812294182216 0.17453347969264546 0.15038419319429194 0.13830954994511524 0.12952799121844127 0.12733260153677273 0.1262349066959385 0.1262349066959385,266.70000000001164 286.70000000001164 306.70000000001164 326.70000000001164 346.7000000000116 366.7000000000117 386.7000000000117 406.7000000000117 426.7000000000117 446.7000000000117 466.7000000000117 486.7000000000117 506.7000000000117 526.7000000000116 546.7000000000116 566.7000000000116 586.7000000000116 606.7000000000116 626.7000000000116 646.7000000000116 666.7000000000116 686.7000000000116 706.7000000000116 726.7000000000116 746.7000000000116 766.7000000000116 786.7000000000116 806.7000000000116 826.7000000000116 846.7000000000116 866.7000000000116 886.7000000000116 906.7000000000116 926.7000000000116 946.7000000000116 966.7000000000116 986.7000000000116 1006.7000000000116 1026.7000000000116 1046.7000000000116 1066.7000000000116 1086.7000000000116 1106.7000000000116 1126.7000000000114 1146.7000000000114 1166.7000000000114
