Current Spreadsheet,Trial Number,Display,Screen,Response Type,Response,Reaction Time,display,block,block_trial,stimulus_id,expected_goal,fold,stimulus_name,c_group,condition,within_block_dist,paired_status,stimulus_path,expected_location,block_split,respStim_1,respStim_2,sub_label,acc,both_enc_acc,assoc_stim1_acc,assoc_stim2_acc,x_pos,y_pos,time_trajectories
cb_10,1.0,enc_trial,stim,response,STEM students,2808.619999999996,enc_trial,1.0,1.0,s_sh_04_1,student_shared,fold-c-single,laptop stand,10.0,competing,,single,s_sh_04_1.jpg,,student-b1,STEM students,Fine Arts students,sub-21,1.0,,1.0,,0.5077021822849808 0.5077021822849808 0.5057766367137355 0.504813863928113 0.504813863928113 0.5038510911424904 0.5038510911424904 0.5038510911424904 0.5038510911424904 0.5038510911424904 0.5038510911424904 0.5038510911424904 0.5038510911424904 0.5038510911424904 0.5038510911424904 0.5038510911424904 0.5038510911424904 0.5038510911424904 0.5038510911424904 0.5038510911424904 0.5038510911424904 0.5038510911424904 0.5038510911424904 0.5038510911424904 0.5038510911424904 0.5038510911424904 0.5028883183568678 0.4942233632862644 0.4865211810012837 0.4817073170731707 0.4720795892169448 0.4672657252888318 0.4595635430038511 0.4508985879332478 0.4403080872913993 0.4133504492939665 0.4104621309370988 0.40949935815147626 0.4104621309370988 0.417201540436457 0.4277920410783056 0.4277920410783056 0.4277920410783056 0.4249037227214377 0.4249037227214377 0.4249037227214377 0.4249037227214377 0.4249037227214377 0.4249037227214377 0.4249037227214377 0.4249037227214377 0.4249037227214377 0.4249037227214377 0.4249037227214377 0.4249037227214377 0.3305519897304237 0.2881899871630295 0.2130937098844673 0.17362002567394094 0.16110397946084726 0.1562901155327343 0.15147625160462133 0.1456996148908858 0.1456996148908858 0.1456996148908858 0.1456996148908858 0.1456996148908858 0.14762516046213095 0.18613607188703468 0.2390885750962773 0.4017971758664955 0.4595635430038511 0.4932605905006418 0.4951861360718871 0.5279204107830552 0.5885750962772786 0.6039794608472401 0.6318998716302953 0.6530808729139923 0.6598202824133504 0.6732991014120667 0.6838896020539152 0.6983311938382541 0.70795892169448 0.7185494223363286 0.7281771501925546 0.7339537869062901 0.7397304236200256 0.7455070603337612 0.7522464698331194 0.7609114249037227 0.7609114249037227 0.7628369704749679 0.7637997432605905 0.7637997432605905 0.7676508344030809 0.7676508344030809 0.7676508344030809 0.7676508344030809 0.7676508344030809 0.5808729139922978 0.4287548138639281 0.2439024390243903 0.05327342747111685 -0.07381258023106542 -0.1065468549422336 -0.10847240051347876 -0.10847240051347876 -0.10847240051347876 -0.10943517329910137 -0.11039794608472396 -0.11039794608472396 -0.11232349165596917 -0.11328626444159172 -0.11328626444159172 -0.11328626444159172 -0.10943517329910137 -0.06899871630295246 -0.025673940949935768 -0.012195121951219473 -0.0006418485237483588 0.009948652118100164 0.012836970474967943 0.012836970474967943 0.012836970474967943 0.012836970474967943 0.012836970474967943 0.020539152759948692 0.02727856225930684 0.03786906290115536 0.0725288831835687 0.08889602053915277 0.10622593068035946 0.11103979460847242 0.1148908857509628 0.12355584082156612 0.1264441591784339 0.1264441591784339 0.1264441591784339 0.1274069319640565,0.810012836970475 0.8138639281129654 0.8215661103979461 0.8241335044929397 0.8241335044929397 0.8254172015404364 0.8254172015404364 0.8254172015404364 0.8254172015404364 0.8254172015404364 0.8254172015404364 0.8254172015404364 0.8254172015404364 0.8254172015404364 0.8254172015404364 0.8254172015404364 0.8254172015404364 0.8254172015404364 0.8254172015404364 0.8254172015404364 0.8254172015404364 0.8254172015404364 0.8254172015404364 0.8254172015404364 0.8254172015404364 0.8254172015404364 0.8254172015404364 0.8177150192554556 0.8074454428754814 0.8023106546854942 0.7894736842105263 0.7766367137355584 0.7560975609756098 0.7304236200256741 0.6996148908857509 0.6431322207958922 0.6213093709884467 0.6007702182284981 0.5789473684210527 0.5558408215661104 0.4942233632862645 0.4865211810012837 0.4852374839537869 0.4839537869062901 0.4813863928112966 0.478818998716303 0.478818998716303 0.478818998716303 0.478818998716303 0.478818998716303 0.478818998716303 0.478818998716303 0.478818998716303 0.478818998716303 0.478818998716303 0.4608472400513479 0.4313222079589217 0.3697047496790757 0.33119383825417203 0.3145057766367137 0.3029525032092426 0.29139922978177146 0.2785622593068036 0.2785622593068036 0.2785622593068036 0.2785622593068036 0.2785622593068036 0.27599486521181005 0.2413350449293966 0.21181001283697048 0.1745827984595636 0.16302952503209245 0.1514762516046213 0.15019255455712455 0.1514762516046213 0.16559691912708596 0.16046213093709882 0.15019255455712455 0.14249037227214378 0.13992297817715016 0.1386392811296534 0.13607188703465978 0.13350449293966626 0.13093709884467264 0.12965340179717588 0.1322207958921694 0.1386392811296534 0.13992297817715016 0.14377406931964054 0.1450577663671374 0.15019255455712455 0.15019255455712455 0.1514762516046213 0.15275994865211806 0.15275994865211806 0.15532734274711169 0.15532734274711169 0.15532734274711169 0.15532734274711169 0.15532734274711169 0.17201540436456994 0.16046213093709882 0.17586649550706035 0.2195121951219512 0.2426187419768935 0.24005134788189986 0.23748395378690634 0.23106546854942234 0.227214377406932 0.227214377406932 0.2195121951219512 0.21694480102695768 0.21437740693196405 0.21437740693196405 0.21437740693196405 0.21437740693196405 0.21437740693196405 0.2028241335044929 0.1810012836970475 0.17329910141206673 0.16688061617458286 0.1643132220795892 0.1643132220795892 0.16302952503209245 0.16302952503209245 0.16302952503209245 0.16302952503209245 0.16046213093709882 0.16046213093709882 0.1578947368421053 0.13992297817715016 0.1322207958921694 0.12965340179717588 0.12965340179717588 0.12965340179717588 0.12708600770218226 0.12708600770218226 0.12708600770218226 0.12708600770218226 0.12708600770218226,0.0 20.0 40.0 60.0 80.0 100.0 120.0 140.0 160.0 180.0 200.0 220.0 240.0 260.0 280.0 300.0 320.0 340.0 360.0 380.0 400.0 420.0 440.0 460.0 480.0 500.0 520.0 540.0 560.0 580.0 600.0 620.0 640.0 660.0 680.0 700.0 720.0 740.0 760.0 780.0 800.0 820.0 840.0 860.0 880.0 900.0 920.0 940.0 960.0 980.0 1000.0 1020.0 1040.0 1060.0 1080.0 1100.0 1120.0 1140.0 1160.0 1180.0 1200.0 1220.0 1240.0 1260.0 1280.0 1300.0 1320.0 1340.0 1360.0 1380.0 1400.0 1420.0 1440.0 1460.0 1480.0 1500.0 1520.0 1540.0 1560.0 1580.0 1600.0 1620.0 1640.0 1660.0 1680.0 1700.0 1720.0 1740.0 1760.0 1780.0 1800.0 1820.0 1840.0 1860.0 1880.0 1900.0 1920.0 1940.0 1960.0 1980.0 2000.0 2020.0 2040.0 2060.0 2080.0 2100.0 2120.0 2140.0 2160.0 2180.0 2200.0 2220.0 2240.0 2260.0 2280.0 2300.0 2320.0 2340.0 2360.0 2380.0 2400.0 2420.0 2440.0 2460.0 2480.0 2500.0 2520.0 2540.0 2560.0 2580.0 2600.0 2620.0 2640.0 2660.0 2680.0 2700.0 2720.0 2740.0 2760.0 2780.0
cb_10,2.0,enc_trial,stim,response,STEM students,2207.9199999999983,enc_trial,1.0,2.0,s_s_15_1,student_stem,fold-c,jumper cables,10.0,unique,close,paired,s_s_15_1.jpg,stem,student-b1,STEM students,Fine Arts students,sub-21,1.0,1.0,1.0,1.0,0.5105905006418485 0.5105905006418485 0.5105905006418485 0.5105905006418485 0.5105905006418485 0.5105905006418485 0.5105905006418485 0.5105905006418485 0.5105905006418485 0.5105905006418485 0.5105905006418485 0.5105905006418485 0.5105905006418485 0.5105905006418485 0.5105905006418485 0.5105905006418485 0.5105905006418485 0.5105905006418485 0.5105905006418485 0.5105905006418485 0.5105905006418485 0.5105905006418485 0.5105905006418485 0.5105905006418485 0.5105905006418485 0.5105905006418485 0.5105905006418485 0.5105905006418485 0.5105905006418485 0.5105905006418485 0.5105905006418485 0.5105905006418485 0.5105905006418485 0.5105905006418485 0.5105905006418485 0.5105905006418485 0.5086649550706034 0.5019255455712451 0.4980744544287548 0.4903722721437741 0.4682284980744544 0.4518613607188704 0.4508985879332478 0.4441591784338896 0.4364569961489089 0.4200898587933248 0.4200898587933248 0.4249037227214377 0.4287548138639281 0.4297175866495507 0.4297175866495507 0.4297175866495507 0.4297175866495507 0.4297175866495507 0.4297175866495507 0.4297175866495507 0.4297175866495507 0.4297175866495507 0.4297175866495507 0.4268292682926829 0.4017971758664955 0.3786906290115533 0.34403080872913994 0.2881899871630295 0.27086007702182285 0.2381258023106547 0.2246469833119384 0.2130937098844673 0.20154043645699607 0.1986521181001284 0.1976893453145058 0.1967265725288832 0.1967265725288832 0.1957637997432606 0.19383825417201545 0.18613607188703468 0.1822849807445443 0.17843388960205395 0.17458279845956354 0.17265725288831835 0.1697689345314506 0.16784338896020545 0.16495507060333764 0.16302952503209245 0.15917843388960207 0.1572528883183569 0.1562901155327343 0.1562901155327343 0.1562901155327343 0.1562901155327343 0.1553273427471117 0.15436456996148912 0.15340179717586652 0.15147625160462133 0.15147625160462133 0.15147625160462133 0.15147625160462133 0.15147625160462133 0.15051347881899876 0.14955070603337614 0.14955070603337614 0.14955070603337614 0.14955070603337614 0.14955070603337614 0.14955070603337614 0.14955070603337614,0.810012836970475 0.810012836970475 0.810012836970475 0.810012836970475 0.810012836970475 0.810012836970475 0.810012836970475 0.810012836970475 0.810012836970475 0.810012836970475 0.810012836970475 0.810012836970475 0.810012836970475 0.810012836970475 0.810012836970475 0.810012836970475 0.810012836970475 0.810012836970475 0.810012836970475 0.810012836970475 0.810012836970475 0.810012836970475 0.810012836970475 0.810012836970475 0.810012836970475 0.810012836970475 0.810012836970475 0.810012836970475 0.810012836970475 0.810012836970475 0.810012836970475 0.810012836970475 0.810012836970475 0.810012836970475 0.810012836970475 0.810012836970475 0.8087291399229781 0.8023106546854942 0.7971758664955071 0.7817715019255456 0.7073170731707317 0.6046213093709885 0.5609756097560976 0.5186136071887035 0.4762516046213093 0.4184852374839538 0.41463414634146345 0.4133504492939666 0.4120667522464698 0.4120667522464698 0.41078305519897307 0.41078305519897307 0.41078305519897307 0.41078305519897307 0.41078305519897307 0.41078305519897307 0.41078305519897307 0.41078305519897307 0.41078305519897307 0.41078305519897307 0.3992297817715019 0.3915275994865212 0.37612323491655975 0.3414634146341463 0.32477535301668803 0.2939666238767651 0.27984595635430043 0.26957637997432604 0.2567394094993581 0.25288831835686776 0.251604621309371 0.251604621309371 0.2490372272143773 0.2426187419768935 0.2387676508344031 0.2362002567394095 0.233632862644416 0.2297817715019256 0.2220795892169448 0.21052631578947367 0.17843388960205386 0.1707317073170732 0.16174582798459558 0.15532734274711169 0.14634146341463414 0.13992297817715016 0.13992297817715016 0.13992297817715016 0.13992297817715016 0.13992297817715016 0.13992297817715016 0.13992297817715016 0.13992297817715016 0.13992297817715016 0.13992297817715016 0.13992297817715016 0.13992297817715016 0.13992297817715016 0.13992297817715016 0.13992297817715016 0.13992297817715016 0.13992297817715016 0.13992297817715016 0.13992297817715016 0.13992297817715016 0.13992297817715016,0.0 20.0 40.0 60.0 80.0 100.0 120.0 140.0 160.0 180.0 200.0 220.0 240.0 260.0 280.0 300.0 320.0 340.0 360.0 380.0 400.0 420.0 440.0 460.0 480.0 500.0 520.0 540.0 560.0 580.0 600.0 620.0 640.0 660.0 680.0 700.0 720.0 740.0 760.0 780.0 800.0 820.0 840.0 860.0 880.0 900.0 920.0 940.0 960.0 980.0 1000.0 1020.0 1040.0 1060.0 1080.0 1100.0 1120.0 1140.0 1160.0 1180.0 1200.0 1220.0 1240.0 1260.0 1280.0 1300.0 1320.0 1340.0 1360.0 1380.0 1400.0 1420.0 1440.0 1460.0 1480.0 1500.0 1520.0 1540.0 1560.0 1580.0 1600.0 1620.0 1640.0 1660.0 1680.0 1700.0 1720.0 1740.0 1760.0 1780.0 1800.0 1820.0 1840.0 1860.0 1880.0 1900.0 1920.0 1940.0 1960.0 1980.0 2000.0 2020.0 2040.0 2060.0 2080.0 2100.0
cb_10,3.0,enc_trial,stim,response,Fine Arts students,1256.1999999999969,enc_trial,1.0,3.0,s_sh_11_1,student_shared,fold-b,pencil case,10.0,competing,close,paired,s_sh_11_1.jpg,,student-b1,STEM students,Fine Arts students,sub-21,1.0,1.0,0.0,0.0,0.5 0.5144415917843389 0.55198973042362 0.6328626444159179 0.6944801026957638 0.8138639281129653 0.8446726572528883 0.8629653401797176 0.8668164313222081 0.8668164313222081 0.8677792041078305 0.8677792041078305 0.8677792041078305 0.8745186136071886 0.8802952503209243 0.8812580231065468 0.8812580231065468 0.8812580231065468 0.8812580231065468 0.8831835686777919 0.8831835686777919 0.8841463414634146,0.803594351732991 0.7715019255455713 0.6880616174582799 0.5353016688061618 0.4441591784338896 0.2836970474967908 0.25288831835686776 0.227214377406932 0.2195121951219512 0.21694480102695768 0.21694480102695768 0.21694480102695768 0.21694480102695768 0.2066752246469833 0.19640564826700896 0.1938382541720154 0.1938382541720154 0.1938382541720154 0.1938382541720154 0.18998716302952492 0.18228498074454424 0.17586649550706035,716.6600000000035 736.6600000000035 756.6600000000035 776.6600000000035 796.6600000000035 816.6600000000035 836.6600000000035 856.6600000000035 876.6600000000035 896.6600000000035 916.6600000000036 936.6600000000036 956.6600000000036 976.6600000000036 996.6600000000036 1016.6600000000036 1036.6600000000037 1056.6600000000037 1076.6600000000037 1096.6600000000037 1116.6600000000037 1136.6600000000035
cb_10,4.0,enc_trial,stim,response,Fine Arts students,1933.359999999986,enc_trial,1.0,4.0,s_a_12_1,student_art,fold-c,saxophone,10.0,unique,close,paired,s_a_12_1.jpg,art,student-b1,STEM students,Fine Arts students,sub-21,1.0,1.0,1.0,1.0,0.4932605905006418 0.4990372272143774 0.5028883183568678 0.5038510911424904 0.5009627727856226 0.4518613607188704 0.39313222079589216 0.3315147625160462 0.25930680359435176 0.2275353016688061 0.19383825417201545 0.17843388960205395 0.17073170731707318 0.16880616174582802 0.16880616174582802 0.16880616174582802 0.16880616174582802 0.16880616174582802 0.16880616174582802 0.16880616174582802 0.19383825417201545 0.2150192554557125 0.225609756097561 0.225609756097561 0.225609756097561 0.225609756097561 0.225609756097561 0.225609756097561 0.225609756097561 0.225609756097561 0.225609756097561 0.21598202824133506 0.2025032092426188 0.1976893453145058 0.194801026957638 0.19383825417201545 0.1986521181001284 0.225609756097561 0.2968549422336329 0.4181643132220796 0.5529525032092426 0.6290115532734275 0.6944801026957638 0.7166238767650834 0.7185494223363286 0.7185494223363286 0.7185494223363286 0.7195121951219512 0.7214377406931964 0.727214377406932 0.7310654685494223 0.7310654685494223 0.7329910141206675 0.7445442875481386 0.7609114249037227 0.7801668806161746 0.7869062901155327 0.805198973042362 0.8138639281129653 0.8138639281129653 0.8138639281129653 0.8138639281129653 0.8167522464698331,0.7997432605905006 0.7804878048780488 0.766367137355584 0.7535301668806161 0.7406931964056482 0.6328626444159178 0.5237483953786906 0.44159178433889595 0.35301668806161746 0.3234916559691913 0.27599486521181005 0.25930680359435176 0.24775353016688065 0.2413350449293966 0.2413350449293966 0.2413350449293966 0.2413350449293966 0.2413350449293966 0.2413350449293966 0.24005134788189986 0.2259306803594352 0.2195121951219512 0.21822849807445446 0.21822849807445446 0.21822849807445446 0.21822849807445446 0.21822849807445446 0.21822849807445446 0.21822849807445446 0.21822849807445446 0.21822849807445446 0.2220795892169448 0.227214377406932 0.2297817715019256 0.2297817715019256 0.23106546854942234 0.2284980744544287 0.2259306803594352 0.24390243902439024 0.25930680359435176 0.2811296534017972 0.2567394094993581 0.227214377406932 0.2156611039794608 0.2130937098844673 0.2130937098844673 0.2130937098844673 0.21181001283697048 0.21181001283697048 0.21181001283697048 0.21052631578947367 0.21052631578947367 0.2092426187419769 0.2028241335044929 0.19512195121951206 0.18613607188703465 0.1835686777920411 0.18228498074454424 0.18228498074454424 0.18228498074454424 0.18228498074454424 0.18228498074454424 0.18228498074454424,633.3399999999965 653.3399999999965 673.3399999999965 693.3399999999965 713.3399999999965 733.3399999999965 753.3399999999965 773.3399999999965 793.3399999999965 813.3399999999965 833.3399999999965 853.3399999999965 873.3399999999965 893.3399999999965 913.3399999999964 933.3399999999964 953.3399999999964 973.3399999999964 993.3399999999964 1013.3399999999964 1033.3399999999963 1053.3399999999963 1073.3399999999963 1093.3399999999963 1113.3399999999963 1133.3399999999965 1153.3399999999965 1173.3399999999965 1193.3399999999965 1213.3399999999965 1233.3399999999965 1253.3399999999965 1273.3399999999965 1293.3399999999965 1313.3399999999965 1333.3399999999965 1353.3399999999965 1373.3399999999965 1393.3399999999967 1413.3399999999967 1433.3399999999967 1453.3399999999967 1473.3399999999967 1493.3399999999967 1513.3399999999967 1533.3399999999967 1553.3399999999967 1573.3399999999967 1593.3399999999967 1613.3399999999967 1633.3399999999967 1653.3399999999967 1673.3399999999967 1693.3399999999967 1713.3399999999967 1733.3399999999967 1753.3399999999967 1773.3399999999967 1793.3399999999967 1813.3399999999967 1833.3399999999967 1853.3399999999967 1873.3399999999967
cb_10,5.0,enc_trial,stim,response,STEM students,1463.3800000000049,enc_trial,1.0,5.0,s_s_15_2,student_stem,fold-c,jumper cables,10.0,unique,close,paired,s_s_15_2.jpg,stem,student-b1,STEM students,Fine Arts students,sub-21,1.0,1.0,1.0,1.0,0.5019255455712451 0.5019255455712451 0.5019255455712451 0.4951861360718871 0.4807445442875482 0.417201540436457 0.41527599486521183 0.4114249037227215 0.39120667522464697 0.355584082156611 0.34403080872913994 0.34210526315789475 0.34017971758664955 0.3382541720154044 0.3372913992297818 0.3247753530166881 0.3132220795892169 0.2968549422336329 0.2795250320924262 0.2621951219512195 0.2227214377406932 0.2227214377406932 0.2111681643132221 0.1976893453145058 0.18902439024390247 0.16302952503209245 0.1562901155327343 0.15147625160462133 0.14762516046213095 0.1456996148908858 0.1553273427471117 0.1562901155327343 0.1562901155327343 0.1562901155327343 0.1562901155327343 0.1553273427471117,0.8215661103979461 0.7920410783055198 0.7394094993581515 0.5827984595635429 0.4736842105263158 0.33376123234916555 0.3299101412066753 0.32734274711168165 0.3093709884467266 0.27599486521181005 0.2644415917843389 0.2631578947368421 0.2618741976893453 0.2618741976893453 0.2618741976893453 0.2644415917843389 0.2670089858793325 0.2670089858793325 0.2670089858793325 0.2670089858793325 0.2734274711168164 0.2734274711168164 0.2708600770218228 0.2644415917843389 0.25930680359435176 0.2387676508344031 0.2297817715019256 0.21822849807445446 0.2066752246469833 0.19127086007702188 0.15019255455712455 0.14377406931964054 0.13607188703465978 0.1322207958921694 0.12965340179717588 0.1258023106546855,533.320000000007 553.320000000007 573.320000000007 593.320000000007 613.320000000007 633.320000000007 653.320000000007 673.320000000007 693.320000000007 713.320000000007 733.320000000007 753.320000000007 773.320000000007 793.320000000007 813.320000000007 833.320000000007 853.320000000007 873.320000000007 893.320000000007 913.320000000007 933.320000000007 953.320000000007 973.320000000007 993.320000000007 1013.320000000007 1033.320000000007 1053.320000000007 1073.320000000007 1093.320000000007 1113.320000000007 1133.320000000007 1153.320000000007 1173.320000000007 1193.320000000007 1213.320000000007 1233.320000000007
cb_10,6.0,enc_trial,stim,response,STEM students,1311.6999999999969,enc_trial,1.0,6.0,s_s_19_1,student_stem,fold-c,circuit board,10.0,unique,close,paired,s_s_19_1.jpg,stem,student-b1,STEM students,Fine Arts students,sub-21,1.0,1.0,1.0,1.0,0.5019255455712451 0.5028883183568678 0.5067394094993581 0.5134788189987163 0.5154043645699615 0.5154043645699615 0.5154043645699615 0.5154043645699615 0.5154043645699615 0.5154043645699615 0.5154043645699615 0.5154043645699615 0.5154043645699615 0.5154043645699615 0.5154043645699615 0.5154043645699615 0.5154043645699615 0.5154043645699615 0.5154043645699615 0.5154043645699615 0.5154043645699615 0.5134788189987163 0.5105905006418485 0.5105905006418485 0.5105905006418485 0.5096277278562259 0.5067394094993581 0.4971116816431322 0.4624518613607189 0.3758023106546855 0.2448652118100129 0.1842105263157895 0.15436456996148912 0.1408857509627728 0.13510911424903727 0.13318356867779207 0.13318356867779207 0.13318356867779207 0.13318356867779207 0.13318356867779207 0.13125802310654688 0.1283697047496791 0.1283697047496791 0.1283697047496791 0.1254813863928113 0.11777920410783058 0.10815147625160464 0.10815147625160464 0.10815147625160464 0.10815147625160464 0.11103979460847242 0.11200256739409503,0.8202824133504493 0.8202824133504493 0.8202824133504493 0.8177150192554556 0.8151476251604621 0.8151476251604621 0.8151476251604621 0.8151476251604621 0.8151476251604621 0.8151476251604621 0.8151476251604621 0.8151476251604621 0.8151476251604621 0.8151476251604621 0.8151476251604621 0.8151476251604621 0.8151476251604621 0.8151476251604621 0.8151476251604621 0.8151476251604621 0.8151476251604621 0.8151476251604621 0.8164313222079589 0.8164313222079589 0.8177150192554556 0.8177150192554556 0.8164313222079589 0.7971758664955071 0.7406931964056482 0.5417201540436457 0.21694480102695768 0.10911424903722723 0.03594351732991019 0.01797175866495504 0.010269576379974277 0.00898587933247752 0.00898587933247752 0.00898587933247752 0.00898587933247752 0.00898587933247752 0.00898587933247752 0.00898587933247752 0.00898587933247752 0.00898587933247752 0.01412066752246466 0.042362002567394086 0.08857509627727855 0.08857509627727855 0.08985879332477531 0.08985879332477531 0.1001283697047497 0.1026957637997432,166.66000000000352 186.66000000000355 206.66000000000355 226.66000000000355 246.66000000000355 266.6600000000035 286.6600000000035 306.6600000000035 326.6600000000035 346.6600000000035 366.6600000000035 386.6600000000035 406.6600000000035 426.6600000000035 446.6600000000035 466.6600000000035 486.6600000000035 506.6600000000035 526.6600000000035 546.6600000000035 566.6600000000035 586.6600000000035 606.6600000000035 626.6600000000035 646.6600000000035 666.6600000000035 686.6600000000035 706.6600000000035 726.6600000000035 746.6600000000035 766.6600000000035 786.6600000000035 806.6600000000035 826.6600000000035 846.6600000000035 866.6600000000035 886.6600000000035 906.6600000000036 926.6600000000036 946.6600000000036 966.6600000000036 986.6600000000036 1006.6600000000036 1026.6600000000037 1046.6600000000037 1066.6600000000037 1086.6600000000037 1106.6600000000037 1126.6600000000035 1146.6600000000035 1166.6600000000035 1186.6600000000035
cb_10,7.0,enc_trial,stim,response,STEM students,1216.020000000004,enc_trial,1.0,7.0,s_sh_11_2,student_shared,fold-b,pencil case,10.0,competing,close,paired,s_sh_11_2.jpg,,student-b1,STEM students,Fine Arts students,sub-21,1.0,1.0,0.0,0.0,0.4913350449293967 0.4518613607188704 0.41527599486521183 0.32958921694480103 0.2930038510911425 0.2631578947368421 0.2448652118100129 0.225609756097561 0.20539152759948653 0.18902439024390247 0.18613607188703468 0.18613607188703468 0.1822849807445443 0.17650834403080876 0.1553273427471117 0.1437740693196406 0.142811296534018 0.142811296534018 0.142811296534018 0.142811296534018 0.142811296534018 0.142811296534018 0.1408857509627728 0.13799743260590502 0.13510911424903727 0.13510911424903727 0.13414634146341467,0.7894736842105263 0.6906290115532734 0.5545571245186136 0.3157894736842105 0.23748395378690634 0.19255455712451866 0.18613607188703465 0.1810012836970475 0.16944801026957634 0.16046213093709882 0.1578947368421053 0.1578947368421053 0.15661103979460844 0.15019255455712455 0.13478818998716302 0.12451861360718874 0.12323491655969188 0.12323491655969188 0.12323491655969188 0.12323491655969188 0.12323491655969188 0.12323491655969188 0.12323491655969188 0.1258023106546855 0.12965340179717588 0.12965340179717588 0.12965340179717588,566.6600000000035 586.6600000000035 606.6600000000035 626.6600000000035 646.6600000000035 666.6600000000035 686.6600000000035 706.6600000000035 726.6600000000035 746.6600000000035 766.6600000000035 786.6600000000035 806.6600000000035 826.6600000000035 846.6600000000035 866.6600000000035 886.6600000000035 906.6600000000036 926.6600000000036 946.6600000000036 966.6600000000036 986.6600000000036 1006.6600000000036 1026.6600000000037 1046.6600000000037 1066.6600000000037 1086.6600000000037
cb_10,8.0,enc_trial,stim,response,Fine Arts students,1565.0199999999895,enc_trial,1.0,8.0,s_a_16_2,student_art,fold-b,piano,10.0,unique,far,paired,s_a_16_2.jpg,art,student-b1,STEM students,Fine Arts students,sub-21,1.0,1.0,1.0,1.0,0.5019255455712451 0.4865211810012837 0.4653401797175867 0.4383825417201541 0.39120667522464697 0.3372913992297818 0.308408215661104 0.27567394094993586 0.2554557124518614 0.2419768934531451 0.22175866495507066 0.2102053915275995 0.1976893453145058 0.1851732991014121 0.17458279845956354 0.1553273427471117 0.1553273427471117 0.15436456996148912 0.15340179717586652 0.15243902439024393 0.15147625160462133 0.15147625160462133 0.1553273427471117 0.16688061617458286 0.2121309370988447 0.4730423620025674 0.6222721437740694 0.7628369704749679 0.8677792041078305 0.9111039794608472 0.9216944801026956 0.9216944801026956 0.9216944801026956 0.9216944801026956 0.9216944801026956 0.9216944801026956 0.9216944801026956 0.9216944801026956 0.9216944801026956 0.9216944801026956 0.9216944801026956 0.9178433889602052 0.8985879332477535 0.8899229781771502 0.8851091142490372 0.8812580231065468 0.8802952503209243,0.8138639281129654 0.766367137355584 0.7137355584082157 0.6071887034659821 0.4826700898587933 0.37997432605904996 0.3478818998716303 0.32477535301668803 0.30680359435173304 0.2939666238767651 0.2721437740693197 0.2580231065468549 0.2426187419768935 0.227214377406932 0.21181001283697048 0.17329910141206673 0.16944801026957634 0.1681643132220796 0.16688061617458286 0.16302952503209245 0.1514762516046213 0.15019255455712455 0.14890885750962768 0.14377406931964054 0.12451861360718874 0.10397946084724008 0.11553273427471113 0.13735558408215665 0.13478818998716302 0.13093709884467264 0.13093709884467264 0.13093709884467264 0.13093709884467264 0.13093709884467264 0.13093709884467264 0.13093709884467264 0.13093709884467264 0.13093709884467264 0.13093709884467264 0.13093709884467264 0.13093709884467264 0.1322207958921694 0.1386392811296534 0.13992297817715016 0.13992297817715016 0.13992297817715016 0.13992297817715016,635.039999999979 655.039999999979 675.039999999979 695.0399999999789 715.0399999999789 735.0399999999789 755.0399999999789 775.0399999999789 795.0399999999789 815.0399999999789 835.0399999999789 855.0399999999789 875.0399999999789 895.0399999999789 915.0399999999789 935.0399999999789 955.0399999999789 975.0399999999789 995.0399999999789 1015.0399999999789 1035.039999999979 1055.039999999979 1075.039999999979 1095.039999999979 1115.039999999979 1135.039999999979 1155.039999999979 1175.039999999979 1195.039999999979 1215.039999999979 1235.039999999979 1255.039999999979 1275.039999999979 1295.039999999979 1315.039999999979 1335.039999999979 1355.039999999979 1375.039999999979 1395.039999999979 1415.039999999979 1435.039999999979 1455.039999999979 1475.039999999979 1495.039999999979 1515.039999999979 1535.039999999979 1555.039999999979
cb_10,9.0,enc_trial,stim,response,STEM students,1793.2999999999884,enc_trial,1.0,9.0,s_sh_18_1,student_shared,fold-c-single,wall calendar,10.0,competing,,single,s_sh_18_1.jpg,,student-b1,STEM students,Fine Arts students,sub-21,1.0,,1.0,,0.4903722721437741 0.4663029525032093 0.452824133504493 0.4403080872913993 0.4326059050064185 0.42201540436457 0.4210526315789474 0.4210526315789474 0.4210526315789474 0.4210526315789474 0.4085365853658537 0.4037227214377407 0.4037227214377407 0.4066110397946085 0.4066110397946085 0.4066110397946085 0.4066110397946085 0.4066110397946085 0.4066110397946085 0.4066110397946085 0.4066110397946085 0.4066110397946085 0.4037227214377407 0.4008344030808729 0.39698331193838254 0.3940949935815148 0.3892811296534018 0.386392811296534 0.3825417201540437 0.3786906290115533 0.3748395378690629 0.3632862644415918 0.35654685494223365 0.34017971758664955 0.3074454428754814 0.3064826700898588 0.2785622593068036 0.277599486521181 0.27567394094993586 0.27471116816431324 0.2718228498074455 0.2670089858793325 0.2631578947368421 0.2621951219512195 0.26026957637997433 0.25930680359435176 0.24679075738125805 0.2381258023106547 0.2284980744544288 0.22368421052631585 0.21887034659820284 0.2063543003851092 0.2025032092426188 0.19961489088575105 0.19383825417201545 0.1813222079589217 0.16591784338896026 0.16399229781771504 0.16302952503209245 0.15917843388960207 0.1553273427471117 0.15051347881899876 0.14955070603337614,0.7971758664955071 0.7021822849807445 0.5558408215661104 0.4839537869062901 0.4428754813863928 0.4069319640564827 0.40436456996148906 0.40436456996148906 0.40436456996148906 0.40436456996148906 0.3915275994865212 0.3889602053915277 0.386392811296534 0.386392811296534 0.386392811296534 0.386392811296534 0.386392811296534 0.386392811296534 0.386392811296534 0.386392811296534 0.386392811296534 0.3876765083440308 0.3966623876765083 0.3979460847240052 0.3992297817715019 0.3992297817715019 0.4017971758664956 0.4030808729139923 0.4017971758664956 0.3979460847240052 0.3915275994865212 0.386392811296534 0.3812580231065469 0.3709884467265725 0.3453145057766367 0.3453145057766367 0.34017971758664955 0.33761232349165593 0.3286264441591784 0.3170731707317073 0.31065468549422337 0.2978177150192555 0.28241335044929394 0.2721437740693197 0.2631578947368421 0.2605905006418485 0.2349165596919127 0.2130937098844673 0.1938382541720154 0.18613607188703465 0.1835686777920411 0.16944801026957634 0.1643132220795892 0.16046213093709882 0.15404364569961493 0.14634146341463414 0.1322207958921694 0.12965340179717588 0.12836970474967913 0.12708600770218226 0.12708600770218226 0.12708600770218226 0.12708600770218226,450.0 470.0 490.0 510.0 530.0 550.0 570.0 590.0 610.0 630.0 650.0 670.0 690.0 710.0 730.0 750.0 770.0 790.0 810.0 830.0 850.0 870.0 890.0 910.0 930.0 950.0 970.0 990.0 1010.0 1030.0 1050.0 1070.0 1090.0 1110.0 1130.0 1150.0 1170.0 1190.0 1210.0 1230.0 1250.0 1270.0 1290.0 1310.0 1330.0 1350.0 1370.0 1390.0 1410.0 1430.0 1450.0 1470.0 1490.0 1510.0 1530.0 1550.0 1570.0 1590.0 1610.0 1630.0 1650.0 1670.0 1690.0
cb_10,10.0,enc_trial,stim,response,STEM students,1144.2999999999886,enc_trial,1.0,10.0,s_s_19_2,student_stem,fold-c,circuit board,10.0,unique,close,paired,s_s_19_2.jpg,stem,student-b1,STEM students,Fine Arts students,sub-21,1.0,1.0,1.0,1.0,0.4942233632862644 0.4614890885750963 0.4249037227214377 0.3902439024390244 0.3478818998716303 0.26123234916559696 0.2439024390243903 0.23234916559691915 0.2227214377406932 0.2092426187419769 0.18902439024390247 0.1832477535301669 0.17843388960205395 0.17169448010269578 0.16688061617458286 0.16302952503209245 0.16206675224646985 0.16206675224646985 0.16206675224646985 0.16206675224646985 0.16110397946084726 0.15243902439024393 0.15147625160462133,0.8164313222079589 0.7252888318356867 0.6495507060333761 0.5956354300385109 0.5173299101412067 0.3543003851091142 0.3350449293966624 0.32477535301668803 0.3157894736842105 0.30680359435173304 0.28883183568677795 0.2772785622593068 0.2567394094993581 0.2220795892169448 0.1874197689345315 0.13992297817715016 0.13350449293966626 0.1322207958921694 0.1322207958921694 0.1322207958921694 0.12965340179717588 0.1065468549422336 0.1065468549422336,583.3199999999779 603.3199999999779 623.3199999999779 643.3199999999779 663.3199999999779 683.3199999999779 703.3199999999779 723.3199999999779 743.3199999999779 763.3199999999779 783.3199999999779 803.3199999999779 823.3199999999779 843.3199999999779 863.3199999999779 883.3199999999779 903.319999999978 923.319999999978 943.319999999978 963.319999999978 983.319999999978 1003.319999999978 1023.319999999978
cb_10,11.0,enc_trial,stim,response,Fine Arts students,1363.5599999999977,enc_trial,1.0,11.0,s_a_12_2,student_art,fold-c,saxophone,10.0,unique,close,paired,s_a_12_2.jpg,art,student-b1,STEM students,Fine Arts students,sub-21,1.0,1.0,1.0,1.0,0.5096277278562259 0.4990372272143774 0.4932605905006418 0.4903722721437741 0.4903722721437741 0.5192554557124519 0.5635430038510911 0.6039794608472401 0.6530808729139923 0.6732991014120667 0.7185494223363286 0.7252888318356867 0.7445442875481386 0.7522464698331194 0.7522464698331194 0.7560975609756098 0.7570603337612324 0.7609114249037227 0.7715019255455712 0.7753530166880616 0.7782413350449294 0.7782413350449294 0.7782413350449294 0.7782413350449294 0.7878690629011553 0.8042362002567394 0.8177150192554556 0.8340821566110398 0.8340821566110398 0.8340821566110398 0.8340821566110398 0.8340821566110398 0.8340821566110398 0.8350449293966624 0.8360077021822849,0.766367137355584 0.7381258023106547 0.7098844672657253 0.6726572528883183 0.6495507060333761 0.6174582798459564 0.5969191270860077 0.5763799743260589 0.5468549422336328 0.5353016688061618 0.4993581514762516 0.4942233632862645 0.4839537869062901 0.4775353016688062 0.4775353016688062 0.4634146341463414 0.4531450577663672 0.44159178433889595 0.4197689345314506 0.41720154043645696 0.4094993581514762 0.3915275994865212 0.36585365853658536 0.3119383825417201 0.2849807445442876 0.25032092426187424 0.227214377406932 0.1976893453145057 0.1976893453145057 0.1976893453145057 0.1976893453145057 0.1976893453145057 0.1976893453145057 0.19640564826700896 0.19640564826700896,583.3399999999965 603.3399999999965 623.3399999999965 643.3399999999965 663.3399999999965 683.3399999999965 703.3399999999965 723.3399999999965 743.3399999999965 763.3399999999965 783.3399999999965 803.3399999999965 823.3399999999965 843.3399999999965 863.3399999999965 883.3399999999965 903.3399999999964 923.3399999999964 943.3399999999964 963.3399999999964 983.3399999999964 1003.3399999999964 1023.3399999999964 1043.3399999999963 1063.3399999999963 1083.3399999999963 1103.3399999999963 1123.3399999999963 1143.3399999999965 1163.3399999999965 1183.3399999999965 1203.3399999999965 1223.3399999999965 1243.3399999999965 1263.3399999999965
cb_10,12.0,enc_trial,stim,response,Fine Arts students,2157.9400000000023,enc_trial,1.0,12.0,s_sh_16_1,student_shared,fold-a,stapler,10.0,competing,far,paired,s_sh_16_1.jpg,,student-b1,STEM students,Fine Arts students,sub-21,1.0,1.0,1.0,1.0,0.4894094993581515 0.4942233632862644 0.5 0.5096277278562259 0.5173299101412067 0.5192554557124519 0.5182926829268293 0.5154043645699615 0.5144415917843389 0.5144415917843389 0.5134788189987163 0.5134788189987163 0.5134788189987163 0.5115532734274711 0.5019255455712451 0.4894094993581515 0.4894094993581515 0.4894094993581515 0.4894094993581515 0.4894094993581515 0.4894094993581515 0.4894094993581515 0.4894094993581515 0.4894094993581515 0.4894094993581515 0.4894094993581515 0.4894094993581515 0.4903722721437741 0.4942233632862644 0.4942233632862644 0.4855584082156611 0.4855584082156611 0.4711168164313222 0.4354942233632863 0.36713735558408217 0.2621951219512195 0.2429396662387677 0.2313863928112965 0.2284980744544288 0.2284980744544288 0.2284980744544288 0.2284980744544288 0.2284980744544288 0.2265725288831836 0.2140564826700899 0.19383825417201545 0.1909499358151477 0.18613607188703468 0.17843388960205395 0.16784338896020545 0.142811296534018 0.13318356867779207 0.1302952503209243 0.1302952503209243 0.13318356867779207 0.14666238767650838 0.14666238767650838 0.14666238767650838 0.14666238767650838 0.1418485237483954 0.1399229781771502 0.15051347881899876 0.17458279845956354 0.2284980744544288 0.2978177150192555 0.3267008985879333 0.4037227214377407 0.4037227214377407 0.4701540436456996 0.5019255455712451 0.5163671373555839 0.5163671373555839 0.5163671373555839 0.52599486521181 0.5346598202824133 0.5394736842105263 0.540436456996149 0.540436456996149 0.5433247753530167 0.57798459563543 0.6001283697047497 0.6501925545571245 0.6540436456996149 0.6877406931964056 0.6954428754813864 0.7098844672657253 0.7349165596919127 0.7464698331193838 0.7532092426187421 0.7541720154043645 0.7541720154043645 0.7551347881899871 0.7859435173299101 0.8225288831835686 0.8446726572528883 0.8523748395378691 0.8552631578947368 0.8552631578947368 0.8639281129653401 0.8706675224646983 0.8735558408215661,0.8228498074454429 0.8087291399229781 0.7907573812580231 0.7599486521181001 0.736842105263158 0.7047496790757382 0.6970474967907574 0.6893453145057766 0.6854942233632862 0.6854942233632862 0.6854942233632862 0.6854942233632862 0.6854942233632862 0.6803594351732991 0.6598202824133504 0.6456996148908858 0.6456996148908858 0.6456996148908858 0.6456996148908858 0.6456996148908858 0.6456996148908858 0.6456996148908858 0.6456996148908858 0.6456996148908858 0.6456996148908858 0.6456996148908858 0.6456996148908858 0.6431322207958922 0.6341463414634146 0.6174582798459564 0.5327342747111682 0.5327342747111682 0.4993581514762516 0.44801026957638 0.3709884467265725 0.2991014120667522 0.29139922978177146 0.2875481386392811 0.2862644415917843 0.2849807445442876 0.2849807445442876 0.2849807445442876 0.2849807445442876 0.2836970474967908 0.27599486521181005 0.2734274711168164 0.2734274711168164 0.2734274711168164 0.2708600770218228 0.2644415917843389 0.24005134788189986 0.2284980744544287 0.2259306803594352 0.2246469833119384 0.2195121951219512 0.19512195121951206 0.19512195121951206 0.19512195121951206 0.1938382541720154 0.19127086007702188 0.1874197689345315 0.18485237483953787 0.1810012836970475 0.1810012836970475 0.17586649550706035 0.17586649550706035 0.1874197689345315 0.1874197689345315 0.19512195121951206 0.2002567394094994 0.2002567394094994 0.2002567394094994 0.2002567394094994 0.19640564826700896 0.19512195121951206 0.19255455712451866 0.19127086007702188 0.19127086007702188 0.18870346598202825 0.1707317073170732 0.1707317073170732 0.1707317073170732 0.1707317073170732 0.16688061617458286 0.16559691912708596 0.1643132220795892 0.1643132220795892 0.1643132220795892 0.1643132220795892 0.1643132220795892 0.1643132220795892 0.1643132220795892 0.16688061617458286 0.1810012836970475 0.18870346598202825 0.19127086007702188 0.19127086007702188 0.19127086007702188 0.19127086007702188 0.18998716302952492 0.18998716302952492,33.33999999999651 53.33999999999651 73.33999999999652 93.33999999999651 113.33999999999651 133.33999999999648 153.33999999999648 173.33999999999648 193.33999999999648 213.33999999999648 233.33999999999648 253.33999999999648 273.3399999999965 293.3399999999965 313.3399999999965 333.3399999999965 353.3399999999965 373.3399999999965 393.3399999999965 413.3399999999965 433.3399999999965 453.3399999999965 473.3399999999965 493.3399999999965 513.3399999999965 533.3399999999965 553.3399999999965 573.3399999999965 593.3399999999965 613.3399999999965 633.3399999999965 653.3399999999965 673.3399999999965 693.3399999999965 713.3399999999965 733.3399999999965 753.3399999999965 773.3399999999965 793.3399999999965 813.3399999999965 833.3399999999965 853.3399999999965 873.3399999999965 893.3399999999965 913.3399999999964 933.3399999999964 953.3399999999964 973.3399999999964 993.3399999999964 1013.3399999999964 1033.3399999999963 1053.3399999999963 1073.3399999999963 1093.3399999999963 1113.3399999999963 1133.3399999999965 1153.3399999999965 1173.3399999999965 1193.3399999999965 1213.3399999999965 1233.3399999999965 1253.3399999999965 1273.3399999999965 1293.3399999999965 1313.3399999999965 1333.3399999999965 1353.3399999999965 1373.3399999999965 1393.3399999999967 1413.3399999999967 1433.3399999999967 1453.3399999999967 1473.3399999999967 1493.3399999999967 1513.3399999999967 1533.3399999999967 1553.3399999999967 1573.3399999999967 1593.3399999999967 1613.3399999999967 1633.3399999999967 1653.3399999999967 1673.3399999999967 1693.3399999999967 1713.3399999999967 1733.3399999999967 1753.3399999999967 1773.3399999999967 1793.3399999999967 1813.3399999999967 1833.3399999999967 1853.3399999999967 1873.3399999999967 1893.3399999999967 1913.3399999999967 1933.3399999999967 1953.3399999999967 1973.3399999999967 1993.3399999999967 2013.3399999999967 2033.3399999999967
cb_10,13.0,enc_trial,stim,response,STEM students,1250.0,enc_trial,1.0,13.0,s_sh_23_1,student_shared,fold-a,ballpoint pen,10.0,competing,far,paired,s_sh_23_1.jpg,,student-b1,STEM students,Fine Arts students,sub-21,1.0,1.0,0.0,0.0,0.4942233632862644 0.4884467265725289 0.4807445442875482 0.4749679075738126 0.4672657252888318 0.3979460847240052 0.3700256739409499 0.3411424903722722 0.3132220795892169 0.2978177150192555 0.2439024390243903 0.2246469833119384 0.2140564826700899 0.20731707317073167 0.20442875481386394 0.1976893453145058 0.1957637997432606 0.19383825417201545 0.1928754813863928 0.19191270860077025 0.1851732991014121 0.17362002567394094 0.15917843388960207 0.15147625160462133 0.15147625160462133 0.15243902439024393 0.14666238767650838 0.1418485237483954 0.1399229781771502 0.1399229781771502 0.1399229781771502,0.8228498074454429 0.8023106546854942 0.7830551989730423 0.7689345314505777 0.7458279845956355 0.5956354300385109 0.521181001283697 0.4659820282413351 0.41720154043645696 0.3915275994865212 0.3324775353016688 0.3119383825417201 0.2978177150192555 0.28883183568677795 0.2849807445442876 0.2747111681643132 0.2708600770218228 0.2682926829268293 0.2670089858793325 0.2644415917843389 0.25288831835686776 0.24775353016688065 0.23748395378690634 0.2362002567394095 0.233632862644416 0.21181001283697048 0.18613607188703465 0.1771501925545571 0.1745827984595636 0.1745827984595636 0.17329910141206673,550.0 570.0 590.0 610.0 630.0 650.0 670.0 690.0 710.0 730.0 750.0 770.0 790.0 810.0 830.0 850.0 870.0 890.0 910.0 930.0 950.0 970.0 990.0 1010.0 1030.0 1050.0 1070.0 1090.0 1110.0 1130.0 1150.0
cb_10,14.0,enc_trial,stim,response,STEM students,1407.2799999999988,enc_trial,1.0,14.0,s_sh_24_1,student_shared,fold-b,desk organizer,10.0,competing,close,paired,s_sh_24_1.jpg,,student-b1,STEM students,Fine Arts students,sub-21,1.0,1.0,0.0,1.0,0.504813863928113 0.4749679075738126 0.43356867779204106 0.3815789473684211 0.3517329910141207 0.3093709884467266 0.30551989730423623 0.3045571245186136 0.3045571245186136 0.3045571245186136 0.3045571245186136 0.3045571245186136 0.3045571245186136 0.3045571245186136 0.30359435173299104 0.2910783055198973 0.2795250320924262 0.277599486521181 0.27278562259306804 0.251604621309371 0.2275353016688061 0.225609756097561 0.2227214377406932 0.21694480102695765 0.2111681643132221 0.2111681643132221 0.20827984595635432 0.20731707317073167 0.20731707317073167 0.2063543003851092 0.19383825417201545 0.18902439024390247 0.1842105263157895 0.18035943517329914 0.17458279845956354 0.1697689345314506 0.16688061617458286 0.16014120667522466 0.1562901155327343 0.1553273427471117 0.1553273427471117,0.8189987163029525 0.7458279845956355 0.6482670089858793 0.5558408215661104 0.5121951219512195 0.40436456996148906 0.3825417201540437 0.3774069319640565 0.3774069319640565 0.3774069319640565 0.3774069319640565 0.3774069319640565 0.3774069319640565 0.3774069319640565 0.3748395378690629 0.3427471116816432 0.3260590500641849 0.3234916559691913 0.3183568677792041 0.2991014120667522 0.2618741976893453 0.2580231065468549 0.2567394094993581 0.25032092426187424 0.24775353016688065 0.24775353016688065 0.24775353016688065 0.24646983311938386 0.2451861360718869 0.24005134788189986 0.2259306803594352 0.2220795892169448 0.21694480102695768 0.21181001283697048 0.2028241335044929 0.19255455712451866 0.18870346598202825 0.17843388960205386 0.16944801026957634 0.1681643132220796 0.1681643132220796,483.3200000000071 503.3200000000071 523.3200000000071 543.3200000000071 563.3200000000071 583.3200000000071 603.3200000000071 623.3200000000071 643.3200000000071 663.3200000000071 683.3200000000071 703.3200000000072 723.3200000000072 743.3200000000072 763.3200000000072 783.3200000000072 803.3200000000072 823.3200000000072 843.3200000000072 863.3200000000072 883.3200000000072 903.3200000000073 923.3200000000073 943.3200000000073 963.3200000000073 983.3200000000073 1003.3200000000073 1023.3200000000073 1043.320000000007 1063.320000000007 1083.320000000007 1103.320000000007 1123.320000000007 1143.320000000007 1163.320000000007 1183.320000000007 1203.320000000007 1223.320000000007 1243.320000000007 1263.320000000007 1283.320000000007
cb_10,15.0,enc_trial,stim,response,STEM students,1514.6199999999951,enc_trial,1.0,15.0,s_s_02_1,student_stem,fold-b,flask,10.0,unique,far,paired,s_s_02_1.jpg,stem,student-b1,STEM students,Fine Arts students,sub-21,1.0,1.0,1.0,1.0,0.4980744544287548 0.4932605905006418 0.4720795892169448 0.4720795892169448 0.4518613607188704 0.4422336328626445 0.4210526315789474 0.39698331193838254 0.36906290115532736 0.3507702182284981 0.3267008985879333 0.3189987163029525 0.3189987163029525 0.3170731707317073 0.3074454428754814 0.2795250320924262 0.27278562259306804 0.2679717586649551 0.2670089858793325 0.2631578947368421 0.25834403080872914 0.251604621309371 0.2448652118100129 0.2448652118100129 0.2284980744544288 0.21790757381258025 0.2092426187419769 0.2063543003851092 0.2063543003851092 0.20539152759948653 0.20539152759948653 0.20539152759948653 0.20539152759948653 0.20539152759948653 0.20539152759948653 0.18902439024390247 0.16591784338896026 0.15243902439024393 0.15147625160462133 0.15051347881899876 0.14762516046213095,0.8228498074454429 0.8177150192554556 0.7869062901155327 0.7869062901155327 0.7573812580231065 0.7252888318356867 0.668806161745828 0.6007702182284981 0.5263157894736843 0.4916559691912709 0.4326059050064185 0.4249037227214377 0.4249037227214377 0.42105263157894735 0.4159178433889602 0.4017971758664956 0.3992297817715019 0.3979460847240052 0.3979460847240052 0.3928112965340179 0.386392811296534 0.3812580231065469 0.3786906290115533 0.3786906290115533 0.3299101412066753 0.30680359435173304 0.29525032092426184 0.2939666238767651 0.29139922978177146 0.2901155327342747 0.2849807445442876 0.2849807445442876 0.2849807445442876 0.2849807445442876 0.2849807445442876 0.2426187419768935 0.20154043645699607 0.1810012836970475 0.17971758664955073 0.17971758664955073 0.1745827984595636,516.679999999993 536.679999999993 556.679999999993 576.679999999993 596.679999999993 616.679999999993 636.679999999993 656.679999999993 676.679999999993 696.679999999993 716.679999999993 736.679999999993 756.679999999993 776.679999999993 796.679999999993 816.679999999993 836.679999999993 856.679999999993 876.679999999993 896.679999999993 916.679999999993 936.679999999993 956.679999999993 976.679999999993 996.679999999993 1016.679999999993 1036.679999999993 1056.679999999993 1076.679999999993 1096.679999999993 1116.679999999993 1136.679999999993 1156.679999999993 1176.679999999993 1196.679999999993 1216.679999999993 1236.679999999993 1256.679999999993 1276.679999999993 1296.679999999993 1316.679999999993
cb_10,16.0,enc_trial,stim,response,Fine Arts students,1623.9400000000023,enc_trial,1.0,16.0,s_a_14_1,student_art,fold-c,guitar pick,10.0,unique,close,paired,s_a_14_1.jpg,art,student-b1,STEM students,Fine Arts students,sub-21,1.0,1.0,1.0,1.0,0.5038510911424904 0.504813863928113 0.5057766367137355 0.5028883183568678 0.4778562259306803 0.4749679075738126 0.4720795892169448 0.4614890885750963 0.4586007702182285 0.4566752246469833 0.4566752246469833 0.4566752246469833 0.4566752246469833 0.4566752246469833 0.4566752246469833 0.4566752246469833 0.4566752246469833 0.4566752246469833 0.4566752246469833 0.4566752246469833 0.4566752246469833 0.4566752246469833 0.4557124518613607 0.4489730423620026 0.4489730423620026 0.39505776636713735 0.3132220795892169 0.30551989730423623 0.3026315789473684 0.2862644415917844 0.282413350449294 0.282413350449294 0.282413350449294 0.282413350449294 0.282413350449294 0.282413350449294 0.2891527599486521 0.3979460847240052 0.5240693196405648 0.6838896020539152 0.7772785622593068 0.7907573812580231 0.7907573812580231 0.7907573812580231 0.7907573812580231 0.7897946084724005 0.7897946084724005 0.7897946084724005 0.7897946084724005 0.7897946084724005 0.7878690629011553 0.7869062901155327 0.7869062901155327 0.7974967907573812 0.8061617458279846 0.8186777920410783 0.8543003851091142 0.8571887034659821,0.8087291399229781 0.7817715019255456 0.7509627727856226 0.7163029525032092 0.6264441591784339 0.6059050064184852 0.558408215661104 0.4634146341463414 0.4351732991014121 0.4223363286264442 0.41720154043645696 0.41720154043645696 0.41720154043645696 0.41720154043645696 0.41720154043645696 0.41720154043645696 0.41720154043645696 0.41720154043645696 0.41720154043645696 0.41720154043645696 0.41720154043645696 0.41720154043645696 0.41720154043645696 0.4133504492939666 0.4133504492939666 0.3555840821566111 0.2734274711168164 0.2644415917843389 0.2618741976893453 0.24390243902439024 0.2426187419768935 0.2426187419768935 0.2426187419768935 0.2426187419768935 0.2426187419768935 0.2426187419768935 0.2426187419768935 0.24775353016688065 0.24005134788189986 0.2284980744544287 0.2246469833119384 0.2233632862644416 0.2233632862644416 0.2233632862644416 0.2220795892169448 0.2207958921694481 0.2207958921694481 0.2207958921694481 0.2207958921694481 0.21694480102695768 0.20539152759948653 0.18998716302952492 0.18870346598202825 0.1771501925545571 0.17201540436456994 0.16559691912708596 0.15019255455712455 0.15019255455712455,383.3399999999965 403.3399999999965 423.3399999999965 443.3399999999965 463.3399999999965 483.3399999999965 503.3399999999965 523.3399999999965 543.3399999999965 563.3399999999965 583.3399999999965 603.3399999999965 623.3399999999965 643.3399999999965 663.3399999999965 683.3399999999965 703.3399999999965 723.3399999999965 743.3399999999965 763.3399999999965 783.3399999999965 803.3399999999965 823.3399999999965 843.3399999999965 863.3399999999965 883.3399999999965 903.3399999999964 923.3399999999964 943.3399999999964 963.3399999999964 983.3399999999964 1003.3399999999964 1023.3399999999964 1043.3399999999963 1063.3399999999963 1083.3399999999963 1103.3399999999963 1123.3399999999963 1143.3399999999965 1163.3399999999965 1183.3399999999965 1203.3399999999965 1223.3399999999965 1243.3399999999965 1263.3399999999965 1283.3399999999965 1303.3399999999965 1323.3399999999965 1343.3399999999965 1363.3399999999965 1383.3399999999967 1403.3399999999967 1423.3399999999967 1443.3399999999967 1463.3399999999967 1483.3399999999967 1503.3399999999967 1523.3399999999967
cb_10,17.0,enc_trial,stim,response,STEM students,1439.2799999999988,enc_trial,1.0,17.0,s_sh_08_1,student_shared,fold-c-single,post-its,10.0,competing,,single,s_sh_08_1.jpg,,student-b1,STEM students,Fine Arts students,sub-21,1.0,,1.0,,0.4826700898587933 0.4518613607188704 0.4287548138639281 0.4017971758664955 0.36713735558408217 0.2978177150192555 0.2554557124518614 0.2439024390243903 0.2439024390243903 0.2429396662387677 0.2429396662387677 0.2429396662387677 0.2429396662387677 0.2429396662387677 0.2429396662387677 0.2429396662387677 0.2429396662387677 0.2429396662387677 0.2429396662387677 0.2429396662387677 0.2429396662387677 0.2429396662387677 0.2429396662387677 0.2429396662387677 0.2429396662387677 0.2429396662387677 0.2429396662387677 0.2429396662387677 0.2429396662387677 0.2429396662387677 0.2429396662387677 0.2429396662387677 0.2429396662387677 0.2429396662387677 0.2410141206675225 0.21694480102695765 0.2092426187419769 0.2005776636713736 0.194801026957638 0.18998716302952506 0.1822849807445443 0.17843388960205395 0.17554557124518616 0.17458279845956354 0.17458279845956354 0.16688061617458286,0.7637997432605905 0.6829268292682926 0.5943517329910142 0.4852374839537869 0.3940949935815148 0.23106546854942234 0.17586649550706035 0.16559691912708596 0.16559691912708596 0.16559691912708596 0.16559691912708596 0.16559691912708596 0.16559691912708596 0.16559691912708596 0.16559691912708596 0.16559691912708596 0.16559691912708596 0.16559691912708596 0.16302952503209245 0.16174582798459558 0.16174582798459558 0.16174582798459558 0.16174582798459558 0.16174582798459558 0.16174582798459558 0.16174582798459558 0.16302952503209245 0.16302952503209245 0.16302952503209245 0.16302952503209245 0.1643132220795892 0.1643132220795892 0.1643132220795892 0.1643132220795892 0.1643132220795892 0.16046213093709882 0.1578947368421053 0.15532734274711169 0.15404364569961493 0.1514762516046213 0.14762516046213092 0.1450577663671374 0.1450577663671374 0.1450577663671374 0.1450577663671374 0.1450577663671374,351.7200000000012 371.7200000000012 391.7200000000012 411.7200000000012 431.7200000000012 451.7200000000012 471.7200000000012 491.7200000000012 511.7200000000012 531.7200000000012 551.7200000000012 571.7200000000012 591.7200000000012 611.7200000000012 631.7200000000012 651.7200000000012 671.7200000000012 691.7200000000012 711.7200000000012 731.7200000000012 751.7200000000012 771.7200000000012 791.7200000000012 811.7200000000012 831.7200000000012 851.7200000000012 871.7200000000012 891.7200000000012 911.7200000000012 931.7200000000012 951.7200000000012 971.7200000000012 991.7200000000012 1011.7200000000012 1031.7200000000012 1051.7200000000012 1071.7200000000012 1091.7200000000012 1111.7200000000012 1131.7200000000012 1151.7200000000012 1171.7200000000012 1191.7200000000012 1211.7200000000012 1231.7200000000012 1251.7200000000012
cb_10,18.0,enc_trial,stim,response,Fine Arts students,1599.2200000000012,enc_trial,1.0,18.0,s_a_17_1,student_art,fold-b,microphone,10.0,unique,far,paired,s_a_17_1.jpg,art,student-b1,STEM students,Fine Arts students,sub-21,1.0,1.0,1.0,1.0,0.4913350449293967 0.4759306803594352 0.4653401797175867 0.4595635430038511 0.4518613607188704 0.4181643132220796 0.3767650834403081 0.34210526315789475 0.3228498074454429 0.3228498074454429 0.2910783055198973 0.282413350449294 0.27086007702182285 0.2621951219512195 0.2554557124518614 0.2439024390243903 0.2439024390243903 0.2429396662387677 0.2400513478818999 0.2400513478818999 0.2400513478818999 0.2400513478818999 0.2400513478818999 0.2400513478818999 0.2400513478818999 0.2400513478818999 0.2400513478818999 0.2400513478818999 0.2400513478818999 0.2400513478818999 0.2400513478818999 0.27278562259306804 0.3594351732991014 0.5365853658536586 0.62997432605905 0.62997432605905 0.7406931964056482 0.7676508344030809 0.7859435173299101 0.7917201540436457 0.7917201540436457 0.7917201540436457 0.8023106546854942 0.8186777920410783 0.8302310654685494 0.8398587933247753 0.8408215661103979 0.8408215661103979 0.8408215661103979 0.8408215661103979 0.8408215661103979 0.8504492939666238 0.8543003851091142 0.8552631578947368 0.8552631578947368 0.8552631578947368,0.8125802310654686 0.7843388960205392 0.7560975609756098 0.7342747111681643 0.7098844672657253 0.637997432605905 0.5571245186136071 0.4942233632862645 0.4608472400513479 0.4608472400513479 0.4223363286264442 0.4017971758664956 0.3671373555840821 0.3453145057766367 0.3299101412066753 0.30551989730423623 0.30551989730423623 0.3029525032092426 0.2991014120667522 0.2965340179717587 0.2965340179717587 0.2965340179717587 0.2965340179717587 0.2965340179717587 0.2965340179717587 0.2965340179717587 0.2965340179717587 0.2965340179717587 0.2991014120667522 0.2991014120667522 0.2991014120667522 0.28883183568677795 0.28241335044929394 0.2349165596919127 0.20795892169448005 0.20795892169448005 0.17971758664955073 0.16944801026957634 0.15661103979460844 0.14890885750962768 0.14762516046213092 0.14762516046213092 0.1450577663671374 0.13992297817715016 0.1386392811296534 0.1386392811296534 0.1386392811296534 0.1386392811296534 0.1386392811296534 0.1386392811296534 0.1386392811296534 0.13992297817715016 0.13992297817715016 0.13992297817715016 0.13992297817715016 0.14120667522464705,416.6600000000035 436.6600000000035 456.6600000000035 476.6600000000035 496.6600000000035 516.6600000000035 536.6600000000035 556.6600000000035 576.6600000000035 596.6600000000035 616.6600000000035 636.6600000000035 656.6600000000035 676.6600000000035 696.6600000000035 716.6600000000035 736.6600000000035 756.6600000000035 776.6600000000035 796.6600000000035 816.6600000000035 836.6600000000035 856.6600000000035 876.6600000000035 896.6600000000035 916.6600000000036 936.6600000000036 956.6600000000036 976.6600000000036 996.6600000000036 1016.6600000000036 1036.6600000000037 1056.6600000000037 1076.6600000000037 1096.6600000000037 1116.6600000000037 1136.6600000000035 1156.6600000000035 1176.6600000000035 1196.6600000000035 1216.6600000000035 1236.6600000000035 1256.6600000000035 1276.6600000000035 1296.6600000000035 1316.6600000000035 1336.6600000000035 1356.6600000000035 1376.6600000000033 1396.6600000000033 1416.6600000000033 1436.6600000000033 1456.6600000000033 1476.6600000000033 1496.6600000000033 1516.6600000000033
cb_10,19.0,enc_trial,stim,response,Fine Arts students,1345.2000000000114,enc_trial,1.0,19.0,s_a_14_2,student_art,fold-c,guitar pick,10.0,unique,close,paired,s_a_14_2.jpg,art,student-b1,STEM students,Fine Arts students,sub-21,1.0,1.0,1.0,1.0,0.4759306803594352 0.4133504492939665 0.3498074454428755 0.2872272143774069 0.2284980744544288 0.1562901155327343 0.1399229781771502 0.13703465982028246 0.13703465982028246 0.13703465982028246 0.16206675224646985 0.20827984595635432 0.2958921694480103 0.4672657252888318 0.6126444159178434 0.8494865211810012 0.9245827984595636 0.9602053915275994 0.975609756097561 0.975609756097561 0.975609756097561 0.975609756097561 0.975609756097561 0.975609756097561 0.9794608472400512 0.9890885750962772 0.9910141206675226 0.9910141206675226 0.9833119383825416 0.9833119383825416 0.9621309370988448 0.956354300385109 0.954428754813864 0.9515404364569962 0.9438382541720154 0.9390243902439024 0.9332477535301668 0.9322849807445442,0.7843388960205392 0.6713735558408216 0.5712451861360719 0.4428754813863928 0.33761232349165593 0.17586649550706035 0.14762516046213092 0.12451861360718874 0.12451861360718874 0.12451861360718874 0.12195121951219512 0.1193838254172015 0.12451861360718874 0.10397946084724008 0.09370988446726568 0.07958921694480102 0.08087291399229779 0.08600770218228493 0.08857509627727855 0.08857509627727855 0.08857509627727855 0.08857509627727855 0.08857509627727855 0.08857509627727855 0.09370988446726568 0.10397946084724008 0.10526315789473684 0.10526315789473684 0.1065468549422336 0.1065468549422336 0.1193838254172015 0.12066752246469835 0.12451861360718874 0.12708600770218226 0.1322207958921694 0.13350449293966626 0.13478818998716302 0.13478818998716302,550.0 570.0 590.0 610.0 630.0 650.0 670.0 690.0 710.0 730.0 750.0 770.0 790.0 810.0 830.0 850.0 870.0 890.0 910.0 930.0 950.0 970.0 990.0 1010.0 1030.0 1050.0 1070.0 1090.0 1110.0 1130.0 1150.0 1170.0 1190.0 1210.0 1230.0 1250.0 1270.0 1290.0
cb_10,20.0,enc_trial,stim,response,Fine Arts students,1582.179999999993,enc_trial,1.0,20.0,s_sh_24_2,student_shared,fold-b,desk organizer,10.0,competing,close,paired,s_sh_24_2.jpg,,student-b1,STEM students,Fine Arts students,sub-21,1.0,1.0,0.0,1.0,0.4922978177150192 0.4922978177150192 0.4826700898587933 0.4614890885750963 0.4441591784338896 0.42201540436457 0.4027599486521181 0.3247753530166881 0.2862644415917844 0.2670089858793325 0.2381258023106547 0.2362002567394096 0.2381258023106547 0.2670089858793325 0.3286264441591785 0.3767650834403081 0.4326059050064185 0.6097560975609756 0.6290115532734275 0.62997432605905 0.6318998716302953 0.6367137355584082 0.6376765083440308 0.6405648267008985 0.6444159178433889 0.6559691912708601 0.6627086007702182 0.670410783055199 0.670410783055199 0.6752246469833121 0.6906290115532734 0.712772785622593 0.7175866495507061 0.7185494223363286 0.7252888318356867 0.748395378690629 0.7522464698331194 0.7522464698331194 0.7532092426187421 0.7609114249037227 0.7869062901155327 0.7878690629011553 0.7907573812580231 0.8032734274711167 0.8177150192554556 0.8408215661103979 0.8668164313222081 0.8783697047496791 0.8908857509627728 0.9043645699614892 0.9159178433889602,0.7971758664955071 0.7971758664955071 0.7766367137355584 0.7458279845956355 0.7124518613607189 0.6675224646983312 0.637997432605905 0.5353016688061618 0.4929396662387676 0.4685494223363287 0.4338896020539153 0.4287548138639281 0.4287548138639281 0.4300385109114249 0.4287548138639281 0.4287548138639281 0.4300385109114249 0.4159178433889602 0.4069319640564827 0.4069319640564827 0.4056482670089859 0.3966623876765083 0.3915275994865212 0.3786906290115533 0.3697047496790757 0.3388960205391528 0.3260590500641849 0.3183568677792041 0.3183568677792041 0.3119383825417201 0.29268292682926833 0.2657252888318357 0.2605905006418485 0.2605905006418485 0.2554557124518614 0.2490372272143773 0.24775353016688065 0.24775353016688065 0.24775353016688065 0.2426187419768935 0.2259306803594352 0.2259306803594352 0.2207958921694481 0.21052631578947367 0.20154043645699607 0.1771501925545571 0.15661103979460844 0.14890885750962768 0.14377406931964054 0.13735558408215665 0.13478818998716302,500.0 520.0 540.0 560.0 580.0 600.0 620.0 640.0 660.0 680.0 700.0 720.0 740.0 760.0 780.0 800.0 820.0 840.0 860.0 880.0 900.0 920.0 940.0 960.0 980.0 1000.0 1020.0 1040.0 1060.0 1080.0 1100.0 1120.0 1140.0 1160.0 1180.0 1200.0 1220.0 1240.0 1260.0 1280.0 1300.0 1320.0 1340.0 1360.0 1380.0 1400.0 1420.0 1440.0 1460.0 1480.0 1500.0
cb_10,21.0,enc_trial,stim,response,STEM students,1863.9400000000023,enc_trial,1.0,21.0,s_sh_19_1,student_shared,fold-a,portable plastic drawer,10.0,competing,far,paired,s_sh_19_1.jpg,,student-b1,STEM students,Fine Arts students,sub-21,1.0,1.0,0.0,0.0,0.4942233632862644 0.4720795892169448 0.44801026957638 0.4114249037227215 0.3844672657252888 0.3469191270860077 0.3324775353016688 0.32958921694480103 0.32958921694480103 0.3305519897304237 0.3324775353016688 0.3324775353016688 0.3324775353016688 0.3324775353016688 0.3324775353016688 0.3324775353016688 0.3324775353016688 0.3324775353016688 0.3324775353016688 0.3324775353016688 0.3324775353016688 0.3324775353016688 0.3324775353016688 0.3324775353016688 0.334403080872914 0.3353658536585366 0.3353658536585366 0.3353658536585366 0.3353658536585366 0.3315147625160462 0.3170731707317073 0.2843388960205392 0.2670089858793325 0.2670089858793325 0.2631578947368421 0.2554557124518614 0.2410141206675225 0.2362002567394096 0.23427471116816434 0.23234916559691915 0.2246469833119384 0.21790757381258025 0.2121309370988447 0.2063543003851092 0.20154043645699607 0.1842105263157895 0.16495507060333764 0.1553273427471117 0.1437740693196406 0.13222079589216948 0.12259306803594355 0.11970474967907575 0.11970474967907575,0.8061617458279846 0.748395378690629 0.6944801026957639 0.5969191270860077 0.5468549422336328 0.4749679075738126 0.4467265725288832 0.42747111681643135 0.42105263157894735 0.4082156611039793 0.40436456996148906 0.40436456996148906 0.4017971758664956 0.4017971758664956 0.4017971758664956 0.4017971758664956 0.4017971758664956 0.4017971758664956 0.4017971758664956 0.4017971758664956 0.4017971758664956 0.4017971758664956 0.4017971758664956 0.4017971758664956 0.4017971758664956 0.4017971758664956 0.4017971758664956 0.4017971758664956 0.4017971758664956 0.3979460847240052 0.3812580231065469 0.35686777920410784 0.3453145057766367 0.3453145057766367 0.3427471116816432 0.33376123234916555 0.3170731707317073 0.313222079589217 0.3093709884467266 0.30680359435173304 0.29268292682926833 0.27984595635430043 0.26957637997432604 0.2618741976893453 0.2541720154043645 0.2323491655969191 0.21181001283697048 0.1976893453145057 0.18998716302952492 0.18613607188703465 0.17586649550706035 0.1745827984595636 0.17329910141206673,416.6600000000035 436.6600000000035 456.6600000000035 476.6600000000035 496.6600000000035 516.6600000000035 536.6600000000035 556.6600000000035 576.6600000000035 596.6600000000035 616.6600000000035 636.6600000000035 656.6600000000035 676.6600000000035 696.6600000000035 716.6600000000035 736.6600000000035 756.6600000000035 776.6600000000035 796.6600000000035 816.6600000000035 836.6600000000035 856.6600000000035 876.6600000000035 896.6600000000035 916.6600000000036 936.6600000000036 956.6600000000036 976.6600000000036 996.6600000000036 1016.6600000000036 1036.6600000000037 1056.6600000000037 1076.6600000000037 1096.6600000000037 1116.6600000000037 1136.6600000000035 1156.6600000000035 1176.6600000000035 1196.6600000000035 1216.6600000000035 1236.6600000000035 1256.6600000000035 1276.6600000000035 1296.6600000000035 1316.6600000000035 1336.6600000000035 1356.6600000000035 1376.6600000000033 1396.6600000000033 1416.6600000000033 1436.6600000000033 1456.6600000000033
cb_10,22.0,enc_trial,stim,response,Fine Arts students,1746.2399999999911,enc_trial,1.0,22.0,s_sh_07_1,student_shared,fold-a,ruler,10.0,competing,far,paired,s_sh_07_1.jpg,,student-b1,STEM students,Fine Arts students,sub-21,1.0,1.0,1.0,0.0,0.5019255455712451 0.4971116816431322 0.4865211810012837 0.4624518613607189 0.4508985879332478 0.4354942233632863 0.4229781771501925 0.4162387676508344 0.4114249037227215 0.4056482670089859 0.3979460847240052 0.3979460847240052 0.3979460847240052 0.3979460847240052 0.3979460847240052 0.3979460847240052 0.3979460847240052 0.3979460847240052 0.3979460847240052 0.3979460847240052 0.3979460847240052 0.3979460847240052 0.3979460847240052 0.3979460847240052 0.3979460847240052 0.3921694480102696 0.3844672657252888 0.3748395378690629 0.3661745827984596 0.3372913992297818 0.25641848523748395 0.2121309370988447 0.17650834403080876 0.1562901155327343 0.1562901155327343 0.16302952503209245 0.17650834403080876 0.2111681643132221 0.2891527599486521 0.4210526315789474 0.7917201540436457 0.902439024390244 0.9659820282413352 0.9929396662387676 0.9987163029525032 0.999679075738126 0.999679075738126 0.999679075738126 0.999679075738126 0.999679075738126 0.999679075738126 0.999679075738126 0.999679075738126 0.9977535301668808 0.9746469833119384 0.9207317073170732 0.9082156611039794 0.9043645699614892 0.9043645699614892,0.8241335044929397 0.8125802310654686 0.7907573812580231 0.7445442875481386 0.7201540436456997 0.6842105263157895 0.6508344030808729 0.6367137355584083 0.6264441591784339 0.6020539152759949 0.5712451861360719 0.5712451861360719 0.5712451861360719 0.5712451861360719 0.5712451861360719 0.5712451861360719 0.5712451861360719 0.5712451861360719 0.5712451861360719 0.5712451861360719 0.5712451861360719 0.5712451861360719 0.5712451861360719 0.5712451861360719 0.5725288831835686 0.5699614890885751 0.5558408215661104 0.5301668806161746 0.509627727856226 0.4659820282413351 0.3709884467265725 0.313222079589217 0.26957637997432604 0.24775353016688065 0.2451861360718869 0.2349165596919127 0.233632862644416 0.2413350449293966 0.2490372272143773 0.2554557124518614 0.2387676508344031 0.2323491655969191 0.2349165596919127 0.2297817715019256 0.227214377406932 0.227214377406932 0.227214377406932 0.227214377406932 0.227214377406932 0.227214377406932 0.227214377406932 0.227214377406932 0.227214377406932 0.2207958921694481 0.2028241335044929 0.18228498074454424 0.1771501925545571 0.1745827984595636 0.17329910141206673,400.0 420.0 440.0 460.0 480.0 500.0 520.0 540.0 560.0 580.0 600.0 620.0 640.0 660.0 680.0 700.0 720.0 740.0 760.0 780.0 800.0 820.0 840.0 860.0 880.0 900.0 920.0 940.0 960.0 980.0 1000.0 1020.0 1040.0 1060.0 1080.0 1100.0 1120.0 1140.0 1160.0 1180.0 1200.0 1220.0 1240.0 1260.0 1280.0 1300.0 1320.0 1340.0 1360.0 1380.0 1400.0 1420.0 1440.0 1460.0 1480.0 1500.0 1520.0 1540.0 1560.0
cb_10,23.0,enc_trial,stim,response,STEM students,2039.2399999999911,enc_trial,1.0,23.0,s_s_01_1,student_stem,fold-b,microscope,10.0,unique,far,paired,s_s_01_1.jpg,stem,student-b1,STEM students,Fine Arts students,sub-21,1.0,1.0,1.0,1.0,0.4990372272143774 0.4913350449293967 0.4826700898587933 0.4768934531450578 0.4643774069319641 0.4557124518613607 0.4557124518613607 0.4557124518613607 0.4595635430038511 0.4605263157894737 0.4566752246469833 0.4576379974326059 0.4576379974326059 0.4576379974326059 0.4576379974326059 0.4576379974326059 0.4576379974326059 0.4576379974326059 0.4576379974326059 0.4576379974326059 0.4576379974326059 0.4586007702182285 0.4586007702182285 0.4586007702182285 0.4586007702182285 0.4586007702182285 0.4614890885750963 0.4701540436456996 0.4971116816431322 0.5587291399229781 0.6636713735558408 0.691591784338896 0.691591784338896 0.691591784338896 0.691591784338896 0.6713735558408216 0.6367137355584082 0.6367137355584082 0.57798459563543 0.57798459563543 0.5317715019255456 0.52599486521181 0.5240693196405648 0.521181001283697 0.5182926829268293 0.5105905006418485 0.5019255455712451 0.5 0.4942233632862644 0.4451219512195122 0.3989088575096277 0.3883183568677792 0.3748395378690629 0.3507702182284981 0.3353658536585366 0.3074454428754814 0.29878048780487804 0.2843388960205392 0.2544929396662388 0.2544929396662388 0.2265725288831836 0.2207958921694481 0.21983311938382544 0.21983311938382544 0.21983311938382544 0.21983311938382544 0.21983311938382544 0.21983311938382544 0.21983311938382544 0.21983311938382544 0.2111681643132221 0.1986521181001284 0.1813222079589217 0.16399229781771504 0.1553273427471117 0.15243902439024393,0.8112965340179717 0.7869062901155327 0.766367137355584 0.7445442875481386 0.7073170731707317 0.6777920410783056 0.6636713735558408 0.6405648267008985 0.6123234916559692 0.5738125802310654 0.5327342747111682 0.5314505776636713 0.5314505776636713 0.5314505776636713 0.5301668806161746 0.5301668806161746 0.5301668806161746 0.5301668806161746 0.5301668806161746 0.5301668806161746 0.5301668806161746 0.5327342747111682 0.5353016688061618 0.5353016688061618 0.5378690629011553 0.5378690629011553 0.5288831835686778 0.5160462130937099 0.4852374839537869 0.4403080872913993 0.3607188703465982 0.3324775353016688 0.3324775353016688 0.3299101412066753 0.3299101412066753 0.3196405648267009 0.3170731707317073 0.3170731707317073 0.3093709884467266 0.3093709884467266 0.2939666238767651 0.2901155327342747 0.2875481386392811 0.2849807445442876 0.2836970474967908 0.28241335044929394 0.27984595635430043 0.27984595635430043 0.2785622593068036 0.2670089858793325 0.24775353016688065 0.24390243902439024 0.23748395378690634 0.23106546854942234 0.227214377406932 0.227214377406932 0.2259306803594352 0.21694480102695768 0.2066752246469833 0.2066752246469833 0.20154043645699607 0.2002567394094994 0.2002567394094994 0.2002567394094994 0.2002567394094994 0.2002567394094994 0.2002567394094994 0.2002567394094994 0.2002567394094994 0.19897304236200253 0.19897304236200253 0.19897304236200253 0.19127086007702188 0.1745827984595636 0.16688061617458286 0.16559691912708596,450.0 470.0 490.0 510.0 530.0 550.0 570.0 590.0 610.0 630.0 650.0 670.0 690.0 710.0 730.0 750.0 770.0 790.0 810.0 830.0 850.0 870.0 890.0 910.0 930.0 950.0 970.0 990.0 1010.0 1030.0 1050.0 1070.0 1090.0 1110.0 1130.0 1150.0 1170.0 1190.0 1210.0 1230.0 1250.0 1270.0 1290.0 1310.0 1330.0 1350.0 1370.0 1390.0 1410.0 1430.0 1450.0 1470.0 1490.0 1510.0 1530.0 1550.0 1570.0 1590.0 1610.0 1630.0 1650.0 1670.0 1690.0 1710.0 1730.0 1750.0 1770.0 1790.0 1810.0 1830.0 1850.0 1870.0 1890.0 1910.0 1930.0 1950.0
cb_10,24.0,enc_trial,stim,response,Fine Arts students,1416.679999999993,enc_trial,1.0,24.0,s_a_16_1,student_art,fold-b,piano,10.0,unique,far,paired,s_a_16_1.jpg,art,student-b1,STEM students,Fine Arts students,sub-21,1.0,1.0,1.0,1.0,0.5019255455712451 0.4971116816431322 0.4884467265725289 0.4778562259306803 0.4643774069319641 0.4277920410783056 0.40949935815147626 0.39698331193838254 0.39698331193838254 0.3883183568677792 0.37098844672657255 0.355584082156611 0.3488446726572529 0.34210526315789475 0.3286264441591785 0.2949293966623877 0.282413350449294 0.282413350449294 0.282413350449294 0.2814505776636714 0.3045571245186136 0.3045571245186136 0.4249037227214377 0.5770218228498074 0.7541720154043645 0.7830551989730423 0.8745186136071886 0.9062901155327342 0.9072528883183568 0.9072528883183568 0.9034017971758664 0.9014762516046212 0.9014762516046212 0.9014762516046212 0.9014762516046212 0.8937740693196405 0.8822207958921694 0.8793324775353016 0.8774069319640565 0.8754813863928113 0.8745186136071886 0.8716302952503209 0.8716302952503209 0.8716302952503209,0.7933247753530167 0.7817715019255456 0.7573812580231065 0.7291399229781772 0.7034659820282414 0.637997432605905 0.6046213093709885 0.5917843388960206 0.5917843388960206 0.5635430038510911 0.5288831835686778 0.5109114249037228 0.4890885750962772 0.4685494223363287 0.4428754813863928 0.4005134788189987 0.3851091142490373 0.3851091142490373 0.3812580231065469 0.37612323491655975 0.3671373555840821 0.3671373555840821 0.35943517329910146 0.3581514762516046 0.3607188703465982 0.36585365853658536 0.32734274711168165 0.3196405648267009 0.3183568677792041 0.3157894736842105 0.3119383825417201 0.3119383825417201 0.3119383825417201 0.3119383825417201 0.3119383825417201 0.30423620025673936 0.28883183568677795 0.28241335044929394 0.2682926829268293 0.2156611039794608 0.13478818998716302 0.1193838254172015 0.11681643132220798 0.11553273427471113,416.6600000000035 436.6600000000035 456.6600000000035 476.6600000000035 496.6600000000035 516.6600000000035 536.6600000000035 556.6600000000035 576.6600000000035 596.6600000000035 616.6600000000035 636.6600000000035 656.6600000000035 676.6600000000035 696.6600000000035 716.6600000000035 736.6600000000035 756.6600000000035 776.6600000000035 796.6600000000035 816.6600000000035 836.6600000000035 856.6600000000035 876.6600000000035 896.6600000000035 916.6600000000036 936.6600000000036 956.6600000000036 976.6600000000036 996.6600000000036 1016.6600000000036 1036.6600000000037 1056.6600000000037 1076.6600000000037 1096.6600000000037 1116.6600000000037 1136.6600000000035 1156.6600000000035 1176.6600000000035 1196.6600000000035 1216.6600000000035 1236.6600000000035 1256.6600000000035 1276.6600000000035
cb_10,25.0,enc_trial,stim,response,Fine Arts students,1789.6000000000058,enc_trial,1.0,25.0,s_a_15_1,student_art,fold-d-single,drum kit,10.0,unique,,single,s_a_15_1.jpg,art,student-b1,STEM students,Fine Arts students,sub-21,1.0,,1.0,,0.4817073170731707 0.4903722721437741 0.4961489088575096 0.4980744544287548 0.4980744544287548 0.4980744544287548 0.4980744544287548 0.4980744544287548 0.4980744544287548 0.4980744544287548 0.4980744544287548 0.4980744544287548 0.4942233632862644 0.4913350449293967 0.4903722721437741 0.4749679075738126 0.47400513478818995 0.4913350449293967 0.5433247753530167 0.5635430038510911 0.5702824133504493 0.5587291399229781 0.540436456996149 0.5202182284980744 0.5057766367137355 0.5057766367137355 0.5057766367137355 0.5057766367137355 0.5057766367137355 0.5182926829268293 0.52599486521181 0.5144415917843389 0.4865211810012837 0.4557124518613607 0.4441591784338896 0.4441591784338896 0.4518613607188704 0.5 0.5847240051347882 0.7445442875481386 0.8543003851091142 0.9178433889602052 0.9178433889602052 0.9178433889602052 0.9178433889602052 0.9178433889602052 0.9178433889602052 0.918806161745828 0.9216944801026956 0.9274711168164312 0.9332477535301668 0.9428754813863928 0.9496148908857508 0.9582798459563544 0.9582798459563544 0.9582798459563544 0.9573170731707316 0.956354300385109 0.956354300385109 0.9582798459563544 0.9582798459563544 0.956354300385109 0.956354300385109 0.9525032092426188 0.9486521181001284 0.9457637997432604 0.944801026957638 0.944801026957638 0.944801026957638 0.944801026957638 0.9265083440308088 0.9043645699614892 0.9034017971758664 0.9034017971758664,0.8228498074454429 0.8189987163029525 0.8164313222079589 0.8151476251604621 0.8151476251604621 0.8151476251604621 0.8151476251604621 0.8151476251604621 0.8151476251604621 0.8151476251604621 0.8151476251604621 0.8151476251604621 0.810012836970475 0.8023106546854942 0.7817715019255456 0.6431322207958922 0.5648267008985879 0.496790757381258 0.40436456996148906 0.3709884467265725 0.35044929396662383 0.34403080872913994 0.3427471116816432 0.3491655969191271 0.35686777920410784 0.3581514762516046 0.3581514762516046 0.3581514762516046 0.3581514762516046 0.3491655969191271 0.33376123234916555 0.3260590500641849 0.3170731707317073 0.3093709884467266 0.3093709884467266 0.3093709884467266 0.3080872913992297 0.2862644415917843 0.24775353016688065 0.19897304236200253 0.1514762516046213 0.12323491655969188 0.12323491655969188 0.12323491655969188 0.12323491655969188 0.12323491655969188 0.12323491655969188 0.12323491655969188 0.12323491655969188 0.12323491655969188 0.12323491655969188 0.12323491655969188 0.12323491655969188 0.12323491655969188 0.12323491655969188 0.12323491655969188 0.12451861360718874 0.12451861360718874 0.13093709884467264 0.13735558408215665 0.13735558408215665 0.1386392811296534 0.1386392811296534 0.1386392811296534 0.1386392811296534 0.1386392811296534 0.1386392811296534 0.1386392811296534 0.13992297817715016 0.13992297817715016 0.1450577663671374 0.15019255455712455 0.15019255455712455 0.1514762516046213,316.67999999999296 336.67999999999296 356.6799999999929 376.6799999999929 396.6799999999929 416.6799999999929 436.6799999999929 456.6799999999929 476.6799999999929 496.6799999999929 516.679999999993 536.679999999993 556.679999999993 576.679999999993 596.679999999993 616.679999999993 636.679999999993 656.679999999993 676.679999999993 696.679999999993 716.679999999993 736.679999999993 756.679999999993 776.679999999993 796.679999999993 816.679999999993 836.679999999993 856.679999999993 876.679999999993 896.679999999993 916.679999999993 936.679999999993 956.679999999993 976.679999999993 996.679999999993 1016.679999999993 1036.679999999993 1056.679999999993 1076.679999999993 1096.679999999993 1116.679999999993 1136.679999999993 1156.679999999993 1176.679999999993 1196.679999999993 1216.679999999993 1236.679999999993 1256.679999999993 1276.679999999993 1296.679999999993 1316.679999999993 1336.679999999993 1356.679999999993 1376.679999999993 1396.679999999993 1416.679999999993 1436.679999999993 1456.679999999993 1476.679999999993 1496.679999999993 1516.679999999993 1536.679999999993 1556.679999999993 1576.679999999993 1596.679999999993 1616.679999999993 1636.679999999993 1656.679999999993 1676.679999999993 1696.679999999993 1716.679999999993 1736.679999999993 1756.679999999993 1776.679999999993
cb_10,26.0,enc_trial,stim,response,STEM students,1942.5799999999872,enc_trial,1.0,26.0,s_sh_16_2,student_shared,fold-a,stapler,10.0,competing,far,paired,s_sh_16_2.jpg,,student-b1,STEM students,Fine Arts students,sub-21,1.0,1.0,1.0,1.0,0.4961489088575096 0.4903722721437741 0.4903722721437741 0.4845956354300385 0.4768934531450578 0.4441591784338896 0.4364569961489089 0.4316431322207959 0.4297175866495507 0.4306803594351733 0.4460847240051348 0.4489730423620026 0.4489730423620026 0.4489730423620026 0.4489730423620026 0.4489730423620026 0.4489730423620026 0.4489730423620026 0.4499358151476252 0.4518613607188704 0.4576379974326059 0.4605263157894737 0.4614890885750963 0.4605263157894737 0.4672657252888318 0.5462130937098845 0.5481386392811296 0.5712451861360719 0.5943517329910141 0.6136071887034661 0.6309370988446726 0.6338254172015404 0.6376765083440308 0.6434531450577664 0.6540436456996149 0.6983311938382541 0.7301026957637997 0.7522464698331194 0.7724646983311938 0.7772785622593068 0.7917201540436457 0.8061617458279846 0.8177150192554556 0.8254172015404364 0.8292682926829268 0.8292682926829268 0.8292682926829268 0.8292682926829268 0.8292682926829268 0.8292682926829268 0.8292682926829268 0.6887034659820283 0.5760590500641849 0.4614890885750963 0.2785622593068036 0.1909499358151477 0.14858793324775355 0.14858793324775355 0.14858793324775355 0.14666238767650838 0.1418485237483954 0.13510911424903727 0.1283697047496791 0.11874197689345314 0.10333761232349167 0.08697047496790761 0.08600770218228501 0.08600770218228501 0.08600770218228501 0.08600770218228501 0.09370988446726576 0.12066752246469835 0.1283697047496791 0.1293324775353017,0.8228498074454429 0.7881899871630296 0.7008985879332478 0.6277278562259307 0.5545571245186136 0.4659820282413351 0.4531450577663672 0.4467265725288832 0.4454428754813864 0.4454428754813864 0.4428754813863928 0.4428754813863928 0.4428754813863928 0.4428754813863928 0.4428754813863928 0.4428754813863928 0.4428754813863928 0.4428754813863928 0.4428754813863928 0.4441591784338896 0.4377406931964056 0.4326059050064185 0.42362002567394097 0.4133504492939666 0.3979460847240052 0.3453145057766367 0.3453145057766367 0.3388960205391528 0.33119383825417203 0.32734274711168165 0.32092426187419765 0.32092426187419765 0.32092426187419765 0.3196405648267009 0.3145057766367137 0.2772785622593068 0.24646983311938386 0.2259306803594352 0.21437740693196405 0.21181001283697048 0.20154043645699607 0.19255455712451866 0.18613607188703465 0.17971758664955073 0.1771501925545571 0.1771501925545571 0.1771501925545571 0.1771501925545571 0.1771501925545571 0.1771501925545571 0.1771501925545571 0.16302952503209245 0.16302952503209245 0.13992297817715016 0.14634146341463414 0.1681643132220796 0.1835686777920411 0.1835686777920411 0.1835686777920411 0.1835686777920411 0.18613607188703465 0.18998716302952492 0.19127086007702188 0.19640564826700896 0.20154043645699607 0.20539152759948653 0.2066752246469833 0.2066752246469833 0.2066752246469833 0.2066752246469833 0.20154043645699607 0.17843388960205386 0.17201540436456994 0.1707317073170732,383.3399999999965 403.3399999999965 423.3399999999965 443.3399999999965 463.3399999999965 483.3399999999965 503.3399999999965 523.3399999999965 543.3399999999965 563.3399999999965 583.3399999999965 603.3399999999965 623.3399999999965 643.3399999999965 663.3399999999965 683.3399999999965 703.3399999999965 723.3399999999965 743.3399999999965 763.3399999999965 783.3399999999965 803.3399999999965 823.3399999999965 843.3399999999965 863.3399999999965 883.3399999999965 903.3399999999964 923.3399999999964 943.3399999999964 963.3399999999964 983.3399999999964 1003.3399999999964 1023.3399999999964 1043.3399999999963 1063.3399999999963 1083.3399999999963 1103.3399999999963 1123.3399999999963 1143.3399999999965 1163.3399999999965 1183.3399999999965 1203.3399999999965 1223.3399999999965 1243.3399999999965 1263.3399999999965 1283.3399999999965 1303.3399999999965 1323.3399999999965 1343.3399999999965 1363.3399999999965 1383.3399999999967 1403.3399999999967 1423.3399999999967 1443.3399999999967 1463.3399999999967 1483.3399999999967 1503.3399999999967 1523.3399999999967 1543.3399999999967 1563.3399999999967 1583.3399999999967 1603.3399999999967 1623.3399999999967 1643.3399999999967 1663.3399999999967 1683.3399999999967 1703.3399999999967 1723.3399999999967 1743.3399999999967 1763.3399999999967 1783.3399999999967 1803.3399999999967 1823.3399999999967 1843.3399999999967
cb_10,27.0,enc_trial,stim,response,STEM students,1292.5599999999977,enc_trial,1.0,27.0,s_sh_14_1,student_shared,fold-b,printer,10.0,competing,close,paired,s_sh_14_1.jpg,,student-b1,STEM students,Fine Arts students,sub-21,0.0,0.0,1.0,1.0,0.4942233632862644 0.4884467265725289 0.4865211810012837 0.4826700898587933 0.4768934531450578 0.4614890885750963 0.4586007702182285 0.4557124518613607 0.4518613607188704 0.4451219512195122 0.4364569961489089 0.4297175866495507 0.417201540436457 0.4056482670089859 0.386392811296534 0.3517329910141207 0.3478818998716303 0.3382541720154044 0.3209242618741977 0.2939666238767651 0.23427471116816434 0.1976893453145058 0.1976893453145058 0.194801026957638 0.19191270860077025 0.18709884467265728 0.17843388960205395 0.17650834403080876 0.17073170731707318 0.15917843388960207 0.15051347881899876 0.13799743260590502 0.13607188703465986 0.13510911424903727 0.13414634146341467,0.8151476251604621 0.7920410783055198 0.7715019255455713 0.7432605905006419 0.6996148908857509 0.6585365853658536 0.6482670089858793 0.6392811296534018 0.6277278562259307 0.5943517329910142 0.5044929396662388 0.4364569961489089 0.3953786906290115 0.3709884467265725 0.3555840821566111 0.3222079589216945 0.3170731707317073 0.3093709884467266 0.29139922978177146 0.2644415917843389 0.2297817715019256 0.21694480102695768 0.21694480102695768 0.21694480102695768 0.21694480102695768 0.21694480102695768 0.21437740693196405 0.21437740693196405 0.21181001283697048 0.2092426187419769 0.2066752246469833 0.1976893453145057 0.1938382541720154 0.19127086007702188 0.19127086007702188,516.6600000000035 536.6600000000035 556.6600000000035 576.6600000000035 596.6600000000035 616.6600000000035 636.6600000000035 656.6600000000035 676.6600000000035 696.6600000000035 716.6600000000035 736.6600000000035 756.6600000000035 776.6600000000035 796.6600000000035 816.6600000000035 836.6600000000035 856.6600000000035 876.6600000000035 896.6600000000035 916.6600000000036 936.6600000000036 956.6600000000036 976.6600000000036 996.6600000000036 1016.6600000000036 1036.6600000000037 1056.6600000000037 1076.6600000000037 1096.6600000000037 1116.6600000000037 1136.6600000000035 1156.6600000000035 1176.6600000000035 1196.6600000000035
cb_10,28.0,enc_trial,stim,response,STEM students,1400.0199999999895,enc_trial,1.0,28.0,s_s_11_1,student_stem,fold-d-single,scientific scale,10.0,unique,,single,s_s_11_1.jpg,stem,student-b1,STEM students,Fine Arts students,sub-21,1.0,,1.0,,0.4951861360718871 0.4932605905006418 0.4903722721437741 0.4817073170731707 0.4711168164313222 0.4663029525032093 0.4663029525032093 0.4663029525032093 0.4663029525032093 0.4663029525032093 0.4663029525032093 0.4663029525032093 0.43934531450577663 0.4104621309370988 0.36713735558408217 0.2698973042362003 0.2362002567394096 0.20731707317073167 0.17843388960205395 0.17073170731707318 0.16302952503209245 0.16110397946084726 0.16110397946084726 0.16014120667522466 0.16014120667522466 0.16014120667522466 0.16014120667522466 0.16014120667522466 0.15917843388960207 0.15917843388960207 0.15917843388960207 0.15917843388960207 0.15917843388960207 0.1582156611039795 0.1572528883183569 0.1572528883183569 0.1572528883183569 0.1572528883183569 0.1572528883183569 0.1572528883183569 0.1562901155327343 0.1553273427471117,0.7958921694480103 0.7702182284980744 0.7394094993581515 0.6649550706033376 0.5969191270860077 0.5661103979460846 0.5661103979460846 0.5661103979460846 0.5661103979460846 0.5661103979460846 0.5661103979460846 0.5661103979460846 0.5288831835686778 0.478818998716303 0.3812580231065469 0.2541720154043645 0.2195121951219512 0.1938382541720154 0.1745827984595636 0.1707317073170732 0.16559691912708596 0.16559691912708596 0.16559691912708596 0.16559691912708596 0.16559691912708596 0.16559691912708596 0.16559691912708596 0.16559691912708596 0.16559691912708596 0.16559691912708596 0.16559691912708596 0.16559691912708596 0.16559691912708596 0.16688061617458286 0.16944801026957634 0.1707317073170732 0.1707317073170732 0.1707317073170732 0.1707317073170732 0.1707317073170732 0.1707317073170732 0.1707317073170732,483.3399999999965 503.3399999999965 523.3399999999965 543.3399999999965 563.3399999999965 583.3399999999965 603.3399999999965 623.3399999999965 643.3399999999965 663.3399999999965 683.3399999999965 703.3399999999965 723.3399999999965 743.3399999999965 763.3399999999965 783.3399999999965 803.3399999999965 823.3399999999965 843.3399999999965 863.3399999999965 883.3399999999965 903.3399999999964 923.3399999999964 943.3399999999964 963.3399999999964 983.3399999999964 1003.3399999999964 1023.3399999999964 1043.3399999999963 1063.3399999999963 1083.3399999999963 1103.3399999999963 1123.3399999999963 1143.3399999999965 1163.3399999999965 1183.3399999999965 1203.3399999999965 1223.3399999999965 1243.3399999999965 1263.3399999999965 1283.3399999999965 1303.3399999999965
cb_10,29.0,enc_trial,stim,response,Fine Arts students,1463.7799999999988,enc_trial,1.0,29.0,s_sh_23_2,student_shared,fold-a,ballpoint pen,10.0,competing,far,paired,s_sh_23_2.jpg,,student-b1,STEM students,Fine Arts students,sub-21,1.0,1.0,0.0,0.0,0.4913350449293967 0.4855584082156611 0.4826700898587933 0.4845956354300385 0.4884467265725289 0.4672657252888318 0.4557124518613607 0.4441591784338896 0.4403080872913993 0.4403080872913993 0.4104621309370988 0.3748395378690629 0.32573812580231065 0.2862644415917844 0.2554557124518614 0.20539152759948653 0.1928754813863928 0.1851732991014121 0.18035943517329914 0.17650834403080876 0.17073170731707318 0.16688061617458286 0.16688061617458286 0.16688061617458286 0.1697689345314506 0.21790757381258025 0.4306803594351733 0.5972400513478819 0.6636713735558408 0.6935173299101411 0.7108472400513479 0.7368421052631579 0.7503209242618741 0.7522464698331194 0.7570603337612324 0.7753530166880616 0.7897946084724005 0.7984595635430038 0.8013478818998716 0.8061617458279846 0.8254172015404364 0.8388960205391527 0.8514120667522465 0.8562259306803595 0.8600770218228497 0.8600770218228497,0.7971758664955071 0.7637997432605905 0.7214377406931964 0.6739409499358151 0.6251604621309371 0.4942233632862645 0.4531450577663672 0.4326059050064185 0.4261874197689345 0.4249037227214377 0.4069319640564827 0.386392811296534 0.3517329910141207 0.32734274711168165 0.2991014120667522 0.251604621309371 0.23748395378690634 0.2323491655969191 0.23106546854942234 0.2284980744544287 0.227214377406932 0.227214377406932 0.227214377406932 0.227214377406932 0.227214377406932 0.21437740693196405 0.20539152759948653 0.16559691912708596 0.14634146341463414 0.13735558408215665 0.13093709884467264 0.12451861360718874 0.12066752246469835 0.1193838254172015 0.1193838254172015 0.12323491655969188 0.12451861360718874 0.1258023106546855 0.12708600770218226 0.12965340179717588 0.13992297817715016 0.14634146341463414 0.1514762516046213 0.15404364569961493 0.15532734274711169 0.15532734274711169,516.6600000000035 536.6600000000035 556.6600000000035 576.6600000000035 596.6600000000035 616.6600000000035 636.6600000000035 656.6600000000035 676.6600000000035 696.6600000000035 716.6600000000035 736.6600000000035 756.6600000000035 776.6600000000035 796.6600000000035 816.6600000000035 836.6600000000035 856.6600000000035 876.6600000000035 896.6600000000035 916.6600000000036 936.6600000000036 956.6600000000036 976.6600000000036 996.6600000000036 1016.6600000000036 1036.6600000000037 1056.6600000000037 1076.6600000000037 1096.6600000000037 1116.6600000000037 1136.6600000000035 1156.6600000000035 1176.6600000000035 1196.6600000000035 1216.6600000000035 1236.6600000000035 1256.6600000000035 1276.6600000000035 1296.6600000000035 1316.6600000000035 1336.6600000000035 1356.6600000000035 1376.6600000000033 1396.6600000000033 1416.6600000000033
cb_10,30.0,enc_trial,stim,response,STEM students,1213.320000000007,enc_trial,1.0,30.0,s_sh_14_2,student_shared,fold-b,printer,10.0,competing,close,paired,s_sh_14_2.jpg,,student-b1,STEM students,Fine Arts students,sub-21,0.0,0.0,1.0,1.0,0.5134788189987163 0.5134788189987163 0.5134788189987163 0.5134788189987163 0.5134788189987163 0.5134788189987163 0.5134788189987163 0.5134788189987163 0.5134788189987163 0.5134788189987163 0.5134788189987163 0.5134788189987163 0.5134788189987163 0.5134788189987163 0.5134788189987163 0.5134788189987163 0.5134788189987163 0.5134788189987163 0.5134788189987163 0.5134788189987163 0.5134788189987163 0.5134788189987163 0.5134788189987163 0.5134788189987163 0.5134788189987163 0.5134788189987163 0.5134788189987163 0.5134788189987163 0.5125160462130937 0.5077021822849808 0.478818998716303 0.4489730423620026 0.3835044929396663 0.34403080872913994 0.3112965340179717 0.2670089858793325 0.25930680359435176 0.25834403080872914 0.2544929396662388 0.24679075738125805 0.2265725288831836 0.2140564826700899 0.2102053915275995 0.2063543003851092 0.1976893453145058 0.17265725288831835 0.16688061617458286 0.16591784338896026 0.16110397946084726 0.15436456996148912 0.14858793324775355 0.14858793324775355 0.14858793324775355 0.14858793324775355 0.14858793324775355 0.142811296534018,0.8382541720154044 0.8382541720154044 0.8382541720154044 0.8382541720154044 0.8382541720154044 0.8382541720154044 0.8382541720154044 0.8382541720154044 0.8382541720154044 0.8382541720154044 0.8382541720154044 0.8382541720154044 0.8382541720154044 0.8382541720154044 0.8382541720154044 0.8382541720154044 0.8382541720154044 0.8382541720154044 0.8382541720154044 0.8382541720154044 0.8382541720154044 0.8382541720154044 0.8382541720154044 0.8382541720154044 0.8382541720154044 0.8382541720154044 0.8382541720154044 0.8382541720154044 0.8382541720154044 0.8305519897304237 0.7625160462130938 0.6842105263157895 0.5378690629011553 0.4351732991014121 0.36585365853658536 0.30680359435173304 0.2965340179717587 0.29525032092426184 0.29139922978177146 0.2836970474967908 0.2554557124518614 0.2349165596919127 0.23106546854942234 0.2284980744544287 0.2207958921694481 0.19897304236200253 0.19127086007702188 0.18870346598202825 0.18485237483953787 0.17586649550706035 0.17329910141206673 0.17329910141206673 0.17329910141206673 0.17329910141206673 0.17329910141206673 0.16944801026957634,50.0 70.0 90.0 110.0 130.0 150.0 170.0 190.0 210.0 230.0 250.0 270.0 290.0 310.0 330.0 350.0 370.0 390.0 410.0 430.0 450.0 470.0 490.0 510.0 530.0 550.0 570.0 590.0 610.0 630.0 650.0 670.0 690.0 710.0 730.0 750.0 770.0 790.0 810.0 830.0 850.0 870.0 890.0 910.0 930.0 950.0 970.0 990.0 1010.0 1030.0 1050.0 1070.0 1090.0 1110.0 1130.0 1150.0
cb_10,31.0,enc_trial,stim,response,Fine Arts students,1299.9799999999816,enc_trial,1.0,31.0,s_a_07_1,student_art,fold-d-single,yarn,10.0,unique,,single,s_a_07_1.jpg,art,student-b1,STEM students,Fine Arts students,sub-21,1.0,,1.0,,0.4903722721437741 0.4730423620025674 0.4470474967907574 0.417201540436457 0.3940949935815148 0.360397946084724 0.3526957637997433 0.3478818998716303 0.3449935815147625 0.34306803594351737 0.3353658536585366 0.3334403080872914 0.3324775353016688 0.3324775353016688 0.334403080872914 0.4008344030808729 0.5308087291399229 0.6097560975609756 0.6906290115532734 0.7676508344030809 0.810012836970475 0.8543003851091142 0.8600770218228497 0.8639281129653401 0.8668164313222081 0.8687419768934531 0.8783697047496791 0.8831835686777919 0.8928112965340179 0.8956996148908857 0.8985879332477535 0.9111039794608472 0.9178433889602052 0.9178433889602052 0.9178433889602052 0.9178433889602052 0.9178433889602052 0.9178433889602052,0.7971758664955071 0.7188703465982028 0.6225930680359435 0.5365853658536586 0.44801026957638 0.2875481386392811 0.2682926829268293 0.2618741976893453 0.2580231065468549 0.2580231065468549 0.2541720154043645 0.25288831835686776 0.25288831835686776 0.24646983311938386 0.2387676508344031 0.20795892169448005 0.15917843388960207 0.12323491655969188 0.09114249037227218 0.08215661103979466 0.08087291399229779 0.06803594351732989 0.06546854942233638 0.06546854942233638 0.06546854942233638 0.06546854942233638 0.06290115532734275 0.06290115532734275 0.06675224646983313 0.06803594351732989 0.07573812580231065 0.12066752246469835 0.14377406931964054 0.1450577663671374 0.1450577663671374 0.1450577663671374 0.1450577663671374 0.1450577663671374,533.3199999999779 553.3199999999779 573.3199999999779 593.3199999999779 613.3199999999779 633.3199999999779 653.3199999999779 673.3199999999779 693.3199999999779 713.3199999999779 733.3199999999779 753.3199999999779 773.3199999999779 793.3199999999779 813.3199999999779 833.3199999999779 853.3199999999779 873.3199999999779 893.3199999999779 913.319999999978 933.319999999978 953.319999999978 973.319999999978 993.319999999978 1013.319999999978 1033.319999999978 1053.319999999978 1073.319999999978 1093.319999999978 1113.319999999978 1133.319999999978 1153.319999999978 1173.319999999978 1193.319999999978 1213.319999999978 1233.319999999978 1253.319999999978 1273.319999999978
cb_10,32.0,enc_trial,stim,response,STEM students,983.3599999999859,enc_trial,1.0,32.0,s_s_02_2,student_stem,fold-b,flask,10.0,unique,far,paired,s_s_02_2.jpg,stem,student-b1,STEM students,Fine Arts students,sub-21,1.0,1.0,1.0,1.0,0.4951861360718871 0.4826700898587933 0.4441591784338896 0.39505776636713735 0.3112965340179717 0.1447368421052632 0.13222079589216948 0.12451861360718873 0.1148908857509628 0.10526315789473686 0.1014120667522465 0.1014120667522465 0.1014120667522465 0.1014120667522465 0.1014120667522465 0.1014120667522465 0.09948652118100132 0.09948652118100132,0.7997432605905006 0.748395378690629 0.6572528883183568 0.5622593068035944 0.4082156611039793 0.1938382541720154 0.1771501925545571 0.17329910141206673 0.1681643132220796 0.1643132220795892 0.16302952503209245 0.16302952503209245 0.16302952503209245 0.16302952503209245 0.16302952503209245 0.16302952503209245 0.16302952503209245 0.16174582798459558,550.0 570.0 590.0 610.0 630.0 650.0 670.0 690.0 710.0 730.0 750.0 770.0 790.0 810.0 830.0 850.0 870.0 890.0
cb_10,33.0,enc_trial,stim,response,Fine Arts students,1544.8999999999942,enc_trial,1.0,33.0,s_a_17_2,student_art,fold-b,microphone,10.0,unique,far,paired,s_a_17_2.jpg,art,student-b1,STEM students,Fine Arts students,sub-21,1.0,1.0,1.0,1.0,0.4951861360718871 0.4759306803594352 0.4634146341463415 0.4518613607188704 0.44801026957638 0.4451219512195122 0.4354942233632863 0.4239409499358152 0.41527599486521183 0.4017971758664955 0.3883183568677792 0.3681001283697048 0.3546213093709885 0.3353658536585366 0.3132220795892169 0.28337612323491657 0.277599486521181 0.2718228498074455 0.2679717586649551 0.2670089858793325 0.2670089858793325 0.2670089858793325 0.2670089858793325 0.2621951219512195 0.26026957637997433 0.26026957637997433 0.2621951219512195 0.2766367137355584 0.308408215661104 0.3613607188703466 0.5982028241335045 0.7252888318356867 0.8254172015404364 0.8793324775353016 0.9034017971758664 0.918806161745828 0.925545571245186 0.9293966623876764 0.9332477535301668 0.9390243902439024 0.9640564826700898 0.975609756097561 0.975609756097561 0.975609756097561 0.975609756097561 0.9582798459563544 0.944801026957638 0.9293966623876764 0.9245827984595636 0.9207317073170732 0.9159178433889602 0.9149550706033376 0.913992297817715 0.9130295250320924,0.7894736842105263 0.7188703465982028 0.6469833119383825 0.5648267008985879 0.4698331193838254 0.4608472400513479 0.4518613607188704 0.4390243902439024 0.4249037227214377 0.4005134788189987 0.36585365853658536 0.33376123234916555 0.32734274711168165 0.3196405648267009 0.3080872913992297 0.2862644415917843 0.27984595635430043 0.27599486521181005 0.2734274711168164 0.2721437740693197 0.2682926829268293 0.2682926829268293 0.2682926829268293 0.2618741976893453 0.2541720154043645 0.24775353016688065 0.24646983311938386 0.2387676508344031 0.2246469833119384 0.19897304236200253 0.1578947368421053 0.1578947368421053 0.11810012836970475 0.08985879332477531 0.08344030808729141 0.08344030808729141 0.08344030808729141 0.08344030808729141 0.08344030808729141 0.08344030808729141 0.09884467265725294 0.1026957637997432 0.1026957637997432 0.1026957637997432 0.1026957637997432 0.1129653401797176 0.12451861360718874 0.13478818998716302 0.13478818998716302 0.13607188703465978 0.1386392811296534 0.1386392811296534 0.1386392811296534 0.1386392811296534,468.3999999999942 488.3999999999942 508.3999999999942 528.3999999999942 548.3999999999942 568.3999999999943 588.3999999999943 608.3999999999943 628.3999999999943 648.3999999999943 668.3999999999943 688.3999999999942 708.3999999999942 728.3999999999942 748.3999999999942 768.3999999999942 788.3999999999942 808.3999999999942 828.3999999999942 848.3999999999942 868.3999999999942 888.3999999999942 908.3999999999942 928.3999999999942 948.3999999999942 968.3999999999942 988.3999999999942 1008.3999999999942 1028.3999999999942 1048.3999999999942 1068.3999999999942 1088.3999999999942 1108.3999999999942 1128.3999999999942 1148.3999999999942 1168.3999999999942 1188.3999999999942 1208.3999999999942 1228.3999999999942 1248.3999999999942 1268.3999999999942 1288.3999999999942 1308.3999999999942 1328.3999999999942 1348.3999999999942 1368.3999999999942 1388.3999999999942 1408.3999999999942 1428.3999999999942 1448.3999999999942 1468.3999999999942 1488.3999999999942 1508.3999999999942 1528.3999999999942
