Current Spreadsheet,Trial Number,Display,Screen,Response Type,Response,Reaction Time,display,block,block_trial,stimulus_id,expected_goal,fold,stimulus_name,c_group,condition,within_block_dist,paired_status,stimulus_path,expected_location,block_split,respStim_1,respStim_2,sub_label,acc,both_enc_acc,assoc_stim1_acc,assoc_stim2_acc,x_pos,y_pos,time_trajectories
cb_04,1.0,enc_trial,stim,response,STEM students,1213.3999999999069,enc_trial,1.0,1.0,s_s_12_1,student_stem,fold-a,robotic arm,4.0,unique,close,paired,s_s_12_1.jpg,stem,student-b1,STEM students,Fine Arts students,sub-95,1.0,1.0,1.0,1.0,0.5046777546777547 0.507016632016632 0.5093555093555093 0.510914760914761 0.510914760914761 0.5093555093555093 0.5054573804573804 0.5007796257796258 0.4976611226611226 0.4945426195426195 0.4914241164241164 0.4867463617463618 0.485966735966736 0.4851871101871102 0.4836278586278586 0.4828482328482329 0.4805093555093555 0.4797297297297297 0.4797297297297297 0.4797297297297297 0.4797297297297297 0.4766112266112266 0.4680353430353431 0.4547817047817048 0.4337318087318087 0.4064449064449064 0.3487525987525988 0.32224532224532226 0.29261954261954265 0.2707900207900208 0.25363825363825365 0.2279106029106029 0.2138773388773389 0.20062370062370066 0.19204781704781707 0.1873700623700624 0.1795738045738046 0.17489604989604993 0.1686590436590437 0.16242203742203745 0.15930353430353433 0.15696465696465695,0.8357588357588357 0.8326403326403327 0.8264033264033264 0.8170478170478169 0.8024948024948024 0.7671517671517671 0.7474012474012475 0.7297297297297297 0.7172557172557172 0.7058212058212059 0.6964656964656964 0.685031185031185 0.683991683991684 0.683991683991684 0.683991683991684 0.683991683991684 0.6912681912681913 0.6943866943866943 0.6964656964656964 0.6975051975051976 0.6975051975051976 0.6923076923076923 0.6683991683991684 0.6351351351351351 0.5935550935550935 0.5498960498960499 0.4584199584199584 0.4116424116424117 0.3607068607068608 0.32432432432432434 0.2941787941787942 0.2505197505197505 0.23076923076923075 0.21309771309771308 0.2006237006237006 0.1933471933471933 0.183991683991684 0.17671517671517667 0.16839916839916835 0.16216216216216214 0.15904365904365902 0.15800415800415804,367.0 387.0 407.0 427.0 447.0 467.0 487.0 507.0 527.0 547.0 567.0 587.0 607.0 627.0 647.0 667.0 687.0 707.0 727.0 747.0 767.0 787.0 807.0 827.0 847.0 867.0 887.0 907.0 927.0 947.0 967.0 987.0 1007.0 1027.0 1047.0 1067.0 1087.0 1107.0 1127.0 1147.0 1167.0 1187.0
cb_04,2.0,enc_trial,stim,response,STEM students,834.1999999999971,enc_trial,1.0,2.0,s_s_07_1,student_stem,fold-b-single,periodic table,4.0,unique,,single,s_s_07_1.jpg,stem,student-b1,STEM students,Fine Arts students,sub-95,1.0,,1.0,,0.4914241164241164 0.4914241164241164 0.4922037422037422 0.4945426195426195 0.4992203742203742 0.5124740124740125 0.5202702702702703 0.5265072765072765 0.5350831600831599 0.5413201663201663 0.5452182952182952 0.5506756756756757 0.5553534303534303 0.5592515592515592 0.5608108108108109 0.5576923076923077 0.5249480249480251 0.4937629937629938 0.4501039501039501 0.4002079002079002 0.35343035343035345 0.2723492723492724 0.2466216216216217 0.2263513513513513 0.20452182952182954 0.18503118503118504 0.14604989604989607 0.13045738045738048 0.12655925155925155 0.1257796257796258 0.1257796257796258 0.1296777546777547 0.13045738045738048 0.13045738045738048,0.8544698544698545 0.8513513513513513 0.8471933471933472 0.8378378378378378 0.8191268191268191 0.7640332640332641 0.7224532224532225 0.685031185031185 0.6382536382536382 0.6060291060291061 0.5769230769230769 0.5187110187110187 0.4792099792099792 0.4417879417879418 0.4220374220374221 0.4137214137214137 0.40332640332640335 0.3981288981288982 0.3918918918918919 0.37629937629937626 0.35239085239085244 0.29625779625779625 0.2723492723492723 0.2484407484407485 0.21725571725571724 0.18191268191268195 0.11330561330561327 0.08939708939708935 0.08108108108108103 0.08004158004158002 0.08004158004158002 0.08108108108108103 0.08108108108108103 0.08212058212058215,166.90000000000867 186.9000000000087 206.9000000000087 226.9000000000087 246.9000000000087 266.9000000000087 286.9000000000087 306.9000000000087 326.9000000000087 346.9000000000087 366.9000000000087 386.9000000000087 406.9000000000087 426.9000000000087 446.9000000000087 466.9000000000087 486.9000000000087 506.9000000000087 526.9000000000087 546.9000000000087 566.9000000000087 586.9000000000087 606.9000000000087 626.9000000000087 646.9000000000087 666.9000000000087 686.9000000000087 706.9000000000087 726.9000000000087 746.9000000000087 766.9000000000087 786.9000000000087 806.9000000000087 826.9000000000087
cb_04,3.0,enc_trial,stim,response,Fine Arts students,1618.3000000000034,enc_trial,1.0,3.0,s_sh_23_1,student_shared,fold-a,ballpoint pen,4.0,competing,far,paired,s_sh_23_1.jpg,,student-b1,STEM students,Fine Arts students,sub-95,1.0,1.0,0.0,0.0,0.4906444906444906 0.4906444906444906 0.4906444906444906 0.4906444906444906 0.4906444906444906 0.4906444906444906 0.4906444906444906 0.4906444906444906 0.4906444906444906 0.4906444906444906 0.4906444906444906 0.4914241164241164 0.4922037422037422 0.49298336798336795 0.4937629937629938 0.4937629937629938 0.49298336798336795 0.4945426195426195 0.5062370062370062 0.5257276507276507 0.5467775467775468 0.5740644490644491 0.5849792099792099 0.5927754677754677 0.5951143451143451 0.5951143451143451 0.5896569646569646 0.5849792099792099 0.5748440748440748 0.5631496881496881 0.5491164241164241 0.5358627858627859 0.5343035343035343 0.5327442827442828 0.5218295218295218 0.5038981288981289 0.4196985446985447 0.3643451143451144 0.3097713097713098 0.2622141372141372 0.2279106029106029 0.18970893970893973 0.18191268191268192 0.1803534303534304 0.18581081081081088 0.202962577962578 0.2512993762993763 0.28482328482328484 0.323024948024948 0.36902286902286896 0.4056652806652807 0.4524428274428274 0.4727130977130977 0.4922037422037422 0.5124740124740125 0.5335239085239085 0.5841995841995842 0.6130457380457379 0.6372141372141372 0.6559251559251559 0.673076923076923 0.7019230769230769 0.7167359667359667 0.7385654885654885 0.7603950103950103 0.7798856548856549 0.8056133056133057 0.8134095634095635 0.8165280665280666 0.8188669438669439 0.8188669438669439 0.8196465696465697 0.8212058212058213 0.8227650727650728 0.8235446985446986 0.8243243243243243 0.8297817047817049 0.8344594594594595 0.8383575883575884 0.8399168399168399,0.8659043659043659 0.8648648648648649 0.8638253638253638 0.8627858627858628 0.8627858627858628 0.8627858627858628 0.8627858627858628 0.8627858627858628 0.8627858627858628 0.8627858627858628 0.8627858627858628 0.8586278586278586 0.8523908523908523 0.8378378378378378 0.8180873180873179 0.7889812889812889 0.7016632016632016 0.6444906444906444 0.5841995841995842 0.5374220374220374 0.5072765072765073 0.4740124740124741 0.4584199584199584 0.4428274428274428 0.4334719334719335 0.42619542619542616 0.4220374220374221 0.4220374220374221 0.4303534303534303 0.4428274428274428 0.4584199584199584 0.4688149688149689 0.4688149688149689 0.4688149688149689 0.4646569646569647 0.4563409563409564 0.41060291060291065 0.37629937629937626 0.3357588357588358 0.2910602910602911 0.25259875259875264 0.1787941787941788 0.14760914760914756 0.11954261954261958 0.09459459459459464 0.07588357588357586 0.0644490644490644 0.06652806652806653 0.07588357588357586 0.09043659043659047 0.10187110187110182 0.11642411642411644 0.1216216216216216 0.12370062370062375 0.12577962577962576 0.12993762993762992 0.14760914760914756 0.16008316008316004 0.16839916839916835 0.1715176715176715 0.1715176715176715 0.16112266112266116 0.15488565488565487 0.14760914760914756 0.1424116424116424 0.14137214137214138 0.14137214137214138 0.14137214137214138 0.14137214137214138 0.14137214137214138 0.14137214137214138 0.14137214137214138 0.1424116424116424 0.1424116424116424 0.1434511434511434 0.14449064449064453 0.14449064449064453 0.1434511434511434 0.1424116424116424 0.1424116424116424,33.40000000000873 53.400000000008724 73.40000000000873 93.40000000000872 113.40000000000872 133.4000000000087 153.4000000000087 173.40000000000873 193.40000000000873 213.40000000000873 233.40000000000873 253.40000000000873 273.40000000000873 293.40000000000873 313.40000000000873 333.40000000000873 353.4000000000088 373.4000000000088 393.4000000000088 413.4000000000088 433.4000000000088 453.4000000000088 473.4000000000088 493.4000000000088 513.4000000000087 533.4000000000087 553.4000000000087 573.4000000000087 593.4000000000087 613.4000000000087 633.4000000000087 653.4000000000087 673.4000000000087 693.4000000000087 713.4000000000087 733.4000000000087 753.4000000000087 773.4000000000087 793.4000000000087 813.4000000000087 833.4000000000087 853.4000000000087 873.4000000000087 893.4000000000087 913.4000000000087 933.4000000000087 953.4000000000087 973.4000000000087 993.4000000000087 1013.4000000000087 1033.4000000000087 1053.4000000000087 1073.4000000000087 1093.4000000000087 1113.4000000000087 1133.4000000000087 1153.4000000000087 1173.4000000000087 1193.4000000000087 1213.4000000000087 1233.4000000000087 1253.4000000000087 1273.4000000000087 1293.4000000000087 1313.4000000000087 1333.4000000000087 1353.4000000000087 1373.4000000000087 1393.400000000009 1413.400000000009 1433.400000000009 1453.400000000009 1473.400000000009 1493.400000000009 1513.400000000009 1533.400000000009 1553.400000000009 1573.400000000009 1593.400000000009 1613.400000000009
cb_04,4.0,enc_trial,stim,response,STEM students,992.8000000000902,enc_trial,1.0,4.0,s_s_12_2,student_stem,fold-a,robotic arm,4.0,unique,close,paired,s_s_12_2.jpg,stem,student-b1,STEM students,Fine Arts students,sub-95,1.0,1.0,1.0,1.0,0.4898648648648649 0.4883056133056133 0.485966735966736 0.4820686070686071 0.4781704781704782 0.4656964656964657 0.4594594594594595 0.454002079002079 0.4493243243243243 0.4477650727650728 0.446985446985447 0.446985446985447 0.4477650727650728 0.4477650727650728 0.4477650727650728 0.4477650727650728 0.4462058212058212 0.4462058212058212 0.4454261954261953 0.43996881496881496 0.4298336798336798 0.38461538461538464 0.3487525987525988 0.3050935550935551 0.2590956340956341 0.2130977130977131 0.12889812889812893 0.10628898128898133 0.09771309771309772 0.09615384615384616 0.09615384615384616 0.10161122661122664 0.10472972972972976 0.10550935550935553,0.8461538461538461 0.8388773388773388 0.8284823284823285 0.814968814968815 0.7952182952182952 0.7484407484407485 0.7297297297297297 0.7162162162162162 0.7079002079002079 0.7037422037422038 0.7037422037422038 0.7068607068607069 0.7130977130977131 0.7193347193347193 0.7245322245322245 0.7307692307692308 0.7380457380457379 0.7390852390852392 0.7390852390852392 0.7307692307692308 0.7089397089397089 0.6226611226611227 0.5582120582120582 0.4885654885654885 0.4220374220374221 0.3565488565488566 0.23180873180873185 0.19750519750519746 0.17983367983367982 0.17567567567567566 0.17567567567567566 0.17671517671517667 0.1787941787941788 0.17983367983367982,283.59999999999127 303.59999999999127 323.59999999999127 343.5999999999912 363.5999999999912 383.5999999999912 403.5999999999912 423.5999999999912 443.5999999999912 463.5999999999912 483.5999999999912 503.5999999999912 523.5999999999913 543.5999999999913 563.5999999999913 583.5999999999913 603.5999999999913 623.5999999999913 643.5999999999913 663.5999999999913 683.5999999999913 703.5999999999913 723.5999999999913 743.5999999999913 763.5999999999913 783.5999999999913 803.5999999999913 823.5999999999913 843.5999999999913 863.5999999999913 883.5999999999913 903.5999999999913 923.5999999999913 943.5999999999913
cb_04,5.0,enc_trial,stim,response,STEM students,936.0000000001892,enc_trial,1.0,5.0,s_sh_16_1,student_shared,fold-a,stapler,4.0,competing,far,paired,s_sh_16_1.jpg,,student-b1,STEM students,Fine Arts students,sub-95,1.0,1.0,0.0,1.0,0.5007796257796258 0.5 0.4976611226611226 0.4945426195426195 0.4890852390852391 0.4836278586278586 0.4727130977130977 0.4664760914760915 0.4633575883575883 0.4633575883575883 0.4633575883575883 0.4641372141372142 0.4610187110187111 0.454002079002079 0.4407484407484408 0.4267151767151767 0.393970893970894 0.36902286902286896 0.3425155925155925 0.3136694386694387 0.2863825363825364 0.21621621621621626 0.17801455301455305 0.15150727650727652 0.14215176715176714 0.14215176715176714 0.14371101871101874 0.14682952182952186 0.14682952182952186 0.14527027027027029 0.14059251559251562 0.13669438669438672,0.8409563409563409 0.8367983367983368 0.8264033264033264 0.8056133056133056 0.7796257796257796 0.7328482328482329 0.6174636174636174 0.579002079002079 0.5540540540540541 0.5467775467775468 0.5457380457380457 0.5446985446985446 0.5446985446985446 0.5488565488565489 0.5540540540540541 0.5571725571725572 0.5395010395010396 0.5124740124740125 0.4792099792099792 0.4480249480249481 0.4199584199584199 0.33991683991684 0.2972972972972973 0.26299376299376304 0.2453222453222453 0.23908523908523904 0.2338877338877339 0.22453222453222446 0.21309771309771308 0.2006237006237006 0.18918918918918914 0.18087318087318088,266.90000000000873 286.90000000000873 306.90000000000873 326.90000000000873 346.9000000000088 366.9000000000088 386.9000000000088 406.9000000000088 426.9000000000088 446.9000000000088 466.9000000000088 486.9000000000088 506.9000000000088 526.9000000000087 546.9000000000087 566.9000000000087 586.9000000000087 606.9000000000087 626.9000000000087 646.9000000000087 666.9000000000087 686.9000000000087 706.9000000000087 726.9000000000087 746.9000000000087 766.9000000000087 786.9000000000087 806.9000000000087 826.9000000000087 846.9000000000087 866.9000000000087 886.9000000000087
cb_04,6.0,enc_trial,stim,response,Fine Arts students,1350.9999999999127,enc_trial,1.0,6.0,s_sh_18_1,student_shared,fold-c-single,wall calendar,4.0,competing,,single,s_sh_18_1.jpg,,student-b1,STEM students,Fine Arts students,sub-95,1.0,,1.0,,0.4922037422037422 0.4922037422037422 0.4922037422037422 0.4914241164241164 0.4914241164241164 0.4906444906444906 0.4906444906444906 0.4961018711018711 0.5054573804573804 0.5116943866943867 0.5132536382536382 0.5132536382536382 0.5132536382536382 0.5132536382536382 0.5124740124740125 0.5116943866943867 0.5101351351351351 0.5101351351351351 0.5093555093555093 0.5093555093555093 0.5093555093555093 0.5124740124740125 0.514033264033264 0.514033264033264 0.5148128898128899 0.5148128898128899 0.5148128898128899 0.5148128898128899 0.5148128898128899 0.5148128898128899 0.5194906444906445 0.5537941787941788 0.5748440748440748 0.5896569646569646 0.5990124740124739 0.606029106029106 0.6122661122661123 0.6138253638253638 0.6153846153846154 0.6185031185031185 0.6255197505197505 0.6504677754677755 0.6707380457380457 0.6995841995841996 0.7315488565488565 0.7588357588357588 0.7892411642411642 0.8056133056133057 0.8227650727650728 0.8367983367983368 0.8430353430353431 0.8477130977130978 0.8484927234927235 0.8484927234927235 0.8484927234927235 0.8484927234927235,0.8482328482328483 0.8440748440748441 0.8388773388773388 0.8305613305613305 0.8170478170478169 0.7983367983367984 0.7349272349272349 0.6871101871101871 0.6403326403326404 0.6143451143451144 0.6008316008316008 0.5956340956340956 0.5956340956340956 0.5997920997920998 0.6153846153846154 0.6278586278586278 0.6486486486486487 0.6621621621621622 0.6777546777546777 0.6923076923076923 0.7027027027027026 0.7182952182952183 0.7224532224532225 0.7245322245322245 0.7266112266112266 0.7266112266112266 0.7266112266112266 0.7255717255717256 0.7151767151767152 0.6891891891891893 0.6538461538461539 0.5634095634095634 0.5280665280665279 0.5166320166320166 0.5176715176715176 0.527027027027027 0.5550935550935551 0.5582120582120582 0.5582120582120582 0.5509355509355509 0.5311850311850312 0.4594594594594594 0.4168399168399168 0.36174636174636177 0.3076923076923077 0.261954261954262 0.2151767151767152 0.1860706860706861 0.15488565488565487 0.1288981288981289 0.11538461538461542 0.10810810810810813 0.10810810810810813 0.10810810810810813 0.10914760914760913 0.11122661122661126,250.20000000001164 270.20000000001164 290.20000000001164 310.20000000001164 330.20000000001164 350.2000000000116 370.2000000000117 390.2000000000117 410.2000000000117 430.2000000000117 450.2000000000117 470.2000000000117 490.2000000000117 510.2000000000117 530.2000000000116 550.2000000000116 570.2000000000116 590.2000000000116 610.2000000000116 630.2000000000116 650.2000000000116 670.2000000000116 690.2000000000116 710.2000000000116 730.2000000000116 750.2000000000116 770.2000000000116 790.2000000000116 810.2000000000116 830.2000000000116 850.2000000000116 870.2000000000116 890.2000000000116 910.2000000000116 930.2000000000116 950.2000000000116 970.2000000000116 990.2000000000116 1010.2000000000116 1030.2000000000116 1050.2000000000116 1070.2000000000116 1090.2000000000116 1110.2000000000116 1130.2000000000114 1150.2000000000114 1170.2000000000114 1190.2000000000114 1210.2000000000114 1230.2000000000114 1250.2000000000114 1270.2000000000114 1290.2000000000114 1310.2000000000114 1330.2000000000114 1350.2000000000114
cb_04,7.0,enc_trial,stim,response,STEM students,900.8999999999068,enc_trial,1.0,7.0,s_sh_04_1,student_shared,fold-c-single,laptop stand,4.0,competing,,single,s_sh_04_1.jpg,,student-b1,STEM students,Fine Arts students,sub-95,1.0,,1.0,,0.4844074844074844 0.4836278586278586 0.4820686070686071 0.4805093555093555 0.478950103950104 0.4766112266112266 0.4734927234927235 0.4688149688149688 0.4617983367983368 0.4516632016632017 0.4407484407484408 0.4025467775467775 0.3737006237006237 0.3393970893970894 0.2980769230769231 0.2590956340956341 0.18503118503118504 0.16476091476091478 0.1522869022869023 0.14527027027027029 0.14137214137214138 0.14137214137214138 0.14215176715176714,0.8264033264033264 0.8243243243243243 0.8222453222453222 0.8180873180873179 0.8139293139293139 0.8014553014553014 0.7858627858627858 0.7661122661122661 0.7422037422037422 0.7130977130977131 0.6829521829521831 0.6060291060291061 0.5634095634095634 0.5187110187110187 0.4698544698544699 0.41891891891891897 0.2931392931392931 0.2484407484407485 0.21725571725571724 0.1933471933471933 0.17671517671517667 0.16839916839916835 0.16839916839916835,200.29999999998842 220.29999999998842 240.29999999998842 260.2999999999884 280.2999999999884 300.29999999998836 320.29999999998836 340.29999999998836 360.2999999999884 380.2999999999884 400.2999999999884 420.2999999999884 440.2999999999884 460.2999999999884 480.2999999999884 500.2999999999884 520.2999999999884 540.2999999999884 560.2999999999884 580.2999999999884 600.2999999999884 620.2999999999884 640.2999999999884
cb_04,8.0,enc_trial,stim,response,Fine Arts students,989.8000000001047,enc_trial,1.0,8.0,s_a_17_1,student_art,fold-b-single,microphone,4.0,unique,,single,s_a_17_1.jpg,art,student-b1,STEM students,Fine Arts students,sub-95,1.0,,1.0,,0.4758316008316008 0.4750519750519751 0.4750519750519751 0.4750519750519751 0.4750519750519751 0.478950103950104 0.4890852390852391 0.49298336798336795 0.4976611226611226 0.5038981288981289 0.5093555093555093 0.5202702702702703 0.5288461538461539 0.5350831600831599 0.5374220374220374 0.5405405405405406 0.5592515592515592 0.581081081081081 0.5951143451143451 0.6099272349272349 0.6208419958419958 0.6364345114345115 0.6504677754677755 0.673076923076923 0.6956860706860707 0.7198544698544699 0.765072765072765 0.7814449064449064 0.7931392931392931 0.8040540540540542 0.814968814968815 0.8329002079002079 0.8406964656964657 0.8500519750519752 0.8601871101871102 0.8711018711018712 0.878898128898129 0.8796777546777548,0.8607068607068606 0.8596673596673596 0.8596673596673596 0.8596673596673596 0.8565488565488566 0.8492723492723493 0.8222453222453222 0.8024948024948024 0.7754677754677755 0.7401247401247402 0.7079002079002079 0.6185031185031185 0.5467775467775468 0.4906444906444906 0.4449064449064449 0.4022869022869024 0.3128898128898129 0.2557172557172557 0.21933471933471926 0.18191268191268195 0.15488565488565487 0.1205821205821206 0.11122661122661126 0.10810810810810813 0.11018711018711014 0.1143451143451143 0.11746361746361746 0.1205821205821206 0.12474012474012475 0.1288981288981289 0.13409563409563408 0.14864864864864868 0.15592515592515588 0.16112266112266116 0.16528066528066532 0.16839916839916835 0.17463617463617465 0.17567567567567566,233.5 253.5 273.5 293.5 313.5 333.5 353.5 373.5 393.5 413.5 433.5 453.5 473.5 493.5 513.5 533.5 553.5 573.5 593.5 613.5 633.5 653.5 673.5 693.5 713.5 733.5 753.5 773.5 793.5 813.5 833.5 853.5 873.5 893.5 913.5 933.5 953.5 973.5
cb_04,9.0,enc_trial,stim,response,STEM students,899.3999999999942,enc_trial,1.0,9.0,s_sh_07_1,student_shared,fold-a,ruler,4.0,competing,far,paired,s_sh_07_1.jpg,,student-b1,STEM students,Fine Arts students,sub-95,1.0,1.0,1.0,1.0,0.4922037422037422 0.4914241164241164 0.4898648648648649 0.4875259875259875 0.4836278586278586 0.4773908523908524 0.4547817047817048 0.4306133056133056 0.3931912681912682 0.3440748440748441 0.28716216216216217 0.22167359667359668 0.1990644490644491 0.18503118503118504 0.17567567567567569 0.17099792099792102 0.17099792099792102 0.17411642411642414 0.17489604989604993 0.17645530145530147 0.17723492723492726 0.17801455301455305 0.17801455301455305 0.17801455301455305 0.17645530145530147 0.17099792099792102 0.15930353430353433 0.15462577962577964 0.15072765072765076 0.1491683991683992 0.1483887733887734,0.843035343035343 0.843035343035343 0.8399168399168399 0.8347193347193347 0.8264033264033264 0.8087318087318087 0.7525987525987525 0.7016632016632016 0.6309771309771309 0.5478170478170479 0.4636174636174636 0.3669438669438669 0.3274428274428275 0.29521829521829523 0.2702702702702703 0.2505197505197505 0.23700623700623705 0.23700623700623705 0.23700623700623705 0.23700623700623705 0.23908523908523904 0.2401247401247401 0.2401247401247401 0.2401247401247401 0.23700623700623705 0.2286902286902287 0.21101871101871106 0.2016632016632016 0.1923076923076923 0.18503118503118496 0.18295218295218296,250.19999999998254 270.19999999998254 290.1999999999825 310.1999999999825 330.1999999999825 350.19999999998254 370.19999999998254 390.19999999998254 410.19999999998254 430.19999999998254 450.19999999998254 470.19999999998254 490.19999999998254 510.19999999998254 530.1999999999825 550.1999999999825 570.1999999999825 590.1999999999825 610.1999999999825 630.1999999999825 650.1999999999825 670.1999999999825 690.1999999999824 710.1999999999824 730.1999999999824 750.1999999999824 770.1999999999824 790.1999999999824 810.1999999999824 830.1999999999824 850.1999999999824
cb_04,10.0,enc_trial,stim,response,STEM students,955.7000000000116,enc_trial,1.0,10.0,s_s_14_1,student_stem,fold-e,funnel,4.0,unique,far,paired,s_s_14_1.jpg,stem,student-b1,STEM students,Fine Arts students,sub-95,1.0,1.0,1.0,1.0,0.4875259875259875 0.4875259875259875 0.4875259875259875 0.4883056133056133 0.4883056133056133 0.4883056133056133 0.4883056133056133 0.4867463617463618 0.4828482328482329 0.4766112266112266 0.4656964656964657 0.4306133056133056 0.4048856548856549 0.3783783783783784 0.3573284823284824 0.3432952182952183 0.3277027027027027 0.3175675675675676 0.301975051975052 0.2832640332640333 0.2645530145530145 0.2271309771309772 0.2130977130977131 0.1943866943866944 0.1787941787941788 0.16632016632016633 0.15774428274428276 0.15696465696465695 0.15696465696465695 0.15774428274428276,0.816008316008316 0.816008316008316 0.816008316008316 0.816008316008316 0.8139293139293139 0.7962577962577962 0.7806652806652806 0.7619542619542621 0.7359667359667359 0.7058212058212059 0.6715176715176715 0.6081081081081081 0.58004158004158 0.5509355509355509 0.5259875259875261 0.5062370062370063 0.47297297297297297 0.4521829521829522 0.4272349272349273 0.3981288981288982 0.3711018711018711 0.314968814968815 0.2941787941787942 0.2681912681912681 0.2442827442827443 0.2234927234927236 0.19438669438669445 0.18918918918918914 0.18503118503118496 0.18295218295218296,233.60000000000585 253.60000000000585 273.6000000000058 293.6000000000058 313.6000000000058 333.6000000000058 353.6000000000058 373.6000000000058 393.6000000000058 413.6000000000058 433.6000000000058 453.6000000000058 473.6000000000058 493.6000000000058 513.6000000000058 533.6000000000058 553.6000000000058 573.6000000000057 593.6000000000057 613.6000000000057 633.6000000000057 653.6000000000057 673.6000000000057 693.6000000000058 713.6000000000058 733.6000000000058 753.6000000000058 773.6000000000058 793.6000000000058 813.6000000000058
cb_04,11.0,enc_trial,stim,response,Fine Arts students,1110.2999999999884,enc_trial,1.0,11.0,s_a_03_1,student_art,fold-e,palette,4.0,unique,far,paired,s_a_03_1.jpg,art,student-b1,STEM students,Fine Arts students,sub-95,1.0,1.0,1.0,1.0,0.5 0.5 0.5 0.5 0.4968814968814969 0.4820686070686071 0.4703742203742204 0.4563409563409563 0.4407484407484408 0.4267151767151767 0.4056652806652807 0.3393970893970894 0.2988565488565489 0.2637733887733888 0.2458419958419959 0.2372661122661123 0.2302494802494803 0.2294698544698545 0.2271309771309772 0.2263513513513513 0.2263513513513513 0.2450623700623701 0.2762474012474013 0.3300415800415801 0.41424116424116425 0.4992203742203742 0.6567047817047817 0.7050415800415799 0.7354469854469854 0.7533783783783784 0.7666320166320166 0.7892411642411642 0.7985966735966736 0.8095114345114346 0.8219854469854471 0.8321205821205822 0.8391372141372142 0.8406964656964657 0.8406964656964657 0.8414760914760916 0.8422557172557174 0.8430353430353431,0.8305613305613305 0.8295218295218295 0.8264033264033264 0.8201663201663202 0.8087318087318087 0.7588357588357588 0.7224532224532225 0.6829521829521831 0.6455301455301455 0.6122661122661123 0.5706860706860707 0.4220374220374221 0.33887733887733884 0.27546777546777546 0.2401247401247401 0.22453222453222446 0.20893970893970887 0.2068607068607069 0.20374220374220373 0.2016632016632016 0.2006237006237006 0.1995841995841996 0.19854469854469856 0.1933471933471933 0.17983367983367982 0.16112266112266116 0.10602910602910598 0.09043659043659047 0.08627858627858631 0.08731808731808732 0.09147609147609148 0.10498960498960497 0.11226611226611227 0.1216216216216216 0.13305613305613306 0.1424116424116424 0.15592515592515588 0.15904365904365902 0.16112266112266116 0.16112266112266116 0.16216216216216214 0.16216216216216214,266.8999999999942 286.8999999999942 306.8999999999942 326.8999999999942 346.8999999999942 366.8999999999942 386.8999999999942 406.8999999999942 426.8999999999942 446.8999999999942 466.8999999999942 486.8999999999942 506.8999999999942 526.8999999999942 546.8999999999942 566.8999999999943 586.8999999999943 606.8999999999943 626.8999999999943 646.8999999999943 666.8999999999943 686.8999999999943 706.8999999999942 726.8999999999942 746.8999999999942 766.8999999999942 786.8999999999942 806.8999999999942 826.8999999999942 846.8999999999942 866.8999999999942 886.8999999999942 906.8999999999942 926.8999999999942 946.8999999999942 966.8999999999942 986.8999999999942 1006.8999999999942 1026.8999999999942 1046.8999999999942 1066.8999999999942 1086.8999999999942
cb_04,12.0,enc_trial,stim,response,Fine Arts students,1299.9999999998254,enc_trial,1.0,12.0,s_a_19_1,student_art,fold-b-single,ballet shoes,4.0,unique,,single,s_a_19_1.jpg,art,student-b1,STEM students,Fine Arts students,sub-95,1.0,,1.0,,0.49298336798336795 0.4937629937629938 0.4937629937629938 0.4937629937629938 0.49298336798336795 0.4906444906444906 0.4766112266112266 0.4656964656964657 0.4501039501039501 0.4290540540540541 0.40878378378378377 0.3682432432432433 0.3471933471933472 0.3261434511434512 0.30665280665280664 0.28716216216216217 0.25363825363825365 0.2396049896049897 0.2247920997920998 0.21933471933471926 0.21933471933471926 0.2333679833679834 0.2450623700623701 0.2622141372141372 0.2863825363825364 0.31834719334719336 0.4267151767151767 0.4883056133056133 0.5631496881496881 0.6247401247401247 0.6582640332640333 0.6972453222453222 0.7050415800415799 0.7089397089397089 0.7120582120582121 0.7151767151767152 0.7260914760914761 0.7354469854469854 0.7471413721413721 0.7635135135135135 0.7798856548856549 0.8157484407484408 0.8329002079002079 0.8477130977130978 0.8586278586278587 0.8687629937629938 0.8765592515592516 0.8781185031185031 0.878898128898129,0.8222453222453222 0.8201663201663202 0.814968814968815 0.8066528066528067 0.7910602910602911 0.7681912681912682 0.6902286902286903 0.6444906444906444 0.5925155925155925 0.5415800415800416 0.501039501039501 0.4334719334719335 0.40332640332640335 0.37422037422037424 0.3461538461538461 0.3201663201663202 0.2713097713097713 0.2515592515592515 0.2286902286902287 0.2151767151767152 0.2068607068607069 0.2006237006237006 0.2006237006237006 0.2079002079002079 0.21621621621621626 0.2234927234927236 0.22453222453222446 0.20582120582120567 0.1725571725571725 0.1434511434511434 0.1351351351351351 0.13305613305613306 0.13305613305613306 0.13305613305613306 0.13409563409563408 0.1351351351351351 0.14033264033264034 0.14449064449064453 0.15176715176715172 0.15904365904365902 0.16528066528066532 0.17463617463617465 0.1777546777546778 0.17983367983367982 0.17983367983367982 0.17983367983367982 0.17983367983367982 0.1787941787941788 0.1787941787941788,233.60000000000585 253.60000000000585 273.6000000000058 293.6000000000058 313.6000000000058 333.6000000000058 353.6000000000058 373.6000000000058 393.6000000000058 413.6000000000058 433.6000000000058 453.6000000000058 473.6000000000058 493.6000000000058 513.6000000000058 533.6000000000058 553.6000000000058 573.6000000000057 593.6000000000057 613.6000000000057 633.6000000000057 653.6000000000057 673.6000000000057 693.6000000000058 713.6000000000058 733.6000000000058 753.6000000000058 773.6000000000058 793.6000000000058 813.6000000000058 833.6000000000058 853.6000000000058 873.6000000000058 893.6000000000058 913.6000000000058 933.6000000000058 953.6000000000058 973.6000000000058 993.6000000000058 1013.6000000000058 1033.6000000000058 1053.6000000000058 1073.6000000000058 1093.6000000000058 1113.6000000000058 1133.6000000000058 1153.6000000000058 1173.6000000000058 1193.6000000000058
cb_04,13.0,enc_trial,stim,response,STEM students,924.7999999998137,enc_trial,1.0,13.0,s_sh_11_1,student_shared,fold-b,pencil case,4.0,competing,close,paired,s_sh_11_1.jpg,,student-b1,STEM students,Fine Arts students,sub-95,1.0,1.0,1.0,1.0,0.4851871101871102 0.4851871101871102 0.4851871101871102 0.4851871101871102 0.4836278586278586 0.4750519750519751 0.4602390852390853 0.4376299376299376 0.40722453222453225 0.3713617463617464 0.3432952182952183 0.3245841995841996 0.3245841995841996 0.3261434511434512 0.3300415800415801 0.33783783783783783 0.3744802494802495 0.3877338877338877 0.3908523908523909 0.3885135135135136 0.3783783783783784 0.3284823284823285 0.28482328482328484 0.2474012474012474 0.21933471933471926 0.19750519750519752 0.17411642411642414 0.16554054054054054 0.16086278586278588 0.15540540540540546 0.1522869022869023 0.14760914760914762 0.14682952182952186,0.8191268191268191 0.816008316008316 0.8087318087318087 0.7972972972972973 0.7796257796257796 0.7328482328482329 0.6891891891891893 0.6299376299376299 0.5519750519750519 0.4667359667359667 0.4054054054054054 0.36174636174636177 0.3586278586278586 0.3575883575883576 0.3565488565488566 0.3555093555093555 0.3565488565488566 0.3575883575883576 0.3565488565488566 0.3513513513513513 0.33783783783783783 0.2889812889812889 0.2557172557172557 0.2286902286902287 0.2079002079002079 0.19438669438669445 0.1787941787941788 0.1715176715176715 0.16528066528066532 0.15904365904365902 0.15384615384615385 0.1507276507276507 0.1496881496881497,266.8999999999942 286.8999999999942 306.8999999999942 326.8999999999942 346.8999999999942 366.8999999999942 386.8999999999942 406.8999999999942 426.8999999999942 446.8999999999942 466.8999999999942 486.8999999999942 506.8999999999942 526.8999999999942 546.8999999999942 566.8999999999943 586.8999999999943 606.8999999999943 626.8999999999943 646.8999999999943 666.8999999999943 686.8999999999943 706.8999999999942 726.8999999999942 746.8999999999942 766.8999999999942 786.8999999999942 806.8999999999942 826.8999999999942 846.8999999999942 866.8999999999942 886.8999999999942 906.8999999999942
cb_04,14.0,enc_trial,stim,response,STEM students,957.3999999999942,enc_trial,1.0,14.0,s_sh_24_1,student_shared,fold-b,desk organizer,4.0,competing,close,paired,s_sh_24_1.jpg,,student-b1,STEM students,Fine Arts students,sub-95,1.0,1.0,1.0,1.0,0.5023388773388774 0.5054573804573804 0.5116943866943867 0.5171517671517671 0.5241683991683992 0.5304054054054054 0.5374220374220374 0.5374220374220374 0.5311850311850311 0.5171517671517671 0.5007796257796258 0.4672557172557173 0.4485446985446985 0.4220374220374221 0.3822765072765073 0.3339397089397089 0.2551975051975052 0.2255717255717256 0.2091995841995842 0.2014033264033264 0.19984407484407485 0.19984407484407485 0.19984407484407485 0.19984407484407485 0.1982848232848233 0.19204781704781707 0.18113305613305614 0.17801455301455305 0.17645530145530147 0.17567567567567569 0.17489604989604993 0.16709979209979212 0.1632016632016632 0.16164241164241167,0.8212058212058212 0.8180873180873179 0.8076923076923077 0.7920997920997921 0.7619542619542621 0.7245322245322245 0.6528066528066527 0.6195426195426195 0.5769230769230769 0.5363825363825363 0.4958419958419958 0.4407484407484408 0.420997920997921 0.4002079002079002 0.3731808731808732 0.341995841995842 0.2806652806652806 0.2515592515592515 0.23076923076923075 0.21725571725571724 0.21309771309771308 0.20893970893970887 0.2079002079002079 0.2079002079002079 0.20582120582120567 0.1995841995841996 0.18918918918918914 0.18814968814968813 0.18711018711018712 0.18711018711018712 0.1860706860706861 0.17983367983367982 0.1777546777546778 0.17671517671517667,283.5 303.5 323.5 343.5 363.5 383.5 403.5 423.5 443.5 463.5 483.5 503.5 523.5 543.5 563.5 583.5 603.5 623.5 643.5 663.5 683.5 703.5 723.5 743.5 763.5 783.5 803.5 823.5 843.5 863.5 883.5 903.5 923.5 943.5
cb_04,15.0,enc_trial,stim,response,STEM students,946.8999999998197,enc_trial,1.0,15.0,s_s_17_1,student_stem,fold-e,ring stand,4.0,unique,far,paired,s_s_17_1.jpg,stem,student-b1,STEM students,Fine Arts students,sub-95,1.0,1.0,1.0,1.0,0.507016632016632 0.507016632016632 0.507016632016632 0.507016632016632 0.507016632016632 0.5116943866943867 0.5171517671517671 0.5249480249480251 0.5374220374220374 0.5498960498960499 0.567047817047817 0.5600311850311851 0.5280665280665281 0.4773908523908524 0.408004158004158 0.34095634095634103 0.2177754677754678 0.16943866943866945 0.13513513513513514 0.11252598752598757 0.09615384615384616 0.08601871101871104 0.08601871101871104 0.08679833679833683 0.09069646569646572 0.0953742203742204 0.1101871101871102 0.12188149688149692 0.13201663201663205 0.13903326403326405 0.14215176715176714 0.14371101871101874 0.14371101871101874 0.14371101871101874 0.14371101871101874 0.14371101871101874,0.8492723492723493 0.8471933471933472 0.843035343035343 0.8367983367983368 0.8274428274428274 0.7827442827442828 0.7442827442827442 0.6995841995841996 0.6455301455301455 0.5956340956340956 0.5135135135135135 0.4802494802494802 0.44698544698544695 0.41787941787941785 0.3846153846153846 0.3482328482328483 0.26715176715176714 0.2297297297297297 0.2047817047817048 0.183991683991684 0.16528066528066532 0.1434511434511434 0.13825363825363826 0.13409563409563408 0.13097713097713093 0.1278586278586279 0.12577962577962576 0.12577962577962576 0.12577962577962576 0.12681912681912674 0.1278586278586279 0.13305613305613306 0.13409563409563408 0.1351351351351351 0.1351351351351351 0.1361746361746362,200.30000000001743 220.30000000001743 240.30000000001743 260.3000000000174 280.3000000000174 300.3000000000174 320.3000000000174 340.3000000000174 360.30000000001746 380.30000000001746 400.30000000001746 420.30000000001746 440.30000000001746 460.30000000001746 480.30000000001746 500.30000000001746 520.3000000000175 540.3000000000175 560.3000000000175 580.3000000000175 600.3000000000175 620.3000000000175 640.3000000000175 660.3000000000175 680.3000000000175 700.3000000000176 720.3000000000176 740.3000000000176 760.3000000000176 780.3000000000176 800.3000000000176 820.3000000000176 840.3000000000176 860.3000000000176 880.3000000000176 900.3000000000176
cb_04,16.0,enc_trial,stim,response,STEM students,1315.0999999998019,enc_trial,1.0,16.0,s_sh_23_2,student_shared,fold-a,ballpoint pen,4.0,competing,far,paired,s_sh_23_2.jpg,,student-b1,STEM students,Fine Arts students,sub-95,1.0,1.0,0.0,0.0,0.5062370062370062 0.5062370062370062 0.5062370062370062 0.5062370062370062 0.5062370062370062 0.5062370062370062 0.5062370062370062 0.5148128898128899 0.5249480249480251 0.5428794178794178 0.5639293139293139 0.6153846153846154 0.6364345114345115 0.6504677754677755 0.6621621621621622 0.6793139293139293 0.7136174636174636 0.7338877338877339 0.7564968814968814 0.7744282744282744 0.7923596673596673 0.8141891891891893 0.8227650727650728 0.8329002079002079 0.8430353430353431 0.8500519750519752 0.8594074844074845 0.8601871101871102 0.8601871101871102 0.8594074844074845 0.846933471933472 0.7689708939708939 0.7198544698544699 0.6715176715176715 0.6130457380457379 0.5389812889812889 0.3775987525987526 0.3167879417879418 0.2793659043659044 0.2474012474012474 0.22245322245322247 0.1834719334719335 0.17099792099792102 0.16476091476091478 0.16476091476091478 0.16476091476091478 0.1530665280665281 0.15072765072765076 0.14994802494802498 0.1491683991683992 0.1491683991683992 0.14994802494802498 0.14994802494802498 0.1491683991683992 0.1483887733887734 0.1483887733887734,0.8076923076923077 0.8066528066528067 0.8035343035343036 0.7972972972972973 0.7848232848232848 0.7692307692307692 0.7203742203742204 0.6725571725571726 0.6299376299376299 0.5727650727650728 0.5187110187110187 0.4386694386694385 0.41060291060291065 0.38981288981288986 0.3627858627858628 0.3253638253638253 0.24740124740124736 0.21309771309771308 0.183991683991684 0.16943866943866948 0.16320166320166318 0.15800415800415804 0.156964656964657 0.15384615384615385 0.15176715176715172 0.1496881496881497 0.14656964656964655 0.14656964656964655 0.14656964656964655 0.14760914760914756 0.156964656964657 0.2047817047817048 0.2203742203742204 0.22453222453222446 0.22453222453222446 0.20997920997920996 0.1496881496881497 0.11018711018711014 0.08004158004158002 0.0498960498960499 0.028066528066528096 0.0010395010395010118 0.0010395010395010118 0.0010395010395010118 0.0010395010395010118 0.0010395010395010118 0.007276507276507305 0.018711018711018657 0.03118503118503113 0.04469854469854473 0.05509355509355507 0.07796257796257801 0.08731808731808732 0.0935550935550935 0.0997920997920998 0.10187110187110182,216.8999999999941 236.8999999999941 256.89999999999407 276.89999999999407 296.8999999999941 316.8999999999941 336.8999999999941 356.8999999999941 376.8999999999941 396.8999999999941 416.8999999999941 436.8999999999941 456.8999999999941 476.8999999999941 496.8999999999941 516.8999999999942 536.8999999999942 556.8999999999942 576.8999999999943 596.8999999999943 616.8999999999943 636.8999999999943 656.8999999999943 676.8999999999943 696.8999999999942 716.8999999999942 736.8999999999942 756.8999999999942 776.8999999999942 796.8999999999942 816.8999999999942 836.8999999999942 856.8999999999942 876.8999999999942 896.8999999999942 916.8999999999942 936.8999999999942 956.8999999999942 976.8999999999942 996.8999999999942 1016.8999999999942 1036.8999999999942 1056.8999999999942 1076.8999999999942 1096.8999999999942 1116.8999999999942 1136.8999999999942 1156.8999999999942 1176.8999999999942 1196.8999999999942 1216.8999999999942 1236.8999999999942 1256.8999999999942 1276.8999999999942 1296.8999999999942 1316.8999999999942
cb_04,17.0,enc_trial,stim,response,Fine Arts students,919.5,enc_trial,1.0,17.0,s_sh_11_2,student_shared,fold-b,pencil case,4.0,competing,close,paired,s_sh_11_2.jpg,,student-b1,STEM students,Fine Arts students,sub-95,1.0,1.0,1.0,1.0,0.4976611226611226 0.4984407484407484 0.5 0.5023388773388774 0.5046777546777547 0.507016632016632 0.5155925155925156 0.5194906444906445 0.5194906444906445 0.5171517671517671 0.510914760914761 0.4875259875259875 0.4734927234927235 0.4571205821205821 0.4376299376299376 0.4243762993762994 0.42593555093555097 0.4415280665280665 0.4649168399168399 0.5007796257796258 0.5436590436590436 0.6512474012474012 0.6855509355509355 0.7143970893970893 0.737006237006237 0.7525987525987525 0.7767671517671517 0.7923596673596673 0.8102910602910603 0.8305613305613306 0.8453742203742205 0.8531704781704782,0.8035343035343036 0.7983367983367984 0.7910602910602911 0.7806652806652806 0.7650727650727651 0.7474012474012475 0.6923076923076923 0.6632016632016632 0.6351351351351351 0.603950103950104 0.5738045738045738 0.5166320166320166 0.4906444906444906 0.4688149688149689 0.4438669438669439 0.420997920997921 0.3835758835758836 0.3638253638253638 0.3440748440748441 0.3232848232848233 0.3014553014553014 0.2338877338877339 0.20893970893970887 0.1923076923076923 0.18191268191268195 0.17567567567567566 0.16839916839916835 0.16320166320166318 0.16112266112266116 0.15800415800415804 0.15800415800415804 0.15800415800415804,233.60000000000585 253.60000000000585 273.6000000000058 293.6000000000058 313.6000000000058 333.6000000000058 353.6000000000058 373.6000000000058 393.6000000000058 413.6000000000058 433.6000000000058 453.6000000000058 473.6000000000058 493.6000000000058 513.6000000000058 533.6000000000058 553.6000000000058 573.6000000000057 593.6000000000057 613.6000000000057 633.6000000000057 653.6000000000057 673.6000000000057 693.6000000000058 713.6000000000058 733.6000000000058 753.6000000000058 773.6000000000058 793.6000000000058 813.6000000000058 833.6000000000058 853.6000000000058
cb_04,18.0,enc_trial,stim,response,Fine Arts students,1234.5,enc_trial,1.0,18.0,s_a_09_1,student_art,fold-e,picture frame,4.0,unique,far,paired,s_a_09_1.jpg,art,student-b1,STEM students,Fine Arts students,sub-95,0.0,0.0,0.0,1.0,0.5 0.5 0.4984407484407484 0.4945426195426195 0.4883056133056133 0.4742723492723493 0.4196985446985447 0.3822765072765073 0.3393970893970894 0.2988565488565489 0.26299376299376304 0.20841995841995845 0.18503118503118504 0.1678794178794179 0.15150727650727652 0.14137214137214138 0.1327962577962578 0.13123700623700627 0.13045738045738048 0.13045738045738048 0.12811850311850315 0.12188149688149692 0.12032224532224535 0.1187629937629938 0.1187629937629938 0.1187629937629938 0.11954261954261955 0.12266112266112268 0.13591476091476093 0.15930353430353433 0.1982848232848233 0.3316008316008316 0.3978690228690229 0.4493243243243243 0.5 0.5436590436590436 0.6255197505197505 0.66995841995842 0.7066008316008315 0.7455821205821206 0.7814449064449064 0.8367983367983368 0.8453742203742205 0.846933471933472,0.8139293139293139 0.8087318087318087 0.8004158004158004 0.7837837837837838 0.7650727650727651 0.7338877338877339 0.6278586278586278 0.5654885654885655 0.5 0.4407484407484408 0.3887733887733888 0.3108108108108109 0.27442827442827444 0.2453222453222453 0.21725571725571724 0.19854469854469856 0.18295218295218296 0.17983367983367982 0.1787941787941788 0.1787941787941788 0.17567567567567566 0.16839916839916835 0.16632016632016633 0.1642411642411642 0.1642411642411642 0.1642411642411642 0.16320166320166318 0.16320166320166318 0.16528066528066532 0.16839916839916835 0.17359667359667366 0.1777546777546778 0.18503118503118496 0.19126819126819128 0.19750519750519746 0.20270270270270274 0.20997920997920996 0.2151767151767152 0.2203742203742204 0.2266112266112265 0.2266112266112265 0.2141372141372141 0.21309771309771308 0.21309771309771308,250.19999999998254 270.19999999998254 290.1999999999825 310.1999999999825 330.1999999999825 350.19999999998254 370.19999999998254 390.19999999998254 410.19999999998254 430.19999999998254 450.19999999998254 470.19999999998254 490.19999999998254 510.19999999998254 530.1999999999825 550.1999999999825 570.1999999999825 590.1999999999825 610.1999999999825 630.1999999999825 650.1999999999825 670.1999999999825 690.1999999999824 710.1999999999824 730.1999999999824 750.1999999999824 770.1999999999824 790.1999999999824 810.1999999999824 830.1999999999824 850.1999999999824 870.1999999999824 890.1999999999824 910.1999999999823 930.1999999999823 950.1999999999823 970.1999999999823 990.1999999999823 1010.1999999999823 1030.1999999999823 1050.1999999999823 1070.1999999999823 1090.1999999999823 1110.1999999999823
cb_04,19.0,enc_trial,stim,response,Fine Arts students,1083.7000000001863,enc_trial,1.0,19.0,s_a_20_1,student_art,fold-a,pin cushion,4.0,unique,close,paired,s_a_20_1.jpg,art,student-b1,STEM students,Fine Arts students,sub-95,1.0,1.0,1.0,1.0,0.4805093555093555 0.4797297297297297 0.4781704781704782 0.4766112266112266 0.4750519750519751 0.4703742203742204 0.4680353430353431 0.4656964656964657 0.4633575883575883 0.4617983367983368 0.4586798336798337 0.4384095634095633 0.4165800415800416 0.3955301455301456 0.3713617463617464 0.34563409563409564 0.29651767151767155 0.2832640332640333 0.2762474012474013 0.2723492723492724 0.27001039501039503 0.2692307692307692 0.27001039501039503 0.27390852390852394 0.2832640332640333 0.2988565488565489 0.3542099792099792 0.3994282744282744 0.4641372141372142 0.5366424116424117 0.6200623700623701 0.7736486486486487 0.8290020790020791 0.8601871101871102 0.8757796257796259 0.8835758835758837 0.8874740124740126 0.8882536382536383 0.8890332640332641 0.8905925155925156 0.8921517671517672 0.8937110187110188 0.8944906444906445,0.8014553014553014 0.7972972972972973 0.7931392931392931 0.7869022869022869 0.7775467775467775 0.7525987525987525 0.7297297297297297 0.7027027027027026 0.6694386694386694 0.6299376299376299 0.5925155925155925 0.5083160083160083 0.4656964656964657 0.4345114345114345 0.4064449064449065 0.38253638253638256 0.3503118503118503 0.33783783783783783 0.3253638253638253 0.3128898128898129 0.3004158004158004 0.2806652806652806 0.27546777546777546 0.27338877338877343 0.2723492723492723 0.2723492723492723 0.2806652806652806 0.28794178794178793 0.2941787941787942 0.2941787941787942 0.2775467775467776 0.2006237006237006 0.16839916839916835 0.15592515592515588 0.15176715176715172 0.14864864864864868 0.14656964656964655 0.14656964656964655 0.14656964656964655 0.14656964656964655 0.14760914760914756 0.1496881496881497 0.15176715176715172,200.20000000001164 220.20000000001164 240.20000000001164 260.20000000001164 280.20000000001164 300.20000000001164 320.20000000001164 340.20000000001164 360.2000000000116 380.2000000000117 400.2000000000117 420.2000000000117 440.2000000000117 460.2000000000117 480.2000000000117 500.2000000000117 520.2000000000116 540.2000000000116 560.2000000000116 580.2000000000116 600.2000000000116 620.2000000000116 640.2000000000116 660.2000000000116 680.2000000000116 700.2000000000116 720.2000000000116 740.2000000000116 760.2000000000116 780.2000000000116 800.2000000000116 820.2000000000116 840.2000000000116 860.2000000000116 880.2000000000116 900.2000000000116 920.2000000000116 940.2000000000116 960.2000000000116 980.2000000000116 1000.2000000000116 1020.2000000000116 1040.2000000000116
cb_04,20.0,enc_trial,stim,response,STEM students,1141.4000000000815,enc_trial,1.0,20.0,s_sh_19_1,student_shared,fold-a,portable plastic drawer,4.0,competing,far,paired,s_sh_19_1.jpg,,student-b1,STEM students,Fine Arts students,sub-95,1.0,1.0,1.0,1.0,0.4883056133056133 0.4883056133056133 0.4883056133056133 0.4898648648648649 0.4906444906444906 0.4875259875259875 0.4758316008316008 0.4579002079002079 0.4337318087318087 0.40878378378378377 0.3838357588357588 0.3425155925155925 0.3316008316008316 0.323024948024948 0.3167879417879418 0.3082120582120582 0.2793659043659044 0.2544178794178794 0.2294698544698545 0.22401247401247404 0.22401247401247404 0.22323284823284825 0.22323284823284825 0.22245322245322247 0.22167359667359668 0.2201143451143452 0.2177754677754678 0.21621621621621626 0.2138773388773389 0.2130977130977131 0.2115384615384616 0.20530145530145533 0.20062370062370066 0.1943866943866944 0.18892931392931395 0.1834719334719335 0.17333679833679835 0.16632016632016633 0.16086278586278588 0.15540540540540546 0.1483887733887734 0.13825363825363826 0.13591476091476093 0.13513513513513514,0.7983367983367984 0.7931392931392931 0.7858627858627858 0.7754677754677755 0.7640332640332641 0.7224532224532225 0.685031185031185 0.6444906444906444 0.6008316008316008 0.5602910602910602 0.5228690228690229 0.4646569646569647 0.4449064449064449 0.4272349272349273 0.4137214137214137 0.3981288981288982 0.35966735966735963 0.33160083160083165 0.30353430353430355 0.2931392931392931 0.2910602910602911 0.2827442827442828 0.2765072765072765 0.2681912681912681 0.26091476091476096 0.25467775467775466 0.2432432432432432 0.2359667359667361 0.2297297297297297 0.22453222453222446 0.21725571725571724 0.19438669438669445 0.18087318087318088 0.16632016632016633 0.15384615384615385 0.1424116424116424 0.1226611226611226 0.11538461538461542 0.10914760914760913 0.10498960498960497 0.10291060291060294 0.10187110187110182 0.1008316008316008 0.1008316008316008,250.29999999998842 270.2999999999884 290.29999999998836 310.29999999998836 330.29999999998836 350.2999999999884 370.2999999999884 390.2999999999884 410.2999999999884 430.2999999999884 450.2999999999884 470.2999999999884 490.2999999999884 510.2999999999884 530.2999999999884 550.2999999999884 570.2999999999884 590.2999999999884 610.2999999999884 630.2999999999884 650.2999999999884 670.2999999999884 690.2999999999884 710.2999999999884 730.2999999999884 750.2999999999884 770.2999999999884 790.2999999999884 810.2999999999884 830.2999999999884 850.2999999999884 870.2999999999884 890.2999999999884 910.2999999999884 930.2999999999884 950.2999999999884 970.2999999999884 990.2999999999884 1010.2999999999884 1030.2999999999884 1050.2999999999884 1070.2999999999884 1090.2999999999884 1110.2999999999884
cb_04,21.0,enc_trial,stim,response,Fine Arts students,883.1999999998953,enc_trial,1.0,21.0,s_sh_24_2,student_shared,fold-b,desk organizer,4.0,competing,close,paired,s_sh_24_2.jpg,,student-b1,STEM students,Fine Arts students,sub-95,1.0,1.0,1.0,1.0,0.4984407484407484 0.4984407484407484 0.4984407484407484 0.4984407484407484 0.4984407484407484 0.4984407484407484 0.4984407484407484 0.4984407484407484 0.4992203742203742 0.4992203742203742 0.5015592515592515 0.5116943866943867 0.5171517671517671 0.5241683991683992 0.5358627858627859 0.5545738045738046 0.6333160083160083 0.6886694386694386 0.7448024948024948 0.7923596673596673 0.8204261954261955 0.8492723492723493 0.8539501039501041 0.8562889812889813 0.8570686070686071 0.8578482328482329 0.8601871101871102 0.8617463617463618 0.8640852390852392 0.8656444906444907 0.8672037422037423 0.8687629937629938,0.8118503118503119 0.8108108108108107 0.8087318087318087 0.8056133056133056 0.8004158004158004 0.7920997920997921 0.7661122661122661 0.7474012474012475 0.7245322245322245 0.6933471933471933 0.6538461538461539 0.5405405405405406 0.4781704781704782 0.4251559251559252 0.3752598752598753 0.3295218295218295 0.2276507276507277 0.17983367983367982 0.1434511434511434 0.11954261954261958 0.11226611226611227 0.1205821205821206 0.12681912681912674 0.1361746361746362 0.14760914760914756 0.15904365904365902 0.1704781704781705 0.17463617463617465 0.18087318087318088 0.18503118503118496 0.18918918918918914 0.19542619542619544,216.8999999999941 236.8999999999941 256.89999999999407 276.89999999999407 296.8999999999941 316.8999999999941 336.8999999999941 356.8999999999941 376.8999999999941 396.8999999999941 416.8999999999941 436.8999999999941 456.8999999999941 476.8999999999941 496.8999999999941 516.8999999999942 536.8999999999942 556.8999999999942 576.8999999999943 596.8999999999943 616.8999999999943 636.8999999999943 656.8999999999943 676.8999999999943 696.8999999999942 716.8999999999942 736.8999999999942 756.8999999999942 776.8999999999942 796.8999999999942 816.8999999999942 836.8999999999942
cb_04,22.0,enc_trial,stim,response,Fine Arts students,1658.5000000001746,enc_trial,1.0,22.0,s_sh_16_2,student_shared,fold-a,stapler,4.0,competing,far,paired,s_sh_16_2.jpg,,student-b1,STEM students,Fine Arts students,sub-95,1.0,1.0,0.0,1.0,0.5023388773388774 0.5023388773388774 0.5023388773388774 0.5023388773388774 0.5015592515592515 0.5007796257796258 0.4992203742203742 0.4976611226611226 0.4945426195426195 0.4906444906444906 0.485966735966736 0.4664760914760915 0.4493243243243243 0.4235966735966736 0.393970893970894 0.3666839916839917 0.3074324324324325 0.28092515592515593 0.2622141372141372 0.2528586278586279 0.2528586278586279 0.2793659043659044 0.3050935550935551 0.3432952182952183 0.40332640332640335 0.4672557172557173 0.6099272349272349 0.6683991683991684 0.7089397089397089 0.7479209979209979 0.7783264033264033 0.8383575883575884 0.8679833679833681 0.8921517671517672 0.910862785862786 0.9217775467775468 0.9295738045738048 0.9295738045738048 0.928014553014553 0.9264553014553016 0.9248960498960501 0.9194386694386696 0.917879417879418 0.9155405405405406 0.9132016632016632 0.906964656964657 0.8874740124740126 0.8711018711018712 0.8492723492723493 0.8266632016632017 0.7985966735966736 0.7292099792099792 0.6754158004158004 0.6146049896049895 0.567047817047817 0.5233887733887734 0.4407484407484408 0.4064449064449064 0.3807172557172557 0.37603950103950107 0.3768191268191268 0.41424116424116425 0.4516632016632017 0.5023388773388774 0.5639293139293139 0.6231808731808731 0.737006237006237 0.7798856548856549 0.8063929313929314 0.8196465696465697 0.8243243243243243 0.8282224532224532 0.8305613305613306 0.8344594594594595 0.8383575883575884 0.8422557172557174 0.8484927234927235,0.8066528066528067 0.8066528066528067 0.8045738045738046 0.8035343035343036 0.8024948024948024 0.8014553014553014 0.7952182952182952 0.7900207900207901 0.7806652806652806 0.7702702702702703 0.7588357588357588 0.7110187110187108 0.6746361746361746 0.6268191268191268 0.5748440748440748 0.5311850311850312 0.4386694386694385 0.3981288981288982 0.3659043659043659 0.33991683991684 0.3274428274428275 0.3139293139293139 0.3118503118503119 0.3108108108108109 0.3108108108108109 0.3118503118503119 0.3087318087318087 0.2983367983367984 0.2858627858627859 0.27442827442827444 0.2661122661122661 0.2422037422037422 0.23076923076923075 0.2214137214137214 0.21309771309771308 0.2068607068607069 0.19854469854469856 0.19646569646569645 0.19438669438669445 0.1933471933471933 0.19022869022869027 0.18191268191268195 0.17983367983367982 0.17671517671517667 0.17567567567567566 0.1725571725571725 0.16320166320166318 0.15384615384615385 0.1434511434511434 0.1351351351351351 0.12681912681912674 0.11642411642411644 0.11226611226611227 0.10810810810810813 0.10810810810810813 0.10810810810810813 0.10187110187110182 0.0987525987525988 0.09563409563409564 0.09563409563409564 0.09563409563409564 0.11642411642411644 0.13097713097713093 0.1434511434511434 0.14864864864864868 0.14864864864864868 0.14137214137214138 0.14033264033264034 0.1424116424116424 0.14760914760914756 0.1507276507276507 0.15384615384615385 0.15488565488565487 0.15800415800415804 0.16008316008316004 0.16216216216216214 0.16632016632016633,116.79999999998836 136.79999999998836 156.7999999999884 176.79999999998836 196.79999999998842 216.79999999998842 236.79999999998842 256.7999999999884 276.7999999999884 296.79999999998836 316.79999999998836 336.79999999998836 356.7999999999884 376.7999999999884 396.7999999999884 416.7999999999884 436.7999999999884 456.7999999999884 476.7999999999884 496.7999999999884 516.7999999999884 536.7999999999884 556.7999999999884 576.7999999999884 596.7999999999884 616.7999999999884 636.7999999999884 656.7999999999884 676.7999999999884 696.7999999999884 716.7999999999884 736.7999999999884 756.7999999999884 776.7999999999884 796.7999999999884 816.7999999999884 836.7999999999884 856.7999999999884 876.7999999999884 896.7999999999884 916.7999999999884 936.7999999999884 956.7999999999884 976.7999999999884 996.7999999999884 1016.7999999999884 1036.7999999999884 1056.7999999999884 1076.7999999999884 1096.7999999999884 1116.7999999999884 1136.7999999999886 1156.7999999999886 1176.7999999999886 1196.7999999999886 1216.7999999999886 1236.7999999999886 1256.7999999999886 1276.7999999999886 1296.7999999999886 1316.7999999999886 1336.7999999999886 1356.7999999999886 1376.7999999999884 1396.7999999999884 1416.7999999999884 1436.7999999999884 1456.7999999999884 1476.7999999999884 1496.7999999999884 1516.7999999999884 1536.7999999999884 1556.7999999999884 1576.7999999999884 1596.7999999999884 1616.7999999999884 1636.7999999999884
cb_04,23.0,enc_trial,stim,response,Fine Arts students,1190.8000000001919,enc_trial,1.0,23.0,s_a_20_2,student_art,fold-a,pin cushion,4.0,unique,close,paired,s_a_20_2.jpg,art,student-b1,STEM students,Fine Arts students,sub-95,1.0,1.0,1.0,1.0,0.4961018711018711 0.4961018711018711 0.4961018711018711 0.4937629937629938 0.4875259875259875 0.4703742203742204 0.4563409563409563 0.446985446985447 0.4423076923076923 0.446985446985447 0.4617983367983368 0.5358627858627859 0.5865384615384616 0.6465696465696466 0.7120582120582121 0.7603950103950103 0.8227650727650728 0.8313409563409564 0.8321205821205822 0.8274428274428275 0.8134095634095635 0.7393451143451143 0.6824324324324325 0.6068087318087318 0.5085758835758836 0.42125779625779625 0.29963617463617465 0.27546777546777546 0.2707900207900208 0.2731288981288981 0.2933991683991684 0.3931912681912682 0.4680353430353431 0.5506756756756757 0.6208419958419958 0.6808731808731808 0.8017151767151768 0.8477130977130978 0.8781185031185031 0.8952702702702703 0.9015072765072766 0.903066528066528,0.814968814968815 0.8108108108108107 0.8045738045738046 0.7941787941787941 0.7744282744282744 0.7182952182952183 0.6798336798336798 0.6413721413721414 0.603950103950104 0.5727650727650728 0.5509355509355509 0.4916839916839917 0.4428274428274428 0.3794178794178794 0.3087318087318087 0.261954261954262 0.20997920997920996 0.2016632016632016 0.1995841995841996 0.19750519750519746 0.19646569646569645 0.19542619542619544 0.18087318087318088 0.156964656964657 0.12993762993762992 0.1070686070686071 0.07692307692307687 0.07068607068607069 0.06964656964656968 0.07068607068607069 0.08212058212058215 0.10498960498960497 0.10810810810810813 0.10291060291060294 0.09563409563409564 0.0935550935550935 0.0935550935550935 0.0997920997920998 0.10810810810810813 0.11642411642411644 0.1216216216216216 0.12370062370062375,283.6000000000058 303.6000000000058 323.6000000000058 343.6000000000058 363.6000000000058 383.6000000000058 403.6000000000058 423.6000000000058 443.6000000000058 463.6000000000058 483.6000000000058 503.6000000000058 523.6000000000058 543.6000000000058 563.6000000000057 583.6000000000057 603.6000000000057 623.6000000000057 643.6000000000057 663.6000000000057 683.6000000000057 703.6000000000058 723.6000000000058 743.6000000000058 763.6000000000058 783.6000000000058 803.6000000000058 823.6000000000058 843.6000000000058 863.6000000000058 883.6000000000058 903.6000000000058 923.6000000000058 943.6000000000058 963.6000000000058 983.6000000000058 1003.6000000000058 1023.6000000000058 1043.6000000000058 1063.6000000000058 1083.6000000000058 1103.6000000000058
cb_04,24.0,enc_trial,stim,response,Fine Arts students,1064.3000000001919,enc_trial,1.0,24.0,s_sh_07_2,student_shared,fold-a,ruler,4.0,competing,far,paired,s_sh_07_2.jpg,,student-b1,STEM students,Fine Arts students,sub-95,1.0,1.0,1.0,1.0,0.4890852390852391 0.4890852390852391 0.4890852390852391 0.4867463617463618 0.4805093555093555 0.4695945945945946 0.4321725571725572 0.4111226611226611 0.38461538461538464 0.3557692307692308 0.3393970893970894 0.3206860706860707 0.31444906444906445 0.31055093555093555 0.31133056133056136 0.3269230769230769 0.3931912681912682 0.4454261954261953 0.5007796257796258 0.567047817047817 0.637993762993763 0.7642931392931392 0.8118503118503119 0.8453742203742205 0.8687629937629938 0.8820166320166322 0.8851351351351352 0.8851351351351352 0.8851351351351352 0.8851351351351352 0.8843555093555094 0.8843555093555094 0.8843555093555094 0.8835758835758837 0.8835758835758837 0.8827962577962578 0.8827962577962578,0.7848232848232848 0.7785862785862786 0.7661122661122661 0.7442827442827442 0.7130977130977131 0.6725571725571726 0.5623700623700624 0.5291060291060291 0.4989604989604989 0.47297297297297297 0.4584199584199584 0.420997920997921 0.396049896049896 0.3731808731808732 0.3607068607068608 0.3492723492723493 0.3357588357588358 0.33264033264033266 0.3284823284823285 0.3212058212058212 0.3097713097713097 0.27442827442827444 0.2557172557172557 0.2422037422037422 0.23076923076923075 0.2224532224532224 0.2203742203742204 0.2203742203742204 0.2203742203742204 0.2203742203742204 0.2203742203742204 0.2203742203742204 0.21933471933471926 0.21621621621621626 0.21205821205821207 0.2079002079002079 0.2068607068607069,333.70000000001164 353.7000000000116 373.7000000000117 393.7000000000117 413.7000000000117 433.7000000000117 453.7000000000117 473.7000000000117 493.7000000000117 513.7000000000116 533.7000000000116 553.7000000000116 573.7000000000116 593.7000000000116 613.7000000000116 633.7000000000116 653.7000000000116 673.7000000000116 693.7000000000116 713.7000000000116 733.7000000000116 753.7000000000116 773.7000000000116 793.7000000000116 813.7000000000116 833.7000000000116 853.7000000000116 873.7000000000116 893.7000000000116 913.7000000000116 933.7000000000116 953.7000000000116 973.7000000000116 993.7000000000116 1013.7000000000116 1033.7000000000116 1053.7000000000116
cb_04,25.0,enc_trial,stim,response,Fine Arts students,906.1000000000058,enc_trial,1.0,25.0,s_a_03_2,student_art,fold-e,palette,4.0,unique,far,paired,s_a_03_2.jpg,art,student-b1,STEM students,Fine Arts students,sub-95,1.0,1.0,1.0,1.0,0.4992203742203742 0.4984407484407484 0.4984407484407484 0.4984407484407484 0.4976611226611226 0.4953222453222453 0.485966735966736 0.4797297297297297 0.4766112266112266 0.4734927234927235 0.4742723492723493 0.5038981288981289 0.5304054054054054 0.5647089397089397 0.5974532224532224 0.623960498960499 0.6465696465696466 0.6551455301455301 0.6652806652806653 0.6777546777546778 0.6925675675675675 0.7338877338877339 0.7603950103950103 0.7853430353430353 0.8063929313929314 0.8297817047817049 0.8695426195426196 0.8820166320166322 0.8913721413721415 0.8976091476091477 0.9022869022869024 0.9085239085239086,0.8326403326403327 0.8326403326403327 0.8305613305613305 0.8284823284823285 0.8243243243243243 0.8170478170478169 0.7858627858627858 0.762993762993763 0.7390852390852392 0.7110187110187108 0.6819126819126821 0.6008316008316008 0.5592515592515592 0.5093555093555093 0.4625779625779626 0.420997920997921 0.36174636174636177 0.3274428274428275 0.2889812889812889 0.2567567567567568 0.23076923076923075 0.2016632016632016 0.19542619542619544 0.1933471933471933 0.1933471933471933 0.1933471933471933 0.1923076923076923 0.18918918918918914 0.1860706860706861 0.18503118503118496 0.18191268191268195 0.17983367983367982,233.60000000000585 253.60000000000585 273.6000000000058 293.6000000000058 313.6000000000058 333.6000000000058 353.6000000000058 373.6000000000058 393.6000000000058 413.6000000000058 433.6000000000058 453.6000000000058 473.6000000000058 493.6000000000058 513.6000000000058 533.6000000000058 553.6000000000058 573.6000000000057 593.6000000000057 613.6000000000057 633.6000000000057 653.6000000000057 673.6000000000057 693.6000000000058 713.6000000000058 733.6000000000058 753.6000000000058 773.6000000000058 793.6000000000058 813.6000000000058 833.6000000000058 853.6000000000058
cb_04,26.0,enc_trial,stim,response,STEM students,1443.9000000001981,enc_trial,1.0,26.0,s_s_14_2,student_stem,fold-e,funnel,4.0,unique,far,paired,s_s_14_2.jpg,stem,student-b1,STEM students,Fine Arts students,sub-95,1.0,1.0,1.0,1.0,0.4875259875259875 0.4867463617463618 0.4851871101871102 0.4836278586278586 0.4812889812889813 0.4805093555093555 0.4836278586278586 0.4890852390852391 0.4945426195426195 0.5007796257796258 0.5046777546777547 0.4812889812889813 0.4524428274428274 0.42125779625779625 0.3885135135135136 0.3643451143451144 0.3432952182952183 0.3448544698544699 0.35498960498960497 0.3775987525987526 0.41502079002078995 0.5187110187110187 0.5756237006237006 0.6348752598752598 0.6832120582120582 0.7159563409563409 0.783004158004158 0.814968814968815 0.8406964656964657 0.8656444906444907 0.8812370062370063 0.8874740124740126 0.8874740124740126 0.8874740124740126 0.8874740124740126 0.885914760914761 0.8773388773388774 0.8695426195426196 0.8523908523908524 0.8219854469854471 0.7736486486486487 0.6278586278586279 0.5397609147609148 0.4555613305613306 0.3892931392931393 0.3323804573804574 0.2715696465696466 0.25597713097713104 0.24974012474012475 0.2474012474012474 0.2442827442827443 0.23414760914760915 0.2286902286902287 0.2247920997920998 0.21933471933471926 0.21231808731808727 0.18970893970893973 0.18113305613305614 0.17333679833679835 0.16632016632016633 0.16242203742203745 0.16086278586278588,0.7848232848232848 0.7817047817047817 0.7765072765072765 0.7681912681912682 0.7557172557172557 0.7006237006237006 0.661122661122661 0.6195426195426195 0.5738045738045738 0.5374220374220374 0.503118503118503 0.4168399168399168 0.3752598752598753 0.3461538461538461 0.3222453222453222 0.3024948024948025 0.2817047817047817 0.2817047817047817 0.2817047817047817 0.2858627858627859 0.2920997920997921 0.3004158004158004 0.2993762993762994 0.2900207900207901 0.2785862785862786 0.2702702702702703 0.2422037422037422 0.2266112266112265 0.21621621621621626 0.20893970893970887 0.2047817047817048 0.20374220374220373 0.20374220374220373 0.20374220374220373 0.2006237006237006 0.19646569646569645 0.19126819126819128 0.18814968814968813 0.18503118503118496 0.18295218295218296 0.18087318087318088 0.183991683991684 0.18503118503118496 0.18087318087318088 0.1704781704781705 0.156964656964657 0.13929313929313925 0.1351351351351351 0.13409563409563408 0.13409563409563408 0.13409563409563408 0.13305613305613306 0.13201663201663205 0.13097713097713093 0.12993762993762992 0.12993762993762992 0.12993762993762992 0.12993762993762992 0.12993762993762992 0.1288981288981289 0.1288981288981289 0.1288981288981289,233.60000000000585 253.60000000000585 273.6000000000058 293.6000000000058 313.6000000000058 333.6000000000058 353.6000000000058 373.6000000000058 393.6000000000058 413.6000000000058 433.6000000000058 453.6000000000058 473.6000000000058 493.6000000000058 513.6000000000058 533.6000000000058 553.6000000000058 573.6000000000057 593.6000000000057 613.6000000000057 633.6000000000057 653.6000000000057 673.6000000000057 693.6000000000058 713.6000000000058 733.6000000000058 753.6000000000058 773.6000000000058 793.6000000000058 813.6000000000058 833.6000000000058 853.6000000000058 873.6000000000058 893.6000000000058 913.6000000000058 933.6000000000058 953.6000000000058 973.6000000000058 993.6000000000058 1013.6000000000058 1033.6000000000058 1053.6000000000058 1073.6000000000058 1093.6000000000058 1113.6000000000058 1133.6000000000058 1153.6000000000058 1173.6000000000058 1193.6000000000058 1213.6000000000058 1233.6000000000058 1253.6000000000058 1273.6000000000058 1293.6000000000058 1313.6000000000058 1333.6000000000058 1353.6000000000058 1373.6000000000058 1393.6000000000058 1413.6000000000058 1433.6000000000058 1453.6000000000058
cb_04,27.0,enc_trial,stim,response,STEM students,1042.6000000001804,enc_trial,1.0,27.0,s_s_05_1,student_stem,fold-a,lab goggles,4.0,unique,close,paired,s_s_05_1.jpg,stem,student-b1,STEM students,Fine Arts students,sub-95,1.0,1.0,1.0,1.0,0.5062370062370062 0.5062370062370062 0.5101351351351351 0.5148128898128899 0.5226091476091476 0.5366424116424117 0.5764033264033264 0.5997920997920998 0.6200623700623701 0.6364345114345115 0.6426715176715176 0.6286382536382537 0.6013513513513513 0.5639293139293139 0.510914760914761 0.4524428274428274 0.3206860706860707 0.2528586278586279 0.1943866943866944 0.14527027027027029 0.10862785862785863 0.064968814968815 0.057952182952182976 0.0571725571725572 0.0571725571725572 0.059511434511434536 0.064968814968815 0.06574844074844077 0.06574844074844077 0.06574844074844077 0.06652806652806656 0.07354469854469857 0.08445945945945947 0.09771309771309772 0.11096673596673598 0.12188149688149692 0.13045738045738048 0.13123700623700627,0.8253638253638254 0.8222453222453222 0.814968814968815 0.8035343035343036 0.7817047817047817 0.7474012474012475 0.66008316008316 0.6143451143451144 0.5696465696465696 0.5280665280665279 0.497920997920998 0.44698544698544695 0.4220374220374221 0.3981288981288982 0.367983367983368 0.33264033264033266 0.2557172557172557 0.2151767151767152 0.1777546777546778 0.14033264033264034 0.10914760914760913 0.06860706860706857 0.06133056133056136 0.06029106029106024 0.06029106029106024 0.06029106029106024 0.0644490644490644 0.06548856548856552 0.06548856548856552 0.06548856548856552 0.06652806652806653 0.07588357588357586 0.08523908523908519 0.09771309771309766 0.11226611226611227 0.12577962577962576 0.13929313929313925 0.14033264033264034,283.6000000000058 303.6000000000058 323.6000000000058 343.6000000000058 363.6000000000058 383.6000000000058 403.6000000000058 423.6000000000058 443.6000000000058 463.6000000000058 483.6000000000058 503.6000000000058 523.6000000000058 543.6000000000058 563.6000000000057 583.6000000000057 603.6000000000057 623.6000000000057 643.6000000000057 663.6000000000057 683.6000000000057 703.6000000000058 723.6000000000058 743.6000000000058 763.6000000000058 783.6000000000058 803.6000000000058 823.6000000000058 843.6000000000058 863.6000000000058 883.6000000000058 903.6000000000058 923.6000000000058 943.6000000000058 963.6000000000058 983.6000000000058 1003.6000000000058 1023.6000000000058
cb_04,28.0,enc_trial,stim,response,STEM students,1014.300000000192,enc_trial,1.0,28.0,s_s_17_2,student_stem,fold-e,ring stand,4.0,unique,far,paired,s_s_17_2.jpg,stem,student-b1,STEM students,Fine Arts students,sub-95,1.0,1.0,1.0,1.0,0.4890852390852391 0.4890852390852391 0.4890852390852391 0.4883056133056133 0.4883056133056133 0.4883056133056133 0.4883056133056133 0.4883056133056133 0.4883056133056133 0.4875259875259875 0.485966735966736 0.478950103950104 0.4688149688149688 0.4462058212058212 0.40878378378378377 0.3635654885654886 0.27001039501039503 0.2380457380457381 0.2201143451143452 0.2185550935550936 0.2325883575883576 0.29651767151767155 0.3425155925155925 0.4002079002079002 0.4493243243243243 0.4812889812889813 0.4906444906444906 0.4836278586278586 0.4625779625779626 0.4235966735966736 0.3799376299376299 0.2910602910602911 0.25597713097713104 0.2271309771309772 0.20062370062370066 0.17645530145530147 0.1374740124740125 0.12266112266112268 0.11252598752598757 0.1101871101871102,0.7837837837837838 0.7837837837837838 0.7837837837837838 0.7837837837837838 0.7837837837837838 0.7837837837837838 0.7827442827442828 0.7806652806652806 0.7796257796257796 0.7765072765072765 0.7713097713097713 0.7453222453222453 0.7214137214137214 0.6829521829521831 0.6268191268191268 0.5654885654885655 0.4417879417879418 0.38981288981288986 0.343035343035343 0.3128898128898129 0.2889812889812889 0.2692307692307693 0.2661122661122661 0.2650727650727651 0.2650727650727651 0.26715176715176714 0.2692307692307693 0.2692307692307693 0.2692307692307693 0.2661122661122661 0.25987525987525983 0.23180873180873185 0.21725571725571724 0.2006237006237006 0.18295218295218296 0.16320166320166318 0.13305613305613306 0.1226611226611226 0.11538461538461542 0.1143451143451143,200.30000000001743 220.30000000001743 240.30000000001743 260.3000000000174 280.3000000000174 300.3000000000174 320.3000000000174 340.3000000000174 360.30000000001746 380.30000000001746 400.30000000001746 420.30000000001746 440.30000000001746 460.30000000001746 480.30000000001746 500.30000000001746 520.3000000000175 540.3000000000175 560.3000000000175 580.3000000000175 600.3000000000175 620.3000000000175 640.3000000000175 660.3000000000175 680.3000000000175 700.3000000000176 720.3000000000176 740.3000000000176 760.3000000000176 780.3000000000176 800.3000000000176 820.3000000000176 840.3000000000176 860.3000000000176 880.3000000000176 900.3000000000176 920.3000000000177 940.3000000000177 960.3000000000177 980.3000000000177
cb_04,29.0,enc_trial,stim,response,Fine Arts students,844.2000000001863,enc_trial,1.0,29.0,s_sh_10_1,student_shared,fold-b,scissors,4.0,competing,close,paired,s_sh_10_1.jpg,,student-b1,STEM students,Fine Arts students,sub-95,0.0,0.0,0.0,1.0,0.5038981288981289 0.5038981288981289 0.5038981288981289 0.5031185031185031 0.5023388773388774 0.5015592515592515 0.4976611226611226 0.4961018711018711 0.4953222453222453 0.4953222453222453 0.4992203742203742 0.5374220374220374 0.5623700623700624 0.5740644490644491 0.5701663201663202 0.5498960498960499 0.4992203742203742 0.4828482328482329 0.4836278586278586 0.5054573804573804 0.5335239085239085 0.6255197505197505 0.6777546777546778 0.7237525987525988 0.765072765072765 0.7954781704781705 0.8282224532224532 0.8391372141372142 0.8492723492723493 0.8594074844074845 0.8672037422037423 0.8804573804573805 0.8851351351351352 0.8866943866943867,0.8336798336798337 0.8326403326403327 0.8326403326403327 0.8316008316008316 0.8284823284823285 0.8264033264033264 0.8118503118503119 0.8024948024948024 0.7889812889812889 0.7661122661122661 0.7328482328482329 0.6330561330561331 0.5935550935550935 0.5675675675675675 0.5446985446985446 0.5166320166320166 0.4553014553014553 0.4158004158004158 0.3846153846153846 0.3555093555093555 0.33783783783783783 0.2993762993762994 0.2681912681912681 0.2359667359667361 0.20893970893970887 0.19022869022869027 0.18191268191268195 0.18191268191268195 0.18087318087318088 0.17983367983367982 0.1787941787941788 0.1725571725571725 0.16943866943866948 0.16943866943866948,150.10000000000582 170.10000000000582 190.10000000000585 210.10000000000585 230.10000000000585 250.10000000000585 270.1000000000058 290.1000000000058 310.1000000000058 330.1000000000058 350.1000000000058 370.1000000000058 390.1000000000058 410.1000000000058 430.1000000000058 450.1000000000058 470.1000000000058 490.1000000000058 510.1000000000058 530.1000000000058 550.1000000000058 570.1000000000057 590.1000000000057 610.1000000000057 630.1000000000057 650.1000000000057 670.1000000000057 690.1000000000058 710.1000000000058 730.1000000000058 750.1000000000058 770.1000000000058 790.1000000000058 810.1000000000058
cb_04,30.0,enc_trial,stim,response,STEM students,872.0000000000873,enc_trial,1.0,30.0,s_a_10_1,student_art,fold-a,tripod,4.0,unique,close,paired,s_a_10_1.jpg,art,student-b1,STEM students,Fine Arts students,sub-95,0.0,0.0,0.0,0.0,0.4937629937629938 0.4937629937629938 0.49298336798336795 0.4922037422037422 0.4906444906444906 0.4898648648648649 0.485966735966736 0.4828482328482329 0.4781704781704782 0.4727130977130977 0.4664760914760915 0.4430873180873181 0.4274948024948025 0.4064449064449064 0.39007276507276506 0.3814968814968815 0.3814968814968815 0.37915800415800416 0.3682432432432433 0.3425155925155925 0.3074324324324325 0.23414760914760915 0.2091995841995842 0.18970893970893973 0.1803534303534304 0.17801455301455305 0.17801455301455305 0.17801455301455305 0.17801455301455305 0.17801455301455305 0.17801455301455305 0.17489604989604993 0.1717775467775468 0.16709979209979212 0.16086278586278588 0.15072765072765076 0.12733887733887736 0.11798336798336805 0.11252598752598757 0.1101871101871102,0.8170478170478169 0.816008316008316 0.816008316008316 0.8139293139293139 0.8128898128898129 0.8108108108108107 0.8045738045738046 0.7993762993762994 0.7920997920997921 0.7827442827442828 0.7713097713097713 0.7286902286902287 0.6975051975051976 0.6507276507276507 0.604989604989605 0.5634095634095634 0.497920997920998 0.4708939708939709 0.43970893970893976 0.4002079002079002 0.36174636174636177 0.2983367983367984 0.2827442827442828 0.2702702702702703 0.2661122661122661 0.2661122661122661 0.2661122661122661 0.2661122661122661 0.2661122661122661 0.2661122661122661 0.2661122661122661 0.261954261954262 0.2567567567567568 0.2494802494802495 0.23700623700623705 0.2151767151767152 0.16839916839916835 0.15176715176715172 0.1434511434511434 0.13929313929313925,33.39999999999418 53.39999999999418 73.3999999999942 93.39999999999418 113.39999999999418 133.39999999999418 153.39999999999418 173.3999999999942 193.39999999999415 213.39999999999415 233.39999999999415 253.39999999999415 273.3999999999942 293.3999999999942 313.3999999999942 333.3999999999942 353.3999999999942 373.3999999999942 393.3999999999942 413.3999999999942 433.3999999999942 453.3999999999942 473.3999999999942 493.3999999999942 513.3999999999942 533.3999999999942 553.3999999999942 573.3999999999943 593.3999999999943 613.3999999999943 633.3999999999943 653.3999999999943 673.3999999999943 693.3999999999942 713.3999999999942 733.3999999999942 753.3999999999942 773.3999999999942 793.3999999999942 813.3999999999942
cb_04,31.0,enc_trial,stim,response,STEM students,816.6999999998079,enc_trial,1.0,31.0,s_s_05_2,student_stem,fold-a,lab goggles,4.0,unique,close,paired,s_s_05_2.jpg,stem,student-b1,STEM students,Fine Arts students,sub-95,1.0,1.0,1.0,1.0,0.510914760914761 0.5124740124740125 0.5163721413721414 0.5257276507276507 0.5374220374220374 0.5537941787941788 0.5849792099792099 0.6013513513513513 0.6091476091476091 0.6029106029106029 0.581081081081081 0.4898648648648649 0.4446465696465696 0.3947505197505198 0.3425155925155925 0.2980769230769231 0.2138773388773389 0.18503118503118504 0.16476091476091478 0.15150727650727652 0.14215176715176714 0.12422037422037426 0.11642411642411644 0.10550935550935553 0.0945945945945946 0.08523908523908526 0.08290020790020793 0.08290020790020793 0.0836798336798337,0.8284823284823285 0.8243243243243243 0.8118503118503119 0.7900207900207901 0.762993762993763 0.7234927234927235 0.6392931392931394 0.5956340956340956 0.5530145530145529 0.5124740124740125 0.4771309771309772 0.39501039501039503 0.3648648648648649 0.3357588357588358 0.3076923076923077 0.2806652806652806 0.2234927234927236 0.1995841995841996 0.17983367983367982 0.16528066528066532 0.15488565488565487 0.13305613305613306 0.1226611226611226 0.10810810810810813 0.09459459459459464 0.08316008316008316 0.07900207900207902 0.07796257796257801 0.07796257796257801,250.3999999999941 270.39999999999407 290.3999999999941 310.3999999999941 330.3999999999941 350.3999999999941 370.3999999999941 390.3999999999941 410.3999999999941 430.3999999999941 450.3999999999941 470.3999999999941 490.3999999999941 510.3999999999941 530.3999999999942 550.3999999999942 570.3999999999943 590.3999999999943 610.3999999999943 630.3999999999943 650.3999999999943 670.3999999999943 690.3999999999942 710.3999999999942 730.3999999999942 750.3999999999942 770.3999999999942 790.3999999999942 810.3999999999942
cb_04,32.0,enc_trial,stim,response,STEM students,1617.6000000000934,enc_trial,1.0,32.0,s_sh_14_2,student_shared,fold-b,printer,4.0,competing,close,paired,s_sh_14_2.jpg,,student-b1,STEM students,Fine Arts students,sub-95,1.0,1.0,0.0,0.0,0.5335239085239085 0.5335239085239085 0.5327442827442828 0.531964656964657 0.5311850311850311 0.5296257796257796 0.5257276507276507 0.5226091476091476 0.5179313929313929 0.5132536382536382 0.5062370062370062 0.478950103950104 0.4547817047817048 0.42593555093555097 0.3955301455301456 0.3659043659043659 0.3269230769230769 0.3191268191268191 0.3175675675675676 0.3175675675675676 0.3206860706860707 0.3362785862785863 0.3487525987525988 0.3729209979209979 0.40332640332640335 0.4423076923076923 0.5491164241164241 0.5896569646569646 0.6192827442827443 0.6372141372141372 0.6426715176715176 0.6442307692307693 0.6442307692307693 0.6426715176715176 0.6372141372141372 0.6247401247401247 0.5639293139293139 0.510914760914761 0.4571205821205821 0.4002079002079002 0.3510914760914761 0.2567567567567568 0.2302494802494803 0.2185550935550936 0.20997920997920996 0.20374220374220373 0.1982848232848233 0.19750519750519752 0.19750519750519752 0.19672557172557176 0.1943866943866944 0.19048856548856552 0.19048856548856552 0.18892931392931395 0.1865904365904366 0.1834719334719335 0.1803534303534304 0.1803534303534304 0.1803534303534304 0.1803534303534304 0.1803534303534304,0.8076923076923077 0.8066528066528067 0.8035343035343036 0.8014553014553014 0.7983367983367984 0.7941787941787941 0.7827442827442828 0.7744282744282744 0.7650727650727651 0.7525987525987525 0.7390852390852392 0.6871101871101871 0.6444906444906444 0.5997920997920998 0.5540540540540541 0.5072765072765073 0.4282744282744283 0.393970893970894 0.3648648648648649 0.34095634095634103 0.3264033264033264 0.3014553014553014 0.2920997920997921 0.2796257796257796 0.2702702702702703 0.25987525987525983 0.2338877338877339 0.21621621621621626 0.19854469854469856 0.18503118503118496 0.17983367983367982 0.1777546777546778 0.1777546777546778 0.1777546777546778 0.1777546777546778 0.18191268191268195 0.19022869022869027 0.19646569646569645 0.19854469854469856 0.19750519750519746 0.18918918918918914 0.16216216216216214 0.15488565488565487 0.15176715176715172 0.1507276507276507 0.1496881496881497 0.1496881496881497 0.14864864864864868 0.14864864864864868 0.14864864864864868 0.14864864864864868 0.14656964656964655 0.14656964656964655 0.14656964656964655 0.14553014553014554 0.14449064449064453 0.14449064449064453 0.14449064449064453 0.14449064449064453 0.14449064449064453 0.14449064449064453,66.70000000001164 86.70000000001164 106.70000000001164 126.70000000001164 146.7000000000116 166.7000000000116 186.70000000001164 206.70000000001164 226.70000000001164 246.70000000001164 266.70000000001164 286.70000000001164 306.70000000001164 326.70000000001164 346.7000000000116 366.7000000000117 386.7000000000117 406.7000000000117 426.7000000000117 446.7000000000117 466.7000000000117 486.7000000000117 506.7000000000117 526.7000000000116 546.7000000000116 566.7000000000116 586.7000000000116 606.7000000000116 626.7000000000116 646.7000000000116 666.7000000000116 686.7000000000116 706.7000000000116 726.7000000000116 746.7000000000116 766.7000000000116 786.7000000000116 806.7000000000116 826.7000000000116 846.7000000000116 866.7000000000116 886.7000000000116 906.7000000000116 926.7000000000116 946.7000000000116 966.7000000000116 986.7000000000116 1006.7000000000116 1026.7000000000116 1046.7000000000116 1066.7000000000116 1086.7000000000116 1106.7000000000116 1126.7000000000114 1146.7000000000114 1166.7000000000114 1186.7000000000114 1206.7000000000114 1226.7000000000114 1246.7000000000114 1266.7000000000114
cb_04,33.0,enc_trial,stim,response,Fine Arts students,1439.3999999999066,enc_trial,1.0,33.0,s_sh_10_2,student_shared,fold-b,scissors,4.0,competing,close,paired,s_sh_10_2.jpg,,student-b1,STEM students,Fine Arts students,sub-95,0.0,0.0,0.0,1.0,0.5077962577962578 0.5077962577962578 0.507016632016632 0.5046777546777547 0.5007796257796258 0.4922037422037422 0.4485446985446985 0.4119022869022869 0.3768191268191268 0.3581081081081081 0.3635654885654886 0.4360706860706861 0.4890852390852391 0.5491164241164241 0.6224012474012474 0.6847713097713097 0.7393451143451143 0.7448024948024948 0.7455821205821206 0.7432432432432432 0.737006237006237 0.7128378378378378 0.7050415800415799 0.7050415800415799 0.7089397089397089 0.7206340956340956 0.7666320166320166 0.7978170478170478 0.8297817047817049 0.8531704781704782 0.8609667359667359 0.8578482328482329 0.8445945945945946 0.8204261954261955 0.7876819126819127 0.7479209979209979 0.6582640332640333 0.5990124740124739 0.5397609147609148 0.4953222453222453 0.4680353430353431 0.4547817047817048 0.4579002079002079 0.4734927234927235 0.4984407484407484 0.5350831600831599 0.6621621621621622 0.7167359667359667 0.7635135135135135 0.8024948024948025 0.8329002079002079 0.8773388773388774 0.8898128898128899 0.8999480249480251 0.9046257796257796 0.9054054054054056 0.9061850311850312,0.8274428274428274 0.8243243243243243 0.8170478170478169 0.8035343035343036 0.7858627858627858 0.762993762993763 0.6798336798336798 0.6174636174636174 0.5509355509355509 0.4968814968814969 0.4615384615384616 0.4168399168399168 0.4054054054054054 0.3918918918918919 0.37422037422037424 0.3575883575883576 0.3357588357588358 0.3274428274428275 0.3201663201663202 0.3056133056133056 0.2817047817047817 0.23180873180873185 0.2141372141372141 0.2047817047817048 0.19542619542619544 0.18295218295218296 0.1496881496881497 0.12993762993762992 0.10914760914760913 0.09563409563409564 0.09043659043659047 0.08939708939708935 0.08939708939708935 0.09147609147609148 0.09563409563409564 0.09771309771309766 0.08939708939708935 0.08212058212058215 0.07276507276507271 0.06756756756756754 0.06652806652806653 0.06964656964656968 0.07276507276507271 0.08523908523908519 0.1008316008316008 0.1143451143451143 0.13305613305613306 0.13825363825363826 0.13929313929313925 0.13929313929313925 0.14033264033264034 0.14449064449064453 0.1496881496881497 0.15592515592515588 0.16112266112266116 0.1642411642411642 0.16839916839916835,250.3999999999941 270.39999999999407 290.3999999999941 310.3999999999941 330.3999999999941 350.3999999999941 370.3999999999941 390.3999999999941 410.3999999999941 430.3999999999941 450.3999999999941 470.3999999999941 490.3999999999941 510.3999999999941 530.3999999999942 550.3999999999942 570.3999999999943 590.3999999999943 610.3999999999943 630.3999999999943 650.3999999999943 670.3999999999943 690.3999999999942 710.3999999999942 730.3999999999942 750.3999999999942 770.3999999999942 790.3999999999942 810.3999999999942 830.3999999999942 850.3999999999942 870.3999999999942 890.3999999999942 910.3999999999942 930.3999999999942 950.3999999999942 970.3999999999942 990.3999999999942 1010.3999999999942 1030.3999999999942 1050.3999999999942 1070.3999999999942 1090.3999999999942 1110.3999999999942 1130.3999999999942 1150.3999999999942 1170.3999999999942 1190.3999999999942 1210.3999999999942 1230.3999999999942 1250.3999999999942 1270.3999999999942 1290.3999999999942 1310.3999999999942 1330.3999999999942 1350.3999999999942 1370.3999999999942
cb_04,34.0,enc_trial,stim,response,STEM students,1060.7000000000116,enc_trial,1.0,34.0,s_a_09_2,student_art,fold-e,picture frame,4.0,unique,far,paired,s_a_09_2.jpg,art,student-b1,STEM students,Fine Arts students,sub-95,0.0,0.0,0.0,1.0,0.4914241164241164 0.4890852390852391 0.485966735966736 0.4797297297297297 0.4711538461538462 0.4579002079002079 0.4158004158004158 0.3892931392931393 0.3620062370062371 0.34173596673596673 0.3300415800415801 0.3206860706860707 0.3191268191268191 0.3167879417879418 0.3136694386694387 0.3043139293139293 0.25753638253638256 0.2185550935550936 0.17021829521829526 0.11096673596673598 0.061850311850311875 0.008056133056133084 0.004937629937629967 0.005717255717255746 0.007276507276507306 0.009615384615384644 0.01585239085239088 0.021309771309771342 0.03222453222453225 0.0493762993762994 0.07198544698544701 0.12110187110187112 0.13513513513513514 0.14137214137214138 0.14293139293139295 0.14371101871101874,0.814968814968815 0.8118503118503119 0.8066528066528067 0.7962577962577962 0.7837837837837838 0.7640332640332641 0.6881496881496881 0.6361746361746361 0.5841995841995842 0.5457380457380457 0.5218295218295218 0.5 0.4958419958419958 0.4896049896049897 0.4802494802494802 0.4625779625779626 0.40332640332640335 0.36902286902286907 0.33160083160083165 0.2858627858627859 0.2422037422037422 0.17463617463617465 0.16528066528066532 0.16320166320166318 0.16216216216216214 0.16216216216216214 0.1642411642411642 0.16632016632016633 0.1715176715176715 0.1777546777546778 0.18503118503118496 0.19646569646569645 0.1995841995841996 0.20270270270270274 0.20374220374220373 0.20374220374220373,283.6000000000058 303.6000000000058 323.6000000000058 343.6000000000058 363.6000000000058 383.6000000000058 403.6000000000058 423.6000000000058 443.6000000000058 463.6000000000058 483.6000000000058 503.6000000000058 523.6000000000058 543.6000000000058 563.6000000000057 583.6000000000057 603.6000000000057 623.6000000000057 643.6000000000057 663.6000000000057 683.6000000000057 703.6000000000058 723.6000000000058 743.6000000000058 763.6000000000058 783.6000000000058 803.6000000000058 823.6000000000058 843.6000000000058 863.6000000000058 883.6000000000058 903.6000000000058 923.6000000000058 943.6000000000058 963.6000000000058 983.6000000000058
cb_04,35.0,enc_trial,stim,response,Fine Arts students,1441.700000000099,enc_trial,1.0,35.0,s_a_10_2,student_art,fold-a,tripod,4.0,unique,close,paired,s_a_10_2.jpg,art,student-b1,STEM students,Fine Arts students,sub-95,0.0,0.0,0.0,0.0,0.5031185031185031 0.5038981288981289 0.5077962577962578 0.514033264033264 0.5218295218295218 0.5304054054054054 0.5272869022869023 0.5163721413721414 0.4968814968814969 0.4727130977130977 0.41424116424116425 0.3799376299376299 0.3518711018711019 0.3300415800415801 0.3082120582120582 0.2895010395010395 0.25363825363825365 0.2271309771309772 0.19594594594594605 0.163981288981289 0.14293139293139295 0.13123700623700627 0.13123700623700627 0.13123700623700627 0.13123700623700627 0.1335758835758836 0.1374740124740125 0.14137214137214138 0.1483887733887734 0.1600831600831601 0.1873700623700624 0.2731288981288981 0.3471933471933472 0.4306133056133056 0.5038981288981289 0.577962577962578 0.6676195426195426 0.6933471933471933 0.7066008316008315 0.7175155925155925 0.7245322245322245 0.7354469854469854 0.7432432432432432 0.7518191268191268 0.7572765072765073 0.7596153846153846 0.7720893970893971 0.7884615384615384 0.8087318087318088 0.8305613305613306 0.8492723492723493 0.8711018711018712 0.8734407484407485,0.8253638253638254 0.8170478170478169 0.8004158004158004 0.7702702702702703 0.7286902286902287 0.6455301455301455 0.6091476091476091 0.5738045738045738 0.5374220374220374 0.5 0.41891891891891897 0.3773388773388774 0.343035343035343 0.31704781704781704 0.2910602910602911 0.2702702702702703 0.23180873180873185 0.20582120582120567 0.18087318087318088 0.15800415800415804 0.14449064449064453 0.13721413721413722 0.13721413721413722 0.13721413721413722 0.13721413721413722 0.13825363825363826 0.13929313929313925 0.14033264033264034 0.14137214137214138 0.1434511434511434 0.1496881496881497 0.1642411642411642 0.17359667359667366 0.18503118503118496 0.18918918918918914 0.18295218295218296 0.16632016632016633 0.16528066528066532 0.16632016632016633 0.16839916839916835 0.1704781704781705 0.17983367983367982 0.1860706860706861 0.19022869022869027 0.1923076923076923 0.19438669438669445 0.19438669438669445 0.19022869022869027 0.183991683991684 0.17671517671517667 0.1715176715176715 0.16943866943866948 0.16943866943866948,350.3999999999942 370.3999999999942 390.3999999999942 410.3999999999942 430.3999999999942 450.3999999999942 470.3999999999942 490.3999999999942 510.3999999999942 530.3999999999942 550.3999999999942 570.3999999999943 590.3999999999943 610.3999999999943 630.3999999999943 650.3999999999943 670.3999999999943 690.3999999999942 710.3999999999942 730.3999999999942 750.3999999999942 770.3999999999942 790.3999999999942 810.3999999999942 830.3999999999942 850.3999999999942 870.3999999999942 890.3999999999942 910.3999999999942 930.3999999999942 950.3999999999942 970.3999999999942 990.3999999999942 1010.3999999999942 1030.3999999999942 1050.3999999999942 1070.3999999999942 1090.3999999999942 1110.3999999999942 1130.3999999999942 1150.3999999999942 1170.3999999999942 1190.3999999999942 1210.3999999999942 1230.3999999999942 1250.3999999999942 1270.3999999999942 1290.3999999999942 1310.3999999999942 1330.3999999999942 1350.3999999999942 1370.3999999999942 1390.3999999999942
cb_04,36.0,enc_trial,stim,response,Fine Arts students,1379.6999999998952,enc_trial,1.0,36.0,s_sh_19_2,student_shared,fold-a,portable plastic drawer,4.0,competing,far,paired,s_sh_19_2.jpg,,student-b1,STEM students,Fine Arts students,sub-95,1.0,1.0,1.0,1.0,0.5015592515592515 0.5015592515592515 0.4992203742203742 0.4961018711018711 0.4922037422037422 0.4922037422037422 0.5046777546777547 0.5226091476091476 0.5452182952182952 0.5693866943866944 0.6216216216216216 0.6504677754677755 0.6902286902286903 0.7229729729729729 0.7525987525987525 0.7822245322245323 0.8243243243243243 0.8329002079002079 0.8360187110187111 0.8391372141372142 0.8414760914760916 0.8422557172557174 0.8430353430353431 0.8438149688149689 0.8438149688149689 0.8438149688149689 0.8438149688149689 0.8438149688149689 0.8438149688149689 0.8430353430353431 0.8414760914760916 0.8305613305613306 0.8227650727650728 0.8126299376299377 0.8040540540540542 0.7993762993762994 0.7978170478170478 0.7978170478170478 0.7993762993762994 0.8040540540540542 0.8126299376299377 0.8297817047817049 0.8360187110187111 0.8399168399168399 0.8422557172557174 0.8430353430353431,0.8482328482328483 0.841995841995842 0.8305613305613305 0.814968814968815 0.7900207900207901 0.7172557172557172 0.6663201663201663 0.6164241164241164 0.5717255717255717 0.5374220374220374 0.4771309771309772 0.44698544698544695 0.4095634095634095 0.3783783783783784 0.3482328482328483 0.31704781704781704 0.2723492723492723 0.26091476091476096 0.2567567567567568 0.2505197505197505 0.2453222453222453 0.2401247401247401 0.23700623700623705 0.2349272349272349 0.2338877338877339 0.2338877338877339 0.2338877338877339 0.2338877338877339 0.2338877338877339 0.2338877338877339 0.2338877338877339 0.22453222453222446 0.2141372141372141 0.19750519750519746 0.18087318087318088 0.1704781704781705 0.16528066528066532 0.16528066528066532 0.1642411642411642 0.16216216216216214 0.16008316008316004 0.15488565488565487 0.15488565488565487 0.15488565488565487 0.15488565488565487 0.15488565488565487,450.5 470.5 490.5 510.5 530.5 550.5 570.5 590.5 610.5 630.5 650.5 670.5 690.5 710.5 730.5 750.5 770.5 790.5 810.5 830.5 850.5 870.5 890.5 910.5 930.5 950.5 970.5 990.5 1010.5 1030.5 1050.5 1070.5 1090.5 1110.5 1130.5 1150.5 1170.5 1190.5 1210.5 1230.5 1250.5 1270.5 1290.5 1310.5 1330.5 1350.5
cb_04,37.0,enc_trial,stim,response,Fine Arts students,1105.0000000001746,enc_trial,1.0,37.0,s_sh_22_1,student_shared,fold-c-single,hole puncher,4.0,competing,,single,s_sh_22_1.jpg,,student-b1,STEM students,Fine Arts students,sub-95,1.0,,1.0,,0.5116943866943867 0.5148128898128899 0.5179313929313929 0.5241683991683992 0.531964656964657 0.5576923076923077 0.5639293139293139 0.5686070686070686 0.5709459459459459 0.5725051975051975 0.5748440748440748 0.5849792099792099 0.5935550935550935 0.6091476091476091 0.6278586278586279 0.652027027027027 0.7175155925155925 0.751039501039501 0.7783264033264033 0.7946985446985447 0.8040540540540542 0.814968814968815 0.8180873180873182 0.8212058212058213 0.8227650727650728 0.8243243243243243 0.8321205821205822 0.8360187110187111 0.8406964656964657 0.846933471933472 0.8562889812889813 0.8664241164241165 0.8718814968814971 0.8781185031185031 0.8851351351351352 0.8913721413721415 0.8960498960498962,0.8056133056133056 0.8004158004158004 0.7910602910602911 0.7754677754677755 0.7525987525987525 0.6715176715176715 0.6351351351351351 0.5987525987525988 0.5665280665280665 0.5384615384615384 0.5103950103950103 0.4542619542619543 0.4272349272349273 0.3908523908523909 0.3544698544698545 0.3191268191268192 0.2515592515592515 0.2224532224532224 0.20270270270270274 0.1933471933471933 0.18918918918918914 0.18503118503118496 0.18503118503118496 0.18503118503118496 0.18503118503118496 0.18503118503118496 0.18503118503118496 0.18503118503118496 0.18503118503118496 0.18295218295218296 0.18087318087318088 0.17671517671517667 0.17463617463617465 0.17359667359667366 0.16943866943866948 0.16632016632016633 0.16528066528066532,317.0 337.0 357.0 377.0 397.0 417.0 437.0 457.0 477.0 497.0 517.0 537.0 557.0 577.0 597.0 617.0 637.0 657.0 677.0 697.0 717.0 737.0 757.0 777.0 797.0 817.0 837.0 857.0 877.0 897.0 917.0 937.0 957.0 977.0 997.0 1017.0 1037.0
cb_04,38.0,enc_trial,stim,response,Fine Arts students,1521.7999999999884,enc_trial,1.0,38.0,s_sh_14_1,student_shared,fold-b,printer,4.0,competing,close,paired,s_sh_14_1.jpg,,student-b1,STEM students,Fine Arts students,sub-95,1.0,1.0,0.0,0.0,0.5077962577962578 0.5101351351351351 0.5132536382536382 0.5163721413721414 0.521049896049896 0.5241683991683992 0.5233887733887734 0.5179313929313929 0.5124740124740125 0.510914760914761 0.5194906444906445 0.5272869022869023 0.5382016632016632 0.5498960498960499 0.5647089397089397 0.5912162162162162 0.6567047817047817 0.6886694386694386 0.7221933471933472 0.7525987525987525 0.7822245322245323 0.8313409563409564 0.8492723492723493 0.8586278586278587 0.8640852390852392 0.8672037422037423 0.8679833679833681 0.8679833679833681 0.8679833679833681 0.8679833679833681 0.8679833679833681 0.8703222453222453 0.8726611226611227 0.8742203742203742,0.7993762993762994 0.7910602910602911 0.7775467775467775 0.762993762993763 0.7390852390852392 0.6725571725571726 0.6372141372141372 0.604989604989605 0.5779625779625779 0.5446985446985446 0.47297297297297297 0.44698544698544695 0.4199584199584199 0.39501039501039503 0.3711018711018711 0.3471933471933472 0.3087318087318087 0.2941787941787942 0.2796257796257796 0.2661122661122661 0.25259875259875264 0.2286902286902287 0.21933471933471926 0.2151767151767152 0.21309771309771308 0.21101871101871106 0.21101871101871106 0.21101871101871106 0.21101871101871106 0.21101871101871106 0.21101871101871106 0.20997920997920996 0.2068607068607069 0.20582120582120567,300.5 320.5 340.5 360.5 380.5 400.5 420.5 440.5 460.5 480.5 500.5 520.5 540.5 560.5 580.5 600.5 620.5 640.5 660.5 680.5 700.5 720.5 740.5 760.5 780.5 800.5 820.5 840.5 860.5 880.5 900.5 920.5 940.5 960.5
cb_04,39.0,enc_trial,stim,response,STEM students,1128.200000000099,enc_trial,1.0,39.0,s_s_02_1,student_stem,fold-b-single,flask,4.0,unique,,single,s_s_02_1.jpg,stem,student-b1,STEM students,Fine Arts students,sub-95,1.0,,1.0,,0.5077962577962578 0.5077962577962578 0.5062370062370062 0.5023388773388774 0.4953222453222453 0.4773908523908524 0.4633575883575883 0.4477650727650728 0.4337318087318087 0.4228170478170478 0.4165800415800416 0.3970893970893971 0.3737006237006237 0.3401767151767152 0.301975051975052 0.2653326403326404 0.23414760914760915 0.23414760914760915 0.2349272349272349 0.2364864864864865 0.2380457380457381 0.2380457380457381 0.2349272349272349 0.23180873180873185 0.2294698544698545 0.2279106029106029 0.2247920997920998 0.22245322245322247 0.21933471933471926 0.21621621621621626 0.21231808731808727 0.20374220374220373 0.2014033264033264 0.1982848232848233 0.1943866943866944 0.19126819126819128 0.18503118503118504 0.18191268191268192 0.1787941787941788 0.17489604989604993 0.1717775467775468 0.17021829521829526,0.8035343035343036 0.8004158004158004 0.7941787941787941 0.7817047817047817 0.7588357588357588 0.6975051975051976 0.66008316008316 0.6237006237006237 0.5935550935550935 0.5675675675675675 0.5446985446985446 0.4927234927234927 0.4563409563409564 0.41891891891891897 0.3794178794178794 0.343035343035343 0.3076923076923077 0.30457380457380456 0.3004158004158004 0.2972972972972973 0.2941787941787942 0.28794178794178793 0.2848232848232848 0.2806652806652806 0.27546777546777546 0.2713097713097713 0.2577962577962578 0.2494802494802495 0.2380457380457381 0.2276507276507277 0.21829521829521825 0.2068607068607069 0.20374220374220373 0.2006237006237006 0.19750519750519746 0.19438669438669445 0.1923076923076923 0.19126819126819128 0.19022869022869027 0.19022869022869027 0.19022869022869027 0.19022869022869027,300.3999999999942 320.3999999999942 340.3999999999942 360.3999999999942 380.3999999999942 400.3999999999942 420.3999999999942 440.3999999999942 460.3999999999942 480.3999999999942 500.3999999999942 520.3999999999942 540.3999999999942 560.3999999999942 580.3999999999943 600.3999999999943 620.3999999999943 640.3999999999943 660.3999999999943 680.3999999999943 700.3999999999942 720.3999999999942 740.3999999999942 760.3999999999942 780.3999999999942 800.3999999999942 820.3999999999942 840.3999999999942 860.3999999999942 880.3999999999942 900.3999999999942 920.3999999999942 940.3999999999942 960.3999999999942 980.3999999999942 1000.3999999999942 1020.3999999999942 1040.3999999999942 1060.3999999999942 1080.3999999999942 1100.3999999999942 1120.3999999999942
