Current Spreadsheet,Trial Number,Display,Screen,Response Type,Response,Reaction Time,display,block,block_trial,stimulus_id,expected_goal,fold,stimulus_name,c_group,condition,within_block_dist,paired_status,stimulus_path,expected_location,block_split,respStim_1,respStim_2,sub_label,acc,both_enc_acc,assoc_stim1_acc,assoc_stim2_acc,x_pos,y_pos,time_trajectories
cb_09,1.0,enc_trial,stim,response,Miami trip,2200.320000000007,enc_trial,1.0,1.0,t_s_11_1,travel_shared,fold-a-single,eye mask,9.0,competing,,single,t_s_11_1.jpg,,travel-b1,Iceland trip,Miami trip,sub-26,1.0,,1.0,,0.4964816262705238 0.4958952306489445 0.4958952306489445 0.4958952306489445 0.4958952306489445 0.4958952306489445 0.4958952306489445 0.4958952306489445 0.4958952306489445 0.4958952306489445 0.4958952306489445 0.4958952306489445 0.4958952306489445 0.4958952306489445 0.4958952306489445 0.4958952306489445 0.4958952306489445 0.4958952306489445 0.4958952306489445 0.4958952306489445 0.4958952306489445 0.4958952306489445 0.4958952306489445 0.4958952306489445 0.4958952306489445 0.4958952306489445 0.4958952306489445 0.4958952306489445 0.4958952306489445 0.4958952306489445 0.4958952306489445 0.4958952306489445 0.4958952306489445 0.4958952306489445 0.4958952306489445 0.4964816262705238 0.4970680218921032 0.4976544175136826 0.4982408131352619 0.4982408131352619 0.4982408131352619 0.4988272087568413 0.5011727912431587 0.5087959343236904 0.5211102423768569 0.5486708365910868 0.5785770132916341 0.6078967943706021 0.6249022673964034 0.6342845973416731 0.6512900703674745 0.6630179827990617 0.6677091477716965 0.6653635652853791 0.6524628616106333 0.6178655199374511 0.5856137607505864 0.5445660672400313 0.5175918686473807 0.4976544175136826 0.4906176700547303 0.4900312744331509 0.4906176700547303 0.4964816262705238 0.508209538702111 0.5322517591868647 0.560398749022674 0.5850273651290071 0.5985144644253323 0.5991008600469117 0.5973416731821736 0.5932369038311179 0.5920641125879593 0.5914777169663801 0.5914777169663801 0.5920641125879593 0.6008600469116496 0.6530492572322126 0.7023064894448787 0.7568412822517592 0.7926114151681001 0.8107896794370602 0.8119624706802189 0.8119624706802189 0.8119624706802189 0.8131352619233776 0.8143080531665363 0.8143080531665363 0.8143080531665363 0.8154808444096949 0.8154808444096949 0.8154808444096949 0.8154808444096949 0.8154808444096949 0.8154808444096949 0.8178264268960125 0.8313135261923377 0.8489053948397185 0.8577013291634089 0.8588741204065676,0.8342455043002346 0.8342455043002346 0.8342455043002346 0.8342455043002346 0.8334636434714621 0.8334636434714621 0.8334636434714621 0.8334636434714621 0.8334636434714621 0.8334636434714621 0.8334636434714621 0.8334636434714621 0.8334636434714621 0.8334636434714621 0.8334636434714621 0.8334636434714621 0.8334636434714621 0.8334636434714621 0.8334636434714621 0.8334636434714621 0.8334636434714621 0.8334636434714621 0.8334636434714621 0.8334636434714621 0.8334636434714621 0.8334636434714621 0.8334636434714621 0.8334636434714621 0.8334636434714621 0.8334636434714621 0.8334636434714621 0.8334636434714621 0.8326817826426895 0.8318999218139171 0.8311180609851446 0.8295543393275997 0.8279906176700547 0.8256450351837373 0.8232994526974199 0.821735731039875 0.8186082877247851 0.8139171227521501 0.8053166536356529 0.7810789679437059 0.7521501172791243 0.6935105551211884 0.6340891321344799 0.5762314308053167 0.5418295543393277 0.5199374511336983 0.4753713838936671 0.4401876465989054 0.4136043784206411 0.4010946051602815 0.38858483189992177 0.3643471462079749 0.3393275996872557 0.3072713057075841 0.28225175918686474 0.2587959343236904 0.2415949960906959 0.235340109460516 0.2204847537138389 0.19468334636434714 0.16810007818608286 0.13604378420641128 0.11415168100078188 0.10320562939796718 0.10242376856919466 0.10320562939796718 0.1047693510555121 0.10789679437060208 0.10711493354182956 0.10320562939796718 0.10086004691164974 0.10086004691164974 0.10711493354182956 0.125879593432369 0.13604378420641128 0.1430805316653636 0.14386239249413602 0.14620797498045346 0.1485535574667709 0.14933541829554342 0.15089913995308835 0.1540265832681783 0.15480844409695071 0.15480844409695071 0.15480844409695071 0.15480844409695071 0.15480844409695071 0.15480844409695071 0.15480844409695071 0.15480844409695071 0.15480844409695071 0.15480844409695071 0.15715402658326816 0.16106333072713053 0.16262705238467556 0.16340891321344794,203.60000000000585 223.60000000000585 243.60000000000585 263.6000000000058 283.6000000000058 303.6000000000058 323.6000000000058 343.6000000000058 363.6000000000058 383.6000000000058 403.6000000000058 423.6000000000058 443.6000000000058 463.6000000000058 483.6000000000058 503.6000000000058 523.6000000000058 543.6000000000058 563.6000000000057 583.6000000000057 603.6000000000057 623.6000000000057 643.6000000000057 663.6000000000057 683.6000000000057 703.6000000000058 723.6000000000058 743.6000000000058 763.6000000000058 783.6000000000058 803.6000000000058 823.6000000000058 843.6000000000058 863.6000000000058 883.6000000000058 903.6000000000058 923.6000000000058 943.6000000000058 963.6000000000058 983.6000000000058 1003.6000000000058 1023.6000000000058 1043.6000000000058 1063.6000000000058 1083.6000000000058 1103.6000000000058 1123.6000000000058 1143.6000000000058 1163.6000000000058 1183.6000000000058 1203.6000000000058 1223.6000000000058 1243.6000000000058 1263.6000000000058 1283.6000000000058 1303.6000000000058 1323.6000000000058 1343.6000000000058 1363.6000000000058 1383.6000000000058 1403.6000000000058 1423.6000000000058 1443.6000000000058 1463.6000000000058 1483.6000000000058 1503.6000000000058 1523.6000000000058 1543.6000000000058 1563.6000000000058 1583.6000000000058 1603.6000000000058 1623.6000000000058 1643.6000000000058 1663.6000000000058 1683.6000000000058 1703.6000000000058 1723.6000000000058 1743.6000000000058 1763.6000000000058 1783.6000000000058 1803.6000000000056 1823.6000000000056 1843.6000000000056 1863.6000000000056 1883.6000000000056 1903.6000000000056 1923.6000000000056 1943.6000000000056 1963.6000000000056 1983.6000000000056 2003.6000000000056 2023.6000000000056 2043.6000000000056 2063.6000000000063 2083.6000000000063 2103.6000000000063 2123.6000000000063 2143.6000000000063 2163.6000000000063 2183.6000000000063
cb_09,2.0,enc_trial,stim,response,Miami trip,1908.4600000000064,enc_trial,1.0,2.0,t_s_12_2,travel_shared,fold-b,clear toiletry bag,9.0,competing,close,paired,t_s_12_2.jpg,,travel-b1,Iceland trip,Miami trip,sub-26,1.0,1.0,0.0,1.0,0.4994136043784206 0.4994136043784206 0.4988272087568413 0.4988272087568413 0.4982408131352619 0.4982408131352619 0.4976544175136826 0.4976544175136826 0.4976544175136826 0.4970680218921032 0.4970680218921032 0.4958952306489445 0.4958952306489445 0.4953088350273651 0.4941360437842064 0.493549648162627 0.491790461297889 0.4894448788115716 0.4876856919468335 0.4859265050820954 0.4829945269741986 0.4806489444878812 0.47713057075840504 0.4741985926505082 0.4712666145426114 0.4671618451915559 0.462470680218921 0.4571931196247068 0.45426114151680996 0.4536747458952306 0.4595387021110242 0.4741985926505082 0.4953088350273651 0.5152462861610634 0.531078967943706 0.543979671618452 0.5557075840500391 0.5709538702111024 0.5914777169663801 0.6166927286942924 0.6430805316653635 0.6724003127443314 0.7040656763096168 0.7615324472243941 0.8019937451133697 0.8178264268960125 0.8430414386239249 0.8541829554339327 0.8635652853792024 0.8729476153244722 0.8858483189992181 0.8952306489444878 0.9010946051602814 0.9034401876465988,0.8342455043002346 0.8334636434714621 0.8334636434714621 0.8334636434714621 0.8318999218139171 0.8311180609851446 0.8311180609851446 0.8295543393275997 0.8279906176700547 0.8264268960125097 0.8232994526974199 0.8193901485535575 0.8131352619233776 0.8045347928068803 0.7928068803752932 0.7787333854573886 0.7607505863956215 0.7396403440187647 0.7263487099296325 0.7154026583268178 0.7036747458952306 0.6935105551211884 0.6810007818608288 0.6700547302580141 0.6614542611415168 0.6489444878811572 0.6325254104769351 0.6106333072713057 0.583268178264269 0.5566849100860047 0.5254104769351056 0.4808444096950743 0.4386239249413605 0.4057857701329164 0.380766223612197 0.3620015637216576 0.3424550430023455 0.3221266614542612 0.2963252541047694 0.27130570758405004 0.2486317435496481 0.2322126661454261 0.218921032056294 0.1978107896794371 0.18451915559030496 0.17904612978889756 0.16966379984362778 0.16340891321344794 0.15559030492572326 0.14620797498045346 0.13448006254886635 0.1266614542611415 0.12197028928850664 0.1211884284597342,787.6399999999994 807.6399999999994 827.6399999999994 847.6399999999994 867.6399999999994 887.6399999999994 907.6399999999994 927.6399999999994 947.6399999999994 967.6399999999994 987.6399999999994 1007.6399999999994 1027.6399999999994 1047.6399999999994 1067.6399999999994 1087.6399999999994 1107.6399999999994 1127.6399999999996 1147.6399999999996 1167.6399999999996 1187.6399999999996 1207.6399999999996 1227.6399999999996 1247.6399999999996 1267.6399999999996 1287.6399999999996 1307.6399999999996 1327.6399999999996 1347.6399999999996 1367.6399999999996 1387.6399999999994 1407.6399999999994 1427.6399999999994 1447.6399999999994 1467.6399999999994 1487.6399999999994 1507.6399999999994 1527.6399999999994 1547.6399999999994 1567.6399999999994 1587.6399999999994 1607.6399999999994 1627.6399999999994 1647.6399999999994 1667.6399999999994 1687.6399999999994 1707.6399999999994 1727.6399999999994 1747.6399999999994 1767.6399999999994 1787.6399999999994 1807.6399999999994 1827.6399999999994 1847.6399999999994
cb_09,3.0,enc_trial,stim,response,Iceland trip,1305.459999999992,enc_trial,1.0,3.0,t_i_01_1,travel_Iceland,fold-d-single,gloves,9.0,unique,,single,t_i_01_1.jpg,Iceland,travel-b1,Iceland trip,Miami trip,sub-26,1.0,,1.0,,0.5029319781078968 0.5029319781078968 0.5029319781078968 0.5029319781078968 0.5029319781078968 0.5029319781078968 0.5023455824863174 0.5017591868647381 0.4994136043784206 0.4953088350273651 0.4870992963252541 0.4648162627052385 0.4261141516810008 0.3780297107114933 0.3281860828772478 0.2818608287724785 0.2419859265050821 0.21853010164190773 0.19272869429241601 0.17630961688819388 0.16164972634870992 0.1505082095387021 0.14581704456606726 0.1464034401876466 0.15109460516028145 0.15578577013291633 0.16106333072713055 0.16692728694292416 0.16927286942924158 0.1704456606724003 0.1704456606724003 0.1704456606724003,0.8412822517591869 0.8412822517591869 0.8412822517591869 0.8412822517591869 0.8412822517591869 0.8412822517591869 0.8412822517591869 0.8373729476153244 0.8287724784988272 0.8131352619233776 0.7849882720875684 0.727130570758405 0.6551993745113369 0.5762314308053167 0.5027365129007036 0.4433150899139953 0.3932759968725567 0.3596559812353401 0.3244722439405786 0.3025801407349492 0.2853792025019547 0.2705238467552775 0.2580140734949179 0.24315871774824085 0.2314308053166536 0.22283033620015635 0.21188428459734165 0.20015637216575446 0.1923377638780297 0.1868647380766224 0.18139171227521506 0.17982799061767007,689.5 709.5 729.5 749.5 769.5 789.5 809.5 829.5 849.5 869.5 889.5 909.5 929.5 949.5 969.5 989.5 1009.5 1029.5 1049.5 1069.5 1089.5 1109.5 1129.5 1149.5 1169.5 1189.5 1209.5 1229.5 1249.5 1269.5 1289.5 1309.5
cb_09,4.0,enc_trial,stim,response,Miami trip,1701.3000000000034,enc_trial,1.0,4.0,t_s_08_1,travel_shared,fold-a-single,hand lotion,9.0,competing,,single,t_s_08_1.jpg,,travel-b1,Iceland trip,Miami trip,sub-26,1.0,,1.0,,0.4824081313526192 0.4824081313526192 0.4824081313526192 0.4824081313526192 0.4824081313526192 0.4824081313526192 0.4824081313526192 0.4824081313526192 0.4824081313526192 0.4824081313526192 0.4824081313526192 0.4824081313526192 0.4824081313526192 0.4824081313526192 0.4824081313526192 0.4824081313526192 0.4824081313526192 0.4824081313526192 0.4824081313526192 0.4824081313526192 0.4824081313526192 0.4824081313526192 0.4818217357310399 0.4812353401094605 0.4812353401094605 0.4812353401094605 0.4812353401094605 0.4812353401094605 0.4812353401094605 0.4812353401094605 0.4812353401094605 0.4818217357310399 0.4824081313526192 0.483580922595778 0.4847537138389367 0.4859265050820954 0.4870992963252541 0.4900312744331509 0.4958952306489445 0.5011727912431587 0.5093823299452698 0.514659890539484 0.5234558248631743 0.5316653635652854 0.5334245504300235 0.5334245504300235 0.5275605942142298 0.5193510555121188 0.5070367474589523 0.4982408131352619 0.4923768569194683 0.4859265050820954 0.47713057075840504 0.468921032056294 0.4636434714620797 0.4595387021110242 0.4571931196247068 0.4536747458952306 0.4507427677873338 0.4501563721657545 0.4501563721657545 0.4513291634089132 0.4525019546520721 0.4601250977326036 0.4794761532447224 0.5140734949179047 0.5516028146989835 0.5914777169663801 0.6483580922595777 0.7093432369038309 0.7715011727912431 0.8119624706802189 0.8401094605160281 0.8483189992181391 0.8500781860828772 0.8518373729476153 0.8559421422986708 0.8635652853792024 0.8700156372165754 0.8706020328381547,0.8006254886630179 0.8006254886630179 0.8006254886630179 0.8006254886630179 0.8006254886630179 0.8006254886630179 0.8006254886630179 0.8006254886630179 0.8006254886630179 0.8006254886630179 0.8006254886630179 0.8006254886630179 0.8006254886630179 0.8006254886630179 0.8006254886630179 0.8006254886630179 0.8006254886630179 0.8006254886630179 0.8006254886630179 0.8006254886630179 0.8006254886630179 0.8006254886630179 0.799061767005473 0.7951524628616107 0.7896794370602033 0.7857701329163409 0.7795152462861611 0.7724784988272088 0.7693510555121188 0.7670054730258014 0.7646598905394839 0.7599687255668491 0.7560594214229868 0.7505863956215794 0.7443315089913995 0.7372947615324472 0.7318217357310399 0.7185301016419077 0.6966379984362783 0.6770914777169663 0.6489444878811572 0.6239249413604379 0.5754495699765442 0.5230648944487881 0.4628616106333072 0.42142298670836587 0.3932759968725567 0.3721657544956998 0.34480062548866297 0.32603596559812353 0.3135261923377639 0.29867083659108684 0.2830336200156373 0.26114151681000786 0.2462861610633307 0.2314308053166536 0.22439405785770128 0.2150117279124316 0.20562939796716184 0.20093823299452696 0.1923377638780297 0.18842845973416733 0.1853010164190773 0.17357310398749026 0.15480844409695071 0.13448006254886635 0.12353401094605165 0.11727912431587173 0.11493354182955427 0.12040656763096168 0.13369820172009386 0.14151681000781854 0.14777169663799838 0.15168100078186084 0.1532447224394058 0.1532447224394058 0.1532447224394058 0.15246286161063327 0.15246286161063327 0.15246286161063327,96.88000000000466 116.88000000000466 136.88000000000466 156.88000000000466 176.88000000000466 196.88000000000463 216.88000000000463 236.88000000000463 256.8800000000046 276.8800000000046 296.8800000000046 316.8800000000046 336.8800000000046 356.88000000000466 376.8800000000047 396.8800000000047 416.8800000000047 436.8800000000047 456.8800000000047 476.8800000000047 496.8800000000047 516.8800000000047 536.8800000000047 556.8800000000047 576.8800000000048 596.8800000000048 616.8800000000048 636.8800000000048 656.8800000000048 676.8800000000048 696.8800000000048 716.8800000000048 736.8800000000048 756.8800000000048 776.8800000000048 796.8800000000048 816.8800000000048 836.8800000000048 856.8800000000048 876.8800000000048 896.8800000000048 916.8800000000048 936.8800000000048 956.8800000000048 976.8800000000048 996.8800000000048 1016.8800000000048 1036.8800000000047 1056.8800000000047 1076.8800000000047 1096.8800000000047 1116.8800000000047 1136.8800000000047 1156.8800000000047 1176.8800000000047 1196.8800000000047 1216.8800000000047 1236.8800000000047 1256.8800000000047 1276.8800000000047 1296.8800000000047 1316.8800000000047 1336.8800000000047 1356.8800000000047 1376.8800000000049 1396.8800000000049 1416.8800000000049 1436.8800000000049 1456.8800000000049 1476.8800000000049 1496.8800000000049 1516.8800000000049 1536.8800000000049 1556.8800000000049 1576.8800000000049 1596.8800000000049 1616.8800000000049 1636.8800000000049 1656.8800000000049 1676.8800000000049
cb_09,5.0,enc_trial,stim,response,Iceland trip,1280.820000000007,enc_trial,1.0,5.0,t_s_12_1,travel_shared,fold-b,clear toiletry bag,9.0,competing,close,paired,t_s_12_1.jpg,,travel-b1,Iceland trip,Miami trip,sub-26,1.0,1.0,0.0,1.0,0.4941360437842064 0.4941360437842064 0.4941360437842064 0.4941360437842064 0.4941360437842064 0.4941360437842064 0.4941360437842064 0.4941360437842064 0.4941360437842064 0.493549648162627 0.493549648162627 0.493549648162627 0.4929632525410477 0.4929632525410477 0.493549648162627 0.4970680218921032 0.5017591868647381 0.5117279124315872 0.5281469898358092 0.5533620015637216 0.5744722439405786 0.5967552775605942 0.6225566849100861 0.6424941360437841 0.6542220484753714 0.6624315871774823 0.6641907740422204 0.663604378420641 0.6553948397185301 0.6231430805316653 0.5738858483189992 0.4982408131352619 0.4261141516810008 0.3621970289288505 0.3281860828772478 0.29124315871774825 0.2648553557466771 0.24374511336982016 0.22380766223612195 0.20269741985926504 0.18510555121188427 0.16868647380766222 0.16164972634870992 0.1563721657544957 0.15402658326817825 0.1516810007818608 0.1505082095387021 0.14874902267396406 0.14874902267396406,0.8311180609851446 0.8311180609851446 0.8311180609851446 0.8311180609851446 0.8311180609851446 0.8311180609851446 0.8311180609851446 0.8303362001563721 0.8295543393275997 0.8279906176700547 0.8256450351837373 0.8232994526974199 0.8186082877247851 0.8146989835809226 0.8029710711493354 0.7834245504300235 0.7576231430805317 0.7240031274433151 0.6739640344018765 0.6121970289288506 0.562157935887412 0.5160281469898358 0.4659890539483972 0.4261141516810008 0.3979671618451915 0.3752931978107896 0.3620015637216576 0.35418295543393274 0.34323690383111805 0.3174354964816263 0.2838154808444097 0.2470680218921032 0.21344800625488647 0.18451915559030496 0.1704456606724003 0.15559030492572326 0.14386239249413602 0.13448006254886635 0.1266614542611415 0.11884284597341675 0.11415168100078188 0.11024237685691952 0.10711493354182956 0.10555121188428462 0.10555121188428462 0.1047693510555121 0.1047693510555121 0.1047693510555121 0.1039874902267396,301.4400000000023 321.4400000000023 341.4400000000023 361.44000000000227 381.44000000000227 401.44000000000227 421.44000000000227 441.44000000000227 461.44000000000227 481.44000000000227 501.44000000000227 521.4400000000023 541.4400000000023 561.4400000000023 581.4400000000022 601.4400000000022 621.4400000000022 641.4400000000022 661.4400000000022 681.4400000000022 701.4400000000023 721.4400000000023 741.4400000000023 761.4400000000023 781.4400000000023 801.4400000000023 821.4400000000023 841.4400000000023 861.4400000000023 881.4400000000023 901.4400000000024 921.4400000000024 941.4400000000024 961.4400000000024 981.4400000000024 1001.4400000000024 1021.4400000000024 1041.4400000000023 1061.4400000000023 1081.4400000000023 1101.4400000000023 1121.4400000000023 1141.4400000000023 1161.4400000000023 1181.4400000000023 1201.4400000000023 1221.4400000000023 1241.4400000000023 1261.4400000000023
cb_09,6.0,enc_trial,stim,response,Miami trip,1315.2599999999948,enc_trial,1.0,6.0,t_m_05_1,travel_Miami,fold-d-single,sunscreen,9.0,unique,,single,t_m_05_1.jpg,Miami,travel-b1,Iceland trip,Miami trip,sub-26,1.0,,1.0,,0.4970680218921032 0.4970680218921032 0.4970680218921032 0.4964816262705238 0.4953088350273651 0.493549648162627 0.4923768569194683 0.4912040656763096 0.4900312744331509 0.4894448788115716 0.4882720875684128 0.4876856919468335 0.4870992963252541 0.4870992963252541 0.4894448788115716 0.493549648162627 0.4941360437842064 0.4953088350273651 0.5 0.5105551211884285 0.5234558248631743 0.5533620015637216 0.5908913213448006 0.6548084440969507 0.7128616106333072 0.7896794370602033 0.8518373729476153 0.890539483971853 0.9057857701329164 0.9110633307271304 0.91164972634871 0.9122361219702892 0.913408913213448 0.9151681000781859 0.9151681000781859 0.9151681000781859 0.9139953088350272 0.91164972634871 0.9093041438623924 0.906958561376075 0.9063721657544956,0.8287724784988272 0.8279906176700547 0.8272087568412823 0.8248631743549648 0.8209538702111024 0.8154808444096949 0.8107896794370602 0.8053166536356529 0.8014073494917905 0.7951524628616107 0.7904612978889758 0.7857701329163409 0.7779515246286162 0.7646598905394839 0.7326035965598123 0.6966379984362783 0.6778733385457388 0.6622361219702892 0.6364347146207975 0.6098514464425333 0.5863956215793589 0.5457388584831899 0.5043002345582486 0.44878811571540267 0.4026583268178264 0.3416731821735731 0.2845973416731822 0.24081313526192336 0.2165754495699765 0.20250195465207188 0.1915559030492572 0.17826426896012515 0.16340891321344794 0.14386239249413602 0.1321344800625489 0.12744331508991402 0.12509773260359658 0.12275215011727915 0.12040656763096168 0.11806098514464425 0.11649726348709932,519.8799999999901 539.8799999999901 559.8799999999901 579.8799999999901 599.8799999999901 619.8799999999901 639.8799999999901 659.8799999999901 679.8799999999901 699.8799999999901 719.8799999999901 739.8799999999901 759.8799999999901 779.8799999999901 799.8799999999901 819.8799999999901 839.8799999999901 859.8799999999901 879.8799999999901 899.8799999999901 919.8799999999899 939.8799999999899 959.8799999999899 979.8799999999899 999.8799999999899 1019.8799999999899 1039.87999999999 1059.87999999999 1079.87999999999 1099.87999999999 1119.87999999999 1139.87999999999 1159.87999999999 1179.87999999999 1199.87999999999 1219.87999999999 1239.87999999999 1259.87999999999 1279.87999999999 1299.87999999999 1319.87999999999
cb_09,7.0,enc_trial,stim,response,Miami trip,1332.5,enc_trial,1.0,7.0,t_m_13_1,travel_Miami,fold-d-single,floatie,9.0,unique,,single,t_m_13_1.jpg,Miami,travel-b1,Iceland trip,Miami trip,sub-26,1.0,,1.0,,0.5005863956215794 0.5005863956215794 0.5005863956215794 0.5005863956215794 0.5005863956215794 0.5005863956215794 0.5005863956215794 0.5005863956215794 0.5 0.4994136043784206 0.4988272087568413 0.4988272087568413 0.4982408131352619 0.4982408131352619 0.4982408131352619 0.4982408131352619 0.4982408131352619 0.4982408131352619 0.4982408131352619 0.4982408131352619 0.4982408131352619 0.5058639562157936 0.5275605942142298 0.5674354964816263 0.6137607505863956 0.6741594996090695 0.7034792806880374 0.7410086004691164 0.769741985926505 0.7914386239249414 0.7990617670054729 0.8043393275996872 0.8090304925723221 0.8166536356528538 0.8213448006254886 0.8254495699765442 0.8307271305707583 0.8383502736512901 0.8500781860828772 0.8565285379202502 0.8571149335418295,0.8264268960125097 0.8264268960125097 0.8264268960125097 0.8264268960125097 0.8264268960125097 0.8264268960125097 0.8264268960125097 0.8256450351837373 0.8232994526974199 0.8201720093823299 0.8162627052384676 0.8123534010946052 0.8092259577795152 0.8076622361219703 0.8076622361219703 0.8076622361219703 0.8076622361219703 0.8076622361219703 0.8068803752931978 0.8068803752931978 0.8053166536356529 0.7857701329163409 0.7357310398749023 0.6630179827990618 0.5785770132916341 0.4628616106333072 0.4010946051602815 0.3229085222830336 0.26114151681000786 0.22283033620015635 0.2087568412822518 0.1978107896794371 0.18999218139171226 0.18060985144644248 0.1759186864738077 0.17200938232994525 0.16731821735731045 0.16028146989835812 0.15089913995308835 0.14620797498045346 0.14542611415168105,543.6399999999994 563.6399999999994 583.6399999999994 603.6399999999994 623.6399999999994 643.6399999999994 663.6399999999994 683.6399999999994 703.6399999999994 723.6399999999994 743.6399999999994 763.6399999999994 783.6399999999994 803.6399999999994 823.6399999999994 843.6399999999994 863.6399999999994 883.6399999999994 903.6399999999994 923.6399999999994 943.6399999999994 963.6399999999994 983.6399999999994 1003.6399999999994 1023.6399999999994 1043.6399999999994 1063.6399999999994 1083.6399999999994 1103.6399999999994 1123.6399999999994 1143.6399999999996 1163.6399999999996 1183.6399999999996 1203.6399999999996 1223.6399999999996 1243.6399999999996 1263.6399999999996 1283.6399999999996 1303.6399999999996 1323.6399999999996 1343.6399999999996
cb_09,8.0,enc_trial,stim,response,Miami trip,1376.2799999999988,enc_trial,1.0,8.0,t_m_19_1,travel_Miami,fold-b,surfboard,9.0,unique,close,paired,t_m_19_1.jpg,Miami,travel-b1,Iceland trip,Miami trip,sub-26,1.0,1.0,1.0,1.0,0.5 0.5 0.5 0.5 0.5 0.5 0.5 0.5 0.5 0.5 0.5 0.5 0.5 0.5 0.5 0.5 0.5 0.5 0.5 0.5 0.5 0.5 0.5 0.5 0.5 0.5 0.5 0.4994136043784206 0.4994136043784206 0.4988272087568413 0.4976544175136826 0.4964816262705238 0.4976544175136826 0.5046911649726349 0.5170054730258014 0.5469116497263488 0.5721266614542612 0.6225566849100861 0.6982017200938232 0.7662236121970288 0.8137216575449571 0.8483189992181391 0.8682564503518373 0.8764659890539483 0.8799843627834245 0.88408913213448 0.8876075058639562 0.8893666927286943 0.8917122752150117 0.8922986708365911 0.8922986708365911 0.8922986708365911 0.8922986708365911 0.8922986708365911 0.8922986708365911 0.8922986708365911 0.8917122752150117 0.890539483971853 0.8899530883502736 0.8893666927286943 0.8876075058639562 0.8864347146207975 0.8858483189992181 0.88408913213448 0.8835027365129007,0.8170445660672401 0.8170445660672401 0.8170445660672401 0.8170445660672401 0.8170445660672401 0.8170445660672401 0.8170445660672401 0.8170445660672401 0.8170445660672401 0.8170445660672401 0.8170445660672401 0.8170445660672401 0.8170445660672401 0.8170445660672401 0.8170445660672401 0.8170445660672401 0.8170445660672401 0.8170445660672401 0.8170445660672401 0.8170445660672401 0.8170445660672401 0.8170445660672401 0.8170445660672401 0.8170445660672401 0.8170445660672401 0.8170445660672401 0.8162627052384676 0.8154808444096949 0.8154808444096949 0.8131352619233776 0.8076622361219703 0.7967161845191556 0.7482408131352619 0.6880375293197811 0.6286161063330726 0.5457388584831899 0.5011727912431587 0.434714620797498 0.3455824863174355 0.2697419859265051 0.2150117279124316 0.1641907740422205 0.12509773260359658 0.10242376856919466 0.08522283033620015 0.06880375293197816 0.059421422986708376 0.05316653635652857 0.047693510555121166 0.046911649726348766 0.046911649726348766 0.04612978889757624 0.04612978889757624 0.04612978889757624 0.04612978889757624 0.04612978889757624 0.046911649726348766 0.049257232212666084 0.05238467552775605 0.05629397967161842 0.06254886630179822 0.06958561376075056 0.07740422204847541 0.08600469116497267 0.08913213448006252,75.44000000000233 95.44000000000231 115.44000000000231 135.4400000000023 155.4400000000023 175.44000000000233 195.44000000000236 215.44000000000236 235.44000000000236 255.44000000000236 275.4400000000023 295.4400000000023 315.4400000000023 335.4400000000023 355.44000000000227 375.44000000000227 395.44000000000227 415.44000000000227 435.44000000000227 455.44000000000227 475.44000000000227 495.44000000000227 515.4400000000023 535.4400000000023 555.4400000000023 575.4400000000022 595.4400000000022 615.4400000000022 635.4400000000022 655.4400000000022 675.4400000000022 695.4400000000023 715.4400000000023 735.4400000000023 755.4400000000023 775.4400000000023 795.4400000000023 815.4400000000023 835.4400000000023 855.4400000000023 875.4400000000023 895.4400000000023 915.4400000000024 935.4400000000024 955.4400000000024 975.4400000000024 995.4400000000024 1015.4400000000024 1035.4400000000023 1055.4400000000023 1075.4400000000023 1095.4400000000023 1115.4400000000023 1135.4400000000023 1155.4400000000023 1175.4400000000023 1195.4400000000023 1215.4400000000023 1235.4400000000023 1255.4400000000023 1275.4400000000023 1295.4400000000023 1315.4400000000023 1335.4400000000023 1355.4400000000023
cb_09,9.0,enc_trial,stim,response,Miami trip,1368.6000000000058,enc_trial,1.0,9.0,t_s_10_1,travel_shared,fold-c,luggage lock,9.0,competing,far,paired,t_s_10_1.jpg,,travel-b1,Iceland trip,Miami trip,sub-26,1.0,1.0,0.0,0.0,0.4941360437842064 0.4941360437842064 0.4941360437842064 0.4947224394057858 0.4964816262705238 0.4994136043784206 0.5005863956215794 0.5046911649726349 0.5070367474589523 0.5093823299452698 0.514659890539484 0.5199374511336982 0.5263878029710711 0.5334245504300235 0.5422204847537139 0.5592259577795152 0.5885457388584832 0.6260750586395621 0.6571540265832682 0.7046520719311962 0.7503909304143862 0.7709147771696637 0.7808835027365129 0.7832290852228303 0.7838154808444097 0.7855746677091477 0.7885066458170445 0.7920250195465207 0.7949569976544174 0.7949569976544174 0.7949569976544174 0.8383502736512901 0.8512509773260359 0.8588741204065676 0.8612197028928851 0.8612197028928851 0.8612197028928851 0.8618060985144643,0.8342455043002346 0.8318999218139171 0.8303362001563721 0.8232994526974199 0.8162627052384676 0.8045347928068803 0.7951524628616107 0.7810789679437059 0.7685691946833464 0.7568412822517592 0.7333854573885848 0.7146207974980454 0.6942924159499608 0.671618451915559 0.6434714620797498 0.5926505082095387 0.5121188428459734 0.4237685691946833 0.3573103987490227 0.27130570758405004 0.1978107896794371 0.17122752150117282 0.1594996090695856 0.15715402658326816 0.15715402658326816 0.15715402658326816 0.15715402658326816 0.15793588741204068 0.15871774824081308 0.15871774824081308 0.15871774824081308 0.15871774824081308 0.15715402658326816 0.15559030492572326 0.15559030492572326 0.15480844409695071 0.15480844409695071 0.15480844409695071,511.6799999999929 531.6799999999929 551.6799999999929 571.6799999999929 591.6799999999929 611.6799999999929 631.6799999999929 651.6799999999929 671.6799999999929 691.6799999999928 711.6799999999928 731.6799999999928 751.6799999999928 771.6799999999928 791.6799999999928 811.6799999999928 831.6799999999928 851.6799999999928 871.6799999999928 891.6799999999928 911.6799999999927 931.6799999999927 951.6799999999927 971.6799999999927 991.6799999999927 1011.6799999999927 1031.679999999993 1051.679999999993 1071.679999999993 1091.679999999993 1111.679999999993 1131.679999999993 1151.679999999993 1171.679999999993 1191.679999999993 1211.679999999993 1231.679999999993 1251.679999999993
cb_09,10.0,enc_trial,stim,response,Miami trip,1154.3800000000047,enc_trial,1.0,10.0,t_s_02_1,travel_shared,fold-b,water bottle,9.0,competing,close,paired,t_s_02_1.jpg,,travel-b1,Iceland trip,Miami trip,sub-26,0.0,0.0,1.0,1.0,0.4988272087568413 0.506450351837373 0.5187646598905394 0.5410476935105551 0.5568803752931978 0.5639171227521501 0.5797498045347929 0.6055512118842845 0.6360437842064112 0.653635652853792 0.6653635652853791 0.6847146207974979 0.7105160281469898 0.7410086004691164 0.7539093041438624 0.7591868647380766 0.7638780297107114 0.7715011727912431 0.784401876465989 0.7879202501954652 0.7926114151681001 0.7996481626270523 0.8090304925723221 0.8207584050039093 0.8277951524628615 0.8313135261923377 0.8342455043002345 0.8365910867865519 0.8377638780297106 0.8389366692728694 0.8389366692728694 0.8395230648944487,0.8436278342455044 0.8045347928068803 0.7599687255668491 0.6770914777169663 0.6215793588741204 0.5910867865519938 0.5332290852228303 0.4691164972634872 0.4120406567630962 0.382329945269742 0.3635652853792025 0.3322908522283033 0.2955433932759969 0.2541047693510555 0.2345582486317436 0.2259577795152463 0.215793588741204 0.20406567630961686 0.18373729476153244 0.17826426896012515 0.17200938232994525 0.16340891321344794 0.15480844409695071 0.14620797498045346 0.14151681000781854 0.13995308835027365 0.13838936669272872 0.1376075058639562 0.13682564503518369 0.13682564503518369 0.13682564503518369 0.13682564503518369,499.7000000000117 519.7000000000116 539.7000000000116 559.7000000000115 579.7000000000114 599.7000000000114 619.7000000000114 639.7000000000112 659.7000000000112 679.7000000000112 699.7000000000113 719.7000000000112 739.700000000011 759.700000000011 779.700000000011 799.7000000000107 819.7000000000107 839.7000000000107 859.7000000000107 879.7000000000107 899.7000000000105 919.7000000000104 939.7000000000104 959.7000000000104 979.7000000000104 999.7000000000104 1019.7000000000104 1039.7000000000098 1059.7000000000098 1079.7000000000098 1099.7000000000098 1119.7000000000098
cb_09,11.0,enc_trial,stim,response,Miami trip,1234.820000000007,enc_trial,1.0,11.0,t_m_06_2,travel_Miami,fold-c,handheld fan,9.0,unique,far,paired,t_m_06_2.jpg,Miami,travel-b1,Iceland trip,Miami trip,sub-26,1.0,1.0,1.0,1.0,0.4929632525410477 0.4929632525410477 0.4923768569194683 0.4923768569194683 0.491790461297889 0.491790461297889 0.491790461297889 0.4912040656763096 0.4912040656763096 0.4912040656763096 0.4906176700547303 0.4941360437842064 0.5263878029710711 0.5961688819390148 0.7052384675527755 0.8084440969507427 0.8500781860828772 0.8764659890539483 0.8858483189992181 0.8887802971071149 0.8887802971071149 0.8887802971071149 0.8881939014855356 0.8881939014855356 0.890539483971853 0.8917122752150117 0.8922986708365911 0.8928850664581705 0.8928850664581705 0.8928850664581705 0.8928850664581705,0.8154808444096949 0.8154808444096949 0.8146989835809226 0.8146989835809226 0.8139171227521501 0.8139171227521501 0.8139171227521501 0.8131352619233776 0.8123534010946052 0.8115715402658327 0.8092259577795152 0.7943706020328382 0.7310398749022674 0.6309616888193901 0.4956997654417513 0.3729476153244723 0.3135261923377639 0.2650508209538702 0.23846755277560594 0.2251759186864738 0.21735731039874906 0.215793588741204 0.21266614542611406 0.20093823299452696 0.1860828772478499 0.17122752150117282 0.16184519155590305 0.1532447224394058 0.1485535574667709 0.14464425332290853 0.1422986708365911,626.3399999999965 646.3399999999965 666.3399999999965 686.3399999999965 706.3399999999965 726.3399999999965 746.3399999999965 766.3399999999965 786.3399999999965 806.3399999999965 826.3399999999965 846.3399999999965 866.3399999999965 886.3399999999965 906.3399999999964 926.3399999999964 946.3399999999964 966.3399999999964 986.3399999999964 1006.3399999999964 1026.3399999999963 1046.3399999999963 1066.3399999999963 1086.3399999999963 1106.3399999999963 1126.3399999999965 1146.3399999999965 1166.3399999999965 1186.3399999999965 1206.3399999999965 1226.3399999999965
cb_09,12.0,enc_trial,stim,response,Iceland trip,1454.0799999999872,enc_trial,1.0,12.0,t_i_19_1,travel_Iceland,fold-b,rope,9.0,unique,close,paired,t_i_19_1.jpg,Iceland,travel-b1,Iceland trip,Miami trip,sub-26,1.0,1.0,1.0,1.0,0.4976544175136826 0.4976544175136826 0.4976544175136826 0.4976544175136826 0.4976544175136826 0.4976544175136826 0.4976544175136826 0.4976544175136826 0.4976544175136826 0.4976544175136826 0.4976544175136826 0.4976544175136826 0.4976544175136826 0.4976544175136826 0.4976544175136826 0.4976544175136826 0.4976544175136826 0.4976544175136826 0.4976544175136826 0.4976544175136826 0.4976544175136826 0.4976544175136826 0.4976544175136826 0.4976544175136826 0.4976544175136826 0.4976544175136826 0.4976544175136826 0.4976544175136826 0.4976544175136826 0.4976544175136826 0.4976544175136826 0.4994136043784206 0.5052775605942142 0.5117279124315872 0.5152462861610634 0.5193510555121188 0.5240422204847537 0.5275605942142298 0.5287333854573886 0.5281469898358092 0.5258014073494918 0.5216966379984362 0.5175918686473807 0.5170054730258014 0.5134870992963253 0.5052775605942142 0.4882720875684128 0.4718530101641908 0.4337372947615325 0.37099296325254105 0.30883502736512897 0.2701329163408913 0.2343627834245504 0.20797498045347929 0.1933150899139953 0.1827599687255668 0.1792415949960907 0.17630961688819388 0.17396403440187644 0.17161845191555902 0.1704456606724003 0.16927286942924158 0.16810007818608286 0.16692728694292416 0.1657544956997654,0.8272087568412823 0.8272087568412823 0.8264268960125097 0.8264268960125097 0.8264268960125097 0.8264268960125097 0.8264268960125097 0.8264268960125097 0.8264268960125097 0.8264268960125097 0.8264268960125097 0.8264268960125097 0.8264268960125097 0.8264268960125097 0.8264268960125097 0.8264268960125097 0.8264268960125097 0.8264268960125097 0.8264268960125097 0.8264268960125097 0.8264268960125097 0.8256450351837373 0.8248631743549648 0.8232994526974199 0.8225175918686474 0.8209538702111024 0.8201720093823299 0.8186082877247851 0.8170445660672401 0.8154808444096949 0.8123534010946052 0.8053166536356529 0.7834245504300235 0.7537138389366693 0.7247849882720876 0.6747458952306489 0.6200156372165755 0.5762314308053167 0.5402658326817826 0.5144644253322909 0.4894448788115715 0.4605160281469899 0.43158717748240816 0.4151681000781861 0.3932759968725567 0.3635652853792025 0.3236903831118061 0.29867083659108684 0.2595777951524628 0.218921032056294 0.18295543393275995 0.16262705238467556 0.14777169663799838 0.13682564503518369 0.13057075840500387 0.12744331508991402 0.125879593432369 0.12353401094605165 0.12040656763096168 0.11806098514464425 0.11727912431587173 0.11727912431587173 0.11649726348709932 0.1157154026583268 0.11415168100078188,167.7399999999907 187.7399999999907 207.7399999999907 227.7399999999907 247.7399999999907 267.7399999999907 287.7399999999907 307.7399999999907 327.7399999999907 347.7399999999907 367.7399999999907 387.7399999999907 407.7399999999907 427.7399999999907 447.7399999999907 467.7399999999907 487.7399999999907 507.7399999999907 527.7399999999907 547.7399999999907 567.7399999999908 587.7399999999908 607.7399999999908 627.7399999999908 647.7399999999908 667.7399999999908 687.7399999999907 707.7399999999907 727.7399999999907 747.7399999999907 767.7399999999907 787.7399999999907 807.7399999999907 827.7399999999907 847.7399999999907 867.7399999999907 887.7399999999907 907.7399999999907 927.7399999999907 947.7399999999907 967.7399999999907 987.7399999999907 1007.7399999999907 1027.7399999999907 1047.7399999999907 1067.7399999999907 1087.7399999999907 1107.7399999999907 1127.7399999999907 1147.7399999999907 1167.7399999999907 1187.7399999999907 1207.7399999999907 1227.7399999999907 1247.7399999999907 1267.7399999999907 1287.7399999999907 1307.7399999999907 1327.7399999999907 1347.7399999999907 1367.7399999999907 1387.739999999991 1407.739999999991 1427.739999999991 1447.739999999991
cb_09,13.0,enc_trial,stim,response,Miami trip,1485.2600000000089,enc_trial,1.0,13.0,t_s_02_2,travel_shared,fold-b,water bottle,9.0,competing,close,paired,t_s_02_2.jpg,,travel-b1,Iceland trip,Miami trip,sub-26,0.0,0.0,1.0,1.0,0.5005863956215794 0.5005863956215794 0.5005863956215794 0.5005863956215794 0.5005863956215794 0.5005863956215794 0.5005863956215794 0.5005863956215794 0.5005863956215794 0.5005863956215794 0.5005863956215794 0.5005863956215794 0.5005863956215794 0.5005863956215794 0.4994136043784206 0.4988272087568413 0.4988272087568413 0.4988272087568413 0.4988272087568413 0.4988272087568413 0.4988272087568413 0.4988272087568413 0.4988272087568413 0.4988272087568413 0.4988272087568413 0.4988272087568413 0.4988272087568413 0.4988272087568413 0.4988272087568413 0.4976544175136826 0.4953088350273651 0.4947224394057858 0.4923768569194683 0.4888584831899922 0.4882720875684128 0.4900312744331509 0.491790461297889 0.491790461297889 0.4906176700547303 0.4882720875684128 0.485340109460516 0.4818217357310399 0.4777169663799843 0.4747849882720876 0.4736121970289289 0.4730258014073495 0.4741985926505082 0.4759577795152463 0.4824081313526192 0.493549648162627 0.5205238467552775 0.5668491008600469 0.6471853010164189 0.6940969507427678 0.7738467552775605 0.8225175918686474 0.844800625488663 0.8500781860828772 0.8500781860828772 0.8500781860828772 0.8500781860828772 0.8506645817044566 0.8506645817044566 0.8506645817044566 0.8506645817044566,0.8279906176700547 0.8279906176700547 0.8279906176700547 0.8279906176700547 0.8279906176700547 0.8279906176700547 0.8279906176700547 0.8279906176700547 0.8279906176700547 0.8279906176700547 0.8279906176700547 0.8279906176700547 0.8279906176700547 0.8279906176700547 0.8256450351837373 0.8256450351837373 0.8256450351837373 0.8256450351837373 0.8256450351837373 0.8256450351837373 0.8256450351837373 0.8256450351837373 0.8256450351837373 0.8256450351837373 0.8256450351837373 0.8256450351837373 0.8256450351837373 0.8256450351837373 0.821735731039875 0.8084440969507427 0.7849882720875684 0.7513682564503519 0.7185301016419077 0.6833463643471462 0.6536356528537921 0.5981235340109461 0.5559030492572322 0.5340109460516028 0.5191555903049256 0.5027365129007036 0.4800625488663018 0.4550430023455825 0.4331508991399531 0.4104769351055512 0.3948397185301017 0.380766223612197 0.3698201720093823 0.36043784206411256 0.3455824863174355 0.32838154808444103 0.2963252541047694 0.25645035183737297 0.20093823299452696 0.17435496481626267 0.12900703674745895 0.10711493354182956 0.10164190774042224 0.10164190774042224 0.10242376856919466 0.1047693510555121 0.10711493354182956 0.10867865519937447 0.11024237685691952 0.11102423768569193 0.11180609851446444,37.77999999999884 57.77999999999884 77.77999999999885 97.77999999999884 117.77999999999884 137.77999999999884 157.77999999999884 177.77999999999886 197.77999999999886 217.77999999999886 237.77999999999886 257.77999999999884 277.77999999999884 297.77999999999884 317.77999999999884 337.77999999999884 357.7799999999988 377.77999999999884 397.77999999999884 417.77999999999884 437.77999999999884 457.77999999999884 477.77999999999884 497.77999999999884 517.7799999999988 537.7799999999988 557.7799999999988 577.7799999999988 597.7799999999988 617.7799999999988 637.7799999999988 657.7799999999988 677.7799999999988 697.7799999999988 717.7799999999988 737.7799999999988 757.7799999999988 777.7799999999988 797.7799999999988 817.7799999999988 837.7799999999988 857.7799999999988 877.7799999999988 897.7799999999988 917.7799999999988 937.7799999999988 957.7799999999988 977.7799999999988 997.7799999999988 1017.7799999999988 1037.7799999999988 1057.7799999999988 1077.7799999999988 1097.7799999999988 1117.7799999999988 1137.7799999999988 1157.7799999999988 1177.7799999999988 1197.7799999999988 1217.7799999999988 1237.7799999999988 1257.7799999999988 1277.7799999999988 1297.7799999999988 1317.7799999999988
cb_09,14.0,enc_trial,stim,response,Miami trip,1283.7200000000012,enc_trial,1.0,14.0,t_s_23_1,travel_shared,fold-c,ball cap,9.0,competing,far,paired,t_s_23_1.jpg,,travel-b1,Iceland trip,Miami trip,sub-26,1.0,1.0,1.0,1.0,0.5046911649726349 0.5041047693510555 0.5041047693510555 0.5035183737294762 0.5023455824863174 0.4994136043784206 0.4958952306489445 0.4900312744331509 0.485340109460516 0.4783033620015637 0.4677482408131353 0.44781078967943705 0.4302189210320563 0.4026583268178264 0.3786161063330727 0.3610242376856919 0.3545738858483189 0.3534010946051603 0.35691946833463645 0.3627834245504301 0.3803752931978108 0.4143862392494136 0.4759577795152463 0.5803362001563722 0.6594996090695856 0.7316262705238467 0.7826426896012509 0.8131352619233776 0.8336591086786551 0.8459734167318217 0.8530101641907741 0.8623924941360437 0.8735340109460515 0.8817435496481626 0.88408913213448 0.8846755277560594,0.8154808444096949 0.8154808444096949 0.8154808444096949 0.8139171227521501 0.8131352619233776 0.8115715402658327 0.8076622361219703 0.802189210320563 0.7959343236903831 0.7865519937451133 0.7685691946833464 0.72869429241595 0.689601250977326 0.6286161063330726 0.5699765441751368 0.5215011727912431 0.491790461297889 0.4706802189210321 0.4519155590304925 0.4394057857701329 0.4175136825645035 0.3870211102423768 0.34480062548866297 0.2799061767005473 0.23377638780297105 0.19468334636434714 0.164972634870993 0.1485535574667709 0.1422986708365911 0.13995308835027365 0.13995308835027365 0.13995308835027365 0.13838936669272872 0.13682564503518369 0.13682564503518369 0.13682564503518369,564.2399999999908 584.2399999999908 604.2399999999908 624.2399999999908 644.2399999999908 664.2399999999908 684.2399999999908 704.2399999999907 724.2399999999907 744.2399999999907 764.2399999999907 784.2399999999907 804.2399999999907 824.2399999999907 844.2399999999907 864.2399999999907 884.2399999999907 904.2399999999907 924.2399999999907 944.2399999999907 964.2399999999907 984.2399999999907 1004.2399999999907 1024.2399999999907 1044.2399999999907 1064.2399999999907 1084.2399999999907 1104.2399999999907 1124.2399999999907 1144.2399999999907 1164.2399999999907 1184.2399999999907 1204.2399999999907 1224.2399999999907 1244.2399999999907 1264.2399999999907
cb_09,15.0,enc_trial,stim,response,Miami trip,1057.4800000000105,enc_trial,1.0,15.0,t_m_19_2,travel_Miami,fold-b,surfboard,9.0,unique,close,paired,t_m_19_2.jpg,Miami,travel-b1,Iceland trip,Miami trip,sub-26,1.0,1.0,1.0,1.0,0.4912040656763096 0.4941360437842064 0.5052775605942142 0.5322517591868647 0.5803362001563722 0.6372165754495699 0.6729867083659108 0.7369038311180609 0.7867474589523065 0.8049257232212665 0.8166536356528538 0.8207584050039093 0.821931196247068 0.821931196247068 0.821931196247068 0.8225175918686474 0.8231039874902267 0.8254495699765442 0.8266223612197029 0.8313135261923377 0.8330727130570758 0.8383502736512901 0.8406958561376074 0.8412822517591868 0.8418686473807662 0.8418686473807662,0.8037529319781079 0.7795152462861611 0.7255668491008601 0.6512900703674747 0.5605942142298671 0.4800625488663018 0.43706020328381545 0.3682564503518374 0.3158717748240813 0.2947615324472244 0.2791243158717748 0.2697419859265051 0.26583268178264274 0.26583268178264274 0.26583268178264274 0.2650508209538702 0.26114151681000786 0.2509773260359656 0.24315871774824085 0.22361219702892887 0.2142298670836591 0.1985926505082095 0.18921032056293985 0.1868647380766224 0.1853010164190773 0.18373729476153244,547.6600000000035 567.6600000000035 587.6600000000035 607.6600000000035 627.6600000000035 647.6600000000035 667.6600000000035 687.6600000000035 707.6600000000035 727.6600000000035 747.6600000000035 767.6600000000035 787.6600000000035 807.6600000000035 827.6600000000035 847.6600000000035 867.6600000000035 887.6600000000035 907.6600000000036 927.6600000000036 947.6600000000036 967.6600000000036 987.6600000000036 1007.6600000000036 1027.6600000000037 1047.6600000000037
cb_09,16.0,enc_trial,stim,response,Miami trip,996.9200000000128,enc_trial,1.0,16.0,t_m_03_1,travel_Miami,fold-c,wetsuit,9.0,unique,far,paired,t_m_03_1.jpg,Miami,travel-b1,Iceland trip,Miami trip,sub-26,1.0,1.0,0.0,0.0,0.4964816262705238 0.4964816262705238 0.5 0.5005863956215794 0.5005863956215794 0.5005863956215794 0.5005863956215794 0.5005863956215794 0.5005863956215794 0.5093823299452698 0.5293197810789679 0.5363565285379203 0.5170054730258014 0.4994136043784206 0.4859265050820954 0.4818217357310399 0.485340109460516 0.4900312744331509 0.5058639562157936 0.5345973416731822 0.575058639562158 0.6196247068021892 0.6665363565285378 0.7087568412822517 0.7556684910086005 0.8119624706802189 0.8377638780297106 0.8489053948397185 0.8530101641907741 0.8553557466770915 0.8559421422986708 0.8571149335418295 0.8582877247849883 0.8588741204065676,0.8029710711493354 0.7951524628616107 0.7716966379984362 0.7630961688819391 0.7630961688819391 0.7630961688819391 0.7630961688819391 0.7630961688819391 0.7630961688819391 0.7568412822517592 0.7240031274433151 0.6583268178264269 0.562157935887412 0.4863174354964817 0.4245504300234558 0.3690383111806098 0.3275996872556685 0.3135261923377639 0.2947615324472244 0.27208756841282256 0.2501954652071932 0.23299452697419865 0.2095387021110242 0.18139171227521506 0.14386239249413602 0.10164190774042224 0.08522283033620015 0.07896794370602034 0.07740422204847541 0.07740422204847541 0.07740422204847541 0.07818608287724782 0.07974980453479286 0.08131352619233778,318.62000000002445 338.62000000002445 358.6200000000244 378.6200000000245 398.6200000000245 418.6200000000245 438.6200000000245 458.6200000000245 478.6200000000245 498.6200000000245 518.6200000000243 538.6200000000243 558.6200000000243 578.6200000000243 598.6200000000243 618.6200000000243 638.6200000000243 658.6200000000243 678.6200000000243 698.6200000000244 718.6200000000244 738.6200000000244 758.6200000000244 778.6200000000244 798.6200000000244 818.6200000000244 838.6200000000244 858.6200000000244 878.6200000000244 898.6200000000244 918.6200000000244 938.6200000000244 958.6200000000244 978.6200000000244
cb_09,17.0,enc_trial,stim,response,Miami trip,1165.859999999986,enc_trial,1.0,17.0,t_m_18_1,travel_Miami,fold-b,waterproof tote,9.0,unique,close,paired,t_m_18_1.jpg,Miami,travel-b1,Iceland trip,Miami trip,sub-26,1.0,1.0,1.0,1.0,0.4882720875684128 0.4882720875684128 0.4882720875684128 0.4882720875684128 0.4882720875684128 0.4882720875684128 0.4876856919468335 0.4882720875684128 0.4953088350273651 0.5093823299452698 0.5486708365910868 0.6067240031274432 0.6571540265832682 0.7339718530101641 0.7885066458170445 0.8365910867865519 0.8717748240813135 0.8876075058639562 0.8922986708365911 0.8946442533229084 0.8964034401876465 0.8975762314308052 0.8975762314308052 0.8975762314308052 0.8975762314308052,0.8436278342455044 0.8428459734167318 0.8420641125879593 0.8405003909304144 0.8389366692728695 0.8373729476153244 0.8326817826426895 0.8279906176700547 0.8037529319781079 0.7724784988272088 0.7075840500390931 0.6262705238467553 0.5629397967161844 0.4683346364347146 0.3964034401876466 0.3221266614542612 0.2572322126661454 0.22283033620015635 0.21110242376856925 0.20172009382329947 0.19390148553557465 0.1853010164190773 0.18373729476153244 0.18373729476153244 0.18295543393275995,584.5 604.5 624.5 644.5 664.5 684.5 704.5 724.5 744.5 764.5 784.5 804.5 824.5 844.5 864.5 884.5 904.5 924.5 944.5 964.5 984.5 1004.5 1024.5 1044.5 1064.5
cb_09,18.0,enc_trial,stim,response,Iceland trip,1290.5,enc_trial,1.0,18.0,t_i_19_2,travel_Iceland,fold-b,rope,9.0,unique,close,paired,t_i_19_2.jpg,Iceland,travel-b1,Iceland trip,Miami trip,sub-26,1.0,1.0,1.0,1.0,0.4906176700547303 0.4900312744331509 0.4900312744331509 0.4900312744331509 0.4900312744331509 0.4894448788115716 0.4894448788115716 0.4882720875684128 0.4876856919468335 0.4876856919468335 0.4876856919468335 0.4876856919468335 0.4876856919468335 0.4876856919468335 0.4876856919468335 0.4876856919468335 0.4876856919468335 0.4876856919468335 0.4876856919468335 0.4876856919468335 0.4876856919468335 0.4876856919468335 0.4876856919468335 0.4876856919468335 0.4876856919468335 0.4876856919468335 0.4876856919468335 0.4876856919468335 0.4876856919468335 0.4824081313526192 0.4630570758405004 0.4261141516810008 0.4079358874120407 0.3962079749804535 0.3903440187646599 0.3903440187646599 0.3956215793588741 0.4038311180609852 0.4155590304925723 0.42259577795152464 0.4349100860046912 0.4396012509773261 0.4483971853010164 0.4612978889757623 0.4642298670836591 0.4618842845973417 0.4360828772478499 0.4091086786551994 0.3780297107114933 0.3293588741204065 0.2976935105551212 0.2759968725566849 0.26075058639562154 0.24550430023455824 0.2308444096950743 0.21559812353401087 0.19800625488663007 0.17982799061767005 0.1604769351055512 0.1505082095387021 0.14874902267396406,0.8428459734167318 0.8420641125879593 0.8412822517591869 0.8412822517591869 0.8412822517591869 0.8412822517591869 0.8405003909304144 0.8405003909304144 0.8405003909304144 0.8397185301016419 0.8397185301016419 0.8397185301016419 0.8397185301016419 0.8397185301016419 0.8397185301016419 0.8397185301016419 0.8397185301016419 0.8397185301016419 0.8397185301016419 0.8397185301016419 0.8397185301016419 0.8397185301016419 0.8397185301016419 0.8397185301016419 0.8397185301016419 0.8397185301016419 0.8397185301016419 0.8397185301016419 0.8232994526974199 0.7630961688819391 0.6661454261141517 0.5254104769351056 0.4581704456606725 0.4167318217357311 0.3854573885848319 0.3557466770914777 0.3275996872556685 0.3064894448788116 0.2838154808444097 0.2705238467552775 0.24941360437842064 0.2400312744331509 0.22126661454261146 0.1915559030492572 0.17826426896012515 0.17435496481626267 0.16106333072713053 0.15011727912431586 0.14386239249413602 0.1430805316653636 0.14151681000781854 0.14073494917904614 0.14073494917904614 0.13995308835027365 0.13838936669272872 0.13604378420641128 0.13448006254886635 0.1321344800625489 0.1321344800625489 0.1313526192337764 0.1313526192337764,32.17999999999301 52.17999999999301 72.17999999999302 92.17999999999302 112.17999999999302 132.17999999999302 152.17999999999304 172.17999999999302 192.17999999999302 212.17999999999302 232.17999999999302 252.17999999999302 272.17999999999296 292.17999999999296 312.17999999999296 332.17999999999296 352.17999999999296 372.17999999999296 392.17999999999296 412.17999999999296 432.17999999999296 452.17999999999296 472.17999999999296 492.17999999999296 512.179999999993 532.179999999993 552.179999999993 572.179999999993 592.179999999993 612.179999999993 632.179999999993 652.179999999993 672.179999999993 692.179999999993 712.179999999993 732.179999999993 752.179999999993 772.179999999993 792.179999999993 812.179999999993 832.179999999993 852.179999999993 872.179999999993 892.179999999993 912.179999999993 932.179999999993 952.179999999993 972.179999999993 992.179999999993 1012.179999999993 1032.179999999993 1052.179999999993 1072.179999999993 1092.179999999993 1112.179999999993 1132.179999999993 1152.179999999993 1172.179999999993 1192.179999999993 1212.179999999993 1232.179999999993
cb_09,19.0,enc_trial,stim,response,Miami trip,975.5199999999896,enc_trial,1.0,19.0,t_s_06_1,travel_shared,fold-b,luggage,9.0,competing,close,paired,t_s_06_1.jpg,,travel-b1,Iceland trip,Miami trip,sub-26,1.0,1.0,0.0,0.0,0.5046911649726349 0.5041047693510555 0.5041047693510555 0.5041047693510555 0.5117279124315872 0.5287333854573886 0.562157935887412 0.5944096950742768 0.6243158717748241 0.6641907740422204 0.6952697419859264 0.7140344018764659 0.7304534792806879 0.7503909304143862 0.7568412822517592 0.7715011727912431 0.7785379202501954 0.7838154808444097 0.7896794370602033 0.7961297888975761 0.8072713057075842 0.8137216575449571 0.8160672400312744 0.8195856137607506 0.8272087568412821 0.8324863174354964 0.8354182955433932,0.8209538702111024 0.8201720093823299 0.8162627052384676 0.8076622361219703 0.7732603596559813 0.712275215011728 0.6184519155590305 0.5512118842845973 0.4972634870992964 0.4284597341673182 0.3745113369820172 0.3408913213448006 0.3119624706802189 0.2736512900703675 0.2587959343236904 0.2267396403440187 0.2087568412822518 0.1954652071931197 0.18139171227521506 0.16810007818608286 0.14933541829554342 0.14073494917904614 0.1376075058639562 0.13369820172009386 0.1266614542611415 0.12353401094605165 0.12197028928850664,422.7399999999907 442.7399999999907 462.7399999999907 482.7399999999907 502.7399999999907 522.7399999999907 542.7399999999907 562.7399999999907 582.7399999999908 602.7399999999908 622.7399999999908 642.7399999999908 662.7399999999908 682.7399999999908 702.7399999999907 722.7399999999907 742.7399999999907 762.7399999999907 782.7399999999907 802.7399999999907 822.7399999999907 842.7399999999907 862.7399999999907 882.7399999999907 902.7399999999907 922.7399999999907 942.7399999999907
cb_09,20.0,enc_trial,stim,response,Iceland trip,1407.8800000000049,enc_trial,1.0,20.0,t_s_04_1,travel_shared,fold-c,instant camera,9.0,competing,far,paired,t_s_04_1.jpg,,travel-b1,Iceland trip,Miami trip,sub-26,1.0,1.0,1.0,1.0,0.5052775605942142 0.5052775605942142 0.5111415168100079 0.5387021110242377 0.5721266614542612 0.6319390148553556 0.6759186864738076 0.7709147771696637 0.8254495699765442 0.8553557466770915 0.869429241594996 0.8717748240813135 0.8729476153244722 0.8717748240813135 0.8706020328381547 0.8664972634870992 0.8571149335418295 0.8184128225175918 0.7738467552775605 0.6970289288506645 0.6319390148553556 0.5516028146989835 0.4870992963252541 0.4442924159499609 0.4102814698983581 0.4014855355746677 0.4014855355746677 0.4038311180609852 0.4096950742767787 0.4114542611415168 0.3973807662236122 0.3586786551993745 0.2982799061767005 0.2466770914777169 0.17865519937451133 0.13291634089132132 0.11591086786551992 0.1059421422986708 0.10301016419077402 0.1006645817044566 0.09831899921813916 0.09831899921813916 0.09831899921813916,0.8287724784988272 0.8053166536356529 0.7716966379984362 0.6950742767787335 0.6364347146207975 0.5512118842845973 0.4956997654417513 0.3862392494136043 0.32056293979671624 0.2806880375293198 0.25645035183737297 0.2462861610633307 0.23768569194683345 0.2314308053166536 0.22830336200156376 0.2259577795152463 0.22439405785770128 0.22126661454261146 0.21188428459734165 0.1876465989053948 0.16184519155590305 0.12353401094605165 0.09225957779515248 0.07818608287724782 0.07349491790461292 0.07114933541829549 0.07036747458952307 0.07114933541829549 0.07349491790461292 0.08444096950742762 0.10711493354182956 0.13291634089132132 0.1485535574667709 0.15246286161063327 0.15168100078186084 0.14777169663799838 0.14777169663799838 0.14933541829554342 0.14933541829554342 0.14933541829554342 0.1485535574667709 0.14698983580922598 0.14620797498045346,576.679999999993 596.679999999993 616.679999999993 636.679999999993 656.679999999993 676.679999999993 696.679999999993 716.679999999993 736.679999999993 756.679999999993 776.679999999993 796.679999999993 816.679999999993 836.679999999993 856.679999999993 876.679999999993 896.679999999993 916.679999999993 936.679999999993 956.679999999993 976.679999999993 996.679999999993 1016.679999999993 1036.679999999993 1056.679999999993 1076.679999999993 1096.679999999993 1116.679999999993 1136.679999999993 1156.679999999993 1176.679999999993 1196.679999999993 1216.679999999993 1236.679999999993 1256.679999999993 1276.679999999993 1296.679999999993 1316.679999999993 1336.679999999993 1356.679999999993 1376.679999999993 1396.679999999993 1416.679999999993
cb_09,21.0,enc_trial,stim,response,Miami trip,1190.7600000000093,enc_trial,1.0,21.0,t_m_18_2,travel_Miami,fold-b,waterproof tote,9.0,unique,close,paired,t_m_18_2.jpg,Miami,travel-b1,Iceland trip,Miami trip,sub-26,1.0,1.0,1.0,1.0,0.4988272087568413 0.4988272087568413 0.4976544175136826 0.4970680218921032 0.4970680218921032 0.5076231430805317 0.5287333854573886 0.5410476935105551 0.560398749022674 0.5867865519937451 0.6231430805316653 0.6612587959343237 0.6682955433932759 0.6682955433932759 0.6665363565285378 0.660086004691165 0.6436669272869429 0.6032056293979671 0.5727130570758405 0.5328381548084441 0.5105551211884285 0.5099687255668491 0.5181782642689601 0.5598123534010946 0.6184519155590305 0.6882329945269742 0.7562548866301798 0.8137216575449571 0.8465598123534008 0.8541829554339327,0.8334636434714621 0.8334636434714621 0.8334636434714621 0.8311180609851446 0.8201720093823299 0.7818608287724785 0.7318217357310399 0.7028928850664582 0.6598905394839718 0.6035965598123534 0.527756059421423 0.4495699765441752 0.4300234558248631 0.4276778733385458 0.4245504300234558 0.4120406567630962 0.3893666927286943 0.34401876465989056 0.30883502736512897 0.2572322126661454 0.20562939796716184 0.19390148553557465 0.18217357310398752 0.16106333072713053 0.15168100078186084 0.15011727912431586 0.14933541829554342 0.14620797498045346 0.13917122752150113 0.13682564503518369,474.54000000000815 494.54000000000815 514.540000000008 534.540000000008 554.540000000008 574.540000000008 594.540000000008 614.540000000008 634.540000000008 654.540000000008 674.540000000008 694.540000000008 714.540000000008 734.540000000008 754.540000000008 774.540000000008 794.540000000008 814.540000000008 834.540000000008 854.540000000008 874.540000000008 894.540000000008 914.5400000000079 934.5400000000079 954.5400000000079 974.5400000000079 994.5400000000079 1014.5400000000079 1034.540000000008 1054.540000000008
cb_09,22.0,enc_trial,stim,response,Iceland trip,1378.820000000007,enc_trial,1.0,22.0,t_s_24_2,travel_shared,fold-c,ear plugs,9.0,competing,far,paired,t_s_24_2.jpg,,travel-b1,Iceland trip,Miami trip,sub-26,1.0,1.0,0.0,1.0,0.5 0.5 0.5 0.5 0.5 0.5 0.5 0.5 0.5 0.5 0.5 0.5 0.5 0.5 0.5 0.5 0.5 0.5 0.5 0.5 0.5 0.5 0.5 0.5 0.5 0.5 0.5 0.5 0.5 0.4994136043784206 0.4994136043784206 0.4988272087568413 0.4982408131352619 0.4976544175136826 0.4964816262705238 0.4953088350273651 0.4941360437842064 0.4923768569194683 0.4894448788115716 0.4870992963252541 0.4824081313526192 0.4736121970289289 0.4642298670836591 0.45426114151680996 0.4472243940578577 0.4419468334636435 0.4343236903831118 0.42376856919468336 0.4008991399530884 0.3639562157935887 0.3053166536356529 0.2507818608287725 0.20680218921032054 0.17630961688819388 0.15989053948397186 0.1546129788897576 0.14992181391712273 0.1446442533229085 0.13878029710711492 0.13702111024237684 0.13643471462079748 0.13584831899921812 0.13643471462079748 0.13643471462079748 0.13702111024237684,0.7881157154026583 0.7881157154026583 0.7881157154026583 0.7881157154026583 0.7881157154026583 0.7881157154026583 0.7881157154026583 0.7881157154026583 0.7881157154026583 0.7881157154026583 0.7881157154026583 0.7881157154026583 0.7881157154026583 0.7881157154026583 0.7881157154026583 0.7881157154026583 0.7881157154026583 0.7881157154026583 0.7881157154026583 0.7881157154026583 0.7881157154026583 0.7881157154026583 0.7881157154026583 0.7881157154026583 0.7881157154026583 0.7881157154026583 0.7881157154026583 0.7881157154026583 0.7881157154026583 0.7881157154026583 0.7881157154026583 0.7881157154026583 0.7873338545738858 0.7873338545738858 0.7857701329163409 0.7849882720875684 0.7826426896012509 0.7795152462861611 0.7709147771696638 0.7591868647380766 0.7365129007036748 0.692728694292416 0.6450351837372947 0.5903049257232212 0.5387021110242377 0.5121188428459734 0.4753713838936671 0.43627834245504304 0.382329945269742 0.3362001563721657 0.2759968725566849 0.2197028928850665 0.17279124315871774 0.13291634089132132 0.10867865519937447 0.0992963252541048 0.09147771696637996 0.08131352619233778 0.06958561376075056 0.06411258795934327 0.06098514464425332 0.06098514464425332 0.06098514464425332 0.06098514464425332 0.06098514464425332,84.54000000000815 104.54000000000816 124.54000000000816 144.54000000000818 164.54000000000818 184.54000000000812 204.54000000000812 224.54000000000812 244.54000000000812 264.54000000000815 284.54000000000815 304.54000000000815 324.54000000000815 344.5400000000081 364.54000000000815 384.54000000000815 404.54000000000815 424.54000000000815 444.54000000000815 464.54000000000815 484.54000000000815 504.54000000000815 524.540000000008 544.540000000008 564.540000000008 584.540000000008 604.540000000008 624.540000000008 644.540000000008 664.540000000008 684.540000000008 704.540000000008 724.540000000008 744.540000000008 764.540000000008 784.540000000008 804.540000000008 824.540000000008 844.540000000008 864.540000000008 884.540000000008 904.5400000000079 924.5400000000079 944.5400000000079 964.5400000000079 984.5400000000079 1004.5400000000079 1024.540000000008 1044.540000000008 1064.540000000008 1084.540000000008 1104.540000000008 1124.540000000008 1144.540000000008 1164.540000000008 1184.540000000008 1204.540000000008 1224.540000000008 1244.540000000008 1264.540000000008 1284.540000000008 1304.540000000008 1324.540000000008 1344.540000000008 1364.540000000008
cb_09,23.0,enc_trial,stim,response,Iceland trip,1078.5199999999895,enc_trial,1.0,23.0,t_i_14_1,travel_Iceland,fold-c,snow pants,9.0,unique,far,paired,t_i_14_1.jpg,Iceland,travel-b1,Iceland trip,Miami trip,sub-26,1.0,1.0,1.0,1.0,0.5029319781078968 0.5029319781078968 0.5029319781078968 0.5029319781078968 0.5029319781078968 0.5029319781078968 0.5029319781078968 0.5029319781078968 0.5029319781078968 0.5029319781078968 0.5029319781078968 0.5029319781078968 0.5029319781078968 0.5029319781078968 0.5029319781078968 0.5029319781078968 0.5029319781078968 0.5029319781078968 0.5029319781078968 0.5029319781078968 0.5029319781078968 0.5029319781078968 0.5029319781078968 0.5029319781078968 0.5029319781078968 0.5029319781078968 0.5029319781078968 0.5029319781078968 0.5011727912431587 0.4958952306489445 0.4788897576231431 0.4360828772478499 0.3715793588741204 0.3035574667709148 0.26544175136825643 0.2419859265050821 0.2343627834245504 0.2308444096950743 0.2273260359655981 0.2220484753713839 0.21383893666927287 0.20269741985926504 0.1956606724003128 0.18393275996872555 0.16927286942924158 0.1546129788897576 0.1446442533229085 0.140539483971853 0.13878029710711492,0.7935887412040656 0.7935887412040656 0.7935887412040656 0.7935887412040656 0.7935887412040656 0.7935887412040656 0.7935887412040656 0.7935887412040656 0.7935887412040656 0.7935887412040656 0.7935887412040656 0.7935887412040656 0.7935887412040656 0.7935887412040656 0.7935887412040656 0.7935887412040656 0.7935887412040656 0.7935887412040656 0.7935887412040656 0.7935887412040656 0.7935887412040656 0.7935887412040656 0.7935887412040656 0.7935887412040656 0.7935887412040656 0.7935887412040656 0.7935887412040656 0.7935887412040656 0.7920250195465207 0.7724784988272088 0.7130570758405004 0.6137607505863956 0.4878811571540266 0.3651290070367473 0.2673964034401877 0.21735731039874906 0.20093823299452696 0.1915559030492572 0.18295543393275995 0.17279124315871774 0.16184519155590305 0.15168100078186084 0.14698983580922598 0.1422986708365911 0.13917122752150113 0.13838936669272872 0.1376075058639562 0.13604378420641128 0.13526192337763876,119.66000000000349 139.66000000000352 159.66000000000352 179.66000000000352 199.66000000000352 219.66000000000352 239.66000000000352 259.6600000000035 279.6600000000035 299.6600000000035 319.6600000000035 339.6600000000035 359.6600000000035 379.6600000000035 399.6600000000035 419.6600000000035 439.6600000000035 459.6600000000035 479.6600000000035 499.6600000000035 519.6600000000035 539.6600000000035 559.6600000000035 579.6600000000035 599.6600000000035 619.6600000000035 639.6600000000035 659.6600000000035 679.6600000000035 699.6600000000035 719.6600000000035 739.6600000000035 759.6600000000035 779.6600000000035 799.6600000000035 819.6600000000035 839.6600000000035 859.6600000000035 879.6600000000035 899.6600000000035 919.6600000000036 939.6600000000036 959.6600000000036 979.6600000000036 999.6600000000036 1019.6600000000036 1039.6600000000037 1059.6600000000037 1079.6600000000037
cb_09,24.0,enc_trial,stim,response,Iceland trip,933.7600000000383,enc_trial,1.0,24.0,t_s_06_2,travel_shared,fold-b,luggage,9.0,competing,close,paired,t_s_06_2.jpg,,travel-b1,Iceland trip,Miami trip,sub-26,1.0,1.0,0.0,0.0,0.4970680218921032 0.4976544175136826 0.4958952306489445 0.4882720875684128 0.4695074276778734 0.4372556684910086 0.3745113369820172 0.3422595777951525 0.29358874120406564 0.2466770914777169 0.21383893666927287 0.20269741985926504 0.18627834245504304 0.17220484753713838 0.15930414386239247 0.14523064894448787 0.13936669272869429 0.13526192337763876 0.13232994526974198 0.13174354964816262 0.13174354964816262,0.799061767005473 0.7849882720875684 0.7498045347928068 0.6966379984362783 0.619233776387803 0.5363565285379203 0.4136043784206411 0.3643471462079749 0.29397967161845195 0.2345582486317436 0.1985926505082095 0.18921032056293985 0.1751368256450352 0.16184519155590305 0.14933541829554342 0.13838936669272872 0.13369820172009386 0.12978889757623147 0.1266614542611415 0.12431587177482405 0.12353401094605165,526.2600000000093 546.2600000000093 566.2600000000092 586.2600000000092 606.2600000000092 626.2600000000092 646.2600000000092 666.2600000000092 686.2600000000092 706.2600000000093 726.2600000000093 746.2600000000093 766.2600000000093 786.2600000000093 806.2600000000093 826.2600000000093 846.2600000000093 866.2600000000093 886.2600000000093 906.2600000000093 926.2600000000093
cb_09,25.0,enc_trial,stim,response,Iceland trip,1429.820000000007,enc_trial,1.0,25.0,t_s_10_2,travel_shared,fold-c,luggage lock,9.0,competing,far,paired,t_s_10_2.jpg,,travel-b1,Iceland trip,Miami trip,sub-26,1.0,1.0,0.0,0.0,0.5134870992963253 0.5129007036747459 0.5129007036747459 0.5123143080531666 0.5111415168100079 0.5093823299452698 0.506450351837373 0.5023455824863174 0.4941360437842064 0.4859265050820954 0.4736121970289289 0.45426114151680996 0.4343236903831118 0.41790461297888976 0.4073494917904613 0.4020719311962471 0.4014855355746677 0.4014855355746677 0.4003127443315089 0.3973807662236122 0.3944487881157154 0.3909304143862393 0.3868256450351837 0.3809616888193901 0.3704065676309617 0.3616106333072713 0.3440187646598905 0.3199765441751368 0.2959343236903831 0.2689601250977326 0.2449179046129789 0.22673964034401875 0.21090695856137606 0.1974198592650508 0.1892103205629398 0.18158717748240813 0.17279124315871774 0.1657544956997654 0.16164972634870992 0.15930414386239247 0.1575449569976544 0.15695856137607506 0.15695856137607506 0.15695856137607506,0.8006254886630179 0.8006254886630179 0.7998436278342456 0.799061767005473 0.7974980453479281 0.7943706020328382 0.7896794370602033 0.7779515246286162 0.7529319781078968 0.7208756841282251 0.6755277560594215 0.6207974980453479 0.5707584050039093 0.5230648944487881 0.4816262705238468 0.452697419859265 0.434714620797498 0.4245504300234558 0.4143862392494137 0.3995308835027365 0.3792025019546521 0.36043784206411256 0.3424550430023455 0.32681782642689605 0.30883502736512897 0.2971071149335418 0.27756059421422985 0.25488663017982804 0.23377638780297105 0.21110242376856925 0.1915559030492572 0.1751368256450352 0.16184519155590305 0.15011727912431586 0.1430805316653636 0.1376075058639562 0.1321344800625489 0.12822517591868646 0.12509773260359658 0.12353401094605165 0.12275215011727915 0.12197028928850664 0.1211884284597342 0.12040656763096168,491.36000000001513 511.36000000001513 531.3600000000151 551.3600000000151 571.3600000000151 591.3600000000151 611.3600000000151 631.3600000000151 651.3600000000151 671.3600000000151 691.3600000000151 711.3600000000151 731.3600000000151 751.3600000000151 771.3600000000151 791.3600000000151 811.3600000000151 831.3600000000151 851.3600000000151 871.3600000000151 891.3600000000151 911.3600000000152 931.3600000000152 951.3600000000152 971.3600000000152 991.3600000000152 1011.3600000000152 1031.3600000000154 1051.3600000000154 1071.3600000000154 1091.3600000000154 1111.3600000000154 1131.3600000000154 1151.3600000000154 1171.3600000000154 1191.3600000000154 1211.3600000000154 1231.3600000000154 1251.3600000000154 1271.3600000000154 1291.3600000000154 1311.3600000000154 1331.3600000000154 1351.3600000000154
cb_09,26.0,enc_trial,stim,response,Iceland trip,1618.9400000000023,enc_trial,1.0,26.0,t_i_04_1,travel_Iceland,fold-c,portable camping stove,9.0,unique,far,paired,t_i_04_1.jpg,Iceland,travel-b1,Iceland trip,Miami trip,sub-26,1.0,1.0,1.0,1.0,0.5105551211884285 0.508209538702111 0.506450351837373 0.5041047693510555 0.5011727912431587 0.5 0.5 0.5 0.5 0.5 0.5 0.5 0.5 0.5 0.5 0.5 0.5 0.5 0.5 0.5 0.5 0.5 0.5 0.5 0.5 0.4994136043784206 0.4988272087568413 0.4976544175136826 0.4988272087568413 0.508209538702111 0.5246286161063329 0.5474980453479281 0.5809225957779516 0.6237294761532447 0.6518764659890539 0.6700547302580141 0.6829554339327599 0.6999609069585613 0.7152071931196247 0.7263487099296325 0.7374902267396403 0.7421813917122752 0.74687255668491 0.7544956997654417 0.7609460516028147 0.7644644253322908 0.7644644253322908 0.7644644253322908 0.7644644253322908 0.7597732603596559 0.7316262705238467 0.6583268178264269 0.6090695856137607 0.5240422204847537 0.462470680218921 0.406763096168882 0.3592650508209539 0.31059421422986705 0.269546520719312 0.2449179046129789 0.2290852228303362 0.217357310398749 0.209147771696638 0.20211102423768568 0.1956606724003128 0.1892103205629398 0.18393275996872555 0.17396403440187644 0.16458170445660672 0.15285379202501953 0.1464034401876466 0.14523064894448787,0.8248631743549648 0.8232994526974199 0.821735731039875 0.8201720093823299 0.8178264268960125 0.8170445660672401 0.8170445660672401 0.8170445660672401 0.8170445660672401 0.8170445660672401 0.8170445660672401 0.8170445660672401 0.8170445660672401 0.8170445660672401 0.8170445660672401 0.8170445660672401 0.8170445660672401 0.8170445660672401 0.8170445660672401 0.8170445660672401 0.8170445660672401 0.8170445660672401 0.8170445660672401 0.8170445660672401 0.8170445660672401 0.8146989835809226 0.8084440969507427 0.7959343236903831 0.7709147771696638 0.7138389366692729 0.6473807662236122 0.5746677091477717 0.4964816262705238 0.41985926505082094 0.3760750586395621 0.3479280688037529 0.3275996872556685 0.2978889757623143 0.27130570758405004 0.2517591868647381 0.23299452697419865 0.22361219702892887 0.2165754495699765 0.20484753713838927 0.19624706802189207 0.19311962470680225 0.19311962470680225 0.19311962470680225 0.19311962470680225 0.19311962470680225 0.19624706802189207 0.19311962470680225 0.18451915559030496 0.1641907740422205 0.15168100078186084 0.13995308835027365 0.13291634089132132 0.125879593432369 0.11806098514464425 0.11258795934323697 0.11024237685691952 0.10789679437060208 0.10789679437060208 0.10789679437060208 0.109460516028147 0.11180609851446444 0.11415168100078188 0.1211884284597342 0.1266614542611415 0.13291634089132132 0.13604378420641128 0.13682564503518369,206.7799999999989 226.7799999999989 246.7799999999989 266.7799999999989 286.7799999999989 306.7799999999989 326.7799999999989 346.77999999999884 366.77999999999884 386.77999999999884 406.77999999999884 426.77999999999884 446.77999999999884 466.77999999999884 486.77999999999884 506.77999999999884 526.7799999999988 546.7799999999988 566.7799999999988 586.7799999999988 606.7799999999988 626.7799999999988 646.7799999999988 666.7799999999988 686.7799999999988 706.7799999999988 726.7799999999988 746.7799999999988 766.7799999999988 786.7799999999988 806.7799999999988 826.7799999999988 846.7799999999988 866.7799999999988 886.7799999999988 906.7799999999988 926.7799999999988 946.7799999999988 966.7799999999988 986.7799999999988 1006.7799999999988 1026.7799999999988 1046.7799999999988 1066.7799999999988 1086.7799999999988 1106.7799999999988 1126.7799999999988 1146.7799999999988 1166.7799999999988 1186.7799999999988 1206.7799999999988 1226.7799999999988 1246.7799999999988 1266.7799999999988 1286.7799999999988 1306.7799999999988 1326.7799999999988 1346.7799999999988 1366.7799999999988 1386.7799999999988 1406.7799999999988 1426.7799999999988 1446.7799999999988 1466.7799999999988 1486.7799999999988 1506.7799999999988 1526.7799999999988 1546.7799999999988 1566.7799999999988 1586.7799999999988 1606.7799999999988 1626.7799999999988
cb_09,27.0,enc_trial,stim,response,Miami trip,1267.6600000000035,enc_trial,1.0,27.0,t_m_06_1,travel_Miami,fold-c,handheld fan,9.0,unique,far,paired,t_m_06_1.jpg,Miami,travel-b1,Iceland trip,Miami trip,sub-26,1.0,1.0,1.0,1.0,0.4736121970289289 0.4741985926505082 0.4741985926505082 0.4741985926505082 0.4741985926505082 0.4741985926505082 0.4741985926505082 0.4741985926505082 0.4741985926505082 0.4741985926505082 0.4741985926505082 0.4741985926505082 0.4741985926505082 0.4741985926505082 0.4741985926505082 0.4741985926505082 0.4741985926505082 0.4741985926505082 0.4741985926505082 0.4741985926505082 0.4741985926505082 0.4741985926505082 0.4741985926505082 0.4741985926505082 0.4741985926505082 0.4741985926505082 0.4741985926505082 0.4741985926505082 0.4741985926505082 0.4741985926505082 0.4741985926505082 0.4741985926505082 0.4741985926505082 0.4741985926505082 0.4741985926505082 0.4741985926505082 0.4741985926505082 0.4683346364347146 0.4190774042220485 0.4050039093041439 0.4073494917904613 0.4607114933541829 0.576817826426896 0.6618451915559029 0.7111024237685691 0.7550820953870211 0.7890930414386239 0.8078577013291633 0.8195856137607506 0.8260359655981235 0.8307271305707583 0.844800625488663 0.8612197028928851 0.8676700547302579 0.8700156372165754 0.8717748240813135 0.8747068021892103 0.8782251759186864 0.8782251759186864 0.8782251759186864,0.7951524628616107 0.7959343236903831 0.7959343236903831 0.7959343236903831 0.7959343236903831 0.7959343236903831 0.7959343236903831 0.7959343236903831 0.7959343236903831 0.7959343236903831 0.7959343236903831 0.7959343236903831 0.7959343236903831 0.7959343236903831 0.7959343236903831 0.7959343236903831 0.7959343236903831 0.7959343236903831 0.7959343236903831 0.7959343236903831 0.7959343236903831 0.7959343236903831 0.7959343236903831 0.7959343236903831 0.7959343236903831 0.7959343236903831 0.7959343236903831 0.7959343236903831 0.7959343236903831 0.7959343236903831 0.7959343236903831 0.7959343236903831 0.7959343236903831 0.7959343236903831 0.7959343236903831 0.7959343236903831 0.7959343236903831 0.7959343236903831 0.7646598905394839 0.727130570758405 0.616106333072713 0.4401876465989054 0.22361219702892887 0.11962470680218915 0.07818608287724782 0.05238467552775605 0.037529319781078985 0.029710711493354136 0.02267396403440192 0.01876465989053944 0.014855355746677068 0.008600469116497256 0.007818608287724738 0.01407349491790466 0.03049257232212665 0.05003909304143861 0.06880375293197816 0.08444096950742762 0.08991399530883504 0.09069585613760756,72.14000000001397 92.14000000001396 112.14000000001396 132.14000000001397 152.14000000001397 172.14000000001397 192.140000000014 212.140000000014 232.140000000014 252.140000000014 272.140000000014 292.140000000014 312.140000000014 332.140000000014 352.140000000014 372.140000000014 392.140000000014 412.140000000014 432.140000000014 452.140000000014 472.140000000014 492.140000000014 512.1400000000141 532.1400000000141 552.1400000000141 572.1400000000141 592.1400000000141 612.1400000000141 632.1400000000141 652.1400000000141 672.1400000000141 692.1400000000141 712.1400000000141 732.1400000000141 752.1400000000141 772.1400000000141 792.1400000000141 812.1400000000141 832.1400000000141 852.1400000000141 872.1400000000141 892.1400000000141 912.1400000000141 932.1400000000141 952.1400000000141 972.1400000000141 992.1400000000141 1012.1400000000141 1032.140000000014 1052.140000000014 1072.140000000014 1092.140000000014 1112.140000000014 1132.140000000014 1152.140000000014 1172.140000000014 1192.140000000014 1212.140000000014 1232.140000000014 1252.140000000014
cb_09,28.0,enc_trial,stim,response,Iceland trip,1090.359999999986,enc_trial,1.0,28.0,t_i_10_1,travel_Iceland,fold-b,trekking poles,9.0,unique,close,paired,t_i_10_1.jpg,Iceland,travel-b1,Iceland trip,Miami trip,sub-26,1.0,1.0,1.0,1.0,0.4988272087568413 0.4988272087568413 0.4988272087568413 0.4988272087568413 0.4988272087568413 0.4988272087568413 0.4988272087568413 0.4988272087568413 0.4988272087568413 0.4988272087568413 0.4982408131352619 0.4976544175136826 0.4970680218921032 0.4958952306489445 0.4941360437842064 0.4929632525410477 0.4923768569194683 0.4912040656763096 0.4912040656763096 0.4906176700547303 0.4900312744331509 0.4900312744331509 0.4894448788115716 0.4894448788115716 0.4888584831899922 0.4882720875684128 0.4876856919468335 0.4876856919468335 0.4882720875684128 0.4888584831899922 0.4912040656763096 0.4988272087568413 0.5152462861610634 0.5299061767005473 0.5334245504300235 0.5258014073494918 0.5029319781078968 0.4630570758405004 0.3985535574667709 0.3610242376856919 0.3158717748240813 0.27423768569194684 0.2326035965598124 0.21677091477716964 0.20504300234558248 0.19683346364347146 0.18979671618451915 0.18686473807662235 0.18627834245504304 0.18510555121188427 0.18334636434714616 0.1827599687255668,0.8264268960125097 0.8264268960125097 0.8256450351837373 0.8256450351837373 0.8256450351837373 0.8256450351837373 0.8256450351837373 0.8248631743549648 0.8232994526974199 0.8232994526974199 0.8209538702111024 0.8186082877247851 0.8139171227521501 0.8092259577795152 0.8045347928068803 0.7998436278342456 0.7951524628616107 0.7888975762314308 0.7865519937451133 0.7810789679437059 0.7763878029710711 0.7724784988272088 0.7701329163408913 0.766223612197029 0.7630961688819391 0.7591868647380766 0.7537138389366693 0.7451133698201721 0.7302580140734949 0.7208756841282251 0.6958561376075059 0.6598905394839718 0.5973416731821736 0.5340109460516028 0.4863174354964817 0.4354964816262705 0.3854573885848319 0.3307271305707584 0.2689601250977326 0.2423768569194683 0.2142298670836591 0.1923377638780297 0.17357310398749026 0.16731821735731045 0.16262705238467556 0.1594996090695856 0.15637216575449575 0.15480844409695071 0.1540265832681783 0.1532447224394058 0.15246286161063327 0.15168100078186084,80.59999999997672 100.59999999997672 120.59999999997672 140.59999999997672 160.59999999997672 180.59999999997672 200.59999999997672 220.59999999997672 240.59999999997672 260.5999999999767 280.5999999999767 300.5999999999767 320.5999999999767 340.5999999999767 360.59999999997666 380.59999999997666 400.59999999997666 420.59999999997666 440.59999999997666 460.59999999997666 480.59999999997666 500.59999999997666 520.5999999999766 540.5999999999766 560.5999999999766 580.5999999999767 600.5999999999767 620.5999999999767 640.5999999999767 660.5999999999767 680.5999999999767 700.5999999999768 720.5999999999768 740.5999999999768 760.5999999999768 780.5999999999768 800.5999999999768 820.5999999999768 840.5999999999768 860.5999999999768 880.5999999999768 900.5999999999768 920.5999999999768 940.5999999999768 960.5999999999768 980.5999999999768 1000.5999999999768 1020.5999999999768 1040.5999999999767 1060.5999999999767 1080.5999999999767 1100.5999999999767
cb_09,29.0,enc_trial,stim,response,Miami trip,834.3999999999942,enc_trial,1.0,29.0,t_s_21_1,travel_shared,fold-b,umbrella,9.0,competing,close,paired,t_s_21_1.jpg,,travel-b1,Iceland trip,Miami trip,sub-26,0.0,0.0,1.0,1.0,0.4988272087568413 0.4988272087568413 0.4982408131352619 0.4976544175136826 0.4964816262705238 0.4958952306489445 0.4953088350273651 0.4953088350273651 0.4953088350273651 0.4947224394057858 0.4947224394057858 0.4964816262705238 0.4994136043784206 0.5046911649726349 0.514659890539484 0.5252150117279124 0.54573885848319 0.5826817826426895 0.6419077404222048 0.7204847537138389 0.7767787333854573 0.8242767787333855 0.859460516028147 0.8823299452697421 0.8858483189992181 0.8876075058639562 0.8881939014855356 0.8881939014855356,0.8342455043002346 0.8334636434714621 0.8318999218139171 0.8295543393275997 0.8279906176700547 0.8264268960125097 0.8256450351837373 0.8256450351837373 0.8232994526974199 0.8225175918686474 0.8193901485535575 0.8100078186082877 0.7998436278342456 0.7826426896012509 0.7552775605942142 0.7302580140734949 0.6856919468334637 0.619233776387803 0.5269741985926505 0.4167318217357311 0.33776387802971075 0.27286942924159496 0.22283033620015635 0.1876465989053948 0.17904612978889756 0.17435496481626267 0.17122752150117282 0.1704456606724003,218.41999999998367 238.41999999998367 258.41999999998365 278.41999999998365 298.41999999998365 318.41999999998365 338.41999999998365 358.41999999998365 378.41999999998365 398.41999999998365 418.41999999998365 438.41999999998365 458.41999999998365 478.41999999998365 498.41999999998365 518.4199999999837 538.4199999999837 558.4199999999837 578.4199999999837 598.4199999999837 618.4199999999837 638.4199999999837 658.4199999999837 678.4199999999837 698.4199999999838 718.4199999999838 738.4199999999838 758.4199999999838
cb_09,30.0,enc_trial,stim,response,Miami trip,1200.2399999999907,enc_trial,1.0,30.0,t_s_05_1,travel_shared,fold-a-single,neck pillow,9.0,competing,,single,t_s_05_1.jpg,,travel-b1,Iceland trip,Miami trip,sub-26,1.0,,1.0,,0.4906176700547303 0.4900312744331509 0.4894448788115716 0.4888584831899922 0.4888584831899922 0.4882720875684128 0.4870992963252541 0.4865129007036748 0.485340109460516 0.483580922595778 0.4818217357310399 0.4777169663799843 0.4736121970289289 0.4695074276778734 0.4654026583268178 0.462470680218921 0.4589523064894449 0.4577795152462862 0.4577795152462862 0.4607114933541829 0.4665754495699765 0.4818217357310399 0.5093823299452698 0.5568803752931978 0.5944096950742768 0.6336982017200937 0.6682955433932759 0.7099296325254104 0.7322126661454259 0.7474589523064894 0.7586004691164973 0.7627052384675527 0.7673964034401876 0.7738467552775605 0.7820562939796716 0.7873338545738858 0.7949569976544174 0.8008209538702109 0.8072713057075842 0.8231039874902267 0.8406958561376074 0.8582877247849883 0.8664972634870992 0.8670836591086786,0.8201720093823299 0.8201720093823299 0.8193901485535575 0.8178264268960125 0.8162627052384676 0.8154808444096949 0.8146989835809226 0.8123534010946052 0.8100078186082877 0.8068803752931978 0.8014073494917905 0.7881157154026583 0.7756059421422987 0.7623143080531665 0.7498045347928068 0.7380766223612196 0.7216575449569976 0.7044566067240031 0.6864738076622361 0.6630179827990618 0.6419077404222049 0.5981235340109461 0.541047693510555 0.45426114151681 0.3870211102423768 0.32056293979671624 0.2650508209538702 0.2095387021110242 0.1868647380766224 0.17357310398749026 0.16888193901485538 0.16888193901485538 0.17122752150117282 0.17748240813135266 0.1853010164190773 0.1876465989053948 0.18999218139171226 0.18999218139171226 0.18999218139171226 0.1860828772478499 0.17904612978889756 0.17357310398749026 0.17122752150117282 0.17122752150117282,310.5199999999895 330.5199999999895 350.51999999998947 370.51999999998947 390.51999999998947 410.51999999998947 430.51999999998947 450.51999999998947 470.51999999998947 490.51999999998947 510.51999999998947 530.5199999999895 550.5199999999895 570.5199999999895 590.5199999999895 610.5199999999895 630.5199999999895 650.5199999999895 670.5199999999895 690.5199999999895 710.5199999999895 730.5199999999895 750.5199999999895 770.5199999999895 790.5199999999895 810.5199999999895 830.5199999999895 850.5199999999895 870.5199999999895 890.5199999999895 910.5199999999896 930.5199999999896 950.5199999999896 970.5199999999896 990.5199999999896 1010.5199999999896 1030.5199999999895 1050.5199999999895 1070.5199999999895 1090.5199999999895 1110.5199999999895 1130.5199999999895 1150.5199999999895 1170.5199999999895
cb_09,31.0,enc_trial,stim,response,Iceland trip,1508.7199999999716,enc_trial,1.0,31.0,t_s_23_2,travel_shared,fold-c,ball cap,9.0,competing,far,paired,t_s_23_2.jpg,,travel-b1,Iceland trip,Miami trip,sub-26,1.0,1.0,1.0,1.0,0.506450351837373 0.506450351837373 0.506450351837373 0.506450351837373 0.506450351837373 0.506450351837373 0.506450351837373 0.506450351837373 0.506450351837373 0.506450351837373 0.506450351837373 0.506450351837373 0.506450351837373 0.506450351837373 0.5058639562157936 0.5058639562157936 0.5041047693510555 0.4994136043784206 0.4876856919468335 0.4724394057857702 0.4583659108678656 0.4331508991399531 0.3991399530883503 0.35398749022673964 0.3176309616888194 0.28831118060985145 0.2595777951524629 0.23377638780297105 0.21383893666927287 0.19917904612978887 0.19390148553557465 0.1915559030492572 0.19096950742767785 0.19096950742767785 0.19096950742767785 0.19096950742767785 0.18979671618451915 0.1886239249413605 0.1845191555903049 0.17806880375293194 0.1733776387802971 0.17161845191555902 0.17103205629397966 0.1704456606724003 0.1704456606724003 0.1704456606724003 0.17220484753713838 0.1962470680218921 0.2413995308835027 0.3528146989835809 0.4976544175136826 0.6184519155590305 0.6811962470680218 0.7023064894448787 0.7017200938232994 0.6876465989053948 0.6483580922595777 0.5732994526974199 0.4618842845973417 0.36630179827990617 0.3129397967161845 0.254886630179828 0.21970289288506645 0.20445660672400312 0.1921422986708365 0.17513682564503516 0.1516810007818608 0.13232994526974198 0.12705238467552776 0.12646598905394835,0.8178264268960125 0.8170445660672401 0.8162627052384676 0.8154808444096949 0.8146989835809226 0.8139171227521501 0.8131352619233776 0.8115715402658327 0.8107896794370602 0.8092259577795152 0.8076622361219703 0.8060985144644253 0.8029710711493354 0.799061767005473 0.7935887412040656 0.7810789679437059 0.7615324472243941 0.7357310398749023 0.6935105551211884 0.635652853792025 0.5770132916340891 0.4972634870992964 0.4253322908522284 0.3479280688037529 0.2814698983580922 0.23846755277560594 0.20484753713838927 0.17748240813135266 0.15089913995308835 0.12822517591868646 0.1211884284597342 0.1157154026583268 0.11415168100078188 0.11415168100078188 0.11415168100078188 0.11415168100078188 0.11336982017200935 0.11258795934323697 0.11102423768569193 0.109460516028147 0.10789679437060208 0.10711493354182956 0.10711493354182956 0.10711493354182956 0.10711493354182956 0.10711493354182956 0.10789679437060208 0.11102423768569193 0.11493354182955427 0.1157154026583268 0.11806098514464425 0.12040656763096168 0.12197028928850664 0.12275215011727915 0.12275215011727915 0.125879593432369 0.12900703674745895 0.13369820172009386 0.13838936669272872 0.13995308835027365 0.14073494917904614 0.1430805316653636 0.14386239249413602 0.1430805316653636 0.14073494917904614 0.13682564503518369 0.13448006254886635 0.1313526192337764 0.13057075840500387 0.13057075840500387,122.17999999999302 142.17999999999304 162.17999999999304 182.17999999999302 202.17999999999302 222.17999999999302 242.17999999999302 262.17999999999296 282.17999999999296 302.17999999999296 322.17999999999296 342.17999999999296 362.17999999999296 382.17999999999296 402.17999999999296 422.17999999999296 442.17999999999296 462.17999999999296 482.17999999999296 502.17999999999296 522.179999999993 542.179999999993 562.179999999993 582.179999999993 602.179999999993 622.179999999993 642.179999999993 662.179999999993 682.179999999993 702.179999999993 722.179999999993 742.179999999993 762.179999999993 782.179999999993 802.179999999993 822.179999999993 842.179999999993 862.179999999993 882.179999999993 902.179999999993 922.179999999993 942.179999999993 962.179999999993 982.179999999993 1002.179999999993 1022.179999999993 1042.179999999993 1062.179999999993 1082.179999999993 1102.179999999993 1122.179999999993 1142.179999999993 1162.179999999993 1182.179999999993 1202.179999999993 1222.179999999993 1242.179999999993 1262.179999999993 1282.179999999993 1302.179999999993 1322.179999999993 1342.179999999993 1362.179999999993 1382.179999999993 1402.179999999993 1422.179999999993 1442.179999999993 1462.179999999993 1482.179999999993 1502.179999999993
cb_09,32.0,enc_trial,stim,response,Miami trip,1819.7799999999988,enc_trial,1.0,32.0,t_m_03_2,travel_Miami,fold-c,wetsuit,9.0,unique,far,paired,t_m_03_2.jpg,Miami,travel-b1,Iceland trip,Miami trip,sub-26,1.0,1.0,0.0,0.0,0.506450351837373 0.5058639562157936 0.5052775605942142 0.5035183737294762 0.5011727912431587 0.4964816262705238 0.491790461297889 0.4788897576231431 0.4495699765441751 0.4073494917904613 0.3557466770914777 0.3035574667709148 0.26016419077404224 0.21383893666927287 0.17572322126661452 0.14581704456606726 0.1376075058639562 0.12939796716184518 0.125879593432369 0.12529319781078965 0.12529319781078965 0.12529319781078965 0.1247068021892103 0.125879593432369 0.13115715402658326 0.15519937451133695 0.18510555121188427 0.2320172009382329 0.2959343236903831 0.3580922595777952 0.431391712275215 0.5111415168100079 0.5486708365910868 0.5697810789679437 0.6002736512900704 0.6319390148553556 0.6331118060985144 0.5908913213448006 0.5134870992963253 0.4102814698983581 0.2349491790461297 0.14933541829554334 0.05433932759968724 0.029710711493354164 0.02677873338545737 0.02677873338545737 0.02677873338545737 0.02677873338545737 0.02619233776387801 0.02501954652071929 0.02501954652071929 0.025605942142298648 0.0320562939796716 0.11415168100078185 0.26075058639562154 0.41379984362783423 0.5269741985926505 0.6008600469116496 0.6630179827990617 0.7069976544175136 0.7374902267396403 0.7498045347928068 0.7498045347928068 0.7539093041438624 0.7873338545738858 0.8236903831118061 0.831899921813917 0.8324863174354964,0.799061767005473 0.7982799061767005 0.7959343236903831 0.7904612978889758 0.7771696637998436 0.7380766223612196 0.691164972634871 0.6247068021892104 0.5426114151681001 0.4589523064894449 0.3580922595777951 0.26661454261141515 0.20172009382329947 0.14151681000781854 0.1039874902267396 0.08209538702111019 0.07818608287724782 0.07740422204847541 0.0766223612197029 0.07740422204847541 0.07818608287724782 0.07818608287724782 0.07974980453479286 0.08287724784988271 0.09225957779515248 0.11102423768569193 0.125879593432369 0.14386239249413602 0.15559030492572326 0.1594996090695856 0.16262705238467556 0.16810007818608286 0.1704456606724003 0.1704456606724003 0.16653635652853793 0.1641907740422205 0.164972634870993 0.17279124315871774 0.17826426896012515 0.17826426896012515 0.16653635652853793 0.15559030492572326 0.14151681000781854 0.13995308835027365 0.13995308835027365 0.13995308835027365 0.13995308835027365 0.13995308835027365 0.13838936669272872 0.13604378420641128 0.13526192337763876 0.13448006254886635 0.13448006254886635 0.1321344800625489 0.1321344800625489 0.14698983580922598 0.15871774824081308 0.1594996090695856 0.15793588741204068 0.15793588741204068 0.16184519155590305 0.164972634870993 0.1657544956997654 0.1657544956997654 0.16028146989835812 0.15715402658326816 0.15871774824081308 0.1594996090695856,468.1000000000058 488.1000000000058 508.1000000000058 528.1000000000058 548.1000000000058 568.1000000000057 588.1000000000057 608.1000000000057 628.1000000000057 648.1000000000057 668.1000000000057 688.1000000000058 708.1000000000058 728.1000000000058 748.1000000000058 768.1000000000058 788.1000000000058 808.1000000000058 828.1000000000058 848.1000000000058 868.1000000000058 888.1000000000058 908.1000000000058 928.1000000000058 948.1000000000058 968.1000000000058 988.1000000000058 1008.1000000000058 1028.1000000000058 1048.1000000000058 1068.1000000000058 1088.1000000000058 1108.1000000000058 1128.1000000000058 1148.1000000000058 1168.1000000000058 1188.1000000000058 1208.1000000000058 1228.1000000000058 1248.1000000000058 1268.1000000000058 1288.1000000000058 1308.1000000000058 1328.1000000000058 1348.1000000000058 1368.1000000000058 1388.1000000000058 1408.1000000000058 1428.1000000000058 1448.1000000000058 1468.1000000000058 1488.1000000000058 1508.1000000000058 1528.1000000000058 1548.1000000000058 1568.1000000000058 1588.1000000000058 1608.1000000000058 1628.1000000000058 1648.1000000000058 1668.1000000000058 1688.1000000000058 1708.1000000000058 1728.1000000000058 1748.1000000000058 1768.1000000000058 1788.1000000000058 1808.1000000000056
cb_09,33.0,enc_trial,stim,response,Miami trip,1143.8399999999965,enc_trial,1.0,33.0,t_s_21_2,travel_shared,fold-b,umbrella,9.0,competing,close,paired,t_s_21_2.jpg,,travel-b1,Iceland trip,Miami trip,sub-26,0.0,0.0,1.0,1.0,0.5293197810789679 0.5293197810789679 0.531078967943706 0.5322517591868647 0.5328381548084441 0.5340109460516028 0.5345973416731822 0.5363565285379203 0.5416340891321345 0.5428068803752932 0.5422204847537139 0.5422204847537139 0.5422204847537139 0.5422204847537139 0.5422204847537139 0.5422204847537139 0.5422204847537139 0.543979671618452 0.5615715402658327 0.5662627052384676 0.5627443315089914 0.562157935887412 0.5609851446442533 0.5527756059421423 0.5363565285379203 0.5175918686473807 0.5099687255668491 0.5070367474589523 0.5046911649726349 0.4964816262705238 0.4882720875684128 0.483580922595778 0.4824081313526192 0.483580922595778 0.4847537138389367 0.4912040656763096 0.522869429241595 0.5557075840500391 0.6043784206411258 0.6741594996090695 0.7275215011727912 0.7627052384675527 0.7885066458170445 0.8031665363565285 0.8172400312744331 0.8307271305707583 0.8418686473807662 0.8506645817044566 0.8588741204065676 0.8618060985144643 0.8623924941360437 0.8629788897576229,0.8178264268960125 0.8186082877247851 0.8232994526974199 0.8264268960125097 0.8287724784988272 0.8326817826426895 0.8373729476153244 0.8389366692728695 0.8397185301016419 0.8397185301016419 0.8405003909304144 0.8405003909304144 0.8405003909304144 0.8405003909304144 0.8405003909304144 0.8405003909304144 0.8405003909304144 0.8405003909304144 0.8264268960125097 0.8123534010946052 0.7912431587177482 0.7396403440187647 0.6786551993745114 0.6387802971071149 0.5981235340109461 0.5551211884284597 0.5340109460516028 0.5191555903049256 0.5113369820172009 0.4972634870992964 0.4816262705238468 0.4667709147771697 0.4558248631743549 0.4456606724003127 0.4354964816262705 0.4151681000781861 0.3792025019546521 0.3549648162627053 0.3322908522283033 0.3033620015637216 0.27756059421422985 0.25566849100860045 0.235340109460516 0.2165754495699765 0.19390148553557465 0.17357310398749026 0.15637216575449575 0.14542611415168105 0.13448006254886635 0.1313526192337764 0.1313526192337764 0.13057075840500387,112.54000000000816 132.54000000000818 152.54000000000818 172.54000000000812 192.5400000000081 212.5400000000081 232.5400000000081 252.54000000000804 272.54000000000804 292.54000000000804 312.54000000000804 332.54000000000804 352.54000000000804 372.54000000000804 392.54000000000786 412.54000000000786 432.54000000000786 452.54000000000786 472.54000000000786 492.5400000000079 512.5400000000078 532.5400000000078 552.5400000000078 572.5400000000078 592.5400000000078 612.5400000000078 632.5400000000078 652.5400000000078 672.5400000000078 692.5400000000078 712.5400000000078 732.5400000000078 752.5400000000078 772.5400000000078 792.5400000000078 812.5400000000078 832.5400000000078 852.5400000000076 872.5400000000076 892.5400000000076 912.5400000000076 932.5400000000076 952.5400000000076 972.5400000000076 992.5400000000076 1012.5400000000076 1032.5400000000077 1052.5400000000077 1072.5400000000077 1092.5400000000077 1112.5400000000077 1132.5400000000075
cb_09,34.0,enc_trial,stim,response,Miami trip,1218.9400000000023,enc_trial,1.0,34.0,t_s_04_2,travel_shared,fold-c,instant camera,9.0,competing,far,paired,t_s_04_2.jpg,,travel-b1,Iceland trip,Miami trip,sub-26,1.0,1.0,1.0,1.0,0.5070367474589523 0.5070367474589523 0.5052775605942142 0.5029319781078968 0.5011727912431587 0.5005863956215794 0.5005863956215794 0.5005863956215794 0.5005863956215794 0.5005863956215794 0.5005863956215794 0.5005863956215794 0.5005863956215794 0.5005863956215794 0.5005863956215794 0.5005863956215794 0.5005863956215794 0.5005863956215794 0.5005863956215794 0.5005863956215794 0.5005863956215794 0.5005863956215794 0.5005863956215794 0.5005863956215794 0.5023455824863174 0.5093823299452698 0.5041047693510555 0.4994136043784206 0.5170054730258014 0.5381157154026583 0.5480844409695075 0.5504300234558248 0.5510164190774042 0.5510164190774042 0.5539483971853011 0.5645035183737295 0.5756450351837373 0.5815089913995309 0.5844409695074276 0.6073103987490226 0.6325254104769351 0.6864738076622361 0.7322126661454259 0.8043393275996872 0.8530101641907741 0.890539483971853 0.9051993745113368 0.9063721657544956 0.9063721657544956 0.906958561376075 0.9075449569976544 0.9075449569976544 0.9081313526192336 0.9081313526192336 0.906958561376075 0.9040265832681782 0.9016810007818608 0.8981626270523846 0.8964034401876465 0.8952306489444878 0.8946442533229084,0.8412822517591869 0.8428459734167318 0.8405003909304144 0.8342455043002346 0.8240813135261924 0.8209538702111024 0.8209538702111024 0.8209538702111024 0.8209538702111024 0.8209538702111024 0.8209538702111024 0.8209538702111024 0.8209538702111024 0.8209538702111024 0.8209538702111024 0.8209538702111024 0.8209538702111024 0.8209538702111024 0.8209538702111024 0.8209538702111024 0.8209538702111024 0.8209538702111024 0.8209538702111024 0.8209538702111024 0.8045347928068803 0.7693510555121188 0.7107114933541829 0.6270523846755278 0.4870992963252541 0.4175136825645035 0.397185301016419 0.3901485535574668 0.3854573885848319 0.3784206411258796 0.3651290070367473 0.3362001563721657 0.3197810789679437 0.3135261923377639 0.30883502736512897 0.28225175918686474 0.2650508209538702 0.2423768569194683 0.2314308053166536 0.21735731039874906 0.2103205629397968 0.20484753713838927 0.20250195465207188 0.20093823299452696 0.20093823299452696 0.20093823299452696 0.20093823299452696 0.20015637216575446 0.20015637216575446 0.1985926505082095 0.19624706802189207 0.1923377638780297 0.1876465989053948 0.18139171227521506 0.17904612978889756 0.1759186864738077 0.17435496481626267,0.0 20.0 40.0 60.0 80.0 100.0 120.0 140.0 160.0 180.0 200.0 220.0 240.0 260.0 280.0 300.0 320.0 340.0 360.0 380.0 400.0 420.0 440.0 460.0 480.0 500.0 520.0 540.0 560.0 580.0 600.0 620.0 640.0 660.0 680.0 700.0 720.0 740.0 760.0 780.0 800.0 820.0 840.0 860.0 880.0 900.0 920.0 940.0 960.0 980.0 1000.0 1020.0 1040.0 1060.0 1080.0 1100.0 1120.0 1140.0 1160.0 1180.0 1200.0
