Current Spreadsheet,Trial Number,Display,Screen,Response Type,Response,Reaction Time,display,block,block_trial,stimulus_id,expected_goal,fold,stimulus_name,c_group,condition,within_block_dist,paired_status,stimulus_path,expected_location,block_split,respStim_1,respStim_2,sub_label,acc,both_enc_acc,assoc_stim1_acc,assoc_stim2_acc,x_pos,y_pos,time_trajectories
cb_04,1.0,enc_trial,stim,response,STEM students,1301.2000000238475,enc_trial,1.0,1.0,s_s_12_1,student_stem,fold-a,robotic arm,4.0,unique,close,paired,s_s_12_1.jpg,stem,student-b1,STEM students,Fine Arts students,sub-83,1.0,1.0,1.0,1.0,0.5164941785252264 0.5019404915912031 0.480595084087969 0.4388745148771022 0.3835705045278137 0.1992238033635188 0.1681759379042691 0.1681759379042691 0.1681759379042691 0.1681759379042691 0.1681759379042691 0.1681759379042691 0.1681759379042691 0.1681759379042691 0.1681759379042691 0.1681759379042691 0.1681759379042691 0.1681759379042691 0.05562742561448904 0.0624191461836999 0.06824062095730922 0.06824062095730922 0.06824062095730922 0.06824062095730922 0.06824062095730922 0.07018111254851232 0.07212160413971543 0.07406209573091853 0.07600258732212163 0.07891332470892629 0.08958602846054338 0.1031694695989651 0.11287192755498066 0.11481241914618373,0.7930142302716688 0.6571798188874515 0.5084087968952135 0.3635187580853816 0.2483829236739974 0.03751617076325997 0.012936610608020649 0.012936610608020649 0.012936610608020649 0.012936610608020649 0.012936610608020649 0.012936610608020649 0.012936610608020649 0.012936610608020649 0.012936610608020649 0.012936610608020649 0.012936610608020649 0.012936610608020649 0.002587322121604173 0.021992238033635148 0.058214747736093135 0.06468305304010348 0.06727037516170764 0.06856403622250973 0.07115135834411379 0.08150064683053038 0.08667529107373872 0.09314359637774904 0.09573091849935322 0.09961190168175936 0.11642949547218627 0.13454075032341528 0.14489003880983187 0.14747736093143593,600.0 620.0 640.0 660.0 680.0 700.0 720.0 740.0 760.0 780.0 800.0 820.0 840.0 860.0 880.0 900.0 920.0 940.0 960.0 980.0 1000.0 1020.0 1040.0 1060.0 1080.0 1100.0 1120.0 1140.0 1160.0 1180.0 1200.0 1220.0 1240.0 1260.0
cb_04,2.0,enc_trial,stim,response,STEM students,1309.800000011921,enc_trial,1.0,2.0,s_s_07_1,student_stem,fold-b-single,periodic table,4.0,unique,,single,s_s_07_1.jpg,stem,student-b1,STEM students,Fine Arts students,sub-83,1.0,,1.0,,0.517464424320828 0.5213454075032341 0.5164941785252264 0.4815653298835705 0.4369340232858991 0.3913324708926261 0.3108020698576973 0.2865459249676585 0.2661707632600259 0.25064683053040104 0.2438551099611902 0.23900388098318245 0.23609314359637776 0.23512289780077625 0.23512289780077625 0.23512289780077625 0.2331824062095731 0.23124191461837 0.2254204398447607 0.21862871927554986 0.20310478654592493 0.1895213454075033 0.1681759379042691 0.15362225097024582 0.1419793014230272 0.12257438551099616 0.12063389391979305 0.12063389391979305 0.12063389391979305 0.12063389391979305 0.12063389391979305 0.12063389391979305,0.8227684346701164 0.7632600258732212 0.6170763260025873 0.5252263906856404 0.4372574385510997 0.3673997412677879 0.2871927554980596 0.26908150064683056 0.2535575679172057 0.2380336351875808 0.23415265200517466 0.2315653298835705 0.2315653298835705 0.2315653298835705 0.2315653298835705 0.2315653298835705 0.2302716688227684 0.2302716688227684 0.2289780077619664 0.2276843467011644 0.21862871927554986 0.2121604139715395 0.1953428201811126 0.18111254851228967 0.1681759379042691 0.1500646830530401 0.14877102199223802 0.14877102199223802 0.14877102199223802 0.14877102199223802 0.14877102199223802 0.14747736093143593,666.6000000000057 686.6000000000057 706.6000000000058 726.6000000000058 746.6000000000058 766.6000000000058 786.6000000000058 806.6000000000058 826.6000000000058 846.6000000000058 866.6000000000058 886.6000000000058 906.6000000000056 926.6000000000056 946.6000000000056 966.6000000000056 986.6000000000056 1006.6000000000056 1026.6000000000058 1046.6000000000058 1066.6000000000058 1086.6000000000058 1106.6000000000058 1126.6000000000058 1146.6000000000058 1166.6000000000058 1186.6000000000058 1206.6000000000058 1226.6000000000058 1246.6000000000058 1266.6000000000058 1286.6000000000058
cb_04,3.0,enc_trial,stim,response,STEM students,2498.500000011933,enc_trial,1.0,3.0,s_sh_23_1,student_shared,fold-a,ballpoint pen,4.0,competing,far,paired,s_sh_23_1.jpg,,student-b1,STEM students,Fine Arts students,sub-83,1.0,1.0,1.0,0.0,0.5106727037516171 0.5358990944372575 0.5950840879689522 0.6154592496765847 0.6251617076326003 0.6290426908150064 0.6406856403622251 0.6484476067270375 0.6523285899094438 0.6503880983182406 0.6173997412677878 0.6115782664941786 0.61254851228978 0.6173997412677878 0.6222509702457956 0.6241914618369987 0.6241914618369987 0.6251617076326003 0.6212807244501939 0.6154592496765847 0.6144890038809832 0.6144890038809832 0.6154592496765847 0.6164294954721863 0.6280724450194051 0.6746442432082794 0.6969598965071151 0.7124838292367399 0.7260672703751617 0.7406209573091851 0.7609961190168176 0.7629366106080206 0.7648771021992238 0.7706985769728331 0.7804010349288486 0.7881630012936609 0.7910737386804657 0.7998059508408797 0.8182406209573092 0.8366752910737386 0.8589909443725744 0.8609314359637774 0.8609314359637774 0.8609314359637774 0.8599611901681758 0.8570504527813713 0.8512289780077621 0.842496765847348 0.8318240620957309 0.8240620957309185 0.7881630012936609 0.731888745148771 0.6368046571798188 0.6018758085381629 0.5785899094437258 0.5446313065976714 0.5194049159120311 0.4961190168175938 0.4757438551099612 0.4611901681759379 0.4340232858990945 0.4184993531694696 0.3952134540750323 0.3806597671410091 0.36610608020698576 0.3292367399741268 0.3030401034928849 0.2758732212160414 0.2535575679172057 0.23221216041397155 0.18175937904269085 0.1759379042690815 0.1759379042690815 0.1759379042690815 0.1759379042690815 0.1759379042690815 0.1759379042690815 0.1759379042690815 0.1759379042690815 0.1759379042690815 0.1759379042690815 0.17108667529107374 0.15071151358344118 0.1419793014230272 0.13906856403622253,0.8214747736093144 0.7632600258732212 0.6532988357050453 0.6002587322121604 0.5614489003880982 0.461836998706339 0.3842173350582148 0.34152652005174644 0.32470892626131953 0.3195342820181113 0.3040103492884865 0.2936610608020699 0.2820181112548512 0.27813712807244506 0.27684346701164303 0.2742561448900388 0.2742561448900388 0.2716688227684346 0.25226390685640365 0.2289780077619664 0.1940491591203105 0.19016817593790425 0.18887451487710216 0.18758085381630007 0.18758085381630007 0.18758085381630007 0.18758085381630007 0.18240620957309184 0.1759379042690815 0.166882276843467 0.14747736093143593 0.14489003880983187 0.13971539456662352 0.13454075032341528 0.12677878395860287 0.1228978007761966 0.1228978007761966 0.12031047865459255 0.11772315653298834 0.11384217335058212 0.11254851228978002 0.11254851228978002 0.11254851228978002 0.11254851228978002 0.11254851228978002 0.12160413971539452 0.1319534282018111 0.14489003880983187 0.15265200517464428 0.15653298835705046 0.15653298835705046 0.15523932729624834 0.12031047865459255 0.10219922380336356 0.09314359637774904 0.0879689521345407 0.0879689521345407 0.0879689521345407 0.0879689521345407 0.0879689521345407 0.0879689521345407 0.0879689521345407 0.0879689521345407 0.0879689521345407 0.0879689521345407 0.0879689521345407 0.09184993531694696 0.10090556274256146 0.11125485122897803 0.12031047865459255 0.13842173350582146 0.1410090556274256 0.1410090556274256 0.1410090556274256 0.1410090556274256 0.1410090556274256 0.1410090556274256 0.1410090556274256 0.1410090556274256 0.1410090556274256 0.1410090556274256 0.1410090556274256 0.14877102199223802 0.1500646830530401 0.1500646830530401,783.3000000000177 803.3000000000177 823.3000000000177 843.3000000000177 863.3000000000177 883.3000000000177 903.3000000000177 923.3000000000177 943.3000000000177 963.3000000000177 983.3000000000177 1003.3000000000177 1023.3000000000177 1043.3000000000177 1063.3000000000177 1083.3000000000177 1103.3000000000177 1123.3000000000177 1143.3000000000175 1163.3000000000175 1183.3000000000175 1203.3000000000175 1223.3000000000175 1243.3000000000175 1263.3000000000175 1283.3000000000175 1303.3000000000175 1323.3000000000175 1343.3000000000175 1363.3000000000175 1383.3000000000175 1403.3000000000175 1423.3000000000175 1443.3000000000175 1463.3000000000175 1483.3000000000175 1503.3000000000175 1523.3000000000175 1543.3000000000175 1563.3000000000175 1583.3000000000175 1603.3000000000175 1623.3000000000175 1643.3000000000175 1663.3000000000175 1683.3000000000175 1703.3000000000175 1723.3000000000175 1743.3000000000175 1763.3000000000175 1783.3000000000175 1803.3000000000175 1823.3000000000175 1843.3000000000175 1863.3000000000175 1883.3000000000175 1903.3000000000175 1923.3000000000175 1943.3000000000175 1963.3000000000175 1983.3000000000175 2003.3000000000175 2023.3000000000175 2043.3000000000175 2063.3000000000175 2083.3000000000175 2103.3000000000175 2123.3000000000175 2143.3000000000175 2163.3000000000175 2183.3000000000175 2203.3000000000175 2223.3000000000175 2243.3000000000175 2263.300000000017 2283.300000000017 2303.300000000017 2323.300000000017 2343.300000000017 2363.300000000017 2383.300000000017 2403.300000000017 2423.300000000017 2443.300000000017 2463.300000000017
cb_04,4.0,enc_trial,stim,response,STEM students,1315.800000011921,enc_trial,1.0,4.0,s_s_12_2,student_stem,fold-a,robotic arm,4.0,unique,close,paired,s_s_12_2.jpg,stem,student-b1,STEM students,Fine Arts students,sub-83,1.0,1.0,1.0,1.0,0.5038809831824063 0.5038809831824063 0.489327296248383 0.4514877102199224 0.3981241914618371 0.2884864165588616 0.22445019404915914 0.20407503234152646 0.18369987063389395 0.16720569210866754 0.14489003880983184 0.1439197930142303 0.1439197930142303 0.1439197930142303 0.1439197930142303 0.14100905562742566 0.13712807244501946 0.1342173350582148 0.13227684346701166 0.13130659767141012 0.13033635187580855 0.13033635187580855 0.1274256144890039 0.12451487710219925 0.1235446313065977 0.12257438551099616 0.12257438551099616 0.1254851228978008 0.12645536869340235 0.12839586028460545,0.7542043984476068 0.6455368693402328 0.5304010349288486 0.4178525226390686 0.32212160413971536 0.1772315653298836 0.11901681759379044 0.1060802069857697 0.09573091849935322 0.08926261319534279 0.07891332470892631 0.07761966364812423 0.07761966364812423 0.07761966364812423 0.07761966364812423 0.07761966364812423 0.07503234152652005 0.07373868046571798 0.07244501940491588 0.07244501940491588 0.07244501940491588 0.07244501940491588 0.07244501940491588 0.08150064683053038 0.09055627425614488 0.10866752910737387 0.1228978007761966 0.13065976714100902 0.13583441138421734 0.13971539456662352,533.2999999999884 553.2999999999884 573.2999999999884 593.2999999999884 613.2999999999884 633.2999999999884 653.2999999999884 673.2999999999884 693.2999999999884 713.2999999999884 733.2999999999884 753.2999999999884 773.2999999999884 793.2999999999884 813.2999999999884 833.2999999999884 853.2999999999884 873.2999999999884 893.2999999999884 913.2999999999884 933.2999999999884 953.2999999999884 973.2999999999884 993.2999999999884 1013.2999999999884 1033.2999999999884 1053.2999999999884 1073.2999999999884 1093.2999999999884 1113.2999999999884
cb_04,5.0,enc_trial,stim,response,STEM students,1856.5000000119326,enc_trial,1.0,5.0,s_sh_16_1,student_shared,fold-a,stapler,4.0,competing,far,paired,s_sh_16_1.jpg,,student-b1,STEM students,Fine Arts students,sub-83,1.0,1.0,1.0,1.0,0.4970892626131954 0.5048512289780077 0.5058214747736093 0.508732212160414 0.5106727037516171 0.5184346701164295 0.5184346701164295 0.5194049159120311 0.5194049159120311 0.5194049159120311 0.5194049159120311 0.5194049159120311 0.5194049159120311 0.5194049159120311 0.5358990944372575 0.573738680465718 0.5960543337645536 0.619340232858991 0.6542690815006468 0.6717335058214747 0.6785252263906856 0.6697930142302717 0.6377749029754204 0.603816300129366 0.5766494178525227 0.5126131953428201 0.4825355756791721 0.454398447606727 0.4233505821474773 0.3534928848641656 0.3088615782664942 0.2923673997412678 0.28266494178525226 0.27878395860284605 0.27393272962483833 0.25064683053040104 0.2438551099611902 0.2293014230271669 0.21280724450194047 0.1914618369987064 0.18564036222509706 0.18369987063389395 0.17981888745148775 0.1759379042690815 0.1701164294954722 0.15653298835705048 0.15265200517464428 0.1516817593790427,0.8175937904269082 0.8007761966364813 0.7981888745148771 0.7891332470892626 0.7774902975420441 0.7554980595084088 0.7490297542043984 0.741267787839586 0.7373868046571799 0.7296248382923674 0.6843467011642951 0.59379042690815 0.4540750323415266 0.3065976714100905 0.1862871927554981 0.09573091849935322 0.08279430789133246 0.08020698576972829 0.08279430789133246 0.08926261319534279 0.09314359637774904 0.09831824062095727 0.10090556274256146 0.10090556274256146 0.10090556274256146 0.0970245795601552 0.0970245795601552 0.0970245795601552 0.10090556274256146 0.11384217335058212 0.12807244501940496 0.13712807244501946 0.1423027166882277 0.14489003880983187 0.14747736093143593 0.15394566623544634 0.15523932729624834 0.15523932729624834 0.15523932729624834 0.1513583441138422 0.14877102199223802 0.14747736093143593 0.14359637774902978 0.13971539456662352 0.1332470892626132 0.1151358344113842 0.11125485122897803 0.10996119016817596,799.9000000000232 819.9000000000232 839.9000000000232 859.9000000000232 879.9000000000232 899.9000000000232 919.9000000000232 939.9000000000232 959.9000000000232 979.9000000000232 999.9000000000232 1019.9000000000232 1039.9000000000233 1059.9000000000233 1079.9000000000233 1099.9000000000233 1119.9000000000233 1139.9000000000233 1159.9000000000233 1179.9000000000233 1199.9000000000233 1219.9000000000233 1239.9000000000233 1259.9000000000233 1279.9000000000233 1299.9000000000233 1319.9000000000233 1339.9000000000233 1359.9000000000233 1379.9000000000233 1399.9000000000233 1419.9000000000233 1439.9000000000233 1459.9000000000233 1479.9000000000233 1499.9000000000233 1519.9000000000233 1539.9000000000233 1559.9000000000233 1579.9000000000233 1599.9000000000233 1619.9000000000233 1639.9000000000233 1659.9000000000233 1679.9000000000233 1699.9000000000233 1719.9000000000233 1739.9000000000233
cb_04,6.0,enc_trial,stim,response,STEM students,2834.700000000012,enc_trial,1.0,6.0,s_sh_18_1,student_shared,fold-c-single,wall calendar,4.0,competing,,single,s_sh_18_1.jpg,,student-b1,STEM students,Fine Arts students,sub-83,1.0,,1.0,,0.5048512289780077 0.5067917205692108 0.5106727037516171 0.5097024579560155 0.4941785252263906 0.4621604139715394 0.39036222509702456 0.36610608020698576 0.3515523932729625 0.34184993531694696 0.3399094437257439 0.3399094437257439 0.3399094437257439 0.3399094437257439 0.3408796895213454 0.3408796895213454 0.3408796895213454 0.3408796895213454 0.3408796895213454 0.3408796895213454 0.3408796895213454 0.3408796895213454 0.3408796895213454 0.3408796895213454 0.3408796895213454 0.3408796895213454 0.3408796895213454 0.3408796895213454 0.3408796895213454 0.3437904269081501 0.4078266494178525 0.4417852522639069 0.4602199223803364 0.4641009055627426 0.4641009055627426 0.4641009055627426 0.4641009055627426 0.4641009055627426 0.4641009055627426 0.4641009055627426 0.4641009055627426 0.4641009055627426 0.4641009055627426 0.4670116429495472 0.471862871927555 0.49126778783958597 0.5077619663648124 0.5203751617076326 0.5339586028460543 0.5504527813712807 0.573738680465718 0.5844113842173351 0.5979948253557568 0.6280724450194051 0.6494178525226391 0.6746442432082794 0.6785252263906856 0.6785252263906856 0.6794954721862871 0.6814359637774903 0.6901681759379042 0.6940491591203105 0.6959896507115135 0.6959896507115135 0.6969598965071151 0.6959896507115135 0.6959896507115135 0.6959896507115135 0.6940491591203105 0.693078913324709 0.6979301423027167 0.7076326002587322 0.7231565329883571 0.7425614489003881 0.7609961190168176 0.7532341526520051 0.7328589909443726 0.7095730918499353 0.6853169469598965 0.6465071151358344 0.5698576972833118 0.5523932729624839 0.5426908150064683 0.5155239327296248 0.4786545924967658 0.3738680465717982 0.30595084087968955 0.2448253557567917 0.19437257438551106 0.16720569210866754 0.14683053040103494 0.14100905562742566 0.138098318240621 0.1342173350582148 0.13033635187580855 0.12936610608020702 0.12936610608020702 0.12936610608020702 0.12936610608020702 0.12936610608020702 0.12936610608020702 0.12936610608020702 0.12936610608020702 0.12936610608020702 0.12936610608020702 0.13130659767141012 0.14294954721862874 0.14683053040103494 0.14683053040103494 0.14683053040103494 0.14683053040103494 0.14683053040103494 0.14683053040103494,0.8512289780077621 0.8382923673997413 0.8137128072445019 0.7671410090556274 0.7192755498059509 0.6183699870633894 0.3855109961190169 0.2871927554980596 0.2328589909443725 0.20051746442432086 0.1681759379042691 0.1241914618369987 0.11772315653298834 0.1151358344113842 0.11384217335058212 0.11384217335058212 0.11384217335058212 0.11384217335058212 0.11384217335058212 0.11384217335058212 0.11384217335058212 0.11384217335058212 0.11384217335058212 0.11384217335058212 0.11384217335058212 0.11384217335058212 0.11384217335058212 0.11384217335058212 0.11384217335058212 0.11384217335058212 0.11384217335058212 0.11384217335058212 0.11384217335058212 0.11384217335058212 0.11384217335058212 0.11384217335058212 0.11254851228978002 0.10219922380336356 0.09184993531694696 0.08279430789133246 0.07244501940491588 0.06985769728331181 0.06468305304010348 0.058214747736093135 0.05562742561448897 0.045278137128072486 0.04269081500646832 0.04269081500646832 0.04269081500646832 0.04269081500646832 0.04269081500646832 0.04269081500646832 0.043984476067270406 0.05045278137128073 0.05433376455368688 0.06468305304010348 0.06597671410090555 0.06597671410090555 0.06597671410090555 0.06597671410090555 0.06985769728331181 0.06985769728331181 0.07115135834411379 0.07115135834411379 0.07244501940491588 0.07503234152652005 0.07503234152652005 0.07632600258732214 0.08020698576972829 0.08408796895213455 0.10996119016817596 0.1241914618369987 0.13065976714100902 0.13712807244501946 0.13712807244501946 0.13712807244501946 0.13712807244501946 0.13712807244501946 0.13712807244501946 0.13712807244501946 0.13583441138421734 0.12807244501940496 0.1228978007761966 0.11901681759379044 0.11384217335058212 0.09961190168175936 0.08926261319534279 0.07761966364812423 0.06856403622250973 0.06080206985769732 0.05562742561448897 0.05433376455368688 0.05174644243208282 0.05045278137128073 0.05045278137128073 0.05045278137128073 0.05045278137128073 0.05045278137128073 0.05045278137128073 0.05045278137128073 0.05045278137128073 0.05045278137128073 0.05045278137128073 0.05045278137128073 0.05045278137128073 0.05562742561448897 0.07891332470892631 0.09961190168175936 0.11642949547218627 0.12936610608020693 0.13971539456662352 0.1410090556274256 0.1423027166882277,566.5 586.5 606.5 626.5 646.5 666.5 686.5 706.5 726.5 746.5 766.5 786.5 806.5 826.5 846.5 866.5 886.5 906.5 926.5 946.5 966.5 986.5 1006.5 1026.5 1046.5 1066.5 1086.5 1106.5 1126.5 1146.5 1166.5 1186.5 1206.5 1226.5 1246.5 1266.5 1286.5 1306.5 1326.5 1346.5 1366.5 1386.5 1406.5 1426.5 1446.5 1466.5 1486.5 1506.5 1526.5 1546.5 1566.5 1586.5 1606.5 1626.5 1646.5 1666.5 1686.5 1706.5 1726.5 1746.5 1766.5 1786.5 1806.5 1826.5 1846.5 1866.5 1886.5 1906.5 1926.5 1946.5 1966.5 1986.5 2006.5 2026.5 2046.5 2066.5 2086.5 2106.5 2126.5 2146.5 2166.5 2186.5 2206.5 2226.5 2246.5 2266.5 2286.5 2306.5 2326.5 2346.5 2366.5 2386.5 2406.5 2426.5 2446.5 2466.5 2486.5 2506.5 2526.5 2546.5 2566.5 2586.5 2606.5 2626.5 2646.5 2666.5 2686.5 2706.5 2726.5 2746.5 2766.5 2786.5 2806.5
cb_04,7.0,enc_trial,stim,response,STEM students,2038.6000000000056,enc_trial,1.0,7.0,s_sh_04_1,student_shared,fold-c-single,laptop stand,4.0,competing,,single,s_sh_04_1.jpg,,student-b1,STEM students,Fine Arts students,sub-83,1.0,,1.0,,0.5019404915912031 0.5048512289780077 0.4980595084087969 0.4961190168175938 0.480595084087969 0.369987063389392 0.3205045278137128 0.2846054333764554 0.2496765847347995 0.20310478654592493 0.1439197930142303 0.13324708926261322 0.1254851228978008 0.11675291073738685 0.11093143596377752 0.10219922380336356 0.10219922380336356 0.10122897800776197 0.10122897800776197 0.1070504527813713 0.11190168175937908 0.11190168175937908 0.11190168175937908 0.11190168175937908 0.11190168175937908 0.11966364812419147 0.12257438551099616 0.1235446313065977,0.7943078913324709 0.7386804657179821 0.6714100905562743 0.6649417852522639 0.6326002587322122 0.4928848641655886 0.4333764553686934 0.3855109961190169 0.3505821474773609 0.3169469598965071 0.2820181112548512 0.27684346701164303 0.2677878395860285 0.25226390685640365 0.2367399741267789 0.2212160413971539 0.2212160413971539 0.21992238033635192 0.20827943078913325 0.19016817593790425 0.1694695989650712 0.1681759379042691 0.1681759379042691 0.1681759379042691 0.1681759379042691 0.1591203104786546 0.15523932729624834 0.15394566623544634,1416.6000000000058 1436.6000000000058 1456.6000000000058 1476.6000000000058 1496.6000000000058 1516.6000000000058 1536.6000000000058 1556.6000000000058 1576.6000000000058 1596.6000000000058 1616.6000000000058 1636.6000000000058 1656.6000000000058 1676.6000000000058 1696.6000000000058 1716.6000000000058 1736.6000000000058 1756.6000000000058 1776.6000000000058 1796.6000000000058 1816.6000000000056 1836.6000000000056 1856.6000000000056 1876.6000000000056 1896.6000000000056 1916.6000000000056 1936.6000000000056 1956.6000000000056
cb_04,8.0,enc_trial,stim,response,Fine Arts students,2705.300000035757,enc_trial,1.0,8.0,s_a_17_1,student_art,fold-b-single,microphone,4.0,unique,,single,s_a_17_1.jpg,art,student-b1,STEM students,Fine Arts students,sub-83,1.0,,0.0,,0.5164941785252264 0.5164941785252264 0.508732212160414 0.4902975420439845 0.4388745148771022 0.3670763260025873 0.3292367399741268 0.2855756791720569 0.2496765847347995 0.21183699870633896 0.16332470892626133 0.1478007761966365 0.13518758085381632 0.12063389391979305 0.09831824062095734 0.0624191461836999 0.058538163001293685 0.058538163001293685 0.058538163001293685 0.058538163001293685 0.059508408796895236 0.06921086675291077 0.08570504527813716 0.1031694695989651 0.11190168175937908 0.11869340232858995 0.12063389391979305 0.1235446313065977 0.12645536869340235 0.13033635187580855 0.1342173350582148 0.13518758085381632 0.13712807244501946 0.138098318240621 0.138098318240621 0.138098318240621 0.138098318240621 0.138098318240621 0.138098318240621 0.138098318240621 0.138098318240621 0.138098318240621 0.138098318240621 0.138098318240621 0.138098318240621 0.138098318240621 0.138098318240621 0.138098318240621 0.138098318240621 0.138098318240621 0.138098318240621 0.138098318240621 0.1478007761966365 0.17690815006468308 0.21183699870633896 0.3214747736093144 0.3428201811125485 0.35446313065976714 0.3670763260025873 0.3884217335058215 0.4446959896507115 0.4873868046571798 0.536869340232859 0.5989650711513583 0.6649417852522639 0.7493531694695992 0.7551746442432082 0.7551746442432082 0.7551746442432082 0.7551746442432082 0.7551746442432082 0.7551746442432082 0.7551746442432082 0.7551746442432082 0.7561448900388098 0.7706985769728331 0.7706985769728331 0.7706985769728331 0.7706985769728331 0.7706985769728331 0.7706985769728331 0.7706985769728331 0.7716688227684346 0.7726390685640362 0.7736093143596378 0.8172703751617076 0.8366752910737386 0.8454075032341526 0.8473479948253557 0.8483182406209573 0.8638421733505821 0.8832470892626132 0.9026520051746442 0.911384217335058 0.9123544631306596,0.796895213454075 0.7852522639068564 0.7050452781371281 0.6106080206985769 0.4553686934023286 0.2923673997412678 0.2393272962483829 0.19663648124191446 0.1681759379042691 0.1500646830530401 0.12807244501940496 0.1228978007761966 0.11642949547218627 0.10349288486416564 0.07632600258732214 0.007761966364812411 0.002587322121604173 0.002587322121604173 0.002587322121604173 0.002587322121604173 0.002587322121604173 0.021992238033635148 0.04657179818887447 0.06985769728331181 0.08538163001293664 0.1047865459249676 0.11254851228978002 0.11901681759379044 0.12548512289780078 0.13065976714100902 0.13712807244501946 0.13971539456662352 0.1410090556274256 0.1423027166882277 0.14359637774902978 0.14359637774902978 0.14359637774902978 0.14359637774902978 0.14359637774902978 0.14359637774902978 0.14359637774902978 0.14359637774902978 0.14359637774902978 0.14359637774902978 0.14359637774902978 0.14359637774902978 0.14359637774902978 0.14359637774902978 0.14359637774902978 0.14359637774902978 0.14359637774902978 0.14359637774902978 0.14359637774902978 0.14359637774902978 0.14359637774902978 0.1073738680465718 0.10349288486416564 0.10219922380336356 0.09961190168175936 0.09573091849935322 0.09573091849935322 0.10349288486416564 0.11125485122897803 0.12548512289780078 0.1410090556274256 0.1694695989650712 0.17335058214747734 0.17335058214747734 0.17335058214747734 0.17335058214747734 0.17335058214747734 0.17335058214747734 0.17335058214747734 0.17335058214747734 0.17335058214747734 0.17205692108667525 0.17205692108667525 0.17205692108667525 0.17205692108667525 0.17205692108667525 0.17205692108667525 0.17205692108667525 0.17205692108667525 0.17205692108667525 0.17205692108667525 0.14359637774902978 0.1319534282018111 0.12807244501940496 0.12677878395860287 0.12548512289780078 0.1073738680465718 0.09443725743855114 0.08538163001293664 0.08408796895213455 0.08408796895213455,716.6999999999823 736.6999999999823 756.6999999999823 776.6999999999823 796.6999999999823 816.6999999999823 836.6999999999823 856.6999999999823 876.6999999999823 896.6999999999823 916.6999999999823 936.6999999999823 956.6999999999823 976.6999999999823 996.6999999999823 1016.6999999999823 1036.6999999999823 1056.6999999999823 1076.6999999999823 1096.6999999999823 1116.6999999999823 1136.6999999999825 1156.6999999999825 1176.6999999999825 1196.6999999999825 1216.6999999999825 1236.6999999999825 1256.6999999999825 1276.6999999999825 1296.6999999999825 1316.6999999999825 1336.6999999999825 1356.6999999999825 1376.6999999999825 1396.6999999999825 1416.6999999999825 1436.6999999999825 1456.6999999999825 1476.6999999999825 1496.6999999999825 1516.6999999999825 1536.6999999999825 1556.6999999999825 1576.6999999999825 1596.6999999999825 1616.6999999999825 1636.6999999999825 1656.6999999999825 1676.6999999999825 1696.6999999999825 1716.6999999999825 1736.6999999999825 1756.6999999999825 1776.6999999999825 1796.6999999999825 1816.6999999999825 1836.6999999999825 1856.6999999999825 1876.6999999999825 1896.6999999999825 1916.6999999999825 1936.6999999999825 1956.6999999999825 1976.6999999999825 1996.6999999999825 2016.6999999999825 2036.6999999999825 2056.6999999999825 2076.6999999999825 2096.6999999999825 2116.6999999999825 2136.6999999999825 2156.6999999999825 2176.6999999999825 2196.6999999999825 2216.6999999999825 2236.6999999999825 2256.6999999999825 2276.6999999999825 2296.6999999999825 2316.6999999999825 2336.6999999999825 2356.6999999999825 2376.6999999999825 2396.6999999999825 2416.6999999999825 2436.6999999999825 2456.6999999999825 2476.6999999999825 2496.6999999999825 2516.6999999999825 2536.6999999999825 2556.6999999999825 2576.6999999999825 2596.6999999999825
cb_04,9.0,enc_trial,stim,response,STEM students,1642.1000000238419,enc_trial,1.0,9.0,s_sh_07_1,student_shared,fold-a,ruler,4.0,competing,far,paired,s_sh_07_1.jpg,,student-b1,STEM students,Fine Arts students,sub-83,1.0,1.0,0.0,0.0,0.4961190168175938 0.4961190168175938 0.4961190168175938 0.4961190168175938 0.4961190168175938 0.4961190168175938 0.4961190168175938 0.4961190168175938 0.4961190168175938 0.4961190168175938 0.4961190168175938 0.4961190168175938 0.4961190168175938 0.4961190168175938 0.4961190168175938 0.4961190168175938 0.4961190168175938 0.4961190168175938 0.5 0.5106727037516171 0.5184346701164295 0.5184346701164295 0.5184346701164295 0.5184346701164295 0.5184346701164295 0.5184346701164295 0.5184346701164295 0.5184346701164295 0.5184346701164295 0.5184346701164295 0.5184346701164295 0.5184346701164295 0.5184346701164295 0.5194049159120311 0.5194049159120311 0.5213454075032341 0.5223156532988357 0.5252263906856404 0.5291073738680465 0.5310478654592496 0.5320181112548512 0.5281371280724451 0.5135834411384217 0.4592496765847348 0.39909443725743854 0.3166235446313066 0.26908150064683056 0.20407503234152646 0.17981888745148775 0.1720569210866753 0.1701164294954722 0.1701164294954722 0.1701164294954722 0.1701164294954722 0.1701164294954722 0.16623544631306605 0.15944372574385512 0.15556274256144892 0.14877102199223807 0.1400388098318241 0.1254851228978008 0.1235446313065977 0.1177231565329884 0.11384217335058218 0.11190168175937908 0.11190168175937908,0.8201811125485123 0.8201811125485123 0.8201811125485123 0.8201811125485123 0.8201811125485123 0.8201811125485123 0.8201811125485123 0.8201811125485123 0.8201811125485123 0.8201811125485123 0.8201811125485123 0.8201811125485123 0.8201811125485123 0.8201811125485123 0.8201811125485123 0.8201811125485123 0.8201811125485123 0.8201811125485123 0.8163001293661061 0.8137128072445019 0.8137128072445019 0.8137128072445019 0.8137128072445019 0.8137128072445019 0.8137128072445019 0.8137128072445019 0.8137128072445019 0.8137128072445019 0.8137128072445019 0.8137128072445019 0.8124191461836998 0.8098318240620958 0.8085381630012937 0.8085381630012937 0.8059508408796895 0.7994825355756792 0.7930142302716688 0.7839586028460543 0.7645536869340233 0.7451487710219922 0.6468305304010349 0.6015523932729625 0.5588615782664942 0.4346701164294955 0.3182406209573092 0.17981888745148766 0.12548512289780078 0.06856403622250973 0.04786545924967656 0.04139715394566623 0.03880983182406207 0.03880983182406207 0.03880983182406207 0.03880983182406207 0.03880983182406207 0.04010349288486415 0.043984476067270406 0.04786545924967656 0.05433376455368688 0.06080206985769732 0.07115135834411379 0.07244501940491588 0.08150064683053038 0.0879689521345407 0.09314359637774904 0.09443725743855114,83.39999999999421 103.39999999999421 123.39999999999421 143.39999999999418 163.39999999999418 183.3999999999942 203.3999999999942 223.3999999999942 243.3999999999942 263.3999999999942 283.3999999999942 303.3999999999942 323.3999999999942 343.3999999999942 363.3999999999942 383.3999999999942 403.3999999999942 423.3999999999942 443.3999999999942 463.3999999999942 483.3999999999942 503.3999999999942 523.3999999999942 543.3999999999942 563.3999999999943 583.3999999999943 603.3999999999943 623.3999999999943 643.3999999999943 663.3999999999943 683.3999999999943 703.3999999999942 723.3999999999942 743.3999999999942 763.3999999999942 783.3999999999942 803.3999999999942 823.3999999999942 843.3999999999942 863.3999999999942 883.3999999999942 903.3999999999942 923.3999999999942 943.3999999999942 963.3999999999942 983.3999999999942 1003.3999999999942 1023.3999999999942 1043.3999999999942 1063.3999999999942 1083.3999999999942 1103.3999999999942 1123.3999999999942 1143.3999999999942 1163.3999999999942 1183.3999999999942 1203.3999999999942 1223.3999999999942 1243.3999999999942 1263.3999999999942 1283.3999999999942 1303.3999999999942 1323.3999999999942 1343.3999999999942 1363.3999999999942 1383.3999999999942
cb_04,10.0,enc_trial,stim,response,STEM students,1797.2000000238475,enc_trial,1.0,10.0,s_s_14_1,student_stem,fold-e,funnel,4.0,unique,far,paired,s_s_14_1.jpg,stem,student-b1,STEM students,Fine Arts students,sub-83,1.0,1.0,1.0,1.0,0.5106727037516171 0.5126131953428201 0.5155239327296248 0.5194049159120311 0.5213454075032341 0.5194049159120311 0.508732212160414 0.4835058214747736 0.4660413971539457 0.4563389391979302 0.4408150064683053 0.4369340232858991 0.4282018111254851 0.4194695989650711 0.4078266494178525 0.3806597671410091 0.3622250970245796 0.3350582147477361 0.3243855109961189 0.313712807244502 0.3001293661060802 0.27878395860284605 0.2516170763260026 0.2234799482535576 0.20213454075032344 0.16138421733505826 0.1439197930142303 0.12936610608020702 0.12839586028460545 0.12645536869340235,0.7917205692108668 0.7839586028460543 0.7710219922380337 0.7490297542043984 0.7257438551099612 0.6701164294954722 0.6248382923673997 0.5407503234152652 0.4915912031047866 0.4566623544631306 0.4152652005174644 0.3958602846054333 0.3609314359637775 0.31565329883570503 0.2820181112548512 0.2212160413971539 0.18887451487710216 0.14747736093143593 0.13454075032341528 0.12936610608020693 0.12807244501940496 0.12807244501940496 0.12807244501940496 0.12807244501940496 0.12807244501940496 0.12160413971539452 0.1151358344113842 0.10866752910737387 0.10866752910737387 0.1073738680465718,949.8999999999942 969.8999999999942 989.8999999999942 1009.8999999999942 1029.8999999999942 1049.8999999999942 1069.8999999999942 1089.8999999999942 1109.8999999999942 1129.8999999999942 1149.8999999999942 1169.8999999999942 1189.8999999999942 1209.8999999999942 1229.8999999999942 1249.8999999999942 1269.8999999999942 1289.8999999999942 1309.8999999999942 1329.8999999999942 1349.8999999999942 1369.8999999999942 1389.8999999999942 1409.8999999999942 1429.8999999999942 1449.8999999999942 1469.8999999999942 1489.8999999999942 1509.8999999999942 1529.8999999999942
cb_04,11.0,enc_trial,stim,response,Fine Arts students,1449.0000000357684,enc_trial,1.0,11.0,s_a_03_1,student_art,fold-e,palette,4.0,unique,far,paired,s_a_03_1.jpg,art,student-b1,STEM students,Fine Arts students,sub-83,1.0,1.0,1.0,1.0,0.5213454075032341 0.5223156532988357 0.5242561448900388 0.5242561448900388 0.5242561448900388 0.5242561448900388 0.5242561448900388 0.5242561448900388 0.5242561448900388 0.5242561448900388 0.5252263906856404 0.5271668822768435 0.5281371280724451 0.5281371280724451 0.5310478654592496 0.536869340232859 0.536869340232859 0.536869340232859 0.536869340232859 0.536869340232859 0.5213454075032341 0.5116429495472187 0.5 0.4757438551099612 0.4320827943078913 0.3855109961190169 0.3816300129366105 0.3835705045278137 0.3855109961190169 0.3884217335058215 0.39909443725743854 0.4214100905562743 0.4815653298835705 0.5591849935316947 0.61254851228978 0.6513583441138422 0.6659120310478654 0.6833764553686934 0.6979301423027167 0.7095730918499353 0.7192755498059509 0.7212160413971539 0.7260672703751617 0.731888745148771 0.7454721862871927 0.7639068564036222 0.7639068564036222 0.7639068564036222 0.7639068564036222 0.7648771021992238 0.7939844760672704 0.8201811125485122 0.8289133247089262 0.8327943078913325 0.8483182406209573 0.8735446313065977 0.8861578266494178 0.8978007761966365 0.9036222509702456 0.9045924967658472,0.8201811125485123 0.8201811125485123 0.8201811125485123 0.8201811125485123 0.8201811125485123 0.8201811125485123 0.8201811125485123 0.8201811125485123 0.8201811125485123 0.8201811125485123 0.8201811125485123 0.8201811125485123 0.8201811125485123 0.8201811125485123 0.8214747736093144 0.8227684346701164 0.8227684346701164 0.8227684346701164 0.8227684346701164 0.8175937904269082 0.6287192755498059 0.5705045278137129 0.5291073738680465 0.4773609314359638 0.3997412677878396 0.2755498059508409 0.2509702457956016 0.24320827943078915 0.24320827943078915 0.24320827943078915 0.2367399741267789 0.21733505821474766 0.1694695989650712 0.1319534282018111 0.11642949547218627 0.1151358344113842 0.1151358344113842 0.10996119016817596 0.10996119016817596 0.11125485122897803 0.12548512289780078 0.13583441138421734 0.14489003880983187 0.166882276843467 0.20051746442432086 0.2393272962483829 0.2393272962483829 0.2393272962483829 0.2393272962483829 0.2367399741267789 0.20957309184993533 0.18758085381630007 0.18111254851228967 0.1759379042690815 0.166882276843467 0.15782664941785252 0.15653298835705046 0.15653298835705046 0.15653298835705046 0.15653298835705046,200.10000000000585 220.10000000000585 240.10000000000585 260.1000000000058 280.1000000000058 300.1000000000058 320.1000000000058 340.1000000000058 360.1000000000058 380.1000000000058 400.1000000000058 420.1000000000058 440.1000000000058 460.1000000000058 480.1000000000058 500.1000000000058 520.1000000000058 540.1000000000058 560.1000000000058 580.1000000000057 600.1000000000057 620.1000000000057 640.1000000000057 660.1000000000057 680.1000000000057 700.1000000000058 720.1000000000058 740.1000000000058 760.1000000000058 780.1000000000058 800.1000000000058 820.1000000000058 840.1000000000058 860.1000000000058 880.1000000000058 900.1000000000058 920.1000000000058 940.1000000000058 960.1000000000058 980.1000000000058 1000.1000000000058 1020.1000000000058 1040.1000000000058 1060.1000000000058 1080.1000000000058 1100.1000000000058 1120.1000000000058 1140.1000000000058 1160.1000000000058 1180.1000000000058 1200.1000000000058 1220.1000000000058 1240.1000000000058 1260.1000000000058 1280.1000000000058 1300.1000000000058 1320.1000000000058 1340.1000000000058 1360.1000000000058 1380.1000000000058
cb_04,12.0,enc_trial,stim,response,Fine Arts students,1348.2000000238475,enc_trial,1.0,12.0,s_a_19_1,student_art,fold-b-single,ballet shoes,4.0,unique,,single,s_a_19_1.jpg,art,student-b1,STEM students,Fine Arts students,sub-83,1.0,,1.0,,0.5106727037516171 0.5145536869340233 0.5145536869340233 0.5145536869340233 0.5145536869340233 0.5145536869340233 0.5145536869340233 0.5145536869340233 0.5145536869340233 0.5145536869340233 0.5145536869340233 0.5145536869340233 0.5145536869340233 0.5145536869340233 0.5145536869340233 0.5145536869340233 0.5145536869340233 0.5145536869340233 0.5145536869340233 0.5145536869340233 0.5145536869340233 0.5145536869340233 0.5145536869340233 0.5145536869340233 0.5145536869340233 0.5145536869340233 0.5145536869340233 0.5145536869340233 0.5145536869340233 0.5145536869340233 0.5145536869340233 0.5145536869340233 0.5145536869340233 0.5145536869340233 0.5145536869340233 0.5145536869340233 0.5145536869340233 0.5145536869340233 0.5572445019404916 0.7163648124191462 0.8599611901681758 0.8677231565329884 0.8725743855109961 0.8735446313065977 0.8754851228978008 0.8774256144890038 0.8783958602846054 0.8783958602846054 0.8783958602846054 0.8783958602846054 0.8774256144890038 0.8745148771021992 0.8745148771021992 0.8745148771021992 0.8716041397153945 0.8696636481241914 0.8657826649417852 0.8648124191461837 0.8638421733505821,0.8033635187580854 0.8033635187580854 0.8033635187580854 0.8033635187580854 0.8033635187580854 0.8033635187580854 0.8033635187580854 0.8033635187580854 0.8033635187580854 0.8033635187580854 0.8033635187580854 0.8033635187580854 0.8033635187580854 0.8033635187580854 0.8033635187580854 0.8033635187580854 0.8033635187580854 0.8033635187580854 0.8033635187580854 0.8033635187580854 0.8033635187580854 0.8033635187580854 0.8033635187580854 0.8033635187580854 0.8033635187580854 0.8033635187580854 0.8033635187580854 0.8033635187580854 0.8033635187580854 0.8033635187580854 0.8033635187580854 0.8033635187580854 0.8033635187580854 0.8033635187580854 0.8033635187580854 0.8033635187580854 0.8033635187580854 0.8033635187580854 0.7606727037516171 0.535575679172057 0.29754204398447603 0.2626131953428201 0.24320827943078915 0.2367399741267789 0.2328589909443725 0.22639068564036224 0.22639068564036224 0.22639068564036224 0.22639068564036224 0.22639068564036224 0.2289780077619664 0.23415265200517466 0.23415265200517466 0.23415265200517466 0.2212160413971539 0.1694695989650712 0.15523932729624834 0.15265200517464428 0.1500646830530401,99.89999999999418 119.89999999999418 139.89999999999418 159.89999999999418 179.8999999999942 199.89999999999415 219.89999999999415 239.89999999999415 259.8999999999942 279.8999999999942 299.8999999999942 319.8999999999942 339.8999999999942 359.8999999999942 379.8999999999942 399.8999999999942 419.8999999999942 439.8999999999942 459.8999999999942 479.8999999999942 499.8999999999942 519.8999999999942 539.8999999999942 559.8999999999942 579.8999999999943 599.8999999999943 619.8999999999943 639.8999999999943 659.8999999999943 679.8999999999943 699.8999999999942 719.8999999999942 739.8999999999942 759.8999999999942 779.8999999999942 799.8999999999942 819.8999999999942 839.8999999999942 859.8999999999942 879.8999999999942 899.8999999999942 919.8999999999942 939.8999999999942 959.8999999999942 979.8999999999942 999.8999999999942 1019.8999999999942 1039.8999999999942 1059.8999999999942 1079.8999999999942 1099.8999999999942 1119.8999999999942 1139.8999999999942 1159.8999999999942 1179.8999999999942 1199.8999999999942 1219.8999999999942 1239.8999999999942 1259.8999999999942
cb_04,13.0,enc_trial,stim,response,STEM students,1683.2000000000116,enc_trial,1.0,13.0,s_sh_11_1,student_shared,fold-b,pencil case,4.0,competing,close,paired,s_sh_11_1.jpg,,student-b1,STEM students,Fine Arts students,sub-83,1.0,1.0,0.0,0.0,0.4980595084087969 0.5067917205692108 0.5116429495472187 0.5135834411384217 0.5155239327296248 0.5232858990944372 0.5358990944372575 0.5358990944372575 0.5252263906856404 0.5106727037516171 0.4417852522639069 0.3748382923673997 0.2923673997412678 0.2293014230271669 0.17690815006468308 0.11966364812419147 0.11384217335058218 0.11384217335058218 0.11384217335058218 0.11384217335058218 0.11384217335058218 0.11287192755498066,0.7839586028460543 0.7684346701164295 0.7580853816300129 0.7529107373868047 0.7438551099611901 0.721862871927555 0.6054333764553688 0.5588615782664942 0.5226390685640363 0.4890038809831824 0.3816300129366106 0.3104786545924968 0.22639068564036224 0.1681759379042691 0.1241914618369987 0.0970245795601552 0.0970245795601552 0.0970245795601552 0.0970245795601552 0.0970245795601552 0.0970245795601552 0.09831824062095727,1116.5 1136.5 1156.5 1176.5 1196.5 1216.5 1236.5 1256.5 1276.5 1296.5 1316.5 1336.5 1356.5 1376.5 1396.5 1416.5 1436.5 1456.5 1476.5 1496.5 1516.5 1536.5
cb_04,14.0,enc_trial,stim,response,STEM students,1749.1000000000058,enc_trial,1.0,14.0,s_sh_24_1,student_shared,fold-b,desk organizer,4.0,competing,close,paired,s_sh_24_1.jpg,,student-b1,STEM students,Fine Arts students,sub-83,1.0,1.0,0.0,0.0,0.5029107373868047 0.5019404915912031 0.4990297542043984 0.4970892626131954 0.4961190168175938 0.4951487710219922 0.4951487710219922 0.4951487710219922 0.4951487710219922 0.4951487710219922 0.4951487710219922 0.4951487710219922 0.4951487710219922 0.4951487710219922 0.4951487710219922 0.4951487710219922 0.4951487710219922 0.4941785252263906 0.4922380336351876 0.49126778783958597 0.4815653298835705 0.471862871927555 0.4592496765847348 0.4466364812419146 0.4126778783958603 0.3389391979301423 0.29818887451487713 0.27393272962483833 0.2535575679172057 0.239974126778784 0.21474773609314365 0.21086675291073745 0.21086675291073745 0.21086675291073745 0.21086675291073745 0.21086675291073745 0.20795601552393275 0.20407503234152646 0.20116429495472188 0.19825355756791724 0.1953428201811125 0.1914618369987064 0.1885510996119017 0.18564036222509706 0.1827296248382924 0.1759379042690815 0.17302716688227687 0.17108667529107374 0.17108667529107374 0.17108667529107374 0.1681759379042691 0.16720569210866754,0.7813712807244502 0.7593790426908149 0.7386804657179821 0.7283311772315653 0.7179818887451488 0.7179818887451488 0.7179818887451488 0.7179818887451488 0.7179818887451488 0.7179818887451488 0.7179818887451488 0.7179818887451488 0.7179818887451488 0.7179818887451488 0.7179818887451488 0.7179818887451488 0.7179818887451488 0.7115135834411384 0.7063389391979301 0.6946959896507114 0.6390685640362226 0.6054333764553688 0.5640362225097024 0.5291073738680465 0.461836998706339 0.3583441138421733 0.30530401034928845 0.2729624838292367 0.2509702457956016 0.2367399741267789 0.2147477360931436 0.21086675291073745 0.21086675291073745 0.21086675291073745 0.21086675291073745 0.21086675291073745 0.20569210866752907 0.19922380336351875 0.19146183699870634 0.18758085381630007 0.17981888745148766 0.17205692108667525 0.16429495472186284 0.15653298835705046 0.1513583441138422 0.14489003880983187 0.1423027166882277 0.1423027166882277 0.1423027166882277 0.1423027166882277 0.13971539456662352 0.13971539456662352,616.5 636.5 656.5 676.5 696.5 716.5 736.5 756.5 776.5 796.5 816.5 836.5 856.5 876.5 896.5 916.5 936.5 956.5 976.5 996.5 1016.5 1036.5 1056.5 1076.5 1096.5 1116.5 1136.5 1156.5 1176.5 1196.5 1216.5 1236.5 1256.5 1276.5 1296.5 1316.5 1336.5 1356.5 1376.5 1396.5 1416.5 1436.5 1456.5 1476.5 1496.5 1516.5 1536.5 1556.5 1576.5 1596.5 1616.5 1636.5
cb_04,15.0,enc_trial,stim,response,STEM students,1668.3999999999942,enc_trial,1.0,15.0,s_s_17_1,student_stem,fold-e,ring stand,4.0,unique,far,paired,s_s_17_1.jpg,stem,student-b1,STEM students,Fine Arts students,sub-83,1.0,1.0,1.0,1.0,0.5194049159120311 0.517464424320828 0.5126131953428201 0.5097024579560155 0.5058214747736093 0.4883570504527814 0.4641009055627426 0.4388745148771022 0.4165588615782665 0.3845407503234153 0.3321474773609315 0.3098318240620957 0.2846054333764554 0.2661707632600259 0.2564683053040104 0.2409443725743856 0.23512289780077625 0.2293014230271669 0.22639068564036224 0.22250970245795604 0.2157179818887452 0.21280724450194047 0.2089262613195343 0.20407503234152646 0.1992238033635188 0.1924320827943079 0.1904915912031048 0.1827296248382924 0.17108667529107374 0.15459249676584738 0.13712807244501946 0.12936610608020702 0.12063389391979305 0.11481241914618373 0.11287192755498066 0.11287192755498066,0.8175937904269082 0.8007761966364813 0.7891332470892626 0.778783958602846 0.7658473479948253 0.7231565329883571 0.6791720569210866 0.6313065976714101 0.5860284605433377 0.5135834411384217 0.3906856403622251 0.3272962483829237 0.27943078913324704 0.25226390685640365 0.23544631306597674 0.22250970245795604 0.21992238033635192 0.21862871927554986 0.21733505821474766 0.21733505821474766 0.21604139715394569 0.2147477360931436 0.2147477360931436 0.2147477360931436 0.2147477360931436 0.21345407503234148 0.21345407503234148 0.21086675291073745 0.2069857697283312 0.19663648124191446 0.1772315653298836 0.166882276843467 0.15782664941785252 0.1513583441138422 0.14747736093143593 0.14489003880983187,899.8999999999942 919.8999999999942 939.8999999999942 959.8999999999942 979.8999999999942 999.8999999999942 1019.8999999999942 1039.8999999999942 1059.8999999999942 1079.8999999999942 1099.8999999999942 1119.8999999999942 1139.8999999999942 1159.8999999999942 1179.8999999999942 1199.8999999999942 1219.8999999999942 1239.8999999999942 1259.8999999999942 1279.8999999999942 1299.8999999999942 1319.8999999999942 1339.8999999999942 1359.8999999999942 1379.8999999999942 1399.8999999999942 1419.8999999999942 1439.8999999999942 1459.8999999999942 1479.8999999999942 1499.8999999999942 1519.8999999999942 1539.8999999999942 1559.8999999999942 1579.8999999999942 1599.8999999999942
cb_04,16.0,enc_trial,stim,response,Fine Arts students,1510.4000000238302,enc_trial,1.0,16.0,s_sh_23_2,student_shared,fold-a,ballpoint pen,4.0,competing,far,paired,s_sh_23_2.jpg,,student-b1,STEM students,Fine Arts students,sub-83,1.0,1.0,1.0,0.0,0.5194049159120311 0.5232858990944372 0.536869340232859 0.5504527813712807 0.5611254851228978 0.5970245795601552 0.6503880983182406 0.693078913324709 0.7202457956015523 0.7425614489003881 0.7600258732212161 0.7648771021992238 0.7716688227684346 0.7804010349288486 0.7881630012936609 0.796895213454075 0.8017464424320828 0.805627425614489 0.8124191461836998 0.8211513583441138 0.8434670116429496 0.8483182406209573 0.8560802069857697 0.8619016817593791 0.8677231565329884 0.8725743855109961 0.8754851228978008 0.8774256144890038 0.8793661060802069 0.8793661060802069 0.8793661060802069,0.8538163001293662 0.833117723156533 0.8098318240620958 0.7813712807244502 0.7567917205692108 0.6571798188874515 0.5019404915912031 0.3764553686934024 0.2858990944372575 0.21604139715394569 0.15265200517464428 0.1410090556274256 0.12807244501940496 0.12031047865459255 0.11254851228978002 0.10866752910737387 0.1073738680465718 0.1060802069857697 0.10349288486416564 0.09961190168175936 0.09055627425614488 0.0879689521345407 0.08538163001293664 0.08538163001293664 0.08538163001293664 0.08926261319534279 0.09573091849935322 0.10349288486416564 0.10866752910737387 0.11254851228978002 0.11384217335058212,800.0 820.0 840.0 860.0 880.0 900.0 920.0 940.0 960.0 980.0 1000.0 1020.0 1040.0 1060.0 1080.0 1100.0 1120.0 1140.0 1160.0 1180.0 1200.0 1220.0 1240.0 1260.0 1280.0 1300.0 1320.0 1340.0 1360.0 1380.0 1400.0
cb_04,17.0,enc_trial,stim,response,Fine Arts students,1038.4999999880674,enc_trial,1.0,17.0,s_sh_11_2,student_shared,fold-b,pencil case,4.0,competing,close,paired,s_sh_11_2.jpg,,student-b1,STEM students,Fine Arts students,sub-83,1.0,1.0,0.0,0.0,0.5135834411384217 0.5543337645536869 0.6047865459249676 0.6610608020698577 0.7086028460543338 0.7891332470892626 0.8221216041397154 0.8415265200517464 0.8531694695989649 0.8580206985769728 0.8609314359637774 0.8619016817593791 0.8609314359637774 0.8541397153945666 0.8444372574385509 0.8444372574385509,0.7761966364812419 0.6934023285899095 0.5692108667529108 0.4437257438551099 0.32341526520051744 0.15653298835705046 0.1047865459249676 0.08279430789133246 0.07244501940491588 0.07115135834411379 0.07115135834411379 0.07244501940491588 0.09314359637774904 0.11642949547218627 0.1332470892626132 0.13712807244501946,566.6999999999825 586.6999999999825 606.6999999999825 626.6999999999825 646.6999999999825 666.6999999999825 686.6999999999825 706.6999999999824 726.6999999999824 746.6999999999824 766.6999999999824 786.6999999999824 806.6999999999824 826.6999999999824 846.6999999999824 866.6999999999824
cb_04,18.0,enc_trial,stim,response,Fine Arts students,1562.1000000238419,enc_trial,1.0,18.0,s_a_09_1,student_art,fold-e,picture frame,4.0,unique,far,paired,s_a_09_1.jpg,art,student-b1,STEM students,Fine Arts students,sub-83,1.0,1.0,1.0,1.0,0.5067917205692108 0.5077619663648124 0.5097024579560155 0.5155239327296248 0.5203751617076326 0.5261966364812419 0.5029107373868047 0.4670116429495472 0.4291720569210867 0.4000646830530401 0.3631953428201811 0.35446313065976714 0.3505821474773609 0.35446313065976714 0.3709573091849935 0.471862871927555 0.5329883570504528 0.6028460543337646 0.6697930142302717 0.6979301423027167 0.7231565329883571 0.7280077619663647 0.7289780077619663 0.7289780077619663 0.7289780077619663 0.7289780077619663 0.7289780077619663 0.7289780077619663 0.7289780077619663 0.731888745148771 0.7639068564036222 0.7901034928848641 0.8095084087968952 0.8308538163001293 0.8444372574385509 0.8832470892626132 0.8910090556274256 0.8929495472186287 0.8890685640362225 0.8822768434670116 0.8783958602846054,0.7981888745148771 0.7826649417852523 0.7684346701164295 0.741267787839586 0.7115135834411384 0.5821474773609314 0.499353169469599 0.4165588615782665 0.3518758085381629 0.2923673997412678 0.20439844760672696 0.1785252263906857 0.15782664941785252 0.14489003880983187 0.13712807244501946 0.1228978007761966 0.12031047865459255 0.1047865459249676 0.10090556274256146 0.10090556274256146 0.10090556274256146 0.10090556274256146 0.10090556274256146 0.10090556274256146 0.10090556274256146 0.10090556274256146 0.10090556274256146 0.10090556274256146 0.10090556274256146 0.10349288486416564 0.11384217335058212 0.12031047865459255 0.12160413971539452 0.12160413971539452 0.1228978007761966 0.13454075032341528 0.13842173350582146 0.13971539456662352 0.14359637774902978 0.14618369987063384 0.14618369987063384,700.1000000000058 720.1000000000058 740.1000000000058 760.1000000000058 780.1000000000058 800.1000000000058 820.1000000000058 840.1000000000058 860.1000000000058 880.1000000000058 900.1000000000058 920.1000000000058 940.1000000000058 960.1000000000058 980.1000000000058 1000.1000000000058 1020.1000000000058 1040.1000000000058 1060.1000000000058 1080.1000000000058 1100.1000000000058 1120.1000000000058 1140.1000000000058 1160.1000000000058 1180.1000000000058 1200.1000000000058 1220.1000000000058 1240.1000000000058 1260.1000000000058 1280.1000000000058 1300.1000000000058 1320.1000000000058 1340.1000000000058 1360.1000000000058 1380.1000000000058 1400.1000000000058 1420.1000000000058 1440.1000000000058 1460.1000000000058 1480.1000000000058 1500.1000000000058
cb_04,19.0,enc_trial,stim,response,Fine Arts students,1535.9000000238302,enc_trial,1.0,19.0,s_a_20_1,student_art,fold-a,pin cushion,4.0,unique,close,paired,s_a_20_1.jpg,art,student-b1,STEM students,Fine Arts students,sub-83,1.0,1.0,1.0,1.0,0.5533635187580854 0.5882923673997412 0.6338939197930142 0.695019404915912 0.7794307891332471 0.9366106080206984 0.9754204398447608 0.989974126778784 0.9928848641655886 0.9928848641655886 0.9928848641655886 0.9909443725743856 0.9754204398447608 0.9676584734799484 0.9560155239327296 0.9356403622250968 0.9327296248382924 0.9317593790426908 0.9298188874514876 0.928848641655886 0.9210866752910736 0.9142949547218628 0.9045924967658472 0.9016817593790428 0.8948900388098318 0.8813065976714101 0.8774256144890038 0.8764553686934023,0.7684346701164295 0.7231565329883571 0.6494178525226391 0.536869340232859 0.3816300129366106 0.13583441138421734 0.07373868046571798 0.045278137128072486 0.036222509702458 0.03492884864165592 0.03492884864165592 0.03234152652005173 0.04010349288486415 0.04657179818887447 0.05692108667529105 0.07891332470892631 0.08150064683053038 0.08279430789133246 0.08408796895213455 0.08538163001293664 0.0970245795601552 0.10349288486416564 0.11642949547218627 0.12031047865459255 0.12807244501940496 0.13971539456662352 0.1423027166882277 0.1423027166882277,933.1999999999823 953.1999999999823 973.1999999999823 993.1999999999823 1013.1999999999823 1033.1999999999823 1053.1999999999823 1073.1999999999823 1093.1999999999823 1113.1999999999823 1133.1999999999825 1153.1999999999825 1173.1999999999825 1193.1999999999825 1213.1999999999825 1233.1999999999825 1253.1999999999825 1273.1999999999825 1293.1999999999825 1313.1999999999825 1333.1999999999825 1353.1999999999825 1373.1999999999825 1393.1999999999825 1413.1999999999825 1433.1999999999825 1453.1999999999825 1473.1999999999825
cb_04,20.0,enc_trial,stim,response,STEM students,1655.400000011927,enc_trial,1.0,20.0,s_sh_19_1,student_shared,fold-a,portable plastic drawer,4.0,competing,far,paired,s_sh_19_1.jpg,,student-b1,STEM students,Fine Arts students,sub-83,0.0,0.0,1.0,0.0,0.46313065976714096 0.4670116429495472 0.4767141009055628 0.4941785252263906 0.5155239327296248 0.6746442432082794 0.7309184993531694 0.7309184993531694 0.7309184993531694 0.7309184993531694 0.7309184993531694 0.7309184993531694 0.7309184993531694 0.7309184993531694 0.7309184993531694 0.7309184993531694 0.2884864165588616 0.2525873221216042 0.2283311772315653 0.21474773609314365 0.23027166882276845 0.2661707632600259 0.3040103492884864 0.3408796895213454 0.3777490297542045 0.4495472186287193 0.4573091849935317 0.4708926261319534 0.4835058214747736 0.4835058214747736 0.454398447606727 0.4184993531694696 0.3787192755498059 0.3389391979301423 0.3117723156532988 0.2652005174644244 0.2448253557567917 0.23221216041397155 0.23027166882276845 0.23027166882276845 0.23124191461837 0.2380336351875809 0.2448253557567917 0.2516170763260026 0.25743855109961195 0.2652005174644244 0.2681112548512289 0.2681112548512289 0.26714100905562743 0.259379042690815 0.23415265200517466 0.2157179818887452 0.1914618369987064 0.17496765847347998 0.16623544631306605 0.15750323415265202 0.1516817593790427 0.1497412677878396 0.14877102199223807 0.1478007761966365 0.14683053040103494 0.1458602846054334 0.1458602846054334 0.14489003880983184 0.1439197930142303 0.1439197930142303,0.8007761966364813 0.7956015523932729 0.7749029754204398 0.7425614489003881 0.6908150064683053 0.2652005174644243 0.03751617076325997 0.03751617076325997 0.03751617076325997 0.03751617076325997 0.03751617076325997 0.03751617076325997 0.03751617076325997 0.03751617076325997 0.03751617076325997 0.03751617076325997 0.06338939197930138 0.12807244501940496 0.20051746442432086 0.2742561448900388 0.4282018111254852 0.5148771021992238 0.5860284605433377 0.6364812419146184 0.6662354463130661 0.6921086675291074 0.6882276843467012 0.6520051746442432 0.5821474773609314 0.5265200517464425 0.3958602846054333 0.3260025873221216 0.2820181112548512 0.2548512289780077 0.24450194049159124 0.2406209573091849 0.2470892626131953 0.2535575679172057 0.2548512289780077 0.2548512289780077 0.2574385510996119 0.2574385510996119 0.2574385510996119 0.2535575679172057 0.25226390685640365 0.2367399741267789 0.22509702457956016 0.21604139715394569 0.21086675291073745 0.20439844760672696 0.19793014230271666 0.19793014230271666 0.19793014230271666 0.19793014230271666 0.1953428201811126 0.18887451487710216 0.18240620957309184 0.1785252263906857 0.17464424320827945 0.17205692108667525 0.16300129366106075 0.15782664941785252 0.15265200517464428 0.14877102199223802 0.14489003880983187 0.14359637774902978,250.10000000000585 270.1000000000058 290.1000000000058 310.10000000000576 330.1000000000057 350.1000000000057 370.1000000000057 390.1000000000057 410.10000000000565 430.10000000000565 450.10000000000565 470.10000000000565 490.1000000000055 510.1000000000055 530.1000000000055 550.1000000000054 570.1000000000054 590.1000000000054 610.1000000000054 630.1000000000053 650.1000000000053 670.1000000000053 690.1000000000051 710.1000000000051 730.1000000000051 750.1000000000051 770.1000000000051 790.100000000005 810.100000000005 830.100000000005 850.1000000000049 870.1000000000049 890.1000000000049 910.1000000000047 930.1000000000047 950.1000000000047 970.1000000000047 990.1000000000047 1010.1000000000047 1030.1000000000047 1050.1000000000047 1070.1000000000047 1090.1000000000047 1110.1000000000047 1130.1000000000047 1150.1000000000047 1170.1000000000045 1190.1000000000045 1210.1000000000045 1230.1000000000045 1250.1000000000045 1270.1000000000045 1290.1000000000045 1310.1000000000042 1330.1000000000042 1350.1000000000042 1370.1000000000042 1390.1000000000042 1410.1000000000042 1430.1000000000042 1450.100000000004 1470.100000000004 1490.100000000004 1510.100000000004 1530.100000000004 1550.100000000004
cb_04,21.0,enc_trial,stim,response,Fine Arts students,1377.8000000238535,enc_trial,1.0,21.0,s_sh_24_2,student_shared,fold-b,desk organizer,4.0,competing,close,paired,s_sh_24_2.jpg,,student-b1,STEM students,Fine Arts students,sub-83,1.0,1.0,0.0,0.0,0.5242561448900388 0.5708279430789133 0.5999353169469599 0.6630012936610608 0.7037516170763259 0.7784605433376455 0.8124191461836998 0.8308538163001293 0.8395860284605433 0.8415265200517464 0.8415265200517464 0.8415265200517464 0.8405562742561449 0.8405562742561449 0.8405562742561449 0.8395860284605433 0.8386157826649417 0.8376455368693402 0.8376455368693402 0.8376455368693402 0.8376455368693402 0.8376455368693402 0.8376455368693402 0.8376455368693402 0.8376455368693402 0.8376455368693402 0.8386157826649417 0.8405562742561449 0.8405562742561449,0.8175937904269082 0.7296248382923674 0.6455368693402328 0.5122897800776196 0.4372574385510997 0.33117723156532985 0.2871927554980596 0.2626131953428201 0.2483829236739974 0.24450194049159124 0.24450194049159124 0.24450194049159124 0.2419146183699871 0.23415265200517466 0.2276843467011644 0.2212160413971539 0.21992238033635192 0.21992238033635192 0.21992238033635192 0.21992238033635192 0.21992238033635192 0.21992238033635192 0.21862871927554986 0.21862871927554986 0.21862871927554986 0.2147477360931436 0.2121604139715395 0.20957309184993533 0.20827943078913325,750.0 770.0 790.0 810.0 830.0 850.0 870.0 890.0 910.0 930.0 950.0 970.0 990.0 1010.0 1030.0 1050.0 1070.0 1090.0 1110.0 1130.0 1150.0 1170.0 1190.0 1210.0 1230.0 1250.0 1270.0 1290.0 1310.0
cb_04,22.0,enc_trial,stim,response,Fine Arts students,1367.2999999999886,enc_trial,1.0,22.0,s_sh_16_2,student_shared,fold-a,stapler,4.0,competing,far,paired,s_sh_16_2.jpg,,student-b1,STEM students,Fine Arts students,sub-83,1.0,1.0,1.0,1.0,0.5077619663648124 0.5077619663648124 0.5077619663648124 0.5077619663648124 0.5077619663648124 0.5077619663648124 0.5077619663648124 0.5077619663648124 0.5077619663648124 0.5077619663648124 0.5077619663648124 0.5077619663648124 0.5077619663648124 0.5077619663648124 0.5077619663648124 0.5077619663648124 0.5077619663648124 0.5077619663648124 0.5077619663648124 0.5077619663648124 0.5077619663648124 0.5077619663648124 0.5077619663648124 0.5077619663648124 0.5077619663648124 0.5116429495472187 0.5979948253557568 0.693078913324709 0.7939844760672704 0.8783958602846054 0.9560155239327296 0.9686287192755496 0.9744501940491592 0.9754204398447608 0.9754204398447608 0.9763906856403622 0.9763906856403622 0.9793014230271668 0.9822121604139716 0.9841526520051748 0.9890038809831824 0.9890038809831824 0.9890038809831824 0.9831824062095732 0.9744501940491592 0.946313065976714 0.928848641655886 0.9249676584734801 0.9249676584734801 0.9249676584734801 0.9249676584734801 0.9249676584734801 0.9249676584734801 0.9230271668822768 0.9181759379042692 0.9065329883570504 0.8978007761966365 0.8900388098318242 0.8890685640362225,0.8033635187580854 0.8020698576972833 0.8020698576972833 0.8020698576972833 0.8020698576972833 0.8020698576972833 0.8020698576972833 0.8020698576972833 0.8020698576972833 0.8020698576972833 0.8020698576972833 0.8020698576972833 0.8020698576972833 0.8020698576972833 0.8020698576972833 0.8007761966364813 0.8007761966364813 0.8007761966364813 0.8007761966364813 0.8007761966364813 0.8007761966364813 0.8007761966364813 0.8007761966364813 0.8007761966364813 0.8007761966364813 0.7865459249676585 0.6908150064683053 0.5730918499353169 0.42561448900388105 0.2846054333764554 0.1241914618369987 0.09573091849935322 0.07761966364812423 0.07244501940491588 0.06856403622250973 0.06468305304010348 0.06338939197930138 0.05562742561448897 0.04010349288486415 0.024579560155239318 0.010349288486416586 0.010349288486416586 0.010349288486416586 0.020698576972833168 0.03880983182406207 0.07373868046571798 0.08538163001293664 0.08667529107373872 0.08667529107373872 0.08667529107373872 0.08667529107373872 0.08667529107373872 0.08667529107373872 0.08667529107373872 0.08926261319534279 0.09961190168175936 0.1073738680465718 0.11772315653298834 0.11772315653298834,116.59999999997672 136.59999999997672 156.59999999997672 176.59999999997672 196.59999999997672 216.59999999997672 236.59999999997672 256.5999999999767 276.5999999999767 296.5999999999767 316.5999999999767 336.5999999999767 356.59999999997666 376.59999999997666 396.59999999997666 416.59999999997666 436.59999999997666 456.59999999997666 476.59999999997666 496.59999999997666 516.5999999999766 536.5999999999766 556.5999999999766 576.5999999999767 596.5999999999767 616.5999999999767 636.5999999999767 656.5999999999767 676.5999999999767 696.5999999999768 716.5999999999768 736.5999999999768 756.5999999999768 776.5999999999768 796.5999999999768 816.5999999999768 836.5999999999768 856.5999999999768 876.5999999999768 896.5999999999768 916.5999999999768 936.5999999999768 956.5999999999768 976.5999999999768 996.5999999999768 1016.5999999999768 1036.5999999999767 1056.5999999999767 1076.5999999999767 1096.5999999999767 1116.5999999999767 1136.5999999999767 1156.5999999999767 1176.5999999999767 1196.5999999999767 1216.5999999999767 1236.5999999999767 1256.5999999999767 1276.5999999999767
cb_04,23.0,enc_trial,stim,response,Fine Arts students,1505.0000000357684,enc_trial,1.0,23.0,s_a_20_2,student_art,fold-a,pin cushion,4.0,unique,close,paired,s_a_20_2.jpg,art,student-b1,STEM students,Fine Arts students,sub-83,1.0,1.0,1.0,1.0,0.5291073738680465 0.5456015523932729 0.5970245795601552 0.6911384217335058 0.7415912031047865 0.7774902975420441 0.8395860284605433 0.8696636481241914 0.8861578266494178 0.8919793014230272 0.8929495472186287 0.8929495472186287 0.8929495472186287 0.8929495472186287 0.8910090556274256 0.8803363518758085 0.8454075032341526 0.8376455368693402 0.8337645536869341 0.8327943078913325 0.8318240620957309 0.8308538163001293 0.8308538163001293 0.8337645536869341 0.8376455368693402 0.8386157826649417 0.8386157826649417 0.8386157826649417 0.8415265200517464 0.8541397153945666 0.8813065976714101 0.8861578266494178 0.8871280724450193 0.8871280724450193 0.8871280724450193 0.8871280724450193 0.8880983182406209 0.8910090556274256 0.8939197930142302 0.8939197930142302 0.8939197930142302 0.8939197930142302 0.8948900388098318 0.8978007761966365,0.7891332470892626 0.7865459249676585 0.741267787839586 0.6442432082794307 0.5640362225097024 0.48124191461837 0.2988357050452781 0.21733505821474766 0.1772315653298836 0.166882276843467 0.16558861578266493 0.16558861578266493 0.16558861578266493 0.16558861578266493 0.16558861578266493 0.16300129366106075 0.16300129366106075 0.16300129366106075 0.16300129366106075 0.16300129366106075 0.16429495472186284 0.1681759379042691 0.1694695989650712 0.17205692108667525 0.17205692108667525 0.17205692108667525 0.17205692108667525 0.17205692108667525 0.17205692108667525 0.17205692108667525 0.16170763260025878 0.16170763260025878 0.1604139715394567 0.1604139715394567 0.1604139715394567 0.1604139715394567 0.1591203104786546 0.15653298835705046 0.15653298835705046 0.15653298835705046 0.15653298835705046 0.15653298835705046 0.15523932729624834 0.15394566623544634,533.3000000000175 553.3000000000175 573.3000000000175 593.3000000000175 613.3000000000175 633.3000000000175 653.3000000000175 673.3000000000175 693.3000000000176 713.3000000000176 733.3000000000176 753.3000000000176 773.3000000000176 793.3000000000176 813.3000000000176 833.3000000000176 853.3000000000176 873.3000000000176 893.3000000000176 913.3000000000177 933.3000000000177 953.3000000000177 973.3000000000177 993.3000000000177 1013.3000000000177 1033.3000000000177 1053.3000000000177 1073.3000000000177 1093.3000000000177 1113.3000000000177 1133.3000000000175 1153.3000000000175 1173.3000000000175 1193.3000000000175 1213.3000000000175 1233.3000000000175 1253.3000000000175 1273.3000000000175 1293.3000000000175 1313.3000000000175 1333.3000000000175 1353.3000000000175 1373.3000000000175 1393.3000000000175
cb_04,24.0,enc_trial,stim,response,Fine Arts students,1043.2000000238477,enc_trial,1.0,24.0,s_sh_07_2,student_shared,fold-a,ruler,4.0,competing,far,paired,s_sh_07_2.jpg,,student-b1,STEM students,Fine Arts students,sub-83,1.0,1.0,0.0,0.0,0.4835058214747736 0.4932082794307892 0.5067917205692108 0.5261966364812419 0.5456015523932729 0.5465717981888745 0.5436610608020699 0.5242561448900388 0.4883570504527814 0.4476067270375162 0.4165588615782665 0.4184993531694696 0.4291720569210867 0.4670116429495472 0.5349288486416559 0.7212160413971539 0.7571151358344114 0.7706985769728331 0.7813712807244502 0.7881630012936609 0.7959249676584734 0.7959249676584734 0.7959249676584734 0.8046571798188874 0.8124191461836998 0.8211513583441138 0.8240620957309185 0.8269728331177232 0.8289133247089262 0.8298835705045278 0.8327943078913325,0.7981888745148771 0.7917205692108668 0.7813712807244502 0.7593790426908149 0.7296248382923674 0.6946959896507114 0.6545924967658474 0.5795601552393272 0.4838292367399741 0.39456662354463135 0.2729624838292367 0.2393272962483829 0.21733505821474766 0.1953428201811126 0.18758085381630007 0.18758085381630007 0.18240620957309184 0.1759379042690815 0.166882276843467 0.15782664941785252 0.1513583441138422 0.1513583441138422 0.1513583441138422 0.13842173350582146 0.12807244501940496 0.1228978007761966 0.1228978007761966 0.1228978007761966 0.1241914618369987 0.12677878395860287 0.12807244501940496,383.3999999999942 403.3999999999942 423.3999999999942 443.3999999999942 463.3999999999942 483.3999999999942 503.3999999999942 523.3999999999942 543.3999999999942 563.3999999999943 583.3999999999943 603.3999999999943 623.3999999999943 643.3999999999943 663.3999999999943 683.3999999999943 703.3999999999942 723.3999999999942 743.3999999999942 763.3999999999942 783.3999999999942 803.3999999999942 823.3999999999942 843.3999999999942 863.3999999999942 883.3999999999942 903.3999999999942 923.3999999999942 943.3999999999942 963.3999999999942 983.3999999999942
cb_04,25.0,enc_trial,stim,response,Fine Arts students,990.3000000238536,enc_trial,1.0,25.0,s_a_03_2,student_art,fold-e,palette,4.0,unique,far,paired,s_a_03_2.jpg,art,student-b1,STEM students,Fine Arts students,sub-83,1.0,1.0,1.0,1.0,0.5067917205692108 0.5572445019404916 0.6212807244501939 0.6794954721862871 0.7454721862871927 0.8318240620957309 0.8560802069857697 0.8754851228978008 0.8871280724450193 0.8900388098318242 0.8910090556274256 0.8910090556274256 0.8910090556274256 0.8910090556274256 0.8880983182406209 0.8696636481241914 0.8677231565329884,0.778783958602846 0.7153945666235446 0.6300129366106079 0.5459249676584734 0.42561448900388105 0.2652005174644243 0.21992238033635192 0.18369987063389392 0.1591203104786546 0.14877102199223802 0.14747736093143593 0.14747736093143593 0.14747736093143593 0.14747736093143593 0.14747736093143593 0.1604139715394567 0.1604139715394567,450.0 470.0 490.0 510.0 530.0 550.0 570.0 590.0 610.0 630.0 650.0 670.0 690.0 710.0 730.0 750.0 770.0
cb_04,26.0,enc_trial,stim,response,STEM students,1411.5000000119323,enc_trial,1.0,26.0,s_s_14_2,student_stem,fold-e,funnel,4.0,unique,far,paired,s_s_14_2.jpg,stem,student-b1,STEM students,Fine Arts students,sub-83,1.0,1.0,1.0,1.0,0.49126778783958597 0.49126778783958597 0.49126778783958597 0.49126778783958597 0.49126778783958597 0.49126778783958597 0.49126778783958597 0.49126778783958597 0.49126778783958597 0.49126778783958597 0.49126778783958597 0.49126778783958597 0.49126778783958597 0.49126778783958597 0.49126778783958597 0.49126778783958597 0.49126778783958597 0.4922380336351876 0.4980595084087969 0.4990297542043984 0.4990297542043984 0.4990297542043984 0.5029107373868047 0.5184346701164295 0.5329883570504528 0.5426908150064683 0.5591849935316947 0.5979948253557568 0.6591203104786546 0.7464424320827943 0.8589909443725744 0.8648124191461837 0.8745148771021992 0.8842173350582148 0.8880983182406209 0.8880983182406209 0.8861578266494178 0.8735446313065977 0.8502587322121604 0.8143596377749028 0.6571798188874515 0.5523932729624839 0.4573091849935317 0.35446313065976714 0.27490297542043984 0.21280724450194047 0.1904915912031048 0.1739974126778784 0.1701164294954722 0.1701164294954722 0.1701164294954722 0.1701164294954722 0.1701164294954722 0.1701164294954722 0.17108667529107374 0.17884864165588618 0.17884864165588618 0.17884864165588618 0.17884864165588618 0.17884864165588618 0.17981888745148775 0.1739974126778784 0.1701164294954722 0.16623544631306605 0.1642949547218629,0.8227684346701164 0.8227684346701164 0.8227684346701164 0.8227684346701164 0.8227684346701164 0.8227684346701164 0.8227684346701164 0.8227684346701164 0.8227684346701164 0.8227684346701164 0.8227684346701164 0.8227684346701164 0.8227684346701164 0.8227684346701164 0.8227684346701164 0.8227684346701164 0.8227684346701164 0.8227684346701164 0.8227684346701164 0.8227684346701164 0.8227684346701164 0.8227684346701164 0.8201811125485123 0.8059508408796895 0.7930142302716688 0.7826649417852523 0.7360931435963778 0.6377749029754205 0.4825355756791721 0.32470892626131953 0.13583441138421734 0.12031047865459255 0.1047865459249676 0.08667529107373872 0.07373868046571798 0.06727037516170764 0.06597671410090555 0.06468305304010348 0.06468305304010348 0.06468305304010348 0.07244501940491588 0.09055627425614488 0.11125485122897803 0.1332470892626132 0.1500646830530401 0.15265200517464428 0.15265200517464428 0.15265200517464428 0.15265200517464428 0.15265200517464428 0.15265200517464428 0.15265200517464428 0.15265200517464428 0.15265200517464428 0.15265200517464428 0.1500646830530401 0.1500646830530401 0.1500646830530401 0.1500646830530401 0.1500646830530401 0.1500646830530401 0.14489003880983187 0.1410090556274256 0.13971539456662352 0.13842173350582146,49.79999999998836 69.79999999998836 89.79999999998836 109.79999999998836 129.79999999998836 149.7999999999884 169.7999999999884 189.79999999998842 209.79999999998842 229.79999999998842 249.79999999998842 269.7999999999884 289.79999999998836 309.79999999998836 329.79999999998836 349.7999999999884 369.7999999999884 389.7999999999884 409.7999999999884 429.7999999999884 449.7999999999884 469.7999999999884 489.7999999999884 509.7999999999884 529.7999999999884 549.7999999999884 569.7999999999884 589.7999999999884 609.7999999999884 629.7999999999884 649.7999999999884 669.7999999999884 689.7999999999884 709.7999999999884 729.7999999999884 749.7999999999884 769.7999999999884 789.7999999999884 809.7999999999884 829.7999999999884 849.7999999999884 869.7999999999884 889.7999999999884 909.7999999999884 929.7999999999884 949.7999999999884 969.7999999999884 989.7999999999884 1009.7999999999884 1029.7999999999884 1049.7999999999884 1069.7999999999884 1089.7999999999884 1109.7999999999884 1129.7999999999886 1149.7999999999886 1169.7999999999886 1189.7999999999886 1209.7999999999886 1229.7999999999886 1249.7999999999886 1269.7999999999886 1289.7999999999886 1309.7999999999886 1329.7999999999886
cb_04,27.0,enc_trial,stim,response,STEM students,1311.4999999880674,enc_trial,1.0,27.0,s_s_05_1,student_stem,fold-a,lab goggles,4.0,unique,close,paired,s_s_05_1.jpg,stem,student-b1,STEM students,Fine Arts students,sub-83,1.0,1.0,1.0,1.0,0.4873868046571798 0.5116429495472187 0.5261966364812419 0.5378395860284605 0.5456015523932729 0.5126131953428201 0.4796248382923674 0.4466364812419146 0.4000646830530401 0.3340879689521345 0.23124191461837 0.21474773609314365 0.2069857697283312 0.20213454075032344 0.19728331177231567 0.1953428201811125 0.1953428201811125 0.1953428201811125 0.19340232858990947 0.18564036222509706 0.16138421733505826 0.15362225097024582 0.14877102199223807 0.14683053040103494 0.1439197930142303 0.13033635187580855 0.1274256144890039 0.1254851228978008 0.12451487710219925,0.8292367399741267 0.8046571798188875 0.7852522639068564 0.7580853816300129 0.7179818887451488 0.5161707632600259 0.4514877102199224 0.4165588615782665 0.3842173350582148 0.3570504527813713 0.31565329883570503 0.3065976714100905 0.3001293661060802 0.294954721862872 0.2897800776196636 0.2858990944372575 0.2858990944372575 0.2858990944372575 0.2858990944372575 0.2846054333764554 0.2716688227684346 0.2613195342820181 0.2483829236739974 0.2406209573091849 0.2289780077619664 0.17335058214747734 0.1591203104786546 0.1500646830530401 0.14877102199223802,650.0 670.0 690.0 710.0 730.0 750.0 770.0 790.0 810.0 830.0 850.0 870.0 890.0 910.0 930.0 950.0 970.0 990.0 1010.0 1030.0 1050.0 1070.0 1090.0 1110.0 1130.0 1150.0 1170.0 1190.0 1210.0
cb_04,28.0,enc_trial,stim,response,STEM students,1216.4999999880674,enc_trial,1.0,28.0,s_s_17_2,student_stem,fold-e,ring stand,4.0,unique,far,paired,s_s_17_2.jpg,stem,student-b1,STEM students,Fine Arts students,sub-83,1.0,1.0,1.0,1.0,0.5203751617076326 0.508732212160414 0.4980595084087969 0.4922380336351876 0.4854463130659768 0.4602199223803364 0.4291720569210867 0.39036222509702456 0.3554333764553687 0.3321474773609315 0.29818887451487713 0.2642302716688228 0.24676584734799484 0.2370633893919793 0.23512289780077625 0.23124191461837 0.23027166882276845 0.2283311772315653 0.22445019404915914 0.21862871927554986 0.2166882276843468 0.21183699870633896 0.20310478654592493 0.19340232858990947 0.1846701164294955 0.16623544631306605 0.15459249676584738 0.1458602846054334 0.14294954721862874 0.1419793014230272,0.7917205692108668 0.6675291073738681 0.5730918499353169 0.5097024579560155 0.4721862871927554 0.3932729624838293 0.3518758085381629 0.3104786545924968 0.2755498059508409 0.25226390685640365 0.2276843467011644 0.21086675291073745 0.19663648124191446 0.1862871927554981 0.18369987063389392 0.18111254851228967 0.18111254851228967 0.18111254851228967 0.18111254851228967 0.18111254851228967 0.18111254851228967 0.17981888745148766 0.1772315653298836 0.17335058214747734 0.1694695989650712 0.1591203104786546 0.15653298835705046 0.15265200517464428 0.1513583441138422 0.1513583441138422,550.0 570.0 590.0 610.0 630.0 650.0 670.0 690.0 710.0 730.0 750.0 770.0 790.0 810.0 830.0 850.0 870.0 890.0 910.0 930.0 950.0 970.0 990.0 1010.0 1030.0 1050.0 1070.0 1090.0 1110.0 1130.0
cb_04,29.0,enc_trial,stim,response,Fine Arts students,1285.0000000119326,enc_trial,1.0,29.0,s_sh_10_1,student_shared,fold-b,scissors,4.0,competing,close,paired,s_sh_10_1.jpg,,student-b1,STEM students,Fine Arts students,sub-83,0.0,0.0,1.0,0.0,0.5310478654592496 0.5553040103492884 0.565006468305304 0.5717981888745148 0.5747089262613195 0.5698576972833118 0.5601552393272963 0.5601552393272963 0.5698576972833118 0.5863518758085382 0.6222509702457956 0.6416558861578266 0.6630012936610608 0.6843467011642951 0.7037516170763259 0.7280077619663647 0.7309184993531694 0.7347994825355757 0.7377102199223803 0.7454721862871927 0.7726390685640362 0.7891332470892626 0.8065976714100905 0.8240620957309185 0.8386157826649417 0.8551099611901681 0.8609314359637774 0.8677231565329884 0.8745148771021992 0.8764553686934023,0.7891332470892626 0.7477360931435963 0.7257438551099612 0.7037516170763258 0.6791720569210866 0.5666235446313066 0.5071151358344114 0.4579560155239327 0.4049159120310478 0.3648124191461837 0.3195342820181113 0.3027166882276844 0.2871927554980596 0.2652005174644243 0.24450194049159124 0.21086675291073745 0.20827943078913325 0.20569210866752907 0.20051746442432086 0.19146183699870634 0.15782664941785252 0.14747736093143593 0.1410090556274256 0.13583441138421734 0.13454075032341528 0.13454075032341528 0.13454075032341528 0.13454075032341528 0.13583441138421734 0.13712807244501946,599.9000000000233 619.9000000000233 639.9000000000233 659.9000000000233 679.9000000000233 699.9000000000232 719.9000000000232 739.9000000000232 759.9000000000232 779.9000000000232 799.9000000000232 819.9000000000232 839.9000000000232 859.9000000000232 879.9000000000232 899.9000000000232 919.9000000000232 939.9000000000232 959.9000000000232 979.9000000000232 999.9000000000232 1019.9000000000232 1039.9000000000233 1059.9000000000233 1079.9000000000233 1099.9000000000233 1119.9000000000233 1139.9000000000233 1159.9000000000233 1179.9000000000233
cb_04,30.0,enc_trial,stim,response,Fine Arts students,1638.2000000119442,enc_trial,1.0,30.0,s_a_10_1,student_art,fold-a,tripod,4.0,unique,close,paired,s_a_10_1.jpg,art,student-b1,STEM students,Fine Arts students,sub-83,1.0,1.0,1.0,1.0,0.5291073738680465 0.5999353169469599 0.6824062095730918 0.7522639068564037 0.7930142302716688 0.8376455368693402 0.8599611901681758 0.8861578266494178 0.907503234152652 0.9191461836998706 0.9239974126778784 0.9239974126778784 0.9239974126778784 0.9239974126778784 0.9191461836998706 0.9152652005174644 0.9152652005174644 0.9133247089262612 0.907503234152652 0.9045924967658472 0.8793661060802069 0.8677231565329884 0.8580206985769728 0.8551099611901681 0.8551099611901681 0.8551099611901681 0.8560802069857697 0.8570504527813713,0.7865459249676585 0.702457956015524 0.5989650711513583 0.4967658473479948 0.4126778783958602 0.294954721862872 0.2380336351875808 0.1759379042690815 0.12160413971539452 0.0879689521345407 0.07503234152652005 0.07503234152652005 0.07503234152652005 0.07503234152652005 0.07761966364812423 0.08020698576972829 0.08020698576972829 0.08020698576972829 0.08538163001293664 0.0879689521345407 0.12031047865459255 0.13842173350582146 0.15265200517464428 0.15653298835705046 0.15653298835705046 0.15653298835705046 0.15394566623544634 0.1513583441138422,916.6000000000348 936.6000000000348 956.6000000000348 976.6000000000348 996.6000000000348 1016.6000000000348 1036.600000000035 1056.600000000035 1076.600000000035 1096.600000000035 1116.600000000035 1136.600000000035 1156.600000000035 1176.600000000035 1196.600000000035 1216.600000000035 1236.600000000035 1256.600000000035 1276.600000000035 1296.600000000035 1316.600000000035 1336.600000000035 1356.600000000035 1376.6000000000352 1396.6000000000352 1416.6000000000352 1436.6000000000352 1456.6000000000352
cb_04,31.0,enc_trial,stim,response,STEM students,1169.100000023842,enc_trial,1.0,31.0,s_s_05_2,student_stem,fold-a,lab goggles,4.0,unique,close,paired,s_s_05_2.jpg,stem,student-b1,STEM students,Fine Arts students,sub-83,1.0,1.0,1.0,1.0,0.4990297542043984 0.4990297542043984 0.4980595084087969 0.4728331177231566 0.426261319534282 0.3088615782664942 0.2613195342820181 0.2195989650711513 0.1885510996119017 0.1681759379042691 0.15265200517464428 0.14877102199223807 0.14683053040103494 0.1419793014230272 0.13518758085381632 0.1177231565329884 0.11481241914618373 0.11481241914618373 0.11384217335058218 0.11384217335058218 0.11578266494178527 0.12257438551099616 0.138098318240621 0.1419793014230272 0.1419793014230272 0.1419793014230272 0.1419793014230272 0.14294954721862874 0.1439197930142303,0.8098318240620958 0.741267787839586 0.6765847347994826 0.59379042690815 0.5058214747736094 0.32212160413971536 0.24320827943078915 0.17335058214747734 0.12807244501940496 0.09961190168175936 0.08020698576972829 0.07503234152652005 0.07115135834411379 0.06080206985769732 0.045278137128072486 0.010349288486416586 0.006468305304010325 0.006468305304010325 0.006468305304010325 0.006468305304010325 0.03234152652005173 0.058214747736093135 0.0970245795601552 0.10866752910737387 0.10996119016817596 0.10996119016817596 0.11125485122897803 0.11772315653298834 0.12031047865459255,566.5999999999767 586.5999999999767 606.5999999999767 626.5999999999767 646.5999999999767 666.5999999999767 686.5999999999767 706.5999999999768 726.5999999999768 746.5999999999768 766.5999999999768 786.5999999999768 806.5999999999768 826.5999999999768 846.5999999999768 866.5999999999768 886.5999999999768 906.5999999999768 926.5999999999768 946.5999999999768 966.5999999999768 986.5999999999768 1006.5999999999768 1026.5999999999767 1046.5999999999767 1066.5999999999767 1086.5999999999767 1106.5999999999767 1126.5999999999767
cb_04,32.0,enc_trial,stim,response,STEM students,1543.300000035786,enc_trial,1.0,32.0,s_sh_14_2,student_shared,fold-b,printer,4.0,competing,close,paired,s_sh_14_2.jpg,,student-b1,STEM students,Fine Arts students,sub-83,1.0,1.0,0.0,1.0,0.5097024579560155 0.5145536869340233 0.5155239327296248 0.5155239327296248 0.5155239327296248 0.5145536869340233 0.508732212160414 0.5067917205692108 0.5029107373868047 0.4980595084087969 0.4854463130659768 0.4747736093143596 0.46313065976714096 0.4466364812419146 0.4165588615782665 0.3690168175937905 0.3573738680465718 0.3447606727037516 0.33311772315653304 0.3146830530401035 0.296248382923674 0.2894566623544632 0.2846054333764554 0.2719922380336352 0.25452781371280725 0.21765847347994827 0.19825355756791724 0.1739974126778784 0.15459249676584738 0.14100905562742566 0.11869340232858995 0.11093143596377752,0.8098318240620958 0.7749029754204398 0.7490297542043984 0.7283311772315653 0.7063389391979301 0.6869340232858991 0.6390685640362226 0.6144890038809832 0.5860284605433377 0.5627425614489003 0.5122897800776196 0.48124191461837 0.4579560155239327 0.4282018111254852 0.3829236739974127 0.31565329883570503 0.29754204398447603 0.2833117723156533 0.26908150064683056 0.2496765847347995 0.22639068564036224 0.2212160413971539 0.21862871927554986 0.21345407503234148 0.20827943078913325 0.20051746442432086 0.19663648124191446 0.19146183699870634 0.18758085381630007 0.18369987063389392 0.17076326002587328 0.16558861578266493,716.6000000000349 736.6000000000349 756.6000000000349 776.6000000000349 796.6000000000349 816.6000000000349 836.6000000000349 856.6000000000349 876.6000000000349 896.6000000000349 916.6000000000348 936.6000000000348 956.6000000000348 976.6000000000348 996.6000000000348 1016.6000000000348 1036.600000000035 1056.600000000035 1076.600000000035 1096.600000000035 1116.600000000035 1136.600000000035 1156.600000000035 1176.600000000035 1196.600000000035 1216.600000000035 1236.600000000035 1256.600000000035 1276.600000000035 1296.600000000035 1316.600000000035 1336.600000000035
cb_04,33.0,enc_trial,stim,response,Fine Arts students,1446.1000000238419,enc_trial,1.0,33.0,s_sh_10_2,student_shared,fold-b,scissors,4.0,competing,close,paired,s_sh_10_2.jpg,,student-b1,STEM students,Fine Arts students,sub-83,0.0,0.0,1.0,0.0,0.5155239327296248 0.5620957309184994 0.6513583441138422 0.7415912031047865 0.8046571798188874 0.8599611901681758 0.8832470892626132 0.9065329883570504 0.9181759379042692 0.9220569210866753 0.9220569210866753 0.9220569210866753 0.9220569210866753 0.9220569210866753 0.9191461836998706 0.9055627425614488 0.9007115135834411 0.8987710219922379 0.8958602846054333 0.8948900388098318 0.8939197930142302 0.8900388098318242 0.8880983182406209 0.8842173350582148 0.8832470892626132 0.8793661060802069 0.8783958602846054 0.8783958602846054 0.8783958602846054 0.8783958602846054 0.8783958602846054,0.8007761966364813 0.7360931435963778 0.6222509702457957 0.4799482535575679 0.3803363518758085 0.2664941785252264 0.20310478654592493 0.1423027166882277 0.1047865459249676 0.08926261319534279 0.08926261319534279 0.08926261319534279 0.08926261319534279 0.08926261319534279 0.08926261319534279 0.08926261319534279 0.09055627425614488 0.09055627425614488 0.09314359637774904 0.09314359637774904 0.09314359637774904 0.09831824062095727 0.1047865459249676 0.11254851228978002 0.1228978007761966 0.13842173350582146 0.14359637774902978 0.1500646830530401 0.15523932729624834 0.1604139715394567 0.16300129366106075,616.5999999999767 636.5999999999767 656.5999999999767 676.5999999999767 696.5999999999768 716.5999999999768 736.5999999999768 756.5999999999768 776.5999999999768 796.5999999999768 816.5999999999768 836.5999999999768 856.5999999999768 876.5999999999768 896.5999999999768 916.5999999999768 936.5999999999768 956.5999999999768 976.5999999999768 996.5999999999768 1016.5999999999768 1036.5999999999767 1056.5999999999767 1076.5999999999767 1096.5999999999767 1116.5999999999767 1136.5999999999767 1156.5999999999767 1176.5999999999767 1196.5999999999767 1216.5999999999767
cb_04,34.0,enc_trial,stim,response,Fine Arts students,1457.2000000238183,enc_trial,1.0,34.0,s_a_09_2,student_art,fold-e,picture frame,4.0,unique,far,paired,s_a_09_2.jpg,art,student-b1,STEM students,Fine Arts students,sub-83,1.0,1.0,1.0,1.0,0.4738033635187581 0.480595084087969 0.4961190168175938 0.5494825355756792 0.5950840879689522 0.6804657179818887 0.693078913324709 0.693078913324709 0.6785252263906856 0.6600905562742562 0.6183699870633894 0.5950840879689522 0.5776196636481242 0.5727684346701164 0.5727684346701164 0.6164294954721863 0.6630012936610608 0.7212160413971539 0.7774902975420441 0.8153298835705045 0.8347347994825356 0.8347347994825356 0.8376455368693402 0.8473479948253557 0.8686934023285899 0.8813065976714101 0.8871280724450193 0.8939197930142302 0.9084734799482536 0.9298188874514876 0.9637774902975421 0.9637774902975421 0.9637774902975421 0.9637774902975421 0.9637774902975421 0.9637774902975421 0.9579560155239328 0.946313065976714 0.933699870633894 0.9259379042690816 0.9133247089262612 0.9065329883570504 0.9007115135834411 0.8968305304010349 0.8939197930142302,0.8046571798188875 0.7930142302716688 0.7697283311772316 0.7141009055627425 0.6558861578266495 0.48124191461837 0.4126778783958602 0.369987063389392 0.33247089262613194 0.3040103492884865 0.2600258732212161 0.2419146183699871 0.22380336351875807 0.2121604139715395 0.20051746442432086 0.1759379042690815 0.1604139715394567 0.13842173350582146 0.1241914618369987 0.11901681759379044 0.11901681759379044 0.11901681759379044 0.11901681759379044 0.12160413971539452 0.12936610608020693 0.13454075032341528 0.1410090556274256 0.14747736093143593 0.15653298835705046 0.1591203104786546 0.1591203104786546 0.1591203104786546 0.1591203104786546 0.1591203104786546 0.1591203104786546 0.1591203104786546 0.1591203104786546 0.1591203104786546 0.1591203104786546 0.1591203104786546 0.1591203104786546 0.1591203104786546 0.1591203104786546 0.1591203104786546 0.15782664941785252,533.1999999999534 553.1999999999534 573.1999999999534 593.1999999999534 613.1999999999534 633.1999999999534 653.1999999999534 673.1999999999534 693.1999999999533 713.1999999999533 733.1999999999533 753.1999999999533 773.1999999999533 793.1999999999533 813.1999999999533 833.1999999999533 853.1999999999533 873.1999999999533 893.1999999999533 913.1999999999533 933.1999999999533 953.1999999999533 973.1999999999533 993.1999999999533 1013.1999999999533 1033.1999999999532 1053.1999999999532 1073.1999999999532 1093.1999999999532 1113.1999999999532 1133.1999999999534 1153.1999999999534 1173.1999999999534 1193.1999999999534 1213.1999999999534 1233.1999999999534 1253.1999999999534 1273.1999999999534 1293.1999999999534 1313.1999999999534 1333.1999999999534 1353.1999999999534 1373.1999999999534 1393.1999999999537 1413.1999999999537
cb_04,35.0,enc_trial,stim,response,Fine Arts students,1403.8000000238535,enc_trial,1.0,35.0,s_a_10_2,student_art,fold-a,tripod,4.0,unique,close,paired,s_a_10_2.jpg,art,student-b1,STEM students,Fine Arts students,sub-83,1.0,1.0,1.0,1.0,0.517464424320828 0.508732212160414 0.489327296248383 0.4514877102199224 0.40685640362225095 0.32244501940491593 0.29527813712807244 0.2846054333764554 0.2836351875808538 0.28266494178525226 0.28169469598965075 0.28169469598965075 0.28169469598965075 0.28169469598965075 0.28169469598965075 0.28169469598965075 0.3030401034928849 0.35446313065976714 0.4252910737386805 0.5145536869340233 0.6377749029754204 0.6630012936610608 0.6756144890038809 0.6853169469598965 0.6891979301423027 0.6969598965071151 0.7027813712807245 0.7173350582147477 0.7280077619663647 0.7338292367399741 0.7454721862871927 0.7522639068564037 0.7639068564036222 0.7833117723156533 0.805627425614489 0.8289133247089262 0.8347347994825356 0.8444372574385509 0.8512289780077621 0.8551099611901681 0.8560802069857697 0.8560802069857697,0.8137128072445019 0.7671410090556274 0.6959896507115135 0.6002587322121604 0.4928848641655886 0.3091849935316947 0.2613195342820181 0.2380336351875808 0.23544631306597674 0.2315653298835705 0.2302716688227684 0.2302716688227684 0.2302716688227684 0.2302716688227684 0.2302716688227684 0.22380336351875807 0.20439844760672696 0.18240620957309184 0.15653298835705046 0.1241914618369987 0.09961190168175936 0.09961190168175936 0.09961190168175936 0.09961190168175936 0.09961190168175936 0.09831824062095727 0.09831824062095727 0.09443725743855114 0.09055627425614488 0.08667529107373872 0.08020698576972829 0.07761966364812423 0.07373868046571798 0.07373868046571798 0.07373868046571798 0.07891332470892631 0.08150064683053038 0.0879689521345407 0.09314359637774904 0.0970245795601552 0.10219922380336356 0.10349288486416564,516.6000000000348 536.6000000000348 556.6000000000348 576.6000000000347 596.6000000000347 616.6000000000347 636.6000000000347 656.6000000000347 676.6000000000347 696.6000000000348 716.6000000000348 736.6000000000348 756.6000000000348 776.6000000000348 796.6000000000348 816.6000000000348 836.6000000000348 856.6000000000348 876.6000000000348 896.6000000000348 916.6000000000348 936.6000000000348 956.6000000000348 976.6000000000348 996.6000000000348 1016.6000000000348 1036.600000000035 1056.600000000035 1076.600000000035 1096.600000000035 1116.600000000035 1136.600000000035 1156.600000000035 1176.600000000035 1196.600000000035 1216.600000000035 1236.600000000035 1256.600000000035 1276.600000000035 1296.600000000035 1316.600000000035 1336.600000000035
cb_04,36.0,enc_trial,stim,response,STEM students,2592.6000000357744,enc_trial,1.0,36.0,s_sh_19_2,student_shared,fold-a,portable plastic drawer,4.0,competing,far,paired,s_sh_19_2.jpg,,student-b1,STEM students,Fine Arts students,sub-83,0.0,0.0,1.0,0.0,0.4864165588615783 0.4883570504527814 0.4922380336351876 0.4961190168175938 0.5058214747736093 0.5213454075032341 0.5252263906856404 0.5310478654592496 0.5388098318240621 0.5494825355756792 0.5834411384217335 0.5979948253557568 0.6076972833117723 0.6164294954721863 0.6232212160413971 0.6959896507115135 0.7396507115135834 0.7862225097024579 0.8133893919793014 0.8269728331177232 0.8347347994825356 0.8366752910737386 0.8386157826649417 0.8386157826649417 0.8386157826649417 0.8386157826649417 0.8386157826649417 0.8386157826649417 0.8386157826649417 0.8386157826649417 0.8376455368693402 0.835705045278137 0.8318240620957309 0.8279430789133246 0.8211513583441138 0.8124191461836998 0.8104786545924968 0.8085381630012937 0.8075679172056921 0.8046571798188874 0.8036869340232858 0.8027166882276843 0.8007761966364813 0.7978654592496766 0.7910737386804657 0.7542043984476067 0.6785252263906856 0.5591849935316947 0.4194695989650711 0.2836351875808538 0.07309184993531698 0.025549805950840915 0.004204398447606763 -0.00549805950840876 -0.0074385510996118655 -0.008408796895213417 -0.008408796895213417 -0.008408796895213417 -0.008408796895213417 -0.008408796895213417 -0.0064683053040103106 -0.0064683053040103106 -0.0064683053040103106 -0.0064683053040103106 -0.0064683053040103106 -0.0064683053040103106 -0.012289780077619626 -0.018111254851228945 -0.0210219922380336 -0.022962483829236702 -0.026843467011642908 -0.030724450194049117 -0.037516170763259984 -0.04430789133247085 -0.05109961190168172 -0.05983182406209569 -0.05983182406209569 -0.05983182406209569 -0.057891332470892586 -0.03557567917205688 0.012936610608020734 0.030401034928848675 0.0420439844760673 0.05271668822768438 0.05659767141009059 0.06630012936610613 0.06921086675291077 0.07018111254851232 0.07309184993531698 0.07988357050452785 0.09637774902975424 0.10802069857697286 0.10996119016817596 0.11190168175937908 0.11481241914618373 0.11578266494178527 0.11287192755498066 0.10413971539456664 0.09152652005174647 0.08473479948253561 0.08182406209573095,0.8085381630012937 0.8007761966364813 0.7865459249676585 0.7723156532988357 0.7516170763260026 0.7283311772315653 0.7231565329883571 0.7128072445019404 0.6998706338939198 0.6791720569210866 0.6274256144890038 0.6054333764553688 0.5860284605433377 0.5666235446313066 0.5381630012936611 0.3479948253557568 0.2509702457956016 0.166882276843467 0.12160413971539452 0.1060802069857697 0.09961190168175936 0.09961190168175936 0.09961190168175936 0.09961190168175936 0.09961190168175936 0.09961190168175936 0.10219922380336356 0.10349288486416564 0.1060802069857697 0.1060802069857697 0.11125485122897803 0.1151358344113842 0.12031047865459255 0.1241914618369987 0.13065976714100902 0.1423027166882277 0.14489003880983187 0.14877102199223802 0.15265200517464428 0.1604139715394567 0.166882276843467 0.17076326002587328 0.1759379042690815 0.18111254851228967 0.18369987063389392 0.1953428201811126 0.1953428201811126 0.184993531694696 0.15782664941785252 0.13065976714100902 0.09573091849935322 0.09573091849935322 0.09573091849935322 0.09573091849935322 0.09573091849935322 0.0970245795601552 0.10090556274256146 0.10349288486416564 0.1047865459249676 0.10866752910737387 0.11772315653298834 0.12031047865459255 0.12160413971539452 0.12160413971539452 0.12160413971539452 0.12160413971539452 0.1228978007761966 0.1228978007761966 0.1228978007761966 0.1228978007761966 0.1228978007761966 0.1228978007761966 0.12548512289780078 0.1319534282018111 0.13583441138421734 0.1410090556274256 0.1410090556274256 0.1410090556274256 0.14359637774902978 0.14618369987063384 0.14618369987063384 0.14618369987063384 0.14618369987063384 0.14489003880983187 0.14489003880983187 0.14489003880983187 0.14489003880983187 0.14489003880983187 0.14489003880983187 0.14359637774902978 0.13971539456662352 0.13842173350582146 0.13842173350582146 0.13842173350582146 0.13971539456662352 0.13971539456662352 0.13971539456662352 0.13971539456662352 0.13971539456662352 0.13971539456662352 0.13842173350582146,466.60000000003487 486.60000000003487 506.60000000003487 526.6000000000348 546.6000000000348 566.6000000000348 586.6000000000348 606.6000000000348 626.6000000000348 646.6000000000348 666.6000000000348 686.6000000000348 706.6000000000349 726.6000000000349 746.6000000000349 766.6000000000349 786.6000000000349 806.6000000000349 826.6000000000349 846.6000000000349 866.6000000000349 886.6000000000349 906.6000000000348 926.6000000000348 946.6000000000348 966.6000000000348 986.6000000000348 1006.6000000000348 1026.600000000035 1046.600000000035 1066.600000000035 1086.600000000035 1106.600000000035 1126.600000000035 1146.600000000035 1166.600000000035 1186.600000000035 1206.600000000035 1226.600000000035 1246.600000000035 1266.600000000035 1286.600000000035 1306.600000000035 1326.600000000035 1346.600000000035 1366.600000000035 1386.6000000000352 1406.6000000000352 1426.6000000000352 1446.6000000000352 1466.6000000000352 1486.6000000000352 1506.6000000000352 1526.6000000000352 1546.6000000000352 1566.6000000000352 1586.6000000000352 1606.6000000000352 1626.6000000000352 1646.6000000000352 1666.6000000000352 1686.6000000000352 1706.6000000000352 1726.6000000000352 1746.6000000000352 1766.6000000000352 1786.6000000000352 1806.6000000000352 1826.6000000000352 1846.6000000000352 1866.6000000000352 1886.6000000000352 1906.6000000000352 1926.6000000000352 1946.6000000000352 1966.6000000000352 1986.6000000000352 2006.6000000000352 2026.6000000000352 2046.6000000000352 2066.600000000035 2086.600000000035 2106.600000000035 2126.600000000035 2146.600000000035 2166.600000000035 2186.600000000035 2206.600000000035 2226.600000000035 2246.600000000035 2266.600000000035 2286.600000000035 2306.600000000035 2326.600000000035 2346.600000000035 2366.600000000035 2386.600000000035 2406.600000000035 2426.600000000035 2446.600000000035 2466.600000000035
cb_04,37.0,enc_trial,stim,response,STEM students,1621.5999999881024,enc_trial,1.0,37.0,s_sh_22_1,student_shared,fold-c-single,hole puncher,4.0,competing,,single,s_sh_22_1.jpg,,student-b1,STEM students,Fine Arts students,sub-83,1.0,,1.0,,0.5378395860284605 0.5281371280724451 0.5077619663648124 0.4796248382923674 0.4398447606727038 0.39715394566623546 0.2855756791720569 0.23609314359637776 0.1866106080206986 0.14294954721862874 0.08667529107373871 0.07018111254851232 0.058538163001293685 0.05271668822768438 0.050776196636481266 0.050776196636481266 0.050776196636481266 0.050776196636481266 0.050776196636481266 0.050776196636481266 0.04689521345407507 0.04495472186287197 0.0381630012936611 0.035252263906856436 0.029430789133247124 0.025549805950840915 0.025549805950840915 0.026520051746442463 0.0381630012936611 0.050776196636481266 0.06630012936610613 0.07212160413971543 0.07600258732212163 0.07794307891332472 0.0827943078913325 0.08667529107373871 0.09346701164294956 0.09443725743855112,0.8214747736093144 0.7736093143596378 0.7076326002587322 0.6364812419146184 0.55627425614489 0.4747736093143596 0.3182406209573092 0.2639068564036222 0.20827943078913325 0.16558861578266493 0.11772315653298834 0.1073738680465718 0.10090556274256146 0.09314359637774904 0.0879689521345407 0.07891332470892631 0.07632600258732214 0.07115135834411379 0.06856403622250973 0.06597671410090555 0.05950840879689522 0.053040103492884905 0.04010349288486415 0.024579560155239318 0.012936610608020649 0.007761966364812411 0.007761966364812411 0.011642949547218671 0.03363518758085382 0.053040103492884905 0.08279430789133246 0.09314359637774904 0.10349288486416564 0.11254851228978002 0.1241914618369987 0.13065976714100902 0.13971539456662352 0.13971539456662352,783.1000000000349 803.1000000000349 823.1000000000349 843.1000000000349 863.1000000000349 883.1000000000349 903.1000000000348 923.1000000000348 943.1000000000348 963.1000000000348 983.1000000000348 1003.1000000000348 1023.1000000000348 1043.100000000035 1063.100000000035 1083.100000000035 1103.100000000035 1123.100000000035 1143.100000000035 1163.100000000035 1183.100000000035 1203.100000000035 1223.100000000035 1243.100000000035 1263.100000000035 1283.100000000035 1303.100000000035 1323.100000000035 1343.100000000035 1363.100000000035 1383.1000000000352 1403.1000000000352 1423.1000000000352 1443.1000000000352 1463.1000000000352 1483.1000000000352 1503.1000000000352 1523.1000000000352
