Current Spreadsheet,Trial Number,Display,Screen,Response Type,Response,Reaction Time,display,block,block_trial,stimulus_id,expected_goal,fold,stimulus_name,c_group,condition,within_block_dist,paired_status,stimulus_path,expected_location,block_split,respStim_1,respStim_2,sub_label,acc,both_enc_acc,assoc_stim1_acc,assoc_stim2_acc,x_pos,y_pos,time_trajectories
cb_07,1.0,enc_trial,stim,response,Iceland trip,1684.9999999910654,enc_trial,1.0,1.0,t_s_02_1,travel_shared,fold-b,water bottle,7.0,competing,far,paired,t_s_02_1.jpg,,travel-b1,Iceland trip,Miami trip,sub-07,0.0,0.0,1.0,1.0,0.5 0.4988814317673378 0.4988814317673378 0.494407158836689 0.494407158836689 0.494407158836689 0.494407158836689 0.494407158836689 0.494407158836689 0.494407158836689 0.494407158836689 0.494407158836689 0.494407158836689 0.494407158836689 0.494407158836689 0.494407158836689 0.494407158836689 0.494407158836689 0.494407158836689 0.494407158836689 0.494407158836689 0.494407158836689 0.494407158836689 0.494407158836689 0.494407158836689 0.494407158836689 0.494407158836689 0.494407158836689 0.494407158836689 0.494407158836689 0.494407158836689 0.494407158836689 0.494407158836689 0.4854586129753915 0.4765100671140939 0.4586129753914989 0.436241610738255 0.41946308724832215 0.3982102908277405 0.3791946308724832 0.3736017897091721 0.3680089485458613 0.36017897091722595 0.3568232662192394 0.3478747203579418 0.3434004474272931 0.3411633109619687 0.3400447427293065 0.3366890380313199 0.3355704697986577 0.3355704697986577 0.3310961968680089 0.3243847874720358 0.3120805369127517 0.3042505592841163 0.2986577181208054 0.2841163310961969 0.2684563758389262 0.2527964205816555 0.2393736017897092 0.2360178970917226 0.23154362416107385 0.22930648769574946 0.22483221476510068 0.21364653243847875 0.20917225950783 0.2058165548098434 0.19798657718120805 0.1935123042505593 0.18568232662192394 0.18008948545861295 0.1767337807606264 0.1767337807606264 0.1767337807606264 0.1756152125279642 0.1756152125279642 0.1756152125279642 0.1756152125279642 0.1756152125279642 0.17449664429530198 0.17337807606263986,0.8251304996271439 0.8251304996271439 0.8251304996271439 0.8296047725577926 0.8296047725577926 0.8296047725577926 0.8296047725577926 0.8296047725577926 0.8296047725577926 0.8296047725577926 0.8296047725577926 0.8296047725577926 0.8296047725577926 0.8296047725577926 0.8296047725577926 0.8296047725577926 0.8296047725577926 0.8296047725577926 0.8296047725577926 0.8296047725577926 0.8296047725577926 0.8296047725577926 0.8296047725577926 0.8296047725577926 0.8296047725577926 0.8296047725577926 0.8296047725577926 0.8296047725577926 0.8296047725577926 0.8296047725577926 0.8296047725577926 0.8296047725577926 0.8296047725577926 0.772930648769575 0.714765100671141 0.6580909768829232 0.5999254287844892 0.558165548098434 0.5089485458612976 0.4522744220730798 0.4313944817300521 0.4149888143176734 0.4060402684563759 0.4000745712155108 0.3851603281133482 0.37770320656226697 0.3747203579418345 0.3687546607009694 0.35831469052945564 0.3389261744966443 0.33146905294556306 0.3210290827740492 0.30164056674123785 0.2807606263982103 0.2658463832960477 0.2568978374347501 0.24347501864280385 0.22856077554064136 0.21513795674869496 0.19724086502609994 0.19425801640566745 0.1912751677852349 0.18680089485458606 0.18232662192393734 0.16741237882177484 0.16741237882177484 0.162938105891126 0.15995525727069348 0.15548098434004476 0.14951528709917972 0.1480238627889635 0.1480238627889635 0.1465324384787472 0.1465324384787472 0.1465324384787472 0.1465324384787472 0.1465324384787472 0.1465324384787472 0.1465324384787472 0.1465324384787472 0.1465324384787472,0.0 20.0 40.0 60.0 80.0 100.0 120.0 140.0 160.0 180.0 200.0 220.0 240.0 260.0 280.0 300.0 320.0 340.0 360.0 380.0 400.0 420.0 440.0 460.0 480.0 500.0 520.0 540.0 560.0 580.0 600.0 620.0 640.0 660.0 680.0 700.0 720.0 740.0 760.0 780.0 800.0 820.0 840.0 860.0 880.0 900.0 920.0 940.0 960.0 980.0 1000.0 1020.0 1040.0 1060.0 1080.0 1100.0 1120.0 1140.0 1160.0 1180.0 1200.0 1220.0 1240.0 1260.0 1280.0 1300.0 1320.0 1340.0 1360.0 1380.0 1400.0 1420.0 1440.0 1460.0 1480.0 1500.0 1520.0 1540.0 1560.0 1580.0 1600.0
cb_07,2.0,enc_trial,stim,response,Iceland trip,1198.0,enc_trial,1.0,2.0,t_s_18_1,travel_shared,fold-a,first aid kit,7.0,competing,close,paired,t_s_18_1.jpg,,travel-b1,Iceland trip,Miami trip,sub-07,0.0,0.0,1.0,1.0,0.5 0.4988814317673378 0.4988814317673378 0.4966442953020134 0.4932885906040269 0.4910514541387024 0.4776286353467562 0.4776286353467562 0.47091722595078295 0.4138702460850112 0.4138702460850112 0.3713646532438479 0.31767337807606266 0.3008948545861297 0.28523489932885904 0.2595078299776286 0.2225950782997763 0.2225950782997763 0.21364653243847875 0.20246085011185685 0.1935123042505593 0.18008948545861295 0.16890380313199105 0.1644295302013423 0.15659955257270694 0.145413870246085 0.12863534675615212 0.12416107382550336 0.12304250559284115,0.8296047725577926 0.8236390753169277 0.8236390753169277 0.8206562266964952 0.8131991051454139 0.8072334079045489 0.7416107382550335 0.7416107382550335 0.6909023117076809 0.41946308724832215 0.41946308724832215 0.3061148396718867 0.15398956002982844 0.1301267710663684 0.11222967934377326 0.09582401193139443 0.08240119313944816 0.08240119313944816 0.08240119313944816 0.08240119313944816 0.08538404175988068 0.09731543624161076 0.12266964951528715 0.12714392244593584 0.1331096196868009 0.13758389261744966 0.14056674123788215 0.13907531692766595 0.13758389261744966,620.2000000000116 640.2000000000116 660.2000000000116 680.2000000000116 700.2000000000116 720.2000000000116 740.2000000000116 760.2000000000116 780.2000000000116 800.2000000000116 820.2000000000116 840.2000000000116 860.2000000000116 880.2000000000116 900.2000000000116 920.2000000000116 940.2000000000116 960.2000000000116 980.2000000000116 1000.2000000000116 1020.2000000000116 1040.2000000000116 1060.2000000000116 1080.2000000000116 1100.2000000000116 1120.2000000000116 1140.2000000000114 1160.2000000000114 1180.2000000000114
cb_07,3.0,enc_trial,stim,response,Iceland trip,1089.699999997014,enc_trial,1.0,3.0,t_s_06_1,travel_shared,fold-b,luggage,7.0,competing,far,paired,t_s_06_1.jpg,,travel-b1,Iceland trip,Miami trip,sub-07,1.0,1.0,0.0,0.0,0.4966442953020134 0.4966442953020134 0.4966442953020134 0.4966442953020134 0.4966442953020134 0.4966442953020134 0.4966442953020134 0.4966442953020134 0.4966442953020134 0.4966442953020134 0.4966442953020134 0.4966442953020134 0.4966442953020134 0.4966442953020134 0.4966442953020134 0.4966442953020134 0.4966442953020134 0.4966442953020134 0.4966442953020134 0.4966442953020134 0.4966442953020134 0.4966442953020134 0.4966442953020134 0.4966442953020134 0.4966442953020134 0.4966442953020134 0.4966442953020134 0.4966442953020134 0.494407158836689 0.494407158836689 0.4888143176733781 0.4798657718120805 0.4720357941834452 0.4552572706935123 0.3691275167785235 0.30313199105145416 0.2751677852348993 0.25727069351230425 0.24049217002237136 0.2360178970917226 0.2259507829977629 0.20917225950783 0.20357941834451893 0.19686800894854584 0.1912751677852349 0.18456375838926176 0.18008948545861295 0.17449664429530198 0.16554809843400448 0.1621923937360179 0.15771812080536912 0.15659955257270694 0.15324384787472034 0.1476510067114094 0.1465324384787472 0.145413870246085,0.8325876211782253 0.8325876211782253 0.8325876211782253 0.8325876211782253 0.8325876211782253 0.8325876211782253 0.8325876211782253 0.8325876211782253 0.8325876211782253 0.8325876211782253 0.8325876211782253 0.8325876211782253 0.8325876211782253 0.8325876211782253 0.8325876211782253 0.8325876211782253 0.8325876211782253 0.8325876211782253 0.8325876211782253 0.8325876211782253 0.8325876211782253 0.8325876211782253 0.8325876211782253 0.8325876211782253 0.8325876211782253 0.8325876211782253 0.8325876211782253 0.8325876211782253 0.8251304996271439 0.8251304996271439 0.8087248322147651 0.7774049217002237 0.7431021625652499 0.6730052199850858 0.4239373601789709 0.2956748695003728 0.2464578672632364 0.2196122296793438 0.2046979865771812 0.20022371364653246 0.20022371364653246 0.19873228933631606 0.19425801640566745 0.1912751677852349 0.1912751677852349 0.1912751677852349 0.1912751677852349 0.1912751677852349 0.18232662192393734 0.1778523489932886 0.17039522744220725 0.16442953020134232 0.1614466815809098 0.15398956002982844 0.14951528709917972 0.1465324384787472,0.0 20.0 40.0 60.0 80.0 100.0 120.0 140.0 160.0 180.0 200.0 220.0 240.0 260.0 280.0 300.0 320.0 340.0 360.0 380.0 400.0 420.0 440.0 460.0 480.0 500.0 520.0 540.0 560.0 580.0 600.0 620.0 640.0 660.0 680.0 700.0 720.0 740.0 760.0 780.0 800.0 820.0 840.0 860.0 880.0 900.0 920.0 940.0 960.0 980.0 1000.0 1020.0 1040.0 1060.0 1080.0 1100.0
cb_07,4.0,enc_trial,stim,response,Iceland trip,1668.1999999910474,enc_trial,1.0,4.0,t_i_11_2,travel_Iceland,fold-d,headlamp,7.0,unique,far,paired,t_i_11_2.jpg,Iceland,travel-b1,Iceland trip,Miami trip,sub-07,1.0,1.0,1.0,1.0,0.4966442953020134 0.4966442953020134 0.4966442953020134 0.4966442953020134 0.4966442953020134 0.4966442953020134 0.4966442953020134 0.4966442953020134 0.4865771812080537 0.4865771812080537 0.4809843400447427 0.4742729306487696 0.465324384787472 0.4608501118568233 0.4519015659955257 0.4272930648769575 0.4205816554809844 0.4161073825503356 0.4138702460850112 0.39932885906040266 0.38031319910514544 0.38031319910514544 0.3747203579418345 0.3736017897091721 0.3881431767337808 0.4082774049217002 0.4306487695749441 0.4541387024608501 0.5615212527964206 0.5615212527964206 0.6196868008948546 0.6655480984340044 0.6879194630872483 0.6968680089485458 0.6935123042505593 0.6756152125279642 0.6331096196868009 0.5939597315436241 0.5615212527964206 0.5044742729306487 0.4821029082774049 0.4586129753914989 0.4351230425055929 0.4015659955257271 0.3680089485458613 0.3120805369127517 0.2841163310961969 0.2539149888143177 0.22930648769574946 0.2080536912751678 0.18232662192393734 0.1756152125279642 0.17337807606263986 0.1644295302013423 0.1599552572706935 0.15771812080536912 0.15436241610738255 0.15436241610738255 0.15436241610738255 0.15436241610738255 0.15436241610738255 0.15436241610738255 0.15436241610738255 0.15436241610738255 0.15436241610738255,0.8325876211782253 0.8325876211782253 0.8251304996271439 0.8146905294556301 0.8102162565249813 0.8057419835943326 0.7997762863534675 0.7997762863534675 0.7117822520507084 0.7117822520507084 0.674496644295302 0.6431767337807606 0.5954511558538405 0.5835197613721104 0.5477255779269202 0.4985085756897838 0.47613721103654 0.4642058165548098 0.4567486950037286 0.4269202087994034 0.4000745712155108 0.4000745712155108 0.3866517524235645 0.3791946308724832 0.3627889634601044 0.3553318419090231 0.3478747203579419 0.3419090231170768 0.3105891126025354 0.3105891126025354 0.2897091722595079 0.2733035048471289 0.2658463832960477 0.25988068605518266 0.2494407158836689 0.24347501864280385 0.24198359433258765 0.2375093214019388 0.2315436241610739 0.2196122296793438 0.21662938105891127 0.21364653243847875 0.21364653243847875 0.21364653243847875 0.21215510812826244 0.19425801640566745 0.18680089485458606 0.17934377330350482 0.17934377330350482 0.18381804623415365 0.18680089485458606 0.18680089485458606 0.18680089485458606 0.18232662192393734 0.1763609246830723 0.17188665175242354 0.16890380313199105 0.16741237882177484 0.16741237882177484 0.16741237882177484 0.16741237882177484 0.16741237882177484 0.16741237882177484 0.16741237882177484 0.16442953020134232,399.8999999999942 419.8999999999942 439.8999999999942 459.8999999999942 479.8999999999942 499.8999999999942 519.8999999999942 539.8999999999942 559.8999999999942 579.8999999999943 599.8999999999943 619.8999999999943 639.8999999999943 659.8999999999943 679.8999999999943 699.8999999999942 719.8999999999942 739.8999999999942 759.8999999999942 779.8999999999942 799.8999999999942 819.8999999999942 839.8999999999942 859.8999999999942 879.8999999999942 899.8999999999942 919.8999999999942 939.8999999999942 959.8999999999942 979.8999999999942 999.8999999999942 1019.8999999999942 1039.8999999999942 1059.8999999999942 1079.8999999999942 1099.8999999999942 1119.8999999999942 1139.8999999999942 1159.8999999999942 1179.8999999999942 1199.8999999999942 1219.8999999999942 1239.8999999999942 1259.8999999999942 1279.8999999999942 1299.8999999999942 1319.8999999999942 1339.8999999999942 1359.8999999999942 1379.8999999999942 1399.8999999999942 1419.8999999999942 1439.8999999999942 1459.8999999999942 1479.8999999999942 1499.8999999999942 1519.8999999999942 1539.8999999999942 1559.8999999999942 1579.8999999999942 1599.8999999999942 1619.8999999999942 1639.8999999999942 1659.8999999999942 1679.8999999999942
cb_07,5.0,enc_trial,stim,response,Iceland trip,1203.8999999999942,enc_trial,1.0,5.0,t_s_18_2,travel_shared,fold-a,first aid kit,7.0,competing,close,paired,t_s_18_2.jpg,,travel-b1,Iceland trip,Miami trip,sub-07,0.0,0.0,1.0,1.0,0.5089485458612976 0.5044742729306487 0.5 0.4921700223713647 0.4865771812080537 0.4753914988814318 0.4630872483221477 0.4541387024608501 0.4541387024608501 0.3970917225950783 0.3747203579418345 0.3747203579418345 0.3467561521252797 0.3098434004474273 0.3098434004474273 0.2684563758389262 0.2684563758389262 0.2527964205816555 0.2472035794183445 0.23378076062639824 0.23378076062639824 0.22818791946308725 0.22371364653243847 0.21700223713646533 0.20246085011185685 0.19798657718120805 0.19798657718120805 0.1935123042505593 0.19015659955257272 0.1789709172259508 0.1789709172259508 0.17449664429530198 0.17449664429530198 0.17337807606263986 0.16331096196868009 0.16331096196868009 0.15883668903803133 0.15659955257270694 0.15436241610738255,0.8355704697986577 0.8251304996271439 0.8176733780760627 0.7938105891126026 0.7774049217002237 0.7475764354958986 0.6819537658463832 0.6208053691275168 0.6208053691275168 0.4835943325876212 0.4507829977628636 0.4507829977628636 0.401565995525727 0.3538404175988069 0.3538404175988069 0.3105891126025354 0.3105891126025354 0.2941834451901566 0.2882177479492916 0.2762863534675615 0.2762863534675615 0.27181208053691275 0.2658463832960477 0.2568978374347501 0.2345264727815063 0.22408650260999247 0.22408650260999247 0.21662938105891127 0.21215510812826244 0.19425801640566745 0.19425801640566745 0.1912751677852349 0.1912751677852349 0.1897837434750187 0.18232662192393734 0.18232662192393734 0.1778523489932886 0.1748695003728561 0.1748695003728561,420.19999999998254 440.19999999998254 460.19999999998254 480.19999999998254 500.19999999998254 520.1999999999825 540.1999999999825 560.1999999999825 580.1999999999825 600.1999999999825 620.1999999999825 640.1999999999825 660.1999999999825 680.1999999999825 700.1999999999824 720.1999999999824 740.1999999999824 760.1999999999824 780.1999999999824 800.1999999999824 820.1999999999824 840.1999999999824 860.1999999999824 880.1999999999824 900.1999999999824 920.1999999999823 940.1999999999823 960.1999999999823 980.1999999999823 1000.1999999999823 1020.1999999999823 1040.1999999999823 1060.1999999999823 1080.1999999999823 1100.1999999999823 1120.1999999999823 1140.1999999999825 1160.1999999999825 1180.1999999999825
cb_07,6.0,enc_trial,stim,response,Miami trip,1343.2999999999886,enc_trial,1.0,6.0,t_m_10_1,travel_Miami,fold-e-single,tanktop,7.0,unique,,single,t_m_10_1.jpg,Miami,travel-b1,Iceland trip,Miami trip,sub-07,1.0,,1.0,,0.494407158836689 0.494407158836689 0.4876957494407159 0.4697986577181208 0.4407158836689038 0.41498881431767337 0.3512304250559284 0.3322147651006712 0.3120805369127517 0.2953020134228188 0.2796420581655481 0.26286353467561524 0.2583892617449665 0.2539149888143177 0.2505592841163311 0.2460850111856823 0.2348993288590604 0.23042505592841164 0.22483221476510068 0.2203579418344519 0.21700223713646533 0.22818791946308725 0.2527964205816555 0.30648769574944074 0.38031319910514544 0.465324384787472 0.6834451901565995 0.7360178970917226 0.767337807606264 0.7930648769574944 0.8120805369127517 0.8366890380313199 0.8400447427293065 0.8422818791946308 0.8422818791946308 0.8422818791946308 0.8568232662192393 0.8780760626398211 0.8870246085011185 0.8881431767337807 0.8892617449664431,0.831096196868009 0.831096196868009 0.8131991051454139 0.772930648769575 0.6953765846383296 0.5790454884414615 0.37770320656226697 0.3478747203579419 0.3240119313944817 0.3061148396718867 0.2941834451901566 0.27926920208799394 0.2733035048471289 0.2658463832960477 0.2568978374347501 0.2494407158836689 0.2315436241610739 0.22706935123042504 0.22110365398956 0.21513795674869496 0.2046979865771812 0.1763609246830723 0.16442953020134232 0.14951528709917972 0.1316181953765846 0.1316181953765846 0.11073825503355704 0.10775540641312452 0.10029828486204327 0.09433258762117824 0.0883668903803132 0.08538404175988068 0.086875466070097 0.0898583146905294 0.09433258762117824 0.10029828486204327 0.11073825503355704 0.1181953765846383 0.1181953765846383 0.1181953765846383 0.1181953765846383,479.8999999999942 499.8999999999942 519.8999999999942 539.8999999999942 559.8999999999942 579.8999999999943 599.8999999999943 619.8999999999943 639.8999999999943 659.8999999999943 679.8999999999943 699.8999999999942 719.8999999999942 739.8999999999942 759.8999999999942 779.8999999999942 799.8999999999942 819.8999999999942 839.8999999999942 859.8999999999942 879.8999999999942 899.8999999999942 919.8999999999942 939.8999999999942 959.8999999999942 979.8999999999942 999.8999999999942 1019.8999999999942 1039.8999999999942 1059.8999999999942 1079.8999999999942 1099.8999999999942 1119.8999999999942 1139.8999999999942 1159.8999999999942 1179.8999999999942 1199.8999999999942 1219.8999999999942 1239.8999999999942 1259.8999999999942 1279.8999999999942
cb_07,7.0,enc_trial,stim,response,Miami trip,1226.5999999880733,enc_trial,1.0,7.0,t_s_21_1,travel_shared,fold-b,umbrella,7.0,competing,far,paired,t_s_21_1.jpg,,travel-b1,Iceland trip,Miami trip,sub-07,0.0,0.0,1.0,1.0,0.5 0.5 0.5 0.5 0.5 0.5 0.5 0.5 0.5 0.5 0.5 0.5 0.5 0.5 0.5 0.5 0.5 0.5 0.5 0.5 0.5 0.5 0.5 0.4910514541387024 0.4854586129753915 0.4832214765100672 0.4910514541387024 0.5033557046979866 0.5380313199105146 0.5503355704697986 0.5615212527964206 0.5883668903803132 0.6096196868008948 0.6532438478747203 0.6767337807606264 0.7192393736017897 0.743847874720358 0.7639821029082774 0.7829977628635347 0.7874720357941835 0.7941834451901566 0.7975391498881432 0.8008948545861297 0.8031319910514542 0.8031319910514542 0.8031319910514542 0.8053691275167785 0.8098434004474273 0.8266219239373602 0.831096196868009 0.8344519015659956 0.8389261744966443 0.8434004474272929 0.8445190156599552 0.8445190156599552 0.8445190156599552 0.8456375838926175 0.8478747203579419,0.8385533184190902 0.8385533184190902 0.8385533184190902 0.8385533184190902 0.8385533184190902 0.8385533184190902 0.8385533184190902 0.8385533184190902 0.8385533184190902 0.8385533184190902 0.8385533184190902 0.8385533184190902 0.8385533184190902 0.8385533184190902 0.8385533184190902 0.8385533184190902 0.8385533184190902 0.8385533184190902 0.8385533184190902 0.8385533184190902 0.8385533184190902 0.8385533184190902 0.8385533184190902 0.8072334079045489 0.7803877703206562 0.7475764354958986 0.6774794929157345 0.6088739746457867 0.5104399701715138 0.4791200596569725 0.4537658463832961 0.41946308724832215 0.4045488441461596 0.38963460104399705 0.3821774794929157 0.35831469052945564 0.3404175988068605 0.325503355704698 0.2956748695003728 0.2867263236390753 0.2688292319164802 0.2643549589858315 0.25988068605518266 0.2583892617449665 0.2583892617449665 0.2568978374347501 0.2524235645041014 0.2449664429530201 0.2196122296793438 0.21215510812826244 0.2046979865771812 0.19724086502609994 0.1897837434750187 0.18530947054436986 0.17934377330350482 0.1763609246830723 0.17188665175242354 0.17188665175242354,100.0 120.0 140.0 160.0 180.0 200.0 220.0 240.0 260.0 280.0 300.0 320.0 340.0 360.0 380.0 400.0 420.0 440.0 460.0 480.0 500.0 520.0 540.0 560.0 580.0 600.0 620.0 640.0 660.0 680.0 700.0 720.0 740.0 760.0 780.0 800.0 820.0 840.0 860.0 880.0 900.0 920.0 940.0 960.0 980.0 1000.0 1020.0 1040.0 1060.0 1080.0 1100.0 1120.0 1140.0 1160.0 1180.0 1200.0 1220.0 1240.0
cb_07,8.0,enc_trial,stim,response,Miami trip,1193.7999999910535,enc_trial,1.0,8.0,t_m_06_2,travel_Miami,fold-c,handheld fan,7.0,unique,close,paired,t_m_06_2.jpg,Miami,travel-b1,Iceland trip,Miami trip,sub-07,1.0,1.0,1.0,1.0,0.4966442953020134 0.4966442953020134 0.4966442953020134 0.4966442953020134 0.4966442953020134 0.4966442953020134 0.4966442953020134 0.4966442953020134 0.4966442953020134 0.4966442953020134 0.4966442953020134 0.4966442953020134 0.4966442953020134 0.4966442953020134 0.4966442953020134 0.4966442953020134 0.4966442953020134 0.4966442953020134 0.4966442953020134 0.5 0.5111856823266219 0.5268456375838926 0.5380313199105146 0.5436241610738255 0.5480984340044742 0.5604026845637584 0.5749440715883669 0.587248322147651 0.5917225950782998 0.5894854586129754 0.5671140939597316 0.5615212527964206 0.5615212527964206 0.5604026845637584 0.5592841163310962 0.5559284116331096 0.5480984340044742 0.5480984340044742 0.5536912751677853 0.5749440715883669 0.6554809843400448 0.7136465324384788 0.7483221476510067 0.7695749440715883 0.7885906040268457 0.8143176733780759 0.8143176733780759 0.8176733780760627 0.8199105145413871 0.8199105145413871 0.8199105145413871 0.8199105145413871 0.8210290827740492 0.8333333333333334 0.8434004474272929 0.8545861297539151 0.8590604026845637 0.8624161073825504 0.8668903803131991 0.8702460850111857,0.8370618941088741 0.8370618941088741 0.8370618941088741 0.8370618941088741 0.8370618941088741 0.8370618941088741 0.8370618941088741 0.8370618941088741 0.8370618941088741 0.8370618941088741 0.8370618941088741 0.8370618941088741 0.8370618941088741 0.8370618941088741 0.8370618941088741 0.8370618941088741 0.8370618941088741 0.8370618941088741 0.8370618941088741 0.8296047725577926 0.7997762863534675 0.7759134973900075 0.7445935868754661 0.7117822520507084 0.6580909768829232 0.5492170022371365 0.5178970917225951 0.4895600298284862 0.4656972408650261 0.4448173005219985 0.401565995525727 0.3926174496644296 0.3866517524235645 0.383668903803132 0.37770320656226697 0.3717375093214019 0.3568232662192393 0.3508575689783744 0.34638329604772555 0.3269947800149142 0.2747949291573453 0.2568978374347501 0.2464578672632364 0.24198359433258765 0.2360178970917226 0.2315436241610739 0.2315436241610739 0.22856077554064136 0.22856077554064136 0.22706935123042504 0.22706935123042504 0.22706935123042504 0.2196122296793438 0.20022371364653246 0.1912751677852349 0.17934377330350482 0.1748695003728561 0.16890380313199105 0.162938105891126 0.15697240865026094,19.89999999999418 39.89999999999418 59.89999999999418 79.8999999999942 99.89999999999418 119.89999999999418 139.89999999999418 159.89999999999418 179.8999999999942 199.89999999999415 219.89999999999415 239.89999999999415 259.8999999999942 279.8999999999942 299.8999999999942 319.8999999999942 339.8999999999942 359.8999999999942 379.8999999999942 399.8999999999942 419.8999999999942 439.8999999999942 459.8999999999942 479.8999999999942 499.8999999999942 519.8999999999942 539.8999999999942 559.8999999999942 579.8999999999943 599.8999999999943 619.8999999999943 639.8999999999943 659.8999999999943 679.8999999999943 699.8999999999942 719.8999999999942 739.8999999999942 759.8999999999942 779.8999999999942 799.8999999999942 819.8999999999942 839.8999999999942 859.8999999999942 879.8999999999942 899.8999999999942 919.8999999999942 939.8999999999942 959.8999999999942 979.8999999999942 999.8999999999942 1019.8999999999942 1039.8999999999942 1059.8999999999942 1079.8999999999942 1099.8999999999942 1119.8999999999942 1139.8999999999942 1159.8999999999942 1179.8999999999942 1199.8999999999942
cb_07,9.0,enc_trial,stim,response,Iceland trip,1201.5,enc_trial,1.0,9.0,t_s_22_1,travel_shared,fold-a,belt,7.0,competing,close,paired,t_s_22_1.jpg,,travel-b1,Iceland trip,Miami trip,sub-07,0.0,0.0,1.0,1.0,0.4865771812080537 0.4463087248322148 0.41946308724832215 0.4015659955257271 0.3959731543624161 0.38478747203579416 0.3579418344519016 0.3434004474272931 0.3310961968680089 0.32662192393736017 0.3232662192393736 0.3187919463087248 0.3187919463087248 0.3187919463087248 0.3187919463087248 0.325503355704698 0.3344519015659955 0.3344519015659955 0.3344519015659955 0.3344519015659955 0.32662192393736017 0.3187919463087248 0.29082774049217003 0.2740492170022371 0.25727069351230425 0.2416107382550336 0.22371364653243847 0.2080536912751678 0.17337807606263986 0.16331096196868009 0.15436241610738255 0.1487695749440716 0.14205816554809844 0.13758389261744966,0.8176733780760627 0.7371364653243848 0.6670395227442207 0.6148396718866518 0.5700969425801641 0.5089485458612976 0.4284116331096197 0.3985831469052945 0.3717375093214019 0.3568232662192393 0.3508575689783744 0.3419090231170768 0.3419090231170768 0.3359433258762118 0.3359433258762118 0.325503355704698 0.3105891126025354 0.2986577181208053 0.2986577181208053 0.2986577181208053 0.26733780760626397 0.2464578672632364 0.20022371364653246 0.1897837434750187 0.18232662192393734 0.1763609246830723 0.16890380313199105 0.162938105891126 0.15249813571961224 0.14951528709917972 0.14951528709917972 0.14951528709917972 0.1465324384787472 0.14205816554809847,500.2999999999884 520.2999999999884 540.2999999999884 560.2999999999881 580.2999999999881 600.2999999999881 620.2999999999881 640.299999999988 660.2999999999879 680.2999999999879 700.2999999999879 720.2999999999878 740.2999999999878 760.2999999999878 780.2999999999878 800.2999999999877 820.2999999999873 840.2999999999873 860.2999999999873 880.2999999999872 900.2999999999872 920.2999999999872 940.2999999999872 960.2999999999872 980.299999999987 1000.299999999987 1020.299999999987 1040.2999999999868 1060.2999999999868 1080.2999999999868 1100.2999999999868 1120.2999999999863 1140.2999999999865 1160.2999999999865
cb_07,10.0,enc_trial,stim,response,Miami trip,1099.0,enc_trial,1.0,10.0,t_m_03_1,travel_Miami,fold-c,wetsuit,7.0,unique,close,paired,t_m_03_1.jpg,Miami,travel-b1,Iceland trip,Miami trip,sub-07,1.0,1.0,1.0,1.0,0.4921700223713647 0.494407158836689 0.494407158836689 0.5134228187919463 0.5134228187919463 0.5760626398210291 0.5973154362416108 0.6129753914988815 0.6129753914988815 0.6834451901565995 0.6834451901565995 0.727069351230425 0.743847874720358 0.7785234899328859 0.7975391498881432 0.8098434004474273 0.8098434004474273 0.8389261744966443 0.8668903803131991 0.8668903803131991 0.8791946308724832 0.8791946308724832 0.8825503355704698 0.8926174496644296 0.8926174496644296 0.8926174496644296 0.8926174496644296 0.8937360178970917 0.8948545861297539 0.8982102908277405,0.8400447427293065 0.8281133482475764 0.8281133482475764 0.7475764354958986 0.7475764354958986 0.6208053691275168 0.5805369127516778 0.5507084265473527 0.5507084265473527 0.4656972408650261 0.4656972408650261 0.41946308724832215 0.3941088739746458 0.3404175988068605 0.3090976882923192 0.2897091722595079 0.2897091722595079 0.24347501864280385 0.20171513795674867 0.20171513795674867 0.18530947054436986 0.18530947054436986 0.17934377330350482 0.16741237882177484 0.162938105891126 0.162938105891126 0.1614466815809098 0.15697240865026094 0.15249813571961224 0.14205816554809847,520.2000000000116 540.2000000000116 560.2000000000116 580.2000000000116 600.2000000000116 620.2000000000116 640.2000000000116 660.2000000000116 680.2000000000116 700.2000000000116 720.2000000000116 740.2000000000116 760.2000000000116 780.2000000000116 800.2000000000116 820.2000000000116 840.2000000000116 860.2000000000116 880.2000000000116 900.2000000000116 920.2000000000116 940.2000000000116 960.2000000000116 980.2000000000116 1000.2000000000116 1020.2000000000116 1040.2000000000116 1060.2000000000116 1080.2000000000116 1100.2000000000116
cb_07,11.0,enc_trial,stim,response,Iceland trip,1375.2999999970193,enc_trial,1.0,11.0,t_i_06_1,travel_Iceland,fold-d,knit hat,7.0,unique,far,paired,t_i_06_1.jpg,Iceland,travel-b1,Iceland trip,Miami trip,sub-07,1.0,1.0,1.0,1.0,0.4988814317673378 0.4988814317673378 0.4988814317673378 0.4988814317673378 0.4988814317673378 0.4988814317673378 0.4988814317673378 0.4988814317673378 0.4988814317673378 0.4988814317673378 0.4988814317673378 0.4988814317673378 0.4988814317673378 0.4988814317673378 0.4988814317673378 0.4988814317673378 0.4988814317673378 0.4988814317673378 0.4988814317673378 0.5145413870246085 0.5324384787472036 0.5324384787472036 0.6208053691275168 0.6208053691275168 0.6465324384787472 0.6644295302013423 0.6823266219239373 0.6823266219239373 0.7214765100671141 0.7214765100671141 0.7807606263982103 0.7930648769574944 0.8042505592841164 0.8098434004474273 0.8120805369127517 0.8120805369127517 0.8165548098434005 0.8210290827740492 0.8333333333333334 0.8333333333333334 0.8344519015659956 0.8344519015659956 0.8344519015659956 0.8378076062639821 0.8389261744966443 0.8389261744966443 0.8389261744966443 0.8366890380313199 0.743847874720358 0.6319910514541387 0.4261744966442953 0.3232662192393736 0.2651006711409396 0.19686800894854584 0.1767337807606264 0.16331096196868009 0.1599552572706935 0.1599552572706935 0.1599552572706935 0.1599552572706935 0.1599552572706935 0.15659955257270694 0.15659955257270694 0.15436241610738255 0.15436241610738255 0.15324384787472034 0.15212527964205816,0.8385533184190902 0.8400447427293065 0.843027591349739 0.843027591349739 0.843027591349739 0.843027591349739 0.843027591349739 0.843027591349739 0.843027591349739 0.843027591349739 0.843027591349739 0.843027591349739 0.843027591349739 0.8445190156599552 0.8445190156599552 0.8445190156599552 0.8445190156599552 0.8445190156599552 0.8325876211782253 0.8012677106636839 0.7714392244593586 0.7714392244593586 0.494034302759135 0.494034302759135 0.3926174496644296 0.3553318419090231 0.3240119313944817 0.3240119313944817 0.2822520507084265 0.2822520507084265 0.2568978374347501 0.2494407158836689 0.2375093214019388 0.2300521998508576 0.22408650260999247 0.22408650260999247 0.2196122296793438 0.21215510812826244 0.1927665920954511 0.1927665920954511 0.1912751677852349 0.1912751677852349 0.1897837434750187 0.18381804623415365 0.18232662192393734 0.18232662192393734 0.1778523489932886 0.1748695003728561 0.1465324384787472 0.14056674123788215 0.1301267710663684 0.1032811334824758 0.09284116331096193 0.10477255779269197 0.11521252796420578 0.12565249813571966 0.1301267710663684 0.1331096196868009 0.1346010439970171 0.1346010439970171 0.1346010439970171 0.1346010439970171 0.1346010439970171 0.13758389261744966 0.13907531692766595 0.14056674123788215 0.1465324384787472,40.10000000000582 60.10000000000582 80.1000000000058 100.10000000000582 120.10000000000582 140.10000000000582 160.10000000000582 180.1000000000058 200.10000000000585 220.10000000000585 240.10000000000585 260.1000000000058 280.1000000000058 300.1000000000058 320.1000000000058 340.1000000000058 360.1000000000058 380.1000000000058 400.1000000000058 420.1000000000058 440.1000000000058 460.1000000000058 480.1000000000058 500.1000000000058 520.1000000000058 540.1000000000058 560.1000000000058 580.1000000000057 600.1000000000057 620.1000000000057 640.1000000000057 660.1000000000057 680.1000000000057 700.1000000000058 720.1000000000058 740.1000000000058 760.1000000000058 780.1000000000058 800.1000000000058 820.1000000000058 840.1000000000058 860.1000000000058 880.1000000000058 900.1000000000058 920.1000000000058 940.1000000000058 960.1000000000058 980.1000000000058 1000.1000000000058 1020.1000000000058 1040.1000000000058 1060.1000000000058 1080.1000000000058 1100.1000000000058 1120.1000000000058 1140.1000000000058 1160.1000000000058 1180.1000000000058 1200.1000000000058 1220.1000000000058 1240.1000000000058 1260.1000000000058 1280.1000000000058 1300.1000000000058 1320.1000000000058 1340.1000000000058 1360.1000000000058
cb_07,12.0,enc_trial,stim,response,Miami trip,951.2999999999884,enc_trial,1.0,12.0,t_m_06_1,travel_Miami,fold-c,handheld fan,7.0,unique,close,paired,t_m_06_1.jpg,Miami,travel-b1,Iceland trip,Miami trip,sub-07,1.0,1.0,1.0,1.0,0.4921700223713647 0.4921700223713647 0.5212527964205816 0.5212527964205816 0.6319910514541387 0.6890380313199105 0.6890380313199105 0.7225950782997763 0.7416107382550335 0.7595078299776287 0.7930648769574944 0.8031319910514542 0.8109619686800895 0.8154362416107382 0.8165548098434005 0.8165548098434005 0.8165548098434005 0.8165548098434005 0.8176733780760627 0.8322147651006712 0.8445190156599552 0.8489932885906041 0.8512304250559284 0.8557046979865772 0.8568232662192393,0.843027591349739 0.843027591349739 0.7565249813571961 0.7565249813571961 0.4343773303504848 0.3404175988068605 0.3404175988068605 0.2688292319164802 0.2360178970917226 0.21215510812826244 0.16741237882177484 0.15548098434004476 0.145041014168531 0.1346010439970171 0.1346010439970171 0.1346010439970171 0.1346010439970171 0.1346010439970171 0.1331096196868009 0.12565249813571966 0.1181953765846383 0.1181953765846383 0.1181953765846383 0.11968680089485464 0.12266964951528715,439.7999999999884 459.7999999999884 479.7999999999884 499.7999999999884 519.7999999999884 539.7999999999884 559.7999999999884 579.7999999999884 599.7999999999884 619.7999999999884 639.7999999999884 659.7999999999884 679.7999999999884 699.7999999999884 719.7999999999884 739.7999999999884 759.7999999999884 779.7999999999884 799.7999999999884 819.7999999999884 839.7999999999884 859.7999999999884 879.7999999999884 899.7999999999884 919.7999999999884
cb_07,13.0,enc_trial,stim,response,Miami trip,980.2999999880847,enc_trial,1.0,13.0,t_m_03_2,travel_Miami,fold-c,wetsuit,7.0,unique,close,paired,t_m_03_2.jpg,Miami,travel-b1,Iceland trip,Miami trip,sub-07,1.0,1.0,1.0,1.0,0.4876957494407159 0.4876957494407159 0.4876957494407159 0.4876957494407159 0.4876957494407159 0.4876957494407159 0.4876957494407159 0.4876957494407159 0.4876957494407159 0.4876957494407159 0.4876957494407159 0.4876957494407159 0.4876957494407159 0.4876957494407159 0.4876957494407159 0.4876957494407159 0.4865771812080537 0.4865771812080537 0.4854586129753915 0.4854586129753915 0.4832214765100672 0.4832214765100672 0.4921700223713647 0.5078299776286354 0.5078299776286354 0.5604026845637584 0.5671140939597316 0.5727069351230425 0.5816554809843401 0.5995525727069351 0.6409395973154363 0.6487695749440716 0.6722595078299777 0.6912751677852349 0.7102908277404921 0.7449664429530202 0.7706935123042505 0.7841163310961968 0.7953020134228188 0.8008948545861297 0.8120805369127517 0.825503355704698 0.831096196868009 0.8344519015659956 0.8422818791946308 0.8456375838926175 0.8557046979865772 0.8612975391498882 0.8657718120805369 0.8702460850111857,0.843027591349739 0.843027591349739 0.843027591349739 0.843027591349739 0.843027591349739 0.843027591349739 0.843027591349739 0.843027591349739 0.843027591349739 0.843027591349739 0.843027591349739 0.843027591349739 0.843027591349739 0.843027591349739 0.8400447427293065 0.8400447427293065 0.8325876211782253 0.8325876211782253 0.8296047725577926 0.8251304996271439 0.8012677106636839 0.8012677106636839 0.7281879194630873 0.6730052199850858 0.6730052199850858 0.4656972408650261 0.4164802386278896 0.3866517524235645 0.3627889634601044 0.3359433258762118 0.2897091722595079 0.28374347501864283 0.27181208053691275 0.261372110365399 0.2539149888143176 0.23900074571215515 0.22856077554064136 0.22110365398956 0.21513795674869496 0.20917225950783008 0.18232662192393734 0.162938105891126 0.15548098434004476 0.14951528709917972 0.14205816554809847 0.14056674123788215 0.13758389261744966 0.1331096196868009 0.1301267710663684 0.11968680089485464,0.0 20.0 40.0 60.0 80.0 100.0 120.0 140.0 160.0 180.0 200.0 220.0 240.0 260.0 280.0 300.0 320.0 340.0 360.0 380.0 400.0 420.0 440.0 460.0 480.0 500.0 520.0 540.0 560.0 580.0 600.0 620.0 640.0 660.0 680.0 700.0 720.0 740.0 760.0 780.0 800.0 820.0 840.0 860.0 880.0 900.0 920.0 940.0 960.0 980.0
cb_07,14.0,enc_trial,stim,response,Iceland trip,1253.3999999910593,enc_trial,1.0,14.0,t_s_22_2,travel_shared,fold-a,belt,7.0,competing,close,paired,t_s_22_2.jpg,,travel-b1,Iceland trip,Miami trip,sub-07,0.0,0.0,1.0,1.0,0.4977628635346757 0.5 0.5 0.5369127516778524 0.5648769574944071 0.5973154362416108 0.5973154362416108 0.6487695749440716 0.6800894854586129 0.7002237136465325 0.7002237136465325 0.7203579418344519 0.7382550335570469 0.7472035794183445 0.7595078299776287 0.7662192393736018 0.7651006711409396 0.6991051454138703 0.6610738255033557 0.6040268456375839 0.5469798657718121 0.5 0.5 0.4373601789709172 0.3702460850111857 0.3098434004474273 0.3098434004474273 0.27628635346756153 0.26174496644295303 0.2527964205816555 0.2527964205816555 0.2516778523489933 0.2516778523489933 0.2460850111856823 0.2416107382550336 0.22930648769574946 0.2181208053691275 0.2058165548098434 0.19574944071588368 0.19574944071588368 0.17114093959731544 0.1599552572706935 0.1465324384787472 0.1297539149888143 0.12639821029082773 0.12527964205816555,0.8281133482475764 0.8131991051454139 0.8131991051454139 0.7266964951528709 0.6655480984340045 0.5939597315436241 0.5939597315436241 0.5029828486204325 0.4463087248322147 0.4239373601789709 0.4239373601789709 0.4060402684563759 0.3941088739746458 0.38963460104399705 0.3702460850111857 0.3389261744966443 0.3120805369127517 0.261372110365399 0.2568978374347501 0.2449664429530201 0.2375093214019388 0.22856077554064136 0.22856077554064136 0.2061894108873975 0.1927665920954511 0.19724086502609994 0.19724086502609994 0.2061894108873975 0.2076808351976137 0.2076808351976137 0.2076808351976137 0.2076808351976137 0.2076808351976137 0.2046979865771812 0.19873228933631606 0.1927665920954511 0.18530947054436986 0.1763609246830723 0.16741237882177484 0.16741237882177484 0.15697240865026094 0.15398956002982844 0.1480238627889635 0.1331096196868009 0.12565249813571966 0.12266964951528715,359.8999999999942 379.8999999999942 399.8999999999942 419.8999999999942 439.8999999999942 459.8999999999942 479.8999999999942 499.8999999999942 519.8999999999942 539.8999999999942 559.8999999999942 579.8999999999943 599.8999999999943 619.8999999999943 639.8999999999943 659.8999999999943 679.8999999999943 699.8999999999942 719.8999999999942 739.8999999999942 759.8999999999942 779.8999999999942 799.8999999999942 819.8999999999942 839.8999999999942 859.8999999999942 879.8999999999942 899.8999999999942 919.8999999999942 939.8999999999942 959.8999999999942 979.8999999999942 999.8999999999942 1019.8999999999942 1039.8999999999942 1059.8999999999942 1079.8999999999942 1099.8999999999942 1119.8999999999942 1139.8999999999942 1159.8999999999942 1179.8999999999942 1199.8999999999942 1219.8999999999942 1239.8999999999942 1259.8999999999942
cb_07,15.0,enc_trial,stim,response,Miami trip,932.6000000000058,enc_trial,1.0,15.0,t_m_05_1,travel_Miami,fold-d,sunscreen,7.0,unique,far,paired,t_m_05_1.jpg,Miami,travel-b1,Iceland trip,Miami trip,sub-07,1.0,1.0,1.0,1.0,0.4977628635346757 0.5167785234899329 0.5167785234899329 0.5559284116331096 0.5559284116331096 0.6297539149888143 0.6297539149888143 0.6700223713646533 0.6700223713646533 0.6879194630872483 0.6879194630872483 0.7337807606263982 0.7337807606263982 0.7774049217002237 0.7774049217002237 0.7897091722595079 0.7986577181208053 0.8120805369127517 0.8120805369127517 0.8489932885906041 0.8657718120805369 0.8657718120805369 0.8780760626398211 0.8814317673378076 0.8814317673378076 0.8814317673378076 0.8814317673378076 0.883668903803132 0.883668903803132 0.8847874720357942,0.831096196868009 0.8027591349739001 0.8027591349739001 0.7445935868754661 0.7445935868754661 0.5879940343027592 0.5879940343027592 0.4642058165548098 0.4642058165548098 0.3985831469052945 0.3985831469052945 0.3061148396718867 0.3061148396718867 0.23900074571215515 0.23900074571215515 0.2196122296793438 0.2046979865771812 0.18530947054436986 0.18530947054436986 0.16442953020134232 0.15697240865026094 0.15697240865026094 0.145041014168531 0.145041014168531 0.14205816554809847 0.14205816554809847 0.14205816554809847 0.13907531692766595 0.13907531692766595 0.13758389261744966,360.0 380.0 400.0 420.0 440.0 460.0 480.0 500.0 520.0 540.0 560.0 580.0 600.0 620.0 640.0 660.0 680.0 700.0 720.0 740.0 760.0 780.0 800.0 820.0 840.0 860.0 880.0 900.0 920.0 940.0
cb_07,16.0,enc_trial,stim,response,Miami trip,1724.9999999970316,enc_trial,1.0,16.0,t_s_06_2,travel_shared,fold-b,luggage,7.0,competing,far,paired,t_s_06_2.jpg,,travel-b1,Iceland trip,Miami trip,sub-07,1.0,1.0,0.0,0.0,0.4821029082774049 0.4821029082774049 0.4821029082774049 0.4821029082774049 0.4821029082774049 0.4821029082774049 0.4854586129753915 0.4910514541387024 0.4977628635346757 0.5156599552572707 0.5447427293064877 0.5917225950782998 0.610738255033557 0.6465324384787472 0.6655480984340044 0.6834451901565995 0.7158836689038032 0.7304250559284117 0.7427293064876958 0.7539149888143176 0.7617449664429531 0.7706935123042505 0.7751677852348994 0.7774049217002237 0.7829977628635347 0.7897091722595079 0.8053691275167785 0.8087248322147651 0.8109619686800895 0.8109619686800895 0.8109619686800895 0.7807606263982103 0.7483221476510067 0.6800894854586129 0.5973154362416108 0.4485458612975392 0.3042505592841163 0.26286353467561524 0.22930648769574946 0.20917225950783 0.1935123042505593 0.18008948545861295 0.17449664429530198 0.17114093959731544 0.17002237136465326 0.17002237136465326 0.17002237136465326 0.17002237136465326 0.16778523489932887 0.16778523489932887 0.16890380313199105 0.19574944071588368 0.42953020134228187 0.5413870246085011 0.6409395973154363 0.7248322147651006 0.7986577181208053 0.8031319910514542 0.8031319910514542 0.8031319910514542 0.8008948545861297 0.7941834451901566 0.7930648769574944 0.7930648769574944 0.7997762863534675 0.8165548098434005 0.831096196868009 0.8366890380313199 0.8378076062639821,0.8236390753169277 0.8236390753169277 0.8236390753169277 0.8236390753169277 0.8236390753169277 0.8221476510067114 0.8012677106636839 0.7848620432513049 0.7609992542878449 0.7058165548098434 0.6401938851603282 0.5193885160328113 0.4806114839671887 0.4299030574198359 0.4060402684563759 0.3851603281133482 0.34638329604772555 0.325503355704698 0.30313199105145416 0.2733035048471289 0.2509321401938852 0.22706935123042504 0.22110365398956 0.21513795674869496 0.2076808351976137 0.20171513795674867 0.19724086502609994 0.19425801640566745 0.1927665920954511 0.1912751677852349 0.18381804623415365 0.14951528709917972 0.1346010439970171 0.12266964951528715 0.1167039522744221 0.11222967934377326 0.11968680089485464 0.12266964951528715 0.12565249813571966 0.1331096196868009 0.14056674123788215 0.145041014168531 0.14056674123788215 0.13758389261744966 0.1346010439970171 0.1346010439970171 0.1346010439970171 0.1346010439970171 0.13758389261744966 0.13758389261744966 0.13758389261744966 0.1331096196868009 0.1167039522744221 0.11222967934377326 0.11521252796420578 0.11521252796420578 0.1167039522744221 0.11521252796420578 0.11521252796420578 0.11073825503355704 0.10924683072334074 0.11073825503355704 0.11521252796420578 0.11968680089485464 0.12714392244593584 0.1331096196868009 0.13907531692766595 0.13907531692766595 0.13758389261744966,339.9000000000233 359.90000000002334 379.90000000002334 399.90000000002334 419.90000000002334 439.90000000002334 459.90000000002334 479.90000000002334 499.90000000002334 519.9000000000234 539.9000000000234 559.9000000000234 579.9000000000233 599.9000000000233 619.9000000000233 639.9000000000233 659.9000000000233 679.9000000000233 699.9000000000232 719.9000000000232 739.9000000000232 759.9000000000232 779.9000000000232 799.9000000000232 819.9000000000232 839.9000000000232 859.9000000000232 879.9000000000232 899.9000000000232 919.9000000000232 939.9000000000232 959.9000000000232 979.9000000000232 999.9000000000232 1019.9000000000232 1039.9000000000233 1059.9000000000233 1079.9000000000233 1099.9000000000233 1119.9000000000233 1139.9000000000233 1159.9000000000233 1179.9000000000233 1199.9000000000233 1219.9000000000233 1239.9000000000233 1259.9000000000233 1279.9000000000233 1299.9000000000233 1319.9000000000233 1339.9000000000233 1359.9000000000233 1379.9000000000233 1399.9000000000233 1419.9000000000233 1439.9000000000233 1459.9000000000233 1479.9000000000233 1499.9000000000233 1519.9000000000233 1539.9000000000233 1559.9000000000233 1579.9000000000233 1599.9000000000233 1619.9000000000233 1639.9000000000233 1659.9000000000233 1679.9000000000233 1699.9000000000233
cb_07,17.0,enc_trial,stim,response,Iceland trip,1420.099999991071,enc_trial,1.0,17.0,t_i_14_1,travel_Iceland,fold-c,snow pants,7.0,unique,close,paired,t_i_14_1.jpg,Iceland,travel-b1,Iceland trip,Miami trip,sub-07,1.0,1.0,1.0,1.0,0.4977628635346757 0.4977628635346757 0.4977628635346757 0.4977628635346757 0.5391498881431768 0.6364653243847874 0.6711409395973155 0.6711409395973155 0.7483221476510067 0.7483221476510067 0.8042505592841164 0.8199105145413871 0.831096196868009 0.8422818791946308 0.8512304250559284 0.8534675615212528 0.8534675615212528 0.8534675615212528 0.8534675615212528 0.8534675615212528 0.8534675615212528 0.8534675615212528 0.8501118568232662 0.8422818791946308 0.8154362416107382 0.767337807606264 0.4597315436241611 0.32102908277404923 0.2203579418344519 0.16331096196868009 0.10961968680089486 0.09843400447427292 0.09843400447427292 0.09843400447427292 0.10067114093959732 0.1017897091722595 0.1017897091722595 0.10067114093959732 0.09284116331096197 0.07494407158836687 0.06711409395973154 0.06711409395973154 0.06935123042505592 0.07270693512304251 0.07941834451901568 0.08612975391498881,0.8057419835943326 0.8057419835943326 0.7639821029082774 0.7639821029082774 0.6923937360178971 0.5089485458612976 0.4373601789709173 0.4373601789709173 0.3344519015659956 0.3344519015659956 0.2822520507084265 0.2583892617449665 0.24198359433258765 0.2046979865771812 0.18381804623415365 0.1778523489932886 0.1778523489932886 0.1778523489932886 0.1763609246830723 0.1748695003728561 0.1748695003728561 0.17188665175242354 0.16890380313199105 0.162938105891126 0.15548098434004476 0.1480238627889635 0.15548098434004476 0.162938105891126 0.15548098434004476 0.15249813571961224 0.15697240865026094 0.16741237882177484 0.17039522744220725 0.1748695003728561 0.1763609246830723 0.1763609246830723 0.1763609246830723 0.17188665175242354 0.16741237882177484 0.1614466815809098 0.15995525727069348 0.15995525727069348 0.15548098434004476 0.14951528709917972 0.14205816554809847 0.14205816554809847,520.1000000000058 540.1000000000058 560.1000000000058 580.1000000000057 600.1000000000057 620.1000000000057 640.1000000000057 660.1000000000057 680.1000000000057 700.1000000000058 720.1000000000058 740.1000000000058 760.1000000000058 780.1000000000058 800.1000000000058 820.1000000000058 840.1000000000058 860.1000000000058 880.1000000000058 900.1000000000058 920.1000000000058 940.1000000000058 960.1000000000058 980.1000000000058 1000.1000000000058 1020.1000000000058 1040.1000000000058 1060.1000000000058 1080.1000000000058 1100.1000000000058 1120.1000000000058 1140.1000000000058 1160.1000000000058 1180.1000000000058 1200.1000000000058 1220.1000000000058 1240.1000000000058 1260.1000000000058 1280.1000000000058 1300.1000000000058 1320.1000000000058 1340.1000000000058 1360.1000000000058 1380.1000000000058 1400.1000000000058 1420.1000000000058
cb_07,18.0,enc_trial,stim,response,Iceland trip,1407.4999999970316,enc_trial,1.0,18.0,t_s_02_2,travel_shared,fold-b,water bottle,7.0,competing,far,paired,t_s_02_2.jpg,,travel-b1,Iceland trip,Miami trip,sub-07,0.0,0.0,1.0,1.0,0.494407158836689 0.494407158836689 0.494407158836689 0.4932885906040269 0.4932885906040269 0.4921700223713647 0.4921700223713647 0.4921700223713647 0.4921700223713647 0.4966442953020134 0.5167785234899329 0.5167785234899329 0.5369127516778524 0.5637583892617449 0.6129753914988815 0.6711409395973155 0.6890380313199105 0.7102908277404921 0.7304250559284117 0.756152125279642 0.7874720357941835 0.7874720357941835 0.7997762863534675 0.8008948545861297 0.8042505592841164 0.8199105145413871 0.8333333333333334 0.8366890380313199 0.8378076062639821 0.8422818791946308 0.8456375838926175 0.8501118568232662 0.8512304250559284 0.8512304250559284 0.8512304250559284 0.8512304250559284 0.8512304250559284 0.8545861297539151 0.8545861297539151 0.8545861297539151 0.8545861297539151 0.8501118568232662 0.8400447427293065 0.8064876957494407 0.7102908277404921 0.3825503355704698 0.3120805369127517 0.26286353467561524 0.21476510067114093 0.18568232662192394 0.13758389261744966 0.1319910514541387 0.13087248322147652 0.13087248322147652 0.13087248322147652 0.1297539149888143,0.8355704697986577 0.8355704697986577 0.8355704697986577 0.8325876211782253 0.8325876211782253 0.8325876211782253 0.831096196868009 0.831096196868009 0.8281133482475764 0.8146905294556301 0.7356450410141686 0.7356450410141686 0.6819537658463832 0.6178225205070842 0.5089485458612976 0.3791946308724832 0.3404175988068605 0.2971662938105891 0.26733780760626397 0.22856077554064136 0.18680089485458606 0.18680089485458606 0.16890380313199105 0.16890380313199105 0.162938105891126 0.14951528709917972 0.145041014168531 0.14056674123788215 0.14056674123788215 0.14056674123788215 0.13907531692766595 0.13758389261744966 0.13758389261744966 0.13758389261744966 0.13758389261744966 0.13758389261744966 0.13758389261744966 0.13758389261744966 0.13758389261744966 0.13758389261744966 0.13758389261744966 0.13758389261744966 0.13758389261744966 0.1301267710663684 0.11968680089485464 0.12714392244593584 0.1167039522744221 0.10178970917225948 0.09284116331096193 0.09284116331096193 0.10477255779269197 0.10775540641312452 0.10775540641312452 0.10775540641312452 0.10775540641312452 0.10775540641312452,220.0 240.0 260.0 280.0 300.0 320.0 340.0 360.0 380.0 400.0 420.0 440.0 460.0 480.0 500.0 520.0 540.0 560.0 580.0 600.0 620.0 640.0 660.0 680.0 700.0 720.0 740.0 760.0 780.0 800.0 820.0 840.0 860.0 880.0 900.0 920.0 940.0 960.0 980.0 1000.0 1020.0 1040.0 1060.0 1080.0 1100.0 1120.0 1140.0 1160.0 1180.0 1200.0 1220.0 1240.0 1260.0 1280.0 1300.0 1320.0
cb_07,19.0,enc_trial,stim,response,Iceland trip,1575.7999999970193,enc_trial,1.0,19.0,t_i_11_1,travel_Iceland,fold-d,headlamp,7.0,unique,far,paired,t_i_11_1.jpg,Iceland,travel-b1,Iceland trip,Miami trip,sub-07,1.0,1.0,1.0,1.0,0.4888143176733781 0.4888143176733781 0.4888143176733781 0.4888143176733781 0.4888143176733781 0.4888143176733781 0.4888143176733781 0.4888143176733781 0.4888143176733781 0.4888143176733781 0.4876957494407159 0.4876957494407159 0.4876957494407159 0.4865771812080537 0.4865771812080537 0.4865771812080537 0.4865771812080537 0.4888143176733781 0.4966442953020134 0.4966442953020134 0.5559284116331096 0.5805369127516778 0.5805369127516778 0.5995525727069351 0.6129753914988815 0.6208053691275168 0.6387024608501118 0.6465324384787472 0.6476510067114094 0.6476510067114094 0.6868008948545862 0.7024608501118568 0.7024608501118568 0.7158836689038032 0.7281879194630873 0.743847874720358 0.7774049217002237 0.7975391498881432 0.8221476510067114 0.8445190156599552 0.8590604026845637 0.8780760626398211 0.8881431767337807 0.8892617449664431 0.8892617449664431 0.8892617449664431 0.8892617449664431 0.8892617449664431 0.883668903803132 0.8680089485458613 0.8031319910514542 0.5671140939597316 0.40715883668903796 0.2069351230425056 0.1319910514541387 0.09284116331096197 0.053691275167785234 0.050335570469798654 0.04697986577181208 0.04697986577181208 0.04697986577181208 0.050335570469798654 0.04697986577181208 0.04697986577181208 0.04697986577181208 0.04586129753914989 0.05145413870246085 0.07606263982102908 0.09507829977628636 0.1185682326621924 0.13982102908277405 0.1465324384787472 0.1487695749440716 0.15100671140939598,0.8400447427293065 0.8400447427293065 0.843027591349739 0.843027591349739 0.843027591349739 0.843027591349739 0.843027591349739 0.843027591349739 0.843027591349739 0.843027591349739 0.843027591349739 0.843027591349739 0.843027591349739 0.8400447427293065 0.8400447427293065 0.8400447427293065 0.8385533184190902 0.8296047725577926 0.8161819537658463 0.8161819537658463 0.7132736763609246 0.6730052199850858 0.6730052199850858 0.6372110365398955 0.6058911260253542 0.5730797912005965 0.5208799403430275 0.4910514541387024 0.47613721103654 0.4567486950037286 0.3717375093214019 0.3568232662192393 0.3568232662192393 0.3478747203579419 0.3329604772557793 0.31804623415361666 0.2956748695003728 0.2807606263982103 0.2494407158836689 0.21662938105891127 0.19724086502609994 0.1748695003728561 0.16741237882177484 0.16741237882177484 0.16741237882177484 0.16741237882177484 0.16741237882177484 0.16741237882177484 0.16442953020134232 0.162938105891126 0.16741237882177484 0.15249813571961224 0.1331096196868009 0.086875466070097 0.07792692020879942 0.07494407158836691 0.086875466070097 0.09433258762117824 0.10029828486204327 0.10924683072334074 0.11073825503355704 0.11073825503355704 0.1167039522744221 0.1167039522744221 0.1167039522744221 0.1316181953765846 0.13758389261744966 0.15249813571961224 0.15995525727069348 0.16741237882177484 0.16442953020134232 0.15249813571961224 0.145041014168531 0.14056674123788215,99.89999999999418 119.89999999999418 139.89999999999418 159.89999999999418 179.8999999999942 199.89999999999415 219.89999999999415 239.89999999999415 259.8999999999942 279.8999999999942 299.8999999999942 319.8999999999942 339.8999999999942 359.8999999999942 379.8999999999942 399.8999999999942 419.8999999999942 439.8999999999942 459.8999999999942 479.8999999999942 499.8999999999942 519.8999999999942 539.8999999999942 559.8999999999942 579.8999999999943 599.8999999999943 619.8999999999943 639.8999999999943 659.8999999999943 679.8999999999943 699.8999999999942 719.8999999999942 739.8999999999942 759.8999999999942 779.8999999999942 799.8999999999942 819.8999999999942 839.8999999999942 859.8999999999942 879.8999999999942 899.8999999999942 919.8999999999942 939.8999999999942 959.8999999999942 979.8999999999942 999.8999999999942 1019.8999999999942 1039.8999999999942 1059.8999999999942 1079.8999999999942 1099.8999999999942 1119.8999999999942 1139.8999999999942 1159.8999999999942 1179.8999999999942 1199.8999999999942 1219.8999999999942 1239.8999999999942 1259.8999999999942 1279.8999999999942 1299.8999999999942 1319.8999999999942 1339.8999999999942 1359.8999999999942 1379.8999999999942 1399.8999999999942 1419.8999999999942 1439.8999999999942 1459.8999999999942 1479.8999999999942 1499.8999999999942 1519.8999999999942 1539.8999999999942 1559.8999999999942
cb_07,20.0,enc_trial,stim,response,Miami trip,1022.1000000000058,enc_trial,1.0,20.0,t_m_11_1,travel_Miami,fold-d,collapsible beach chair,7.0,unique,far,paired,t_m_11_1.jpg,Miami,travel-b1,Iceland trip,Miami trip,sub-07,1.0,1.0,1.0,1.0,0.5134228187919463 0.5111856823266219 0.5111856823266219 0.5111856823266219 0.5111856823266219 0.5111856823266219 0.5111856823266219 0.5111856823266219 0.5111856823266219 0.5111856823266219 0.5111856823266219 0.5111856823266219 0.5111856823266219 0.5111856823266219 0.5089485458612976 0.5089485458612976 0.5078299776286354 0.5078299776286354 0.5078299776286354 0.5078299776286354 0.5212527964205816 0.5212527964205816 0.5257270693512305 0.5313199105145414 0.5391498881431768 0.5425055928411633 0.5637583892617449 0.5861297539149888 0.6085011185682326 0.6252796420581656 0.6521252796420581 0.6935123042505593 0.7136465324384788 0.732662192393736 0.7483221476510067 0.772930648769575 0.8064876957494407 0.8232662192393736 0.8400447427293065 0.8557046979865772 0.8702460850111857 0.8948545861297539 0.9015659955257272 0.9049217002237137 0.9093959731543624 0.9116331096196868 0.9116331096196868 0.9116331096196868 0.9116331096196868 0.9093959731543624,0.8236390753169277 0.8251304996271439 0.8281133482475764 0.8281133482475764 0.8281133482475764 0.8281133482475764 0.8281133482475764 0.8281133482475764 0.8281133482475764 0.8281133482475764 0.8281133482475764 0.8281133482475764 0.8281133482475764 0.8281133482475764 0.8236390753169277 0.8236390753169277 0.8131991051454139 0.8131991051454139 0.8087248322147651 0.7833706189410887 0.6998508575689784 0.6998508575689784 0.6670395227442207 0.6327367636092469 0.5835197613721104 0.5492170022371365 0.4746457867263236 0.4388516032811335 0.4164802386278896 0.3985831469052945 0.3747203579418345 0.3493661446681581 0.3419090231170768 0.3344519015659956 0.325503355704698 0.3120805369127517 0.2941834451901566 0.2807606263982103 0.2643549589858315 0.2464578672632364 0.2315436241610739 0.21364653243847875 0.2076808351976137 0.2046979865771812 0.19873228933631606 0.1927665920954511 0.18232662192393734 0.17039522744220725 0.1614466815809098 0.15249813571961224,40.0 60.0 80.0 100.0 120.0 140.0 160.0 180.0 200.0 220.0 240.0 260.0 280.0 300.0 320.0 340.0 360.0 380.0 400.0 420.0 440.0 460.0 480.0 500.0 520.0 540.0 560.0 580.0 600.0 620.0 640.0 660.0 680.0 700.0 720.0 740.0 760.0 780.0 800.0 820.0 840.0 860.0 880.0 900.0 920.0 940.0 960.0 980.0 1000.0 1020.0
cb_07,21.0,enc_trial,stim,response,Iceland trip,1391.8999999970254,enc_trial,1.0,21.0,t_s_12_1,travel_shared,fold-b,clear toiletry bag,7.0,competing,far,paired,t_s_12_1.jpg,,travel-b1,Iceland trip,Miami trip,sub-07,1.0,1.0,1.0,1.0,0.5044742729306487 0.5044742729306487 0.5044742729306487 0.5055928411633109 0.5100671140939598 0.5156599552572707 0.5212527964205816 0.5324384787472036 0.5525727069351231 0.5827740492170023 0.5816554809843401 0.5805369127516778 0.5883668903803132 0.6666666666666666 0.6923937360178971 0.7058165548098434 0.7158836689038032 0.7225950782997763 0.732662192393736 0.7360178970917226 0.7371364653243848 0.7393736017897091 0.7472035794183445 0.7695749440715883 0.7818791946308725 0.7841163310961968 0.7841163310961968 0.7695749440715883 0.7114093959731543 0.7114093959731543 0.6476510067114094 0.6252796420581656 0.6129753914988815 0.6140939597315436 0.6353467561521253 0.674496644295302 0.6935123042505593 0.703579418344519 0.6923937360178971 0.6196868008948546 0.5223713646532439 0.3758389261744967 0.22371364653243847 0.09843400447427292 0.07941834451901568 0.06823266219239374 0.06823266219239374 0.06823266219239374 0.07270693512304251 0.07941834451901568 0.07941834451901568 0.07829977628635347 0.07494407158836687 0.07494407158836687 0.09060402684563758 0.09843400447427292 0.1017897091722595,0.843027591349739 0.8400447427293065 0.8400447427293065 0.8355704697986577 0.8296047725577926 0.8221476510067114 0.8131991051454139 0.79082774049217 0.7609992542878449 0.6819537658463832 0.6163310961968679 0.5686055182699479 0.4806114839671887 0.3359433258762118 0.3120805369127517 0.30313199105145416 0.2941834451901566 0.2897091722595079 0.2822520507084265 0.2822520507084265 0.2822520507084265 0.27926920208799394 0.2733035048471289 0.25988068605518266 0.2539149888143176 0.2494407158836689 0.23900074571215515 0.22408650260999247 0.2046979865771812 0.2046979865771812 0.1763609246830723 0.16890380313199105 0.162938105891126 0.1614466815809098 0.16442953020134232 0.17039522744220725 0.17188665175242354 0.17039522744220725 0.1614466815809098 0.1346010439970171 0.10924683072334074 0.0883668903803132 0.0883668903803132 0.08240119313944816 0.08240119313944816 0.09284116331096193 0.09582401193139443 0.10178970917225948 0.10477255779269197 0.11073825503355704 0.11073825503355704 0.11073825503355704 0.11222967934377326 0.11222967934377326 0.12714392244593584 0.1331096196868009 0.1331096196868009,259.8999999999942 279.8999999999942 299.8999999999942 319.8999999999942 339.8999999999942 359.8999999999942 379.8999999999942 399.8999999999942 419.8999999999942 439.8999999999942 459.8999999999942 479.8999999999942 499.8999999999942 519.8999999999942 539.8999999999942 559.8999999999942 579.8999999999943 599.8999999999943 619.8999999999943 639.8999999999943 659.8999999999943 679.8999999999943 699.8999999999942 719.8999999999942 739.8999999999942 759.8999999999942 779.8999999999942 799.8999999999942 819.8999999999942 839.8999999999942 859.8999999999942 879.8999999999942 899.8999999999942 919.8999999999942 939.8999999999942 959.8999999999942 979.8999999999942 999.8999999999942 1019.8999999999942 1039.8999999999942 1059.8999999999942 1079.8999999999942 1099.8999999999942 1119.8999999999942 1139.8999999999942 1159.8999999999942 1179.8999999999942 1199.8999999999942 1219.8999999999942 1239.8999999999942 1259.8999999999942 1279.8999999999942 1299.8999999999942 1319.8999999999942 1339.8999999999942 1359.8999999999942 1379.8999999999942
cb_07,22.0,enc_trial,stim,response,Iceland trip,1436.1000000000058,enc_trial,1.0,22.0,t_i_07_1,travel_Iceland,fold-e-single,hiking backpack,7.0,unique,,single,t_i_07_1.jpg,Iceland,travel-b1,Iceland trip,Miami trip,sub-07,1.0,,1.0,,0.4865771812080537 0.4865771812080537 0.494407158836689 0.5503355704697986 0.5503355704697986 0.6644295302013423 0.6644295302013423 0.7785234899328859 0.8221476510067114 0.8456375838926175 0.8456375838926175 0.8545861297539151 0.8545861297539151 0.8590604026845637 0.8590604026845637 0.8590604026845637 0.8568232662192393 0.8568232662192393 0.8646532438478747 0.8668903803131991 0.8668903803131991 0.8668903803131991 0.8657718120805369 0.8612975391498882 0.860178970917226 0.860178970917226 0.8612975391498882 0.8657718120805369 0.860178970917226 0.825503355704698 0.7662192393736018 0.6655480984340044 0.5 0.3087248322147651 0.2695749440715884 0.2348993288590604 0.2114093959731544 0.20134228187919465 0.20357941834451893 0.2058165548098434 0.2058165548098434 0.2069351230425056 0.2069351230425056 0.2069351230425056 0.2069351230425056 0.19798657718120805 0.19015659955257272 0.1812080536912752 0.17337807606263986 0.16890380313199105 0.1644295302013423 0.1621923937360179,0.8355704697986577 0.8355704697986577 0.8206562266964952 0.6983594332587622 0.6983594332587622 0.43586875466070096 0.43586875466070096 0.2733035048471289 0.2076808351976137 0.16741237882177484 0.16741237882177484 0.1480238627889635 0.1480238627889635 0.145041014168531 0.145041014168531 0.145041014168531 0.145041014168531 0.145041014168531 0.145041014168531 0.1465324384787472 0.1465324384787472 0.1465324384787472 0.1480238627889635 0.15548098434004476 0.15697240865026094 0.15697240865026094 0.15697240865026094 0.15548098434004476 0.14205816554809847 0.12416107382550336 0.11073825503355704 0.10477255779269197 0.09433258762117824 0.07046979865771807 0.06748695003728555 0.07046979865771807 0.07494407158836691 0.08240119313944816 0.09582401193139443 0.10029828486204327 0.1032811334824758 0.10477255779269197 0.10477255779269197 0.11073825503355704 0.11073825503355704 0.11222967934377326 0.11521252796420578 0.1167039522744221 0.12266964951528715 0.12565249813571966 0.1301267710663684 0.1331096196868009,380.0 400.0 420.0 440.0 460.0 480.0 500.0 520.0 540.0 560.0 580.0 600.0 620.0 640.0 660.0 680.0 700.0 720.0 740.0 760.0 780.0 800.0 820.0 840.0 860.0 880.0 900.0 920.0 940.0 960.0 980.0 1000.0 1020.0 1040.0 1060.0 1080.0 1100.0 1120.0 1140.0 1160.0 1180.0 1200.0 1220.0 1240.0 1260.0 1280.0 1300.0 1320.0 1340.0 1360.0 1380.0 1400.0
cb_07,23.0,enc_trial,stim,response,Miami trip,877.3999999910593,enc_trial,1.0,23.0,t_s_21_2,travel_shared,fold-b,umbrella,7.0,competing,far,paired,t_s_21_2.jpg,,travel-b1,Iceland trip,Miami trip,sub-07,0.0,0.0,1.0,1.0,0.5022371364653244 0.5089485458612976 0.5089485458612976 0.5536912751677853 0.5536912751677853 0.703579418344519 0.756152125279642 0.7785234899328859 0.8042505592841164 0.8322147651006712 0.8825503355704698 0.9172259507829976 0.9217002237136466 0.9239373601789708 0.9261744966442952 0.9217002237136466 0.9217002237136466 0.9217002237136466 0.9217002237136466 0.9217002237136466 0.9217002237136466 0.9217002237136466 0.9217002237136466,0.8281133482475764 0.7923191648023863 0.7923191648023863 0.6252796420581656 0.6252796420581656 0.34638329604772555 0.2524235645041014 0.22259507829977632 0.19873228933631606 0.1778523489932886 0.162938105891126 0.1465324384787472 0.14056674123788215 0.13758389261744966 0.1316181953765846 0.12266964951528715 0.11968680089485464 0.11968680089485464 0.1167039522744221 0.11521252796420578 0.11222967934377326 0.11073825503355704 0.10924683072334074,399.8999999999942 419.8999999999942 439.8999999999942 459.8999999999942 479.8999999999942 499.8999999999942 519.8999999999942 539.8999999999942 559.8999999999942 579.8999999999943 599.8999999999943 619.8999999999943 639.8999999999943 659.8999999999943 679.8999999999943 699.8999999999942 719.8999999999942 739.8999999999942 759.8999999999942 779.8999999999942 799.8999999999942 819.8999999999942 839.8999999999942
cb_07,24.0,enc_trial,stim,response,Iceland trip,1242.2999999880851,enc_trial,1.0,24.0,t_i_14_2,travel_Iceland,fold-c,snow pants,7.0,unique,close,paired,t_i_14_2.jpg,Iceland,travel-b1,Iceland trip,Miami trip,sub-07,1.0,1.0,1.0,1.0,0.5190156599552572 0.5246085011185683 0.5246085011185683 0.5447427293064877 0.5447427293064877 0.5637583892617449 0.5805369127516778 0.5615212527964206 0.5615212527964206 0.5302013422818792 0.5022371364653244 0.4809843400447427 0.4552572706935123 0.441834451901566 0.4351230425055929 0.4351230425055929 0.4272930648769575 0.4217002237136465 0.4093959731543624 0.3926174496644295 0.3736017897091721 0.31991051454138697 0.29642058165548096 0.267337807606264 0.2505592841163311 0.23378076062639824 0.21476510067114093 0.2125279642058165 0.2080536912751678 0.2058165548098434 0.2058165548098434 0.2058165548098434 0.20357941834451893 0.20134228187919465 0.19798657718120805 0.19574944071588368 0.18008948545861295 0.17337807606263986 0.16890380313199105 0.1644295302013423 0.1621923937360179 0.15883668903803133,0.8355704697986577 0.8281133482475764 0.8281133482475764 0.7848620432513049 0.7848620432513049 0.7445935868754661 0.674496644295302 0.5775540641312453 0.5775540641312453 0.5164056674123788 0.4746457867263236 0.4448173005219985 0.4090231170768084 0.4000745712155108 0.38963460104399705 0.38963460104399705 0.37770320656226697 0.3717375093214019 0.36129753914988816 0.3538404175988069 0.3389261744966443 0.3090976882923192 0.2912005965697241 0.2568978374347501 0.2375093214019388 0.22408650260999247 0.21513795674869496 0.21364653243847875 0.20917225950783008 0.2076808351976137 0.2076808351976137 0.2076808351976137 0.2076808351976137 0.2061894108873975 0.2046979865771812 0.20022371364653246 0.18530947054436986 0.17934377330350482 0.1748695003728561 0.17039522744220725 0.16442953020134232 0.15398956002982844,419.8999999999942 439.8999999999942 459.8999999999942 479.8999999999942 499.8999999999942 519.8999999999942 539.8999999999942 559.8999999999942 579.8999999999943 599.8999999999943 619.8999999999943 639.8999999999943 659.8999999999943 679.8999999999943 699.8999999999942 719.8999999999942 739.8999999999942 759.8999999999942 779.8999999999942 799.8999999999942 819.8999999999942 839.8999999999942 859.8999999999942 879.8999999999942 899.8999999999942 919.8999999999942 939.8999999999942 959.8999999999942 979.8999999999942 999.8999999999942 1019.8999999999942 1039.8999999999942 1059.8999999999942 1079.8999999999942 1099.8999999999942 1119.8999999999942 1139.8999999999942 1159.8999999999942 1179.8999999999942 1199.8999999999942 1219.8999999999942 1239.8999999999942
cb_07,25.0,enc_trial,stim,response,Miami trip,1005.7000000000116,enc_trial,1.0,25.0,t_s_04_1,travel_shared,fold-c-single,instant camera,7.0,competing,,single,t_s_04_1.jpg,,travel-b1,Iceland trip,Miami trip,sub-07,1.0,,1.0,,0.4921700223713647 0.4921700223713647 0.5033557046979866 0.5033557046979866 0.5134228187919463 0.5134228187919463 0.5201342281879194 0.5425055928411633 0.5492170022371364 0.5548098434004475 0.5659955257270693 0.5659955257270693 0.6711409395973155 0.7225950782997763 0.7527964205816555 0.7527964205816555 0.7953020134228188 0.7953020134228188 0.8064876957494407 0.8109619686800895 0.8232662192393736 0.8366890380313199 0.8456375838926175 0.8557046979865772 0.8568232662192393 0.8568232662192393 0.860178970917226 0.8624161073825504 0.8736017897091722 0.8769574944071589 0.8780760626398211 0.8780760626398211 0.8780760626398211 0.8780760626398211 0.8780760626398211 0.8791946308724832,0.8355704697986577 0.8355704697986577 0.8236390753169277 0.8236390753169277 0.8131991051454139 0.8131991051454139 0.8012677106636839 0.7639821029082774 0.7356450410141686 0.6968680089485458 0.6297539149888143 0.6297539149888143 0.34638329604772555 0.2688292319164802 0.22856077554064136 0.22856077554064136 0.1897837434750187 0.1897837434750187 0.1778523489932886 0.17188665175242354 0.162938105891126 0.15697240865026094 0.14951528709917972 0.14056674123788215 0.13758389261744966 0.13758389261744966 0.1331096196868009 0.12714392244593584 0.11521252796420578 0.11222967934377326 0.11073825503355704 0.11073825503355704 0.11073825503355704 0.11073825503355704 0.11073825503355704 0.11222967934377326,240.0 260.0 280.0 300.0 320.0 340.0 360.0 380.0 400.0 420.0 440.0 460.0 480.0 500.0 520.0 540.0 560.0 580.0 600.0 620.0 640.0 660.0 680.0 700.0 720.0 740.0 760.0 780.0 800.0 820.0 840.0 860.0 880.0 900.0 920.0 940.0
cb_07,26.0,enc_trial,stim,response,Miami trip,1149.599999991071,enc_trial,1.0,26.0,t_s_08_1,travel_shared,fold-a,hand lotion,7.0,competing,close,paired,t_s_08_1.jpg,,travel-b1,Iceland trip,Miami trip,sub-07,1.0,1.0,1.0,1.0,0.494407158836689 0.494407158836689 0.4932885906040269 0.4932885906040269 0.4932885906040269 0.4932885906040269 0.4932885906040269 0.4921700223713647 0.4921700223713647 0.4932885906040269 0.4977628635346757 0.5022371364653244 0.5335570469798657 0.5548098434004475 0.5771812080536913 0.6017897091722595 0.6219239373601789 0.6756152125279642 0.6935123042505593 0.7114093959731543 0.7304250559284117 0.7416107382550335 0.7550335570469798 0.7617449664429531 0.767337807606264 0.7718120805369127 0.7762863534675615 0.7885906040268457 0.8042505592841164 0.8199105145413871 0.831096196868009 0.8344519015659956 0.8445190156599552 0.8545861297539151 0.860178970917226 0.8624161073825504 0.8657718120805369 0.8657718120805369 0.8702460850111857 0.87248322147651 0.8769574944071589 0.8814317673378076 0.8814317673378076 0.8825503355704698,0.8460104399701716 0.8460104399701716 0.8460104399701716 0.8460104399701716 0.8460104399701716 0.8460104399701716 0.8460104399701716 0.8460104399701716 0.8460104399701716 0.843027591349739 0.8370618941088741 0.8251304996271439 0.7774049217002237 0.7505592841163311 0.7102908277404922 0.6670395227442207 0.6357196122296793 0.5611483967188665 0.5328113348247576 0.505965697240865 0.4746457867263236 0.4448173005219985 0.3985831469052945 0.3851603281133482 0.3747203579418345 0.3642803877703207 0.3568232662192393 0.3284862043251305 0.30164056674123785 0.2688292319164802 0.24198359433258765 0.22408650260999247 0.19873228933631606 0.1614466815809098 0.1465324384787472 0.14056674123788215 0.13758389261744966 0.1316181953765846 0.12714392244593584 0.12416107382550336 0.11968680089485464 0.1167039522744221 0.11521252796420578 0.11521252796420578,239.80000000001743 259.8000000000174 279.8000000000174 299.8000000000175 319.80000000001763 339.80000000001763 359.80000000001763 379.80000000001763 399.8000000000177 419.8000000000177 439.8000000000177 459.8000000000178 479.8000000000178 499.8000000000178 519.8000000000178 539.8000000000178 559.8000000000178 579.8000000000178 599.8000000000178 619.800000000018 639.800000000018 659.800000000018 679.800000000018 699.8000000000181 719.8000000000181 739.8000000000181 759.8000000000181 779.8000000000183 799.8000000000183 819.8000000000183 839.8000000000183 859.8000000000183 879.8000000000183 899.8000000000183 919.8000000000183 939.8000000000183 959.8000000000183 979.8000000000183 999.8000000000186 1019.8000000000186 1039.8000000000186 1059.8000000000186 1079.8000000000186 1099.8000000000186
cb_07,27.0,enc_trial,stim,response,Iceland trip,1392.199999997014,enc_trial,1.0,27.0,t_i_02_1,travel_Iceland,fold-e-single,scarf,7.0,unique,,single,t_i_02_1.jpg,Iceland,travel-b1,Iceland trip,Miami trip,sub-07,1.0,,1.0,,0.4910514541387024 0.4910514541387024 0.4966442953020134 0.5022371364653244 0.5111856823266219 0.5973154362416108 0.6442953020134228 0.6890380313199105 0.7170022371364653 0.7393736017897091 0.7706935123042505 0.7919463087248322 0.7953020134228188 0.7953020134228188 0.7986577181208053 0.7874720357941835 0.7639821029082774 0.7639821029082774 0.7639821029082774 0.7617449664429531 0.7617449664429531 0.6923937360178971 0.6040268456375839 0.5357941834451901 0.5357941834451901 0.3702460850111857 0.32997762863534674 0.3076062639821029 0.2953020134228188 0.29082774049217003 0.29082774049217003 0.2807606263982103 0.2785234899328859 0.2751677852348993 0.2695749440715884 0.267337807606264 0.2583892617449665 0.2460850111856823 0.2181208053691275 0.1935123042505593 0.1644295302013423 0.13646532438478748 0.11409395973154365 0.10961968680089486 0.10961968680089486,0.7863534675615212 0.7654735272184936 0.7416107382550335 0.7132736763609246 0.6804623415361669 0.5029828486204325 0.4313944817300521 0.383668903803132 0.3493661446681581 0.3240119313944817 0.28374347501864283 0.261372110365399 0.2524235645041014 0.2524235645041014 0.2449664429530201 0.2196122296793438 0.1912751677852349 0.18680089485458606 0.18530947054436986 0.18232662192393734 0.18232662192393734 0.1181953765846383 0.086875466070097 0.07196122296793439 0.07196122296793439 0.06002982848620431 0.06748695003728555 0.07494407158836691 0.08538404175988068 0.0898583146905294 0.0898583146905294 0.10178970917225948 0.10775540641312452 0.11073825503355704 0.1167039522744221 0.11968680089485464 0.1316181953765846 0.13758389261744966 0.145041014168531 0.14205816554809847 0.1346010439970171 0.1301267710663684 0.11968680089485464 0.1167039522744221 0.11222967934377326,520.2999999999884 540.2999999999884 560.2999999999884 580.2999999999884 600.2999999999884 620.2999999999884 640.2999999999884 660.2999999999884 680.2999999999884 700.2999999999884 720.2999999999884 740.2999999999884 760.2999999999884 780.2999999999884 800.2999999999884 820.2999999999884 840.2999999999884 860.2999999999884 880.2999999999884 900.2999999999884 920.2999999999884 940.2999999999884 960.2999999999884 980.2999999999884 1000.2999999999884 1020.2999999999884 1040.2999999999884 1060.2999999999884 1080.2999999999884 1100.2999999999884 1120.2999999999884 1140.2999999999886 1160.2999999999886 1180.2999999999886 1200.2999999999886 1220.2999999999886 1240.2999999999886 1260.2999999999886 1280.2999999999886 1300.2999999999886 1320.2999999999886 1340.2999999999886 1360.2999999999886 1380.2999999999884 1400.2999999999884
cb_07,28.0,enc_trial,stim,response,Iceland trip,1509.7999999910535,enc_trial,1.0,28.0,t_i_06_2,travel_Iceland,fold-d,knit hat,7.0,unique,far,paired,t_i_06_2.jpg,Iceland,travel-b1,Iceland trip,Miami trip,sub-07,1.0,1.0,1.0,1.0,0.4876957494407159 0.4888143176733781 0.4888143176733781 0.4888143176733781 0.4888143176733781 0.4888143176733781 0.4888143176733781 0.4888143176733781 0.4888143176733781 0.4888143176733781 0.4888143176733781 0.4888143176733781 0.4888143176733781 0.4888143176733781 0.4888143176733781 0.4888143176733781 0.4932885906040269 0.4966442953020134 0.4966442953020134 0.5201342281879194 0.5201342281879194 0.5492170022371364 0.5492170022371364 0.587248322147651 0.587248322147651 0.6073825503355704 0.6017897091722595 0.6017897091722595 0.6040268456375839 0.6040268456375839 0.6040268456375839 0.5156599552572707 0.5156599552572707 0.4832214765100672 0.4485458612975392 0.3814317673378076 0.3512304250559284 0.3344519015659955 0.31767337807606266 0.30313199105145416 0.2841163310961969 0.2695749440715884 0.26174496644295303 0.2527964205816555 0.2472035794183445 0.23154362416107385 0.22818791946308725 0.22371364653243847 0.2192393736017897 0.21364653243847875 0.2058165548098434 0.20022371364653244 0.19686800894854584 0.19574944071588368 0.1935123042505593 0.19239373601789708 0.1912751677852349 0.1912751677852349 0.1912751677852349 0.1912751677852349 0.19015659955257272 0.1879194630872484 0.18680089485458606 0.18680089485458606 0.18568232662192394 0.1767337807606264 0.17337807606263986 0.17002237136465326 0.16554809843400448 0.16331096196868009 0.16331096196868009 0.1621923937360179 0.1621923937360179 0.1599552572706935,0.8251304996271439 0.8251304996271439 0.8251304996271439 0.8251304996271439 0.8251304996271439 0.8251304996271439 0.8251304996271439 0.8251304996271439 0.8251304996271439 0.8251304996271439 0.8281133482475764 0.8281133482475764 0.8281133482475764 0.8281133482475764 0.8281133482475764 0.8281133482475764 0.8221476510067114 0.8161819537658463 0.8161819537658463 0.7684563758389262 0.7684563758389262 0.7117822520507084 0.7117822520507084 0.6372110365398955 0.6372110365398955 0.5089485458612976 0.4537658463832961 0.4000745712155108 0.3866517524235645 0.3866517524235645 0.3866517524235645 0.31357196122296793 0.31357196122296793 0.3061148396718867 0.2971662938105891 0.2897091722595079 0.28374347501864283 0.2762863534675615 0.27181208053691275 0.26733780760626397 0.2539149888143176 0.2494407158836689 0.24198359433258765 0.2360178970917226 0.2300521998508576 0.21662938105891127 0.21215510812826244 0.2061894108873975 0.19724086502609994 0.1912751677852349 0.17934377330350482 0.1748695003728561 0.17188665175242354 0.17039522744220725 0.162938105891126 0.1614466815809098 0.15995525727069348 0.15995525727069348 0.15995525727069348 0.15995525727069348 0.15995525727069348 0.162938105891126 0.16442953020134232 0.16442953020134232 0.16442953020134232 0.162938105891126 0.15995525727069348 0.15548098434004476 0.15249813571961224 0.14951528709917972 0.14951528709917972 0.1465324384787472 0.14205816554809847 0.14056674123788215,60.10000000000582 80.1000000000058 100.10000000000582 120.10000000000582 140.10000000000582 160.10000000000582 180.1000000000058 200.10000000000585 220.10000000000585 240.10000000000585 260.1000000000058 280.1000000000058 300.1000000000058 320.1000000000058 340.1000000000058 360.1000000000058 380.1000000000058 400.1000000000058 420.1000000000058 440.1000000000058 460.1000000000058 480.1000000000058 500.1000000000058 520.1000000000058 540.1000000000058 560.1000000000058 580.1000000000057 600.1000000000057 620.1000000000057 640.1000000000057 660.1000000000057 680.1000000000057 700.1000000000058 720.1000000000058 740.1000000000058 760.1000000000058 780.1000000000058 800.1000000000058 820.1000000000058 840.1000000000058 860.1000000000058 880.1000000000058 900.1000000000058 920.1000000000058 940.1000000000058 960.1000000000058 980.1000000000058 1000.1000000000058 1020.1000000000058 1040.1000000000058 1060.1000000000058 1080.1000000000058 1100.1000000000058 1120.1000000000058 1140.1000000000058 1160.1000000000058 1180.1000000000058 1200.1000000000058 1220.1000000000058 1240.1000000000058 1260.1000000000058 1280.1000000000058 1300.1000000000058 1320.1000000000058 1340.1000000000058 1360.1000000000058 1380.1000000000058 1400.1000000000058 1420.1000000000058 1440.1000000000058 1460.1000000000058 1480.1000000000058 1500.1000000000058 1520.1000000000058
cb_07,29.0,enc_trial,stim,response,Iceland trip,1482.199999997014,enc_trial,1.0,29.0,t_s_13_1,travel_shared,fold-c-single,contact lens case,7.0,competing,,single,t_s_13_1.jpg,,travel-b1,Iceland trip,Miami trip,sub-07,1.0,,1.0,,0.4966442953020134 0.5022371364653244 0.5022371364653244 0.5089485458612976 0.5201342281879194 0.5201342281879194 0.5357941834451901 0.5357941834451901 0.5391498881431768 0.5503355704697986 0.558165548098434 0.5671140939597316 0.5782997762863534 0.5782997762863534 0.5827740492170023 0.587248322147651 0.5928411633109619 0.6129753914988815 0.62751677852349 0.6465324384787472 0.6756152125279642 0.6935123042505593 0.7281879194630873 0.7427293064876958 0.7662192393736018 0.7885906040268457 0.8199105145413871 0.825503355704698 0.8288590604026845 0.8322147651006712 0.8344519015659956 0.8366890380313199 0.8434004474272929 0.8478747203579419 0.8489932885906041 0.8489932885906041 0.8266219239373602 0.7818791946308725 0.7472035794183445 0.7158836689038032 0.6879194630872483 0.5883668903803132 0.5033557046979866 0.4821029082774049 0.47091722595078295 0.4642058165548098 0.4440715883668904 0.4205816554809844 0.39149888143176736 0.3646532438478747 0.3400447427293065 0.3187919463087248 0.3143176733780761 0.3143176733780761 0.29082774049217003 0.2651006711409396 0.21476510067114093 0.19239373601789708 0.16331096196868009 0.15883668903803133 0.15771812080536912 0.15659955257270694 0.15324384787472034 0.1487695749440716,0.8236390753169277 0.8087248322147651 0.8087248322147651 0.7863534675615212 0.7475764354958986 0.7475764354958986 0.6879194630872483 0.6879194630872483 0.6670395227442207 0.6282624906785981 0.5954511558538405 0.5566741237882178 0.4865771812080537 0.4865771812080537 0.4567486950037286 0.4388516032811335 0.4164802386278896 0.3747203579418345 0.3493661446681581 0.3284862043251305 0.2986577181208053 0.2867263236390753 0.25988068605518266 0.2494407158836689 0.2360178970917226 0.21364653243847875 0.17188665175242354 0.16741237882177484 0.15995525727069348 0.15398956002982844 0.15249813571961224 0.1480238627889635 0.1480238627889635 0.14951528709917972 0.14951528709917972 0.14951528709917972 0.15249813571961224 0.1465324384787472 0.14056674123788215 0.13758389261744966 0.1301267710663684 0.1167039522744221 0.11521252796420578 0.10775540641312452 0.10477255779269197 0.1032811334824758 0.11073825503355704 0.1181953765846383 0.12416107382550336 0.12714392244593584 0.1331096196868009 0.145041014168531 0.15398956002982844 0.15398956002982844 0.16741237882177484 0.1748695003728561 0.18680089485458606 0.1897837434750187 0.18680089485458606 0.18530947054436986 0.18381804623415365 0.18232662192393734 0.1748695003728561 0.16442953020134232,220.10000000000585 240.10000000000585 260.1000000000058 280.1000000000058 300.1000000000058 320.1000000000058 340.1000000000058 360.1000000000058 380.1000000000058 400.1000000000058 420.1000000000058 440.1000000000058 460.1000000000058 480.1000000000058 500.1000000000058 520.1000000000058 540.1000000000058 560.1000000000058 580.1000000000057 600.1000000000057 620.1000000000057 640.1000000000057 660.1000000000057 680.1000000000057 700.1000000000058 720.1000000000058 740.1000000000058 760.1000000000058 780.1000000000058 800.1000000000058 820.1000000000058 840.1000000000058 860.1000000000058 880.1000000000058 900.1000000000058 920.1000000000058 940.1000000000058 960.1000000000058 980.1000000000058 1000.1000000000058 1020.1000000000058 1040.1000000000058 1060.1000000000058 1080.1000000000058 1100.1000000000058 1120.1000000000058 1140.1000000000058 1160.1000000000058 1180.1000000000058 1200.1000000000058 1220.1000000000058 1240.1000000000058 1260.1000000000058 1280.1000000000058 1300.1000000000058 1320.1000000000058 1340.1000000000058 1360.1000000000058 1380.1000000000058 1400.1000000000058 1420.1000000000058 1440.1000000000058 1460.1000000000058 1480.1000000000058
cb_07,30.0,enc_trial,stim,response,Miami trip,910.7999999999884,enc_trial,1.0,30.0,t_m_20_1,travel_Miami,fold-e-single,inflatable beachball,7.0,unique,,single,t_m_20_1.jpg,Miami,travel-b1,Iceland trip,Miami trip,sub-07,1.0,,1.0,,0.4921700223713647 0.4921700223713647 0.4921700223713647 0.4921700223713647 0.4921700223713647 0.4921700223713647 0.4921700223713647 0.4921700223713647 0.4921700223713647 0.4921700223713647 0.4966442953020134 0.4988814317673378 0.5022371364653244 0.5022371364653244 0.5145413870246085 0.5145413870246085 0.5223713646532439 0.5268456375838926 0.5324384787472036 0.5380313199105146 0.5615212527964206 0.5827740492170023 0.6140939597315436 0.6521252796420581 0.6722595078299777 0.6868008948545862 0.6968680089485458 0.714765100671141 0.7315436241610739 0.743847874720358 0.7785234899328859 0.7941834451901566 0.8098434004474273 0.8232662192393736 0.8366890380313199 0.8456375838926175 0.8534675615212528 0.8557046979865772 0.8590604026845637 0.8612975391498882 0.8646532438478747 0.8668903803131991 0.8680089485458613,0.8251304996271439 0.8251304996271439 0.8251304996271439 0.8251304996271439 0.8251304996271439 0.8251304996271439 0.8251304996271439 0.8251304996271439 0.8221476510067114 0.8221476510067114 0.8087248322147651 0.8057419835943326 0.8012677106636839 0.8012677106636839 0.7803877703206562 0.7803877703206562 0.7580164056674124 0.7371364653243848 0.714765100671141 0.6953765846383296 0.5984340044742729 0.5402684563758389 0.4806114839671887 0.41946308724832215 0.3866517524235645 0.3568232662192393 0.3404175988068605 0.3240119313944817 0.3090976882923192 0.2941834451901566 0.25988068605518266 0.2524235645041014 0.2449664429530201 0.2300521998508576 0.21364653243847875 0.18680089485458606 0.1778523489932886 0.17188665175242354 0.16890380313199105 0.16741237882177484 0.16741237882177484 0.1614466815809098 0.15697240865026094,60.0 80.0 100.0 120.0 140.0 160.0 180.0 200.0 220.0 240.0 260.0 280.0 300.0 320.0 340.0 360.0 380.0 400.0 420.0 440.0 460.0 480.0 500.0 520.0 540.0 560.0 580.0 600.0 620.0 640.0 660.0 680.0 700.0 720.0 740.0 760.0 780.0 800.0 820.0 840.0 860.0 880.0 900.0
cb_07,31.0,enc_trial,stim,response,Miami trip,964.4999999940337,enc_trial,1.0,31.0,t_m_05_2,travel_Miami,fold-d,sunscreen,7.0,unique,far,paired,t_m_05_2.jpg,Miami,travel-b1,Iceland trip,Miami trip,sub-07,1.0,1.0,1.0,1.0,0.5033557046979866 0.5033557046979866 0.5033557046979866 0.5033557046979866 0.5033557046979866 0.5033557046979866 0.5033557046979866 0.5033557046979866 0.5033557046979866 0.5033557046979866 0.5033557046979866 0.5033557046979866 0.5033557046979866 0.5033557046979866 0.5033557046979866 0.5033557046979866 0.5033557046979866 0.5033557046979866 0.5033557046979866 0.5033557046979866 0.5055928411633109 0.5134228187919463 0.5223713646532439 0.5391498881431768 0.5659955257270693 0.62751677852349 0.6498881431767338 0.6700223713646533 0.6879194630872483 0.7024608501118568 0.7114093959731543 0.7170022371364653 0.7214765100671141 0.7304250559284117 0.767337807606264 0.7807606263982103 0.7930648769574944 0.8031319910514542 0.8143176733780759 0.8143176733780759 0.8478747203579419 0.8534675615212528 0.8557046979865772 0.8568232662192393 0.8568232662192393 0.8568232662192393,0.8504847129008203 0.8504847129008203 0.8504847129008203 0.8504847129008203 0.8504847129008203 0.8504847129008203 0.8504847129008203 0.8504847129008203 0.8504847129008203 0.8504847129008203 0.8504847129008203 0.8504847129008203 0.8504847129008203 0.8504847129008203 0.8504847129008203 0.8504847129008203 0.8504847129008203 0.8504847129008203 0.8504847129008203 0.8504847129008203 0.8385533184190902 0.8206562266964952 0.7923191648023863 0.7475764354958986 0.6133482475764356 0.4343773303504848 0.3791946308724832 0.3478747203579419 0.319537658463833 0.2822520507084265 0.27181208053691275 0.2658463832960477 0.25988068605518266 0.2539149888143176 0.2375093214019388 0.2315436241610739 0.22706935123042504 0.22110365398956 0.21513795674869496 0.21513795674869496 0.19425801640566745 0.1897837434750187 0.18530947054436986 0.18232662192393734 0.1778523489932886 0.17039522744220725,80.0 100.0 120.0 140.0 160.0 180.0 200.0 220.0 240.0 260.0 280.0 300.0 320.0 340.0 360.0 380.0 400.0 420.0 440.0 460.0 480.0 500.0 520.0 540.0 560.0 580.0 600.0 620.0 640.0 660.0 680.0 700.0 720.0 740.0 760.0 780.0 800.0 820.0 840.0 860.0 880.0 900.0 920.0 940.0 960.0 980.0
cb_07,32.0,enc_trial,stim,response,Iceland trip,1379.3999999999942,enc_trial,1.0,32.0,t_s_08_2,travel_shared,fold-a,hand lotion,7.0,competing,close,paired,t_s_08_2.jpg,,travel-b1,Iceland trip,Miami trip,sub-07,1.0,1.0,1.0,1.0,0.4910514541387024 0.4921700223713647 0.4921700223713647 0.4966442953020134 0.5480984340044742 0.5480984340044742 0.6375838926174496 0.6375838926174496 0.674496644295302 0.674496644295302 0.6778523489932886 0.6879194630872483 0.7158836689038032 0.7158836689038032 0.732662192393736 0.7751677852348994 0.7897091722595079 0.8031319910514542 0.8154362416107382 0.8344519015659956 0.8489932885906041 0.8534675615212528 0.8557046979865772 0.8568232662192393 0.8568232662192393 0.8568232662192393 0.8568232662192393 0.8568232662192393 0.8568232662192393 0.8557046979865772 0.8232662192393736 0.8232662192393736 0.6778523489932886 0.5212527964205816 0.21476510067114093 0.21476510067114093 0.21476510067114093 0.17449664429530198 0.1756152125279642 0.18008948545861295 0.1812080536912752 0.1812080536912752 0.18008948545861295 0.17449664429530198 0.17002237136465326 0.16890380313199105 0.16890380313199105 0.16890380313199105 0.16890380313199105 0.16778523489932887,0.8131991051454139 0.8012677106636839 0.8012677106636839 0.7863534675615212 0.6774794929157345 0.6774794929157345 0.4970171513795675 0.4970171513795675 0.3687546607009694 0.3687546607009694 0.3359433258762118 0.2912005965697241 0.2494407158836689 0.2494407158836689 0.23900074571215515 0.22110365398956 0.21364653243847875 0.2076808351976137 0.20022371364653246 0.1897837434750187 0.17934377330350482 0.1763609246830723 0.1748695003728561 0.17188665175242354 0.17188665175242354 0.17188665175242354 0.17039522744220725 0.17039522744220725 0.16890380313199105 0.16442953020134232 0.15548098434004476 0.15548098434004476 0.15548098434004476 0.162938105891126 0.1346010439970171 0.1346010439970171 0.1346010439970171 0.1316181953765846 0.1331096196868009 0.1346010439970171 0.13758389261744966 0.13758389261744966 0.13758389261744966 0.13758389261744966 0.13758389261744966 0.13758389261744966 0.13758389261744966 0.13758389261744966 0.13758389261744966 0.1346010439970171,400.0 420.0 440.0 460.0 480.0 500.0 520.0 540.0 560.0 580.0 600.0 620.0 640.0 660.0 680.0 700.0 720.0 740.0 760.0 780.0 800.0 820.0 840.0 860.0 880.0 900.0 920.0 940.0 960.0 980.0 1000.0 1020.0 1040.0 1060.0 1080.0 1100.0 1120.0 1140.0 1160.0 1180.0 1200.0 1220.0 1240.0 1260.0 1280.0 1300.0 1320.0 1340.0 1360.0 1380.0
cb_07,33.0,enc_trial,stim,response,Miami trip,1104.7000000000116,enc_trial,1.0,33.0,t_m_11_2,travel_Miami,fold-d,collapsible beach chair,7.0,unique,far,paired,t_m_11_2.jpg,Miami,travel-b1,Iceland trip,Miami trip,sub-07,1.0,1.0,1.0,1.0,0.4932885906040269 0.4932885906040269 0.4932885906040269 0.4932885906040269 0.4932885906040269 0.494407158836689 0.4977628635346757 0.5033557046979866 0.5100671140939598 0.5156599552572707 0.5212527964205816 0.5324384787472036 0.5480984340044742 0.5838926174496645 0.5894854586129754 0.5950782997762863 0.6017897091722595 0.6073825503355704 0.6196868008948546 0.6252796420581656 0.6297539149888143 0.6353467561521253 0.6409395973154363 0.6521252796420581 0.6554809843400448 0.6666666666666666 0.6834451901565995 0.7046979865771812 0.7505592841163311 0.7662192393736018 0.7762863534675615 0.7953020134228188 0.8221476510067114 0.8590604026845637 0.8668903803131991 0.87248322147651 0.87248322147651 0.87248322147651 0.87248322147651 0.87248322147651 0.87248322147651 0.8736017897091722,0.8281133482475764 0.8281133482475764 0.8281133482475764 0.8221476510067114 0.8131991051454139 0.8072334079045489 0.8012677106636839 0.7878448918717376 0.7580164056674124 0.7401193139448172 0.7177479492915735 0.6909023117076809 0.6551081282624907 0.5850111856823266 0.5641312453392989 0.5417598806860552 0.5208799403430275 0.4985085756897838 0.4522744220730798 0.4343773303504848 0.4164802386278896 0.401565995525727 0.3851603281133482 0.36129753914988816 0.3478747203579419 0.325503355704698 0.2986577181208053 0.26733780760626397 0.2061894108873975 0.1778523489932886 0.1614466815809098 0.15398956002982844 0.14951528709917972 0.13758389261744966 0.1331096196868009 0.1301267710663684 0.1301267710663684 0.1301267710663684 0.1301267710663684 0.12416107382550336 0.12266964951528715 0.12266964951528715,299.8000000000173 319.8000000000173 339.8000000000173 359.8000000000173 379.8000000000174 399.8000000000174 419.8000000000174 439.8000000000174 459.8000000000174 479.8000000000174 499.8000000000174 519.8000000000173 539.8000000000173 559.8000000000173 579.8000000000172 599.8000000000172 619.8000000000172 639.8000000000172 659.8000000000172 679.8000000000172 699.8000000000172 719.8000000000172 739.8000000000172 759.8000000000172 779.8000000000172 799.8000000000172 819.8000000000172 839.8000000000172 859.8000000000172 879.8000000000172 899.8000000000172 919.8000000000172 939.8000000000172 959.8000000000172 979.8000000000172 999.8000000000172 1019.8000000000172 1039.8000000000177 1059.8000000000177 1079.8000000000177 1099.8000000000177 1119.8000000000177
cb_07,34.0,enc_trial,stim,response,Miami trip,1183.9000000000233,enc_trial,1.0,34.0,t_s_12_2,travel_shared,fold-b,clear toiletry bag,7.0,competing,far,paired,t_s_12_2.jpg,,travel-b1,Iceland trip,Miami trip,sub-07,1.0,1.0,1.0,1.0,0.4888143176733781 0.4888143176733781 0.4854586129753915 0.4821029082774049 0.4776286353467562 0.4776286353467562 0.4552572706935123 0.4429530201342282 0.4351230425055929 0.42953020134228187 0.4217002237136465 0.4105145413870246 0.40715883668903796 0.40715883668903796 0.4026845637583893 0.4026845637583893 0.4530201342281879 0.4630872483221477 0.4776286353467562 0.4776286353467562 0.5369127516778524 0.5369127516778524 0.6196868008948546 0.6353467561521253 0.6476510067114094 0.6476510067114094 0.7136465324384788 0.7136465324384788 0.7337807606263982 0.7337807606263982 0.7382550335570469 0.7382550335570469 0.7315436241610739 0.732662192393736 0.7416107382550335 0.7416107382550335 0.7874720357941835 0.7874720357941835 0.8120805369127517 0.8120805369127517 0.8165548098434005 0.8199105145413871 0.825503355704698 0.8266219239373602 0.8277404921700223 0.8277404921700223 0.8288590604026845 0.831096196868009,0.8325876211782253 0.8296047725577926 0.8161819537658463 0.8102162565249813 0.7982848620432513 0.7982848620432513 0.7222222222222222 0.6953765846383296 0.6610738255033557 0.6327367636092469 0.6029082774049217 0.5536912751677852 0.5343027591349738 0.5343027591349738 0.4985085756897838 0.4985085756897838 0.4671886651752424 0.4612229679343773 0.4522744220730798 0.4522744220730798 0.4075316927665921 0.4075316927665921 0.34638329604772555 0.3389261744966443 0.3284862043251305 0.3284862043251305 0.3105891126025354 0.3105891126025354 0.2971662938105891 0.2971662938105891 0.2897091722595079 0.2897091722595079 0.27181208053691275 0.2658463832960477 0.2583892617449665 0.2583892617449665 0.22259507829977632 0.22259507829977632 0.20171513795674867 0.20171513795674867 0.19873228933631606 0.1927665920954511 0.17934377330350482 0.1763609246830723 0.17039522744220725 0.17039522744220725 0.16442953020134232 0.1614466815809098,220.10000000003487 240.10000000003487 260.10000000003487 280.10000000003487 300.10000000003487 320.10000000003487 340.10000000003487 360.10000000003487 380.10000000003487 400.10000000003487 420.10000000003487 440.10000000003487 460.10000000003487 480.10000000003487 500.10000000003487 520.1000000000348 540.1000000000348 560.1000000000348 580.1000000000348 600.1000000000348 620.1000000000348 640.1000000000348 660.1000000000348 680.1000000000348 700.1000000000349 720.1000000000349 740.1000000000349 760.1000000000349 780.1000000000349 800.1000000000349 820.1000000000349 840.1000000000349 860.1000000000349 880.1000000000349 900.1000000000349 920.1000000000348 940.1000000000348 960.1000000000348 980.1000000000348 1000.1000000000348 1020.1000000000348 1040.100000000035 1060.100000000035 1080.100000000035 1100.100000000035 1120.100000000035 1140.100000000035 1160.100000000035
cb_07,35.0,enc_trial,stim,response,Miami trip,1498.6999999880786,enc_trial,1.0,35.0,t_i_04_1,travel_Iceland,fold-c,portable camping stove,7.0,unique,close,paired,t_i_04_1.jpg,Iceland,travel-b1,Iceland trip,Miami trip,sub-07,0.0,0.0,0.0,1.0,0.5 0.5 0.5 0.5 0.5 0.5 0.5 0.5 0.5 0.5 0.5 0.5022371364653244 0.5044742729306487 0.5055928411633109 0.5055928411633109 0.5055928411633109 0.5100671140939598 0.5145413870246085 0.5246085011185683 0.5413870246085011 0.5727069351230425 0.6241610738255033 0.7203579418344519 0.7427293064876958 0.7639821029082774 0.7762863534675615 0.7919463087248322 0.7953020134228188 0.7986577181208053 0.7997762863534675 0.7997762863534675 0.7997762863534675 0.7986577181208053 0.7897091722595079 0.7762863534675615 0.703579418344519 0.6778523489932886 0.6465324384787472 0.6017897091722595 0.5302013422818792 0.4272930648769575 0.3579418344519016 0.32997762863534674 0.3042505592841163 0.2796420581655481 0.2371364653243848 0.2203579418344519 0.19574944071588368 0.17449664429530198 0.1599552572706935 0.15436241610738255 0.14317673378076062 0.13982102908277405 0.13534675615212527 0.1319910514541387 0.1319910514541387 0.19574944071588368 0.3344519015659955 0.4720357941834452 0.5894854586129754 0.8008948545861297 0.8333333333333334 0.8478747203579419 0.8534675615212528 0.8534675615212528 0.8512304250559284 0.8590604026845637 0.8668903803131991 0.8758389261744967 0.8814317673378076 0.8892617449664431 0.8892617449664431 0.8892617449664431,0.8400447427293065 0.8400447427293065 0.8400447427293065 0.8400447427293065 0.8400447427293065 0.8400447427293065 0.8400447427293065 0.8400447427293065 0.8400447427293065 0.8400447427293065 0.8400447427293065 0.8400447427293065 0.8400447427293065 0.843027591349739 0.843027591349739 0.843027591349739 0.8370618941088741 0.8176733780760627 0.7639821029082774 0.7028337061894109 0.6237882177479492 0.5432513049962715 0.4060402684563759 0.3687546607009694 0.3240119313944817 0.2971662938105891 0.27926920208799394 0.2762863534675615 0.2747949291573453 0.27181208053691275 0.27181208053691275 0.27181208053691275 0.27181208053691275 0.2688292319164802 0.261372110365399 0.23900074571215515 0.2315436241610739 0.22408650260999247 0.21513795674869496 0.2061894108873975 0.19425801640566745 0.1912751677852349 0.18381804623415365 0.1748695003728561 0.16890380313199105 0.15995525727069348 0.15995525727069348 0.1614466815809098 0.1614466815809098 0.16442953020134232 0.16890380313199105 0.17188665175242354 0.17188665175242354 0.17188665175242354 0.17188665175242354 0.17188665175242354 0.17934377330350482 0.17039522744220725 0.15249813571961224 0.15249813571961224 0.1167039522744221 0.10775540641312452 0.1032811334824758 0.1032811334824758 0.1032811334824758 0.10477255779269197 0.1167039522744221 0.12416107382550336 0.1301267710663684 0.1346010439970171 0.13907531692766595 0.13907531692766595 0.1346010439970171,59.900000000023276 79.90000000002328 99.90000000002328 119.90000000002328 139.90000000002328 159.9000000000233 179.9000000000233 199.9000000000233 219.9000000000233 239.9000000000233 259.9000000000233 279.9000000000233 299.9000000000233 319.9000000000234 339.9000000000234 359.90000000002334 379.90000000002334 399.90000000002334 419.90000000002334 439.90000000002334 459.90000000002334 479.9000000000234 499.9000000000234 519.9000000000234 539.9000000000234 559.9000000000234 579.9000000000235 599.9000000000235 619.9000000000235 639.9000000000235 659.9000000000235 679.9000000000235 699.9000000000235 719.9000000000235 739.9000000000235 759.9000000000235 779.9000000000235 799.9000000000235 819.9000000000235 839.9000000000235 859.9000000000235 879.9000000000236 899.9000000000236 919.9000000000236 939.9000000000236 959.9000000000236 979.9000000000236 999.9000000000236 1019.9000000000236 1039.9000000000237 1059.9000000000237 1079.9000000000237 1099.9000000000237 1119.9000000000237 1139.9000000000235 1159.9000000000235 1179.9000000000235 1199.9000000000235 1219.9000000000235 1239.9000000000235 1259.9000000000235 1279.9000000000235 1299.9000000000235 1319.9000000000235 1339.9000000000235 1359.9000000000235 1379.9000000000235 1399.9000000000235 1419.9000000000235 1439.9000000000235 1459.9000000000235 1479.9000000000235 1499.9000000000235
