Current Spreadsheet,Trial Number,Display,Screen,Response Type,Response,Reaction Time,display,block,block_trial,stimulus_id,expected_goal,fold,stimulus_name,c_group,condition,within_block_dist,paired_status,stimulus_path,expected_location,block_split,respStim_1,respStim_2,sub_label,acc,both_enc_acc,assoc_stim1_acc,assoc_stim2_acc,x_pos,y_pos,time_trajectories
cb_02,1.0,enc_trial,stim,response,STEM students,1754.2000000715198,enc_trial,1.0,1.0,s_s_10_1,student_stem,fold-c-single,3d molecule,2.0,unique,,single,s_s_10_1.jpg,stem,student-b1,STEM students,Fine Arts students,sub-75,1.0,,1.0,,0.5493055555555556 0.5493055555555556 0.5486111111111112 0.5486111111111112 0.5486111111111112 0.5486111111111112 0.5451388888888888 0.5409722222222222 0.5256944444444445 0.5131944444444444 0.4722222222222222 0.4520833333333333 0.4423611111111111 0.4381944444444445 0.43472222222222223 0.4138888888888889 0.4118055555555555 0.4118055555555555 0.4118055555555555 0.4118055555555555 0.4111111111111111 0.4111111111111111 0.4097222222222222 0.3979166666666665 0.3888888888888889 0.3673611111111112 0.3541666666666667 0.34652777777777777 0.33541666666666664 0.3229166666666667 0.27847222222222223 0.2458333333333333 0.2222222222222222 0.19583333333333333 0.18472222222222226 0.18819444444444444 0.22291666666666668 0.2951388888888889 0.4013888888888889 0.5131944444444444 0.7 0.7423611111111111 0.7493055555555556 0.7493055555555556 0.7493055555555556 0.7402777777777778 0.7208333333333333 0.6923611111111111 0.6375 0.5381944444444444 0.2673611111111111 0.1625 0.12708333333333333 0.11736111111111112 0.11736111111111112 0.11736111111111112 0.11736111111111112 0.11736111111111112 0.11736111111111112 0.11597222222222225 0.11388888888888887 0.11388888888888887 0.11527777777777776 0.11666666666666667 0.11805555555555555 0.11875 0.12361111111111113 0.12777777777777774 0.1284722222222222,0.8453703703703703 0.8444444444444444 0.8416666666666667 0.8388888888888889 0.8277777777777777 0.7898148148148147 0.7592592592592593 0.7240740740740741 0.6518518518518519 0.5777777777777777 0.4342592592592592 0.38703703703703707 0.3657407407407407 0.3592592592592593 0.3527777777777777 0.3305555555555556 0.3296296296296296 0.3296296296296296 0.3296296296296296 0.3296296296296296 0.3296296296296296 0.33333333333333337 0.3388888888888889 0.35 0.3564814814814815 0.3648148148148148 0.3666666666666667 0.3629629629629629 0.3564814814814815 0.3462962962962963 0.3064814814814815 0.2768518518518519 0.2518518518518519 0.22685185185185186 0.21111111111111114 0.19259259259259254 0.1777777777777778 0.16388888888888886 0.14814814814814814 0.13611111111111107 0.12592592592592589 0.12314814814814813 0.12314814814814813 0.12314814814814813 0.12314814814814813 0.12314814814814813 0.12685185185185188 0.12870370370370365 0.13703703703703707 0.15462962962962967 0.21944444444444444 0.2611111111111111 0.2685185185185185 0.2685185185185185 0.2685185185185185 0.2675925925925926 0.2666666666666667 0.2657407407407407 0.26481481481481484 0.2620370370370371 0.2574074074074074 0.2518518518518519 0.2444444444444445 0.2324074074074074 0.2277777777777777 0.2148148148148148 0.1972222222222222 0.18333333333333326 0.1805555555555556,383.3999999999942 403.3999999999942 423.3999999999942 443.3999999999942 463.3999999999942 483.3999999999942 503.3999999999942 523.3999999999942 543.3999999999942 563.3999999999943 583.3999999999943 603.3999999999943 623.3999999999943 643.3999999999943 663.3999999999943 683.3999999999943 703.3999999999942 723.3999999999942 743.3999999999942 763.3999999999942 783.3999999999942 803.3999999999942 823.3999999999942 843.3999999999942 863.3999999999942 883.3999999999942 903.3999999999942 923.3999999999942 943.3999999999942 963.3999999999942 983.3999999999942 1003.3999999999942 1023.3999999999942 1043.3999999999942 1063.3999999999942 1083.3999999999942 1103.3999999999942 1123.3999999999942 1143.3999999999942 1163.3999999999942 1183.3999999999942 1203.3999999999942 1223.3999999999942 1243.3999999999942 1263.3999999999942 1283.3999999999942 1303.3999999999942 1323.3999999999942 1343.3999999999942 1363.3999999999942 1383.3999999999942 1403.3999999999942 1423.3999999999942 1443.3999999999942 1463.3999999999942 1483.3999999999942 1503.3999999999942 1523.3999999999942 1543.3999999999942 1563.3999999999942 1583.3999999999942 1603.3999999999942 1623.3999999999942 1643.3999999999942 1663.3999999999942 1683.3999999999942 1703.3999999999942 1723.3999999999942 1743.3999999999942
cb_02,2.0,enc_trial,stim,response,Fine Arts students,1354.2000000715198,enc_trial,1.0,2.0,s_a_05_1,student_art,fold-c-single,clay,2.0,unique,,single,s_a_05_1.jpg,art,student-b1,STEM students,Fine Arts students,sub-75,1.0,,0.0,,0.50625 0.5055555555555555 0.5027777777777778 0.4993055555555556 0.4909722222222222 0.4666666666666667 0.4527777777777778 0.44027777777777777 0.4131944444444444 0.3840277777777778 0.3194444444444444 0.27847222222222223 0.2388888888888889 0.20555555555555555 0.18125 0.15 0.1451388888888889 0.14166666666666666 0.1375 0.13194444444444445 0.12708333333333333 0.12708333333333333 0.12708333333333333 0.12708333333333333 0.12777777777777774 0.16180555555555556 0.21458333333333326 0.3013888888888889 0.4097222222222222 0.5152777777777777 0.6763888888888889 0.7944444444444444 0.8451388888888889 0.8652777777777778 0.8680555555555556 0.8611111111111112 0.8465277777777778 0.8388888888888889 0.8361111111111111 0.8347222222222223 0.8347222222222223 0.8347222222222223 0.8347222222222223 0.8361111111111111 0.8381944444444445 0.8513888888888889 0.8645833333333334 0.8715277777777778 0.8722222222222222,0.8111111111111111 0.8055555555555556 0.787037037037037 0.7583333333333333 0.7157407407407408 0.5935185185185186 0.5351851851851852 0.4675925925925926 0.39907407407407397 0.3453703703703703 0.2629629629629629 0.2314814814814815 0.19814814814814816 0.1611111111111111 0.13240740740740742 0.0972222222222222 0.08796296296296291 0.0805555555555556 0.07314814814814817 0.062962962962963 0.05092592592592593 0.05092592592592593 0.05092592592592593 0.05092592592592593 0.05092592592592593 0.05740740740740746 0.07037037037037043 0.08611111111111114 0.10185185185185186 0.1074074074074074 0.11296296296296293 0.12777777777777774 0.1351851851851852 0.13981481481481484 0.14166666666666672 0.14629629629629626 0.14814814814814814 0.1509259259259259 0.1518518518518519 0.1518518518518519 0.1518518518518519 0.1518518518518519 0.1518518518518519 0.15000000000000002 0.14629629629629626 0.1435185185185185 0.14074074074074072 0.13981481481481484 0.13981481481481484,383.6999999999971 403.6999999999971 423.6999999999971 443.6999999999971 463.6999999999971 483.6999999999971 503.6999999999971 523.6999999999971 543.6999999999971 563.6999999999971 583.6999999999971 603.6999999999971 623.6999999999971 643.6999999999971 663.6999999999971 683.6999999999971 703.6999999999971 723.6999999999971 743.6999999999971 763.6999999999971 783.6999999999971 803.6999999999971 823.6999999999971 843.6999999999971 863.6999999999971 883.6999999999971 903.6999999999972 923.6999999999972 943.6999999999972 963.6999999999972 983.6999999999972 1003.6999999999972 1023.6999999999972 1043.6999999999969 1063.6999999999969 1083.6999999999969 1103.6999999999969 1123.6999999999969 1143.6999999999969 1163.6999999999969 1183.6999999999969 1203.6999999999969 1223.6999999999969 1243.6999999999969 1263.6999999999969 1283.6999999999969 1303.6999999999969 1323.6999999999969 1343.6999999999969
cb_02,3.0,enc_trial,stim,response,Fine Arts students,1311.8000000000031,enc_trial,1.0,3.0,s_sh_20_1,student_shared,fold-c,tape,2.0,competing,far,paired,s_sh_20_1.jpg,,student-b1,STEM students,Fine Arts students,sub-75,0.0,0.0,0.0,1.0,0.5097222222222222 0.5083333333333333 0.5055555555555555 0.5034722222222222 0.5006944444444444 0.4958333333333334 0.4951388888888889 0.49375 0.49375 0.4930555555555556 0.4909722222222222 0.4895833333333333 0.4868055555555556 0.4868055555555556 0.4847222222222222 0.4847222222222222 0.4840277777777778 0.4840277777777778 0.4840277777777778 0.4840277777777778 0.4819444444444445 0.4777777777777778 0.4694444444444445 0.4555555555555556 0.4326388888888889 0.3548611111111111 0.3111111111111111 0.2652777777777778 0.22569444444444445 0.18888888888888888 0.15347222222222226 0.14444444444444446 0.14027777777777778 0.1375 0.1361111111111111 0.13541666666666666 0.13541666666666666 0.13541666666666666 0.13541666666666666 0.13541666666666666 0.13541666666666666 0.13541666666666666 0.1361111111111111 0.14166666666666666 0.15 0.2534722222222222 0.36041666666666666 0.5090277777777777 0.6569444444444444 0.7680555555555556 0.8159722222222222 0.8381944444444445 0.8381944444444445 0.8381944444444445 0.8388888888888889 0.8388888888888889 0.8395833333333333 0.8395833333333333 0.8402777777777778 0.8416666666666667 0.8506944444444444 0.8819444444444444 0.8840277777777777,0.8314814814814815 0.8296296296296296 0.8287037037037037 0.8231481481481482 0.8157407407407408 0.8046296296296296 0.8009259259259259 0.799074074074074 0.7981481481481482 0.7962962962962963 0.7898148148148147 0.787037037037037 0.7824074074074074 0.7777777777777778 0.7722222222222223 0.7703703703703704 0.7685185185185185 0.7685185185185185 0.7685185185185185 0.7685185185185185 0.7666666666666666 0.7648148148148148 0.7527777777777778 0.7342592592592593 0.6990740740740741 0.5675925925925926 0.4888888888888889 0.4194444444444444 0.3611111111111112 0.3037037037037037 0.2361111111111112 0.2148148148148148 0.2046296296296296 0.1972222222222222 0.1898148148148148 0.18425925925925926 0.18425925925925926 0.18425925925925926 0.18425925925925926 0.18425925925925926 0.18425925925925926 0.18333333333333326 0.1805555555555556 0.17500000000000004 0.1685185185185185 0.1333333333333333 0.11203703703703703 0.10555555555555553 0.10370370370370374 0.10462962962962964 0.1074074074074074 0.10833333333333328 0.10833333333333328 0.10833333333333328 0.11018518518518516 0.11018518518518516 0.11203703703703703 0.11296296296296293 0.11388888888888893 0.1148148148148148 0.12314814814814813 0.14537037037037034 0.14722222222222225,33.30000000000291 53.30000000000291 73.30000000000291 93.30000000000292 113.30000000000292 133.3000000000029 153.3000000000029 173.3000000000029 193.3000000000029 213.3000000000029 233.3000000000029 253.3000000000029 273.3000000000029 293.30000000000285 313.30000000000285 333.30000000000285 353.3000000000029 373.3000000000029 393.3000000000029 413.3000000000029 433.3000000000029 453.3000000000029 473.3000000000029 493.3000000000029 513.3000000000029 533.3000000000029 553.3000000000029 573.3000000000029 593.3000000000029 613.3000000000029 633.3000000000029 653.3000000000029 673.3000000000029 693.3000000000029 713.3000000000029 733.3000000000029 753.3000000000029 773.3000000000029 793.3000000000029 813.3000000000029 833.3000000000029 853.3000000000029 873.3000000000029 893.3000000000029 913.3000000000028 933.3000000000028 953.3000000000028 973.3000000000028 993.3000000000028 1013.3000000000028 1033.3000000000031 1053.3000000000031 1073.3000000000031 1093.3000000000031 1113.3000000000031 1133.3000000000031 1153.3000000000031 1173.3000000000031 1193.3000000000031 1213.3000000000031 1233.3000000000031 1253.3000000000031 1273.3000000000031
cb_02,4.0,enc_trial,stim,response,STEM students,1359.3000000476895,enc_trial,1.0,4.0,s_sh_23_1,student_shared,fold-a,ballpoint pen,2.0,competing,close,paired,s_sh_23_1.jpg,,student-b1,STEM students,Fine Arts students,sub-75,1.0,1.0,0.0,0.0,0.5069444444444444 0.5020833333333333 0.4979166666666667 0.4916666666666666 0.4847222222222222 0.4430555555555555 0.4125 0.3881944444444445 0.3631944444444444 0.34375 0.3201388888888889 0.3090277777777778 0.2958333333333333 0.2847222222222222 0.2701388888888889 0.2548611111111111 0.24722222222222226 0.2395833333333333 0.2305555555555556 0.2243055555555556 0.21458333333333326 0.2083333333333333 0.20277777777777767 0.1986111111111111 0.1986111111111111 0.19236111111111112 0.18611111111111112 0.18194444444444444 0.17777777777777778 0.17569444444444446 0.16458333333333333 0.16041666666666668 0.15833333333333333 0.15555555555555556 0.1527777777777778 0.15069444444444444 0.14930555555555555 0.1486111111111111 0.14722222222222225,0.825 0.8194444444444444 0.8009259259259259 0.7777777777777778 0.7583333333333333 0.6675925925925925 0.6027777777777779 0.5351851851851852 0.4842592592592593 0.4444444444444444 0.4092592592592592 0.3925925925925926 0.3759259259259259 0.36203703703703705 0.3379629629629629 0.3194444444444444 0.31018518518518523 0.3018518518518518 0.2935185185185185 0.2870370370370371 0.2703703703703704 0.2592592592592593 0.24722222222222226 0.2407407407407407 0.23703703703703705 0.2240740740740741 0.21759259259259256 0.2129629629629629 0.20740740740740726 0.20277777777777767 0.1944444444444444 0.19166666666666665 0.19166666666666665 0.1907407407407408 0.18888888888888888 0.18796296296296305 0.18796296296296305 0.18796296296296305 0.18611111111111112,466.6000000000058 486.6000000000058 506.6000000000058 526.6000000000058 546.6000000000058 566.6000000000057 586.6000000000057 606.6000000000057 626.6000000000057 646.6000000000057 666.6000000000057 686.6000000000057 706.6000000000058 726.6000000000058 746.6000000000058 766.6000000000058 786.6000000000058 806.6000000000058 826.6000000000058 846.6000000000058 866.6000000000058 886.6000000000058 906.6000000000058 926.6000000000058 946.6000000000058 966.6000000000058 986.6000000000058 1006.6000000000058 1026.6000000000058 1046.6000000000058 1066.6000000000058 1086.6000000000058 1106.6000000000058 1126.6000000000058 1146.6000000000058 1166.6000000000058 1186.6000000000058 1206.6000000000058 1226.6000000000058
cb_02,5.0,enc_trial,stim,response,Fine Arts students,1381.2999999761525,enc_trial,1.0,5.0,s_a_20_1,student_art,fold-a,pin cushion,2.0,unique,far,paired,s_a_20_1.jpg,art,student-b1,STEM students,Fine Arts students,sub-75,1.0,1.0,1.0,1.0,0.5055555555555555 0.5055555555555555 0.5055555555555555 0.5055555555555555 0.5055555555555555 0.4909722222222222 0.4791666666666667 0.45 0.3951388888888889 0.3263888888888889 0.22291666666666668 0.20347222222222225 0.19791666666666666 0.19791666666666666 0.19791666666666666 0.19791666666666666 0.19791666666666666 0.19791666666666666 0.19791666666666666 0.19791666666666666 0.19791666666666666 0.19791666666666666 0.19791666666666666 0.1986111111111111 0.2013888888888889 0.34375 0.4618055555555556 0.5770833333333333 0.6694444444444444 0.7152777777777778 0.7402777777777778 0.7402777777777778 0.7402777777777778 0.7402777777777778 0.7402777777777778 0.7402777777777778 0.7430555555555556 0.7506944444444444 0.7631944444444444 0.7722222222222223 0.7791666666666667 0.7847222222222222 0.8027777777777778 0.8215277777777777 0.8333333333333334 0.8361111111111111,0.8203703703703704 0.8157407407407408 0.799074074074074 0.787962962962963 0.7583333333333333 0.6398148148148148 0.5796296296296296 0.5064814814814815 0.4101851851851852 0.3314814814814815 0.2231481481481481 0.2055555555555556 0.20185185185185184 0.20185185185185184 0.20185185185185184 0.20185185185185184 0.20185185185185184 0.20185185185185184 0.20185185185185184 0.20185185185185184 0.20185185185185184 0.20185185185185184 0.20185185185185184 0.19814814814814816 0.1962962962962963 0.16574074074074074 0.1435185185185185 0.1333333333333333 0.12962962962962965 0.12777777777777774 0.13148148148148153 0.13148148148148153 0.13148148148148153 0.1333333333333333 0.1333333333333333 0.1342592592592593 0.13611111111111107 0.13703703703703707 0.13703703703703707 0.13796296296296295 0.14166666666666672 0.1435185185185185 0.14166666666666672 0.14074074074074072 0.13796296296296295 0.13796296296296295,383.3999999999942 403.3999999999942 423.3999999999942 443.3999999999942 463.3999999999942 483.3999999999942 503.3999999999942 523.3999999999942 543.3999999999942 563.3999999999943 583.3999999999943 603.3999999999943 623.3999999999943 643.3999999999943 663.3999999999943 683.3999999999943 703.3999999999942 723.3999999999942 743.3999999999942 763.3999999999942 783.3999999999942 803.3999999999942 823.3999999999942 843.3999999999942 863.3999999999942 883.3999999999942 903.3999999999942 923.3999999999942 943.3999999999942 963.3999999999942 983.3999999999942 1003.3999999999942 1023.3999999999942 1043.3999999999942 1063.3999999999942 1083.3999999999942 1103.3999999999942 1123.3999999999942 1143.3999999999942 1163.3999999999942 1183.3999999999942 1203.3999999999942 1223.3999999999942 1243.3999999999942 1263.3999999999942 1283.3999999999942
cb_02,6.0,enc_trial,stim,response,Fine Arts students,1226.0000000715227,enc_trial,1.0,6.0,s_a_16_1,student_art,fold-b,piano,2.0,unique,close,paired,s_a_16_1.jpg,art,student-b1,STEM students,Fine Arts students,sub-75,1.0,1.0,1.0,1.0,0.5055555555555555 0.5055555555555555 0.5020833333333333 0.4930555555555556 0.4798611111111111 0.4111111111111111 0.3555555555555556 0.29444444444444445 0.21597222222222226 0.19583333333333333 0.1909722222222222 0.19166666666666668 0.19722222222222224 0.2083333333333333 0.23194444444444445 0.3583333333333333 0.4631944444444445 0.575 0.6881944444444444 0.7381944444444445 0.7708333333333334 0.7743055555555556 0.7756944444444445 0.7763888888888889 0.7791666666666667 0.7958333333333333 0.80625 0.8125 0.8166666666666667 0.8173611111111111 0.8173611111111111 0.8180555555555555 0.8222222222222222 0.83125 0.8375 0.8465277777777778 0.8520833333333333 0.8541666666666666,0.8231481481481482 0.8111111111111111 0.7907407407407407 0.7462962962962962 0.6888888888888889 0.5305555555555556 0.4407407407407408 0.3555555555555555 0.2583333333333333 0.2296296296296297 0.2148148148148148 0.2064814814814815 0.1907407407407408 0.17407407407407405 0.1527777777777778 0.11851851851851848 0.09907407407407408 0.0888888888888889 0.08518518518518514 0.0888888888888889 0.0981481481481481 0.10092592592592596 0.10277777777777776 0.10370370370370374 0.10648148148148152 0.10648148148148152 0.1074074074074074 0.1074074074074074 0.10925925925925928 0.10925925925925928 0.10925925925925928 0.10925925925925928 0.11203703703703703 0.11759259259259258 0.12314814814814813 0.12777777777777774 0.12870370370370365 0.12962962962962965,450.09999999999116 470.09999999999116 490.09999999999116 510.09999999999116 530.0999999999912 550.0999999999912 570.0999999999913 590.0999999999913 610.0999999999913 630.0999999999913 650.0999999999913 670.0999999999913 690.0999999999913 710.0999999999913 730.0999999999913 750.0999999999913 770.0999999999913 790.0999999999913 810.0999999999913 830.0999999999913 850.0999999999913 870.0999999999913 890.0999999999913 910.0999999999913 930.0999999999913 950.0999999999913 970.0999999999913 990.0999999999913 1010.0999999999913 1030.0999999999913 1050.0999999999913 1070.0999999999913 1090.0999999999913 1110.0999999999913 1130.0999999999913 1150.0999999999913 1170.0999999999913 1190.0999999999913
cb_02,7.0,enc_trial,stim,response,STEM students,862.8999999761581,enc_trial,1.0,7.0,s_s_02_1,student_stem,fold-b,flask,2.0,unique,close,paired,s_s_02_1.jpg,stem,student-b1,STEM students,Fine Arts students,sub-75,1.0,1.0,1.0,1.0,0.5020833333333333 0.5006944444444444 0.5 0.4944444444444445 0.4847222222222222 0.4680555555555556 0.4590277777777778 0.4354166666666667 0.3673611111111112 0.3145833333333333 0.21875 0.18541666666666667 0.1625 0.15069444444444444 0.14652777777777778 0.14583333333333334 0.14583333333333334 0.14583333333333334 0.14583333333333334 0.14583333333333334 0.14583333333333334 0.14444444444444446 0.14166666666666666 0.1361111111111111 0.13333333333333333,0.8351851851851853 0.8305555555555555 0.8240740740740741 0.8101851851851851 0.787962962962963 0.7092592592592593 0.6527777777777778 0.5777777777777777 0.4518518518518518 0.3583333333333333 0.21759259259259256 0.17407407407407405 0.1444444444444445 0.13240740740740742 0.12870370370370365 0.12870370370370365 0.12870370370370365 0.12870370370370365 0.12870370370370365 0.12870370370370365 0.12870370370370365 0.12870370370370365 0.12592592592592589 0.12222222222222225 0.11944444444444445,349.8999999999942 369.8999999999942 389.8999999999942 409.8999999999942 429.8999999999942 449.8999999999942 469.8999999999942 489.8999999999942 509.8999999999942 529.8999999999942 549.8999999999942 569.8999999999943 589.8999999999943 609.8999999999943 629.8999999999943 649.8999999999943 669.8999999999943 689.8999999999942 709.8999999999942 729.8999999999942 749.8999999999942 769.8999999999942 789.8999999999942 809.8999999999942 829.8999999999942
cb_02,8.0,enc_trial,stim,response,Fine Arts students,1272.0000000715227,enc_trial,1.0,8.0,s_sh_23_2,student_shared,fold-a,ballpoint pen,2.0,competing,close,paired,s_sh_23_2.jpg,,student-b1,STEM students,Fine Arts students,sub-75,1.0,1.0,0.0,0.0,0.4958333333333334 0.4895833333333333 0.4791666666666667 0.4611111111111112 0.42291666666666666 0.3125 0.25972222222222224 0.21666666666666667 0.18958333333333333 0.175 0.16458333333333333 0.16597222222222222 0.16875 0.17222222222222222 0.1763888888888889 0.1909722222222222 0.20069444444444445 0.20972222222222225 0.22361111111111112 0.2638888888888889 0.4284722222222222 0.5854166666666667 0.6527777777777778 0.6986111111111111 0.7145833333333333 0.7194444444444444 0.7215277777777778 0.7229166666666667 0.7263888888888889 0.7298611111111111 0.7555555555555555 0.7652777777777777 0.7694444444444445 0.7708333333333334 0.7736111111111111 0.7791666666666667 0.7895833333333333 0.8069444444444445 0.8277777777777777 0.8298611111111112 0.8305555555555556 0.8305555555555556 0.8305555555555556 0.8305555555555556 0.83125,0.8203703703703704 0.7962962962962963 0.7685185185185185 0.7222222222222222 0.662962962962963 0.475 0.3629629629629629 0.2685185185185185 0.20925925925925928 0.17500000000000004 0.14722222222222225 0.1435185185185185 0.14166666666666672 0.14166666666666672 0.14166666666666672 0.14907407407407405 0.1527777777777778 0.15648148148148144 0.15740740740740744 0.15370370370370368 0.11296296296296293 0.08333333333333337 0.07037037037037043 0.07037037037037043 0.07314814814814817 0.0796296296296296 0.08240740740740737 0.08611111111111114 0.08981481481481479 0.09259259259259256 0.10277777777777776 0.1074074074074074 0.11018518518518516 0.11111111111111116 0.11296296296296293 0.1148148148148148 0.1166666666666667 0.12037037037037035 0.12222222222222225 0.12222222222222225 0.12314814814814813 0.12314814814814813 0.12314814814814813 0.12314814814814813 0.12407407407407413,366.3999999999942 386.3999999999942 406.3999999999942 426.3999999999942 446.3999999999942 466.3999999999942 486.3999999999942 506.3999999999942 526.3999999999942 546.3999999999942 566.3999999999943 586.3999999999943 606.3999999999943 626.3999999999943 646.3999999999943 666.3999999999943 686.3999999999943 706.3999999999942 726.3999999999942 746.3999999999942 766.3999999999942 786.3999999999942 806.3999999999942 826.3999999999942 846.3999999999942 866.3999999999942 886.3999999999942 906.3999999999942 926.3999999999942 946.3999999999942 966.3999999999942 986.3999999999942 1006.3999999999942 1026.3999999999942 1046.3999999999942 1066.3999999999942 1086.3999999999942 1106.3999999999942 1126.3999999999942 1146.3999999999942 1166.3999999999942 1186.3999999999942 1206.3999999999942 1226.3999999999942 1246.3999999999942
cb_02,9.0,enc_trial,stim,response,STEM students,1072.5000000476866,enc_trial,1.0,9.0,s_sh_04_1,student_shared,fold-c,laptop stand,2.0,competing,far,paired,s_sh_04_1.jpg,,student-b1,STEM students,Fine Arts students,sub-75,1.0,1.0,1.0,0.0,0.5069444444444444 0.5048611111111111 0.4993055555555556 0.4923611111111112 0.4805555555555556 0.45 0.4270833333333333 0.3951388888888889 0.3541666666666667 0.3201388888888889 0.28194444444444444 0.2659722222222222 0.2375 0.2243055555555556 0.2152777777777778 0.2048611111111111 0.20347222222222225 0.20347222222222225 0.20277777777777767 0.20208333333333334 0.20069444444444445 0.1986111111111111 0.19444444444444445 0.19166666666666668 0.1868055555555556 0.1798611111111111 0.17569444444444446 0.17083333333333334 0.16875 0.16666666666666666 0.16180555555555556 0.16180555555555556,0.8194444444444444 0.8166666666666667 0.7944444444444445 0.7712962962962963 0.7333333333333334 0.6407407407407407 0.5842592592592593 0.5101851851851852 0.4296296296296296 0.3731481481481481 0.3222222222222222 0.3064814814814815 0.2759259259259259 0.2629629629629629 0.25370370370370365 0.2407407407407407 0.23703703703703705 0.2361111111111112 0.2342592592592593 0.2333333333333333 0.2305555555555555 0.2277777777777777 0.2240740740740741 0.2203703703703704 0.2138888888888889 0.19907407407407407 0.19259259259259254 0.18703703703703692 0.18148148148148147 0.1777777777777778 0.17129629629629628 0.1703703703703704,350.3000000000029 370.3000000000029 390.3000000000029 410.3000000000029 430.3000000000029 450.3000000000029 470.3000000000029 490.3000000000029 510.3000000000029 530.3000000000029 550.3000000000029 570.3000000000029 590.3000000000029 610.3000000000029 630.3000000000029 650.3000000000029 670.3000000000029 690.3000000000029 710.3000000000029 730.3000000000029 750.3000000000029 770.3000000000029 790.3000000000029 810.3000000000029 830.3000000000029 850.3000000000029 870.3000000000029 890.3000000000029 910.3000000000028 930.3000000000028 950.3000000000028 970.3000000000028
cb_02,10.0,enc_trial,stim,response,STEM students,1390.0999999761555,enc_trial,1.0,10.0,s_s_02_2,student_stem,fold-b,flask,2.0,unique,close,paired,s_s_02_2.jpg,stem,student-b1,STEM students,Fine Arts students,sub-75,1.0,1.0,1.0,1.0,0.5118055555555555 0.5118055555555555 0.5125 0.5138888888888888 0.5138888888888888 0.51875 0.525 0.5284722222222222 0.5319444444444444 0.53125 0.5013888888888889 0.4993055555555556 0.5027777777777778 0.5083333333333333 0.5145833333333333 0.5229166666666667 0.5263888888888889 0.5354166666666667 0.54375 0.5486111111111112 0.55 0.55 0.55 0.5506944444444445 0.5590277777777778 0.575 0.5791666666666667 0.58125 0.5819444444444445 0.58125 0.5680555555555555 0.5569444444444445 0.5430555555555555 0.5270833333333333 0.4986111111111111 0.3826388888888889 0.3125 0.2243055555555556 0.14722222222222225 0.10694444444444444 0.10277777777777776 0.10416666666666667 0.10555555555555557 0.10625 0.10555555555555557 0.09583333333333334 0.04513888888888889 0.02708333333333333 0.019444444444444445 0.019444444444444445 0.035416666666666666 0.05 0.06805555555555555 0.08680555555555555 0.10069444444444443 0.10972222222222222,0.8268518518518518 0.8212962962962963 0.8175925925925926 0.8101851851851851 0.8 0.7509259259259259 0.7111111111111111 0.6712962962962963 0.6194444444444445 0.5574074074074074 0.4046296296296297 0.3740740740740741 0.3583333333333333 0.34351851851851856 0.33333333333333337 0.3212962962962963 0.312962962962963 0.3064814814814815 0.3027777777777778 0.29907407407407405 0.2935185185185185 0.2925925925925926 0.2925925925925926 0.29166666666666663 0.2925925925925926 0.2944444444444444 0.2944444444444444 0.2953703703703704 0.2972222222222223 0.29907407407407405 0.29907407407407405 0.2898148148148149 0.2787037037037037 0.26481481481481484 0.2481481481481481 0.15462962962962967 0.11759259259259258 0.08518518518518514 0.05925925925925924 0.04907407407407405 0.04722222222222228 0.04907407407407405 0.05000000000000005 0.05092592592592593 0.0537037037037037 0.06018518518518521 0.08148148148148149 0.0888888888888889 0.09444444444444444 0.09537037037037033 0.10370370370370374 0.11296296296296293 0.12592592592592589 0.1435185185185185 0.15462962962962967 0.1620370370370371,116.69999999999708 136.6999999999971 156.6999999999971 176.69999999999715 196.69999999999715 216.69999999999715 236.69999999999715 256.6999999999972 276.6999999999972 296.6999999999972 316.6999999999972 336.69999999999726 356.69999999999726 376.69999999999726 396.6999999999973 416.6999999999973 436.6999999999973 456.6999999999973 476.6999999999973 496.69999999999743 516.6999999999973 536.6999999999973 556.6999999999974 576.6999999999974 596.6999999999974 616.6999999999974 636.6999999999974 656.6999999999974 676.6999999999974 696.6999999999975 716.6999999999975 736.6999999999975 756.6999999999975 776.6999999999975 796.6999999999975 816.6999999999975 836.6999999999975 856.6999999999977 876.6999999999977 896.6999999999977 916.6999999999975 936.6999999999975 956.6999999999975 976.6999999999975 996.6999999999977 1016.6999999999977 1036.6999999999978 1056.6999999999978 1076.6999999999978 1096.6999999999978 1116.6999999999978 1136.6999999999978 1156.6999999999978 1176.6999999999978 1196.6999999999978 1216.6999999999978
cb_02,11.0,enc_trial,stim,response,Fine Arts students,1195.1999999999969,enc_trial,1.0,11.0,s_a_16_2,student_art,fold-b,piano,2.0,unique,close,paired,s_a_16_2.jpg,art,student-b1,STEM students,Fine Arts students,sub-75,1.0,1.0,1.0,1.0,0.5104166666666666 0.5104166666666666 0.5076388888888889 0.5041666666666667 0.4993055555555556 0.4840277777777778 0.4763888888888889 0.4659722222222222 0.4527777777777778 0.43125 0.3763888888888889 0.3388888888888889 0.3215277777777778 0.30416666666666664 0.28680555555555554 0.2604166666666667 0.24444444444444444 0.22916666666666666 0.21736111111111112 0.7923611111111111 0.7923611111111111 0.7923611111111111 0.7923611111111111 0.7923611111111111 0.7923611111111111 0.7923611111111111 0.7923611111111111 0.7923611111111111 0.7923611111111111 0.7923611111111111 0.7923611111111111 0.7965277777777777 0.8111111111111111 0.8326388888888889 0.8506944444444444 0.8673611111111111 0.8701388888888889 0.8701388888888889 0.8701388888888889 0.8701388888888889 0.8701388888888889 0.8701388888888889 0.8680555555555556 0.8659722222222223 0.8638888888888889 0.8604166666666667 0.8604166666666667,0.837037037037037 0.8314814814814815 0.812962962962963 0.7972222222222223 0.7740740740740741 0.6990740740740741 0.6444444444444444 0.587962962962963 0.5268518518518519 0.462037037037037 0.34259259259259256 0.2657407407407407 0.2305555555555555 0.2046296296296296 0.17962962962962958 0.14166666666666672 0.12592592592592589 0.11111111111111116 0.0981481481481481 0.20185185185185184 0.20185185185185184 0.20185185185185184 0.20185185185185184 0.20185185185185184 0.20185185185185184 0.20185185185185184 0.20185185185185184 0.20185185185185184 0.20185185185185184 0.20185185185185184 0.20185185185185184 0.2046296296296296 0.2064814814814815 0.2129629629629629 0.2148148148148148 0.21944444444444444 0.21944444444444444 0.21944444444444444 0.21944444444444444 0.21944444444444444 0.21944444444444444 0.21944444444444444 0.2138888888888889 0.20740740740740726 0.1972222222222222 0.1787037037037037 0.17407407407407405,216.5 236.5 256.5 276.5 296.5 316.5 336.5 356.5 376.5 396.5 416.5 436.5 456.5 476.5 496.5 516.5 536.5 556.5 576.5 596.5 616.5 636.5 656.5 676.5 696.5 716.5 736.5 756.5 776.5 796.5 816.5 836.5 856.5 876.5 896.5 916.5 936.5 956.5 976.5 996.5 1016.5 1036.5 1056.5 1076.5 1096.5 1116.5 1136.5
cb_02,12.0,enc_trial,stim,response,Fine Arts students,1264.600000023842,enc_trial,1.0,12.0,s_sh_18_1,student_shared,fold-c,wall calendar,2.0,competing,far,paired,s_sh_18_1.jpg,,student-b1,STEM students,Fine Arts students,sub-75,1.0,1.0,1.0,0.0,0.5034722222222222 0.5034722222222222 0.5027777777777778 0.5020833333333333 0.5020833333333333 0.5006944444444444 0.4965277777777778 0.4902777777777778 0.4833333333333333 0.4722222222222222 0.44583333333333336 0.4013888888888889 0.3430555555555556 0.30416666666666664 0.2673611111111111 0.2340277777777777 0.20277777777777767 0.19722222222222224 0.1951388888888889 0.19444444444444445 0.19444444444444445 0.19444444444444445 0.19444444444444445 0.19444444444444445 0.19444444444444445 0.19722222222222224 0.20208333333333334 0.2083333333333333 0.2298611111111111 0.28958333333333336 0.5263888888888889 0.6548611111111111 0.7944444444444444 0.8493055555555555 0.8715277777777778 0.88125 0.8826388888888889 0.8826388888888889 0.8826388888888889 0.8826388888888889 0.8847222222222222 0.8847222222222222 0.8861111111111111 0.8881944444444444 0.89375 0.8958333333333334,0.8333333333333334 0.8314814814814815 0.8296296296296296 0.8277777777777777 0.825925925925926 0.8185185185185185 0.8055555555555556 0.7851851851851852 0.75 0.7018518518518518 0.6157407407407407 0.5074074074074074 0.3898148148148149 0.3148148148148148 0.24629629629629635 0.19814814814814816 0.1620370370370371 0.15648148148148144 0.15462962962962967 0.15370370370370368 0.15370370370370368 0.15370370370370368 0.15370370370370368 0.15370370370370368 0.1527777777777778 0.15370370370370368 0.15648148148148144 0.1592592592592592 0.1611111111111111 0.1611111111111111 0.15370370370370368 0.1592592592592592 0.16666666666666666 0.1703703703703704 0.17129629629629628 0.17407407407407405 0.17407407407407405 0.17407407407407405 0.17407407407407405 0.17407407407407405 0.17407407407407405 0.17407407407407405 0.17407407407407405 0.17407407407407405 0.17314814814814816 0.17129629629629628,333.1999999999972 353.1999999999972 373.1999999999972 393.1999999999972 413.1999999999972 433.1999999999972 453.1999999999972 473.1999999999972 493.1999999999972 513.1999999999972 533.1999999999972 553.1999999999972 573.1999999999972 593.1999999999972 613.1999999999972 633.1999999999972 653.1999999999972 673.1999999999972 693.1999999999972 713.1999999999972 733.1999999999972 753.1999999999972 773.1999999999972 793.1999999999972 813.1999999999972 833.1999999999972 853.1999999999972 873.1999999999972 893.1999999999972 913.1999999999972 933.1999999999972 953.1999999999972 973.1999999999972 993.1999999999972 1013.1999999999972 1033.1999999999969 1053.1999999999969 1073.1999999999969 1093.1999999999969 1113.1999999999969 1133.1999999999969 1153.1999999999969 1173.1999999999969 1193.1999999999969 1213.1999999999969 1233.1999999999969
cb_02,13.0,enc_trial,stim,response,STEM students,888.1000000000058,enc_trial,1.0,13.0,s_sh_09_1,student_shared,fold-c,paper clips,2.0,competing,far,paired,s_sh_09_1.jpg,,student-b1,STEM students,Fine Arts students,sub-75,1.0,1.0,0.0,1.0,0.5340277777777778 0.5256944444444445 0.5013888888888889 0.475 0.45 0.3902777777777778 0.3506944444444444 0.30416666666666664 0.25625 0.21597222222222226 0.17083333333333334 0.15347222222222226 0.15138888888888888 0.15138888888888888 0.15138888888888888 0.1527777777777778 0.1527777777777778 0.1527777777777778 0.1527777777777778 0.1527777777777778 0.1527777777777778 0.15416666666666667 0.15486111111111112 0.15486111111111112 0.15486111111111112 0.15486111111111112 0.15486111111111112 0.15486111111111112,0.8407407407407408 0.8268518518518518 0.775 0.7379629629629629 0.6944444444444444 0.6 0.5444444444444445 0.4768518518518519 0.4111111111111111 0.35092592592592603 0.2629629629629629 0.2203703703703704 0.2064814814814815 0.20092592592592595 0.1962962962962963 0.1944444444444444 0.1944444444444444 0.1944444444444444 0.1944444444444444 0.1944444444444444 0.1944444444444444 0.1898148148148148 0.1898148148148148 0.1898148148148148 0.1898148148148148 0.1898148148148148 0.1898148148148148 0.18888888888888888,283.5 303.5 323.5 343.5 363.5 383.5 403.5 423.5 443.5 463.5 483.5 503.5 523.5 543.5 563.5 583.5 603.5 623.5 643.5 663.5 683.5 703.5 723.5 743.5 763.5 783.5 803.5 823.5
cb_02,14.0,enc_trial,stim,response,STEM students,1695.000000023836,enc_trial,1.0,14.0,s_sh_07_1,student_shared,fold-a,ruler,2.0,competing,close,paired,s_sh_07_1.jpg,,student-b1,STEM students,Fine Arts students,sub-75,1.0,1.0,1.0,0.0,0.4993055555555556 0.4972222222222222 0.4854166666666666 0.4729166666666666 0.4604166666666666 0.40902777777777777 0.3666666666666665 0.3194444444444444 0.2673611111111111 0.23125 0.20069444444444445 0.1763888888888889 0.17291666666666666 0.17222222222222222 0.17222222222222222 0.17222222222222222 0.17222222222222222 0.17222222222222222 0.17222222222222222 0.1736111111111111 0.19236111111111112 0.20208333333333334 0.21388888888888888 0.22569444444444445 0.2479166666666667 0.4 0.4944444444444445 0.5743055555555555 0.6326388888888889 0.6805555555555556 0.7409722222222223 0.7465277777777778 0.7465277777777778 0.74375 0.7305555555555555 0.6444444444444445 0.5645833333333333 0.4791666666666667 0.40347222222222223 0.3430555555555556 0.26944444444444443 0.2388888888888889 0.22361111111111112 0.20625 0.1798611111111111 0.09166666666666666 0.056944444444444436 0.04166666666666666 0.03958333333333333 0.03958333333333333 0.03958333333333333 0.03958333333333333 0.03958333333333333 0.03958333333333333 0.03958333333333333 0.03958333333333333 0.03958333333333333 0.03958333333333333 0.03958333333333333 0.03958333333333333 0.03958333333333333 0.04861111111111111 0.05625 0.08541666666666667 0.12152777777777778 0.13541666666666666,0.8157407407407408 0.8018518518518518 0.7722222222222223 0.7388888888888889 0.6879629629629629 0.5490740740740739 0.4731481481481481 0.3898148148148149 0.3185185185185185 0.2611111111111111 0.2240740740740741 0.19907407407407407 0.19907407407407407 0.2 0.2 0.20092592592592595 0.20092592592592595 0.20092592592592595 0.20092592592592595 0.20092592592592595 0.19259259259259254 0.17962962962962958 0.1703703703703704 0.16388888888888886 0.15555555555555556 0.12870370370370365 0.12222222222222225 0.1166666666666667 0.1157407407407407 0.11203703703703703 0.10277777777777776 0.10462962962962964 0.1074074074074074 0.11111111111111116 0.1166666666666667 0.14074074074074072 0.1592592592592592 0.1685185185185185 0.17407407407407405 0.17407407407407405 0.16759259259259265 0.15648148148148144 0.1509259259259259 0.1509259259259259 0.15000000000000002 0.16296296296296298 0.16481481481481486 0.16481481481481486 0.16481481481481486 0.16481481481481486 0.16481481481481486 0.16481481481481486 0.16481481481481486 0.16481481481481486 0.16481481481481486 0.16481481481481486 0.16481481481481486 0.16481481481481486 0.16481481481481486 0.16481481481481486 0.16481481481481486 0.16296296296296298 0.1620370370370371 0.1527777777777778 0.1444444444444445 0.14166666666666672,316.3999999999942 336.3999999999942 356.3999999999942 376.3999999999942 396.3999999999942 416.3999999999942 436.3999999999942 456.3999999999942 476.3999999999942 496.3999999999942 516.3999999999942 536.3999999999942 556.3999999999942 576.3999999999943 596.3999999999943 616.3999999999943 636.3999999999943 656.3999999999943 676.3999999999943 696.3999999999942 716.3999999999942 736.3999999999942 756.3999999999942 776.3999999999942 796.3999999999942 816.3999999999942 836.3999999999942 856.3999999999942 876.3999999999942 896.3999999999942 916.3999999999942 936.3999999999942 956.3999999999942 976.3999999999942 996.3999999999942 1016.3999999999942 1036.3999999999942 1056.3999999999942 1076.3999999999942 1096.3999999999942 1116.3999999999942 1136.3999999999942 1156.3999999999942 1176.3999999999942 1196.3999999999942 1216.3999999999942 1236.3999999999942 1256.3999999999942 1276.3999999999942 1296.3999999999942 1316.3999999999942 1336.3999999999942 1356.3999999999942 1376.3999999999942 1396.3999999999942 1416.3999999999942 1436.3999999999942 1456.3999999999942 1476.3999999999942 1496.3999999999942 1516.3999999999942 1536.3999999999942 1556.3999999999942 1576.3999999999942 1596.3999999999942 1616.3999999999942
cb_02,15.0,enc_trial,stim,response,Fine Arts students,1407.1000000000058,enc_trial,1.0,15.0,s_a_17_1,student_art,fold-b,microphone,2.0,unique,close,paired,s_a_17_1.jpg,art,student-b1,STEM students,Fine Arts students,sub-75,1.0,1.0,1.0,1.0,0.5076388888888889 0.5034722222222222 0.4875 0.4729166666666666 0.44583333333333336 0.4027777777777778 0.3215277777777778 0.2951388888888889 0.2659722222222222 0.22361111111111112 0.18472222222222226 0.1451388888888889 0.14097222222222222 0.1423611111111111 0.15555555555555556 0.1798611111111111 0.25833333333333336 0.2986111111111111 0.31805555555555554 0.32222222222222224 0.32916666666666666 0.3673611111111112 0.4354166666666667 0.5048611111111111 0.5777777777777777 0.6277777777777778 0.6819444444444445 0.7076388888888889 0.7368055555555556 0.7534722222222222 0.7631944444444444 0.7694444444444445 0.7708333333333334 0.7722222222222223 0.7756944444444445 0.78125 0.7972222222222223 0.8298611111111112 0.8923611111111112 0.93125 0.9381944444444444 0.9375 0.9319444444444444 0.9277777777777778 0.9263888888888888,0.799074074074074 0.7833333333333333 0.7324074074074074 0.6916666666666667 0.6342592592592593 0.5490740740740739 0.4046296296296297 0.35462962962962963 0.30925925925925923 0.25277777777777777 0.20925925925925928 0.15370370370370368 0.1435185185185185 0.1425925925925926 0.14074074074074072 0.14074074074074072 0.14074074074074072 0.1435185185185185 0.14537037037037034 0.1444444444444445 0.1425925925925926 0.13888888888888884 0.12962962962962965 0.1166666666666667 0.0972222222222222 0.09166666666666667 0.08796296296296291 0.08611111111111114 0.08611111111111114 0.08611111111111114 0.08796296296296291 0.0907407407407408 0.09259259259259256 0.09444444444444444 0.09629629629629632 0.10185185185185186 0.10555555555555553 0.11851851851851848 0.1342592592592593 0.1444444444444445 0.14907407407407405 0.14907407407407405 0.14907407407407405 0.14722222222222225 0.14722222222222225,499.7000000000117 519.7000000000116 539.7000000000116 559.7000000000115 579.7000000000114 599.7000000000114 619.7000000000114 639.7000000000112 659.7000000000112 679.7000000000112 699.7000000000113 719.7000000000112 739.700000000011 759.700000000011 779.700000000011 799.7000000000107 819.7000000000107 839.7000000000107 859.7000000000107 879.7000000000107 899.7000000000105 919.7000000000104 939.7000000000104 959.7000000000104 979.7000000000104 999.7000000000104 1019.7000000000104 1039.7000000000098 1059.7000000000098 1079.7000000000098 1099.7000000000098 1119.7000000000098 1139.7000000000098 1159.7000000000098 1179.7000000000098 1199.7000000000094 1219.7000000000094 1239.7000000000094 1259.7000000000094 1279.7000000000094 1299.7000000000094 1319.7000000000094 1339.7000000000094 1359.7000000000094 1379.7000000000091
cb_02,16.0,enc_trial,stim,response,Fine Arts students,1012.8000000715256,enc_trial,1.0,16.0,s_a_14_1,student_art,fold-c-single,guitar pick,2.0,unique,,single,s_a_14_1.jpg,art,student-b1,STEM students,Fine Arts students,sub-75,1.0,,1.0,,0.4930555555555556 0.4826388888888889 0.4694444444444445 0.4444444444444444 0.4152777777777778 0.33402777777777776 0.2861111111111111 0.25833333333333336 0.2381944444444445 0.2277777777777777 0.23541666666666666 0.2722222222222222 0.3590277777777778 0.4972222222222222 0.6548611111111111 0.8923611111111112 0.9152777777777776 0.9208333333333332 0.9215277777777776 0.9215277777777776 0.9215277777777776 0.9215277777777776 0.9201388888888888 0.9201388888888888 0.9201388888888888 0.9201388888888888 0.9201388888888888 0.9201388888888888 0.9201388888888888 0.9201388888888888 0.9166666666666666 0.9118055555555556 0.9048611111111112 0.9006944444444445 0.9,0.8175925925925926 0.7824074074074074 0.7379629629629629 0.6722222222222223 0.6009259259259259 0.4694444444444445 0.38703703703703707 0.3407407407407408 0.3046296296296296 0.27222222222222225 0.2351851851851852 0.20740740740740726 0.1703703703703704 0.1518518518518519 0.14814814814814814 0.13888888888888884 0.1444444444444445 0.15000000000000002 0.1527777777777778 0.15740740740740744 0.16481481481481486 0.16574074074074074 0.1685185185185185 0.1703703703703704 0.1703703703703704 0.17129629629629628 0.17129629629629628 0.17129629629629628 0.17129629629629628 0.17129629629629628 0.1620370370370371 0.1601851851851852 0.15648148148148144 0.15370370370370368 0.1527777777777778,333.6000000000058 353.6000000000058 373.6000000000058 393.6000000000058 413.6000000000058 433.6000000000058 453.6000000000058 473.6000000000058 493.6000000000058 513.6000000000058 533.6000000000058 553.6000000000058 573.6000000000057 593.6000000000057 613.6000000000057 633.6000000000057 653.6000000000057 673.6000000000057 693.6000000000058 713.6000000000058 733.6000000000058 753.6000000000058 773.6000000000058 793.6000000000058 813.6000000000058 833.6000000000058 853.6000000000058 873.6000000000058 893.6000000000058 913.6000000000058 933.6000000000058 953.6000000000058 973.6000000000058 993.6000000000058 1013.6000000000058
cb_02,17.0,enc_trial,stim,response,Fine Arts students,1253.9000000238302,enc_trial,1.0,17.0,s_sh_20_2,student_shared,fold-c,tape,2.0,competing,far,paired,s_sh_20_2.jpg,,student-b1,STEM students,Fine Arts students,sub-75,0.0,0.0,0.0,1.0,0.5006944444444444 0.5 0.4972222222222222 0.4916666666666666 0.4798611111111111 0.4486111111111111 0.4236111111111111 0.3895833333333333 0.3486111111111111 0.30972222222222223 0.2263888888888889 0.2048611111111111 0.19791666666666666 0.19722222222222224 0.1993055555555556 0.20416666666666666 0.2180555555555556 0.22083333333333333 0.2243055555555556 0.22847222222222224 0.2416666666666667 0.2548611111111111 0.2847222222222222 0.3951388888888889 0.4951388888888889 0.6465277777777778 0.6791666666666667 0.6951388888888889 0.70625 0.7138888888888889 0.7201388888888889 0.7298611111111111 0.7486111111111111 0.7638888888888888 0.7770833333333333 0.7854166666666667 0.7868055555555555 0.7868055555555555 0.7881944444444444 0.7958333333333333 0.8166666666666667 0.8194444444444444 0.8215277777777777 0.8229166666666666 0.825 0.83125 0.8347222222222223 0.8361111111111111,0.8185185185185185 0.8055555555555556 0.7796296296296297 0.7537037037037038 0.7074074074074075 0.5898148148148148 0.5268518518518519 0.4472222222222222 0.3648148148148148 0.29166666666666663 0.17962962962962958 0.1444444444444445 0.12222222222222225 0.1157407407407407 0.10648148148148152 0.0981481481481481 0.08611111111111114 0.08518518518518514 0.08425925925925926 0.08425925925925926 0.09444444444444444 0.10370370370370374 0.1166666666666667 0.15462962962962967 0.18425925925925926 0.2064814814814815 0.2129629629629629 0.21759259259259256 0.21851851851851856 0.2203703703703704 0.2203703703703704 0.22129629629629632 0.22129629629629632 0.21944444444444444 0.21759259259259256 0.2157407407407408 0.2157407407407408 0.2157407407407408 0.2148148148148148 0.2083333333333333 0.1944444444444444 0.18888888888888888 0.18518518518518529 0.18240740740740746 0.1805555555555556 0.17314814814814816 0.1694444444444444 0.1694444444444444,299.8999999999942 319.8999999999942 339.8999999999942 359.8999999999942 379.8999999999942 399.8999999999942 419.8999999999942 439.8999999999942 459.8999999999942 479.8999999999942 499.8999999999942 519.8999999999942 539.8999999999942 559.8999999999942 579.8999999999943 599.8999999999943 619.8999999999943 639.8999999999943 659.8999999999943 679.8999999999943 699.8999999999942 719.8999999999942 739.8999999999942 759.8999999999942 779.8999999999942 799.8999999999942 819.8999999999942 839.8999999999942 859.8999999999942 879.8999999999942 899.8999999999942 919.8999999999942 939.8999999999942 959.8999999999942 979.8999999999942 999.8999999999942 1019.8999999999942 1039.8999999999942 1059.8999999999942 1079.8999999999942 1099.8999999999942 1119.8999999999942 1139.8999999999942 1159.8999999999942 1179.8999999999942 1199.8999999999942 1219.8999999999942 1239.8999999999942
cb_02,18.0,enc_trial,stim,response,Fine Arts students,2726.5,enc_trial,1.0,18.0,s_sh_07_2,student_shared,fold-a,ruler,2.0,competing,close,paired,s_sh_07_2.jpg,,student-b1,STEM students,Fine Arts students,sub-75,1.0,1.0,1.0,0.0,0.50625 0.5048611111111111 0.4986111111111111 0.4888888888888889 0.4756944444444444 0.4611111111111112 0.4263888888888889 0.4013888888888889 0.3861111111111111 0.38333333333333336 0.3826388888888889 0.3826388888888889 0.38472222222222224 0.39652777777777776 0.4076388888888889 0.4305555555555556 0.4361111111111111 0.4409722222222222 0.44583333333333336 0.45625 0.4819444444444445 0.4861111111111111 0.4881944444444444 0.4895833333333333 0.4916666666666666 0.4930555555555556 0.4923611111111112 0.4895833333333333 0.4854166666666666 0.4833333333333333 0.4840277777777778 0.4861111111111111 0.4888888888888889 0.4902777777777778 0.4902777777777778 0.4902777777777778 0.4902777777777778 0.4902777777777778 0.4902777777777778 0.4902777777777778 0.4902777777777778 0.4902777777777778 0.4902777777777778 0.4902777777777778 0.4902777777777778 0.4902777777777778 0.4902777777777778 0.4902777777777778 0.4902777777777778 0.4902777777777778 0.4902777777777778 0.4902777777777778 0.4902777777777778 0.4902777777777778 0.4902777777777778 0.4902777777777778 0.4902777777777778 0.4902777777777778 0.4902777777777778 0.4902777777777778 0.4902777777777778 0.4902777777777778 0.4902777777777778 0.4902777777777778 0.4902777777777778 0.4902777777777778 0.4902777777777778 0.4902777777777778 0.4902777777777778 0.4895833333333333 0.4680555555555556 0.4486111111111111 0.4173611111111111 0.3680555555555556 0.30069444444444443 0.09375 0.06111111111111111 0.05416666666666667 0.05416666666666667 0.05416666666666667 0.05416666666666667 0.05416666666666667 0.05486111111111111 0.05555555555555555 0.05555555555555555 0.05555555555555555 0.05555555555555555 0.05555555555555555 0.05555555555555555 0.06111111111111111 0.09722222222222222 0.14027777777777778 0.1902777777777777 0.2222222222222222 0.23680555555555555 0.25972222222222224 0.25972222222222224 0.2604166666666667 0.2708333333333333 0.3173611111111111 0.5604166666666667 0.7118055555555556 0.8263888888888888 0.86875 0.8763888888888889 0.8763888888888889 0.8763888888888889 0.8763888888888889 0.8763888888888889 0.8763888888888889 0.8784722222222222,0.812962962962963 0.8111111111111111 0.7944444444444445 0.7712962962962963 0.7398148148148148 0.6935185185185185 0.6055555555555556 0.5472222222222223 0.5083333333333333 0.4898148148148148 0.4833333333333333 0.4824074074074074 0.4833333333333333 0.4972222222222222 0.5175925925925926 0.5907407407407408 0.6185185185185185 0.6435185185185186 0.662962962962963 0.6888888888888889 0.7472222222222222 0.7574074074074074 0.7620370370370371 0.7648148148148148 0.7694444444444444 0.775 0.7787037037037037 0.7842592592592592 0.7935185185185185 0.7962962962962963 0.8018518518518518 0.8046296296296296 0.8064814814814815 0.8083333333333333 0.8083333333333333 0.8083333333333333 0.8083333333333333 0.8083333333333333 0.8083333333333333 0.8083333333333333 0.8083333333333333 0.8083333333333333 0.8083333333333333 0.8083333333333333 0.8083333333333333 0.8083333333333333 0.8083333333333333 0.8083333333333333 0.8083333333333333 0.8083333333333333 0.8083333333333333 0.8083333333333333 0.8083333333333333 0.8083333333333333 0.8083333333333333 0.8083333333333333 0.8083333333333333 0.8083333333333333 0.8083333333333333 0.8083333333333333 0.8083333333333333 0.8083333333333333 0.8083333333333333 0.8083333333333333 0.8083333333333333 0.8083333333333333 0.8083333333333333 0.8083333333333333 0.8083333333333333 0.8074074074074074 0.7324074074074074 0.6370370370370371 0.5351851851851852 0.43333333333333335 0.3194444444444444 0.08981481481481479 0.06574074074074078 0.06574074074074078 0.06574074074074078 0.06666666666666665 0.06944444444444442 0.0712962962962963 0.07407407407407407 0.07592592592592595 0.07685185185185184 0.07685185185185184 0.07685185185185184 0.07777777777777772 0.08148148148148149 0.0888888888888889 0.10555555555555553 0.11111111111111116 0.1157407407407407 0.12129629629629635 0.12777777777777774 0.13055555555555556 0.13055555555555556 0.13055555555555556 0.13148148148148153 0.13703703703703707 0.1435185185185185 0.12685185185185188 0.12314814814814813 0.11944444444444445 0.11944444444444445 0.11944444444444445 0.11944444444444445 0.11944444444444445 0.11944444444444445 0.11944444444444445 0.11759259259259258,433.6000000000058 453.6000000000058 473.6000000000058 493.6000000000058 513.6000000000058 533.6000000000058 553.6000000000058 573.6000000000057 593.6000000000057 613.6000000000057 633.6000000000057 653.6000000000057 673.6000000000057 693.6000000000058 713.6000000000058 733.6000000000058 753.6000000000058 773.6000000000058 793.6000000000058 813.6000000000058 833.6000000000058 853.6000000000058 873.6000000000058 893.6000000000058 913.6000000000058 933.6000000000058 953.6000000000058 973.6000000000058 993.6000000000058 1013.6000000000058 1033.6000000000058 1053.6000000000058 1073.6000000000058 1093.6000000000058 1113.6000000000058 1133.6000000000058 1153.6000000000058 1173.6000000000058 1193.6000000000058 1213.6000000000058 1233.6000000000058 1253.6000000000058 1273.6000000000058 1293.6000000000058 1313.6000000000058 1333.6000000000058 1353.6000000000058 1373.6000000000058 1393.6000000000058 1413.6000000000058 1433.6000000000058 1453.6000000000058 1473.6000000000058 1493.6000000000058 1513.6000000000058 1533.6000000000058 1553.6000000000058 1573.6000000000058 1593.6000000000058 1613.6000000000058 1633.6000000000058 1653.6000000000058 1673.6000000000058 1693.6000000000058 1713.6000000000058 1733.6000000000058 1753.6000000000058 1773.6000000000058 1793.6000000000058 1813.6000000000056 1833.6000000000056 1853.6000000000056 1873.6000000000056 1893.6000000000056 1913.6000000000056 1933.6000000000056 1953.6000000000056 1973.6000000000056 1993.6000000000056 2013.6000000000056 2033.6000000000056 2053.6000000000063 2073.6000000000063 2093.6000000000063 2113.6000000000063 2133.6000000000063 2153.6000000000063 2173.6000000000063 2193.6000000000063 2213.6000000000063 2233.6000000000063 2253.6000000000063 2273.6000000000063 2293.6000000000063 2313.6000000000063 2333.6000000000063 2353.6000000000063 2373.6000000000063 2393.6000000000063 2413.6000000000063 2433.6000000000063 2453.6000000000063 2473.6000000000063 2493.6000000000063 2513.6000000000063 2533.6000000000063 2553.6000000000063 2573.6000000000063 2593.6000000000063 2613.6000000000063 2633.6000000000063
cb_02,19.0,enc_trial,stim,response,Fine Arts students,1206.0000000715372,enc_trial,1.0,19.0,s_a_20_2,student_art,fold-a,pin cushion,2.0,unique,far,paired,s_a_20_2.jpg,art,student-b1,STEM students,Fine Arts students,sub-75,1.0,1.0,1.0,1.0,0.4951388888888889 0.4888888888888889 0.4784722222222222 0.4673611111111111 0.4465277777777778 0.4152777777777778 0.3958333333333333 0.3902777777777778 0.3868055555555556 0.3826388888888889 0.375 0.3763888888888889 0.3958333333333333 0.4604166666666666 0.5638888888888889 0.75625 0.8215277777777777 0.8715277777777778 0.9069444444444444 0.9263888888888888 0.9472222222222222 0.9472222222222222 0.9472222222222222 0.9472222222222222 0.9472222222222222 0.95625 0.9638888888888888 0.9666666666666668 0.9694444444444444 0.9694444444444444 0.9694444444444444 0.9611111111111112 0.9506944444444444 0.9395833333333332 0.9326388888888888 0.9145833333333332 0.9083333333333332 0.9020833333333332 0.8951388888888889 0.8826388888888889 0.8770833333333333,0.8083333333333333 0.7861111111111111 0.7388888888888889 0.6833333333333333 0.6046296296296296 0.4685185185185186 0.4111111111111111 0.3833333333333333 0.3657407407407407 0.35092592592592603 0.3148148148148148 0.29907407407407405 0.27407407407407397 0.22685185185185186 0.1805555555555556 0.1157407407407407 0.09629629629629632 0.08333333333333337 0.07685185185185184 0.07592592592592595 0.08703703703703702 0.08981481481481479 0.08981481481481479 0.08981481481481479 0.08981481481481479 0.08796296296296291 0.08703703703703702 0.08518518518518514 0.08333333333333337 0.08333333333333337 0.08333333333333337 0.08425925925925926 0.0888888888888889 0.0972222222222222 0.09999999999999998 0.10925925925925928 0.1148148148148148 0.11759259259259258 0.11851851851851848 0.12222222222222225 0.12407407407407413,333.8000000000173 353.8000000000173 373.8000000000174 393.8000000000174 413.8000000000174 433.8000000000174 453.8000000000174 473.8000000000174 493.8000000000174 513.8000000000173 533.8000000000173 553.8000000000173 573.8000000000172 593.8000000000172 613.8000000000172 633.8000000000172 653.8000000000172 673.8000000000172 693.8000000000172 713.8000000000172 733.8000000000172 753.8000000000172 773.8000000000172 793.8000000000172 813.8000000000172 833.8000000000172 853.8000000000172 873.8000000000172 893.8000000000172 913.8000000000172 933.8000000000172 953.8000000000172 973.8000000000172 993.8000000000172 1013.8000000000172 1033.8000000000177 1053.8000000000177 1073.8000000000177 1093.8000000000177 1113.8000000000177 1133.8000000000175
cb_02,20.0,enc_trial,stim,response,Fine Arts students,1323.0,enc_trial,1.0,20.0,s_a_17_2,student_art,fold-b,microphone,2.0,unique,close,paired,s_a_17_2.jpg,art,student-b1,STEM students,Fine Arts students,sub-75,1.0,1.0,1.0,1.0,0.4993055555555556 0.4958333333333334 0.4895833333333333 0.4736111111111111 0.44583333333333336 0.3715277777777778 0.3284722222222222 0.2888888888888889 0.2520833333333333 0.23194444444444445 0.24027777777777776 0.29444444444444445 0.375 0.4715277777777778 0.5548611111111111 0.6194444444444445 0.6201388888888889 0.6201388888888889 0.6138888888888889 0.5923611111111111 0.5236111111111111 0.44027777777777777 0.3930555555555556 0.3645833333333333 0.35 0.3416666666666667 0.3423611111111111 0.3527777777777778 0.40625 0.4923611111111112 0.7125 0.7861111111111111 0.8305555555555556 0.8520833333333333 0.8604166666666667 0.8625 0.8645833333333334 0.8777777777777778 0.8958333333333334 0.9111111111111112 0.9159722222222222 0.9159722222222222 0.9152777777777776 0.9145833333333332,0.8333333333333334 0.8231481481481482 0.8027777777777778 0.7675925925925926 0.712037037037037 0.5685185185185185 0.4675925925925926 0.3731481481481481 0.3055555555555556 0.2666666666666667 0.25555555555555554 0.25462962962962965 0.2675925925925926 0.2777777777777778 0.2796296296296297 0.2796296296296297 0.2796296296296297 0.2796296296296297 0.2768518518518519 0.27129629629629626 0.25 0.225 0.20740740740740726 0.1972222222222222 0.18611111111111112 0.1685185185185185 0.16481481481481486 0.15462962962962967 0.1333333333333333 0.1157407407407407 0.09907407407407408 0.10370370370370374 0.10092592592592596 0.10277777777777776 0.10555555555555553 0.10833333333333328 0.10833333333333328 0.10833333333333328 0.10648148148148152 0.10370370370370374 0.10277777777777776 0.10277777777777776 0.10277777777777776 0.10370370370370374,416.1000000000058 436.1000000000058 456.1000000000058 476.1000000000058 496.1000000000058 516.1000000000058 536.1000000000058 556.1000000000058 576.1000000000057 596.1000000000057 616.1000000000057 636.1000000000057 656.1000000000057 676.1000000000057 696.1000000000058 716.1000000000058 736.1000000000058 756.1000000000058 776.1000000000058 796.1000000000058 816.1000000000058 836.1000000000058 856.1000000000058 876.1000000000058 896.1000000000058 916.1000000000058 936.1000000000058 956.1000000000058 976.1000000000058 996.1000000000058 1016.1000000000058 1036.1000000000058 1056.1000000000058 1076.1000000000058 1096.1000000000058 1116.1000000000058 1136.1000000000058 1156.1000000000058 1176.1000000000058 1196.1000000000058 1216.1000000000058 1236.1000000000058 1256.1000000000058 1276.1000000000058
cb_02,21.0,enc_trial,stim,response,STEM students,978.9000000476954,enc_trial,1.0,21.0,s_s_12_1,student_stem,fold-a,robotic arm,2.0,unique,far,paired,s_s_12_1.jpg,stem,student-b1,STEM students,Fine Arts students,sub-75,1.0,1.0,1.0,1.0,0.5013888888888889 0.5 0.4951388888888889 0.4930555555555556 0.4888888888888889 0.4638888888888889 0.4375 0.4069444444444445 0.3645833333333333 0.3236111111111111 0.2520833333333333 0.2326388888888889 0.22013888888888888 0.21736111111111112 0.21666666666666667 0.21736111111111112 0.21736111111111112 0.21736111111111112 0.21736111111111112 0.21736111111111112 0.2152777777777778 0.21041666666666667 0.2069444444444445 0.20277777777777767 0.19791666666666666 0.18194444444444444 0.17916666666666667 0.17708333333333334 0.17708333333333334 0.1763888888888889 0.175 0.17430555555555555,0.8222222222222222 0.8203703703703704 0.812962962962963 0.8074074074074074 0.7972222222222223 0.7379629629629629 0.6870370370370371 0.6314814814814815 0.5620370370370371 0.4833333333333333 0.3407407407407408 0.2898148148148149 0.25555555555555554 0.2342592592592593 0.21944444444444444 0.2138888888888889 0.2138888888888889 0.2129629629629629 0.21111111111111114 0.21018518518518514 0.1953703703703704 0.18518518518518529 0.17962962962962958 0.17685185185185182 0.17500000000000004 0.1694444444444444 0.1694444444444444 0.1694444444444444 0.1694444444444444 0.1694444444444444 0.1685185185185185 0.1685185185185185,333.70000000001164 353.7000000000116 373.7000000000117 393.7000000000117 413.7000000000117 433.7000000000117 453.7000000000117 473.7000000000117 493.7000000000117 513.7000000000116 533.7000000000116 553.7000000000116 573.7000000000116 593.7000000000116 613.7000000000116 633.7000000000116 653.7000000000116 673.7000000000116 693.7000000000116 713.7000000000116 733.7000000000116 753.7000000000116 773.7000000000116 793.7000000000116 813.7000000000116 833.7000000000116 853.7000000000116 873.7000000000116 893.7000000000116 913.7000000000116 933.7000000000116 953.7000000000116
cb_02,22.0,enc_trial,stim,response,STEM students,994.100000023842,enc_trial,1.0,22.0,s_sh_13_1,student_shared,fold-b-single,index cards,2.0,competing,,single,s_sh_13_1.jpg,,student-b1,STEM students,Fine Arts students,sub-75,1.0,,1.0,,0.4979166666666667 0.4972222222222222 0.4916666666666666 0.4833333333333333 0.4715277777777778 0.3881944444444445 0.3423611111111111 0.2972222222222222 0.2611111111111111 0.23541666666666666 0.21180555555555555 0.20625 0.2013888888888889 0.2 0.20208333333333334 0.20277777777777767 0.20277777777777767 0.20277777777777767 0.20277777777777767 0.20277777777777767 0.20277777777777767 0.20277777777777767 0.20347222222222225 0.20208333333333334 0.19444444444444445 0.18541666666666667 0.18263888888888888 0.1798611111111111 0.17777777777777778 0.1763888888888889 0.17569444444444446,0.812037037037037 0.8101851851851851 0.799074074074074 0.7833333333333333 0.7648148148148148 0.6388888888888888 0.5685185185185185 0.4990740740740741 0.437037037037037 0.3888888888888888 0.3240740740740741 0.2898148148148149 0.2666666666666667 0.2509259259259259 0.2444444444444445 0.2407407407407407 0.2407407407407407 0.2407407407407407 0.2407407407407407 0.2407407407407407 0.2407407407407407 0.2407407407407407 0.2398148148148148 0.2361111111111112 0.2222222222222222 0.2046296296296296 0.19907407407407407 0.1944444444444444 0.1907407407407408 0.18796296296296305 0.18703703703703692,349.7999999999884 369.7999999999884 389.7999999999884 409.7999999999884 429.7999999999884 449.7999999999884 469.7999999999884 489.7999999999884 509.7999999999884 529.7999999999884 549.7999999999884 569.7999999999884 589.7999999999884 609.7999999999884 629.7999999999884 649.7999999999884 669.7999999999884 689.7999999999884 709.7999999999884 729.7999999999884 749.7999999999884 769.7999999999884 789.7999999999884 809.7999999999884 829.7999999999884 849.7999999999884 869.7999999999884 889.7999999999884 909.7999999999884 929.7999999999884 949.7999999999884
cb_02,23.0,enc_trial,stim,response,Fine Arts students,1137.399999976158,enc_trial,1.0,23.0,s_sh_04_2,student_shared,fold-c,laptop stand,2.0,competing,far,paired,s_sh_04_2.jpg,,student-b1,STEM students,Fine Arts students,sub-75,1.0,1.0,1.0,0.0,0.5090277777777777 0.5041666666666667 0.49375 0.4847222222222222 0.4659722222222222 0.3993055555555556 0.3625 0.3298611111111111 0.3055555555555556 0.29097222222222224 0.3270833333333333 0.40208333333333335 0.4694444444444445 0.5430555555555555 0.6222222222222222 0.7666666666666667 0.8194444444444444 0.8548611111111111 0.8715277777777778 0.8833333333333333 0.8944444444444445 0.9048611111111112 0.90625 0.90625 0.90625 0.9069444444444444 0.9069444444444444,0.812962962962963 0.8027777777777778 0.7833333333333333 0.7648148148148148 0.737037037037037 0.6453703703703704 0.5944444444444444 0.537962962962963 0.4787037037037037 0.4185185185185185 0.28240740740740744 0.19907407407407407 0.1611111111111111 0.13148148148148153 0.11296296296296293 0.09999999999999998 0.09907407407407408 0.10277777777777776 0.10555555555555553 0.10648148148148152 0.11018518518518516 0.11018518518518516 0.11018518518518516 0.11018518518518516 0.11018518518518516 0.11018518518518516 0.11111111111111116,516.8999999999942 536.8999999999942 556.8999999999942 576.8999999999943 596.8999999999943 616.8999999999943 636.8999999999943 656.8999999999943 676.8999999999943 696.8999999999942 716.8999999999942 736.8999999999942 756.8999999999942 776.8999999999942 796.8999999999942 816.8999999999942 836.8999999999942 856.8999999999942 876.8999999999942 896.8999999999942 916.8999999999942 936.8999999999942 956.8999999999942 976.8999999999942 996.8999999999942 1016.8999999999942 1036.8999999999942
cb_02,24.0,enc_trial,stim,response,STEM students,829.4000000476954,enc_trial,1.0,24.0,s_s_05_1,student_stem,fold-a,lab goggles,2.0,unique,far,paired,s_s_05_1.jpg,stem,student-b1,STEM students,Fine Arts students,sub-75,1.0,1.0,1.0,1.0,0.5027777777777778 0.5 0.4944444444444445 0.4854166666666666 0.4708333333333333 0.43333333333333335 0.4041666666666667 0.35347222222222224 0.31666666666666665 0.2763888888888889 0.19791666666666666 0.15555555555555556 0.1284722222222222 0.11458333333333333 0.11041666666666666 0.10833333333333334 0.10833333333333334 0.10833333333333334 0.10833333333333334 0.1076388888888889,0.8148148148148149 0.8083333333333333 0.8 0.7814814814814814 0.7537037037037038 0.6731481481481482 0.6092592592592593 0.4944444444444445 0.4157407407407408 0.3287037037037037 0.2277777777777777 0.19351851851851853 0.1694444444444444 0.15555555555555556 0.1518518518518519 0.14814814814814814 0.14814814814814814 0.14814814814814814 0.14814814814814814 0.14722222222222225,383.6000000000058 403.6000000000058 423.6000000000058 443.6000000000058 463.6000000000058 483.6000000000058 503.6000000000058 523.6000000000058 543.6000000000058 563.6000000000057 583.6000000000057 603.6000000000057 623.6000000000057 643.6000000000057 663.6000000000057 683.6000000000057 703.6000000000058 723.6000000000058 743.6000000000058 763.6000000000058
cb_02,25.0,enc_trial,stim,response,Fine Arts students,1315.4000000715316,enc_trial,1.0,25.0,s_sh_19_1,student_shared,fold-a,portable plastic drawer,2.0,competing,close,paired,s_sh_19_1.jpg,,student-b1,STEM students,Fine Arts students,sub-75,0.0,0.0,0.0,0.0,0.4958333333333334 0.4958333333333334 0.4958333333333334 0.4958333333333334 0.4958333333333334 0.4958333333333334 0.4958333333333334 0.4958333333333334 0.4958333333333334 0.4958333333333334 0.4958333333333334 0.4958333333333334 0.4958333333333334 0.4958333333333334 0.4958333333333334 0.4958333333333334 0.4958333333333334 0.4958333333333334 0.4958333333333334 0.4958333333333334 0.4909722222222222 0.4847222222222222 0.4763888888888889 0.46875 0.4569444444444444 0.42291666666666666 0.4111111111111111 0.4041666666666667 0.4041666666666667 0.40902777777777777 0.4451388888888889 0.4743055555555555 0.4993055555555556 0.5208333333333334 0.5395833333333333 0.5541666666666667 0.5541666666666667 0.5465277777777777 0.5298611111111111 0.5027777777777778 0.4368055555555556 0.43472222222222223 0.4388888888888889 0.4493055555555556 0.4729166666666666 0.575 0.6215277777777778 0.6631944444444444 0.6951388888888889 0.7166666666666667 0.7444444444444445 0.7541666666666667 0.7659722222222223 0.7756944444444445 0.7840277777777778 0.7944444444444444 0.7979166666666667 0.8006944444444445 0.8069444444444445 0.8131944444444444 0.8284722222222223 0.8381944444444445 0.84375 0.8444444444444444,0.8009259259259259 0.8009259259259259 0.8009259259259259 0.8009259259259259 0.8009259259259259 0.8009259259259259 0.8009259259259259 0.8009259259259259 0.8009259259259259 0.8009259259259259 0.8009259259259259 0.8009259259259259 0.8009259259259259 0.8009259259259259 0.8009259259259259 0.8009259259259259 0.8009259259259259 0.8009259259259259 0.8009259259259259 0.8009259259259259 0.8 0.7972222222222223 0.7898148148148147 0.7814814814814814 0.7638888888888888 0.6833333333333333 0.6212962962962962 0.5629629629629629 0.5175925925925926 0.4805555555555555 0.3564814814814815 0.3055555555555556 0.2731481481481481 0.2574074074074074 0.2509259259259259 0.2435185185185185 0.2425925925925925 0.2425925925925925 0.2425925925925925 0.2398148148148148 0.20092592592592595 0.18611111111111112 0.17500000000000004 0.17129629629629628 0.16296296296296298 0.1333333333333333 0.12870370370370365 0.12870370370370365 0.12870370370370365 0.13148148148148153 0.1425925925925926 0.1444444444444445 0.14907407407407405 0.15370370370370368 0.15648148148148144 0.1601851851851852 0.1611111111111111 0.16388888888888886 0.16481481481481486 0.1685185185185185 0.17129629629629628 0.17222222222222228 0.17222222222222228 0.17222222222222228,16.700000000011638 36.70000000001164 56.70000000001164 76.70000000001166 96.70000000001166 116.70000000001166 136.7000000000117 156.7000000000117 176.70000000001167 196.70000000001167 216.70000000001167 236.70000000001167 256.7000000000117 276.7000000000117 296.7000000000117 316.7000000000117 336.7000000000117 356.7000000000117 376.7000000000117 396.7000000000117 416.7000000000117 436.7000000000117 456.7000000000117 476.7000000000117 496.70000000001176 516.7000000000119 536.7000000000119 556.7000000000119 576.7000000000118 596.7000000000118 616.7000000000118 636.7000000000118 656.7000000000118 676.7000000000118 696.7000000000118 716.7000000000118 736.7000000000118 756.7000000000118 776.7000000000118 796.7000000000118 816.7000000000118 836.7000000000118 856.7000000000118 876.7000000000118 896.7000000000118 916.7000000000118 936.7000000000118 956.7000000000118 976.7000000000121 996.7000000000121 1016.7000000000121 1036.700000000012 1056.700000000012 1076.700000000012 1096.700000000012 1116.700000000012 1136.700000000012 1156.700000000012 1176.700000000012 1196.700000000012 1216.700000000012 1236.700000000012 1256.700000000012 1276.700000000012
cb_02,26.0,enc_trial,stim,response,STEM students,896.8999999761581,enc_trial,1.0,26.0,s_sh_18_2,student_shared,fold-c,wall calendar,2.0,competing,far,paired,s_sh_18_2.jpg,,student-b1,STEM students,Fine Arts students,sub-75,1.0,1.0,1.0,0.0,0.4819444444444445 0.44375 0.4055555555555556 0.3625 0.3243055555555556 0.25277777777777777 0.22083333333333333 0.18888888888888888 0.16041666666666668 0.14166666666666666 0.12916666666666668 0.12777777777777774 0.12708333333333333 0.12708333333333333 0.12638888888888888 0.12430555555555554 0.12430555555555554 0.12222222222222222 0.12222222222222222 0.12222222222222222 0.12222222222222222 0.12777777777777774 0.1326388888888889 0.1375 0.14027777777777778 0.14166666666666666,0.8111111111111111 0.7398148148148148 0.6824074074074074 0.6212962962962962 0.5722222222222222 0.4787037037037037 0.4314814814814815 0.3796296296296297 0.3305555555555556 0.29907407407407405 0.2703703703703704 0.2592592592592593 0.25555555555555554 0.25277777777777777 0.25 0.2416666666666667 0.2351851851851852 0.2277777777777777 0.225 0.2231481481481481 0.21944444444444444 0.1953703703703704 0.18425925925925926 0.17500000000000004 0.16759259259259265 0.16296296296296298,366.6000000000058 386.6000000000058 406.6000000000058 426.6000000000058 446.6000000000058 466.6000000000058 486.6000000000058 506.6000000000058 526.6000000000058 546.6000000000058 566.6000000000057 586.6000000000057 606.6000000000057 626.6000000000057 646.6000000000057 666.6000000000057 686.6000000000057 706.6000000000058 726.6000000000058 746.6000000000058 766.6000000000058 786.6000000000058 806.6000000000058 826.6000000000058 846.6000000000058 866.6000000000058
cb_02,27.0,enc_trial,stim,response,Fine Arts students,1569.8000000238535,enc_trial,1.0,27.0,s_a_10_1,student_art,fold-a,tripod,2.0,unique,far,paired,s_a_10_1.jpg,art,student-b1,STEM students,Fine Arts students,sub-75,0.0,0.0,1.0,1.0,0.5215277777777778 0.51875 0.5201388888888889 0.5319444444444444 0.5479166666666667 0.5861111111111111 0.60625 0.6138888888888889 0.6138888888888889 0.6111111111111112 0.6020833333333333 0.6048611111111111 0.6263888888888889 0.6708333333333333 0.7430555555555556 0.8486111111111111 0.8638888888888889 0.86875 0.8701388888888889 0.8736111111111111 0.8909722222222223 0.9034722222222222 0.9111111111111112 0.9180555555555556 0.9222222222222224 0.9243055555555556 0.9243055555555556 0.9229166666666668 0.9097222222222222 0.8694444444444445 0.6034722222222222 0.4701388888888889 0.3756944444444445 0.3388888888888889 0.3381944444444445 0.3861111111111111 0.4243055555555556 0.4805555555555556 0.5715277777777777 0.6604166666666667 0.7569444444444444 0.7701388888888889 0.7770833333333333 0.7784722222222222 0.7784722222222222 0.7784722222222222 0.7791666666666667 0.7826388888888889 0.7944444444444444 0.8020833333333334 0.8034722222222223 0.8034722222222223 0.8041666666666667 0.80625 0.8125 0.8256944444444444 0.8284722222222223,0.8111111111111111 0.8101851851851851 0.7814814814814814 0.7333333333333334 0.6694444444444445 0.512962962962963 0.4490740740740741 0.3925925925925926 0.36203703703703705 0.3398148148148148 0.2861111111111111 0.26388888888888884 0.2305555555555555 0.2 0.17962962962962958 0.1777777777777778 0.1787037037037037 0.1805555555555556 0.18148148148148147 0.18518518518518529 0.19259259259259254 0.1953703703703704 0.1972222222222222 0.2 0.20185185185185184 0.20185185185185184 0.20185185185185184 0.20185185185185184 0.19814814814814816 0.19166666666666665 0.19259259259259254 0.1972222222222222 0.19259259259259254 0.17592592592592593 0.1685185185185185 0.15462962962962967 0.1518518518518519 0.1435185185185185 0.13611111111111107 0.13240740740740742 0.1444444444444445 0.14814814814814814 0.14907407407407405 0.14907407407407405 0.14907407407407405 0.14907407407407405 0.14907407407407405 0.14907407407407405 0.14629629629629626 0.1435185185185185 0.1435185185185185 0.1435185185185185 0.1435185185185185 0.1435185185185185 0.1435185185185185 0.14166666666666672 0.14166666666666672,433.7000000000117 453.7000000000117 473.7000000000117 493.7000000000117 513.7000000000116 533.7000000000116 553.7000000000116 573.7000000000116 593.7000000000116 613.7000000000116 633.7000000000116 653.7000000000116 673.7000000000116 693.7000000000116 713.7000000000116 733.7000000000116 753.7000000000116 773.7000000000116 793.7000000000116 813.7000000000116 833.7000000000116 853.7000000000116 873.7000000000116 893.7000000000116 913.7000000000116 933.7000000000116 953.7000000000116 973.7000000000116 993.7000000000116 1013.7000000000116 1033.7000000000116 1053.7000000000116 1073.7000000000116 1093.7000000000116 1113.7000000000116 1133.7000000000114 1153.7000000000114 1173.7000000000114 1193.7000000000114 1213.7000000000114 1233.7000000000114 1253.7000000000114 1273.7000000000114 1293.7000000000114 1313.7000000000114 1333.7000000000114 1353.7000000000114 1373.7000000000114 1393.7000000000116 1413.7000000000116 1433.7000000000116 1453.7000000000116 1473.7000000000116 1493.7000000000116 1513.7000000000116 1533.7000000000116 1553.7000000000116
cb_02,28.0,enc_trial,stim,response,Fine Arts students,975.0,enc_trial,1.0,28.0,s_sh_09_2,student_shared,fold-c,paper clips,2.0,competing,far,paired,s_sh_09_2.jpg,,student-b1,STEM students,Fine Arts students,sub-75,1.0,1.0,0.0,1.0,0.5069444444444444 0.5027777777777778 0.5048611111111111 0.5111111111111111 0.51875 0.5319444444444444 0.5701388888888889 0.5805555555555556 0.6034722222222222 0.6402777777777777 0.7409722222222223 0.7868055555555555 0.8013888888888889 0.8097222222222222 0.8131944444444444 0.8180555555555555 0.8201388888888889 0.825 0.8361111111111111 0.8458333333333333 0.8576388888888888 0.8645833333333334 0.8729166666666667 0.8791666666666667 0.8833333333333333 0.8847222222222222 0.8847222222222222 0.8847222222222222 0.8847222222222222,0.8342592592592593 0.7907407407407407 0.7453703703703703 0.6972222222222222 0.6435185185185186 0.5805555555555555 0.4694444444444445 0.4212962962962963 0.3703703703703704 0.3083333333333333 0.2138888888888889 0.18888888888888888 0.18333333333333326 0.17962962962962958 0.1787037037037037 0.17407407407407405 0.17407407407407405 0.17222222222222228 0.16574074074074074 0.16296296296296298 0.1518518518518519 0.14629629629629626 0.13981481481481484 0.1333333333333333 0.12870370370370365 0.12777777777777774 0.12592592592592589 0.125 0.12407407407407413,316.6000000000058 336.6000000000058 356.6000000000058 376.6000000000058 396.6000000000058 416.6000000000058 436.6000000000058 456.6000000000058 476.6000000000058 496.6000000000058 516.6000000000058 536.6000000000058 556.6000000000058 576.6000000000057 596.6000000000057 616.6000000000057 636.6000000000057 656.6000000000057 676.6000000000057 696.6000000000058 716.6000000000058 736.6000000000058 756.6000000000058 776.6000000000058 796.6000000000058 816.6000000000058 836.6000000000058 856.6000000000058 876.6000000000058
cb_02,29.0,enc_trial,stim,response,STEM students,966.4999999999707,enc_trial,1.0,29.0,s_sh_16_2,student_shared,fold-a,stapler,2.0,competing,close,paired,s_sh_16_2.jpg,,student-b1,STEM students,Fine Arts students,sub-75,0.0,0.0,1.0,1.0,0.4951388888888889 0.4854166666666666 0.4722222222222222 0.4486111111111111 0.4208333333333333 0.3923611111111111 0.38125 0.3611111111111111 0.33125 0.29791666666666666 0.2618055555555556 0.2479166666666667 0.24027777777777776 0.23472222222222225 0.2340277777777777 0.2333333333333333 0.2340277777777777 0.2375 0.24305555555555555 0.25069444444444444 0.25833333333333336 0.25833333333333336 0.25555555555555554 0.2458333333333333 0.2395833333333333 0.22569444444444445 0.21944444444444444 0.2125 0.20416666666666666 0.1986111111111111 0.1909722222222222 0.18611111111111112 0.1840277777777778,0.8138888888888889 0.7935185185185185 0.7620370370370371 0.7185185185185186 0.6675925925925925 0.5851851851851853 0.55 0.500925925925926 0.4453703703703704 0.3888888888888888 0.3240740740740741 0.29907407407407405 0.2842592592592592 0.27222222222222225 0.26388888888888884 0.2518518518518519 0.24722222222222226 0.2435185185185185 0.23703703703703705 0.2305555555555555 0.21759259259259256 0.2157407407407408 0.2129629629629629 0.21111111111111114 0.21018518518518514 0.20925925925925928 0.20925925925925928 0.2083333333333333 0.2046296296296296 0.19907407407407407 0.1907407407407408 0.18703703703703692 0.18518518518518529,266.70000000001164 286.70000000001164 306.70000000001164 326.70000000001164 346.7000000000116 366.7000000000117 386.7000000000117 406.7000000000117 426.7000000000117 446.7000000000117 466.7000000000117 486.7000000000117 506.7000000000117 526.7000000000116 546.7000000000116 566.7000000000116 586.7000000000116 606.7000000000116 626.7000000000116 646.7000000000116 666.7000000000116 686.7000000000116 706.7000000000116 726.7000000000116 746.7000000000116 766.7000000000116 786.7000000000116 806.7000000000116 826.7000000000116 846.7000000000116 866.7000000000116 886.7000000000116 906.7000000000116
cb_02,30.0,enc_trial,stim,response,Fine Arts students,1019.3000000238536,enc_trial,1.0,30.0,s_sh_24_1,student_shared,fold-b-single,desk organizer,2.0,competing,,single,s_sh_24_1.jpg,,student-b1,STEM students,Fine Arts students,sub-75,1.0,,1.0,,0.5027777777777778 0.5006944444444444 0.4993055555555556 0.4958333333333334 0.4944444444444445 0.5125 0.5361111111111111 0.5756944444444444 0.6180555555555556 0.6763888888888889 0.7319444444444444 0.7527777777777778 0.7666666666666667 0.7763888888888889 0.7888888888888889 0.8111111111111111 0.8166666666666667 0.8229166666666666 0.8298611111111112 0.8416666666666667 0.84375 0.8451388888888889 0.8451388888888889 0.8451388888888889 0.8458333333333333 0.8513888888888889 0.8548611111111111 0.8555555555555555,0.8148148148148149 0.8083333333333333 0.7972222222222223 0.7861111111111111 0.7712962962962963 0.6712962962962963 0.5824074074074075 0.487037037037037 0.4037037037037037 0.3175925925925925 0.2324074074074074 0.2083333333333333 0.1953703703703704 0.18425925925925926 0.1685185185185185 0.1333333333333333 0.12314814814814813 0.11203703703703703 0.10092592592592596 0.08703703703703702 0.08425925925925926 0.08425925925925926 0.08425925925925926 0.08518518518518514 0.08703703703703702 0.09629629629629632 0.09999999999999998 0.09999999999999998,449.90000000002334 469.90000000002334 489.90000000002334 509.90000000002334 529.9000000000234 549.9000000000234 569.9000000000233 589.9000000000233 609.9000000000233 629.9000000000233 649.9000000000233 669.9000000000233 689.9000000000232 709.9000000000232 729.9000000000232 749.9000000000232 769.9000000000232 789.9000000000232 809.9000000000232 829.9000000000232 849.9000000000232 869.9000000000232 889.9000000000232 909.9000000000232 929.9000000000232 949.9000000000232 969.9000000000232 989.9000000000232
cb_02,31.0,enc_trial,stim,response,STEM students,1200.1000000000058,enc_trial,1.0,31.0,s_sh_12_1,student_shared,fold-b-single,binder,2.0,competing,,single,s_sh_12_1.jpg,,student-b1,STEM students,Fine Arts students,sub-75,1.0,,1.0,,0.4909722222222222 0.4722222222222222 0.4444444444444444 0.4111111111111111 0.37777777777777777 0.30416666666666664 0.2791666666666667 0.2618055555555556 0.25069444444444444 0.24375 0.23125 0.225 0.2152777777777778 0.20972222222222225 0.20416666666666666 0.19652777777777766 0.19166666666666668 0.18541666666666667 0.1798611111111111 0.17847222222222225 0.17569444444444446 0.17291666666666666 0.1673611111111111 0.16458333333333333 0.16319444444444445 0.16180555555555556 0.16111111111111112,0.7842592592592592 0.7518518518518519 0.712037037037037 0.6574074074074074 0.5962962962962963 0.4574074074074074 0.4055555555555556 0.3611111111111112 0.337037037037037 0.3231481481481482 0.3037037037037037 0.2953703703703704 0.2796296296296297 0.2675925925925926 0.25648148148148153 0.2444444444444445 0.2361111111111112 0.225925925925926 0.2148148148148148 0.2046296296296296 0.18703703703703692 0.1787037037037037 0.16759259259259265 0.16296296296296298 0.1601851851851852 0.15833333333333333 0.15740740740740744,283.29999999998836 303.29999999998836 323.29999999998836 343.29999999998836 363.2999999999884 383.2999999999884 403.2999999999884 423.2999999999884 443.2999999999884 463.2999999999884 483.2999999999884 503.2999999999884 523.2999999999884 543.2999999999884 563.2999999999884 583.2999999999884 603.2999999999884 623.2999999999884 643.2999999999884 663.2999999999884 683.2999999999884 703.2999999999884 723.2999999999884 743.2999999999884 763.2999999999884 783.2999999999884 803.2999999999884
cb_02,32.0,enc_trial,stim,response,Fine Arts students,1033.5999999999767,enc_trial,1.0,32.0,s_sh_19_2,student_shared,fold-a,portable plastic drawer,2.0,competing,close,paired,s_sh_19_2.jpg,,student-b1,STEM students,Fine Arts students,sub-75,0.0,0.0,0.0,0.0,0.4958333333333334 0.4902777777777778 0.4826388888888889 0.4659722222222222 0.4486111111111111 0.4305555555555556 0.42291666666666666 0.4409722222222222 0.4979166666666667 0.5652777777777778 0.6527777777777778 0.8152777777777778 0.8631944444444445 0.8861111111111111 0.8930555555555556 0.8972222222222223 0.9013888888888888 0.9034722222222222 0.9069444444444444 0.9118055555555556 0.9145833333333332 0.9145833333333332 0.9145833333333332 0.9145833333333332 0.9145833333333332 0.9145833333333332 0.9131944444444444 0.9125,0.8009259259259259 0.787962962962963 0.7703703703703704 0.737037037037037 0.6925925925925926 0.6333333333333333 0.5435185185185185 0.4888888888888889 0.3935185185185185 0.33611111111111114 0.29074074074074074 0.2324074074074074 0.2129629629629629 0.20370370370370366 0.19907407407407407 0.19814814814814816 0.19259259259259254 0.19166666666666665 0.18796296296296305 0.18148148148148147 0.17685185185185182 0.17685185185185182 0.17685185185185182 0.17685185185185182 0.17592592592592593 0.17500000000000004 0.17314814814814816 0.17222222222222228,466.6000000000058 486.6000000000058 506.6000000000058 526.6000000000058 546.6000000000058 566.6000000000057 586.6000000000057 606.6000000000057 626.6000000000057 646.6000000000057 666.6000000000057 686.6000000000057 706.6000000000058 726.6000000000058 746.6000000000058 766.6000000000058 786.6000000000058 806.6000000000058 826.6000000000058 846.6000000000058 866.6000000000058 886.6000000000058 906.6000000000058 926.6000000000058 946.6000000000058 966.6000000000058 986.6000000000058 1006.6000000000058
cb_02,33.0,enc_trial,stim,response,STEM students,855.0000000715373,enc_trial,1.0,33.0,s_s_01_1,student_stem,fold-b,microscope,2.0,unique,close,paired,s_s_01_1.jpg,stem,student-b1,STEM students,Fine Arts students,sub-75,1.0,1.0,1.0,1.0,0.49375 0.4868055555555556 0.48125 0.4680555555555556 0.4513888888888889 0.4006944444444445 0.35694444444444445 0.3076388888888889 0.25277777777777777 0.21041666666666667 0.15555555555555556 0.13402777777777775 0.12430555555555554 0.11875 0.11458333333333333 0.12222222222222222 0.13472222222222222 0.14583333333333334 0.15486111111111112 0.15902777777777774 0.15763888888888888 0.15625 0.15555555555555556 0.15555555555555556 0.15555555555555556 0.15694444444444444 0.15694444444444444,0.8296296296296296 0.8027777777777778 0.7796296296296297 0.7509259259259259 0.7092592592592593 0.6092592592592593 0.5462962962962963 0.4805555555555555 0.4240740740740741 0.3814814814814815 0.33333333333333337 0.3138888888888889 0.3055555555555556 0.2953703703703704 0.2861111111111111 0.25370370370370365 0.2287037037037037 0.2046296296296296 0.18518518518518529 0.1777777777777778 0.17407407407407405 0.17407407407407405 0.17314814814814816 0.17222222222222228 0.17129629629629628 0.16481481481481486 0.16388888888888886,299.6000000000058 319.6000000000058 339.6000000000058 359.6000000000058 379.6000000000058 399.6000000000058 419.6000000000058 439.6000000000058 459.6000000000058 479.6000000000058 499.6000000000058 519.6000000000058 539.6000000000058 559.6000000000058 579.6000000000057 599.6000000000057 619.6000000000057 639.6000000000057 659.6000000000057 679.6000000000057 699.6000000000058 719.6000000000058 739.6000000000058 759.6000000000058 779.6000000000058 799.6000000000058 819.6000000000058
cb_02,34.0,enc_trial,stim,response,STEM students,1023.499999976164,enc_trial,1.0,34.0,s_sh_11_1,student_shared,fold-b-single,pencil case,2.0,competing,,single,s_sh_11_1.jpg,,student-b1,STEM students,Fine Arts students,sub-75,1.0,,1.0,,0.4951388888888889 0.4923611111111112 0.4875 0.48125 0.4743055555555555 0.4451388888888889 0.4291666666666665 0.4111111111111111 0.39375 0.3819444444444444 0.3868055555555556 0.3993055555555556 0.41041666666666665 0.41041666666666665 0.3993055555555556 0.3680555555555556 0.3513888888888889 0.33541666666666664 0.3243055555555556 0.3173611111111111 0.2916666666666667 0.26944444444444443 0.2513888888888889 0.2340277777777777 0.21736111111111112 0.18263888888888888 0.17222222222222222 0.1597222222222222 0.14166666666666666 0.12638888888888888 0.1076388888888889 0.10486111111111113,0.8101851851851851 0.7935185185185185 0.7592592592592593 0.7333333333333334 0.7111111111111111 0.5842592592592593 0.5231481481481481 0.475 0.4398148148148148 0.42314814814814816 0.3925925925925926 0.36203703703703705 0.3342592592592593 0.3175925925925925 0.30092592592592593 0.2888888888888889 0.2851851851851852 0.2833333333333333 0.2805555555555556 0.2768518518518519 0.2685185185185185 0.2629629629629629 0.2629629629629629 0.2629629629629629 0.2583333333333333 0.2407407407407407 0.2324074074074074 0.21759259259259256 0.20370370370370366 0.18796296296296305 0.16759259259259265 0.16481481481481486,350.2000000000116 370.2000000000116 390.2000000000116 410.2000000000116 430.2000000000116 450.2000000000116 470.2000000000116 490.2000000000116 510.2000000000116 530.2000000000116 550.2000000000116 570.2000000000116 590.2000000000116 610.2000000000116 630.2000000000116 650.2000000000116 670.2000000000116 690.2000000000116 710.2000000000116 730.2000000000116 750.2000000000116 770.2000000000116 790.2000000000116 810.2000000000116 830.2000000000116 850.2000000000116 870.2000000000116 890.2000000000116 910.2000000000116 930.2000000000116 950.2000000000116 970.2000000000116
cb_02,35.0,enc_trial,stim,response,STEM students,1179.6000000476781,enc_trial,1.0,35.0,s_s_12_2,student_stem,fold-a,robotic arm,2.0,unique,far,paired,s_s_12_2.jpg,stem,student-b1,STEM students,Fine Arts students,sub-75,1.0,1.0,1.0,1.0,0.4993055555555556 0.4770833333333334 0.4548611111111111 0.4583333333333333 0.4673611111111111 0.5236111111111111 0.5555555555555556 0.6020833333333333 0.6534722222222222 0.7034722222222223 0.8159722222222222 0.8652777777777778 0.8979166666666667 0.9048611111111112 0.9020833333333332 0.8354166666666667 0.75625 0.6458333333333334 0.54375 0.4666666666666667 0.4013888888888889 0.38472222222222224 0.3729166666666667 0.3645833333333333 0.35208333333333336 0.3076388888888889 0.2881944444444444 0.2722222222222222 0.2590277777777778 0.2486111111111111 0.225 0.21458333333333326 0.2069444444444445 0.2013888888888889 0.19791666666666666 0.1902777777777777 0.18611111111111112 0.17916666666666667 0.17291666666666666 0.16666666666666666 0.16319444444444445,0.8037037037037037 0.7462962962962962 0.6462962962962964 0.5675925925925926 0.512962962962963 0.3842592592592593 0.3287037037037037 0.275 0.225925925925926 0.1898148148148148 0.1351851851851852 0.11388888888888893 0.09444444444444444 0.08333333333333337 0.07870370370370372 0.062037037037037016 0.06018518518518521 0.0796296296296296 0.11111111111111116 0.12407407407407413 0.12222222222222225 0.12037037037037035 0.1166666666666667 0.1148148148148148 0.1148148148148148 0.12592592592592589 0.13148148148148153 0.1342592592592593 0.13796296296296295 0.13981481481481484 0.13981481481481484 0.14074074074074072 0.14166666666666672 0.1425925925925926 0.1444444444444445 0.14814814814814814 0.14907407407407405 0.1518518518518519 0.15370370370370368 0.15648148148148144 0.15648148148148144,350.0 370.0 390.0 410.0 430.0 450.0 470.0 490.0 510.0 530.0 550.0 570.0 590.0 610.0 630.0 650.0 670.0 690.0 710.0 730.0 750.0 770.0 790.0 810.0 830.0 850.0 870.0 890.0 910.0 930.0 950.0 970.0 990.0 1010.0 1030.0 1050.0 1070.0 1090.0 1110.0 1130.0 1150.0
cb_02,36.0,enc_trial,stim,response,STEM students,1024.3999999999942,enc_trial,1.0,36.0,s_sh_16_1,student_shared,fold-a,stapler,2.0,competing,close,paired,s_sh_16_1.jpg,,student-b1,STEM students,Fine Arts students,sub-75,0.0,0.0,1.0,1.0,0.5 0.4881944444444444 0.4819444444444445 0.4770833333333334 0.4694444444444445 0.4263888888888889 0.3930555555555556 0.3590277777777778 0.3270833333333333 0.2916666666666667 0.2076388888888889 0.18541666666666667 0.1701388888888889 0.16111111111111112 0.15555555555555556 0.15138888888888888 0.15138888888888888 0.15069444444444444 0.15 0.1486111111111111 0.1486111111111111 0.14930555555555555 0.14930555555555555 0.14722222222222225 0.14444444444444446 0.14305555555555555 0.14305555555555555 0.1423611111111111,0.8037037037037037 0.7712962962962963 0.75 0.7212962962962963 0.6851851851851851 0.5675925925925926 0.5064814814814815 0.462037037037037 0.4342592592592592 0.4055555555555556 0.35462962962962963 0.3305555555555556 0.312037037037037 0.2953703703703704 0.2861111111111111 0.2777777777777778 0.2759259259259259 0.275 0.27222222222222225 0.2694444444444445 0.25555555555555554 0.2435185185185185 0.2231481481481481 0.2046296296296296 0.19166666666666665 0.18333333333333326 0.18240740740740746 0.18148148148148147,366.7999999999884 386.7999999999884 406.7999999999884 426.7999999999884 446.7999999999884 466.7999999999884 486.7999999999884 506.7999999999884 526.7999999999884 546.7999999999884 566.7999999999884 586.7999999999884 606.7999999999884 626.7999999999884 646.7999999999884 666.7999999999884 686.7999999999884 706.7999999999884 726.7999999999884 746.7999999999884 766.7999999999884 786.7999999999884 806.7999999999884 826.7999999999884 846.7999999999884 866.7999999999884 886.7999999999884 906.7999999999884
cb_02,37.0,enc_trial,stim,response,Fine Arts students,1133.600000000035,enc_trial,1.0,37.0,s_s_15_1,student_stem,fold-c-single,jumper cables,2.0,unique,,single,s_s_15_1.jpg,stem,student-b1,STEM students,Fine Arts students,sub-75,0.0,,1.0,,0.5076388888888889 0.5069444444444444 0.5041666666666667 0.4979166666666667 0.4923611111111112 0.5090277777777777 0.55625 0.5791666666666667 0.6069444444444444 0.6333333333333333 0.6763888888888889 0.6958333333333333 0.7125 0.7270833333333333 0.7368055555555556 0.7805555555555556 0.7993055555555556 0.8152777777777778 0.825 0.8298611111111112 0.8319444444444445 0.8326388888888889 0.8340277777777778 0.8388888888888889 0.84375 0.85,0.8185185185185185 0.8092592592592592 0.787962962962963 0.7537037037037038 0.7083333333333333 0.5675925925925926 0.4814814814814815 0.4398148148148148 0.3888888888888888 0.3407407407407408 0.27407407407407397 0.25648148148148153 0.2416666666666667 0.2314814814814815 0.225 0.1898148148148148 0.17500000000000004 0.1685185185185185 0.16388888888888886 0.1611111111111111 0.1601851851851852 0.1601851851851852 0.1592592592592592 0.15555555555555556 0.1518518518518519 0.14907407407407405,366.80000000001746 386.80000000001746 406.80000000001746 426.80000000001746 446.80000000001746 466.80000000001746 486.80000000001746 506.80000000001746 526.8000000000175 546.8000000000175 566.8000000000175 586.8000000000175 606.8000000000175 626.8000000000175 646.8000000000175 666.8000000000175 686.8000000000175 706.8000000000176 726.8000000000176 746.8000000000176 766.8000000000176 786.8000000000176 806.8000000000176 826.8000000000176 846.8000000000176 866.8000000000176
cb_02,38.0,enc_trial,stim,response,STEM students,852.6000000000058,enc_trial,1.0,38.0,s_s_01_2,student_stem,fold-b,microscope,2.0,unique,close,paired,s_s_01_2.jpg,stem,student-b1,STEM students,Fine Arts students,sub-75,1.0,1.0,1.0,1.0,0.4965277777777778 0.4770833333333334 0.44027777777777777 0.3909722222222222 0.3659722222222222 0.3034722222222222 0.25625 0.20972222222222225 0.18263888888888888 0.1798611111111111 0.17916666666666667 0.17777777777777778 0.17777777777777778 0.17777777777777778 0.17569444444444446 0.17222222222222222 0.17152777777777778 0.1701388888888889 0.1673611111111111 0.16458333333333333 0.16319444444444445,0.8148148148148149 0.7842592592592592 0.7287037037037036 0.6351851851851852 0.5851851851851853 0.475 0.4027777777777778 0.3305555555555556 0.28240740740740744 0.2601851851851852 0.25277777777777777 0.2416666666666667 0.2351851851851852 0.2277777777777777 0.21111111111111114 0.1962962962962963 0.19351851851851853 0.1907407407407408 0.18518518518518529 0.17962962962962958 0.1777777777777778,383.5 403.5 423.5 443.5 463.5 483.5 503.5 523.5 543.5 563.5 583.5 603.5 623.5 643.5 663.5 683.5 703.5 723.5 743.5 763.5 783.5
cb_02,39.0,enc_trial,stim,response,STEM students,966.1000000715139,enc_trial,1.0,39.0,s_s_05_2,student_stem,fold-a,lab goggles,2.0,unique,far,paired,s_s_05_2.jpg,stem,student-b1,STEM students,Fine Arts students,sub-75,1.0,1.0,1.0,1.0,0.5027777777777778 0.4972222222222222 0.4854166666666666 0.4652777777777778 0.45 0.4284722222222222 0.4180555555555556 0.4048611111111111 0.3909722222222222 0.3701388888888889 0.31319444444444444 0.2833333333333333 0.26319444444444445 0.25277777777777777 0.2486111111111111 0.24444444444444444 0.24375 0.2423611111111111 0.2375 0.2215277777777777 0.18888888888888888 0.1798611111111111 0.17152777777777778 0.16527777777777775 0.16041666666666668 0.15138888888888888 0.14375 0.14027777777777778,0.825 0.812962962962963 0.7898148148148147 0.7537037037037038 0.7212962962962963 0.6675925925925925 0.6462962962962964 0.6148148148148148 0.575 0.5231481481481481 0.4083333333333333 0.3592592592592593 0.3203703703703704 0.30000000000000004 0.29166666666666663 0.2805555555555556 0.2703703703703704 0.2592592592592593 0.2425925925925925 0.20740740740740726 0.14907407407407405 0.13981481481481484 0.1333333333333333 0.13055555555555556 0.12962962962962965 0.13055555555555556 0.13055555555555556 0.13055555555555556,400.09999999997666 420.09999999997666 440.09999999997666 460.09999999997666 480.09999999997666 500.09999999997666 520.0999999999766 540.0999999999766 560.0999999999766 580.0999999999767 600.0999999999767 620.0999999999767 640.0999999999767 660.0999999999767 680.0999999999767 700.0999999999768 720.0999999999768 740.0999999999768 760.0999999999768 780.0999999999768 800.0999999999768 820.0999999999768 840.0999999999768 860.0999999999768 880.0999999999768 900.0999999999768 920.0999999999768 940.0999999999768
cb_02,40.0,enc_trial,stim,response,STEM students,874.6000000476779,enc_trial,1.0,40.0,s_a_10_2,student_art,fold-a,tripod,2.0,unique,far,paired,s_a_10_2.jpg,art,student-b1,STEM students,Fine Arts students,sub-75,0.0,0.0,1.0,1.0,0.49375 0.4694444444444445 0.4340277777777778 0.4097222222222222 0.3798611111111111 0.25416666666666665 0.1902777777777777 0.14097222222222222 0.12361111111111113 0.11805555555555555 0.11736111111111112 0.11736111111111112 0.11736111111111112 0.11736111111111112 0.11736111111111112 0.11736111111111112 0.11736111111111112 0.11736111111111112 0.11736111111111112 0.11736111111111112 0.11736111111111112 0.11805555555555555,0.7953703703703704 0.7509259259259259 0.6851851851851851 0.625925925925926 0.5657407407407408 0.3638888888888889 0.2842592592592592 0.2222222222222222 0.19814814814814816 0.18796296296296305 0.18703703703703692 0.18703703703703692 0.18703703703703692 0.18703703703703692 0.18703703703703692 0.18703703703703692 0.18703703703703692 0.18703703703703692 0.18703703703703692 0.18703703703703692 0.18611111111111112 0.1787037037037037,316.6999999999825 336.6999999999825 356.69999999998254 376.69999999998254 396.69999999998254 416.69999999998254 436.69999999998254 456.69999999998254 476.69999999998254 496.69999999998254 516.6999999999825 536.6999999999825 556.6999999999825 576.6999999999825 596.6999999999825 616.6999999999825 636.6999999999825 656.6999999999825 676.6999999999825 696.6999999999824 716.6999999999824 736.6999999999824
