Current Spreadsheet,Trial Number,Display,Screen,Response Type,Response,Reaction Time,display,block,block_trial,stimulus_id,expected_goal,fold,stimulus_name,c_group,condition,within_block_dist,paired_status,stimulus_path,expected_location,block_split,respStim_1,respStim_2,sub_label,acc,both_enc_acc,assoc_stim1_acc,assoc_stim2_acc,x_pos,y_pos,time_trajectories
cb_04,1.0,enc_trial,stim,response,STEM students,1050.3000000014872,enc_trial,1.0,1.0,s_s_12_1,student_stem,fold-a,robotic arm,4.0,unique,close,paired,s_s_12_1.jpg,stem,student-b1,STEM students,Fine Arts students,sub-78,1.0,1.0,1.0,1.0,0.4986111111111111 0.4986111111111111 0.4986111111111111 0.4986111111111111 0.4986111111111111 0.4986111111111111 0.4986111111111111 0.4986111111111111 0.4986111111111111 0.4986111111111111 0.4986111111111111 0.4979166666666667 0.4972222222222222 0.4972222222222222 0.4972222222222222 0.4965277777777778 0.4965277777777778 0.4958333333333334 0.4951388888888889 0.4944444444444445 0.4930555555555556 0.4930555555555556 0.4930555555555556 0.4930555555555556 0.4944444444444445 0.4972222222222222 0.4979166666666667 0.4979166666666667 0.4972222222222222 0.4972222222222222 0.4972222222222222 0.4951388888888889 0.49375 0.4923611111111112 0.4895833333333333 0.4847222222222222 0.4798611111111111 0.475 0.4729166666666666 0.4715277777777778 0.4708333333333333 0.4666666666666667 0.4555555555555556 0.4305555555555556 0.37916666666666665 0.2861111111111111 0.2152777777777778 0.17569444444444446 0.15625 0.14305555555555555 0.13819444444444445 0.14166666666666666 0.14375 0.14444444444444446,0.8240740740740741 0.8222222222222222 0.8203703703703704 0.8203703703703704 0.8203703703703704 0.8203703703703704 0.8203703703703704 0.8203703703703704 0.8203703703703704 0.8203703703703704 0.8203703703703704 0.8203703703703704 0.8203703703703704 0.8203703703703704 0.8203703703703704 0.8222222222222222 0.8222222222222222 0.8222222222222222 0.8212962962962963 0.8185185185185185 0.812037037037037 0.8009259259259259 0.7861111111111111 0.7675925925925926 0.7453703703703703 0.7342592592592593 0.7342592592592593 0.737037037037037 0.7398148148148148 0.7407407407407407 0.7407407407407407 0.7361111111111112 0.7324074074074074 0.7277777777777779 0.7231481481481481 0.7148148148148148 0.7064814814814815 0.6962962962962963 0.6898148148148149 0.6870370370370371 0.6833333333333333 0.6712962962962963 0.6435185185185186 0.5935185185185186 0.5120370370370371 0.3888888888888888 0.2972222222222223 0.2416666666666667 0.225 0.20740740740740726 0.1898148148148148 0.18148148148148147 0.1787037037037037 0.1787037037037037,0.0 20.0 40.0 60.0 80.0 100.0 120.0 140.0 160.0 180.0 200.0 220.0 240.0 260.0 280.0 300.0 320.0 340.0 360.0 380.0 400.0 420.0 440.0 460.0 480.0 500.0 520.0 540.0 560.0 580.0 600.0 620.0 640.0 660.0 680.0 700.0 720.0 740.0 760.0 780.0 800.0 820.0 840.0 860.0 880.0 900.0 920.0 940.0 960.0 980.0 1000.0 1020.0 1040.0 1060.0
cb_04,2.0,enc_trial,stim,response,STEM students,857.6000000022323,enc_trial,1.0,2.0,s_s_07_1,student_stem,fold-b-single,periodic table,4.0,unique,,single,s_s_07_1.jpg,stem,student-b1,STEM students,Fine Arts students,sub-78,1.0,,1.0,,0.4923611111111112 0.4888888888888889 0.4881944444444444 0.4875 0.4868055555555556 0.4868055555555556 0.4868055555555556 0.4861111111111111 0.4861111111111111 0.4861111111111111 0.4861111111111111 0.4854166666666666 0.4854166666666666 0.4847222222222222 0.4847222222222222 0.4847222222222222 0.4847222222222222 0.4847222222222222 0.4847222222222222 0.4847222222222222 0.4840277777777778 0.4840277777777778 0.4840277777777778 0.4840277777777778 0.4833333333333333 0.4798611111111111 0.4694444444444445 0.44722222222222224 0.4111111111111111 0.3618055555555556 0.2958333333333333 0.2479166666666667 0.21041666666666667 0.18263888888888888 0.16597222222222222 0.15555555555555556 0.15069444444444444 0.14722222222222225 0.14375 0.14166666666666666,0.737037037037037 0.7157407407407408 0.7018518518518518 0.6944444444444444 0.6925925925925926 0.6916666666666667 0.6916666666666667 0.6916666666666667 0.6916666666666667 0.6916666666666667 0.6907407407407408 0.6898148148148149 0.6888888888888889 0.6879629629629629 0.6879629629629629 0.6879629629629629 0.6879629629629629 0.6879629629629629 0.6879629629629629 0.6879629629629629 0.6888888888888889 0.6907407407407408 0.6916666666666667 0.6925925925925926 0.6925925925925926 0.6870370370370371 0.6685185185185185 0.624074074074074 0.5416666666666667 0.4351851851851852 0.3055555555555556 0.21759259259259256 0.1592592592592592 0.13611111111111107 0.12407407407407413 0.11759259259259258 0.11759259259259258 0.12222222222222225 0.12592592592592589 0.12592592592592589,0.0 20.0 40.0 60.0 80.0 100.0 120.0 140.0 160.0 180.0 200.0 220.0 240.0 260.0 280.0 300.0 320.0 340.0 360.0 380.0 400.0 420.0 440.0 460.0 480.0 500.0 520.0 540.0 560.0 580.0 600.0 620.0 640.0 660.0 680.0 700.0 720.0 740.0 760.0 780.0
cb_04,3.0,enc_trial,stim,response,STEM students,1290.8000000014872,enc_trial,1.0,3.0,s_sh_23_1,student_shared,fold-a,ballpoint pen,4.0,competing,far,paired,s_sh_23_1.jpg,,student-b1,STEM students,Fine Arts students,sub-78,1.0,1.0,1.0,0.0,0.5041666666666667 0.5041666666666667 0.5041666666666667 0.5041666666666667 0.5041666666666667 0.5041666666666667 0.5041666666666667 0.5041666666666667 0.5041666666666667 0.5041666666666667 0.5041666666666667 0.5041666666666667 0.5041666666666667 0.5041666666666667 0.5041666666666667 0.5041666666666667 0.5041666666666667 0.5041666666666667 0.5041666666666667 0.5041666666666667 0.5055555555555555 0.5097222222222222 0.5159722222222223 0.5222222222222223 0.5270833333333333 0.5319444444444444 0.5395833333333333 0.5534722222222223 0.5743055555555555 0.6006944444444444 0.6298611111111111 0.6527777777777778 0.68125 0.7118055555555556 0.74375 0.7798611111111111 0.8034722222222223 0.8208333333333333 0.8326388888888889 0.8409722222222222 0.8444444444444444 0.8444444444444444 0.8444444444444444 0.8444444444444444 0.8444444444444444 0.8402777777777778 0.8277777777777777 0.7972222222222223 0.7270833333333333 0.6180555555555556 0.4736111111111111 0.3736111111111111 0.30486111111111114 0.2520833333333333 0.21944444444444444 0.19722222222222224 0.18819444444444444 0.18055555555555555 0.17430555555555555 0.1736111111111111 0.1736111111111111 0.1736111111111111 0.17152777777777778 0.1701388888888889,0.8314814814814815 0.8324074074074074 0.8324074074074074 0.8324074074074074 0.8324074074074074 0.8324074074074074 0.8324074074074074 0.8324074074074074 0.8324074074074074 0.8324074074074074 0.8324074074074074 0.8324074074074074 0.8324074074074074 0.8324074074074074 0.8324074074074074 0.8324074074074074 0.8324074074074074 0.8324074074074074 0.8324074074074074 0.8314814814814815 0.8287037037037037 0.8194444444444444 0.7944444444444445 0.7518518518518519 0.7037037037037037 0.6555555555555556 0.6342592592592593 0.6157407407407407 0.587962962962963 0.5453703703703704 0.4777777777777778 0.4175925925925926 0.3527777777777777 0.2972222222222223 0.2574074074074074 0.2240740740740741 0.2064814814814815 0.19259259259259254 0.18333333333333326 0.17685185185185182 0.17314814814814816 0.17314814814814816 0.17129629629629628 0.1703703703703704 0.1703703703703704 0.1685185185185185 0.16388888888888886 0.1527777777777778 0.13796296296296295 0.12314814814814813 0.11759259259259258 0.11759259259259258 0.11388888888888893 0.11203703703703703 0.1166666666666667 0.12314814814814813 0.125 0.125 0.12407407407407413 0.12129629629629635 0.11851851851851848 0.11759259259259258 0.1166666666666667 0.1166666666666667,5.6999999999970905 25.69999999999709 45.69999999999709 65.69999999999709 85.69999999999709 105.69999999999708 125.69999999999708 145.6999999999971 165.6999999999971 185.6999999999971 205.6999999999971 225.6999999999971 245.6999999999971 265.6999999999971 285.69999999999715 305.69999999999715 325.69999999999715 345.6999999999971 365.6999999999971 385.6999999999971 405.6999999999971 425.6999999999971 445.6999999999971 465.6999999999971 485.6999999999971 505.6999999999971 525.6999999999971 545.6999999999971 565.6999999999971 585.6999999999971 605.6999999999971 625.6999999999971 645.6999999999971 665.6999999999971 685.6999999999971 705.6999999999971 725.6999999999971 745.6999999999971 765.6999999999971 785.6999999999971 805.6999999999971 825.6999999999971 845.6999999999971 865.6999999999971 885.6999999999971 905.6999999999972 925.6999999999972 945.6999999999972 965.6999999999972 985.6999999999972 1005.6999999999972 1025.6999999999969 1045.6999999999969 1065.6999999999969 1085.6999999999969 1105.6999999999969 1125.6999999999969 1145.6999999999969 1165.6999999999969 1185.6999999999969 1205.6999999999969 1225.6999999999969 1245.6999999999969 1265.6999999999969
cb_04,4.0,enc_trial,stim,response,STEM students,1069.2000000007392,enc_trial,1.0,4.0,s_s_12_2,student_stem,fold-a,robotic arm,4.0,unique,close,paired,s_s_12_2.jpg,stem,student-b1,STEM students,Fine Arts students,sub-78,1.0,1.0,1.0,1.0,0.5 0.5 0.5006944444444444 0.5006944444444444 0.5006944444444444 0.5006944444444444 0.5006944444444444 0.5006944444444444 0.5006944444444444 0.5006944444444444 0.5 0.5 0.5 0.5 0.4993055555555556 0.4965277777777778 0.4861111111111111 0.4548611111111111 0.4041666666666667 0.34444444444444444 0.2826388888888889 0.2416666666666667 0.2076388888888889 0.1840277777777778 0.17291666666666666 0.16458333333333333 0.16111111111111112 0.16111111111111112 0.16111111111111112 0.16111111111111112 0.16041666666666668 0.1597222222222222 0.1597222222222222 0.1597222222222222 0.15902777777777774 0.15763888888888888 0.15625 0.15486111111111112 0.15416666666666667,0.8361111111111111 0.837037037037037 0.837037037037037 0.837962962962963 0.8388888888888889 0.8388888888888889 0.8388888888888889 0.8388888888888889 0.8388888888888889 0.837962962962963 0.837037037037037 0.8361111111111111 0.8351851851851853 0.8351851851851853 0.8333333333333334 0.8231481481481482 0.7972222222222223 0.7333333333333334 0.6342592592592593 0.5166666666666666 0.3833333333333333 0.29814814814814816 0.2388888888888889 0.20185185185185184 0.1787037037037037 0.16388888888888886 0.15648148148148144 0.15000000000000002 0.14907407407407405 0.14907407407407405 0.14907407407407405 0.14907407407407405 0.14907407407407405 0.14907407407407405 0.14814814814814814 0.14722222222222225 0.14629629629629626 0.14537037037037034 0.14537037037037034,239.0 259.0 279.0 299.0 319.0 339.0 359.0 379.0 399.0 419.0 439.0 459.0 479.0 499.0 519.0 539.0 559.0 579.0 599.0 619.0 639.0 659.0 679.0 699.0 719.0 739.0 759.0 779.0 799.0 819.0 839.0 859.0 879.0 899.0 919.0 939.0 959.0 979.0 999.0
cb_04,5.0,enc_trial,stim,response,Fine Arts students,1658.3999999999796,enc_trial,1.0,5.0,s_sh_16_1,student_shared,fold-a,stapler,4.0,competing,far,paired,s_sh_16_1.jpg,,student-b1,STEM students,Fine Arts students,sub-78,1.0,1.0,0.0,1.0,0.4958333333333334 0.4958333333333334 0.4958333333333334 0.4958333333333334 0.4958333333333334 0.4958333333333334 0.4965277777777778 0.4965277777777778 0.4965277777777778 0.4965277777777778 0.4972222222222222 0.4972222222222222 0.4972222222222222 0.4972222222222222 0.4965277777777778 0.4909722222222222 0.4736111111111111 0.4375 0.3826388888888889 0.3347222222222222 0.2958333333333333 0.28194444444444444 0.28125 0.29444444444444445 0.3194444444444444 0.3638888888888889 0.4111111111111111 0.4701388888888889 0.53125 0.5916666666666667 0.6611111111111111 0.7083333333333334 0.7409722222222223 0.7618055555555555 0.7729166666666667 0.7819444444444444 0.7847222222222222 0.7819444444444444 0.7763888888888889 0.7722222222222223 0.7701388888888889 0.7701388888888889 0.7708333333333334 0.7743055555555556 0.7791666666666667 0.7861111111111111 0.7958333333333333 0.8048611111111111 0.8173611111111111 0.83125 0.84375 0.8486111111111111 0.85 0.8506944444444444 0.8506944444444444 0.8506944444444444 0.8506944444444444 0.8506944444444444 0.8506944444444444 0.8506944444444444 0.8506944444444444 0.8506944444444444 0.8506944444444444 0.8506944444444444 0.8506944444444444 0.8506944444444444 0.8506944444444444 0.8506944444444444 0.8506944444444444 0.8506944444444444 0.8506944444444444 0.8506944444444444 0.8513888888888889 0.8527777777777777 0.8541666666666666 0.8541666666666666 0.8548611111111111,0.8212962962962963 0.8212962962962963 0.8212962962962963 0.8212962962962963 0.8212962962962963 0.8212962962962963 0.8222222222222222 0.8222222222222222 0.8222222222222222 0.8231481481481482 0.8231481481481482 0.8231481481481482 0.8231481481481482 0.8231481481481482 0.8194444444444444 0.8009259259259259 0.7546296296296297 0.6731481481481482 0.5648148148148149 0.4703703703703703 0.3851851851851852 0.3453703703703703 0.3203703703703704 0.3018518518518518 0.2898148148148149 0.2731481481481481 0.25462962962962965 0.2314814814814815 0.21018518518518514 0.1898148148148148 0.16388888888888886 0.1435185185185185 0.12870370370370365 0.11944444444444445 0.11296296296296293 0.10833333333333328 0.10555555555555553 0.10648148148148152 0.10833333333333328 0.11018518518518516 0.11203703703703703 0.11203703703703703 0.11296296296296293 0.11388888888888893 0.11388888888888893 0.1148148148148148 0.1157407407407407 0.1166666666666667 0.1166666666666667 0.11759259259259258 0.11851851851851848 0.11851851851851848 0.11851851851851848 0.11851851851851848 0.11851851851851848 0.11759259259259258 0.11759259259259258 0.11759259259259258 0.11759259259259258 0.11759259259259258 0.11759259259259258 0.11759259259259258 0.11759259259259258 0.11759259259259258 0.11759259259259258 0.11759259259259258 0.11759259259259258 0.11759259259259258 0.11759259259259258 0.11759259259259258 0.11759259259259258 0.11759259259259258 0.11759259259259258 0.11759259259259258 0.11851851851851848 0.11851851851851848 0.11851851851851848,125.0 145.0 165.0 185.0 205.0 225.0 245.0 265.0 285.0 305.0 325.0 345.0 365.0 385.0 405.0 425.0 445.0 465.0 485.0 505.0 525.0 545.0 565.0 585.0 605.0 625.0 645.0 665.0 685.0 705.0 725.0 745.0 765.0 785.0 805.0 825.0 845.0 865.0 885.0 905.0 925.0 945.0 965.0 985.0 1005.0 1025.0 1045.0 1065.0 1085.0 1105.0 1125.0 1145.0 1165.0 1185.0 1205.0 1225.0 1245.0 1265.0 1285.0 1305.0 1325.0 1345.0 1365.0 1385.0 1405.0 1425.0 1445.0 1465.0 1485.0 1505.0 1525.0 1545.0 1565.0 1585.0 1605.0 1625.0 1645.0
cb_04,6.0,enc_trial,stim,response,STEM students,1369.000000002241,enc_trial,1.0,6.0,s_sh_18_1,student_shared,fold-c-single,wall calendar,4.0,competing,,single,s_sh_18_1.jpg,,student-b1,STEM students,Fine Arts students,sub-78,1.0,,1.0,,0.5034722222222222 0.5034722222222222 0.5034722222222222 0.5034722222222222 0.5034722222222222 0.5034722222222222 0.5034722222222222 0.5034722222222222 0.5034722222222222 0.5034722222222222 0.5027777777777778 0.5027777777777778 0.5020833333333333 0.5020833333333333 0.5020833333333333 0.5013888888888889 0.5013888888888889 0.5013888888888889 0.5006944444444444 0.5006944444444444 0.5006944444444444 0.5 0.5 0.4993055555555556 0.4993055555555556 0.4979166666666667 0.4972222222222222 0.4965277777777778 0.49375 0.4916666666666666 0.4909722222222222 0.4902777777777778 0.4895833333333333 0.4895833333333333 0.4895833333333333 0.4895833333333333 0.4888888888888889 0.4875 0.4861111111111111 0.4847222222222222 0.4833333333333333 0.48125 0.4784722222222222 0.4743055555555555 0.4680555555555556 0.45625 0.43125 0.3923611111111111 0.3402777777777778 0.27847222222222223 0.21458333333333326 0.16944444444444445 0.1388888888888889 0.11944444444444445 0.10555555555555557 0.10277777777777776 0.10347222222222224 0.10416666666666667 0.10416666666666667 0.10416666666666667 0.10347222222222224 0.10347222222222224 0.10486111111111113 0.10555555555555557 0.10555555555555557 0.10555555555555557 0.10555555555555557 0.10555555555555557 0.10555555555555557,0.8481481481481481 0.8490740740740741 0.8490740740740741 0.8490740740740741 0.8490740740740741 0.8490740740740741 0.8490740740740741 0.8490740740740741 0.8490740740740741 0.8490740740740741 0.8490740740740741 0.8490740740740741 0.85 0.85 0.85 0.85 0.85 0.8509259259259259 0.8509259259259259 0.8509259259259259 0.8518518518518519 0.8518518518518519 0.8518518518518519 0.8527777777777777 0.8527777777777777 0.8537037037037037 0.8537037037037037 0.8537037037037037 0.85 0.8453703703703703 0.8407407407407408 0.8351851851851853 0.8296296296296296 0.8268518518518518 0.825925925925926 0.825 0.8231481481481482 0.8203703703703704 0.8157407407407408 0.8101851851851851 0.8009259259259259 0.787962962962963 0.7712962962962963 0.7518518518518519 0.725 0.6851851851851851 0.6212962962962962 0.537962962962963 0.437037037037037 0.325 0.21944444444444444 0.15648148148148144 0.13240740740740742 0.12222222222222225 0.11388888888888893 0.11203703703703703 0.11296296296296293 0.1148148148148148 0.1157407407407407 0.1157407407407407 0.1157407407407407 0.1157407407407407 0.1157407407407407 0.1157407407407407 0.1157407407407407 0.1157407407407407 0.1157407407407407 0.1157407407407407 0.1166666666666667,13.80000000000291 33.80000000000291 53.80000000000291 73.80000000000291 93.80000000000292 113.80000000000292 133.8000000000029 153.8000000000029 173.8000000000029 193.8000000000029 213.8000000000029 233.8000000000029 253.8000000000029 273.8000000000029 293.80000000000285 313.80000000000285 333.80000000000285 353.8000000000029 373.8000000000029 393.8000000000029 413.8000000000029 433.8000000000029 453.8000000000029 473.8000000000029 493.8000000000029 513.8000000000029 533.8000000000029 553.8000000000029 573.8000000000029 593.8000000000029 613.8000000000029 633.8000000000029 653.8000000000029 673.8000000000029 693.8000000000029 713.8000000000029 733.8000000000029 753.8000000000029 773.8000000000029 793.8000000000029 813.8000000000029 833.8000000000029 853.8000000000029 873.8000000000029 893.8000000000029 913.8000000000028 933.8000000000028 953.8000000000028 973.8000000000028 993.8000000000028 1013.8000000000028 1033.8000000000031 1053.8000000000031 1073.8000000000031 1093.8000000000031 1113.8000000000031 1133.8000000000031 1153.8000000000031 1173.8000000000031 1193.8000000000031 1213.8000000000031 1233.8000000000031 1253.8000000000031 1273.8000000000031 1293.8000000000031 1313.8000000000031 1333.8000000000031 1353.8000000000031 1373.8000000000031
cb_04,7.0,enc_trial,stim,response,STEM students,1283.1000000014901,enc_trial,1.0,7.0,s_sh_04_1,student_shared,fold-c-single,laptop stand,4.0,competing,,single,s_sh_04_1.jpg,,student-b1,STEM students,Fine Arts students,sub-78,1.0,,1.0,,0.5034722222222222 0.5034722222222222 0.5034722222222222 0.5034722222222222 0.5034722222222222 0.5034722222222222 0.5034722222222222 0.5034722222222222 0.5034722222222222 0.5034722222222222 0.5034722222222222 0.5034722222222222 0.5034722222222222 0.5034722222222222 0.5034722222222222 0.5034722222222222 0.5034722222222222 0.5027777777777778 0.5027777777777778 0.5027777777777778 0.5027777777777778 0.5027777777777778 0.5034722222222222 0.5055555555555555 0.5083333333333333 0.5131944444444444 0.5194444444444445 0.5270833333333333 0.5361111111111111 0.5444444444444444 0.5541666666666667 0.5625 0.56875 0.575 0.5784722222222223 0.58125 0.58125 0.5791666666666667 0.5715277777777777 0.5548611111111111 0.5138888888888888 0.45625 0.39166666666666666 0.33402777777777776 0.2916666666666667 0.2513888888888889 0.22361111111111112 0.2048611111111111 0.18888888888888888 0.1763888888888889 0.16875 0.16666666666666666 0.16597222222222222 0.16319444444444445 0.16180555555555556 0.16041666666666668,0.8314814814814815 0.8324074074074074 0.8324074074074074 0.8324074074074074 0.8324074074074074 0.8324074074074074 0.8324074074074074 0.8324074074074074 0.8324074074074074 0.8324074074074074 0.8324074074074074 0.8324074074074074 0.8324074074074074 0.8324074074074074 0.8324074074074074 0.8324074074074074 0.8324074074074074 0.8324074074074074 0.8324074074074074 0.8324074074074074 0.8314814814814815 0.8305555555555555 0.8287037037037037 0.825925925925926 0.8212962962962963 0.8092592592592592 0.7944444444444445 0.7777777777777778 0.7583333333333333 0.7416666666666667 0.7231481481481481 0.7074074074074075 0.6925925925925926 0.6777777777777778 0.6657407407407407 0.6537037037037037 0.6444444444444444 0.6342592592592593 0.6157407407407407 0.5861111111111111 0.5296296296296297 0.4537037037037037 0.375 0.30925925925925923 0.2620370370370371 0.21759259259259256 0.1944444444444444 0.18518518518518529 0.1787037037037037 0.17407407407407405 0.17314814814814816 0.17314814814814816 0.17314814814814816 0.17314814814814816 0.17129629629629628 0.1703703703703704,166.8000000000029 186.8000000000029 206.8000000000029 226.8000000000029 246.8000000000029 266.8000000000029 286.80000000000285 306.80000000000285 326.80000000000285 346.8000000000029 366.8000000000029 386.8000000000029 406.8000000000029 426.8000000000029 446.8000000000029 466.8000000000029 486.8000000000029 506.8000000000029 526.8000000000029 546.8000000000029 566.8000000000029 586.8000000000029 606.8000000000029 626.8000000000029 646.8000000000029 666.8000000000029 686.8000000000029 706.8000000000029 726.8000000000029 746.8000000000029 766.8000000000029 786.8000000000029 806.8000000000029 826.8000000000029 846.8000000000029 866.8000000000029 886.8000000000029 906.8000000000028 926.8000000000028 946.8000000000028 966.8000000000028 986.8000000000028 1006.8000000000028 1026.8000000000031 1046.8000000000031 1066.8000000000031 1086.8000000000031 1106.8000000000031 1126.8000000000031 1146.8000000000031 1166.8000000000031 1186.8000000000031 1206.8000000000031 1226.8000000000031 1246.8000000000031 1266.8000000000031
cb_04,8.0,enc_trial,stim,response,Fine Arts students,1207.6000000014901,enc_trial,1.0,8.0,s_a_17_1,student_art,fold-b-single,microphone,4.0,unique,,single,s_a_17_1.jpg,art,student-b1,STEM students,Fine Arts students,sub-78,1.0,,1.0,,0.5020833333333333 0.5020833333333333 0.5020833333333333 0.5020833333333333 0.5013888888888889 0.5006944444444444 0.5006944444444444 0.5 0.4993055555555556 0.4972222222222222 0.4944444444444445 0.4916666666666666 0.4895833333333333 0.4875 0.4847222222222222 0.4819444444444445 0.48125 0.4875 0.5083333333333333 0.5493055555555556 0.6006944444444444 0.6694444444444444 0.725 0.7722222222222223 0.8125 0.84375 0.875 0.8923611111111112 0.9006944444444445 0.9006944444444445 0.8979166666666667 0.8944444444444445 0.8902777777777777 0.8847222222222222 0.8819444444444444 0.8798611111111111 0.8791666666666667 0.8791666666666667 0.8791666666666667 0.8791666666666667 0.8798611111111111,0.8277777777777777 0.8277777777777777 0.8277777777777777 0.8268518518518518 0.8240740740740741 0.8194444444444444 0.8138888888888889 0.8083333333333333 0.8027777777777778 0.7981481481481482 0.7916666666666666 0.7842592592592592 0.7759259259259259 0.7620370370370371 0.7453703703703703 0.725 0.6925925925925926 0.6564814814814814 0.6055555555555556 0.5351851851851852 0.4611111111111112 0.3768518518518519 0.31666666666666665 0.2601851851851852 0.2064814814814815 0.16296296296296298 0.12037037037037035 0.09537037037037033 0.0796296296296296 0.07592592592592595 0.07592592592592595 0.07592592592592595 0.07592592592592595 0.07870370370370372 0.0805555555555556 0.08148148148148149 0.08148148148148149 0.08240740740740737 0.08333333333333337 0.08333333333333337 0.08333333333333337,413.8000000000029 433.8000000000029 453.8000000000029 473.8000000000029 493.8000000000029 513.8000000000029 533.8000000000029 553.8000000000029 573.8000000000029 593.8000000000029 613.8000000000029 633.8000000000029 653.8000000000029 673.8000000000029 693.8000000000029 713.8000000000029 733.8000000000029 753.8000000000029 773.8000000000029 793.8000000000029 813.8000000000029 833.8000000000029 853.8000000000029 873.8000000000029 893.8000000000029 913.8000000000028 933.8000000000028 953.8000000000028 973.8000000000028 993.8000000000028 1013.8000000000028 1033.8000000000031 1053.8000000000031 1073.8000000000031 1093.8000000000031 1113.8000000000031 1133.8000000000031 1153.8000000000031 1173.8000000000031 1193.8000000000031 1213.8000000000031
cb_04,9.0,enc_trial,stim,response,Fine Arts students,1397.6999999999966,enc_trial,1.0,9.0,s_sh_07_1,student_shared,fold-a,ruler,4.0,competing,far,paired,s_sh_07_1.jpg,,student-b1,STEM students,Fine Arts students,sub-78,1.0,1.0,1.0,1.0,0.5020833333333333 0.5020833333333333 0.5020833333333333 0.5027777777777778 0.5027777777777778 0.5027777777777778 0.5027777777777778 0.5027777777777778 0.5027777777777778 0.5027777777777778 0.5027777777777778 0.5020833333333333 0.4993055555555556 0.4951388888888889 0.4868055555555556 0.4652777777777778 0.4368055555555556 0.4069444444444445 0.3805555555555555 0.35 0.30972222222222223 0.2756944444444445 0.2534722222222222 0.2388888888888889 0.22847222222222224 0.2215277777777777 0.21666666666666667 0.21597222222222226 0.21597222222222226 0.21597222222222226 0.21666666666666667 0.2215277777777777 0.23680555555555555 0.27847222222222223 0.34791666666666665 0.4576388888888889 0.5597222222222222 0.6479166666666667 0.7159722222222222 0.7680555555555556 0.8048611111111111 0.8243055555555555 0.8284722222222223 0.8291666666666667 0.8256944444444444 0.8236111111111111 0.8215277777777777 0.8194444444444444 0.8180555555555555 0.8180555555555555 0.8180555555555555 0.8229166666666666 0.8305555555555556 0.8368055555555556 0.8402777777777778 0.8416666666666667 0.8423611111111111 0.8430555555555556,0.8277777777777777 0.8277777777777777 0.8277777777777777 0.8277777777777777 0.8287037037037037 0.8287037037037037 0.8296296296296296 0.8296296296296296 0.8296296296296296 0.8296296296296296 0.8296296296296296 0.8277777777777777 0.8231481481481482 0.812037037037037 0.7907407407407407 0.7462962962962962 0.6879629629629629 0.624074074074074 0.5592592592592592 0.4907407407407407 0.4018518518518519 0.33333333333333337 0.2870370370370371 0.25277777777777777 0.2277777777777777 0.21203703703703705 0.20185185185185184 0.19907407407407407 0.19814814814814816 0.19814814814814816 0.1972222222222222 0.1972222222222222 0.19907407407407407 0.20092592592592595 0.20092592592592595 0.2 0.19814814814814816 0.19166666666666665 0.17685185185185182 0.1592592592592592 0.1444444444444445 0.13055555555555556 0.12222222222222225 0.11296296296296293 0.1074074074074074 0.10648148148148152 0.10648148148148152 0.10925925925925928 0.11111111111111116 0.11203703703703703 0.11203703703703703 0.11203703703703703 0.11111111111111116 0.11111111111111116 0.11111111111111116 0.11111111111111116 0.11203703703703703 0.11203703703703703,258.3000000000029 278.3000000000029 298.30000000000285 318.30000000000285 338.30000000000285 358.3000000000029 378.3000000000029 398.3000000000029 418.3000000000029 438.3000000000029 458.3000000000029 478.3000000000029 498.3000000000029 518.3000000000029 538.3000000000029 558.3000000000029 578.3000000000029 598.3000000000029 618.3000000000029 638.3000000000029 658.3000000000029 678.3000000000029 698.3000000000029 718.3000000000029 738.3000000000029 758.3000000000029 778.3000000000029 798.3000000000029 818.3000000000029 838.3000000000029 858.3000000000029 878.3000000000029 898.3000000000029 918.3000000000028 938.3000000000028 958.3000000000028 978.3000000000028 998.3000000000028 1018.3000000000028 1038.3000000000031 1058.3000000000031 1078.3000000000031 1098.3000000000031 1118.3000000000031 1138.3000000000031 1158.3000000000031 1178.3000000000031 1198.3000000000031 1218.3000000000031 1238.3000000000031 1258.3000000000031 1278.3000000000031 1298.3000000000031 1318.3000000000031 1338.3000000000031 1358.3000000000031 1378.3000000000031 1398.3000000000031
cb_04,10.0,enc_trial,stim,response,STEM students,1032.7999999992608,enc_trial,1.0,10.0,s_s_14_1,student_stem,fold-e,funnel,4.0,unique,far,paired,s_s_14_1.jpg,stem,student-b1,STEM students,Fine Arts students,sub-78,1.0,1.0,1.0,1.0,0.5 0.5 0.4993055555555556 0.4986111111111111 0.4986111111111111 0.4986111111111111 0.4979166666666667 0.4972222222222222 0.4965277777777778 0.4965277777777778 0.4958333333333334 0.4951388888888889 0.4944444444444445 0.49375 0.4930555555555556 0.4923611111111112 0.4909722222222222 0.4895833333333333 0.4888888888888889 0.4881944444444444 0.4881944444444444 0.4868055555555556 0.4840277777777778 0.4777777777777778 0.4645833333333334 0.4465277777777778 0.4069444444444445 0.3451388888888889 0.275 0.20625 0.1625 0.12916666666666668 0.11319444444444444 0.10486111111111113 0.09930555555555556 0.09652777777777778 0.09305555555555556 0.09305555555555556 0.09305555555555556 0.09305555555555556 0.09722222222222222 0.10486111111111113 0.1111111111111111 0.11666666666666667 0.12013888888888888,0.8472222222222222 0.8472222222222222 0.8481481481481481 0.8481481481481481 0.8490740740740741 0.8490740740740741 0.85 0.8509259259259259 0.8518518518518519 0.8527777777777777 0.8537037037037037 0.8546296296296296 0.8564814814814815 0.8583333333333334 0.8592592592592593 0.8601851851851852 0.8611111111111112 0.8629629629629629 0.8629629629629629 0.8629629629629629 0.8638888888888889 0.8611111111111112 0.8537037037037037 0.8398148148148148 0.8157407407407408 0.7805555555555556 0.7055555555555555 0.587037037037037 0.4472222222222222 0.3240740740740741 0.27407407407407397 0.2620370370370371 0.2481481481481481 0.2388888888888889 0.2296296296296297 0.2222222222222222 0.21759259259259256 0.21759259259259256 0.21666666666666667 0.21203703703703705 0.19907407407407407 0.18518518518518529 0.17314814814814816 0.16481481481481486 0.1601851851851852,127.80000000000292 147.8000000000029 167.8000000000029 187.80000000000285 207.80000000000285 227.80000000000285 247.80000000000285 267.8000000000028 287.8000000000028 307.8000000000028 327.8000000000028 347.80000000000274 367.80000000000274 387.80000000000274 407.8000000000027 427.8000000000027 447.8000000000027 467.8000000000027 487.8000000000027 507.80000000000257 527.8000000000027 547.8000000000027 567.8000000000026 587.8000000000026 607.8000000000026 627.8000000000026 647.8000000000026 667.8000000000026 687.8000000000025 707.8000000000025 727.8000000000025 747.8000000000025 767.8000000000025 787.8000000000025 807.8000000000025 827.8000000000025 847.8000000000025 867.8000000000023 887.8000000000023 907.8000000000025 927.8000000000025 947.8000000000025 967.8000000000025 987.8000000000025 1007.8000000000023
cb_04,11.0,enc_trial,stim,response,Fine Arts students,940.2000000014959,enc_trial,1.0,11.0,s_a_03_1,student_art,fold-e,palette,4.0,unique,far,paired,s_a_03_1.jpg,art,student-b1,STEM students,Fine Arts students,sub-78,1.0,1.0,1.0,1.0,0.4979166666666667 0.4979166666666667 0.4979166666666667 0.4979166666666667 0.4979166666666667 0.4979166666666667 0.4979166666666667 0.4972222222222222 0.4972222222222222 0.4972222222222222 0.4972222222222222 0.4965277777777778 0.4965277777777778 0.4965277777777778 0.4965277777777778 0.4965277777777778 0.4965277777777778 0.4958333333333334 0.4958333333333334 0.4958333333333334 0.4958333333333334 0.4958333333333334 0.4951388888888889 0.4951388888888889 0.4923611111111112 0.4881944444444444 0.4819444444444445 0.4729166666666666 0.4694444444444445 0.475 0.4965277777777778 0.5270833333333333 0.5729166666666666 0.625 0.6770833333333334 0.7180555555555556 0.7576388888888889 0.7909722222222222 0.8166666666666667 0.8395833333333333 0.8590277777777777 0.8777777777777778 0.8888888888888888 0.8930555555555556 0.8979166666666667 0.9013888888888888 0.9020833333333332,0.799074074074074 0.8 0.8 0.8 0.8 0.8 0.8 0.8 0.8 0.8009259259259259 0.8009259259259259 0.8018518518518518 0.8027777777777778 0.8027777777777778 0.8027777777777778 0.8027777777777778 0.8037037037037037 0.8037037037037037 0.8037037037037037 0.8046296296296296 0.8046296296296296 0.8055555555555556 0.8055555555555556 0.8055555555555556 0.8009259259259259 0.7796296296296297 0.7203703703703703 0.6342592592592593 0.5398148148148147 0.4490740740740741 0.3731481481481481 0.3231481481481482 0.2851851851851852 0.26388888888888884 0.25277777777777777 0.2416666666666667 0.2240740740740741 0.20277777777777767 0.18425925925925926 0.16666666666666666 0.14814814814814814 0.12777777777777774 0.11296296296296293 0.1074074074074074 0.10555555555555553 0.10462962962962964 0.10370370370370374,0.0 20.0 40.0 60.0 80.0 100.0 120.0 140.0 160.0 180.0 200.0 220.0 240.0 260.0 280.0 300.0 320.0 340.0 360.0 380.0 400.0 420.0 440.0 460.0 480.0 500.0 520.0 540.0 560.0 580.0 600.0 620.0 640.0 660.0 680.0 700.0 720.0 740.0 760.0 780.0 800.0 820.0 840.0 860.0 880.0 900.0 920.0
cb_04,12.0,enc_trial,stim,response,Fine Arts students,1112.3000000007448,enc_trial,1.0,12.0,s_a_19_1,student_art,fold-b-single,ballet shoes,4.0,unique,,single,s_a_19_1.jpg,art,student-b1,STEM students,Fine Arts students,sub-78,1.0,,1.0,,0.5006944444444444 0.5006944444444444 0.5006944444444444 0.5006944444444444 0.5006944444444444 0.5 0.5 0.5 0.5 0.4993055555555556 0.4986111111111111 0.4979166666666667 0.4965277777777778 0.4958333333333334 0.4944444444444445 0.49375 0.49375 0.49375 0.4958333333333334 0.4993055555555556 0.5152777777777777 0.5479166666666667 0.5916666666666667 0.6395833333333333 0.6770833333333334 0.7076388888888889 0.7319444444444444 0.7548611111111111 0.7791666666666667 0.7979166666666667 0.8111111111111111 0.8131944444444444 0.8145833333333333 0.8159722222222222 0.8166666666666667 0.8180555555555555 0.8229166666666666 0.8305555555555556 0.8409722222222222 0.8479166666666667 0.8493055555555555 0.8479166666666667,0.8296296296296296 0.8296296296296296 0.8296296296296296 0.8296296296296296 0.8296296296296296 0.8296296296296296 0.8305555555555555 0.8305555555555555 0.8314814814814815 0.8324074074074074 0.8333333333333334 0.8342592592592593 0.8351851851851853 0.8361111111111111 0.8361111111111111 0.837037037037037 0.837037037037037 0.8361111111111111 0.8342592592592593 0.8314814814814815 0.8148148148148149 0.7694444444444444 0.6870370370370371 0.5666666666666667 0.4444444444444444 0.3055555555555556 0.2 0.13611111111111107 0.11296296296296293 0.0981481481481481 0.0907407407407408 0.08981481481481479 0.08796296296296291 0.08611111111111114 0.08703703703703702 0.09351851851851856 0.10092592592592596 0.10833333333333328 0.1148148148148148 0.11759259259259258 0.11851851851851848 0.11759259259259258,291.6000000000058 311.6000000000058 331.6000000000058 351.6000000000058 371.6000000000058 391.6000000000058 411.6000000000058 431.6000000000058 451.6000000000058 471.6000000000058 491.6000000000058 511.6000000000058 531.6000000000058 551.6000000000058 571.6000000000057 591.6000000000057 611.6000000000057 631.6000000000057 651.6000000000057 671.6000000000057 691.6000000000058 711.6000000000058 731.6000000000058 751.6000000000058 771.6000000000058 791.6000000000058 811.6000000000058 831.6000000000058 851.6000000000058 871.6000000000058 891.6000000000058 911.6000000000058 931.6000000000058 951.6000000000058 971.6000000000058 991.6000000000058 1011.6000000000058 1031.6000000000058 1051.6000000000058 1071.6000000000058 1091.6000000000058 1111.6000000000058
cb_04,13.0,enc_trial,stim,response,Fine Arts students,1196.0,enc_trial,1.0,13.0,s_sh_11_1,student_shared,fold-b,pencil case,4.0,competing,close,paired,s_sh_11_1.jpg,,student-b1,STEM students,Fine Arts students,sub-78,1.0,1.0,1.0,1.0,0.4951388888888889 0.4951388888888889 0.4951388888888889 0.4951388888888889 0.4944444444444445 0.4944444444444445 0.49375 0.4930555555555556 0.4923611111111112 0.4909722222222222 0.4902777777777778 0.4895833333333333 0.4895833333333333 0.4895833333333333 0.4895833333333333 0.4895833333333333 0.4895833333333333 0.4895833333333333 0.4888888888888889 0.4888888888888889 0.4868055555555556 0.4819444444444445 0.4743055555555555 0.4659722222222222 0.4597222222222222 0.4576388888888889 0.4583333333333333 0.4631944444444445 0.4784722222222222 0.5020833333333333 0.5375 0.5729166666666666 0.6125 0.6590277777777778 0.7048611111111112 0.7555555555555555 0.7895833333333333 0.8194444444444444 0.8465277777777778 0.86875 0.8875 0.8930555555555556 0.8930555555555556 0.89375 0.89375 0.89375 0.8930555555555556 0.8930555555555556,0.8324074074074074 0.8324074074074074 0.8324074074074074 0.8324074074074074 0.8324074074074074 0.8324074074074074 0.8324074074074074 0.8324074074074074 0.8333333333333334 0.8333333333333334 0.8342592592592593 0.8351851851851853 0.8351851851851853 0.8351851851851853 0.8351851851851853 0.8351851851851853 0.8351851851851853 0.8351851851851853 0.8351851851851853 0.8324074074074074 0.825925925925926 0.812962962962963 0.7962962962962963 0.7740740740740741 0.749074074074074 0.7064814814814815 0.6657407407407407 0.6092592592592593 0.5462962962962963 0.4888888888888889 0.4222222222222223 0.37222222222222223 0.33333333333333337 0.3018518518518518 0.275 0.24629629629629635 0.2296296296296297 0.21666666666666667 0.20370370370370366 0.19259259259259254 0.18611111111111112 0.18425925925925926 0.18333333333333326 0.18333333333333326 0.1805555555555556 0.17592592592592593 0.1703703703703704 0.16666666666666666,188.8000000000029 208.8000000000029 228.8000000000029 248.8000000000029 268.8000000000029 288.80000000000285 308.80000000000285 328.80000000000285 348.8000000000029 368.8000000000029 388.8000000000029 408.8000000000029 428.8000000000029 448.8000000000029 468.8000000000029 488.8000000000029 508.8000000000029 528.8000000000029 548.8000000000029 568.8000000000029 588.8000000000029 608.8000000000029 628.8000000000029 648.8000000000029 668.8000000000029 688.8000000000029 708.8000000000029 728.8000000000029 748.8000000000029 768.8000000000029 788.8000000000029 808.8000000000029 828.8000000000029 848.8000000000029 868.8000000000029 888.8000000000029 908.8000000000028 928.8000000000028 948.8000000000028 968.8000000000028 988.8000000000028 1008.8000000000028 1028.8000000000031 1048.8000000000031 1068.8000000000031 1088.8000000000031 1108.8000000000031 1128.8000000000031
cb_04,14.0,enc_trial,stim,response,STEM students,1102.6000000000058,enc_trial,1.0,14.0,s_sh_24_1,student_shared,fold-b,desk organizer,4.0,competing,close,paired,s_sh_24_1.jpg,,student-b1,STEM students,Fine Arts students,sub-78,1.0,1.0,0.0,1.0,0.4993055555555556 0.4993055555555556 0.4993055555555556 0.4993055555555556 0.4993055555555556 0.4993055555555556 0.4993055555555556 0.4993055555555556 0.4986111111111111 0.4986111111111111 0.4986111111111111 0.4979166666666667 0.4979166666666667 0.4972222222222222 0.4965277777777778 0.4951388888888889 0.4930555555555556 0.4875 0.4784722222222222 0.4645833333333334 0.4520833333333333 0.44583333333333336 0.44375 0.4430555555555555 0.44027777777777777 0.4326388888888889 0.4201388888888889 0.4048611111111111 0.3895833333333333 0.37777777777777777 0.3659722222222222 0.35694444444444445 0.3486111111111111 0.3416666666666667 0.3326388888888889 0.3201388888888889 0.3055555555555556 0.2861111111111111 0.2652777777777778 0.24444444444444444 0.22291666666666668 0.20625 0.18958333333333333 0.17569444444444446 0.16458333333333333 0.15763888888888888 0.15555555555555556,0.8314814814814815 0.8314814814814815 0.8314814814814815 0.8314814814814815 0.8314814814814815 0.8314814814814815 0.8324074074074074 0.8324074074074074 0.8333333333333334 0.8342592592592593 0.8342592592592593 0.8342592592592593 0.8342592592592593 0.8342592592592593 0.8324074074074074 0.825 0.8092592592592592 0.7787037037037037 0.7342592592592593 0.6796296296296296 0.624074074074074 0.587962962962963 0.5685185185185185 0.5546296296296296 0.5398148148148147 0.5148148148148148 0.4842592592592593 0.4490740740740741 0.4166666666666666 0.3907407407407407 0.3666666666666667 0.3490740740740741 0.3324074074074074 0.3194444444444444 0.3055555555555556 0.28796296296296303 0.2685185185185185 0.2444444444444445 0.2222222222222222 0.20185185185185184 0.18425925925925926 0.17500000000000004 0.1685185185185185 0.16481481481481486 0.16296296296296298 0.1611111111111111 0.1611111111111111,141.70000000001158 161.70000000001158 181.70000000001158 201.70000000001158 221.70000000001158 241.70000000001158 261.7000000000116 281.70000000001164 301.70000000001164 321.70000000001164 341.70000000001164 361.7000000000116 381.7000000000116 401.7000000000116 421.7000000000116 441.7000000000116 461.7000000000116 481.7000000000116 501.7000000000116 521.7000000000116 541.7000000000116 561.7000000000116 581.7000000000116 601.7000000000116 621.7000000000116 641.7000000000116 661.7000000000116 681.7000000000116 701.7000000000116 721.7000000000116 741.7000000000116 761.7000000000116 781.7000000000116 801.7000000000116 821.7000000000116 841.7000000000116 861.7000000000116 881.7000000000116 901.7000000000116 921.7000000000116 941.7000000000116 961.7000000000116 981.7000000000116 1001.7000000000116 1021.7000000000116 1041.7000000000116 1061.7000000000116
cb_04,15.0,enc_trial,stim,response,STEM students,1190.7999999992608,enc_trial,1.0,15.0,s_s_17_1,student_stem,fold-e,ring stand,4.0,unique,far,paired,s_s_17_1.jpg,stem,student-b1,STEM students,Fine Arts students,sub-78,1.0,1.0,1.0,1.0,0.4993055555555556 0.4993055555555556 0.4993055555555556 0.4993055555555556 0.4993055555555556 0.4993055555555556 0.4993055555555556 0.4993055555555556 0.4993055555555556 0.4993055555555556 0.4993055555555556 0.4993055555555556 0.4993055555555556 0.4993055555555556 0.4993055555555556 0.4993055555555556 0.4993055555555556 0.4993055555555556 0.4993055555555556 0.4993055555555556 0.4993055555555556 0.4993055555555556 0.4993055555555556 0.4993055555555556 0.4993055555555556 0.4993055555555556 0.5 0.5 0.5006944444444444 0.5027777777777778 0.5097222222222222 0.5173611111111112 0.5243055555555556 0.5236111111111111 0.5111111111111111 0.4833333333333333 0.44027777777777777 0.375 0.3138888888888889 0.2611111111111111 0.2215277777777777 0.19375 0.17083333333333334 0.1527777777777778 0.13819444444444445 0.12777777777777774 0.12569444444444444 0.12291666666666665 0.11666666666666667 0.10972222222222222 0.10625,0.8333333333333334 0.8324074074074074 0.8314814814814815 0.8314814814814815 0.8314814814814815 0.8305555555555555 0.8305555555555555 0.8305555555555555 0.8305555555555555 0.8305555555555555 0.8305555555555555 0.8305555555555555 0.8305555555555555 0.8305555555555555 0.8305555555555555 0.8305555555555555 0.8305555555555555 0.8305555555555555 0.8305555555555555 0.8305555555555555 0.8305555555555555 0.8305555555555555 0.8305555555555555 0.8305555555555555 0.8296296296296296 0.8287037037037037 0.8277777777777777 0.825925925925926 0.825 0.8231481481481482 0.812962962962963 0.7935185185185185 0.7620370370370371 0.7259259259259259 0.6796296296296296 0.6083333333333334 0.5212962962962964 0.4138888888888889 0.3287037037037037 0.2685185185185185 0.2342592592592593 0.2129629629629629 0.1944444444444444 0.18518518518518529 0.18333333333333326 0.18611111111111112 0.18888888888888888 0.18703703703703692 0.17962962962962958 0.17314814814814816 0.1694444444444444,141.60000000000582 161.60000000000582 181.60000000000585 201.60000000000585 221.60000000000585 241.60000000000585 261.6000000000058 281.6000000000058 301.6000000000058 321.6000000000058 341.6000000000058 361.6000000000058 381.6000000000058 401.6000000000058 421.6000000000058 441.6000000000058 461.6000000000058 481.6000000000058 501.6000000000058 521.6000000000058 541.6000000000058 561.6000000000058 581.6000000000057 601.6000000000057 621.6000000000057 641.6000000000057 661.6000000000057 681.6000000000057 701.6000000000058 721.6000000000058 741.6000000000058 761.6000000000058 781.6000000000058 801.6000000000058 821.6000000000058 841.6000000000058 861.6000000000058 881.6000000000058 901.6000000000058 921.6000000000058 941.6000000000058 961.6000000000058 981.6000000000058 1001.6000000000058 1021.6000000000058 1041.6000000000058 1061.6000000000058 1081.6000000000058 1101.6000000000058 1121.6000000000058 1141.6000000000058
cb_04,16.0,enc_trial,stim,response,Fine Arts students,1787.100000000748,enc_trial,1.0,16.0,s_sh_23_2,student_shared,fold-a,ballpoint pen,4.0,competing,far,paired,s_sh_23_2.jpg,,student-b1,STEM students,Fine Arts students,sub-78,1.0,1.0,1.0,0.0,0.5083333333333333 0.5083333333333333 0.5083333333333333 0.5083333333333333 0.5083333333333333 0.5083333333333333 0.5083333333333333 0.5083333333333333 0.5083333333333333 0.5083333333333333 0.5083333333333333 0.5083333333333333 0.5083333333333333 0.5152777777777777 0.5347222222222222 0.5701388888888889 0.6048611111111111 0.6451388888888889 0.6840277777777778 0.7229166666666667 0.7666666666666667 0.8 0.8298611111111112 0.8486111111111111 0.8569444444444444 0.8611111111111112 0.8638888888888889 0.8645833333333334 0.8645833333333334 0.8638888888888889 0.8631944444444445 0.8631944444444445 0.8631944444444445 0.8631944444444445 0.8631944444444445 0.8631944444444445 0.8631944444444445 0.8638888888888889 0.8638888888888889 0.8645833333333334 0.8652777777777778 0.8652777777777778 0.8652777777777778 0.8652777777777778 0.8659722222222223 0.8659722222222223 0.8659722222222223 0.8659722222222223 0.8659722222222223 0.8659722222222223 0.8659722222222223 0.8666666666666667 0.8666666666666667 0.8666666666666667 0.8666666666666667 0.8666666666666667 0.8666666666666667 0.8666666666666667 0.8666666666666667 0.8666666666666667 0.8666666666666667 0.8666666666666667 0.8666666666666667 0.8666666666666667 0.8666666666666667 0.8666666666666667 0.8666666666666667 0.8666666666666667 0.8666666666666667 0.8666666666666667 0.8666666666666667 0.8666666666666667 0.8673611111111111,0.8333333333333334 0.8324074074074074 0.8324074074074074 0.8324074074074074 0.8324074074074074 0.8324074074074074 0.8324074074074074 0.8324074074074074 0.8324074074074074 0.8324074074074074 0.8324074074074074 0.8324074074074074 0.8305555555555555 0.825925925925926 0.8092592592592592 0.7666666666666666 0.7027777777777777 0.6018518518518519 0.4935185185185185 0.3888888888888888 0.3027777777777778 0.2601851851851852 0.2351851851851852 0.22129629629629632 0.2138888888888889 0.2083333333333333 0.2046296296296296 0.20370370370370366 0.20370370370370366 0.20370370370370366 0.20370370370370366 0.20370370370370366 0.20370370370370366 0.20370370370370366 0.20370370370370366 0.20370370370370366 0.20370370370370366 0.20277777777777767 0.20185185185185184 0.2 0.19814814814814816 0.1953703703703704 0.19259259259259254 0.19166666666666665 0.1907407407407408 0.1898148148148148 0.1898148148148148 0.1898148148148148 0.1898148148148148 0.1898148148148148 0.18888888888888888 0.18796296296296305 0.18796296296296305 0.18796296296296305 0.18796296296296305 0.18796296296296305 0.18796296296296305 0.18796296296296305 0.18796296296296305 0.18796296296296305 0.18796296296296305 0.18796296296296305 0.18796296296296305 0.18796296296296305 0.18796296296296305 0.18796296296296305 0.18796296296296305 0.18796296296296305 0.18796296296296305 0.18796296296296305 0.18796296296296305 0.18796296296296305 0.18796296296296305,263.90000000000873 283.90000000000873 303.90000000000873 323.90000000000873 343.9000000000088 363.9000000000088 383.9000000000088 403.9000000000088 423.9000000000088 443.9000000000088 463.9000000000088 483.9000000000088 503.9000000000088 523.9000000000087 543.9000000000087 563.9000000000087 583.9000000000087 603.9000000000087 623.9000000000087 643.9000000000087 663.9000000000087 683.9000000000087 703.9000000000087 723.9000000000087 743.9000000000087 763.9000000000087 783.9000000000087 803.9000000000087 823.9000000000087 843.9000000000087 863.9000000000087 883.9000000000087 903.9000000000087 923.9000000000087 943.9000000000087 963.9000000000087 983.9000000000087 1003.9000000000087 1023.9000000000087 1043.9000000000087 1063.9000000000087 1083.9000000000087 1103.9000000000087 1123.9000000000087 1143.9000000000087 1163.9000000000087 1183.9000000000087 1203.9000000000087 1223.9000000000087 1243.9000000000087 1263.9000000000087 1283.9000000000087 1303.9000000000087 1323.9000000000087 1343.9000000000087 1363.9000000000087 1383.900000000009 1403.900000000009 1423.900000000009 1443.900000000009 1463.900000000009 1483.900000000009 1503.900000000009 1523.900000000009 1543.900000000009 1563.900000000009 1583.900000000009 1603.900000000009 1623.900000000009 1643.900000000009 1663.900000000009 1683.900000000009 1703.900000000009
cb_04,17.0,enc_trial,stim,response,STEM students,1353.5000000014845,enc_trial,1.0,17.0,s_sh_11_2,student_shared,fold-b,pencil case,4.0,competing,close,paired,s_sh_11_2.jpg,,student-b1,STEM students,Fine Arts students,sub-78,1.0,1.0,1.0,1.0,0.5256944444444445 0.5256944444444445 0.5256944444444445 0.5256944444444445 0.525 0.5243055555555556 0.5236111111111111 0.5229166666666667 0.5222222222222223 0.5222222222222223 0.5222222222222223 0.5222222222222223 0.5222222222222223 0.5222222222222223 0.5222222222222223 0.5222222222222223 0.5222222222222223 0.5222222222222223 0.5222222222222223 0.5222222222222223 0.5222222222222223 0.5222222222222223 0.5222222222222223 0.5222222222222223 0.5222222222222223 0.5215277777777778 0.5208333333333334 0.5166666666666667 0.5097222222222222 0.4923611111111112 0.4520833333333333 0.3881944444444445 0.33402777777777776 0.28680555555555554 0.24375 0.20902777777777776 0.1868055555555556 0.17708333333333334 0.17152777777777778 0.16805555555555554 0.16666666666666666 0.1673611111111111 0.16875 0.16944444444444445 0.16944444444444445 0.16944444444444445 0.16597222222222222 0.16319444444444445 0.1625 0.1625 0.1625 0.1625 0.16180555555555556 0.16041666666666668 0.16041666666666668 0.16041666666666668 0.16041666666666668 0.16041666666666668 0.16041666666666668 0.16041666666666668 0.16041666666666668 0.16041666666666668,0.8342592592592593 0.8342592592592593 0.8342592592592593 0.8342592592592593 0.8342592592592593 0.8342592592592593 0.8351851851851853 0.8361111111111111 0.8361111111111111 0.837037037037037 0.8388888888888889 0.8407407407407408 0.8425925925925926 0.8453703703703703 0.8481481481481481 0.8518518518518519 0.8546296296296296 0.8564814814814815 0.8574074074074074 0.8592592592592593 0.8601851851851852 0.8611111111111112 0.8629629629629629 0.8638888888888889 0.8638888888888889 0.8648148148148148 0.8638888888888889 0.8583333333333334 0.8398148148148148 0.7962962962962963 0.7166666666666667 0.6037037037037036 0.5037037037037038 0.4194444444444444 0.35462962962962963 0.3083333333333333 0.27407407407407397 0.25555555555555554 0.2444444444444445 0.2351851851851852 0.225 0.2138888888888889 0.20925925925925928 0.2083333333333333 0.20740740740740726 0.2046296296296296 0.2 0.1962962962962963 0.1944444444444444 0.1944444444444444 0.1944444444444444 0.1944444444444444 0.1944444444444444 0.19259259259259254 0.19259259259259254 0.19259259259259254 0.19259259259259254 0.19259259259259254 0.19259259259259254 0.19166666666666665 0.19166666666666665 0.1907407407407408,134.89999999999418 154.89999999999418 174.8999999999942 194.89999999999415 214.89999999999415 234.89999999999415 254.89999999999415 274.8999999999942 294.8999999999942 314.8999999999942 334.8999999999942 354.8999999999942 374.8999999999942 394.8999999999942 414.8999999999942 434.8999999999942 454.8999999999942 474.8999999999942 494.8999999999942 514.8999999999942 534.8999999999942 554.8999999999942 574.8999999999943 594.8999999999943 614.8999999999943 634.8999999999943 654.8999999999943 674.8999999999943 694.8999999999942 714.8999999999942 734.8999999999942 754.8999999999942 774.8999999999942 794.8999999999942 814.8999999999942 834.8999999999942 854.8999999999942 874.8999999999942 894.8999999999942 914.8999999999942 934.8999999999942 954.8999999999942 974.8999999999942 994.8999999999942 1014.8999999999942 1034.8999999999942 1054.8999999999942 1074.8999999999942 1094.8999999999942 1114.8999999999942 1134.8999999999942 1154.8999999999942 1174.8999999999942 1194.8999999999942 1214.8999999999942 1234.8999999999942 1254.8999999999942 1274.8999999999942 1294.8999999999942 1314.8999999999942 1334.8999999999942 1354.8999999999942
cb_04,18.0,enc_trial,stim,response,Fine Arts students,1309.6000000000058,enc_trial,1.0,18.0,s_a_09_1,student_art,fold-e,picture frame,4.0,unique,far,paired,s_a_09_1.jpg,art,student-b1,STEM students,Fine Arts students,sub-78,1.0,1.0,1.0,1.0,0.4958333333333334 0.4958333333333334 0.4958333333333334 0.4951388888888889 0.4951388888888889 0.4951388888888889 0.4951388888888889 0.4951388888888889 0.4951388888888889 0.4951388888888889 0.4944444444444445 0.49375 0.49375 0.4930555555555556 0.4923611111111112 0.4902777777777778 0.4875 0.4819444444444445 0.4743055555555555 0.4631944444444445 0.4527777777777778 0.4569444444444444 0.4791666666666667 0.5145833333333333 0.5576388888888889 0.6159722222222223 0.6611111111111111 0.7 0.73125 0.7506944444444444 0.7694444444444445 0.7833333333333333 0.7944444444444444 0.8020833333333334 0.8076388888888889 0.8138888888888889 0.8201388888888889 0.8298611111111112 0.8416666666666667 0.8534722222222222 0.8645833333333334 0.8701388888888889 0.8715277777777778 0.8736111111111111 0.875 0.875 0.875 0.8743055555555556 0.8756944444444444 0.8763888888888889 0.8770833333333333,0.8314814814814815 0.8314814814814815 0.8314814814814815 0.8314814814814815 0.8314814814814815 0.8305555555555555 0.8305555555555555 0.8305555555555555 0.8305555555555555 0.8305555555555555 0.8305555555555555 0.8305555555555555 0.8305555555555555 0.8314814814814815 0.8314814814814815 0.8296296296296296 0.8231481481481482 0.8064814814814815 0.7712962962962963 0.7157407407407408 0.6342592592592593 0.5685185185185185 0.5037037037037038 0.4398148148148148 0.3861111111111111 0.3324074074074074 0.2935185185185185 0.25648148148148153 0.21944444444444444 0.1898148148148148 0.16296296296296298 0.15000000000000002 0.14166666666666672 0.13703703703703707 0.1351851851851852 0.1342592592592593 0.1342592592592593 0.1351851851851852 0.13611111111111107 0.13611111111111107 0.13611111111111107 0.13611111111111107 0.1351851851851852 0.1342592592592593 0.13240740740740742 0.13240740740740742 0.13240740740740742 0.1333333333333333 0.1333333333333333 0.1333333333333333 0.1333333333333333,280.40000000000873 300.40000000000873 320.40000000000873 340.40000000000873 360.4000000000088 380.4000000000088 400.4000000000088 420.4000000000088 440.4000000000088 460.4000000000088 480.4000000000088 500.4000000000088 520.4000000000087 540.4000000000087 560.4000000000087 580.4000000000087 600.4000000000087 620.4000000000087 640.4000000000087 660.4000000000087 680.4000000000087 700.4000000000087 720.4000000000087 740.4000000000087 760.4000000000087 780.4000000000087 800.4000000000087 820.4000000000087 840.4000000000087 860.4000000000087 880.4000000000087 900.4000000000087 920.4000000000087 940.4000000000087 960.4000000000087 980.4000000000087 1000.4000000000087 1020.4000000000087 1040.4000000000087 1060.4000000000087 1080.4000000000087 1100.4000000000087 1120.4000000000087 1140.4000000000087 1160.4000000000087 1180.4000000000087 1200.4000000000087 1220.4000000000087 1240.4000000000087 1260.4000000000087 1280.4000000000087
cb_04,19.0,enc_trial,stim,response,Fine Arts students,1145.6999999992552,enc_trial,1.0,19.0,s_a_20_1,student_art,fold-a,pin cushion,4.0,unique,close,paired,s_a_20_1.jpg,art,student-b1,STEM students,Fine Arts students,sub-78,1.0,1.0,1.0,1.0,0.4916666666666666 0.4916666666666666 0.4902777777777778 0.4895833333333333 0.4895833333333333 0.4895833333333333 0.4888888888888889 0.4888888888888889 0.4888888888888889 0.4888888888888889 0.4888888888888889 0.4888888888888889 0.4888888888888889 0.4881944444444444 0.4875 0.4868055555555556 0.4868055555555556 0.4868055555555556 0.4868055555555556 0.4868055555555556 0.4868055555555556 0.4868055555555556 0.4868055555555556 0.4868055555555556 0.4868055555555556 0.4875 0.4875 0.4875 0.4875 0.4875 0.4875 0.4881944444444444 0.4888888888888889 0.4902777777777778 0.4916666666666666 0.49375 0.4986111111111111 0.5125 0.5354166666666667 0.5645833333333333 0.6027777777777777 0.6333333333333333 0.6659722222222222 0.6979166666666666 0.7298611111111111 0.7569444444444444 0.7840277777777778 0.80625 0.825 0.8430555555555556 0.8569444444444444 0.8659722222222223 0.86875 0.8694444444444445 0.8694444444444445 0.8694444444444445 0.8708333333333333,0.8018518518518518 0.8018518518518518 0.8009259259259259 0.8009259259259259 0.8009259259259259 0.8 0.8 0.8 0.799074074074074 0.799074074074074 0.799074074074074 0.799074074074074 0.799074074074074 0.799074074074074 0.799074074074074 0.799074074074074 0.799074074074074 0.799074074074074 0.799074074074074 0.799074074074074 0.8 0.8009259259259259 0.8018518518518518 0.8037037037037037 0.8046296296296296 0.8064814814814815 0.8064814814814815 0.8064814814814815 0.8064814814814815 0.8064814814814815 0.8037037037037037 0.8009259259259259 0.7981481481481482 0.7962962962962963 0.7935185185185185 0.7916666666666666 0.787037037037037 0.7740740740740741 0.7472222222222222 0.6962962962962963 0.6083333333333334 0.5277777777777778 0.4472222222222222 0.375 0.3055555555555556 0.25648148148148153 0.21759259259259256 0.1953703703703704 0.1805555555555556 0.16759259259259265 0.15833333333333333 0.15370370370370368 0.15370370370370368 0.15370370370370368 0.15370370370370368 0.1527777777777778 0.15000000000000002,8.30000000000291 28.30000000000291 48.30000000000291 68.30000000000291 88.3000000000029 108.30000000000292 128.3000000000029 148.3000000000029 168.3000000000029 188.3000000000029 208.3000000000029 228.3000000000029 248.3000000000029 268.3000000000029 288.30000000000285 308.30000000000285 328.30000000000285 348.3000000000029 368.3000000000029 388.3000000000029 408.3000000000029 428.3000000000029 448.3000000000029 468.3000000000029 488.3000000000029 508.3000000000029 528.3000000000029 548.3000000000029 568.3000000000029 588.3000000000029 608.3000000000029 628.3000000000029 648.3000000000029 668.3000000000029 688.3000000000029 708.3000000000029 728.3000000000029 748.3000000000029 768.3000000000029 788.3000000000029 808.3000000000029 828.3000000000029 848.3000000000029 868.3000000000029 888.3000000000029 908.3000000000028 928.3000000000028 948.3000000000028 968.3000000000028 988.3000000000028 1008.3000000000028 1028.3000000000031 1048.3000000000031 1068.3000000000031 1088.3000000000031 1108.3000000000031 1128.3000000000031
cb_04,20.0,enc_trial,stim,response,STEM students,1166.200000001496,enc_trial,1.0,20.0,s_sh_19_1,student_shared,fold-a,portable plastic drawer,4.0,competing,far,paired,s_sh_19_1.jpg,,student-b1,STEM students,Fine Arts students,sub-78,1.0,1.0,1.0,1.0,0.5027777777777778 0.5041666666666667 0.5055555555555555 0.5069444444444444 0.5076388888888889 0.5083333333333333 0.5083333333333333 0.5083333333333333 0.5083333333333333 0.5083333333333333 0.5083333333333333 0.5083333333333333 0.5083333333333333 0.5083333333333333 0.5083333333333333 0.5083333333333333 0.5083333333333333 0.5083333333333333 0.5083333333333333 0.5083333333333333 0.5083333333333333 0.5083333333333333 0.5083333333333333 0.5083333333333333 0.5083333333333333 0.5083333333333333 0.5083333333333333 0.5055555555555555 0.4986111111111111 0.4756944444444444 0.4291666666666665 0.3868055555555556 0.35347222222222224 0.3173611111111111 0.2833333333333333 0.25625 0.23680555555555555 0.22013888888888888 0.2069444444444445 0.1951388888888889 0.1840277777777778 0.1763888888888889 0.16805555555555554 0.1597222222222222 0.15486111111111112 0.15208333333333332 0.15208333333333332 0.15208333333333332 0.15208333333333332 0.15208333333333332 0.15208333333333332 0.15208333333333332 0.15208333333333332 0.15208333333333332 0.15208333333333332 0.1527777777777778 0.15347222222222226 0.15416666666666667,0.812037037037037 0.8046296296296296 0.7972222222222223 0.7916666666666666 0.787962962962963 0.7861111111111111 0.7842592592592592 0.7833333333333333 0.7824074074074074 0.7814814814814814 0.7805555555555556 0.7796296296296297 0.7787037037037037 0.7787037037037037 0.7777777777777778 0.7768518518518519 0.775 0.7740740740740741 0.7740740740740741 0.7731481481481481 0.7731481481481481 0.7731481481481481 0.7722222222222223 0.7712962962962963 0.7703703703703704 0.7694444444444444 0.7666666666666666 0.7592592592592593 0.7296296296296296 0.6527777777777778 0.5166666666666666 0.40648148148148144 0.3342592592592593 0.2851851851851852 0.2490740740740741 0.2296296296296297 0.2231481481481481 0.21944444444444444 0.21666666666666667 0.20925925925925928 0.20277777777777767 0.2 0.1962962962962963 0.18888888888888888 0.18611111111111112 0.18333333333333326 0.18333333333333326 0.18333333333333326 0.18333333333333326 0.18333333333333326 0.18333333333333326 0.18333333333333326 0.18333333333333326 0.18333333333333326 0.18425925925925926 0.18611111111111112 0.18796296296296305 0.18888888888888888,0.0 20.0 40.0 60.0 80.0 100.0 120.0 140.0 160.0 180.0 200.0 220.0 240.0 260.0 280.0 300.0 320.0 340.0 360.0 380.0 400.0 420.0 440.0 460.0 480.0 500.0 520.0 540.0 560.0 580.0 600.0 620.0 640.0 660.0 680.0 700.0 720.0 740.0 760.0 780.0 800.0 820.0 840.0 860.0 880.0 900.0 920.0 940.0 960.0 980.0 1000.0 1020.0 1040.0 1060.0 1080.0 1100.0 1120.0 1140.0
cb_04,21.0,enc_trial,stim,response,Fine Arts students,1043.3999999992666,enc_trial,1.0,21.0,s_sh_24_2,student_shared,fold-b,desk organizer,4.0,competing,close,paired,s_sh_24_2.jpg,,student-b1,STEM students,Fine Arts students,sub-78,1.0,1.0,0.0,1.0,0.5027777777777778 0.5027777777777778 0.5027777777777778 0.5027777777777778 0.5027777777777778 0.5027777777777778 0.5027777777777778 0.5027777777777778 0.5027777777777778 0.5020833333333333 0.5013888888888889 0.5 0.4993055555555556 0.4986111111111111 0.4979166666666667 0.4972222222222222 0.4958333333333334 0.4944444444444445 0.4916666666666666 0.4888888888888889 0.4861111111111111 0.4854166666666666 0.4854166666666666 0.4854166666666666 0.4847222222222222 0.4847222222222222 0.4847222222222222 0.4861111111111111 0.4916666666666666 0.5027777777777778 0.5256944444444445 0.5520833333333334 0.5840277777777778 0.6173611111111111 0.6520833333333333 0.6868055555555556 0.7201388888888889 0.7506944444444444 0.7736111111111111 0.7888888888888889 0.8041666666666667 0.8152777777777778 0.8229166666666666 0.8277777777777777 0.8319444444444445 0.8361111111111111 0.8395833333333333 0.8416666666666667 0.8430555555555556 0.84375 0.8444444444444444,0.8351851851851853 0.8342592592592593 0.8333333333333334 0.8333333333333334 0.8333333333333334 0.8333333333333334 0.8333333333333334 0.8333333333333334 0.8333333333333334 0.8333333333333334 0.8342592592592593 0.8342592592592593 0.8342592592592593 0.8342592592592593 0.8351851851851853 0.8351851851851853 0.837037037037037 0.8388888888888889 0.8407407407407408 0.8435185185185186 0.8444444444444444 0.8453703703703703 0.8453703703703703 0.8444444444444444 0.8407407407407408 0.837962962962963 0.837037037037037 0.8342592592592593 0.8296296296296296 0.8194444444444444 0.7925925925925926 0.7333333333333334 0.6416666666666666 0.5351851851851852 0.4342592592592592 0.3453703703703703 0.275 0.21851851851851856 0.1805555555555556 0.15462962962962967 0.13240740740740742 0.12222222222222225 0.11851851851851848 0.11759259259259258 0.11944444444444445 0.12222222222222225 0.12592592592592589 0.12962962962962965 0.13148148148148153 0.13240740740740742 0.13240740740740742,30.60000000000582 50.60000000000582 70.6000000000058 90.60000000000582 110.60000000000582 130.60000000000582 150.60000000000582 170.60000000000582 190.60000000000585 210.60000000000585 230.60000000000585 250.60000000000585 270.6000000000058 290.6000000000058 310.6000000000058 330.6000000000058 350.6000000000058 370.6000000000058 390.6000000000058 410.6000000000058 430.6000000000058 450.6000000000058 470.6000000000058 490.6000000000058 510.6000000000058 530.6000000000058 550.6000000000058 570.6000000000057 590.6000000000057 610.6000000000057 630.6000000000057 650.6000000000057 670.6000000000057 690.6000000000058 710.6000000000058 730.6000000000058 750.6000000000058 770.6000000000058 790.6000000000058 810.6000000000058 830.6000000000058 850.6000000000058 870.6000000000058 890.6000000000058 910.6000000000058 930.6000000000058 950.6000000000058 970.6000000000058 990.6000000000058 1010.6000000000058 1030.6000000000058
cb_04,22.0,enc_trial,stim,response,STEM students,1413.9000000000233,enc_trial,1.0,22.0,s_sh_16_2,student_shared,fold-a,stapler,4.0,competing,far,paired,s_sh_16_2.jpg,,student-b1,STEM students,Fine Arts students,sub-78,1.0,1.0,0.0,1.0,0.5041666666666667 0.5020833333333333 0.5013888888888889 0.5 0.4986111111111111 0.4979166666666667 0.4979166666666667 0.4986111111111111 0.4986111111111111 0.4986111111111111 0.4986111111111111 0.4986111111111111 0.4986111111111111 0.4986111111111111 0.4986111111111111 0.4986111111111111 0.4979166666666667 0.4965277777777778 0.4958333333333334 0.4944444444444445 0.49375 0.4930555555555556 0.4930555555555556 0.4930555555555556 0.4930555555555556 0.4923611111111112 0.4909722222222222 0.4909722222222222 0.4895833333333333 0.4895833333333333 0.4888888888888889 0.4888888888888889 0.4888888888888889 0.4888888888888889 0.4888888888888889 0.4888888888888889 0.4875 0.4840277777777778 0.4784722222222222 0.4729166666666666 0.4680555555555556 0.4659722222222222 0.4652777777777778 0.4631944444444445 0.4597222222222222 0.4506944444444445 0.4381944444444445 0.4166666666666667 0.3875 0.3576388888888889 0.3270833333333333 0.30416666666666664 0.2847222222222222 0.26805555555555555 0.2534722222222222 0.2375 0.225 0.21319444444444444 0.1993055555555556 0.18611111111111112 0.17083333333333334 0.15763888888888888 0.14722222222222225 0.14027777777777778 0.13541666666666666 0.13402777777777775,0.8203703703703704 0.8212962962962963 0.8212962962962963 0.8222222222222222 0.8222222222222222 0.8231481481481482 0.8231481481481482 0.8231481481481482 0.8231481481481482 0.8231481481481482 0.8231481481481482 0.8231481481481482 0.8231481481481482 0.8222222222222222 0.8212962962962963 0.8212962962962963 0.8212962962962963 0.8212962962962963 0.8222222222222222 0.8222222222222222 0.8231481481481482 0.8231481481481482 0.8240740740740741 0.8240740740740741 0.8240740740740741 0.825 0.825 0.825925925925926 0.825925925925926 0.8268518518518518 0.8268518518518518 0.8268518518518518 0.8268518518518518 0.8268518518518518 0.825925925925926 0.8175925925925926 0.8037037037037037 0.7787037037037037 0.7416666666666667 0.7018518518518518 0.6574074074074074 0.6222222222222222 0.5944444444444444 0.5611111111111111 0.5259259259259259 0.4777777777777778 0.4305555555555556 0.3731481481481481 0.3157407407407408 0.2657407407407407 0.225 0.2046296296296296 0.19166666666666665 0.1777777777777778 0.16759259259259265 0.1592592592592592 0.15740740740740744 0.15462962962962967 0.14814814814814814 0.1435185185185185 0.13888888888888884 0.13611111111111107 0.1342592592592593 0.1342592592592593 0.1342592592592593 0.1351851851851852,0.0 20.0 40.0 60.0 80.0 100.0 120.0 140.0 160.0 180.0 200.0 220.0 240.0 260.0 280.0 300.0 320.0 340.0 360.0 380.0 400.0 420.0 440.0 460.0 480.0 500.0 520.0 540.0 560.0 580.0 600.0 620.0 640.0 660.0 680.0 700.0 720.0 740.0 760.0 780.0 800.0 820.0 840.0 860.0 880.0 900.0 920.0 940.0 960.0 980.0 1000.0 1020.0 1040.0 1060.0 1080.0 1100.0 1120.0 1140.0 1160.0 1180.0 1200.0 1220.0 1240.0 1260.0 1280.0 1300.0
cb_04,23.0,enc_trial,stim,response,Fine Arts students,965.5000000014844,enc_trial,1.0,23.0,s_a_20_2,student_art,fold-a,pin cushion,4.0,unique,close,paired,s_a_20_2.jpg,art,student-b1,STEM students,Fine Arts students,sub-78,1.0,1.0,1.0,1.0,0.5048611111111111 0.5048611111111111 0.5048611111111111 0.5048611111111111 0.5048611111111111 0.5048611111111111 0.5048611111111111 0.5048611111111111 0.5048611111111111 0.5048611111111111 0.5048611111111111 0.5048611111111111 0.5048611111111111 0.5048611111111111 0.5048611111111111 0.5048611111111111 0.5055555555555555 0.5055555555555555 0.5055555555555555 0.50625 0.5076388888888889 0.5097222222222222 0.5131944444444444 0.5180555555555556 0.5277777777777778 0.5458333333333333 0.5652777777777778 0.5895833333333333 0.61875 0.6576388888888889 0.7076388888888889 0.7513888888888889 0.7944444444444444 0.8319444444444445 0.8638888888888889 0.8909722222222223 0.9069444444444444 0.9201388888888888 0.925 0.925 0.9222222222222224 0.9194444444444444 0.9145833333333332 0.9083333333333332 0.9048611111111112 0.9041666666666668,0.8314814814814815 0.8314814814814815 0.8314814814814815 0.8314814814814815 0.8314814814814815 0.8314814814814815 0.8314814814814815 0.8314814814814815 0.8314814814814815 0.8314814814814815 0.8314814814814815 0.8314814814814815 0.8314814814814815 0.8314814814814815 0.8314814814814815 0.8305555555555555 0.8305555555555555 0.8305555555555555 0.8296296296296296 0.8287037037037037 0.8268518518518518 0.825925925925926 0.8240740740740741 0.8212962962962963 0.8148148148148149 0.7981481481481482 0.7675925925925926 0.7175925925925926 0.6555555555555556 0.5759259259259261 0.487037037037037 0.4166666666666666 0.3472222222222222 0.2861111111111111 0.2324074074074074 0.18333333333333326 0.15000000000000002 0.12685185185185188 0.11851851851851848 0.11851851851851848 0.11851851851851848 0.11851851851851848 0.11759259259259258 0.1166666666666667 0.1166666666666667 0.1166666666666667,55.5 75.5 95.5 115.5 135.5 155.5 175.5 195.5 215.5 235.5 255.5 275.5 295.5 315.5 335.5 355.5 375.5 395.5 415.5 435.5 455.5 475.5 495.5 515.5 535.5 555.5 575.5 595.5 615.5 635.5 655.5 675.5 695.5 715.5 735.5 755.5 775.5 795.5 815.5 835.5 855.5 875.5 895.5 915.5 935.5 955.5
cb_04,24.0,enc_trial,stim,response,STEM students,1499.6000000000058,enc_trial,1.0,24.0,s_sh_07_2,student_shared,fold-a,ruler,4.0,competing,far,paired,s_sh_07_2.jpg,,student-b1,STEM students,Fine Arts students,sub-78,1.0,1.0,1.0,1.0,0.5048611111111111 0.5048611111111111 0.5048611111111111 0.5041666666666667 0.5041666666666667 0.5041666666666667 0.5041666666666667 0.5041666666666667 0.5041666666666667 0.5041666666666667 0.5041666666666667 0.5041666666666667 0.5041666666666667 0.5041666666666667 0.5041666666666667 0.5041666666666667 0.5055555555555555 0.5076388888888889 0.5104166666666666 0.5125 0.5118055555555555 0.5069444444444444 0.4965277777777778 0.4840277777777778 0.4736111111111111 0.4652777777777778 0.4618055555555556 0.4590277777777778 0.4569444444444444 0.4548611111111111 0.4520833333333333 0.4506944444444445 0.4493055555555556 0.4479166666666667 0.44722222222222224 0.44583333333333336 0.4444444444444444 0.4430555555555555 0.4409722222222222 0.4381944444444445 0.43333333333333335 0.4284722222222222 0.4243055555555556 0.4215277777777778 0.4180555555555556 0.4125 0.40347222222222223 0.3923611111111111 0.3770833333333333 0.36041666666666666 0.3416666666666667 0.3236111111111111 0.30277777777777776 0.2777777777777778 0.25277777777777777 0.2263888888888889 0.20555555555555555 0.18541666666666667 0.16458333333333333 0.15208333333333332 0.14375 0.14166666666666666 0.14097222222222222 0.14097222222222222,0.8277777777777777 0.8277777777777777 0.8277777777777777 0.8287037037037037 0.8287037037037037 0.8287037037037037 0.8287037037037037 0.8287037037037037 0.8287037037037037 0.8296296296296296 0.8296296296296296 0.8305555555555555 0.8305555555555555 0.8314814814814815 0.8314814814814815 0.8314814814814815 0.8296296296296296 0.825925925925926 0.8138888888888889 0.7953703703703704 0.7564814814814815 0.700925925925926 0.6388888888888888 0.575 0.5222222222222221 0.4694444444444445 0.43240740740740746 0.4074074074074073 0.3888888888888888 0.3796296296296297 0.375 0.3731481481481481 0.37222222222222223 0.3694444444444445 0.3666666666666667 0.36203703703703705 0.3574074074074074 0.35462962962962963 0.35092592592592603 0.3453703703703703 0.3379629629629629 0.3314814814814815 0.32592592592592595 0.3212962962962963 0.3148148148148148 0.3055555555555556 0.2935185185185185 0.2796296296296297 0.2611111111111111 0.2425925925925925 0.2231481481481481 0.20740740740740726 0.19259259259259254 0.17962962962962958 0.17129629629629628 0.16388888888888886 0.15833333333333333 0.15370370370370368 0.14814814814814814 0.14537037037037034 0.14537037037037034 0.14629629629629626 0.14814814814814814 0.14907407407407405,236.30000000001743 256.3000000000174 276.3000000000174 296.3000000000175 316.30000000001763 336.30000000001763 356.30000000001763 376.30000000001763 396.3000000000177 416.3000000000177 436.3000000000177 456.3000000000178 476.3000000000178 496.3000000000178 516.3000000000178 536.3000000000178 556.3000000000178 576.3000000000178 596.3000000000178 616.300000000018 636.300000000018 656.300000000018 676.300000000018 696.3000000000181 716.3000000000181 736.3000000000181 756.3000000000181 776.3000000000183 796.3000000000183 816.3000000000183 836.3000000000183 856.3000000000183 876.3000000000183 896.3000000000183 916.3000000000183 936.3000000000183 956.3000000000183 976.3000000000183 996.3000000000186 1016.3000000000186 1036.3000000000186 1056.3000000000186 1076.3000000000186 1096.3000000000186 1116.3000000000186 1136.3000000000184 1156.3000000000188 1176.3000000000188 1196.3000000000188 1216.3000000000188 1236.3000000000188 1256.3000000000188 1276.3000000000188 1296.300000000019 1316.300000000019 1336.300000000019 1356.300000000019 1376.3000000000188 1396.3000000000188 1416.3000000000188 1436.3000000000193 1456.3000000000193 1476.3000000000193 1496.3000000000193
cb_04,25.0,enc_trial,stim,response,Fine Arts students,970.8000000007453,enc_trial,1.0,25.0,s_a_03_2,student_art,fold-e,palette,4.0,unique,far,paired,s_a_03_2.jpg,art,student-b1,STEM students,Fine Arts students,sub-78,1.0,1.0,1.0,1.0,0.5 0.5 0.5 0.5 0.5 0.5 0.5 0.5 0.5 0.5 0.4993055555555556 0.4993055555555556 0.4993055555555556 0.4993055555555556 0.4993055555555556 0.4993055555555556 0.4993055555555556 0.4993055555555556 0.4993055555555556 0.4993055555555556 0.4993055555555556 0.4993055555555556 0.4993055555555556 0.4993055555555556 0.5 0.5020833333333333 0.5048611111111111 0.50625 0.5097222222222222 0.5152777777777777 0.5298611111111111 0.5590277777777778 0.59375 0.6333333333333333 0.6694444444444444 0.7041666666666667 0.7416666666666667 0.7708333333333334 0.8 0.8270833333333333 0.8527777777777777 0.8729166666666667 0.8798611111111111 0.8805555555555555 0.8805555555555555 0.8805555555555555 0.8805555555555555,0.825925925925926 0.825925925925926 0.825925925925926 0.825 0.825 0.825 0.825 0.825 0.825 0.825 0.825 0.8240740740740741 0.8231481481481482 0.8231481481481482 0.8222222222222222 0.8222222222222222 0.8222222222222222 0.8222222222222222 0.8222222222222222 0.8222222222222222 0.8222222222222222 0.8222222222222222 0.8222222222222222 0.8222222222222222 0.8194444444444444 0.8138888888888889 0.8046296296296296 0.7907407407407407 0.7731481481481481 0.7509259259259259 0.7157407407407408 0.6601851851851852 0.5953703703703703 0.5175925925925926 0.4481481481481482 0.3833333333333333 0.3212962962962963 0.27407407407407397 0.2351851851851852 0.2064814814814815 0.18703703703703692 0.17592592592592593 0.17314814814814816 0.17222222222222228 0.17222222222222228 0.17222222222222228 0.17129629629629628,0.0 20.0 40.0 60.0 80.0 100.0 120.0 140.0 160.0 180.0 200.0 220.0 240.0 260.0 280.0 300.0 320.0 340.0 360.0 380.0 400.0 420.0 440.0 460.0 480.0 500.0 520.0 540.0 560.0 580.0 600.0 620.0 640.0 660.0 680.0 700.0 720.0 740.0 760.0 780.0 800.0 820.0 840.0 860.0 880.0 900.0 920.0
cb_04,26.0,enc_trial,stim,response,STEM students,910.0,enc_trial,1.0,26.0,s_s_14_2,student_stem,fold-e,funnel,4.0,unique,far,paired,s_s_14_2.jpg,stem,student-b1,STEM students,Fine Arts students,sub-78,1.0,1.0,1.0,1.0,0.4958333333333334 0.4986111111111111 0.5006944444444444 0.5020833333333333 0.5020833333333333 0.5020833333333333 0.5020833333333333 0.5020833333333333 0.5027777777777778 0.5027777777777778 0.5034722222222222 0.5041666666666667 0.5048611111111111 0.5069444444444444 0.5076388888888889 0.5083333333333333 0.5083333333333333 0.5083333333333333 0.5076388888888889 0.50625 0.5041666666666667 0.5020833333333333 0.4944444444444445 0.4708333333333333 0.4319444444444445 0.3625 0.29444444444444445 0.2277777777777777 0.18819444444444444 0.16875 0.15694444444444444 0.14930555555555555 0.14652777777777778 0.14652777777777778 0.14652777777777778 0.1486111111111111 0.14930555555555555 0.14930555555555555 0.14930555555555555 0.14930555555555555 0.15069444444444444 0.15069444444444444 0.15069444444444444 0.15208333333333332 0.15625 0.15694444444444444,0.587962962962963 0.5694444444444444 0.5592592592592592 0.5564814814814815 0.5555555555555556 0.5555555555555556 0.5555555555555556 0.5555555555555556 0.5546296296296296 0.5537037037037037 0.5518518518518518 0.5490740740740739 0.5453703703703704 0.5407407407407407 0.5351851851851852 0.5277777777777778 0.5203703703703704 0.5138888888888888 0.5111111111111111 0.5074074074074074 0.5037037037037038 0.500925925925926 0.4898148148148148 0.4629629629629629 0.4203703703703704 0.35092592592592603 0.2833333333333333 0.21759259259259256 0.17407407407407405 0.14629629629629626 0.12962962962962965 0.12314814814814813 0.12314814814814813 0.12314814814814813 0.12314814814814813 0.12222222222222225 0.12129629629629635 0.12037037037037035 0.11851851851851848 0.11759259259259258 0.11759259259259258 0.11759259259259258 0.11759259259259258 0.11759259259259258 0.11851851851851848 0.11851851851851848,0.0 20.0 40.0 60.0 80.0 100.0 120.0 140.0 160.0 180.0 200.0 220.0 240.0 260.0 280.0 300.0 320.0 340.0 360.0 380.0 400.0 420.0 440.0 460.0 480.0 500.0 520.0 540.0 560.0 580.0 600.0 620.0 640.0 660.0 680.0 700.0 720.0 740.0 760.0 780.0 800.0 820.0 840.0 860.0 880.0 900.0
cb_04,27.0,enc_trial,stim,response,STEM students,939.9000000007508,enc_trial,1.0,27.0,s_s_05_1,student_stem,fold-a,lab goggles,4.0,unique,close,paired,s_s_05_1.jpg,stem,student-b1,STEM students,Fine Arts students,sub-78,1.0,1.0,1.0,1.0,0.5048611111111111 0.50625 0.5069444444444444 0.5076388888888889 0.5083333333333333 0.5083333333333333 0.5083333333333333 0.5083333333333333 0.5083333333333333 0.5083333333333333 0.5083333333333333 0.5083333333333333 0.5083333333333333 0.5076388888888889 0.5076388888888889 0.5076388888888889 0.5069444444444444 0.5069444444444444 0.50625 0.50625 0.50625 0.50625 0.5055555555555555 0.5048611111111111 0.5034722222222222 0.5027777777777778 0.5027777777777778 0.5027777777777778 0.5027777777777778 0.5027777777777778 0.5020833333333333 0.4958333333333334 0.4743055555555555 0.4298611111111112 0.375 0.3111111111111111 0.2625 0.21736111111111112 0.18472222222222226 0.1625 0.14652777777777778 0.14166666666666666 0.14097222222222222 0.14166666666666666,0.825925925925926 0.8240740740740741 0.8222222222222222 0.8203703703703704 0.8194444444444444 0.8185185185185185 0.8185185185185185 0.8185185185185185 0.8185185185185185 0.8185185185185185 0.8185185185185185 0.8185185185185185 0.8185185185185185 0.8185185185185185 0.8185185185185185 0.8185185185185185 0.8185185185185185 0.8185185185185185 0.8185185185185185 0.8185185185185185 0.8185185185185185 0.8185185185185185 0.8185185185185185 0.8185185185185185 0.8185185185185185 0.8185185185185185 0.8185185185185185 0.8185185185185185 0.8185185185185185 0.8185185185185185 0.8166666666666667 0.8 0.7444444444444445 0.6481481481481481 0.5416666666666667 0.4138888888888889 0.3148148148148148 0.2287037037037037 0.1694444444444444 0.1351851851851852 0.1157407407407407 0.11203703703703703 0.11203703703703703 0.11203703703703703,2.700000000011641 22.700000000011638 42.70000000001164 62.70000000001164 82.70000000001164 102.70000000001164 122.70000000001164 142.7000000000116 162.7000000000116 182.70000000001164 202.70000000001164 222.70000000001164 242.70000000001164 262.70000000001164 282.70000000001164 302.70000000001164 322.70000000001164 342.70000000001164 362.7000000000117 382.7000000000117 402.7000000000117 422.7000000000117 442.7000000000117 462.7000000000117 482.7000000000117 502.7000000000117 522.7000000000116 542.7000000000116 562.7000000000116 582.7000000000116 602.7000000000116 622.7000000000116 642.7000000000116 662.7000000000116 682.7000000000116 702.7000000000116 722.7000000000116 742.7000000000116 762.7000000000116 782.7000000000116 802.7000000000116 822.7000000000116 842.7000000000116 862.7000000000116
cb_04,28.0,enc_trial,stim,response,STEM students,798.3999999999942,enc_trial,1.0,28.0,s_s_17_2,student_stem,fold-e,ring stand,4.0,unique,far,paired,s_s_17_2.jpg,stem,student-b1,STEM students,Fine Arts students,sub-78,1.0,1.0,1.0,1.0,0.5048611111111111 0.5055555555555555 0.5055555555555555 0.5069444444444444 0.5069444444444444 0.5069444444444444 0.5048611111111111 0.5041666666666667 0.5034722222222222 0.5034722222222222 0.5034722222222222 0.5034722222222222 0.5027777777777778 0.5027777777777778 0.5020833333333333 0.5020833333333333 0.5020833333333333 0.5020833333333333 0.5020833333333333 0.5020833333333333 0.5020833333333333 0.5020833333333333 0.5013888888888889 0.4944444444444445 0.4763888888888889 0.4340277777777778 0.3729166666666667 0.31319444444444444 0.26666666666666666 0.23194444444444445 0.2 0.17916666666666667 0.16527777777777775 0.15694444444444444 0.15555555555555556 0.15555555555555556 0.15555555555555556 0.15416666666666667 0.15069444444444444 0.14722222222222225,0.8268518518518518 0.825925925925926 0.825 0.8212962962962963 0.8148148148148149 0.8092592592592592 0.8018518518518518 0.7953703703703704 0.7907407407407407 0.787037037037037 0.7833333333333333 0.7805555555555556 0.7777777777777778 0.7768518518518519 0.7759259259259259 0.7759259259259259 0.7759259259259259 0.775 0.7740740740740741 0.7731481481481481 0.7731481481481481 0.7722222222222223 0.7694444444444444 0.7527777777777778 0.7092592592592593 0.6277777777777778 0.5333333333333333 0.4472222222222222 0.3675925925925926 0.3018518518518518 0.2379629629629629 0.20277777777777767 0.18611111111111112 0.17592592592592593 0.17500000000000004 0.17500000000000004 0.17500000000000004 0.17500000000000004 0.17407407407407405 0.17314814814814816,19.5 39.5 59.5 79.5 99.5 119.5 139.5 159.5 179.5 199.5 219.5 239.5 259.5 279.5 299.5 319.5 339.5 359.5 379.5 399.5 419.5 439.5 459.5 479.5 499.5 519.5 539.5 559.5 579.5 599.5 619.5 639.5 659.5 679.5 699.5 719.5 739.5 759.5 779.5 799.5
cb_04,29.0,enc_trial,stim,response,STEM students,1502.6999999992554,enc_trial,1.0,29.0,s_sh_10_1,student_shared,fold-b,scissors,4.0,competing,close,paired,s_sh_10_1.jpg,,student-b1,STEM students,Fine Arts students,sub-78,1.0,1.0,0.0,0.0,0.5125 0.5125 0.5125 0.5125 0.5125 0.5125 0.5125 0.5125 0.5125 0.5125 0.5125 0.5125 0.5125 0.5125 0.5125 0.5131944444444444 0.5152777777777777 0.5173611111111112 0.5208333333333334 0.5236111111111111 0.5194444444444445 0.4986111111111111 0.4680555555555556 0.4395833333333333 0.4180555555555556 0.40208333333333335 0.3909722222222222 0.3840277777777778 0.38333333333333336 0.3923611111111111 0.4166666666666667 0.4513888888888889 0.4923611111111112 0.5326388888888889 0.5645833333333333 0.5930555555555556 0.6173611111111111 0.6416666666666667 0.6680555555555555 0.6965277777777777 0.7298611111111111 0.7638888888888888 0.7944444444444444 0.8194444444444444 0.8326388888888889 0.8305555555555556 0.8048611111111111 0.7597222222222222 0.6902777777777778 0.5923611111111111 0.4840277777777778 0.3993055555555556 0.33125 0.27291666666666664 0.2270833333333333 0.19375 0.1673611111111111 0.15416666666666667 0.15138888888888888 0.15138888888888888 0.15208333333333332 0.1527777777777778 0.1527777777777778 0.1527777777777778 0.1527777777777778 0.1527777777777778 0.1527777777777778 0.15347222222222226 0.15347222222222226 0.15416666666666667 0.15555555555555556 0.15625,0.8268518518518518 0.8268518518518518 0.825925925925926 0.825925925925926 0.825925925925926 0.825925925925926 0.825925925925926 0.825925925925926 0.825925925925926 0.825925925925926 0.825925925925926 0.825925925925926 0.825925925925926 0.825925925925926 0.825 0.8212962962962963 0.8148148148148149 0.8027777777777778 0.7787037037037037 0.7361111111111112 0.6796296296296296 0.5925925925925926 0.5138888888888888 0.4453703703703704 0.3842592592592593 0.3314814814814815 0.29074074074074074 0.2583333333333333 0.2407407407407407 0.2314814814814815 0.225 0.22129629629629632 0.21851851851851856 0.2083333333333333 0.19259259259259254 0.1694444444444444 0.14629629629629626 0.12870370370370365 0.11759259259259258 0.1148148148148148 0.11851851851851848 0.12407407407407413 0.12962962962962965 0.1351851851851852 0.13796296296296295 0.13796296296296295 0.13796296296296295 0.13703703703703707 0.13703703703703707 0.13703703703703707 0.13611111111111107 0.13611111111111107 0.14074074074074072 0.14907407407407405 0.15555555555555556 0.1620370370370371 0.16574074074074074 0.16666666666666666 0.16666666666666666 0.16666666666666666 0.16574074074074074 0.16296296296296298 0.1620370370370371 0.1601851851851852 0.1592592592592592 0.15833333333333333 0.15833333333333333 0.15833333333333333 0.15833333333333333 0.15833333333333333 0.1592592592592592 0.1592592592592592,63.79999999998836 83.79999999998836 103.79999999998836 123.79999999998836 143.7999999999884 163.7999999999884 183.79999999998842 203.79999999998842 223.79999999998842 243.79999999998842 263.7999999999884 283.79999999998836 303.79999999998836 323.79999999998836 343.7999999999884 363.7999999999884 383.7999999999884 403.7999999999884 423.7999999999884 443.7999999999884 463.7999999999884 483.7999999999884 503.7999999999884 523.7999999999884 543.7999999999884 563.7999999999884 583.7999999999884 603.7999999999884 623.7999999999884 643.7999999999884 663.7999999999884 683.7999999999884 703.7999999999884 723.7999999999884 743.7999999999884 763.7999999999884 783.7999999999884 803.7999999999884 823.7999999999884 843.7999999999884 863.7999999999884 883.7999999999884 903.7999999999884 923.7999999999884 943.7999999999884 963.7999999999884 983.7999999999884 1003.7999999999884 1023.7999999999884 1043.7999999999884 1063.7999999999884 1083.7999999999884 1103.7999999999884 1123.7999999999884 1143.7999999999886 1163.7999999999886 1183.7999999999886 1203.7999999999886 1223.7999999999886 1243.7999999999886 1263.7999999999886 1283.7999999999886 1303.7999999999886 1323.7999999999886 1343.7999999999886 1363.7999999999886 1383.7999999999884 1403.7999999999884 1423.7999999999884 1443.7999999999884 1463.7999999999884 1483.7999999999884
cb_04,30.0,enc_trial,stim,response,STEM students,2734.0,enc_trial,1.0,30.0,s_a_10_1,student_art,fold-a,tripod,4.0,unique,close,paired,s_a_10_1.jpg,art,student-b1,STEM students,Fine Arts students,sub-78,0.0,0.0,1.0,0.0,0.5243055555555556 0.5243055555555556 0.5243055555555556 0.5236111111111111 0.5236111111111111 0.5236111111111111 0.5236111111111111 0.5236111111111111 0.5236111111111111 0.5236111111111111 0.5236111111111111 0.5236111111111111 0.5236111111111111 0.5236111111111111 0.5236111111111111 0.5236111111111111 0.5236111111111111 0.5236111111111111 0.5236111111111111 0.5236111111111111 0.5236111111111111 0.5236111111111111 0.5236111111111111 0.5222222222222223 0.5194444444444445 0.5055555555555555 0.4763888888888889 0.43125 0.38125 0.33402777777777776 0.2923611111111111 0.2638888888888889 0.2388888888888889 0.21666666666666667 0.19791666666666666 0.1840277777777778 0.17708333333333334 0.17291666666666666 0.17083333333333334 0.1701388888888889 0.1701388888888889 0.1701388888888889 0.17222222222222222 0.1736111111111111 0.17430555555555555 0.17430555555555555 0.17430555555555555 0.1736111111111111 0.17291666666666666 0.17222222222222222 0.17222222222222222 0.17222222222222222 0.175 0.18611111111111112 0.20972222222222225 0.2576388888888889 0.3125 0.3673611111111112 0.4215277777777778 0.4729166666666666 0.5229166666666667 0.5611111111111111 0.5979166666666667 0.6347222222222222 0.6729166666666667 0.7125 0.7423611111111111 0.7708333333333334 0.7958333333333333 0.81875 0.8375 0.8506944444444444 0.8625 0.8715277777777778 0.8784722222222222 0.8826388888888889 0.8826388888888889 0.8826388888888889 0.8826388888888889 0.8805555555555555 0.8694444444444445 0.8479166666666667 0.8090277777777778 0.7506944444444444 0.6625 0.5486111111111112 0.45625 0.3763888888888889 0.3125 0.25833333333333336 0.21458333333333326 0.1930555555555556 0.17847222222222225 0.1701388888888889 0.16666666666666666 0.1673611111111111 0.16944444444444445 0.16944444444444445 0.1673611111111111 0.16319444444444445 0.16111111111111112 0.16111111111111112 0.16111111111111112 0.16111111111111112 0.16111111111111112 0.16111111111111112 0.16111111111111112 0.16111111111111112 0.16111111111111112 0.16111111111111112 0.16111111111111112 0.16111111111111112 0.16111111111111112 0.16111111111111112 0.16111111111111112 0.16111111111111112 0.16111111111111112 0.16111111111111112 0.16111111111111112 0.16111111111111112 0.16111111111111112 0.16111111111111112 0.16111111111111112 0.16111111111111112 0.16180555555555556 0.16180555555555556 0.1625 0.1625 0.16319444444444445 0.16666666666666666 0.1701388888888889 0.1701388888888889 0.1701388888888889 0.1701388888888889 0.16944444444444445 0.16944444444444445 0.16944444444444445,0.8296296296296296 0.8277777777777777 0.825 0.8231481481481482 0.8212962962962963 0.8203703703703704 0.8194444444444444 0.8194444444444444 0.8194444444444444 0.8194444444444444 0.8194444444444444 0.8194444444444444 0.8194444444444444 0.8194444444444444 0.8185185185185185 0.8175925925925926 0.8166666666666667 0.8166666666666667 0.8157407407407408 0.8157407407407408 0.8157407407407408 0.8148148148148149 0.8138888888888889 0.8101851851851851 0.799074074074074 0.7638888888888888 0.7092592592592593 0.637962962962963 0.5620370370370371 0.487037037037037 0.412962962962963 0.3583333333333333 0.30925925925925923 0.2731481481481481 0.24629629629629635 0.2277777777777777 0.21851851851851856 0.2157407407407408 0.2148148148148148 0.2148148148148148 0.2148148148148148 0.2148148148148148 0.2157407407407408 0.2157407407407408 0.21666666666666667 0.21666666666666667 0.21666666666666667 0.2148148148148148 0.2129629629629629 0.21111111111111114 0.21018518518518514 0.20925925925925928 0.20925925925925928 0.2129629629629629 0.21759259259259256 0.225 0.2314814814814815 0.2361111111111112 0.2361111111111112 0.2296296296296297 0.21851851851851856 0.20925925925925928 0.20185185185185184 0.1944444444444444 0.18796296296296305 0.18240740740740746 0.1777777777777778 0.17407407407407405 0.1694444444444444 0.16574074074074074 0.1620370370370371 0.1592592592592592 0.15648148148148144 0.15462962962962967 0.1527777777777778 0.1518518518518519 0.1518518518518519 0.1518518518518519 0.1518518518518519 0.1518518518518519 0.14814814814814814 0.1435185185185185 0.14074074074074072 0.14166666666666672 0.1435185185185185 0.14166666666666672 0.13888888888888884 0.13888888888888884 0.1435185185185185 0.1518518518518519 0.1611111111111111 0.16666666666666666 0.1685185185185185 0.1685185185185185 0.16481481481481486 0.1611111111111111 0.15833333333333333 0.15648148148148144 0.15370370370370368 0.1509259259259259 0.15000000000000002 0.15000000000000002 0.15000000000000002 0.15000000000000002 0.15000000000000002 0.1509259259259259 0.1509259259259259 0.1518518518518519 0.1518518518518519 0.1527777777777778 0.1527777777777778 0.1527777777777778 0.1527777777777778 0.1527777777777778 0.1527777777777778 0.1527777777777778 0.1527777777777778 0.1527777777777778 0.1527777777777778 0.1527777777777778 0.1527777777777778 0.15370370370370368 0.15370370370370368 0.15370370370370368 0.15555555555555556 0.15740740740740744 0.15833333333333333 0.15833333333333333 0.1592592592592592 0.1611111111111111 0.16296296296296298 0.16388888888888886 0.16388888888888886 0.16388888888888886 0.16388888888888886 0.16388888888888886 0.16296296296296298,5.600000000005821 25.60000000000582 45.60000000000582 65.60000000000582 85.6000000000058 105.60000000000582 125.60000000000582 145.60000000000582 165.60000000000582 185.60000000000585 205.60000000000585 225.60000000000585 245.60000000000585 265.6000000000058 285.6000000000058 305.6000000000058 325.6000000000058 345.6000000000058 365.6000000000058 385.6000000000058 405.6000000000058 425.6000000000058 445.6000000000058 465.6000000000058 485.6000000000058 505.6000000000058 525.6000000000058 545.6000000000058 565.6000000000057 585.6000000000057 605.6000000000057 625.6000000000057 645.6000000000057 665.6000000000057 685.6000000000057 705.6000000000058 725.6000000000058 745.6000000000058 765.6000000000058 785.6000000000058 805.6000000000058 825.6000000000058 845.6000000000058 865.6000000000058 885.6000000000058 905.6000000000058 925.6000000000058 945.6000000000058 965.6000000000058 985.6000000000058 1005.6000000000058 1025.6000000000058 1045.6000000000058 1065.6000000000058 1085.6000000000058 1105.6000000000058 1125.6000000000058 1145.6000000000058 1165.6000000000058 1185.6000000000058 1205.6000000000058 1225.6000000000058 1245.6000000000058 1265.6000000000058 1285.6000000000058 1305.6000000000058 1325.6000000000058 1345.6000000000058 1365.6000000000058 1385.6000000000058 1405.6000000000058 1425.6000000000058 1445.6000000000058 1465.6000000000058 1485.6000000000058 1505.6000000000058 1525.6000000000058 1545.6000000000058 1565.6000000000058 1585.6000000000058 1605.6000000000058 1625.6000000000058 1645.6000000000058 1665.6000000000058 1685.6000000000058 1705.6000000000058 1725.6000000000058 1745.6000000000058 1765.6000000000058 1785.6000000000058 1805.6000000000056 1825.6000000000056 1845.6000000000056 1865.6000000000056 1885.6000000000056 1905.6000000000056 1925.6000000000056 1945.6000000000056 1965.6000000000056 1985.6000000000056 2005.6000000000056 2025.6000000000056 2045.6000000000056 2065.6000000000063 2085.6000000000063 2105.6000000000063 2125.6000000000063 2145.6000000000063 2165.6000000000063 2185.6000000000063 2205.6000000000063 2225.6000000000063 2245.6000000000063 2265.6000000000063 2285.6000000000063 2305.6000000000063 2325.6000000000063 2345.6000000000063 2365.6000000000063 2385.6000000000063 2405.6000000000063 2425.6000000000063 2445.6000000000063 2465.6000000000063 2485.6000000000063 2505.6000000000063 2525.6000000000063 2545.6000000000063 2565.6000000000063 2585.6000000000063 2605.6000000000063 2625.6000000000063 2645.6000000000063 2665.6000000000063 2685.6000000000063 2705.6000000000063 2725.6000000000063
cb_04,31.0,enc_trial,stim,response,STEM students,838.2999999999884,enc_trial,1.0,31.0,s_s_05_2,student_stem,fold-a,lab goggles,4.0,unique,close,paired,s_s_05_2.jpg,stem,student-b1,STEM students,Fine Arts students,sub-78,1.0,1.0,1.0,1.0,0.5256944444444445 0.5256944444444445 0.5256944444444445 0.5256944444444445 0.5256944444444445 0.5256944444444445 0.5256944444444445 0.5263888888888889 0.5277777777777778 0.5277777777777778 0.5277777777777778 0.5277777777777778 0.5263888888888889 0.5229166666666667 0.5152777777777777 0.4923611111111112 0.4548611111111111 0.4083333333333333 0.36527777777777776 0.3298611111111111 0.2930555555555556 0.2645833333333333 0.2340277777777777 0.21041666666666667 0.1902777777777777 0.16527777777777775 0.14652777777777778 0.13055555555555556 0.11736111111111112 0.10625 0.10069444444444443 0.1,0.8138888888888889 0.8138888888888889 0.8138888888888889 0.8138888888888889 0.8138888888888889 0.8138888888888889 0.8138888888888889 0.8138888888888889 0.8138888888888889 0.812962962962963 0.8111111111111111 0.8083333333333333 0.8037037037037037 0.7944444444444445 0.7740740740740741 0.7194444444444444 0.6453703703703704 0.5638888888888889 0.487037037037037 0.4203703703703704 0.35092592592592603 0.3027777777777778 0.2583333333333333 0.2314814814814815 0.2148148148148148 0.1953703703703704 0.1805555555555556 0.1685185185185185 0.1611111111111111 0.1527777777777778 0.14907407407407405 0.14814814814814814,172.19999999998254 192.19999999998254 212.19999999998254 232.19999999998254 252.19999999998254 272.19999999998254 292.1999999999825 312.1999999999825 332.1999999999825 352.19999999998254 372.19999999998254 392.19999999998254 412.19999999998254 432.19999999998254 452.19999999998254 472.19999999998254 492.19999999998254 512.1999999999825 532.1999999999825 552.1999999999825 572.1999999999825 592.1999999999825 612.1999999999825 632.1999999999825 652.1999999999825 672.1999999999825 692.1999999999824 712.1999999999824 732.1999999999824 752.1999999999824 772.1999999999824 792.1999999999824
