Current Spreadsheet,Trial Number,Display,Screen,Response Type,Response,Reaction Time,display,block,block_trial,stimulus_id,expected_goal,fold,stimulus_name,c_group,condition,within_block_dist,paired_status,stimulus_path,expected_location,block_split,respStim_1,respStim_2,sub_label,acc,both_enc_acc,assoc_stim1_acc,assoc_stim2_acc,x_pos,y_pos,time_trajectories
cb_07,1.0,enc_trial,stim,response,Iceland trip,2499.499999999942,enc_trial,1.0,1.0,t_s_02_1,travel_shared,fold-b,water bottle,7.0,competing,far,paired,t_s_02_1.jpg,,travel-b1,Iceland trip,Miami trip,sub-77,1.0,1.0,0.0,0.0,0.5 0.5 0.5 0.5 0.5 0.5 0.5 0.5 0.5 0.5 0.5 0.5 0.5 0.5 0.5 0.5 0.5 0.5 0.5 0.5 0.5 0.5 0.5 0.5 0.4986111111111111 0.49375 0.4895833333333333 0.4791666666666667 0.4625 0.44027777777777777 0.4138888888888889 0.3895833333333333 0.3659722222222222 0.3458333333333333 0.33541666666666664 0.3215277777777778 0.3104166666666667 0.29930555555555555 0.2902777777777778 0.2833333333333333 0.2756944444444445 0.2701388888888889 0.2673611111111111 0.2625 0.2569444444444444 0.2493055555555556 0.24305555555555555 0.2381944444444445 0.2326388888888889 0.22847222222222224 0.2243055555555556 0.2222222222222222 0.2215277777777777 0.22083333333333333 0.2180555555555556 0.21458333333333326 0.21458333333333326 0.21458333333333326 0.21458333333333326 0.21458333333333326 0.21458333333333326 0.21458333333333326 0.21458333333333326 0.21458333333333326 0.21458333333333326 0.21458333333333326 0.21458333333333326 0.20625 0.2 0.1951388888888889 0.18819444444444444 0.18472222222222226 0.17777777777777778 0.17222222222222222 0.16666666666666666 0.1625 0.16111111111111112 0.15902777777777774 0.15694444444444444 0.15486111111111112 0.15347222222222226 0.15208333333333332 0.15208333333333332 0.15138888888888888 0.15138888888888888 0.14930555555555555 0.1486111111111111 0.1486111111111111 0.1486111111111111 0.1486111111111111 0.14722222222222225 0.14583333333333334 0.1423611111111111 0.14027777777777778 0.13819444444444445 0.1375,0.8407407407407408 0.8398148148148148 0.837037037037037 0.837037037037037 0.837037037037037 0.837037037037037 0.837037037037037 0.837037037037037 0.837037037037037 0.837037037037037 0.837037037037037 0.837037037037037 0.8361111111111111 0.8342592592592593 0.8324074074074074 0.8324074074074074 0.8324074074074074 0.8324074074074074 0.8324074074074074 0.8324074074074074 0.8324074074074074 0.8324074074074074 0.8314814814814815 0.8287037037037037 0.8240740740740741 0.8138888888888889 0.8055555555555556 0.7888888888888889 0.7638888888888888 0.7342592592592593 0.6990740740740741 0.6666666666666667 0.6287037037037038 0.5898148148148148 0.5694444444444444 0.5351851851851852 0.500925925925926 0.4694444444444445 0.4425925925925925 0.4203703703703704 0.4027777777777778 0.38796296296296295 0.3824074074074074 0.3768518518518519 0.37222222222222223 0.3694444444444445 0.3666666666666667 0.3629629629629629 0.3574074074074074 0.3527777777777777 0.35 0.3472222222222222 0.34259259259259256 0.337037037037037 0.3324074074074074 0.3324074074074074 0.3324074074074074 0.3324074074074074 0.3324074074074074 0.3324074074074074 0.3324074074074074 0.3324074074074074 0.3324074074074074 0.3324074074074074 0.3324074074074074 0.3324074074074074 0.3324074074074074 0.3324074074074074 0.32592592592592595 0.3194444444444444 0.3064814814814815 0.29814814814814816 0.2796296296296297 0.2629629629629629 0.2481481481481481 0.23703703703703705 0.2305555555555555 0.2240740740740741 0.21944444444444444 0.2157407407407408 0.2138888888888889 0.21111111111111114 0.21111111111111114 0.20925925925925928 0.20740740740740726 0.2055555555555556 0.20277777777777767 0.20092592592592595 0.2 0.19907407407407407 0.1944444444444444 0.18796296296296305 0.17962962962962958 0.17500000000000004 0.1694444444444444 0.1685185185185185,506.89999999996513 526.8999999999652 546.8999999999652 566.899999999965 586.8999999999647 606.8999999999647 626.8999999999647 646.8999999999647 666.8999999999646 686.8999999999646 706.8999999999646 726.8999999999644 746.8999999999644 766.8999999999644 786.8999999999644 806.8999999999643 826.8999999999643 846.8999999999643 866.8999999999643 886.8999999999639 906.8999999999639 926.8999999999639 946.8999999999639 966.8999999999637 986.8999999999637 1006.8999999999637 1026.8999999999637 1046.8999999999637 1066.8999999999637 1086.8999999999637 1106.8999999999637 1126.8999999999633 1146.8999999999633 1166.8999999999633 1186.8999999999633 1206.899999999963 1226.899999999963 1246.899999999963 1266.899999999963 1286.8999999999628 1306.8999999999628 1326.8999999999628 1346.8999999999628 1366.8999999999626 1386.8999999999626 1406.8999999999626 1426.8999999999626 1446.8999999999626 1466.8999999999626 1486.8999999999626 1506.8999999999626 1526.899999999962 1546.899999999962 1566.899999999962 1586.899999999962 1606.899999999962 1626.899999999962 1646.899999999962 1666.899999999962 1686.8999999999614 1706.8999999999614 1726.8999999999614 1746.8999999999614 1766.8999999999614 1786.8999999999614 1806.8999999999612 1826.8999999999612 1846.8999999999605 1866.8999999999605 1886.8999999999605 1906.899999999961 1926.899999999961 1946.899999999961 1966.899999999961 1986.899999999961 2006.8999999999605 2026.8999999999605 2046.8999999999605 2066.8999999999605 2086.8999999999605 2106.8999999999605 2126.8999999999605 2146.8999999999605 2166.8999999999605 2186.8999999999605 2206.8999999999605 2226.89999999996 2246.89999999996 2266.89999999996 2286.89999999996 2306.89999999996 2326.89999999996 2346.89999999996 2366.89999999996 2386.89999999996 2406.89999999996
cb_07,2.0,enc_trial,stim,response,Iceland trip,1751.8000001430628,enc_trial,1.0,2.0,t_s_18_1,travel_shared,fold-a,first aid kit,7.0,competing,close,paired,t_s_18_1.jpg,,travel-b1,Iceland trip,Miami trip,sub-77,1.0,1.0,0.0,0.0,0.4965277777777778 0.4965277777777778 0.4951388888888889 0.4951388888888889 0.49375 0.4923611111111112 0.4881944444444444 0.4805555555555556 0.4659722222222222 0.4527777777777778 0.4291666666666665 0.4027777777777778 0.375 0.3472222222222222 0.32222222222222224 0.29097222222222224 0.2618055555555556 0.24097222222222225 0.2326388888888889 0.2270833333333333 0.2222222222222222 0.21944444444444444 0.21736111111111112 0.21597222222222226 0.21597222222222226 0.21944444444444444 0.22569444444444445 0.2520833333333333 0.3076388888888889 0.3736111111111111 0.4208333333333333 0.4361111111111111 0.4340277777777778 0.3979166666666665 0.3597222222222222 0.29791666666666666 0.2458333333333333 0.2076388888888889 0.18263888888888888 0.1625 0.15486111111111112 0.15486111111111112 0.15416666666666667 0.15416666666666667 0.15416666666666667 0.15416666666666667 0.15347222222222226 0.1527777777777778 0.15069444444444444 0.14930555555555555,0.8287037037037037 0.8287037037037037 0.8268518518518518 0.825 0.8222222222222222 0.8185185185185185 0.8074074074074074 0.7898148148148147 0.7564814814814815 0.7287037037037036 0.6694444444444445 0.6027777777777779 0.5333333333333333 0.4685185185185186 0.4203703703703704 0.37777777777777777 0.34444444444444444 0.3212962962962963 0.3111111111111111 0.30000000000000004 0.2925925925925926 0.2842592592592592 0.275 0.26481481481481484 0.25370370370370365 0.2398148148148148 0.2305555555555555 0.20925925925925928 0.1787037037037037 0.15000000000000002 0.1342592592592593 0.13240740740740742 0.13796296296296295 0.1620370370370371 0.1787037037037037 0.2 0.21111111111111114 0.21203703703703705 0.21018518518518514 0.20277777777777767 0.1972222222222222 0.1907407407407408 0.18611111111111112 0.18240740740740746 0.1787037037037037 0.17685185185185182 0.17500000000000004 0.17222222222222228 0.1703703703703704 0.1685185185185185,555.5 575.5 595.5 615.5 635.5 655.5 675.5 695.5 715.5 735.5 755.5 775.5 795.5 815.5 835.5 855.5 875.5 895.5 915.5 935.5 955.5 975.5 995.5 1015.5 1035.5 1055.5 1075.5 1095.5 1115.5 1135.5 1155.5 1175.5 1195.5 1215.5 1235.5 1255.5 1275.5 1295.5 1315.5 1335.5 1355.5 1375.5 1395.5 1415.5 1435.5 1455.5 1475.5 1495.5 1515.5 1535.5
cb_07,3.0,enc_trial,stim,response,Iceland trip,1407.2000001430279,enc_trial,1.0,3.0,t_s_06_1,travel_shared,fold-b,luggage,7.0,competing,far,paired,t_s_06_1.jpg,,travel-b1,Iceland trip,Miami trip,sub-77,1.0,1.0,0.0,0.0,0.4965277777777778 0.4958333333333334 0.4951388888888889 0.49375 0.49375 0.4909722222222222 0.4888888888888889 0.4868055555555556 0.4847222222222222 0.4840277777777778 0.4819444444444445 0.4798611111111111 0.4763888888888889 0.4722222222222222 0.4666666666666667 0.4548611111111111 0.4381944444444445 0.42291666666666666 0.3972222222222222 0.3680555555555556 0.3347222222222222 0.3020833333333333 0.2722222222222222 0.2465277777777778 0.2263888888888889 0.2125 0.20625 0.1986111111111111 0.1951388888888889 0.19444444444444445 0.1930555555555556 0.19166666666666668 0.18888888888888888 0.1840277777777778 0.18055555555555555 0.17569444444444446 0.1701388888888889 0.1638888888888889 0.15416666666666667 0.14722222222222225 0.14097222222222222 0.1375 0.13541666666666666,0.8407407407407408 0.8388888888888889 0.8361111111111111 0.8333333333333334 0.8333333333333334 0.8277777777777777 0.8231481481481482 0.8194444444444444 0.8157407407407408 0.812962962962963 0.8083333333333333 0.8046296296296296 0.7981481481481482 0.7888888888888889 0.775 0.7472222222222222 0.712962962962963 0.6851851851851851 0.637962962962963 0.5824074074074075 0.5120370370370371 0.4296296296296296 0.3527777777777777 0.2925925925925926 0.25648148148148153 0.2361111111111112 0.2277777777777777 0.2222222222222222 0.2203703703703704 0.2203703703703704 0.2203703703703704 0.21759259259259256 0.21203703703703705 0.2064814814814815 0.20277777777777767 0.19907407407407407 0.1944444444444444 0.18888888888888888 0.18240740740740746 0.17592592592592593 0.17129629629629628 0.1694444444444444 0.1685185185185185,479.09999999997666 499.09999999997666 519.0999999999766 539.0999999999766 559.0999999999766 579.0999999999767 599.0999999999767 619.0999999999767 639.0999999999767 659.0999999999767 679.0999999999767 699.0999999999768 719.0999999999768 739.0999999999768 759.0999999999768 779.0999999999768 799.0999999999768 819.0999999999768 839.0999999999768 859.0999999999768 879.0999999999768 899.0999999999768 919.0999999999768 939.0999999999768 959.0999999999768 979.0999999999768 999.0999999999768 1019.0999999999768 1039.0999999999767 1059.0999999999767 1079.0999999999767 1099.0999999999767 1119.0999999999767 1139.0999999999767 1159.0999999999767 1179.0999999999767 1199.0999999999767 1219.0999999999767 1239.0999999999767 1259.0999999999767 1279.0999999999767 1299.0999999999767 1319.0999999999767
cb_07,4.0,enc_trial,stim,response,Iceland trip,2567.700000143028,enc_trial,1.0,4.0,t_i_11_2,travel_Iceland,fold-d,headlamp,7.0,unique,far,paired,t_i_11_2.jpg,Iceland,travel-b1,Iceland trip,Miami trip,sub-77,0.0,0.0,1.0,1.0,0.5 0.5 0.5 0.5 0.5 0.4993055555555556 0.4993055555555556 0.4993055555555556 0.4993055555555556 0.4993055555555556 0.4993055555555556 0.4993055555555556 0.4993055555555556 0.4993055555555556 0.4993055555555556 0.4993055555555556 0.4993055555555556 0.4993055555555556 0.4993055555555556 0.4993055555555556 0.4993055555555556 0.4993055555555556 0.4993055555555556 0.4993055555555556 0.4993055555555556 0.4993055555555556 0.4993055555555556 0.4993055555555556 0.4993055555555556 0.4993055555555556 0.4993055555555556 0.4993055555555556 0.4993055555555556 0.4993055555555556 0.4993055555555556 0.4993055555555556 0.4993055555555556 0.4993055555555556 0.4993055555555556 0.4993055555555556 0.4993055555555556 0.4993055555555556 0.4993055555555556 0.4993055555555556 0.4993055555555556 0.4993055555555556 0.4993055555555556 0.4993055555555556 0.4993055555555556 0.4993055555555556 0.4993055555555556 0.4993055555555556 0.4993055555555556 0.4993055555555556 0.4993055555555556 0.4993055555555556 0.4993055555555556 0.4993055555555556 0.4993055555555556 0.4979166666666667 0.49375 0.4881944444444444 0.4791666666666667 0.4645833333333334 0.4493055555555556 0.4319444444444445 0.4111111111111111 0.3895833333333333 0.3673611111111112 0.3236111111111111 0.27847222222222223 0.24097222222222225 0.21458333333333326 0.19375 0.1701388888888889 0.15208333333333332 0.1451388888888889 0.13819444444444445 0.13680555555555554 0.13680555555555554 0.13958333333333334 0.1423611111111111 0.14375 0.14375 0.14375 0.14375 0.1423611111111111 0.14166666666666666 0.1388888888888889 0.13402777777777775 0.12986111111111112 0.1284722222222222 0.12777777777777774,0.8509259259259259 0.85 0.85 0.8490740740740741 0.8490740740740741 0.8490740740740741 0.8490740740740741 0.8490740740740741 0.8490740740740741 0.8490740740740741 0.8490740740740741 0.8490740740740741 0.8490740740740741 0.8490740740740741 0.8490740740740741 0.8490740740740741 0.8490740740740741 0.8490740740740741 0.8490740740740741 0.8490740740740741 0.8490740740740741 0.8490740740740741 0.8490740740740741 0.8490740740740741 0.8490740740740741 0.8490740740740741 0.8490740740740741 0.8490740740740741 0.8490740740740741 0.8490740740740741 0.8490740740740741 0.8490740740740741 0.8490740740740741 0.8490740740740741 0.8490740740740741 0.8490740740740741 0.8490740740740741 0.8490740740740741 0.8490740740740741 0.8490740740740741 0.8490740740740741 0.8490740740740741 0.8490740740740741 0.8490740740740741 0.8490740740740741 0.8490740740740741 0.8490740740740741 0.8490740740740741 0.8490740740740741 0.8490740740740741 0.8490740740740741 0.8490740740740741 0.8490740740740741 0.8490740740740741 0.8490740740740741 0.8490740740740741 0.8490740740740741 0.8490740740740741 0.8490740740740741 0.8472222222222222 0.8398148148148148 0.8324074074074074 0.8203703703703704 0.7981481481481482 0.7685185185185185 0.7314814814814814 0.6814814814814815 0.6277777777777778 0.5777777777777777 0.4861111111111112 0.4037037037037037 0.3472222222222222 0.312962962962963 0.28796296296296303 0.2666666666666667 0.25370370370370365 0.25 0.24722222222222226 0.24722222222222226 0.2435185185185185 0.2351851851851852 0.2287037037037037 0.225 0.2222222222222222 0.21944444444444444 0.2138888888888889 0.2055555555555556 0.1953703703703704 0.18333333333333326 0.17129629629629628 0.1611111111111111 0.15648148148148144 0.15648148148148144,604.0999999999767 624.0999999999767 644.0999999999767 664.0999999999767 684.0999999999767 704.0999999999768 724.0999999999768 744.0999999999768 764.0999999999768 784.0999999999768 804.0999999999768 824.0999999999768 844.0999999999768 864.0999999999768 884.0999999999768 904.0999999999768 924.0999999999768 944.0999999999768 964.0999999999768 984.0999999999768 1004.0999999999768 1024.0999999999767 1044.0999999999767 1064.0999999999767 1084.0999999999767 1104.0999999999767 1124.0999999999767 1144.0999999999767 1164.0999999999767 1184.0999999999767 1204.0999999999767 1224.0999999999767 1244.0999999999767 1264.0999999999767 1284.0999999999767 1304.0999999999767 1324.0999999999767 1344.0999999999767 1364.0999999999767 1384.0999999999767 1404.0999999999767 1424.0999999999767 1444.0999999999767 1464.0999999999767 1484.0999999999767 1504.0999999999767 1524.0999999999767 1544.0999999999767 1564.0999999999767 1584.0999999999767 1604.0999999999767 1624.0999999999767 1644.0999999999767 1664.0999999999767 1684.0999999999767 1704.0999999999767 1724.0999999999767 1744.0999999999767 1764.0999999999767 1784.0999999999767 1804.0999999999767 1824.0999999999767 1844.0999999999767 1864.0999999999767 1884.0999999999767 1904.0999999999767 1924.0999999999767 1944.0999999999767 1964.0999999999767 1984.0999999999767 2004.0999999999767 2024.0999999999767 2044.0999999999767 2064.0999999999767 2084.0999999999767 2104.0999999999767 2124.0999999999767 2144.0999999999767 2164.0999999999767 2184.0999999999767 2204.0999999999767 2224.0999999999767 2244.0999999999767 2264.099999999977 2284.099999999977 2304.099999999977 2324.099999999977 2344.099999999977 2364.099999999977 2384.099999999977 2404.099999999977 2424.099999999977 2444.099999999977
cb_07,5.0,enc_trial,stim,response,Miami trip,3135.899999952293,enc_trial,1.0,5.0,t_s_18_2,travel_shared,fold-a,first aid kit,7.0,competing,close,paired,t_s_18_2.jpg,,travel-b1,Iceland trip,Miami trip,sub-77,1.0,1.0,0.0,0.0,0.4972222222222222 0.4972222222222222 0.4972222222222222 0.4972222222222222 0.4972222222222222 0.4972222222222222 0.4972222222222222 0.4972222222222222 0.4972222222222222 0.4972222222222222 0.4972222222222222 0.4972222222222222 0.4972222222222222 0.4972222222222222 0.4972222222222222 0.4972222222222222 0.4972222222222222 0.4972222222222222 0.4972222222222222 0.4972222222222222 0.4972222222222222 0.4972222222222222 0.4972222222222222 0.4972222222222222 0.4972222222222222 0.4972222222222222 0.4972222222222222 0.4972222222222222 0.4965277777777778 0.49375 0.4868055555555556 0.4840277777777778 0.4840277777777778 0.4840277777777778 0.4840277777777778 0.4840277777777778 0.4840277777777778 0.4840277777777778 0.4840277777777778 0.4840277777777778 0.4840277777777778 0.4840277777777778 0.4840277777777778 0.4840277777777778 0.4840277777777778 0.4840277777777778 0.4840277777777778 0.4840277777777778 0.4840277777777778 0.4833333333333333 0.48125 0.4798611111111111 0.4763888888888889 0.4715277777777778 0.4652777777777778 0.4604166666666666 0.4520833333333333 0.44027777777777777 0.4298611111111112 0.4236111111111111 0.41875 0.4173611111111111 0.4180555555555556 0.42291666666666666 0.4291666666666665 0.4381944444444445 0.44375 0.4541666666666666 0.4611111111111112 0.46875 0.4715277777777778 0.4715277777777778 0.4715277777777778 0.4715277777777778 0.4715277777777778 0.4715277777777778 0.4715277777777778 0.4715277777777778 0.4715277777777778 0.4715277777777778 0.4715277777777778 0.4715277777777778 0.4715277777777778 0.4715277777777778 0.4715277777777778 0.4715277777777778 0.4715277777777778 0.4715277777777778 0.4715277777777778 0.4715277777777778 0.4715277777777778 0.4715277777777778 0.4715277777777778 0.46875 0.46875 0.4680555555555556 0.4666666666666667 0.4645833333333334 0.4645833333333334 0.4645833333333334 0.4645833333333334 0.4645833333333334 0.4645833333333334 0.4645833333333334 0.4645833333333334 0.4645833333333334 0.4618055555555556 0.4625 0.4708333333333333 0.4840277777777778 0.4944444444444445 0.5131944444444444 0.5354166666666667 0.5618055555555556 0.5965277777777778 0.6347222222222222 0.6652777777777777 0.7 0.7125 0.7347222222222223 0.7465277777777778 0.7534722222222222 0.7569444444444444 0.7583333333333333 0.7611111111111111 0.7680555555555556 0.775 0.7888888888888889 0.7993055555555556 0.8076388888888889 0.8138888888888889 0.8215277777777777 0.8270833333333333 0.83125 0.8333333333333334 0.8340277777777778 0.8347222222222223,0.8453703703703703 0.8453703703703703 0.8453703703703703 0.8453703703703703 0.8453703703703703 0.8453703703703703 0.8453703703703703 0.8453703703703703 0.8453703703703703 0.8453703703703703 0.8453703703703703 0.8453703703703703 0.8453703703703703 0.8453703703703703 0.8453703703703703 0.8453703703703703 0.8453703703703703 0.8453703703703703 0.8453703703703703 0.8453703703703703 0.8453703703703703 0.8453703703703703 0.8453703703703703 0.8453703703703703 0.8453703703703703 0.8453703703703703 0.8453703703703703 0.8453703703703703 0.8425925925925926 0.8361111111111111 0.8268518518518518 0.8231481481481482 0.8231481481481482 0.8231481481481482 0.8231481481481482 0.8231481481481482 0.8231481481481482 0.8231481481481482 0.8231481481481482 0.8231481481481482 0.8231481481481482 0.8231481481481482 0.8231481481481482 0.8231481481481482 0.8231481481481482 0.8231481481481482 0.8231481481481482 0.8231481481481482 0.8231481481481482 0.8231481481481482 0.8157407407407408 0.8101851851851851 0.8 0.7888888888888889 0.775 0.762962962962963 0.7407407407407407 0.7083333333333333 0.6787037037037037 0.6564814814814814 0.6268518518518518 0.6 0.5777777777777777 0.5583333333333333 0.5444444444444445 0.5305555555555556 0.5240740740740741 0.5148148148148148 0.5092592592592593 0.5037037037037038 0.5027777777777778 0.5027777777777778 0.5027777777777778 0.5027777777777778 0.5027777777777778 0.5027777777777778 0.5037037037037038 0.5037037037037038 0.5037037037037038 0.5037037037037038 0.5037037037037038 0.5037037037037038 0.5037037037037038 0.5037037037037038 0.5037037037037038 0.5037037037037038 0.5037037037037038 0.5037037037037038 0.5037037037037038 0.5037037037037038 0.5037037037037038 0.5037037037037038 0.5046296296296297 0.5055555555555555 0.5055555555555555 0.5064814814814815 0.5064814814814815 0.5064814814814815 0.5064814814814815 0.5064814814814815 0.5064814814814815 0.5064814814814815 0.5064814814814815 0.5064814814814815 0.5064814814814815 0.5064814814814815 0.5111111111111111 0.5101851851851852 0.500925925925926 0.487037037037037 0.4740740740740741 0.45 0.4203703703703704 0.3851851851851852 0.34444444444444444 0.3055555555555556 0.2787037037037037 0.2509259259259259 0.2425925925925925 0.2277777777777777 0.22129629629629632 0.21851851851851856 0.21851851851851856 0.21851851851851856 0.21944444444444444 0.21944444444444444 0.21944444444444444 0.21666666666666667 0.2129629629629629 0.21018518518518514 0.2064814814814815 0.20092592592592595 0.1953703703703704 0.19166666666666665 0.1898148148148148 0.18888888888888888 0.18888888888888888,312.5999999999767 332.5999999999767 352.59999999997666 372.59999999997666 392.59999999997666 412.59999999997666 432.59999999997666 452.59999999997666 472.59999999997666 492.59999999997666 512.5999999999766 532.5999999999766 552.5999999999766 572.5999999999767 592.5999999999767 612.5999999999767 632.5999999999767 652.5999999999767 672.5999999999767 692.5999999999768 712.5999999999768 732.5999999999768 752.5999999999768 772.5999999999768 792.5999999999768 812.5999999999768 832.5999999999768 852.5999999999768 872.5999999999768 892.5999999999768 912.5999999999768 932.5999999999768 952.5999999999768 972.5999999999768 992.5999999999768 1012.5999999999768 1032.5999999999767 1052.5999999999767 1072.5999999999767 1092.5999999999767 1112.5999999999767 1132.5999999999767 1152.5999999999767 1172.5999999999767 1192.5999999999767 1212.5999999999767 1232.5999999999767 1252.5999999999767 1272.5999999999767 1292.5999999999767 1312.5999999999767 1332.5999999999767 1352.5999999999767 1372.5999999999767 1392.5999999999767 1412.5999999999767 1432.5999999999767 1452.5999999999767 1472.5999999999767 1492.5999999999767 1512.5999999999767 1532.5999999999767 1552.5999999999767 1572.5999999999767 1592.5999999999767 1612.5999999999767 1632.5999999999767 1652.5999999999767 1672.5999999999767 1692.5999999999767 1712.5999999999767 1732.5999999999767 1752.5999999999767 1772.5999999999767 1792.5999999999767 1812.5999999999767 1832.5999999999767 1852.5999999999767 1872.5999999999767 1892.5999999999767 1912.5999999999767 1932.5999999999767 1952.5999999999767 1972.5999999999767 1992.5999999999767 2012.5999999999767 2032.5999999999767 2052.5999999999767 2072.5999999999767 2092.5999999999767 2112.5999999999767 2132.5999999999767 2152.5999999999767 2172.5999999999767 2192.5999999999767 2212.5999999999767 2232.5999999999767 2252.599999999977 2272.599999999977 2292.599999999977 2312.599999999977 2332.599999999977 2352.599999999977 2372.599999999977 2392.599999999977 2412.599999999977 2432.599999999977 2452.599999999977 2472.599999999977 2492.599999999977 2512.599999999977 2532.599999999977 2552.599999999977 2572.599999999977 2592.599999999977 2612.599999999977 2632.599999999977 2652.599999999977 2672.599999999977 2692.599999999977 2712.599999999977 2732.599999999977 2752.5999999999767 2772.5999999999767 2792.5999999999767 2812.5999999999767 2832.5999999999767 2852.5999999999767 2872.5999999999767 2892.5999999999767 2912.5999999999767 2932.5999999999767 2952.5999999999767 2972.5999999999767 2992.5999999999767 3012.5999999999767 3032.5999999999767
cb_07,6.0,enc_trial,stim,response,Miami trip,2094.500000095344,enc_trial,1.0,6.0,t_m_10_1,travel_Miami,fold-e-single,tanktop,7.0,unique,,single,t_m_10_1.jpg,Miami,travel-b1,Iceland trip,Miami trip,sub-77,1.0,,1.0,,0.4895833333333333 0.4888888888888889 0.4881944444444444 0.4875 0.4875 0.4875 0.4868055555555556 0.4868055555555556 0.4868055555555556 0.4868055555555556 0.4868055555555556 0.4868055555555556 0.4868055555555556 0.4868055555555556 0.4868055555555556 0.4868055555555556 0.4868055555555556 0.4868055555555556 0.4868055555555556 0.4868055555555556 0.4868055555555556 0.4868055555555556 0.4868055555555556 0.4868055555555556 0.4868055555555556 0.4868055555555556 0.4868055555555556 0.4868055555555556 0.4868055555555556 0.4868055555555556 0.4868055555555556 0.4868055555555556 0.4881944444444444 0.4930555555555556 0.4944444444444445 0.4944444444444445 0.4944444444444445 0.4944444444444445 0.4944444444444445 0.4944444444444445 0.4944444444444445 0.4944444444444445 0.4944444444444445 0.4944444444444445 0.4944444444444445 0.4944444444444445 0.4944444444444445 0.4944444444444445 0.4944444444444445 0.4944444444444445 0.4944444444444445 0.4944444444444445 0.4944444444444445 0.4944444444444445 0.4951388888888889 0.5 0.5069444444444444 0.5180555555555556 0.5333333333333333 0.5444444444444444 0.5625 0.5847222222222223 0.6118055555555556 0.6444444444444445 0.6756944444444445 0.7048611111111112 0.7291666666666666 0.7375 0.7451388888888889 0.7513888888888889 0.75625 0.7604166666666666 0.7645833333333333 0.7708333333333334 0.7784722222222222 0.7826388888888889 0.7854166666666667 0.7888888888888889 0.7916666666666666 0.7958333333333333 0.8041666666666667 0.8090277777777778 0.8222222222222222 0.8340277777777778 0.8402777777777778 0.84375 0.84375 0.84375 0.84375 0.84375 0.8444444444444444,0.8333333333333334 0.8342592592592593 0.8351851851851853 0.8361111111111111 0.837037037037037 0.837037037037037 0.837962962962963 0.837962962962963 0.837962962962963 0.837962962962963 0.837962962962963 0.837962962962963 0.837962962962963 0.837962962962963 0.837962962962963 0.837962962962963 0.837962962962963 0.837962962962963 0.837962962962963 0.837962962962963 0.837962962962963 0.837962962962963 0.837962962962963 0.837962962962963 0.837962962962963 0.837037037037037 0.837037037037037 0.837037037037037 0.837037037037037 0.8361111111111111 0.8324074074074074 0.8268518518518518 0.8203703703703704 0.8175925925925926 0.8157407407407408 0.8157407407407408 0.8157407407407408 0.8157407407407408 0.8157407407407408 0.8157407407407408 0.8157407407407408 0.8157407407407408 0.8157407407407408 0.8157407407407408 0.8157407407407408 0.8157407407407408 0.8157407407407408 0.8157407407407408 0.8157407407407408 0.8157407407407408 0.8157407407407408 0.8157407407407408 0.8157407407407408 0.8148148148148149 0.8083333333333333 0.7953703703703704 0.7777777777777778 0.7527777777777778 0.7231481481481481 0.700925925925926 0.6657407407407407 0.6277777777777778 0.5898148148148148 0.5481481481481482 0.5092592592592593 0.4731481481481481 0.4398148148148148 0.425 0.4092592592592592 0.3898148148148149 0.3694444444444445 0.35462962962962963 0.3398148148148148 0.3222222222222222 0.3027777777777778 0.2898148148148149 0.2842592592592592 0.2759259259259259 0.2694444444444445 0.2620370370370371 0.2490740740740741 0.2407407407407407 0.2222222222222222 0.2046296296296296 0.1962962962962963 0.1907407407407408 0.1907407407407408 0.1907407407407408 0.1907407407407408 0.1907407407407408 0.1907407407407408,270.5999999999767 290.5999999999767 310.5999999999767 330.5999999999767 350.59999999997666 370.59999999997666 390.59999999997666 410.59999999997666 430.59999999997666 450.59999999997666 470.59999999997666 490.59999999997666 510.59999999997666 530.5999999999766 550.5999999999766 570.5999999999767 590.5999999999767 610.5999999999767 630.5999999999767 650.5999999999767 670.5999999999767 690.5999999999768 710.5999999999768 730.5999999999768 750.5999999999768 770.5999999999768 790.5999999999768 810.5999999999768 830.5999999999768 850.5999999999768 870.5999999999768 890.5999999999768 910.5999999999768 930.5999999999768 950.5999999999768 970.5999999999768 990.5999999999768 1010.5999999999768 1030.5999999999767 1050.5999999999767 1070.5999999999767 1090.5999999999767 1110.5999999999767 1130.5999999999767 1150.5999999999767 1170.5999999999767 1190.5999999999767 1210.5999999999767 1230.5999999999767 1250.5999999999767 1270.5999999999767 1290.5999999999767 1310.5999999999767 1330.5999999999767 1350.5999999999767 1370.5999999999767 1390.5999999999767 1410.5999999999767 1430.5999999999767 1450.5999999999767 1470.5999999999767 1490.5999999999767 1510.5999999999767 1530.5999999999767 1550.5999999999767 1570.5999999999767 1590.5999999999767 1610.5999999999767 1630.5999999999767 1650.5999999999767 1670.5999999999767 1690.5999999999767 1710.5999999999767 1730.5999999999767 1750.5999999999767 1770.5999999999767 1790.5999999999767 1810.5999999999767 1830.5999999999767 1850.5999999999767 1870.5999999999767 1890.5999999999767 1910.5999999999767 1930.5999999999767 1950.5999999999767 1970.5999999999767 1990.5999999999767 2010.5999999999767 2030.5999999999767 2050.5999999999767 2070.5999999999767
cb_07,7.0,enc_trial,stim,response,miss,4999.099999999977,enc_trial,1.0,7.0,t_s_21_1,travel_shared,fold-b,umbrella,7.0,competing,far,paired,t_s_21_1.jpg,,travel-b1,Iceland trip,Miami trip,sub-77,0.0,0.0,0.0,1.0,,,
cb_07,8.0,enc_trial,stim,response,Miami trip,1441.0000001430747,enc_trial,1.0,8.0,t_m_06_2,travel_Miami,fold-c,handheld fan,7.0,unique,close,paired,t_m_06_2.jpg,Miami,travel-b1,Iceland trip,Miami trip,sub-77,0.0,0.0,1.0,1.0,0.5152777777777777 0.5152777777777777 0.5152777777777777 0.5152777777777777 0.5152777777777777 0.5131944444444444 0.5104166666666666 0.5076388888888889 0.5027777777777778 0.4979166666666667 0.4861111111111111 0.46875 0.44583333333333336 0.4201388888888889 0.40347222222222223 0.3972222222222222 0.4 0.4083333333333333 0.4375 0.4826388888888889 0.5381944444444444 0.6013888888888889 0.6736111111111112 0.7458333333333333 0.8104166666666667 0.8451388888888889 0.8520833333333333 0.8534722222222222 0.8472222222222222 0.8347222222222223 0.8194444444444444 0.8055555555555556 0.7965277777777777 0.7902777777777777 0.7861111111111111 0.7833333333333333 0.7833333333333333 0.7840277777777778 0.7868055555555555 0.7909722222222222 0.7993055555555556 0.8076388888888889 0.8125 0.8194444444444444 0.8270833333333333 0.8340277777777778 0.8381944444444445,0.8222222222222222 0.8222222222222222 0.8203703703703704 0.8185185185185185 0.8138888888888889 0.8101851851851851 0.8046296296296296 0.799074074074074 0.7898148148148147 0.7814814814814814 0.7620370370370371 0.7361111111111112 0.7037037037037037 0.6694444444444445 0.6314814814814815 0.5944444444444444 0.5518518518518518 0.5212962962962964 0.4703703703703703 0.4138888888888889 0.3537037037037037 0.2833333333333333 0.20925925925925928 0.13981481481481484 0.0907407407407408 0.0712962962962963 0.06944444444444442 0.0712962962962963 0.0805555555555556 0.09351851851851856 0.11018518518518516 0.12407407407407413 0.1342592592592593 0.1444444444444445 0.1527777777777778 0.1611111111111111 0.1620370370370371 0.1620370370370371 0.1592592592592592 0.15462962962962967 0.14814814814814814 0.1444444444444445 0.1435185185185185 0.1435185185185185 0.1435185185185185 0.1435185185185185 0.1435185185185185,513.8000000000466 533.8000000000466 553.8000000000466 573.8000000000466 593.8000000000466 613.8000000000466 633.8000000000466 653.8000000000466 673.8000000000466 693.8000000000467 713.8000000000467 733.8000000000467 753.8000000000467 773.8000000000467 793.8000000000467 813.8000000000467 833.8000000000467 853.8000000000467 873.8000000000467 893.8000000000467 913.8000000000467 933.8000000000467 953.8000000000467 973.8000000000467 993.8000000000467 1013.8000000000467 1033.8000000000468 1053.8000000000468 1073.8000000000468 1093.8000000000468 1113.8000000000468 1133.8000000000466 1153.8000000000466 1173.8000000000466 1193.8000000000466 1213.8000000000466 1233.8000000000466 1253.8000000000466 1273.8000000000466 1293.8000000000466 1313.8000000000466 1333.8000000000466 1353.8000000000466 1373.8000000000466 1393.8000000000463 1413.8000000000463 1433.8000000000463
cb_07,9.0,enc_trial,stim,response,Miami trip,1522.4000000476956,enc_trial,1.0,9.0,t_s_22_1,travel_shared,fold-a,belt,7.0,competing,close,paired,t_s_22_1.jpg,,travel-b1,Iceland trip,Miami trip,sub-77,1.0,1.0,0.0,0.0,0.4958333333333334 0.4958333333333334 0.4958333333333334 0.4965277777777778 0.4965277777777778 0.4965277777777778 0.4965277777777778 0.4965277777777778 0.4965277777777778 0.4965277777777778 0.4965277777777778 0.4965277777777778 0.4965277777777778 0.4965277777777778 0.4965277777777778 0.4965277777777778 0.4951388888888889 0.4944444444444445 0.4930555555555556 0.4930555555555556 0.4944444444444445 0.4986111111111111 0.5034722222222222 0.5111111111111111 0.5222222222222223 0.5416666666666666 0.5611111111111111 0.5923611111111111 0.6277777777777778 0.6638888888888889 0.7020833333333333 0.7284722222222222 0.7520833333333333 0.7715277777777778 0.78125 0.7868055555555555 0.7868055555555555 0.7868055555555555 0.7868055555555555 0.7868055555555555 0.7868055555555555 0.7868055555555555 0.7868055555555555 0.7868055555555555 0.7895833333333333 0.7958333333333333 0.8020833333333334 0.8083333333333333 0.8125 0.8159722222222222 0.8208333333333333 0.8243055555555555 0.8284722222222223 0.83125 0.8333333333333334 0.8354166666666667 0.8375 0.8388888888888889 0.8395833333333333 0.8402777777777778 0.8402777777777778 0.8409722222222222,0.8453703703703703 0.8453703703703703 0.8453703703703703 0.8453703703703703 0.8453703703703703 0.8453703703703703 0.8453703703703703 0.8453703703703703 0.8453703703703703 0.8453703703703703 0.8453703703703703 0.8453703703703703 0.8444444444444444 0.8416666666666667 0.8398148148148148 0.837037037037037 0.8324074074074074 0.8277777777777777 0.8148148148148149 0.7972222222222223 0.7666666666666666 0.7305555555555556 0.6962962962962963 0.6583333333333333 0.6222222222222222 0.5814814814814815 0.5490740740740739 0.5037037037037038 0.4472222222222222 0.3842592592592593 0.31666666666666665 0.2611111111111111 0.21203703703703705 0.1703703703703704 0.14907407407407405 0.1351851851851852 0.1333333333333333 0.1333333333333333 0.1333333333333333 0.1333333333333333 0.1333333333333333 0.1333333333333333 0.1333333333333333 0.1333333333333333 0.1333333333333333 0.1333333333333333 0.1333333333333333 0.1333333333333333 0.1342592592592593 0.13703703703703707 0.13888888888888884 0.14074074074074072 0.1425925925925926 0.14537037037037034 0.14629629629629626 0.14814814814814814 0.14907407407407405 0.15000000000000002 0.1509259259259259 0.1509259259259259 0.1518518518518519 0.1518518518518519,277.70000000001164 297.70000000001164 317.70000000001164 337.70000000001164 357.7000000000116 377.7000000000117 397.7000000000117 417.7000000000117 437.7000000000117 457.7000000000117 477.7000000000117 497.7000000000117 517.7000000000116 537.7000000000116 557.7000000000116 577.7000000000116 597.7000000000116 617.7000000000116 637.7000000000116 657.7000000000116 677.7000000000116 697.7000000000116 717.7000000000116 737.7000000000116 757.7000000000116 777.7000000000116 797.7000000000116 817.7000000000116 837.7000000000116 857.7000000000116 877.7000000000116 897.7000000000116 917.7000000000116 937.7000000000116 957.7000000000116 977.7000000000116 997.7000000000116 1017.7000000000116 1037.7000000000116 1057.7000000000116 1077.7000000000116 1097.7000000000116 1117.7000000000116 1137.7000000000114 1157.7000000000114 1177.7000000000114 1197.7000000000114 1217.7000000000114 1237.7000000000114 1257.7000000000114 1277.7000000000114 1297.7000000000114 1317.7000000000114 1337.7000000000114 1357.7000000000114 1377.7000000000116 1397.7000000000116 1417.7000000000116 1437.7000000000116 1457.7000000000116 1477.7000000000116 1497.7000000000116
cb_07,10.0,enc_trial,stim,response,Miami trip,1051.4000000953674,enc_trial,1.0,10.0,t_m_03_1,travel_Miami,fold-c,wetsuit,7.0,unique,close,paired,t_m_03_1.jpg,Miami,travel-b1,Iceland trip,Miami trip,sub-77,1.0,1.0,1.0,1.0,0.4916666666666666 0.4916666666666666 0.4916666666666666 0.4951388888888889 0.5069444444444444 0.5277777777777778 0.5520833333333334 0.5854166666666667 0.6333333333333333 0.6701388888888888 0.7236111111111111 0.7694444444444445 0.8076388888888889 0.8347222222222223 0.8513888888888889 0.8604166666666667 0.8645833333333334 0.8645833333333334 0.8645833333333334 0.8673611111111111 0.8736111111111111 0.8784722222222222 0.8791666666666667 0.8805555555555555 0.88125 0.88125,0.8435185185185186 0.8398148148148148 0.8314814814814815 0.8148148148148149 0.7787037037037037 0.7231481481481481 0.6537037037037037 0.5629629629629629 0.4490740740740741 0.3740740740740741 0.2796296296296297 0.2148148148148148 0.17500000000000004 0.15648148148148144 0.15000000000000002 0.14907407407407405 0.14907407407407405 0.14907407407407405 0.14907407407407405 0.14074074074074072 0.12777777777777774 0.1148148148148148 0.11388888888888893 0.11388888888888893 0.1148148148148148 0.1166666666666667,541.5 561.5 581.5 601.5 621.5 641.5 661.5 681.5 701.5 721.5 741.5 761.5 781.5 801.5 821.5 841.5 861.5 881.5 901.5 921.5 941.5 961.5 981.5 1001.5 1021.5 1041.5
cb_07,11.0,enc_trial,stim,response,Iceland trip,1224.500000095344,enc_trial,1.0,11.0,t_i_06_1,travel_Iceland,fold-d,knit hat,7.0,unique,far,paired,t_i_06_1.jpg,Iceland,travel-b1,Iceland trip,Miami trip,sub-77,1.0,1.0,1.0,1.0,0.49375 0.49375 0.4944444444444445 0.4951388888888889 0.4930555555555556 0.4861111111111111 0.4743055555555555 0.4576388888888889 0.4381944444444445 0.4215277777777778 0.3930555555555556 0.3618055555555556 0.3326388888888889 0.3138888888888889 0.2965277777777778 0.2763888888888889 0.2548611111111111 0.2395833333333333 0.2333333333333333 0.22291666666666668 0.2125 0.20208333333333334 0.1930555555555556 0.18333333333333326 0.17430555555555555 0.1638888888888889 0.15833333333333333 0.14583333333333334 0.13472222222222222 0.13402777777777775,0.8564814814814815 0.8537037037037037 0.8462962962962963 0.837037037037037 0.8240740740740741 0.8064814814814815 0.7814814814814814 0.7518518518518519 0.7175925925925926 0.6888888888888889 0.6425925925925926 0.5944444444444444 0.5472222222222223 0.500925925925926 0.4546296296296296 0.412962962962963 0.3768518518518519 0.35 0.33518518518518514 0.3138888888888889 0.2953703703703704 0.2685185185185185 0.2351851851851852 0.20370370370370366 0.18611111111111112 0.17222222222222228 0.16388888888888886 0.1527777777777778 0.14814814814814814 0.14814814814814814,659.6999999999534 679.6999999999534 699.6999999999533 719.6999999999533 739.6999999999533 759.6999999999533 779.6999999999533 799.6999999999533 819.6999999999533 839.6999999999533 859.6999999999533 879.6999999999533 899.6999999999533 919.6999999999533 939.6999999999533 959.6999999999533 979.6999999999533 999.6999999999533 1019.6999999999533 1039.6999999999532 1059.6999999999532 1079.6999999999532 1099.6999999999532 1119.6999999999532 1139.6999999999534 1159.6999999999534 1179.6999999999534 1199.6999999999534 1219.6999999999534 1239.6999999999534
cb_07,12.0,enc_trial,stim,response,Iceland trip,1818.000000047672,enc_trial,1.0,12.0,t_m_06_1,travel_Miami,fold-c,handheld fan,7.0,unique,close,paired,t_m_06_1.jpg,Miami,travel-b1,Iceland trip,Miami trip,sub-77,0.0,0.0,1.0,1.0,0.3472222222222222 0.31805555555555554 0.2826388888888889 0.2458333333333333 0.21180555555555555 0.18819444444444444 0.17152777777777778 0.1638888888888889 0.1638888888888889 0.16597222222222222 0.16597222222222222 0.16597222222222222 0.16597222222222222 0.16597222222222222 0.16597222222222222 0.16597222222222222 0.16597222222222222 0.16597222222222222 0.16597222222222222 0.16597222222222222 0.16597222222222222 0.16597222222222222 0.16597222222222222 0.16597222222222222 0.16597222222222222 0.16597222222222222 0.16527777777777775 0.16458333333333333 0.16666666666666666 0.17777777777777778 0.19722222222222224 0.2263888888888889 0.27152777777777776 0.32916666666666666 0.3680555555555556 0.4270833333333333 0.4805555555555556 0.5194444444444445 0.5479166666666667 0.5680555555555555 0.5805555555555556 0.5881944444444445 0.5930555555555556 0.60625 0.6236111111111111 0.6493055555555556 0.6736111111111112 0.6888888888888889 0.7041666666666667 0.71875 0.7256944444444444 0.7291666666666666 0.7340277777777777 0.7409722222222223 0.7513888888888889 0.7625 0.7680555555555556 0.7722222222222223 0.775 0.7777777777777778 0.7875 0.8 0.8201388888888889 0.8409722222222222 0.8590277777777777 0.8645833333333334 0.8625 0.8430555555555556 0.8166666666666667 0.7395833333333334 0.6263888888888889 0.5013888888888889 0.37222222222222223 0.25972222222222224 0.175 0.12361111111111113 0.10694444444444444 0.10138888888888888 0.10069444444444443 0.10347222222222224 0.10486111111111113 0.10208333333333333 0.09791666666666668 0.09097222222222222 0.08541666666666667 0.07916666666666666 0.07361111111111111 0.06666666666666668 0.06597222222222222 0.06944444444444445 0.07708333333333334 0.08055555555555556,0.6416666666666666 0.6046296296296296 0.5592592592592592 0.5092592592592593 0.4592592592592593 0.4175925925925926 0.3851851851851852 0.3629629629629629 0.3564814814814815 0.3555555555555555 0.35185185185185186 0.35092592592592603 0.35092592592592603 0.35092592592592603 0.35092592592592603 0.35092592592592603 0.35092592592592603 0.35092592592592603 0.35092592592592603 0.35092592592592603 0.35092592592592603 0.35092592592592603 0.35092592592592603 0.35092592592592603 0.35092592592592603 0.35092592592592603 0.3481481481481481 0.337037037037037 0.3185185185185185 0.2972222222222223 0.2759259259259259 0.2509259259259259 0.225925925925926 0.2046296296296296 0.1953703703703704 0.1898148148148148 0.1898148148148148 0.1898148148148148 0.19166666666666665 0.19351851851851853 0.1953703703703704 0.1962962962962963 0.1972222222222222 0.1953703703703704 0.18796296296296305 0.1787037037037037 0.17222222222222228 0.1694444444444444 0.16296296296296298 0.15462962962962967 0.1509259259259259 0.15000000000000002 0.14722222222222225 0.14629629629629626 0.1435185185185185 0.1435185185185185 0.14537037037037034 0.14722222222222225 0.14814814814814814 0.14814814814814814 0.14814814814814814 0.14629629629629626 0.1435185185185185 0.14074074074074072 0.13888888888888884 0.13888888888888884 0.13981481481481484 0.1444444444444445 0.1518518518518519 0.16759259259259265 0.17962962962962958 0.18240740740740746 0.18333333333333326 0.18425925925925926 0.18333333333333326 0.17500000000000004 0.1694444444444444 0.16481481481481486 0.16296296296296298 0.15833333333333333 0.15370370370370368 0.15000000000000002 0.14722222222222225 0.14722222222222225 0.14814814814814814 0.1509259259259259 0.15370370370370368 0.1592592592592592 0.1620370370370371 0.16759259259259265 0.17129629629629628 0.17129629629629628,0.0 20.0 40.0 60.0 80.0 100.0 120.0 140.0 160.0 180.0 200.0 220.0 240.0 260.0 280.0 300.0 320.0 340.0 360.0 380.0 400.0 420.0 440.0 460.0 480.0 500.0 520.0 540.0 560.0 580.0 600.0 620.0 640.0 660.0 680.0 700.0 720.0 740.0 760.0 780.0 800.0 820.0 840.0 860.0 880.0 900.0 920.0 940.0 960.0 980.0 1000.0 1020.0 1040.0 1060.0 1080.0 1100.0 1120.0 1140.0 1160.0 1180.0 1200.0 1220.0 1240.0 1260.0 1280.0 1300.0 1320.0 1340.0 1360.0 1380.0 1400.0 1420.0 1440.0 1460.0 1480.0 1500.0 1520.0 1540.0 1560.0 1580.0 1600.0 1620.0 1640.0 1660.0 1680.0 1700.0 1720.0 1740.0 1760.0 1780.0 1800.0 1820.0
cb_07,13.0,enc_trial,stim,response,Miami trip,1134.600000047707,enc_trial,1.0,13.0,t_m_03_2,travel_Miami,fold-c,wetsuit,7.0,unique,close,paired,t_m_03_2.jpg,Miami,travel-b1,Iceland trip,Miami trip,sub-77,1.0,1.0,1.0,1.0,0.4972222222222222 0.4972222222222222 0.4972222222222222 0.4972222222222222 0.4993055555555556 0.5048611111111111 0.5236111111111111 0.5555555555555556 0.6138888888888889 0.6611111111111111 0.7465277777777778 0.83125 0.9131944444444444 0.9708333333333332 1.0041666666666669 1.0097222222222222 1.00625 1.0013888888888889 0.99375 0.9895833333333334 0.9854166666666668 0.98125 0.9722222222222222 0.9590277777777778 0.9458333333333332 0.9381944444444444 0.9347222222222222 0.9305555555555556 0.9270833333333334 0.9236111111111112 0.9208333333333332 0.9166666666666666 0.9145833333333332,0.837962962962963 0.8361111111111111 0.8287037037037037 0.812962962962963 0.787037037037037 0.7574074074074074 0.700925925925926 0.6277777777777778 0.5268518518518519 0.462037037037037 0.35462962962962963 0.26481481481481484 0.18518518518518529 0.1333333333333333 0.10185185185185186 0.09259259259259256 0.09259259259259256 0.09259259259259256 0.09629629629629632 0.09907407407407408 0.10185185185185186 0.10648148148148152 0.1157407407407407 0.12962962962962965 0.14166666666666672 0.14629629629629626 0.14629629629629626 0.14629629629629626 0.1435185185185185 0.14074074074074072 0.13796296296296295 0.13611111111111107 0.1351851851851852,458.2000000000117 478.2000000000117 498.2000000000117 518.2000000000116 538.2000000000116 558.2000000000116 578.2000000000116 598.2000000000116 618.2000000000116 638.2000000000116 658.2000000000116 678.2000000000116 698.2000000000116 718.2000000000116 738.2000000000116 758.2000000000116 778.2000000000116 798.2000000000116 818.2000000000116 838.2000000000116 858.2000000000116 878.2000000000116 898.2000000000116 918.2000000000116 938.2000000000116 958.2000000000116 978.2000000000116 998.2000000000116 1018.2000000000116 1038.2000000000116 1058.2000000000116 1078.2000000000116 1098.2000000000116
cb_07,14.0,enc_trial,stim,response,Iceland trip,1000.9000001430395,enc_trial,1.0,14.0,t_s_22_2,travel_shared,fold-a,belt,7.0,competing,close,paired,t_s_22_2.jpg,,travel-b1,Iceland trip,Miami trip,sub-77,1.0,1.0,0.0,0.0,0.4972222222222222 0.4986111111111111 0.4986111111111111 0.4986111111111111 0.4986111111111111 0.4986111111111111 0.4986111111111111 0.4986111111111111 0.4986111111111111 0.4986111111111111 0.4986111111111111 0.4986111111111111 0.4986111111111111 0.4986111111111111 0.4986111111111111 0.5 0.5020833333333333 0.5041666666666667 0.50625 0.5083333333333333 0.5090277777777777 0.50625 0.4958333333333334 0.4729166666666666 0.4388888888888889 0.3930555555555556 0.3583333333333333 0.3104166666666667 0.26319444444444445 0.2298611111111111 0.21041666666666667 0.1951388888888889 0.1868055555555556 0.18055555555555555 0.17569444444444446 0.16805555555555554 0.1625 0.15833333333333333 0.15416666666666667 0.15347222222222226 0.1527777777777778,0.8398148148148148 0.837962962962963 0.837962962962963 0.837962962962963 0.837962962962963 0.837962962962963 0.837962962962963 0.837962962962963 0.837962962962963 0.837962962962963 0.837962962962963 0.837962962962963 0.837962962962963 0.837962962962963 0.837962962962963 0.837962962962963 0.8296296296296296 0.8222222222222222 0.8101851851851851 0.799074074074074 0.7833333333333333 0.7601851851851852 0.725 0.6787037037037037 0.6277777777777778 0.5694444444444444 0.5287037037037037 0.4685185185185186 0.4046296296296297 0.35185185185185186 0.30925925925925923 0.275 0.24722222222222226 0.225 0.2055555555555556 0.18148148148148147 0.16666666666666666 0.15740740740740744 0.14814814814814814 0.1435185185185185 0.14074074074074072,159.79999999998842 179.79999999998842 199.79999999998842 219.79999999998842 239.79999999998842 259.7999999999884 279.7999999999884 299.79999999998836 319.79999999998836 339.79999999998836 359.7999999999884 379.7999999999884 399.7999999999884 419.7999999999884 439.7999999999884 459.7999999999884 479.7999999999884 499.7999999999884 519.7999999999884 539.7999999999884 559.7999999999884 579.7999999999884 599.7999999999884 619.7999999999884 639.7999999999884 659.7999999999884 679.7999999999884 699.7999999999884 719.7999999999884 739.7999999999884 759.7999999999884 779.7999999999884 799.7999999999884 819.7999999999884 839.7999999999884 859.7999999999884 879.7999999999884 899.7999999999884 919.7999999999884 939.7999999999884 959.7999999999884
cb_07,15.0,enc_trial,stim,response,Miami trip,1071.600000047707,enc_trial,1.0,15.0,t_m_05_1,travel_Miami,fold-d,sunscreen,7.0,unique,far,paired,t_m_05_1.jpg,Miami,travel-b1,Iceland trip,Miami trip,sub-77,0.0,0.0,0.0,1.0,0.4972222222222222 0.4972222222222222 0.5027777777777778 0.51875 0.5458333333333333 0.5763888888888888 0.6118055555555556 0.6604166666666667 0.7111111111111111 0.75 0.8 0.83125 0.8472222222222222 0.8513888888888889 0.8513888888888889 0.8513888888888889 0.8506944444444444 0.8506944444444444 0.8506944444444444 0.85 0.8465277777777778 0.8430555555555556 0.8402777777777778 0.8395833333333333 0.8395833333333333,0.8592592592592593 0.8518518518518519 0.8314814814814815 0.7842592592592592 0.7064814814814815 0.6138888888888889 0.512962962962963 0.4018518518518519 0.29814814814814816 0.22685185185185186 0.14629629629629626 0.10185185185185186 0.08333333333333337 0.07870370370370372 0.07870370370370372 0.07870370370370372 0.07870370370370372 0.07870370370370372 0.07870370370370372 0.07870370370370372 0.08148148148148149 0.0888888888888889 0.0981481481481481 0.10555555555555553 0.10648148148148152,597.2000000000116 617.2000000000116 637.2000000000116 657.2000000000116 677.2000000000116 697.2000000000116 717.2000000000116 737.2000000000116 757.2000000000116 777.2000000000116 797.2000000000116 817.2000000000116 837.2000000000116 857.2000000000116 877.2000000000116 897.2000000000116 917.2000000000116 937.2000000000116 957.2000000000116 977.2000000000116 997.2000000000116 1017.2000000000116 1037.2000000000116 1057.2000000000116 1077.2000000000116
cb_07,16.0,enc_trial,stim,response,Miami trip,1400.4000000953674,enc_trial,1.0,16.0,t_s_06_2,travel_shared,fold-b,luggage,7.0,competing,far,paired,t_s_06_2.jpg,,travel-b1,Iceland trip,Miami trip,sub-77,1.0,1.0,0.0,0.0,0.4916666666666666 0.4895833333333333 0.4826388888888889 0.4763888888888889 0.4631944444444445 0.4444444444444444 0.4173611111111111 0.3770833333333333 0.3472222222222222 0.33194444444444443 0.3159722222222222 0.29097222222222224 0.2611111111111111 0.23541666666666666 0.2243055555555556 0.22291666666666668 0.23680555555555555 0.25555555555555554 0.2930555555555556 0.3597222222222222 0.4451388888888889 0.5284722222222222 0.5861111111111111 0.6118055555555556 0.6180555555555556 0.6201388888888889 0.6243055555555556 0.6416666666666667 0.6736111111111112 0.7111111111111111 0.7368055555555556 0.75 0.7541666666666667 0.7555555555555555 0.75625 0.7590277777777777 0.7638888888888888 0.7715277777777778 0.7777777777777778 0.7875 0.7979166666666667 0.8083333333333333 0.8215277777777777 0.8326388888888889 0.8479166666666667 0.8527777777777777,0.8351851851851853 0.8314814814814815 0.8194444444444444 0.8074074074074074 0.775 0.7324074074074074 0.6787037037037037 0.6055555555555556 0.5287037037037037 0.4694444444444445 0.3907407407407407 0.32685185185185184 0.2805555555555556 0.2398148148148148 0.21203703703703705 0.1962962962962963 0.18425925925925926 0.17962962962962958 0.17407407407407405 0.1592592592592592 0.13796296296296295 0.12314814814814813 0.1166666666666667 0.1157407407407407 0.1157407407407407 0.11296296296296293 0.1074074074074074 0.09259259259259256 0.07592592592592595 0.062962962962963 0.06111111111111112 0.06574074074074078 0.0712962962962963 0.07499999999999996 0.07870370370370372 0.08240740740740737 0.08611111111111114 0.0907407407407408 0.0972222222222222 0.10462962962962964 0.11296296296296293 0.11851851851851848 0.12222222222222225 0.12222222222222225 0.12222222222222225 0.12407407407407413,478.90000000002334 498.90000000002334 518.9000000000234 538.9000000000234 558.9000000000234 578.9000000000233 598.9000000000233 618.9000000000233 638.9000000000233 658.9000000000233 678.9000000000233 698.9000000000232 718.9000000000232 738.9000000000232 758.9000000000232 778.9000000000232 798.9000000000232 818.9000000000232 838.9000000000232 858.9000000000232 878.9000000000232 898.9000000000232 918.9000000000232 938.9000000000232 958.9000000000232 978.9000000000232 998.9000000000232 1018.9000000000232 1038.9000000000233 1058.9000000000233 1078.9000000000233 1098.9000000000233 1118.9000000000233 1138.9000000000233 1158.9000000000233 1178.9000000000233 1198.9000000000233 1218.9000000000233 1238.9000000000233 1258.9000000000233 1278.9000000000233 1298.9000000000233 1318.9000000000233 1338.9000000000233 1358.9000000000233 1378.9000000000233
cb_07,17.0,enc_trial,stim,response,Iceland trip,1080.000000095344,enc_trial,1.0,17.0,t_i_14_1,travel_Iceland,fold-c,snow pants,7.0,unique,close,paired,t_i_14_1.jpg,Iceland,travel-b1,Iceland trip,Miami trip,sub-77,1.0,1.0,1.0,1.0,0.5118055555555555 0.5138888888888888 0.5166666666666667 0.5180555555555556 0.5180555555555556 0.5104166666666666 0.4923611111111112 0.4666666666666667 0.4284722222222222 0.40347222222222223 0.3666666666666665 0.3368055555555556 0.3138888888888889 0.2958333333333333 0.2881944444444444 0.2861111111111111 0.28402777777777777 0.2826388888888889 0.27847222222222223 0.27291666666666664 0.26944444444444443 0.2659722222222222 0.2618055555555556 0.25555555555555554 0.24444444444444444 0.225 0.21180555555555555 0.1930555555555556 0.17777777777777778 0.1638888888888889 0.15416666666666667 0.15 0.1486111111111111,0.8351851851851853 0.825 0.8074074074074074 0.7805555555555556 0.75 0.7138888888888889 0.6685185185185185 0.6194444444444445 0.5592592592592592 0.5212962962962964 0.4648148148148148 0.4203703703703704 0.38796296296296295 0.3648148148148148 0.35 0.3379629629629629 0.3287037037037037 0.325 0.3185185185185185 0.30925925925925923 0.30000000000000004 0.2944444444444444 0.29166666666666663 0.2888888888888889 0.2833333333333333 0.27407407407407397 0.2666666666666667 0.25370370370370365 0.2407407407407407 0.225925925925926 0.2129629629629629 0.2046296296296296 0.20092592592592595,437.5 457.5 477.5 497.5 517.5 537.5 557.5 577.5 597.5 617.5 637.5 657.5 677.5 697.5 717.5 737.5 757.5 777.5 797.5 817.5 837.5 857.5 877.5 897.5 917.5 937.5 957.5 977.5 997.5 1017.5 1037.5 1057.5 1077.5
cb_07,18.0,enc_trial,stim,response,Miami trip,1103.1999999523396,enc_trial,1.0,18.0,t_s_02_2,travel_shared,fold-b,water bottle,7.0,competing,far,paired,t_s_02_2.jpg,,travel-b1,Iceland trip,Miami trip,sub-77,1.0,1.0,0.0,0.0,0.4951388888888889 0.4951388888888889 0.4944444444444445 0.4916666666666666 0.4868055555555556 0.4840277777777778 0.48125 0.4798611111111111 0.4798611111111111 0.4826388888888889 0.4958333333333334 0.5194444444444445 0.5576388888888889 0.60625 0.6569444444444444 0.7 0.7319444444444444 0.7541666666666667 0.7631944444444444 0.76875 0.7715277777777778 0.7729166666666667 0.7777777777777778 0.7930555555555555 0.8083333333333333 0.8166666666666667 0.8222222222222222 0.8305555555555556 0.8388888888888889 0.8479166666666667 0.8548611111111111 0.85625,0.8574074074074074 0.8546296296296296 0.8481481481481481 0.837037037037037 0.8222222222222222 0.8037037037037037 0.787037037037037 0.7712962962962963 0.7564814814814815 0.7416666666666667 0.7074074074074075 0.6592592592592592 0.5925925925925926 0.5120370370370371 0.4314814814814815 0.3675925925925926 0.3231481481481482 0.2898148148148149 0.2768518518518519 0.2675925925925926 0.2629629629629629 0.2592592592592593 0.2518518518518519 0.2351851851851852 0.21851851851851856 0.2129629629629629 0.21111111111111114 0.2083333333333333 0.2055555555555556 0.20185185185185184 0.1972222222222222 0.1962962962962963,479.2000000000117 499.2000000000117 519.2000000000116 539.2000000000116 559.2000000000116 579.2000000000116 599.2000000000116 619.2000000000116 639.2000000000116 659.2000000000116 679.2000000000116 699.2000000000116 719.2000000000116 739.2000000000116 759.2000000000116 779.2000000000116 799.2000000000116 819.2000000000116 839.2000000000116 859.2000000000116 879.2000000000116 899.2000000000116 919.2000000000116 939.2000000000116 959.2000000000116 979.2000000000116 999.2000000000116 1019.2000000000116 1039.2000000000116 1059.2000000000116 1079.2000000000116 1099.2000000000116
cb_07,19.0,enc_trial,stim,response,Miami trip,976.3000001430628,enc_trial,1.0,19.0,t_i_11_1,travel_Iceland,fold-d,headlamp,7.0,unique,far,paired,t_i_11_1.jpg,Iceland,travel-b1,Iceland trip,Miami trip,sub-77,0.0,0.0,1.0,1.0,0.4923611111111112 0.4923611111111112 0.4923611111111112 0.4923611111111112 0.4923611111111112 0.4923611111111112 0.4923611111111112 0.4923611111111112 0.4923611111111112 0.4923611111111112 0.4923611111111112 0.4923611111111112 0.4923611111111112 0.4923611111111112 0.4923611111111112 0.4923611111111112 0.4923611111111112 0.4916666666666666 0.4916666666666666 0.4909722222222222 0.4902777777777778 0.4902777777777778 0.4895833333333333 0.4888888888888889 0.4861111111111111 0.4833333333333333 0.4805555555555556 0.4770833333333334 0.4763888888888889 0.4875 0.5159722222222223 0.5680555555555555 0.6319444444444444 0.7125 0.76875 0.8395833333333333 0.8930555555555556 0.91875 0.9222222222222224 0.9180555555555556 0.9055555555555556 0.8958333333333334 0.8930555555555556 0.8923611111111112 0.8902777777777777 0.8868055555555555 0.8805555555555555 0.8805555555555555,0.8657407407407407 0.8657407407407407 0.8657407407407407 0.8657407407407407 0.8657407407407407 0.8657407407407407 0.8657407407407407 0.8657407407407407 0.8657407407407407 0.8657407407407407 0.8657407407407407 0.8657407407407407 0.8657407407407407 0.8648148148148148 0.8648148148148148 0.8648148148148148 0.8648148148148148 0.8648148148148148 0.8629629629629629 0.862037037037037 0.8611111111111112 0.8592592592592593 0.8583333333333334 0.8546296296296296 0.8462962962962963 0.8305555555555555 0.812037037037037 0.7787037037037037 0.7333333333333334 0.6842592592592592 0.6157407407407407 0.5351851851851852 0.4509259259259261 0.3527777777777777 0.2925925925925926 0.2222222222222222 0.17962962962962958 0.16481481481481486 0.16296296296296298 0.16481481481481486 0.1685185185185185 0.17129629629629628 0.17129629629629628 0.1703703703703704 0.1694444444444444 0.1694444444444444 0.17222222222222228 0.17314814814814816,6.799999999988357 26.799999999988362 46.79999999998836 66.79999999998836 86.79999999998836 106.79999999998836 126.79999999998836 146.7999999999884 166.7999999999884 186.79999999998842 206.79999999998842 226.79999999998842 246.79999999998842 266.7999999999884 286.79999999998836 306.79999999998836 326.79999999998836 346.7999999999884 366.7999999999884 386.7999999999884 406.7999999999884 426.7999999999884 446.7999999999884 466.7999999999884 486.7999999999884 506.7999999999884 526.7999999999884 546.7999999999884 566.7999999999884 586.7999999999884 606.7999999999884 626.7999999999884 646.7999999999884 666.7999999999884 686.7999999999884 706.7999999999884 726.7999999999884 746.7999999999884 766.7999999999884 786.7999999999884 806.7999999999884 826.7999999999884 846.7999999999884 866.7999999999884 886.7999999999884 906.7999999999884 926.7999999999884 946.7999999999884
cb_07,20.0,enc_trial,stim,response,Miami trip,1149.0000001430744,enc_trial,1.0,20.0,t_m_11_1,travel_Miami,fold-d,collapsible beach chair,7.0,unique,far,paired,t_m_11_1.jpg,Miami,travel-b1,Iceland trip,Miami trip,sub-77,1.0,1.0,1.0,1.0,0.4993055555555556 0.4993055555555556 0.4993055555555556 0.4993055555555556 0.4986111111111111 0.4986111111111111 0.4986111111111111 0.4986111111111111 0.4986111111111111 0.4986111111111111 0.4986111111111111 0.4986111111111111 0.4986111111111111 0.4986111111111111 0.4986111111111111 0.4986111111111111 0.4986111111111111 0.4986111111111111 0.4979166666666667 0.4979166666666667 0.4972222222222222 0.4965277777777778 0.4958333333333334 0.4958333333333334 0.4965277777777778 0.5034722222222222 0.5131944444444444 0.5340277777777778 0.5638888888888889 0.6055555555555555 0.65625 0.7069444444444445 0.7555555555555555 0.7944444444444444 0.8090277777777778 0.81875 0.8194444444444444 0.8201388888888889 0.8222222222222222 0.8222222222222222 0.8222222222222222 0.8236111111111111 0.8298611111111112 0.8361111111111111 0.84375 0.8506944444444444 0.8576388888888888 0.8631944444444445 0.8638888888888889,0.8388888888888889 0.8388888888888889 0.8388888888888889 0.8388888888888889 0.8388888888888889 0.8388888888888889 0.8388888888888889 0.8388888888888889 0.8388888888888889 0.8388888888888889 0.8388888888888889 0.8388888888888889 0.8388888888888889 0.8388888888888889 0.8388888888888889 0.8388888888888889 0.8388888888888889 0.8388888888888889 0.837962962962963 0.837962962962963 0.837962962962963 0.837037037037037 0.8342592592592593 0.825925925925926 0.8092592592592592 0.7768518518518519 0.7407407407407407 0.6703703703703704 0.5842592592592593 0.4925925925925926 0.39629629629629626 0.3037037037037037 0.21851851851851856 0.15555555555555556 0.13055555555555556 0.1166666666666667 0.1157407407407407 0.1157407407407407 0.1157407407407407 0.1157407407407407 0.1157407407407407 0.1157407407407407 0.11203703703703703 0.10833333333333328 0.10370370370370374 0.10277777777777776 0.10277777777777776 0.10370370370370374 0.10370370370370374,194.60000000003487 214.60000000003487 234.60000000003487 254.60000000003487 274.60000000003487 294.60000000003487 314.60000000003487 334.60000000003487 354.60000000003487 374.60000000003487 394.60000000003487 414.60000000003487 434.60000000003487 454.60000000003487 474.60000000003487 494.60000000003487 514.6000000000348 534.6000000000348 554.6000000000348 574.6000000000348 594.6000000000348 614.6000000000348 634.6000000000348 654.6000000000348 674.6000000000348 694.6000000000349 714.6000000000349 734.6000000000349 754.6000000000349 774.6000000000349 794.6000000000349 814.6000000000349 834.6000000000349 854.6000000000349 874.6000000000349 894.6000000000349 914.6000000000348 934.6000000000348 954.6000000000348 974.6000000000348 994.6000000000348 1014.6000000000348 1034.600000000035 1054.600000000035 1074.600000000035 1094.600000000035 1114.600000000035 1134.600000000035 1154.600000000035
cb_07,21.0,enc_trial,stim,response,Miami trip,1884.399999952293,enc_trial,1.0,21.0,t_s_12_1,travel_shared,fold-b,clear toiletry bag,7.0,competing,far,paired,t_s_12_1.jpg,,travel-b1,Iceland trip,Miami trip,sub-77,1.0,1.0,1.0,1.0,0.4895833333333333 0.4895833333333333 0.4895833333333333 0.4895833333333333 0.4895833333333333 0.4895833333333333 0.4895833333333333 0.4895833333333333 0.4895833333333333 0.4895833333333333 0.4895833333333333 0.4895833333333333 0.4895833333333333 0.4895833333333333 0.4895833333333333 0.4895833333333333 0.4895833333333333 0.4895833333333333 0.4895833333333333 0.4895833333333333 0.4895833333333333 0.4895833333333333 0.4895833333333333 0.4895833333333333 0.4895833333333333 0.4895833333333333 0.4895833333333333 0.4895833333333333 0.4895833333333333 0.4902777777777778 0.4902777777777778 0.4902777777777778 0.4902777777777778 0.4923611111111112 0.4944444444444445 0.4979166666666667 0.5041666666666667 0.5138888888888888 0.5256944444444445 0.5444444444444444 0.5680555555555555 0.6041666666666666 0.6270833333333333 0.6645833333333333 0.7034722222222223 0.7375 0.7611111111111111 0.7756944444444445 0.7840277777777778 0.7902777777777777 0.7958333333333333 0.7986111111111112 0.7993055555555556 0.7993055555555556 0.7993055555555556 0.7993055555555556 0.8013888888888889 0.8020833333333334 0.8020833333333334 0.8027777777777778 0.8048611111111111 0.8083333333333333 0.8125 0.8180555555555555 0.8194444444444444 0.8208333333333333 0.825 0.8270833333333333 0.8284722222222223 0.8298611111111112 0.8305555555555556,0.8333333333333334 0.8333333333333334 0.8324074074074074 0.8314814814814815 0.8314814814814815 0.8314814814814815 0.8305555555555555 0.8305555555555555 0.8305555555555555 0.8305555555555555 0.8305555555555555 0.8305555555555555 0.8305555555555555 0.8296296296296296 0.8296296296296296 0.8296296296296296 0.8296296296296296 0.8296296296296296 0.8287037037037037 0.8287037037037037 0.8287037037037037 0.8287037037037037 0.8287037037037037 0.8287037037037037 0.8277777777777777 0.825925925925926 0.825 0.8231481481481482 0.8212962962962963 0.8194444444444444 0.8175925925925926 0.8138888888888889 0.8083333333333333 0.7962962962962963 0.7842592592592592 0.7675925925925926 0.7324074074074074 0.6879629629629629 0.6425925925925926 0.5851851851851853 0.5157407407407407 0.412962962962963 0.34259259259259256 0.2314814814814815 0.1333333333333333 0.06944444444444442 0.03888888888888886 0.03240740740740744 0.037962962962962976 0.05000000000000005 0.062962962962963 0.07037037037037043 0.07777777777777772 0.08425925925925926 0.08425925925925926 0.08425925925925926 0.08611111111111114 0.08796296296296291 0.0888888888888889 0.0888888888888889 0.08981481481481479 0.0907407407407408 0.09259259259259256 0.0981481481481481 0.09907407407407408 0.10185185185185186 0.11018518518518516 0.1148148148148148 0.12037037037037035 0.12314814814814813 0.12314814814814813,499.7999999999884 519.7999999999884 539.7999999999884 559.7999999999881 579.7999999999881 599.7999999999881 619.7999999999881 639.799999999988 659.7999999999879 679.7999999999879 699.7999999999879 719.7999999999878 739.7999999999878 759.7999999999878 779.7999999999878 799.7999999999877 819.7999999999873 839.7999999999873 859.7999999999873 879.7999999999872 899.7999999999872 919.7999999999872 939.7999999999872 959.7999999999872 979.799999999987 999.799999999987 1019.799999999987 1039.7999999999868 1059.7999999999868 1079.7999999999868 1099.7999999999868 1119.7999999999863 1139.7999999999865 1159.7999999999865 1179.7999999999865 1199.7999999999865 1219.7999999999865 1239.7999999999865 1259.7999999999865 1279.7999999999859 1299.7999999999859 1319.7999999999859 1339.7999999999859 1359.7999999999859 1379.7999999999859 1399.7999999999859 1419.7999999999859 1439.7999999999854 1459.7999999999854 1479.7999999999854 1499.7999999999854 1519.7999999999854 1539.7999999999854 1559.7999999999854 1579.7999999999854 1599.7999999999854 1619.7999999999854 1639.7999999999854 1659.7999999999854 1679.799999999985 1699.799999999985 1719.799999999985 1739.7999999999847 1759.7999999999847 1779.7999999999847 1799.7999999999847 1819.7999999999847 1839.7999999999845 1859.7999999999845 1879.7999999999845 1899.7999999999845
cb_07,22.0,enc_trial,stim,response,Iceland trip,1094.0999999999767,enc_trial,1.0,22.0,t_i_07_1,travel_Iceland,fold-e-single,hiking backpack,7.0,unique,,single,t_i_07_1.jpg,Iceland,travel-b1,Iceland trip,Miami trip,sub-77,1.0,,1.0,,0.49375 0.4916666666666666 0.4861111111111111 0.4770833333333334 0.4611111111111112 0.43333333333333335 0.40902777777777777 0.3819444444444444 0.35208333333333336 0.33125 0.3069444444444445 0.2805555555555556 0.25416666666666665 0.22916666666666666 0.2013888888888889 0.18055555555555555 0.16597222222222222 0.15763888888888888 0.15 0.14722222222222225 0.1486111111111111 0.1527777777777778 0.15763888888888888 0.16527777777777775 0.1763888888888889 0.18541666666666667 0.18958333333333333 0.1902777777777777 0.1868055555555556 0.17708333333333334 0.16597222222222222 0.15486111111111112 0.14583333333333334 0.13819444444444445 0.13680555555555554,0.8222222222222222 0.8166666666666667 0.8046296296296296 0.787962962962963 0.7638888888888888 0.7324074074074074 0.6962962962962963 0.6574074074074074 0.6175925925925926 0.587037037037037 0.5481481481481482 0.5101851851851852 0.4768518518518519 0.4407407407407408 0.4037037037037037 0.3787037037037037 0.36203703703703705 0.3555555555555555 0.3490740740740741 0.34351851851851856 0.33611111111111114 0.3314814814814815 0.3240740740740741 0.30740740740740746 0.2805555555555556 0.2490740740740741 0.2305555555555555 0.2046296296296296 0.18333333333333326 0.16296296296296298 0.15000000000000002 0.1444444444444445 0.1444444444444445 0.14537037037037034 0.14629629629629626,416.69999999995343 436.69999999995343 456.69999999995343 476.69999999995343 496.69999999995343 516.6999999999534 536.6999999999534 556.6999999999534 576.6999999999534 596.6999999999534 616.6999999999534 636.6999999999534 656.6999999999534 676.6999999999534 696.6999999999533 716.6999999999533 736.6999999999533 756.6999999999533 776.6999999999533 796.6999999999533 816.6999999999533 836.6999999999533 856.6999999999533 876.6999999999533 896.6999999999533 916.6999999999533 936.6999999999533 956.6999999999533 976.6999999999533 996.6999999999533 1016.6999999999533 1036.6999999999532 1056.6999999999532 1076.6999999999532 1096.6999999999532
cb_07,23.0,enc_trial,stim,response,Miami trip,1187.1999999999534,enc_trial,1.0,23.0,t_s_21_2,travel_shared,fold-b,umbrella,7.0,competing,far,paired,t_s_21_2.jpg,,travel-b1,Iceland trip,Miami trip,sub-77,0.0,0.0,0.0,1.0,0.4902777777777778 0.4902777777777778 0.4902777777777778 0.4902777777777778 0.4902777777777778 0.4902777777777778 0.4902777777777778 0.4902777777777778 0.4902777777777778 0.4902777777777778 0.4902777777777778 0.4902777777777778 0.4902777777777778 0.4902777777777778 0.4902777777777778 0.4902777777777778 0.4902777777777778 0.4902777777777778 0.4902777777777778 0.4902777777777778 0.4909722222222222 0.4909722222222222 0.4916666666666666 0.4930555555555556 0.4972222222222222 0.5041666666666667 0.5118055555555555 0.5277777777777778 0.5520833333333334 0.5826388888888889 0.61875 0.6638888888888889 0.7104166666666667 0.7555555555555555 0.7791666666666667 0.8145833333333333 0.8409722222222222 0.8673611111111111 0.8881944444444444 0.8979166666666667 0.9 0.8993055555555556 0.8951388888888889 0.8902777777777777 0.8840277777777777 0.8763888888888889 0.8701388888888889 0.8659722222222223 0.8652777777777778 0.8659722222222223 0.8666666666666667 0.8666666666666667 0.8652777777777778 0.8645833333333334 0.8680555555555556 0.8708333333333333 0.8708333333333333 0.8708333333333333,0.8546296296296296 0.8546296296296296 0.8546296296296296 0.8537037037037037 0.8537037037037037 0.8537037037037037 0.8537037037037037 0.8537037037037037 0.8537037037037037 0.8537037037037037 0.8537037037037037 0.8537037037037037 0.8537037037037037 0.8537037037037037 0.8537037037037037 0.8537037037037037 0.8537037037037037 0.8518518518518519 0.85 0.8481481481481481 0.8453703703703703 0.8407407407407408 0.8342592592592593 0.825 0.812037037037037 0.7907407407407407 0.7731481481481481 0.7416666666666667 0.7 0.6555555555555556 0.612037037037037 0.5657407407407408 0.5203703703703704 0.4768518518518519 0.4527777777777777 0.4194444444444444 0.3972222222222223 0.3768518518518519 0.3657407407407407 0.3601851851851852 0.3601851851851852 0.36203703703703705 0.3694444444444445 0.3740740740740741 0.3787037037037037 0.3814814814814815 0.3814814814814815 0.3740740740740741 0.3583333333333333 0.3314814814814815 0.3055555555555556 0.29166666666666663 0.2685185185185185 0.2379629629629629 0.20277777777777767 0.1787037037037037 0.1694444444444444 0.16574074074074074,7.0 27.0 47.0 67.0 87.0 107.0 127.0 147.0 167.0 187.0 207.0 227.0 247.0 267.0 287.0 307.0 327.0 347.0 367.0 387.0 407.0 427.0 447.0 467.0 487.0 507.0 527.0 547.0 567.0 587.0 607.0 627.0 647.0 667.0 687.0 707.0 727.0 747.0 767.0 787.0 807.0 827.0 847.0 867.0 887.0 907.0 927.0 947.0 967.0 987.0 1007.0 1027.0 1047.0 1067.0 1087.0 1107.0 1127.0 1147.0
cb_07,24.0,enc_trial,stim,response,Iceland trip,1107.5999999999767,enc_trial,1.0,24.0,t_i_14_2,travel_Iceland,fold-c,snow pants,7.0,unique,close,paired,t_i_14_2.jpg,Iceland,travel-b1,Iceland trip,Miami trip,sub-77,1.0,1.0,1.0,1.0,0.4972222222222222 0.4972222222222222 0.50625 0.5208333333333334 0.5409722222222222 0.5541666666666667 0.5597222222222222 0.5604166666666667 0.55625 0.5513888888888889 0.5326388888888889 0.4958333333333334 0.4534722222222222 0.4083333333333333 0.3625 0.31875 0.2826388888888889 0.2659722222222222 0.2493055555555556 0.2388888888888889 0.2326388888888889 0.2270833333333333 0.2222222222222222 0.21736111111111112 0.2152777777777778 0.21388888888888888 0.20972222222222225 0.2 0.18611111111111112 0.16875 0.14930555555555555 0.12569444444444444 0.10555555555555557 0.08680555555555555 0.07916666666666666 0.07777777777777778,0.8453703703703703 0.8351851851851853 0.8037037037037037 0.7694444444444444 0.7240740740740741 0.6888888888888889 0.6685185185185185 0.6574074074074074 0.6490740740740741 0.6416666666666666 0.6268518518518518 0.6027777777777779 0.575 0.5472222222222223 0.5194444444444444 0.4990740740740741 0.4796296296296296 0.4657407407407408 0.4444444444444444 0.4222222222222223 0.4037037037037037 0.3851851851851852 0.3675925925925926 0.35185185185185186 0.337037037037037 0.31666666666666665 0.3027777777777778 0.2842592592592592 0.2601851851851852 0.2324074074074074 0.20277777777777767 0.1611111111111111 0.12870370370370365 0.10648148148148152 0.09907407407407408 0.0972222222222222,423.59999999997666 443.59999999997666 463.59999999997666 483.59999999997666 503.59999999997666 523.5999999999766 543.5999999999766 563.5999999999767 583.5999999999767 603.5999999999767 623.5999999999767 643.5999999999767 663.5999999999767 683.5999999999767 703.5999999999768 723.5999999999768 743.5999999999768 763.5999999999768 783.5999999999768 803.5999999999768 823.5999999999768 843.5999999999768 863.5999999999768 883.5999999999768 903.5999999999768 923.5999999999768 943.5999999999768 963.5999999999768 983.5999999999768 1003.5999999999768 1023.5999999999768 1043.5999999999767 1063.5999999999767 1083.5999999999767 1103.5999999999767 1123.5999999999767
cb_07,25.0,enc_trial,stim,response,Miami trip,1366.100000095379,enc_trial,1.0,25.0,t_s_04_1,travel_shared,fold-c-single,instant camera,7.0,competing,,single,t_s_04_1.jpg,,travel-b1,Iceland trip,Miami trip,sub-77,1.0,,1.0,,0.4895833333333333 0.4895833333333333 0.4895833333333333 0.4881944444444444 0.4881944444444444 0.4875 0.4875 0.4868055555555556 0.4868055555555556 0.4868055555555556 0.4868055555555556 0.4868055555555556 0.4868055555555556 0.4868055555555556 0.4868055555555556 0.4875 0.4930555555555556 0.4986111111111111 0.5104166666666666 0.5305555555555556 0.5645833333333333 0.6256944444444444 0.6993055555555555 0.7569444444444444 0.8 0.8298611111111112 0.8416666666666667 0.8520833333333333 0.8548611111111111 0.8548611111111111 0.8513888888888889 0.8430555555555556 0.8368055555555556 0.8340277777777778 0.8319444444444445 0.8277777777777777 0.8243055555555555 0.8222222222222222 0.8222222222222222 0.8284722222222223 0.8368055555555556 0.8513888888888889 0.8659722222222223 0.8743055555555556 0.8798611111111111 0.8805555555555555 0.8805555555555555,0.8824074074074074 0.8824074074074074 0.8805555555555555 0.8777777777777778 0.8731481481481481 0.8666666666666667 0.8592592592592593 0.8518518518518519 0.8435185185185186 0.8351851851851853 0.8231481481481482 0.8092592592592592 0.7953703703703704 0.7805555555555556 0.7648148148148148 0.7379629629629629 0.6962962962962963 0.6611111111111111 0.6111111111111112 0.5666666666666667 0.525 0.4740740740740741 0.4287037037037037 0.4009259259259259 0.3833333333333333 0.3712962962962964 0.3657407407407407 0.3629629629629629 0.36203703703703705 0.36203703703703705 0.3611111111111112 0.3601851851851852 0.3583333333333333 0.3527777777777777 0.3481481481481481 0.3407407407407408 0.3287037037037037 0.3111111111111111 0.2925925925925926 0.27222222222222225 0.2509259259259259 0.2277777777777777 0.20925925925925928 0.1953703703703704 0.18333333333333326 0.1787037037037037 0.1777777777777778,430.5 450.5 470.5 490.5 510.5 530.5 550.5 570.5 590.5 610.5 630.5 650.5 670.5 690.5 710.5 730.5 750.5 770.5 790.5 810.5 830.5 850.5 870.5 890.5 910.5 930.5 950.5 970.5 990.5 1010.5 1030.5 1050.5 1070.5 1090.5 1110.5 1130.5 1150.5 1170.5 1190.5 1210.5 1230.5 1250.5 1270.5 1290.5 1310.5 1330.5 1350.5
cb_07,26.0,enc_trial,stim,response,Miami trip,1327.0999999999767,enc_trial,1.0,26.0,t_s_08_1,travel_shared,fold-a,hand lotion,7.0,competing,close,paired,t_s_08_1.jpg,,travel-b1,Iceland trip,Miami trip,sub-77,0.0,0.0,1.0,0.0,0.4923611111111112 0.4916666666666666 0.4916666666666666 0.4895833333333333 0.4854166666666666 0.4777777777777778 0.46875 0.4583333333333333 0.4486111111111111 0.44375 0.4381944444444445 0.4340277777777778 0.4298611111111112 0.42291666666666666 0.4138888888888889 0.40347222222222223 0.3979166666666665 0.3979166666666665 0.40347222222222223 0.41875 0.4465277777777778 0.4923611111111112 0.5458333333333333 0.6069444444444444 0.6701388888888888 0.7319444444444444 0.7645833333333333 0.7979166666666667 0.8166666666666667 0.8222222222222222 0.8229166666666666 0.8236111111111111 0.8243055555555555 0.8236111111111111 0.8236111111111111 0.8236111111111111 0.8236111111111111 0.8243055555555555 0.8291666666666667 0.8326388888888889,0.8564814814814815 0.8555555555555556 0.8527777777777777 0.8490740740740741 0.8425925925925926 0.8324074074074074 0.8185185185185185 0.8037037037037037 0.7898148148148147 0.7824074074074074 0.775 0.7675925925925926 0.7564814814814815 0.7259259259259259 0.6796296296296296 0.6296296296296297 0.587037037037037 0.5629629629629629 0.5277777777777778 0.4861111111111112 0.4425925925925925 0.3953703703703704 0.3574074074074074 0.3231481481481482 0.2925925925925926 0.2666666666666667 0.2518518518518519 0.2361111111111112 0.225925925925926 0.2222222222222222 0.2203703703703704 0.21666666666666667 0.21111111111111114 0.2083333333333333 0.20740740740740726 0.20740740740740726 0.2064814814814815 0.20370370370370366 0.19814814814814816 0.19259259259259254,541.3999999999652 561.3999999999652 581.3999999999653 601.3999999999653 621.3999999999653 641.3999999999653 661.3999999999653 681.3999999999653 701.3999999999652 721.3999999999652 741.3999999999652 761.3999999999652 781.3999999999652 801.3999999999652 821.3999999999652 841.3999999999652 861.3999999999652 881.3999999999652 901.3999999999652 921.3999999999652 941.3999999999652 961.3999999999652 981.3999999999652 1001.3999999999652 1021.3999999999652 1041.399999999965 1061.399999999965 1081.399999999965 1101.399999999965 1121.399999999965 1141.399999999965 1161.399999999965 1181.399999999965 1201.399999999965 1221.399999999965 1241.399999999965 1261.399999999965 1281.399999999965 1301.399999999965 1321.399999999965
cb_07,27.0,enc_trial,stim,response,Iceland trip,1045.7999999523165,enc_trial,1.0,27.0,t_i_02_1,travel_Iceland,fold-e-single,scarf,7.0,unique,,single,t_i_02_1.jpg,Iceland,travel-b1,Iceland trip,Miami trip,sub-77,1.0,,0.0,,0.4895833333333333 0.4895833333333333 0.4895833333333333 0.4888888888888889 0.4875 0.4840277777777778 0.4756944444444444 0.4590277777777778 0.4340277777777778 0.4118055555555555 0.3756944444444445 0.3388888888888889 0.3034722222222222 0.2722222222222222 0.2465277777777778 0.2215277777777777 0.1993055555555556 0.18888888888888888 0.1763888888888889 0.16805555555555554 0.16319444444444445 0.15902777777777774 0.15347222222222226 0.14791666666666667 0.1423611111111111 0.13819444444444445 0.13680555555555554,0.862037037037037 0.8601851851851852 0.8555555555555556 0.8518518518518519 0.8453703703703703 0.8361111111111111 0.8194444444444444 0.7907407407407407 0.7518518518518519 0.7194444444444444 0.6592592592592592 0.5962962962962963 0.5361111111111111 0.4787037037037037 0.4240740740740741 0.3694444444444445 0.3203703703703704 0.2925925925925926 0.2481481481481481 0.21111111111111114 0.18611111111111112 0.17314814814814816 0.16481481481481486 0.15462962962962967 0.14722222222222225 0.14166666666666672 0.14166666666666672,527.5999999999766 547.5999999999766 567.5999999999766 587.5999999999766 607.5999999999766 627.5999999999766 647.5999999999766 667.5999999999766 687.5999999999766 707.5999999999766 727.5999999999766 747.5999999999766 767.5999999999766 787.5999999999766 807.5999999999766 827.5999999999766 847.5999999999766 867.5999999999766 887.5999999999766 907.5999999999766 927.5999999999766 947.5999999999766 967.5999999999766 987.5999999999766 1007.5999999999766 1027.5999999999767 1047.5999999999767
cb_07,28.0,enc_trial,stim,response,Iceland trip,1247.7000000000114,enc_trial,1.0,28.0,t_i_06_2,travel_Iceland,fold-d,knit hat,7.0,unique,far,paired,t_i_06_2.jpg,Iceland,travel-b1,Iceland trip,Miami trip,sub-77,1.0,1.0,1.0,1.0,0.4930555555555556 0.4930555555555556 0.4930555555555556 0.4930555555555556 0.49375 0.49375 0.49375 0.49375 0.49375 0.49375 0.49375 0.49375 0.49375 0.49375 0.49375 0.49375 0.49375 0.49375 0.49375 0.49375 0.49375 0.49375 0.49375 0.49375 0.49375 0.49375 0.49375 0.49375 0.49375 0.49375 0.49375 0.49375 0.49375 0.49375 0.4930555555555556 0.4909722222222222 0.4854166666666666 0.4694444444444445 0.4291666666666665 0.3736111111111111 0.31666666666666665 0.26805555555555555 0.2215277777777777 0.19652777777777766 0.16875 0.14930555555555555 0.1375 0.1326388888888889 0.13194444444444445 0.13194444444444445 0.13472222222222222 0.13819444444444445 0.14652777777777778 0.15347222222222226 0.15625 0.15625 0.15625,0.8722222222222222 0.8722222222222222 0.8731481481481481 0.8740740740740741 0.875 0.8759259259259259 0.8759259259259259 0.8759259259259259 0.8759259259259259 0.8759259259259259 0.8759259259259259 0.8759259259259259 0.8759259259259259 0.8759259259259259 0.8759259259259259 0.8759259259259259 0.8759259259259259 0.8759259259259259 0.8759259259259259 0.8759259259259259 0.8759259259259259 0.8759259259259259 0.8759259259259259 0.8759259259259259 0.8759259259259259 0.8759259259259259 0.8759259259259259 0.8759259259259259 0.8759259259259259 0.8759259259259259 0.8759259259259259 0.875 0.8731481481481481 0.8712962962962962 0.8694444444444445 0.8638888888888889 0.8518518518518519 0.8287037037037037 0.7777777777777778 0.7148148148148148 0.6361111111111111 0.5546296296296296 0.4694444444444445 0.4212962962962963 0.3685185185185185 0.3296296296296296 0.29907407407407405 0.2768518518518519 0.2592592592592593 0.24722222222222226 0.2379629629629629 0.2314814814814815 0.21666666666666667 0.1953703703703704 0.17314814814814816 0.15648148148148144 0.1527777777777778,138.79999999998836 158.7999999999884 178.79999999998836 198.79999999998842 218.79999999998842 238.79999999998842 258.7999999999884 278.7999999999884 298.79999999998836 318.79999999998836 338.79999999998836 358.7999999999884 378.7999999999884 398.7999999999884 418.7999999999884 438.7999999999884 458.7999999999884 478.7999999999884 498.7999999999884 518.7999999999884 538.7999999999884 558.7999999999884 578.7999999999884 598.7999999999884 618.7999999999884 638.7999999999884 658.7999999999884 678.7999999999884 698.7999999999884 718.7999999999884 738.7999999999884 758.7999999999884 778.7999999999884 798.7999999999884 818.7999999999884 838.7999999999884 858.7999999999884 878.7999999999884 898.7999999999884 918.7999999999884 938.7999999999884 958.7999999999884 978.7999999999884 998.7999999999884 1018.7999999999884 1038.7999999999884 1058.7999999999884 1078.7999999999884 1098.7999999999884 1118.7999999999884 1138.7999999999886 1158.7999999999886 1178.7999999999886 1198.7999999999886 1218.7999999999886 1238.7999999999886 1258.7999999999886
cb_07,29.0,enc_trial,stim,response,Iceland trip,2695.9000001430395,enc_trial,1.0,29.0,t_s_13_1,travel_shared,fold-c-single,contact lens case,7.0,competing,,single,t_s_13_1.jpg,,travel-b1,Iceland trip,Miami trip,sub-77,1.0,,0.0,,0.5 0.5 0.5 0.5 0.5 0.5 0.5 0.5034722222222222 0.5090277777777777 0.5131944444444444 0.5215277777777778 0.5395833333333333 0.575 0.6236111111111111 0.6868055555555556 0.7458333333333333 0.7930555555555555 0.8333333333333334 0.85 0.8666666666666667 0.8715277777777778 0.8722222222222222 0.8722222222222222 0.8729166666666667 0.8722222222222222 0.8694444444444445 0.8666666666666667 0.8631944444444445 0.8618055555555556 0.8618055555555556 0.8590277777777777 0.8527777777777777 0.8451388888888889 0.8340277777777778 0.825 0.8034722222222223 0.7708333333333334 0.7298611111111111 0.6729166666666667 0.6125 0.5513888888888889 0.4909722222222222 0.44166666666666665 0.4118055555555555 0.4048611111111111 0.4048611111111111 0.4048611111111111 0.4048611111111111 0.4048611111111111 0.4048611111111111 0.4055555555555556 0.4055555555555556 0.4041666666666667 0.3986111111111112 0.3868055555555556 0.3694444444444445 0.34652777777777777 0.3229166666666667 0.3013888888888889 0.2902777777777778 0.2770833333333333 0.26875 0.2652777777777778 0.2652777777777778 0.26666666666666666 0.26666666666666666 0.2652777777777778 0.2576388888888889 0.25069444444444444 0.24097222222222225 0.22847222222222224 0.21319444444444444 0.2 0.1868055555555556 0.1868055555555556 0.1868055555555556 0.1868055555555556 0.1868055555555556 0.1868055555555556 0.1868055555555556 0.1868055555555556 0.1868055555555556 0.1868055555555556 0.1868055555555556 0.18888888888888888 0.1930555555555556 0.19722222222222224 0.20416666666666666 0.21041666666666667 0.21319444444444444 0.21319444444444444 0.2111111111111111 0.20208333333333334 0.19375 0.18125,0.8703703703703703 0.8703703703703703 0.8703703703703703 0.8703703703703703 0.8694444444444445 0.8685185185185185 0.8657407407407407 0.8564814814814815 0.8351851851851853 0.8148148148148149 0.7712962962962963 0.7157407407407408 0.6472222222222221 0.5833333333333333 0.5148148148148148 0.4564814814814815 0.412962962962963 0.3759259259259259 0.3601851851851852 0.3416666666666667 0.33333333333333337 0.32685185185185184 0.3175925925925925 0.3083333333333333 0.29907407407407405 0.2925925925925926 0.2888888888888889 0.2796296296296297 0.2657407407407407 0.2333333333333333 0.1953703703703704 0.16759259259259265 0.1527777777777778 0.1435185185185185 0.13981481481481484 0.13703703703703707 0.1351851851851852 0.1342592592592593 0.13148148148148153 0.11944444444444445 0.10370370370370374 0.08518518518518514 0.07037037037037043 0.06018518518518521 0.05833333333333335 0.05833333333333335 0.05833333333333335 0.05833333333333335 0.05833333333333335 0.05833333333333335 0.06481481481481477 0.06759259259259254 0.06759259259259254 0.0712962962962963 0.07592592592592595 0.08333333333333337 0.09537037037037033 0.11388888888888893 0.13240740740740742 0.14722222222222225 0.17314814814814816 0.2064814814814815 0.23703703703703705 0.2509259259259259 0.25277777777777777 0.2509259259259259 0.2361111111111112 0.21851851851851856 0.2064814814814815 0.19259259259259254 0.18333333333333326 0.1777777777777778 0.17500000000000004 0.17314814814814816 0.17314814814814816 0.17314814814814816 0.17314814814814816 0.17314814814814816 0.17314814814814816 0.17314814814814816 0.17314814814814816 0.17314814814814816 0.17314814814814816 0.17314814814814816 0.17500000000000004 0.17592592592592593 0.17592592592592593 0.17592592592592593 0.17592592592592593 0.17592592592592593 0.17592592592592593 0.17592592592592593 0.17592592592592593 0.17592592592592593 0.17592592592592593,666.5 686.5 706.5 726.5 746.5 766.5 786.5 806.5 826.5 846.5 866.5 886.5 906.5 926.5 946.5 966.5 986.5 1006.5 1026.5 1046.5 1066.5 1086.5 1106.5 1126.5 1146.5 1166.5 1186.5 1206.5 1226.5 1246.5 1266.5 1286.5 1306.5 1326.5 1346.5 1366.5 1386.5 1406.5 1426.5 1446.5 1466.5 1486.5 1506.5 1526.5 1546.5 1566.5 1586.5 1606.5 1626.5 1646.5 1666.5 1686.5 1706.5 1726.5 1746.5 1766.5 1786.5 1806.5 1826.5 1846.5 1866.5 1886.5 1906.5 1926.5 1946.5 1966.5 1986.5 2006.5 2026.5 2046.5 2066.5 2086.5 2106.5 2126.5 2146.5 2166.5 2186.5 2206.5 2226.5 2246.5 2266.5 2286.5 2306.5 2326.5 2346.5 2366.5 2386.5 2406.5 2426.5 2446.5 2466.5 2486.5 2506.5 2526.5 2546.5
cb_07,30.0,enc_trial,stim,response,Miami trip,1244.100000047707,enc_trial,1.0,30.0,t_m_20_1,travel_Miami,fold-e-single,inflatable beachball,7.0,unique,,single,t_m_20_1.jpg,Miami,travel-b1,Iceland trip,Miami trip,sub-77,1.0,,1.0,,0.4979166666666667 0.4972222222222222 0.4972222222222222 0.4972222222222222 0.4972222222222222 0.4972222222222222 0.4972222222222222 0.4972222222222222 0.4972222222222222 0.4972222222222222 0.4972222222222222 0.4972222222222222 0.4972222222222222 0.4972222222222222 0.4972222222222222 0.4972222222222222 0.4972222222222222 0.4986111111111111 0.5013888888888889 0.5111111111111111 0.5298611111111111 0.5569444444444445 0.5930555555555556 0.6381944444444444 0.6847222222222222 0.7256944444444444 0.7479166666666667 0.7784722222222222 0.8090277777777778 0.8416666666666667 0.8583333333333333 0.8618055555555556 0.8611111111111112 0.8576388888888888 0.8555555555555555 0.8527777777777777 0.8479166666666667 0.8395833333333333 0.8305555555555556 0.8243055555555555 0.8229166666666666 0.8222222222222222 0.825 0.8277777777777777 0.8340277777777778 0.8409722222222222 0.8472222222222222 0.8513888888888889 0.8534722222222222,0.8564814814814815 0.8564814814814815 0.8564814814814815 0.8564814814814815 0.8564814814814815 0.8564814814814815 0.8564814814814815 0.8564814814814815 0.8564814814814815 0.8564814814814815 0.8564814814814815 0.8564814814814815 0.8564814814814815 0.8564814814814815 0.8564814814814815 0.8555555555555556 0.8537037037037037 0.8472222222222222 0.8407407407407408 0.8222222222222222 0.7944444444444445 0.7555555555555555 0.7046296296296296 0.6370370370370371 0.5694444444444444 0.5120370370370371 0.4787037037037037 0.4268518518518518 0.3712962962962964 0.3203703703703704 0.29074074074074074 0.2768518518518519 0.27222222222222225 0.2703703703703704 0.2703703703703704 0.27129629629629626 0.275 0.2796296296296297 0.2861111111111111 0.2888888888888889 0.28796296296296303 0.28240740740740744 0.2703703703703704 0.2592592592592593 0.2333333333333333 0.20925925925925928 0.19259259259259254 0.18518518518518529 0.18148148148148147,236.10000000003487 256.10000000003487 276.10000000003487 296.10000000003487 316.10000000003487 336.10000000003487 356.10000000003487 376.10000000003487 396.10000000003487 416.10000000003487 436.10000000003487 456.10000000003487 476.10000000003487 496.10000000003487 516.1000000000348 536.1000000000348 556.1000000000348 576.1000000000348 596.1000000000348 616.1000000000348 636.1000000000348 656.1000000000348 676.1000000000348 696.1000000000349 716.1000000000349 736.1000000000349 756.1000000000349 776.1000000000349 796.1000000000349 816.1000000000349 836.1000000000349 856.1000000000349 876.1000000000349 896.1000000000349 916.1000000000348 936.1000000000348 956.1000000000348 976.1000000000348 996.1000000000348 1016.1000000000348 1036.100000000035 1056.100000000035 1076.100000000035 1096.100000000035 1116.100000000035 1136.100000000035 1156.100000000035 1176.100000000035 1196.100000000035
cb_07,31.0,enc_trial,stim,response,Iceland trip,1560.000000095344,enc_trial,1.0,31.0,t_m_05_2,travel_Miami,fold-d,sunscreen,7.0,unique,far,paired,t_m_05_2.jpg,Miami,travel-b1,Iceland trip,Miami trip,sub-77,0.0,0.0,0.0,1.0,0.4986111111111111 0.4979166666666667 0.4972222222222222 0.4965277777777778 0.4965277777777778 0.4965277777777778 0.4965277777777778 0.4965277777777778 0.4965277777777778 0.4965277777777778 0.4965277777777778 0.4965277777777778 0.4965277777777778 0.4965277777777778 0.4965277777777778 0.4965277777777778 0.4965277777777778 0.4965277777777778 0.4965277777777778 0.4965277777777778 0.4965277777777778 0.4993055555555556 0.5111111111111111 0.5291666666666667 0.5402777777777777 0.54375 0.54375 0.5395833333333333 0.53125 0.5145833333333333 0.4895833333333333 0.4618055555555556 0.43125 0.40208333333333335 0.38125 0.3548611111111111 0.33611111111111114 0.3173611111111111 0.3 0.2888888888888889 0.28194444444444444 0.28125 0.28125 0.28125 0.28125 0.28125 0.28125 0.28125 0.28125 0.28125 0.28125 0.28125 0.28125 0.28125 0.2659722222222222 0.25277777777777777 0.24097222222222225 0.23125 0.2222222222222222 0.2180555555555556 0.2125 0.2076388888888889 0.2048611111111111 0.20347222222222225 0.20069444444444445 0.19791666666666666 0.1930555555555556 0.1868055555555556 0.18125 0.17222222222222222 0.16111111111111112 0.15069444444444444 0.14583333333333334,0.8629629629629629 0.8629629629629629 0.8648148148148148 0.8648148148148148 0.8648148148148148 0.8648148148148148 0.8648148148148148 0.8648148148148148 0.8648148148148148 0.8648148148148148 0.8648148148148148 0.8648148148148148 0.8648148148148148 0.8648148148148148 0.8648148148148148 0.8648148148148148 0.8648148148148148 0.8648148148148148 0.8648148148148148 0.8648148148148148 0.8648148148148148 0.8555555555555556 0.8407407407407408 0.8185185185185185 0.7981481481481482 0.7833333333333333 0.7740740740740741 0.7638888888888888 0.7518518518518519 0.7388888888888889 0.7212962962962963 0.700925925925926 0.6777777777777778 0.6462962962962964 0.6111111111111112 0.5527777777777778 0.4990740740740741 0.462037037037037 0.4342592592592592 0.4157407407407408 0.4046296296296297 0.4046296296296297 0.4046296296296297 0.4046296296296297 0.4046296296296297 0.4046296296296297 0.4046296296296297 0.4046296296296297 0.4046296296296297 0.4046296296296297 0.4046296296296297 0.4046296296296297 0.4046296296296297 0.4046296296296297 0.4111111111111111 0.4037037037037037 0.3861111111111111 0.3648148148148148 0.3472222222222222 0.3379629629629629 0.325 0.30740740740740746 0.2861111111111111 0.2675925925925926 0.25462962962962965 0.2435185185185185 0.2342592592592593 0.2240740740740741 0.2157407407407408 0.20185185185185184 0.18888888888888888 0.18148148148148147 0.17962962962962958,117.89999999996508 137.89999999996508 157.8999999999651 177.8999999999651 197.8999999999651 217.8999999999651 237.8999999999651 257.8999999999651 277.8999999999651 297.89999999996513 317.89999999996513 337.89999999996513 357.89999999996513 377.89999999996513 397.89999999996513 417.89999999996513 437.89999999996513 457.89999999996513 477.89999999996513 497.89999999996513 517.8999999999652 537.8999999999652 557.8999999999652 577.8999999999652 597.8999999999652 617.8999999999652 637.8999999999652 657.8999999999652 677.8999999999652 697.8999999999651 717.8999999999651 737.8999999999651 757.8999999999651 777.8999999999651 797.8999999999651 817.8999999999651 837.8999999999651 857.8999999999651 877.8999999999651 897.8999999999651 917.8999999999652 937.8999999999652 957.8999999999652 977.8999999999652 997.8999999999652 1017.8999999999652 1037.899999999965 1057.899999999965 1077.899999999965 1097.899999999965 1117.899999999965 1137.899999999965 1157.899999999965 1177.899999999965 1197.899999999965 1217.899999999965 1237.899999999965 1257.899999999965 1277.899999999965 1297.899999999965 1317.899999999965 1337.899999999965 1357.899999999965 1377.8999999999648 1397.8999999999648 1417.8999999999648 1437.8999999999648 1457.8999999999648 1477.8999999999648 1497.8999999999648 1517.8999999999648 1537.8999999999648 1557.8999999999648
cb_07,32.0,enc_trial,stim,response,Miami trip,1543.5000001430747,enc_trial,1.0,32.0,t_s_08_2,travel_shared,fold-a,hand lotion,7.0,competing,close,paired,t_s_08_2.jpg,,travel-b1,Iceland trip,Miami trip,sub-77,0.0,0.0,1.0,0.0,0.5006944444444444 0.5006944444444444 0.5 0.4986111111111111 0.4972222222222222 0.4944444444444445 0.4958333333333334 0.4993055555555556 0.5041666666666667 0.5104166666666666 0.5284722222222222 0.5618055555555556 0.6013888888888889 0.6506944444444445 0.7048611111111112 0.7513888888888889 0.7895833333333333 0.8159722222222222 0.8291666666666667 0.8402777777777778 0.8416666666666667 0.8416666666666667 0.8416666666666667 0.8416666666666667 0.8416666666666667 0.8416666666666667 0.8416666666666667 0.8409722222222222 0.8409722222222222 0.8409722222222222 0.8409722222222222 0.8423611111111111 0.84375 0.8458333333333333 0.8472222222222222 0.8486111111111111 0.85 0.85 0.85 0.85 0.85 0.85 0.85 0.85 0.85 0.85 0.85 0.85 0.8493055555555555,0.8518518518518519 0.8490740740740741 0.8444444444444444 0.8351851851851853 0.8231481481481482 0.8 0.7675925925925926 0.7240740740740741 0.6787037037037037 0.6481481481481481 0.6074074074074074 0.5629629629629629 0.5222222222222221 0.4703703703703703 0.4185185185185185 0.3787037037037037 0.34259259259259256 0.3138888888888889 0.29814814814814816 0.28148148148148144 0.2777777777777778 0.2777777777777778 0.2777777777777778 0.2768518518518519 0.2768518518518519 0.2768518518518519 0.28148148148148144 0.2861111111111111 0.2870370370370371 0.2861111111111111 0.2777777777777778 0.2629629629629629 0.24629629629629635 0.2296296296296297 0.21944444444444444 0.20370370370370366 0.19259259259259254 0.18518518518518529 0.18240740740740746 0.18240740740740746 0.18240740740740746 0.18240740740740746 0.18240740740740746 0.18240740740740746 0.18240740740740746 0.18240740740740746 0.18240740740740746 0.18333333333333326 0.18425925925925926,520.9000000000234 540.9000000000234 560.9000000000234 580.9000000000234 600.9000000000234 620.9000000000234 640.9000000000234 660.9000000000234 680.9000000000234 700.9000000000234 720.9000000000234 740.9000000000234 760.9000000000234 780.9000000000234 800.9000000000234 820.9000000000234 840.9000000000234 860.9000000000234 880.9000000000234 900.9000000000234 920.9000000000234 940.9000000000234 960.9000000000234 980.9000000000234 1000.9000000000234 1020.9000000000234 1040.9000000000233 1060.9000000000233 1080.9000000000233 1100.9000000000233 1120.9000000000233 1140.9000000000233 1160.9000000000233 1180.9000000000233 1200.9000000000233 1220.9000000000233 1240.9000000000233 1260.9000000000233 1280.9000000000233 1300.9000000000233 1320.9000000000233 1340.9000000000233 1360.9000000000233 1380.9000000000233 1400.9000000000233 1420.9000000000233 1440.9000000000233 1460.9000000000233 1480.9000000000233
cb_07,33.0,enc_trial,stim,response,Miami trip,1235.9000000000233,enc_trial,1.0,33.0,t_m_11_2,travel_Miami,fold-d,collapsible beach chair,7.0,unique,far,paired,t_m_11_2.jpg,Miami,travel-b1,Iceland trip,Miami trip,sub-77,1.0,1.0,1.0,1.0,0.49375 0.4958333333333334 0.4965277777777778 0.4965277777777778 0.4965277777777778 0.4965277777777778 0.4965277777777778 0.4965277777777778 0.4965277777777778 0.4965277777777778 0.4965277777777778 0.4965277777777778 0.4958333333333334 0.4951388888888889 0.4944444444444445 0.49375 0.4930555555555556 0.4923611111111112 0.4923611111111112 0.4923611111111112 0.4916666666666666 0.4916666666666666 0.4916666666666666 0.4916666666666666 0.4916666666666666 0.4916666666666666 0.4916666666666666 0.4916666666666666 0.4923611111111112 0.4958333333333334 0.5055555555555555 0.5229166666666667 0.5479166666666667 0.58125 0.6076388888888888 0.6486111111111111 0.6923611111111111 0.7423611111111111 0.7986111111111112 0.8479166666666667 0.8909722222222223 0.9166666666666666 0.9263888888888888 0.9291666666666668 0.9284722222222224 0.9277777777777778 0.9270833333333334 0.925 0.9215277777777776 0.9208333333333332 0.9201388888888888 0.91875 0.9166666666666666 0.9131944444444444 0.9069444444444444 0.8993055555555556 0.8916666666666667 0.8861111111111111 0.8840277777777777,0.8546296296296296 0.8527777777777777 0.8518518518518519 0.85 0.8481481481481481 0.8481481481481481 0.8481481481481481 0.8481481481481481 0.8481481481481481 0.8481481481481481 0.8481481481481481 0.8481481481481481 0.8462962962962963 0.8453703703703703 0.8425925925925926 0.8416666666666667 0.8398148148148148 0.8388888888888889 0.837962962962963 0.837962962962963 0.837037037037037 0.837037037037037 0.837037037037037 0.837037037037037 0.837037037037037 0.837037037037037 0.837037037037037 0.8333333333333334 0.825925925925926 0.8111111111111111 0.787037037037037 0.7472222222222222 0.6981481481481482 0.6444444444444444 0.6074074074074074 0.5583333333333333 0.512962962962963 0.4685185185185186 0.4194444444444444 0.3694444444444445 0.3148148148148148 0.2759259259259259 0.25555555555555554 0.2398148148148148 0.2324074074074074 0.22685185185185186 0.225 0.2231481481481481 0.2203703703703704 0.21944444444444444 0.2157407407407408 0.2129629629629629 0.20925925925925928 0.20277777777777767 0.19259259259259254 0.18240740740740746 0.1703703703703704 0.1620370370370371 0.15833333333333333,76.30000000004655 96.30000000004655 116.30000000004655 136.30000000004657 156.30000000004657 176.30000000004657 196.30000000004657 216.30000000004657 236.30000000004657 256.30000000004657 276.30000000004657 296.30000000004657 316.30000000004657 336.30000000004657 356.30000000004657 376.30000000004657 396.30000000004657 416.30000000004657 436.30000000004657 456.30000000004657 476.30000000004657 496.30000000004657 516.3000000000466 536.3000000000466 556.3000000000466 576.3000000000466 596.3000000000466 616.3000000000466 636.3000000000466 656.3000000000466 676.3000000000466 696.3000000000467 716.3000000000467 736.3000000000467 756.3000000000467 776.3000000000467 796.3000000000467 816.3000000000467 836.3000000000467 856.3000000000467 876.3000000000467 896.3000000000467 916.3000000000467 936.3000000000467 956.3000000000467 976.3000000000467 996.3000000000467 1016.3000000000467 1036.3000000000468 1056.3000000000468 1076.3000000000468 1096.3000000000468 1116.3000000000468 1136.3000000000466 1156.3000000000466 1176.3000000000466 1196.3000000000466 1216.3000000000466 1236.3000000000466
